onset	duration	text	rt	key_press	block_duration	timing_post_trial	trial_id	trial_type	trial_index	time_elapsed	internal_node_id	exp_id	subject_id	trigger_times	triggers	stimulus	possible_responses	stim_duration	exp_stage	SS_stimulus	SS_trial_type	SS_duration	load	trial_num	stop_trial_type	adaptive_trial_type	stim	yes_response_key	no_response_key	SSD_target	SSD_non_target	SSTarget	SSNonTarget	go_acc	SS_delay	adaptive_acc	stop_acc	new_trial_type
test	10880	n/a	-1	-1	10880	0.0	practice-no-stop-feedback	poldrack-single-stim	198	600193	0.0-12.0	beast_fmri_test	384	589313,/,589993,/,590673,/,591353,/,592033,/,592713,/,593393,/,594073,/,594753,/,595433,/,596113,/,596792,/,597473,/,598152,/,598832,/,599513,/,600193,/	t,t,t,t,t,t,t,t,t,t,t,t,t,t,t,t,t	"<div class = ""centerbox2_2""><p class = ""block-text2"">Your delay is 1 trials.</p><p class = block-text2>Please wait for the scanner to start the block</p></div>"	77	10880.0	n/a	n/a	n/a	n/a	n/a	n/a	n/a	n/a	n/a	n/a	n/a	n/a	n/a	n/a	n/a	n/a	n/a	n/a	n/a	start_functional_block
11382	500	n/a	-1	-1	500	0.0	fixation	poldrack-single-stim	199	600695	0.0-13.0-0.0	beast_fmri_test	384	n/a	n/a	<div class = centerbox2><div class = fixation>+</div></div>	none	500.0	test	n/a	n/a	n/a	n/a	n/a	n/a	n/a	n/a	n/a	n/a	n/a	n/a	n/a	n/a	n/a	n/a	n/a	n/a	fixation
9329.3846070000436	2750	n/a	1310	89	2750	2054.615393	stim	stop-signal	200	603447	0.0-13.0-1.0	beast_fmri_test	384	600872,/,601553,/,602232,/,602912,/,603592,/,604272,/,604952,/	t,t,t,t,t,t,t	<img class = center src='/static/experiments/beast_fmri_test/images/B.png'></img>	71,89	2750.0	test	<img class = center src='/static/experiments/beast_fmri_test/images/redB.png'></img>	go	-1.0	1.0	0.0	go	temp-non-target	B	71,Index Finger	89,Middle Finger	900.0	1000.0	1900.0	1750.0	0.0	n/a	n/a	n/a	go_stim
12079.384607000044	2054.615393	n/a	1310	89	2750	2054.615393	stim	stop-signal	200	603447	0.0-13.0-1.0	beast_fmri_test	384	600872,/,601553,/,602232,/,602912,/,603592,/,604272,/,604952,/	t,t,t,t,t,t,t	<img class = center src='/static/experiments/beast_fmri_test/images/B.png'></img>	71,89	2750.0	test	<img class = center src='/static/experiments/beast_fmri_test/images/redB.png'></img>	go	-1.0	1.0	0.0	go	temp-non-target	B	71,Index Finger	89,Middle Finger	900.0	1000.0	1900.0	1750.0	0.0	n/a	n/a	n/a	ITI
16697	500	n/a	-1	-1	500	0.0	fixation	poldrack-single-stim	201	606010	0.0-13.1-0.1	beast_fmri_test	384	605634,/	t	<div class = centerbox2><div class = fixation>+</div></div>	none	500.0	test	n/a	n/a	n/a	n/a	n/a	n/a	n/a	n/a	n/a	n/a	n/a	n/a	n/a	n/a	n/a	n/a	n/a	n/a	fixation
15954.521379800048	2750	n/a	1060	89	2750	745.4786202	stim	stop-signal	202	608763	0.0-13.1-1.1	beast_fmri_test	384	606312,/,606993,/,607672,/,608352,/,609033,/	t,t,t,t,t	<img class = center src='/static/experiments/beast_fmri_test/images/D.png'></img>	71,89	2750.0	test	<img class = center src='/static/experiments/beast_fmri_test/images/redD.png'></img>	go	1750.0	1.0	1.0	go	non-target	D	71,Index Finger	89,Middle Finger	900.0	1000.0	1900.0	1750.0	1.0	1000.0	1.0	n/a	go_stim
18704.521379800048	745.47862020000002	n/a	1060	89	2750	745.4786202	stim	stop-signal	202	608763	0.0-13.1-1.1	beast_fmri_test	384	606312,/,606993,/,607672,/,608352,/,609033,/	t,t,t,t,t	<img class = center src='/static/experiments/beast_fmri_test/images/D.png'></img>	71,89	2750.0	test	<img class = center src='/static/experiments/beast_fmri_test/images/redD.png'></img>	go	1750.0	1.0	1.0	go	non-target	D	71,Index Finger	89,Middle Finger	900.0	1000.0	1900.0	1750.0	1.0	1000.0	1.0	n/a	ITI
20704	500	n/a	-1	-1	500	0.0	fixation	poldrack-single-stim	203	610017	0.0-13.2-0.2	beast_fmri_test	384	609713,/	t	<div class = centerbox2><div class = fixation>+</div></div>	none	500.0	test	n/a	n/a	n/a	n/a	n/a	n/a	n/a	n/a	n/a	n/a	n/a	n/a	n/a	n/a	n/a	n/a	n/a	n/a	fixation
19551.339590999996	2750	n/a	1185	89	2750	1154.660409	stim	stop-signal	204	612769	0.0-13.2-1.2	beast_fmri_test	384	610393,/,611073,/,611753,/,612433,/,613113,/,613793,/	t,t,t,t,t,t	<img class = center src='/static/experiments/beast_fmri_test/images/T.png'></img>	71,89	2750.0	test	<img class = center src='/static/experiments/beast_fmri_test/images/redT.png'></img>	go	1750.0	1.0	2.0	go	non-target	T	71,Index Finger	89,Middle Finger	900.0	1000.0	1900.0	1750.0	1.0	1000.0	1.0	n/a	go_stim
22301.339590999996	1154.6604090000001	n/a	1185	89	2750	1154.660409	stim	stop-signal	204	612769	0.0-13.2-1.2	beast_fmri_test	384	610393,/,611073,/,611753,/,612433,/,613113,/,613793,/	t,t,t,t,t,t	<img class = center src='/static/experiments/beast_fmri_test/images/T.png'></img>	71,89	2750.0	test	<img class = center src='/static/experiments/beast_fmri_test/images/redT.png'></img>	go	1750.0	1.0	2.0	go	non-target	T	71,Index Finger	89,Middle Finger	900.0	1000.0	1900.0	1750.0	1.0	1000.0	1.0	n/a	ITI
25120	500	n/a	-1	-1	500	0.0	fixation	poldrack-single-stim	205	614433	0.0-13.3-0.3	beast_fmri_test	384	n/a	n/a	<div class = centerbox2><div class = fixation>+</div></div>	none	500.0	test	n/a	n/a	n/a	n/a	n/a	n/a	n/a	n/a	n/a	n/a	n/a	n/a	n/a	n/a	n/a	n/a	n/a	n/a	fixation
23748.616849999991	2750	n/a	1138	89	2750	1373.38315	stim	stop-signal	206	617185	0.0-13.3-1.3	beast_fmri_test	384	614473,/,615153,/,615834,/,616513,/,617193,/,617873,/,618553,/	t,t,t,t,t,t,t	<img class = center src='/static/experiments/beast_fmri_test/images/V.png'></img>	71,89	2750.0	test	<img class = center src='/static/experiments/beast_fmri_test/images/redV.png'></img>	go	1750.0	1.0	3.0	go	non-target	V	71,Index Finger	89,Middle Finger	900.0	1000.0	1900.0	1750.0	1.0	1000.0	1.0	n/a	go_stim
26498.616849999991	1373.3831499999999	n/a	1138	89	2750	1373.38315	stim	stop-signal	206	617185	0.0-13.3-1.3	beast_fmri_test	384	614473,/,615153,/,615834,/,616513,/,617193,/,617873,/,618553,/	t,t,t,t,t,t,t	<img class = center src='/static/experiments/beast_fmri_test/images/V.png'></img>	71,89	2750.0	test	<img class = center src='/static/experiments/beast_fmri_test/images/redV.png'></img>	go	1750.0	1.0	3.0	go	non-target	V	71,Index Finger	89,Middle Finger	900.0	1000.0	1900.0	1750.0	1.0	1000.0	1.0	n/a	ITI
29755	500	n/a	-1	-1	500	0.0	fixation	poldrack-single-stim	207	619068	0.0-13.4-0.4	beast_fmri_test	384	n/a	n/a	<div class = centerbox2><div class = fixation>+</div></div>	none	500.0	test	n/a	n/a	n/a	n/a	n/a	n/a	n/a	n/a	n/a	n/a	n/a	n/a	n/a	n/a	n/a	n/a	n/a	n/a	fixation
29298.35558079998	900.0	n/a	1080	71	2750	458.6444192	stim	stop-signal	208	621820	0.0-13.4-1.4	beast_fmri_test	384	619233,/,619913,/,620593,/,621273,/,621953,/	t,t,t,t,t	<img class = center src='/static/experiments/beast_fmri_test/images/V.png'></img>	71,89	2750.0	test	<img class = center src='/static/experiments/beast_fmri_test/images/redV.png'></img>	stop	1850.0	1.0	4.0	stop	target	V	71,Index Finger	89,Middle Finger	900.0	1000.0	1850.0	1750.0	0.0	900.0	n/a	0.0	go_stim
31148.35558079998	1850.0	n/a	1080	71	2750	458.6444192	stim	stop-signal	208	621820	0.0-13.4-1.4	beast_fmri_test	384	619233,/,619913,/,620593,/,621273,/,621953,/	t,t,t,t,t	<img class = center src='/static/experiments/beast_fmri_test/images/V.png'></img>	71,89	2750.0	test	<img class = center src='/static/experiments/beast_fmri_test/images/redV.png'></img>	stop	1850.0	1.0	4.0	stop	target	V	71,Index Finger	89,Middle Finger	900.0	1000.0	1850.0	1750.0	0.0	900.0	n/a	0.0	stop_stim
32048.35558079998	458.64441919999996	n/a	1080	71	2750	458.6444192	stim	stop-signal	208	621820	0.0-13.4-1.4	beast_fmri_test	384	619233,/,619913,/,620593,/,621273,/,621953,/	t,t,t,t,t	<img class = center src='/static/experiments/beast_fmri_test/images/V.png'></img>	71,89	2750.0	test	<img class = center src='/static/experiments/beast_fmri_test/images/redV.png'></img>	stop	1850.0	1.0	4.0	stop	target	V	71,Index Finger	89,Middle Finger	900.0	1000.0	1850.0	1750.0	0.0	900.0	n/a	0.0	ITI
33474	500	n/a	-1	-1	500	0.0	fixation	poldrack-single-stim	209	622787	0.0-13.5-0.5	beast_fmri_test	384	622633,/	t	<div class = centerbox2><div class = fixation>+</div></div>	none	500.0	test	n/a	n/a	n/a	n/a	n/a	n/a	n/a	n/a	n/a	n/a	n/a	n/a	n/a	n/a	n/a	n/a	n/a	n/a	fixation
31796.697598000057	1000.0	n/a	1157	89	2750	1679.302402	stim	stop-signal	210	625539	0.0-13.5-1.5	beast_fmri_test	384	623313,/,623993,/,624673,/,625353,/,626033,/,626713,/	t,t,t,t,t,t	<img class = center src='/static/experiments/beast_fmri_test/images/B.png'></img>	71,89	2750.0	test	<img class = center src='/static/experiments/beast_fmri_test/images/redB.png'></img>	stop	1750.0	1.0	5.0	stop	non-target	B	71,Index Finger	89,Middle Finger	850.0	1000.0	1850.0	1750.0	0.0	1000.0	n/a	0.0	go_stim
33546.697598000057	1750.0	n/a	1157	89	2750	1679.302402	stim	stop-signal	210	625539	0.0-13.5-1.5	beast_fmri_test	384	623313,/,623993,/,624673,/,625353,/,626033,/,626713,/	t,t,t,t,t,t	<img class = center src='/static/experiments/beast_fmri_test/images/B.png'></img>	71,89	2750.0	test	<img class = center src='/static/experiments/beast_fmri_test/images/redB.png'></img>	stop	1750.0	1.0	5.0	stop	non-target	B	71,Index Finger	89,Middle Finger	850.0	1000.0	1850.0	1750.0	0.0	1000.0	n/a	0.0	stop_stim
34546.697598000057	1679.302402	n/a	1157	89	2750	1679.302402	stim	stop-signal	210	625539	0.0-13.5-1.5	beast_fmri_test	384	623313,/,623993,/,624673,/,625353,/,626033,/,626713,/	t,t,t,t,t,t	<img class = center src='/static/experiments/beast_fmri_test/images/B.png'></img>	71,89	2750.0	test	<img class = center src='/static/experiments/beast_fmri_test/images/redB.png'></img>	stop	1750.0	1.0	5.0	stop	non-target	B	71,Index Finger	89,Middle Finger	850.0	1000.0	1850.0	1750.0	0.0	1000.0	n/a	0.0	ITI
38415	500	n/a	-1	-1	500	0.0	fixation	poldrack-single-stim	211	627728	0.0-13.6-0.6	beast_fmri_test	384	627393,/	t	<div class = centerbox2><div class = fixation>+</div></div>	none	500.0	test	n/a	n/a	n/a	n/a	n/a	n/a	n/a	n/a	n/a	n/a	n/a	n/a	n/a	n/a	n/a	n/a	n/a	n/a	fixation
38174.270271199988	2750	n/a	1654	71	2750	243.7297288	stim	stop-signal	212	630481	0.0-13.6-1.6	beast_fmri_test	384	628073,/,628753,/,629433,/,630113,/	t,t,t,t	<img class = center src='/static/experiments/beast_fmri_test/images/B.png'></img>	71,89	2750.0	test	<img class = center src='/static/experiments/beast_fmri_test/images/redB.png'></img>	go	1900.0	1.0	6.0	go	target	B	71,Index Finger	89,Middle Finger	850.0	950.0	1900.0	1750.0	1.0	850.0	1.0	n/a	go_stim
40924.270271199988	243.7297288	n/a	1654	71	2750	243.7297288	stim	stop-signal	212	630481	0.0-13.6-1.6	beast_fmri_test	384	628073,/,628753,/,629433,/,630113,/	t,t,t,t	<img class = center src='/static/experiments/beast_fmri_test/images/B.png'></img>	71,89	2750.0	test	<img class = center src='/static/experiments/beast_fmri_test/images/redB.png'></img>	go	1900.0	1.0	6.0	go	target	B	71,Index Finger	89,Middle Finger	850.0	950.0	1900.0	1750.0	1.0	850.0	1.0	n/a	ITI
41917	500	n/a	-1	-1	500	0.0	fixation	poldrack-single-stim	213	631230	0.0-13.7-0.7	beast_fmri_test	384	630793,/	t	<div class = centerbox2><div class = fixation>+</div></div>	none	500.0	test	n/a	n/a	n/a	n/a	n/a	n/a	n/a	n/a	n/a	n/a	n/a	n/a	n/a	n/a	n/a	n/a	n/a	n/a	fixation
38479.844897000003	850.0	n/a	-1	-1	2750	3439.155103	stim	stop-signal	214	633982	0.0-13.7-1.7	beast_fmri_test	384	631473,/,632153,/,632833,/,633512,/,634193,/,634872,/,635553,/,636233,/,636913,/	t,t,t,t,t,t,t,t,t	<img class = center src='/static/experiments/beast_fmri_test/images/B.png'></img>	71,89	2750.0	test	<img class = center src='/static/experiments/beast_fmri_test/images/redB.png'></img>	stop	1900.0	1.0	7.0	stop	target	B	71,Index Finger	89,Middle Finger	850.0	950.0	1900.0	1750.0	0.0	850.0	n/a	1.0	go_stim
40379.844897000003	1900.0	n/a	-1	-1	2750	3439.155103	stim	stop-signal	214	633982	0.0-13.7-1.7	beast_fmri_test	384	631473,/,632153,/,632833,/,633512,/,634193,/,634872,/,635553,/,636233,/,636913,/	t,t,t,t,t,t,t,t,t	<img class = center src='/static/experiments/beast_fmri_test/images/B.png'></img>	71,89	2750.0	test	<img class = center src='/static/experiments/beast_fmri_test/images/redB.png'></img>	stop	1900.0	1.0	7.0	stop	target	B	71,Index Finger	89,Middle Finger	850.0	950.0	1900.0	1750.0	0.0	850.0	n/a	1.0	stop_stim
41229.844897000003	3439.1551030000001	n/a	-1	-1	2750	3439.155103	stim	stop-signal	214	633982	0.0-13.7-1.7	beast_fmri_test	384	631473,/,632153,/,632833,/,633512,/,634193,/,634872,/,635553,/,636233,/,636913,/	t,t,t,t,t,t,t,t,t	<img class = center src='/static/experiments/beast_fmri_test/images/B.png'></img>	71,89	2750.0	test	<img class = center src='/static/experiments/beast_fmri_test/images/redB.png'></img>	stop	1900.0	1.0	7.0	stop	target	B	71,Index Finger	89,Middle Finger	850.0	950.0	1900.0	1750.0	0.0	850.0	n/a	1.0	ITI
48618	500	n/a	-1	-1	500	0.0	fixation	poldrack-single-stim	215	637931	0.0-13.8-0.8	beast_fmri_test	384	637593,/	t	<div class = centerbox2><div class = fixation>+</div></div>	none	500.0	test	n/a	n/a	n/a	n/a	n/a	n/a	n/a	n/a	n/a	n/a	n/a	n/a	n/a	n/a	n/a	n/a	n/a	n/a	fixation
47358.573084000032	2750	n/a	1451	89	2750	1262.426916	stim	stop-signal	216	640684	0.0-13.8-1.8	beast_fmri_test	384	638273,/,638953,/,639633,/,640312,/,640993,/,641672,/	t,t,t,t,t,t	<img class = center src='/static/experiments/beast_fmri_test/images/D.png'></img>	71,89	2750.0	test	<img class = center src='/static/experiments/beast_fmri_test/images/redD.png'></img>	go	1800.0	1.0	8.0	go	non-target	D	71,Index Finger	89,Middle Finger	900.0	950.0	1900.0	1800.0	1.0	950.0	1.0	n/a	go_stim
50108.573084000032	1262.4269160000001	n/a	1451	89	2750	1262.426916	stim	stop-signal	216	640684	0.0-13.8-1.8	beast_fmri_test	384	638273,/,638953,/,639633,/,640312,/,640993,/,641672,/	t,t,t,t,t,t	<img class = center src='/static/experiments/beast_fmri_test/images/D.png'></img>	71,89	2750.0	test	<img class = center src='/static/experiments/beast_fmri_test/images/redD.png'></img>	go	1800.0	1.0	8.0	go	non-target	D	71,Index Finger	89,Middle Finger	900.0	950.0	1900.0	1800.0	1.0	950.0	1.0	n/a	ITI
53141	500	n/a	-1	-1	500	0.0	fixation	poldrack-single-stim	217	642454	0.0-13.9-0.9	beast_fmri_test	384	642353,/	t	<div class = centerbox2><div class = fixation>+</div></div>	none	500.0	test	n/a	n/a	n/a	n/a	n/a	n/a	n/a	n/a	n/a	n/a	n/a	n/a	n/a	n/a	n/a	n/a	n/a	n/a	fixation
52986.806413399987	2750	n/a	1494	71	2750	156.1935866	stim	stop-signal	218	645206	0.0-13.9-1.9	beast_fmri_test	384	643033,/,643713,/,644393,/,645073,/	t,t,t,t	<img class = center src='/static/experiments/beast_fmri_test/images/D.png'></img>	71,89	2750.0	test	<img class = center src='/static/experiments/beast_fmri_test/images/redD.png'></img>	go	1850.0	1.0	9.0	go	target	D	71,Index Finger	89,Middle Finger	900.0	950.0	1850.0	1800.0	1.0	900.0	1.0	n/a	go_stim
55736.806413399987	156.1935866	n/a	1494	71	2750	156.1935866	stim	stop-signal	218	645206	0.0-13.9-1.9	beast_fmri_test	384	643033,/,643713,/,644393,/,645073,/	t,t,t,t	<img class = center src='/static/experiments/beast_fmri_test/images/D.png'></img>	71,89	2750.0	test	<img class = center src='/static/experiments/beast_fmri_test/images/redD.png'></img>	go	1850.0	1.0	9.0	go	target	D	71,Index Finger	89,Middle Finger	900.0	950.0	1850.0	1800.0	1.0	900.0	1.0	n/a	ITI
56559	500	n/a	-1	-1	500	0.0	fixation	poldrack-single-stim	219	645872	0.0-13.10-0.10	beast_fmri_test	384	645753,/	t	<div class = centerbox2><div class = fixation>+</div></div>	none	500.0	test	n/a	n/a	n/a	n/a	n/a	n/a	n/a	n/a	n/a	n/a	n/a	n/a	n/a	n/a	n/a	n/a	n/a	n/a	fixation
56145.385571400053	2750	n/a	1489	89	2750	415.6144286	stim	stop-signal	220	648624	0.0-13.10-1.10	beast_fmri_test	384	646434,/,647113,/,647793,/,648473,/	t,t,t,t	<img class = center src='/static/experiments/beast_fmri_test/images/V.png'></img>	71,89	2750.0	test	<img class = center src='/static/experiments/beast_fmri_test/images/redV.png'></img>	go	1800.0	1.0	10.0	go	non-target	V	71,Index Finger	89,Middle Finger	900.0	950.0	1850.0	1800.0	1.0	950.0	1.0	n/a	go_stim
58895.385571400053	415.61442860000005	n/a	1489	89	2750	415.6144286	stim	stop-signal	220	648624	0.0-13.10-1.10	beast_fmri_test	384	646434,/,647113,/,647793,/,648473,/	t,t,t,t	<img class = center src='/static/experiments/beast_fmri_test/images/V.png'></img>	71,89	2750.0	test	<img class = center src='/static/experiments/beast_fmri_test/images/redV.png'></img>	go	1800.0	1.0	10.0	go	non-target	V	71,Index Finger	89,Middle Finger	900.0	950.0	1850.0	1800.0	1.0	950.0	1.0	n/a	ITI
60235	500	n/a	-1	-1	500	0.0	fixation	poldrack-single-stim	221	649548	0.0-13.11-0.11	beast_fmri_test	384	649153,/	t	<div class = centerbox2><div class = fixation>+</div></div>	none	500.0	test	n/a	n/a	n/a	n/a	n/a	n/a	n/a	n/a	n/a	n/a	n/a	n/a	n/a	n/a	n/a	n/a	n/a	n/a	fixation
59267.698521899991	2750	n/a	1585	71	2750	969.3014781	stim	stop-signal	222	652300	0.0-13.11-1.11	beast_fmri_test	384	649833,/,650513,/,651193,/,651873,/,652553,/,653233,/	t,t,t,t,t,t	<img class = center src='/static/experiments/beast_fmri_test/images/V.png'></img>	71,89	2750.0	test	<img class = center src='/static/experiments/beast_fmri_test/images/redV.png'></img>	go	1850.0	1.0	11.0	go	target	V	71,Index Finger	89,Middle Finger	900.0	950.0	1850.0	1800.0	1.0	900.0	1.0	n/a	go_stim
62017.698521899991	969.30147809999994	n/a	1585	71	2750	969.3014781	stim	stop-signal	222	652300	0.0-13.11-1.11	beast_fmri_test	384	649833,/,650513,/,651193,/,651873,/,652553,/,653233,/	t,t,t,t,t,t	<img class = center src='/static/experiments/beast_fmri_test/images/V.png'></img>	71,89	2750.0	test	<img class = center src='/static/experiments/beast_fmri_test/images/redV.png'></img>	go	1850.0	1.0	11.0	go	target	V	71,Index Finger	89,Middle Finger	900.0	950.0	1850.0	1800.0	1.0	900.0	1.0	n/a	ITI
64464	500	n/a	-1	-1	500	0.0	fixation	poldrack-single-stim	223	653777	0.0-13.12-0.12	beast_fmri_test	384	n/a	n/a	<div class = centerbox2><div class = fixation>+</div></div>	none	500.0	test	n/a	n/a	n/a	n/a	n/a	n/a	n/a	n/a	n/a	n/a	n/a	n/a	n/a	n/a	n/a	n/a	n/a	n/a	fixation
63509.893364000018	2750	n/a	2047	71	2750	957.106636	stim	stop-signal	224	656530	0.0-13.12-1.12	beast_fmri_test	384	653913,/,654593,/,655273,/,655953,/,656634,/,657313,/	t,t,t,t,t,t	<img class = center src='/static/experiments/beast_fmri_test/images/V.png'></img>	71,89	2750.0	test	<img class = center src='/static/experiments/beast_fmri_test/images/redV.png'></img>	go	1850.0	1.0	12.0	go	target	V	71,Index Finger	89,Middle Finger	900.0	950.0	1850.0	1800.0	1.0	900.0	1.0	n/a	go_stim
66259.893364000018	957.10663599999998	n/a	2047	71	2750	957.106636	stim	stop-signal	224	656530	0.0-13.12-1.12	beast_fmri_test	384	653913,/,654593,/,655273,/,655953,/,656634,/,657313,/	t,t,t,t,t,t	<img class = center src='/static/experiments/beast_fmri_test/images/V.png'></img>	71,89	2750.0	test	<img class = center src='/static/experiments/beast_fmri_test/images/redV.png'></img>	go	1850.0	1.0	12.0	go	target	V	71,Index Finger	89,Middle Finger	900.0	950.0	1850.0	1800.0	1.0	900.0	1.0	n/a	ITI
68684	500	n/a	-1	-1	500	0.0	fixation	poldrack-single-stim	225	657997	0.0-13.13-0.13	beast_fmri_test	384	657993,/	t	<div class = centerbox2><div class = fixation>+</div></div>	none	500.0	test	n/a	n/a	n/a	n/a	n/a	n/a	n/a	n/a	n/a	n/a	n/a	n/a	n/a	n/a	n/a	n/a	n/a	n/a	fixation
68664.721783370012	2750	n/a	1542	89	2750	21.27821663	stim	stop-signal	226	660749	0.0-13.13-1.13	beast_fmri_test	384	658673,/,659353,/,660033,/,660713,/	t,t,t,t	<img class = center src='/static/experiments/beast_fmri_test/images/P.png'></img>	71,89	2750.0	test	<img class = center src='/static/experiments/beast_fmri_test/images/redP.png'></img>	go	1800.0	1.0	13.0	go	non-target	P	71,Index Finger	89,Middle Finger	900.0	950.0	1850.0	1800.0	1.0	950.0	1.0	n/a	go_stim
71414.721783370012	21.278216629999999	n/a	1542	89	2750	21.27821663	stim	stop-signal	226	660749	0.0-13.13-1.13	beast_fmri_test	384	658673,/,659353,/,660033,/,660713,/	t,t,t,t	<img class = center src='/static/experiments/beast_fmri_test/images/P.png'></img>	71,89	2750.0	test	<img class = center src='/static/experiments/beast_fmri_test/images/redP.png'></img>	go	1800.0	1.0	13.0	go	non-target	P	71,Index Finger	89,Middle Finger	900.0	950.0	1850.0	1800.0	1.0	950.0	1.0	n/a	ITI
71966	500	n/a	-1	-1	500	0.0	fixation	poldrack-single-stim	227	661279	0.0-13.14-0.14	beast_fmri_test	384	n/a	n/a	<div class = centerbox2><div class = fixation>+</div></div>	none	500.0	test	n/a	n/a	n/a	n/a	n/a	n/a	n/a	n/a	n/a	n/a	n/a	n/a	n/a	n/a	n/a	n/a	n/a	n/a	fixation
69351.843414000003	2750	n/a	2017	89	2750	2617.156586	stim	stop-signal	228	664032	0.0-13.14-1.14	beast_fmri_test	384	661393,/,662072,/,662753,/,663432,/,664113,/,664793,/,665473,/,666153,/	t,t,t,t,t,t,t,t	<img class = center src='/static/experiments/beast_fmri_test/images/D.png'></img>	71,89	2750.0	test	<img class = center src='/static/experiments/beast_fmri_test/images/redD.png'></img>	go	1800.0	1.0	14.0	go	non-target	D	71,Index Finger	89,Middle Finger	900.0	950.0	1850.0	1800.0	1.0	950.0	1.0	n/a	go_stim
72101.843414000003	2617.1565860000001	n/a	2017	89	2750	2617.156586	stim	stop-signal	228	664032	0.0-13.14-1.14	beast_fmri_test	384	661393,/,662072,/,662753,/,663432,/,664113,/,664793,/,665473,/,666153,/	t,t,t,t,t,t,t,t	<img class = center src='/static/experiments/beast_fmri_test/images/D.png'></img>	71,89	2750.0	test	<img class = center src='/static/experiments/beast_fmri_test/images/redD.png'></img>	go	1800.0	1.0	14.0	go	non-target	D	71,Index Finger	89,Middle Finger	900.0	950.0	1850.0	1800.0	1.0	950.0	1.0	n/a	ITI
77846	500	n/a	-1	-1	500	0.0	fixation	poldrack-single-stim	229	667159	0.0-13.15-0.15	beast_fmri_test	384	666833,/	t	<div class = centerbox2><div class = fixation>+</div></div>	none	500.0	test	n/a	n/a	n/a	n/a	n/a	n/a	n/a	n/a	n/a	n/a	n/a	n/a	n/a	n/a	n/a	n/a	n/a	n/a	fixation
77154.281399599975	2750	n/a	1518	71	2750	694.7186004	stim	stop-signal	230	669912	0.0-13.15-1.15	beast_fmri_test	384	667512,/,668192,/,668873,/,669553,/,670232,/	t,t,t,t,t	<img class = center src='/static/experiments/beast_fmri_test/images/D.png'></img>	71,89	2750.0	test	<img class = center src='/static/experiments/beast_fmri_test/images/redD.png'></img>	go	1850.0	1.0	15.0	go	target	D	71,Index Finger	89,Middle Finger	900.0	950.0	1850.0	1800.0	1.0	900.0	1.0	n/a	go_stim
79904.281399599975	694.71860040000001	n/a	1518	71	2750	694.7186004	stim	stop-signal	230	669912	0.0-13.15-1.15	beast_fmri_test	384	667512,/,668192,/,668873,/,669553,/,670232,/	t,t,t,t,t	<img class = center src='/static/experiments/beast_fmri_test/images/D.png'></img>	71,89	2750.0	test	<img class = center src='/static/experiments/beast_fmri_test/images/redD.png'></img>	go	1850.0	1.0	15.0	go	target	D	71,Index Finger	89,Middle Finger	900.0	950.0	1850.0	1800.0	1.0	900.0	1.0	n/a	ITI
81803	500	n/a	-1	-1	500	0.0	fixation	poldrack-single-stim	231	671116	0.0-13.16-0.16	beast_fmri_test	384	670913,/	t	<div class = centerbox2><div class = fixation>+</div></div>	none	500.0	test	n/a	n/a	n/a	n/a	n/a	n/a	n/a	n/a	n/a	n/a	n/a	n/a	n/a	n/a	n/a	n/a	n/a	n/a	fixation
81548.231688900036	950.0	n/a	-1	-1	2750	257.7683111	stim	stop-signal	232	673869	0.0-13.16-1.16	beast_fmri_test	384	671592,/,672273,/,672953,/,673632,/	t,t,t,t	<img class = center src='/static/experiments/beast_fmri_test/images/P.png'></img>	71,89	2750.0	test	<img class = center src='/static/experiments/beast_fmri_test/images/redP.png'></img>	stop	1800.0	1.0	16.0	stop	non-target	P	71,Index Finger	89,Middle Finger	900.0	950.0	1850.0	1800.0	0.0	950.0	n/a	1.0	go_stim
83348.231688900036	1800.0	n/a	-1	-1	2750	257.7683111	stim	stop-signal	232	673869	0.0-13.16-1.16	beast_fmri_test	384	671592,/,672273,/,672953,/,673632,/	t,t,t,t	<img class = center src='/static/experiments/beast_fmri_test/images/P.png'></img>	71,89	2750.0	test	<img class = center src='/static/experiments/beast_fmri_test/images/redP.png'></img>	stop	1800.0	1.0	16.0	stop	non-target	P	71,Index Finger	89,Middle Finger	900.0	950.0	1850.0	1800.0	0.0	950.0	n/a	1.0	stop_stim
84298.231688900036	257.76831110000001	n/a	-1	-1	2750	257.7683111	stim	stop-signal	232	673869	0.0-13.16-1.16	beast_fmri_test	384	671592,/,672273,/,672953,/,673632,/	t,t,t,t	<img class = center src='/static/experiments/beast_fmri_test/images/P.png'></img>	71,89	2750.0	test	<img class = center src='/static/experiments/beast_fmri_test/images/redP.png'></img>	stop	1800.0	1.0	16.0	stop	non-target	P	71,Index Finger	89,Middle Finger	900.0	950.0	1850.0	1800.0	0.0	950.0	n/a	1.0	ITI
85322	500	n/a	-1	-1	500	0.0	fixation	poldrack-single-stim	233	674635	0.0-13.17-0.17	beast_fmri_test	384	674312,/	t	<div class = centerbox2><div class = fixation>+</div></div>	none	500.0	test	n/a	n/a	n/a	n/a	n/a	n/a	n/a	n/a	n/a	n/a	n/a	n/a	n/a	n/a	n/a	n/a	n/a	n/a	fixation
82398.540680999984	2750	n/a	1297	89	2750	2925.459319	stim	stop-signal	234	677387	0.0-13.17-1.17	beast_fmri_test	384	674993,/,675674,/,676353,/,677034,/,677713,/,678393,/,679073,/,679753,/	t,t,t,t,t,t,t,t	<img class = center src='/static/experiments/beast_fmri_test/images/V.png'></img>	71,89	2750.0	test	<img class = center src='/static/experiments/beast_fmri_test/images/redV.png'></img>	go	1750.0	1.0	17.0	go	non-target	V	71,Index Finger	89,Middle Finger	900.0	1000.0	1850.0	1750.0	1.0	1000.0	1.0	n/a	go_stim
85148.540680999984	2925.4593190000001	n/a	1297	89	2750	2925.459319	stim	stop-signal	234	677387	0.0-13.17-1.17	beast_fmri_test	384	674993,/,675674,/,676353,/,677034,/,677713,/,678393,/,679073,/,679753,/	t,t,t,t,t,t,t,t	<img class = center src='/static/experiments/beast_fmri_test/images/V.png'></img>	71,89	2750.0	test	<img class = center src='/static/experiments/beast_fmri_test/images/redV.png'></img>	go	1750.0	1.0	17.0	go	non-target	V	71,Index Finger	89,Middle Finger	900.0	1000.0	1850.0	1750.0	1.0	1000.0	1.0	n/a	ITI
91510	500	n/a	-1	-1	500	0.0	fixation	poldrack-single-stim	235	680823	0.0-13.18-0.18	beast_fmri_test	384	680433,/	t	<div class = centerbox2><div class = fixation>+</div></div>	none	500.0	test	n/a	n/a	n/a	n/a	n/a	n/a	n/a	n/a	n/a	n/a	n/a	n/a	n/a	n/a	n/a	n/a	n/a	n/a	fixation
90793.781378700049	1000.0	n/a	-1	-1	2750	718.2186213	stim	stop-signal	236	683575	0.0-13.18-1.18	beast_fmri_test	384	681113,/,681793,/,682473,/,683153,/,683833,/	t,t,t,t,t	<img class = center src='/static/experiments/beast_fmri_test/images/B.png'></img>	71,89	2750.0	test	<img class = center src='/static/experiments/beast_fmri_test/images/redB.png'></img>	stop	1750.0	1.0	18.0	stop	non-target	B	71,Index Finger	89,Middle Finger	900.0	1000.0	1850.0	1750.0	0.0	1000.0	n/a	1.0	go_stim
92543.781378700049	1750.0	n/a	-1	-1	2750	718.2186213	stim	stop-signal	236	683575	0.0-13.18-1.18	beast_fmri_test	384	681113,/,681793,/,682473,/,683153,/,683833,/	t,t,t,t,t	<img class = center src='/static/experiments/beast_fmri_test/images/B.png'></img>	71,89	2750.0	test	<img class = center src='/static/experiments/beast_fmri_test/images/redB.png'></img>	stop	1750.0	1.0	18.0	stop	non-target	B	71,Index Finger	89,Middle Finger	900.0	1000.0	1850.0	1750.0	0.0	1000.0	n/a	1.0	stop_stim
93543.781378700049	718.2186213	n/a	-1	-1	2750	718.2186213	stim	stop-signal	236	683575	0.0-13.18-1.18	beast_fmri_test	384	681113,/,681793,/,682473,/,683153,/,683833,/	t,t,t,t,t	<img class = center src='/static/experiments/beast_fmri_test/images/B.png'></img>	71,89	2750.0	test	<img class = center src='/static/experiments/beast_fmri_test/images/redB.png'></img>	stop	1750.0	1.0	18.0	stop	non-target	B	71,Index Finger	89,Middle Finger	900.0	1000.0	1850.0	1750.0	0.0	1000.0	n/a	1.0	ITI
95491	500	n/a	-1	-1	500	0.0	fixation	poldrack-single-stim	237	684804	0.0-13.19-0.19	beast_fmri_test	384	684513,/	t	<div class = centerbox2><div class = fixation>+</div></div>	none	500.0	test	n/a	n/a	n/a	n/a	n/a	n/a	n/a	n/a	n/a	n/a	n/a	n/a	n/a	n/a	n/a	n/a	n/a	n/a	fixation
94155.928530000034	2750	n/a	830	71	2750	1337.07147	stim	stop-signal	238	687556	0.0-13.19-1.19	beast_fmri_test	384	685193,/,685873,/,686553,/,687233,/,687913,/,688593,/	t,t,t,t,t,t	<img class = center src='/static/experiments/beast_fmri_test/images/B.png'></img>	71,89	2750.0	test	<img class = center src='/static/experiments/beast_fmri_test/images/redB.png'></img>	go	1850.0	1.0	19.0	go	target	B	71,Index Finger	89,Middle Finger	900.0	1050.0	1850.0	1750.0	1.0	900.0	1.0	n/a	go_stim
96905.928530000034	1337.0714699999999	n/a	830	71	2750	1337.07147	stim	stop-signal	238	687556	0.0-13.19-1.19	beast_fmri_test	384	685193,/,685873,/,686553,/,687233,/,687913,/,688593,/	t,t,t,t,t,t	<img class = center src='/static/experiments/beast_fmri_test/images/B.png'></img>	71,89	2750.0	test	<img class = center src='/static/experiments/beast_fmri_test/images/redB.png'></img>	go	1850.0	1.0	19.0	go	target	B	71,Index Finger	89,Middle Finger	900.0	1050.0	1850.0	1750.0	1.0	900.0	1.0	n/a	ITI
100092	500	n/a	-1	-1	500	0.0	fixation	poldrack-single-stim	239	689405	0.0-13.20-0.20	beast_fmri_test	384	689273,/	t	<div class = centerbox2><div class = fixation>+</div></div>	none	500.0	test	n/a	n/a	n/a	n/a	n/a	n/a	n/a	n/a	n/a	n/a	n/a	n/a	n/a	n/a	n/a	n/a	n/a	n/a	fixation
97712.165500000003	2750	n/a	1564	89	2750	2381.8345	stim	stop-signal	240	692157	0.0-13.20-1.20	beast_fmri_test	384	689953,/,690633,/,691313,/,691993,/,692673,/,693352,/,694033,/	t,t,t,t,t,t,t	<img class = center src='/static/experiments/beast_fmri_test/images/D.png'></img>	71,89	2750.0	test	<img class = center src='/static/experiments/beast_fmri_test/images/redD.png'></img>	go	1700.0	1.0	20.0	go	non-target	D	71,Index Finger	89,Middle Finger	900.0	1050.0	1850.0	1700.0	1.0	1050.0	1.0	n/a	go_stim
100462.1655	2381.8344999999999	n/a	1564	89	2750	2381.8345	stim	stop-signal	240	692157	0.0-13.20-1.20	beast_fmri_test	384	689953,/,690633,/,691313,/,691993,/,692673,/,693352,/,694033,/	t,t,t,t,t,t,t	<img class = center src='/static/experiments/beast_fmri_test/images/D.png'></img>	71,89	2750.0	test	<img class = center src='/static/experiments/beast_fmri_test/images/redD.png'></img>	go	1700.0	1.0	20.0	go	non-target	D	71,Index Finger	89,Middle Finger	900.0	1050.0	1850.0	1700.0	1.0	1050.0	1.0	n/a	ITI
105736	500	n/a	-1	-1	500	0.0	fixation	poldrack-single-stim	241	695049	0.0-13.21-0.21	beast_fmri_test	384	694713,/	t	<div class = centerbox2><div class = fixation>+</div></div>	none	500.0	test	n/a	n/a	n/a	n/a	n/a	n/a	n/a	n/a	n/a	n/a	n/a	n/a	n/a	n/a	n/a	n/a	n/a	n/a	fixation
105068.51567180001	2750	n/a	1362	71	2750	669.4843282	stim	stop-signal	242	697801	0.0-13.21-1.21	beast_fmri_test	384	695392,/,696073,/,696753,/,697434,/,698113,/	t,t,t,t,t	<img class = center src='/static/experiments/beast_fmri_test/images/D.png'></img>	71,89	2750.0	test	<img class = center src='/static/experiments/beast_fmri_test/images/redD.png'></img>	go	1850.0	1.0	21.0	go	target	D	71,Index Finger	89,Middle Finger	900.0	1050.0	1850.0	1700.0	1.0	900.0	1.0	n/a	go_stim
107818.51567180001	669.48432820000005	n/a	1362	71	2750	669.4843282	stim	stop-signal	242	697801	0.0-13.21-1.21	beast_fmri_test	384	695392,/,696073,/,696753,/,697434,/,698113,/	t,t,t,t,t	<img class = center src='/static/experiments/beast_fmri_test/images/D.png'></img>	71,89	2750.0	test	<img class = center src='/static/experiments/beast_fmri_test/images/redD.png'></img>	go	1850.0	1.0	21.0	go	target	D	71,Index Finger	89,Middle Finger	900.0	1050.0	1850.0	1700.0	1.0	900.0	1.0	n/a	ITI
109668	500	n/a	-1	-1	500	0.0	fixation	poldrack-single-stim	243	698981	0.0-13.22-0.22	beast_fmri_test	384	698792,/	t	<div class = centerbox2><div class = fixation>+</div></div>	none	500.0	test	n/a	n/a	n/a	n/a	n/a	n/a	n/a	n/a	n/a	n/a	n/a	n/a	n/a	n/a	n/a	n/a	n/a	n/a	fixation
108575.23496200005	1050.0	n/a	-1	-1	2750	1094.765038	stim	stop-signal	244	701733	0.0-13.22-1.22	beast_fmri_test	384	699473,/,700153,/,700833,/,701513,/,702192,/	t,t,t,t,t	<img class = center src='/static/experiments/beast_fmri_test/images/V.png'></img>	71,89	2750.0	test	<img class = center src='/static/experiments/beast_fmri_test/images/redV.png'></img>	stop	1700.0	1.0	22.0	stop	non-target	V	71,Index Finger	89,Middle Finger	900.0	1050.0	1850.0	1700.0	0.0	1050.0	n/a	1.0	go_stim
110275.23496200005	1700.0	n/a	-1	-1	2750	1094.765038	stim	stop-signal	244	701733	0.0-13.22-1.22	beast_fmri_test	384	699473,/,700153,/,700833,/,701513,/,702192,/	t,t,t,t,t	<img class = center src='/static/experiments/beast_fmri_test/images/V.png'></img>	71,89	2750.0	test	<img class = center src='/static/experiments/beast_fmri_test/images/redV.png'></img>	stop	1700.0	1.0	22.0	stop	non-target	V	71,Index Finger	89,Middle Finger	900.0	1050.0	1850.0	1700.0	0.0	1050.0	n/a	1.0	stop_stim
111325.23496200005	1094.765038	n/a	-1	-1	2750	1094.765038	stim	stop-signal	244	701733	0.0-13.22-1.22	beast_fmri_test	384	699473,/,700153,/,700833,/,701513,/,702192,/	t,t,t,t,t	<img class = center src='/static/experiments/beast_fmri_test/images/V.png'></img>	71,89	2750.0	test	<img class = center src='/static/experiments/beast_fmri_test/images/redV.png'></img>	stop	1700.0	1.0	22.0	stop	non-target	V	71,Index Finger	89,Middle Finger	900.0	1050.0	1850.0	1700.0	0.0	1050.0	n/a	1.0	ITI
114024	500	n/a	-1	-1	500	0.0	fixation	poldrack-single-stim	245	703337	0.0-13.23-0.23	beast_fmri_test	384	702873,/	t	<div class = centerbox2><div class = fixation>+</div></div>	none	500.0	test	n/a	n/a	n/a	n/a	n/a	n/a	n/a	n/a	n/a	n/a	n/a	n/a	n/a	n/a	n/a	n/a	n/a	n/a	fixation
113428.07301980001	1100.0	n/a	-1	-1	2750	597.9269802	stim	stop-signal	246	706089	0.0-13.23-1.23	beast_fmri_test	384	703552,/,704233,/,704912,/,705593,/,706272,/	t,t,t,t,t	<img class = center src='/static/experiments/beast_fmri_test/images/B.png'></img>	71,89	2750.0	test	<img class = center src='/static/experiments/beast_fmri_test/images/redB.png'></img>	stop	1650.0	1.0	23.0	stop	non-target	B	71,Index Finger	89,Middle Finger	900.0	1100.0	1850.0	1650.0	0.0	1100.0	n/a	1.0	go_stim
115078.07301980001	1650.0	n/a	-1	-1	2750	597.9269802	stim	stop-signal	246	706089	0.0-13.23-1.23	beast_fmri_test	384	703552,/,704233,/,704912,/,705593,/,706272,/	t,t,t,t,t	<img class = center src='/static/experiments/beast_fmri_test/images/B.png'></img>	71,89	2750.0	test	<img class = center src='/static/experiments/beast_fmri_test/images/redB.png'></img>	stop	1650.0	1.0	23.0	stop	non-target	B	71,Index Finger	89,Middle Finger	900.0	1100.0	1850.0	1650.0	0.0	1100.0	n/a	1.0	stop_stim
116178.07301980001	597.9269802	n/a	-1	-1	2750	597.9269802	stim	stop-signal	246	706089	0.0-13.23-1.23	beast_fmri_test	384	703552,/,704233,/,704912,/,705593,/,706272,/	t,t,t,t,t	<img class = center src='/static/experiments/beast_fmri_test/images/B.png'></img>	71,89	2750.0	test	<img class = center src='/static/experiments/beast_fmri_test/images/redB.png'></img>	stop	1650.0	1.0	23.0	stop	non-target	B	71,Index Finger	89,Middle Finger	900.0	1100.0	1850.0	1650.0	0.0	1100.0	n/a	1.0	ITI
117883	500	n/a	-1	-1	500	0.0	fixation	poldrack-single-stim	247	707196	0.0-13.24-0.24	beast_fmri_test	384	706953,/	t	<div class = centerbox2><div class = fixation>+</div></div>	none	500.0	test	n/a	n/a	n/a	n/a	n/a	n/a	n/a	n/a	n/a	n/a	n/a	n/a	n/a	n/a	n/a	n/a	n/a	n/a	fixation
117602.08501899999	1150.0	n/a	-1	-1	2750	282.914981	stim	stop-signal	248	709948	0.0-13.24-1.24	beast_fmri_test	384	707634,/,708314,/,708993,/,709674,/	t,t,t,t	<img class = center src='/static/experiments/beast_fmri_test/images/D.png'></img>	71,89	2750.0	test	<img class = center src='/static/experiments/beast_fmri_test/images/redD.png'></img>	stop	1600.0	1.0	24.0	stop	non-target	D	71,Index Finger	89,Middle Finger	900.0	1150.0	1850.0	1600.0	0.0	1150.0	n/a	1.0	go_stim
119202.08501899999	1600.0	n/a	-1	-1	2750	282.914981	stim	stop-signal	248	709948	0.0-13.24-1.24	beast_fmri_test	384	707634,/,708314,/,708993,/,709674,/	t,t,t,t	<img class = center src='/static/experiments/beast_fmri_test/images/D.png'></img>	71,89	2750.0	test	<img class = center src='/static/experiments/beast_fmri_test/images/redD.png'></img>	stop	1600.0	1.0	24.0	stop	non-target	D	71,Index Finger	89,Middle Finger	900.0	1150.0	1850.0	1600.0	0.0	1150.0	n/a	1.0	stop_stim
120352.08501899999	282.91498100000001	n/a	-1	-1	2750	282.914981	stim	stop-signal	248	709948	0.0-13.24-1.24	beast_fmri_test	384	707634,/,708314,/,708993,/,709674,/	t,t,t,t	<img class = center src='/static/experiments/beast_fmri_test/images/D.png'></img>	71,89	2750.0	test	<img class = center src='/static/experiments/beast_fmri_test/images/redD.png'></img>	stop	1600.0	1.0	24.0	stop	non-target	D	71,Index Finger	89,Middle Finger	900.0	1150.0	1850.0	1600.0	0.0	1150.0	n/a	1.0	ITI
121427	500	n/a	-1	-1	500	0.0	fixation	poldrack-single-stim	249	710740	0.0-13.25-0.25	beast_fmri_test	384	710353,/	t	<div class = centerbox2><div class = fixation>+</div></div>	none	500.0	test	n/a	n/a	n/a	n/a	n/a	n/a	n/a	n/a	n/a	n/a	n/a	n/a	n/a	n/a	n/a	n/a	n/a	n/a	fixation
120926.81254419999	1200.0	n/a	-1	-1	2750	502.1874558	stim	stop-signal	250	713492	0.0-13.25-1.25	beast_fmri_test	384	711033,/,711713,/,712394,/,713074,/,713753,/	t,t,t,t,t	<img class = center src='/static/experiments/beast_fmri_test/images/B.png'></img>	71,89	2750.0	test	<img class = center src='/static/experiments/beast_fmri_test/images/redB.png'></img>	stop	1550.0	1.0	25.0	stop	non-target	B	71,Index Finger	89,Middle Finger	900.0	1200.0	1850.0	1550.0	0.0	1200.0	n/a	1.0	go_stim
122476.81254419999	1550.0	n/a	-1	-1	2750	502.1874558	stim	stop-signal	250	713492	0.0-13.25-1.25	beast_fmri_test	384	711033,/,711713,/,712394,/,713074,/,713753,/	t,t,t,t,t	<img class = center src='/static/experiments/beast_fmri_test/images/B.png'></img>	71,89	2750.0	test	<img class = center src='/static/experiments/beast_fmri_test/images/redB.png'></img>	stop	1550.0	1.0	25.0	stop	non-target	B	71,Index Finger	89,Middle Finger	900.0	1200.0	1850.0	1550.0	0.0	1200.0	n/a	1.0	stop_stim
123676.81254419999	502.18745580000001	n/a	-1	-1	2750	502.1874558	stim	stop-signal	250	713492	0.0-13.25-1.25	beast_fmri_test	384	711033,/,711713,/,712394,/,713074,/,713753,/	t,t,t,t,t	<img class = center src='/static/experiments/beast_fmri_test/images/B.png'></img>	71,89	2750.0	test	<img class = center src='/static/experiments/beast_fmri_test/images/redB.png'></img>	stop	1550.0	1.0	25.0	stop	non-target	B	71,Index Finger	89,Middle Finger	900.0	1200.0	1850.0	1550.0	0.0	1200.0	n/a	1.0	ITI
125191	500	n/a	-1	-1	500	0.0	fixation	poldrack-single-stim	251	714504	0.0-13.26-0.26	beast_fmri_test	384	714433,/	t	<div class = centerbox2><div class = fixation>+</div></div>	none	500.0	test	n/a	n/a	n/a	n/a	n/a	n/a	n/a	n/a	n/a	n/a	n/a	n/a	n/a	n/a	n/a	n/a	n/a	n/a	fixation
124291.15292679996	2750	n/a	1380	89	2750	901.8470732	stim	stop-signal	252	717256	0.0-13.26-1.26	beast_fmri_test	384	715113,/,715793,/,716473,/,717153,/,717834,/	t,t,t,t,t	<img class = center src='/static/experiments/beast_fmri_test/images/P.png'></img>	71,89	2750.0	test	<img class = center src='/static/experiments/beast_fmri_test/images/redP.png'></img>	go	1500.0	1.0	26.0	go	non-target	P	71,Index Finger	89,Middle Finger	900.0	1250.0	1850.0	1500.0	1.0	1250.0	1.0	n/a	go_stim
127041.15292679996	901.84707320000007	n/a	1380	89	2750	901.8470732	stim	stop-signal	252	717256	0.0-13.26-1.26	beast_fmri_test	384	715113,/,715793,/,716473,/,717153,/,717834,/	t,t,t,t,t	<img class = center src='/static/experiments/beast_fmri_test/images/P.png'></img>	71,89	2750.0	test	<img class = center src='/static/experiments/beast_fmri_test/images/redP.png'></img>	go	1500.0	1.0	26.0	go	non-target	P	71,Index Finger	89,Middle Finger	900.0	1250.0	1850.0	1500.0	1.0	1250.0	1.0	n/a	ITI
129354	500	n/a	-1	-1	500	0.0	fixation	poldrack-single-stim	253	718667	0.0-13.27-0.27	beast_fmri_test	384	718513,/	t	<div class = centerbox2><div class = fixation>+</div></div>	none	500.0	test	n/a	n/a	n/a	n/a	n/a	n/a	n/a	n/a	n/a	n/a	n/a	n/a	n/a	n/a	n/a	n/a	n/a	n/a	fixation
124356.0	2750	n/a	1304	89	2750	5000.0	stim	stop-signal	254	721419	0.0-13.27-1.27	beast_fmri_test	384	719193,/,719873,/,720553,/,721233,/,721913,/,722593,/,723273,/,723953,/,724633,/,725313,/,725993,/	t,t,t,t,t,t,t,t,t,t,t	<img class = center src='/static/experiments/beast_fmri_test/images/V.png'></img>	71,89	2750.0	test	<img class = center src='/static/experiments/beast_fmri_test/images/redV.png'></img>	go	1500.0	1.0	27.0	go	non-target	V	71,Index Finger	89,Middle Finger	900.0	1250.0	1850.0	1500.0	1.0	1250.0	1.0	n/a	go_stim
127106.0	5000.0	n/a	1304	89	2750	5000.0	stim	stop-signal	254	721419	0.0-13.27-1.27	beast_fmri_test	384	719193,/,719873,/,720553,/,721233,/,721913,/,722593,/,723273,/,723953,/,724633,/,725313,/,725993,/	t,t,t,t,t,t,t,t,t,t,t	<img class = center src='/static/experiments/beast_fmri_test/images/V.png'></img>	71,89	2750.0	test	<img class = center src='/static/experiments/beast_fmri_test/images/redV.png'></img>	go	1500.0	1.0	27.0	go	non-target	V	71,Index Finger	89,Middle Finger	900.0	1250.0	1850.0	1500.0	1.0	1250.0	1.0	n/a	ITI
137616	500	n/a	-1	-1	500	0.0	fixation	poldrack-single-stim	255	726929	0.0-13.28-0.28	beast_fmri_test	384	726673,/	t	<div class = centerbox2><div class = fixation>+</div></div>	none	500.0	test	n/a	n/a	n/a	n/a	n/a	n/a	n/a	n/a	n/a	n/a	n/a	n/a	n/a	n/a	n/a	n/a	n/a	n/a	fixation
137176.3939582	2750	n/a	1329	71	2750	441.6060418	stim	stop-signal	256	729681	0.0-13.28-1.28	beast_fmri_test	384	727353,/,728033,/,728713,/,729393,/,730072,/	t,t,t,t,t	<img class = center src='/static/experiments/beast_fmri_test/images/V.png'></img>	71,89	2750.0	test	<img class = center src='/static/experiments/beast_fmri_test/images/redV.png'></img>	go	1850.0	1.0	28.0	go	target	V	71,Index Finger	89,Middle Finger	900.0	1250.0	1850.0	1500.0	1.0	900.0	1.0	n/a	go_stim
139926.3939582	441.60604180000007	n/a	1329	71	2750	441.6060418	stim	stop-signal	256	729681	0.0-13.28-1.28	beast_fmri_test	384	727353,/,728033,/,728713,/,729393,/,730072,/	t,t,t,t,t	<img class = center src='/static/experiments/beast_fmri_test/images/V.png'></img>	71,89	2750.0	test	<img class = center src='/static/experiments/beast_fmri_test/images/redV.png'></img>	go	1850.0	1.0	28.0	go	target	V	71,Index Finger	89,Middle Finger	900.0	1250.0	1850.0	1500.0	1.0	900.0	1.0	n/a	ITI
141320	500	n/a	-1	-1	500	0.0	fixation	poldrack-single-stim	257	730633	0.0-13.29-0.29	beast_fmri_test	384	n/a	n/a	<div class = centerbox2><div class = fixation>+</div></div>	none	500.0	test	n/a	n/a	n/a	n/a	n/a	n/a	n/a	n/a	n/a	n/a	n/a	n/a	n/a	n/a	n/a	n/a	n/a	n/a	fixation
139214.01026200003	2750	n/a	1821	89	2750	2107.989738	stim	stop-signal	258	733385	0.0-13.29-1.29	beast_fmri_test	384	730753,/,731433,/,732113,/,732793,/,733473,/,734152,/,734833,/	t,t,t,t,t,t,t	<img class = center src='/static/experiments/beast_fmri_test/images/B.png'></img>	71,89	2750.0	test	<img class = center src='/static/experiments/beast_fmri_test/images/redB.png'></img>	go	1500.0	1.0	29.0	go	non-target	B	71,Index Finger	89,Middle Finger	900.0	1250.0	1850.0	1500.0	1.0	1250.0	1.0	n/a	go_stim
141964.01026200003	2107.9897379999998	n/a	1821	89	2750	2107.989738	stim	stop-signal	258	733385	0.0-13.29-1.29	beast_fmri_test	384	730753,/,731433,/,732113,/,732793,/,733473,/,734152,/,734833,/	t,t,t,t,t,t,t	<img class = center src='/static/experiments/beast_fmri_test/images/B.png'></img>	71,89	2750.0	test	<img class = center src='/static/experiments/beast_fmri_test/images/redB.png'></img>	go	1500.0	1.0	29.0	go	non-target	B	71,Index Finger	89,Middle Finger	900.0	1250.0	1850.0	1500.0	1.0	1250.0	1.0	n/a	ITI
146690	500	n/a	-1	-1	500	0.0	fixation	poldrack-single-stim	259	736003	0.0-13.30-0.30	beast_fmri_test	384	735512,/	t	<div class = centerbox2><div class = fixation>+</div></div>	none	500.0	test	n/a	n/a	n/a	n/a	n/a	n/a	n/a	n/a	n/a	n/a	n/a	n/a	n/a	n/a	n/a	n/a	n/a	n/a	fixation
145913.06531430001	900.0	n/a	-1	-1	2750	778.9346857	stim	stop-signal	260	738755	0.0-13.30-1.30	beast_fmri_test	384	736192,/,736873,/,737552,/,738234,/,738912,/	t,t,t,t,t	<img class = center src='/static/experiments/beast_fmri_test/images/B.png'></img>	71,89	2750.0	test	<img class = center src='/static/experiments/beast_fmri_test/images/redB.png'></img>	stop	1850.0	1.0	30.0	stop	target	B	71,Index Finger	89,Middle Finger	900.0	1250.0	1850.0	1500.0	0.0	900.0	n/a	1.0	go_stim
147763.06531430001	1850.0	n/a	-1	-1	2750	778.9346857	stim	stop-signal	260	738755	0.0-13.30-1.30	beast_fmri_test	384	736192,/,736873,/,737552,/,738234,/,738912,/	t,t,t,t,t	<img class = center src='/static/experiments/beast_fmri_test/images/B.png'></img>	71,89	2750.0	test	<img class = center src='/static/experiments/beast_fmri_test/images/redB.png'></img>	stop	1850.0	1.0	30.0	stop	target	B	71,Index Finger	89,Middle Finger	900.0	1250.0	1850.0	1500.0	0.0	900.0	n/a	1.0	stop_stim
148663.06531430001	778.93468570000005	n/a	-1	-1	2750	778.9346857	stim	stop-signal	260	738755	0.0-13.30-1.30	beast_fmri_test	384	736192,/,736873,/,737552,/,738234,/,738912,/	t,t,t,t,t	<img class = center src='/static/experiments/beast_fmri_test/images/B.png'></img>	71,89	2750.0	test	<img class = center src='/static/experiments/beast_fmri_test/images/redB.png'></img>	stop	1850.0	1.0	30.0	stop	target	B	71,Index Finger	89,Middle Finger	900.0	1250.0	1850.0	1500.0	0.0	900.0	n/a	1.0	ITI
150731	500	n/a	-1	-1	500	0.0	fixation	poldrack-single-stim	261	740044	0.0-13.31-0.31	beast_fmri_test	384	739592,/	t	<div class = centerbox2><div class = fixation>+</div></div>	none	500.0	test	n/a	n/a	n/a	n/a	n/a	n/a	n/a	n/a	n/a	n/a	n/a	n/a	n/a	n/a	n/a	n/a	n/a	n/a	fixation
150202.59018659999	2750	n/a	1546	89	2750	530.4098134	stim	stop-signal	262	742796	0.0-13.31-1.31	beast_fmri_test	384	740273,/,740953,/,741636,/,742313,/,742993,/	t,t,t,t,t	<img class = center src='/static/experiments/beast_fmri_test/images/T.png'></img>	71,89	2750.0	test	<img class = center src='/static/experiments/beast_fmri_test/images/redT.png'></img>	go	1500.0	1.0	31.0	go	non-target	T	71,Index Finger	89,Middle Finger	950.0	1250.0	1850.0	1500.0	1.0	1250.0	1.0	n/a	go_stim
152952.59018659999	530.40981339999996	n/a	1546	89	2750	530.4098134	stim	stop-signal	262	742796	0.0-13.31-1.31	beast_fmri_test	384	740273,/,740953,/,741636,/,742313,/,742993,/	t,t,t,t,t	<img class = center src='/static/experiments/beast_fmri_test/images/T.png'></img>	71,89	2750.0	test	<img class = center src='/static/experiments/beast_fmri_test/images/redT.png'></img>	go	1500.0	1.0	31.0	go	non-target	T	71,Index Finger	89,Middle Finger	950.0	1250.0	1850.0	1500.0	1.0	1250.0	1.0	n/a	ITI
154525	500	n/a	-1	-1	500	0.0	fixation	poldrack-single-stim	263	743838	0.0-13.32-0.32	beast_fmri_test	384	743674,/	t	<div class = centerbox2><div class = fixation>+</div></div>	none	500.0	test	n/a	n/a	n/a	n/a	n/a	n/a	n/a	n/a	n/a	n/a	n/a	n/a	n/a	n/a	n/a	n/a	n/a	n/a	fixation
153426.20004799997	1250.0	n/a	-1	-1	2750	1100.799952	stim	stop-signal	264	746590	0.0-13.32-1.32	beast_fmri_test	384	744353,/,745033,/,745714,/,746393,/,747073,/	t,t,t,t,t	<img class = center src='/static/experiments/beast_fmri_test/images/B.png'></img>	71,89	2750.0	test	<img class = center src='/static/experiments/beast_fmri_test/images/redB.png'></img>	stop	1500.0	1.0	32.0	stop	non-target	B	71,Index Finger	89,Middle Finger	950.0	1250.0	1850.0	1500.0	0.0	1250.0	n/a	1.0	go_stim
154926.20004799997	1500.0	n/a	-1	-1	2750	1100.799952	stim	stop-signal	264	746590	0.0-13.32-1.32	beast_fmri_test	384	744353,/,745033,/,745714,/,746393,/,747073,/	t,t,t,t,t	<img class = center src='/static/experiments/beast_fmri_test/images/B.png'></img>	71,89	2750.0	test	<img class = center src='/static/experiments/beast_fmri_test/images/redB.png'></img>	stop	1500.0	1.0	32.0	stop	non-target	B	71,Index Finger	89,Middle Finger	950.0	1250.0	1850.0	1500.0	0.0	1250.0	n/a	1.0	stop_stim
156176.20004799997	1100.7999519999998	n/a	-1	-1	2750	1100.799952	stim	stop-signal	264	746590	0.0-13.32-1.32	beast_fmri_test	384	744353,/,745033,/,745714,/,746393,/,747073,/	t,t,t,t,t	<img class = center src='/static/experiments/beast_fmri_test/images/B.png'></img>	71,89	2750.0	test	<img class = center src='/static/experiments/beast_fmri_test/images/redB.png'></img>	stop	1500.0	1.0	32.0	stop	non-target	B	71,Index Finger	89,Middle Finger	950.0	1250.0	1850.0	1500.0	0.0	1250.0	n/a	1.0	ITI
158887	500	n/a	-1	-1	500	0.0	fixation	poldrack-single-stim	265	748200	0.0-13.33-0.33	beast_fmri_test	384	747753,/	t	<div class = centerbox2><div class = fixation>+</div></div>	none	500.0	test	n/a	n/a	n/a	n/a	n/a	n/a	n/a	n/a	n/a	n/a	n/a	n/a	n/a	n/a	n/a	n/a	n/a	n/a	fixation
154645.228061	1300.0	n/a	-1	-1	2750	4243.771939	stim	stop-signal	266	750952	0.0-13.33-1.33	beast_fmri_test	384	748434,/,749113,/,749793,/,750473,/,751153,/,751833,/,752513,/,753193,/,753873,/,754553,/	t,t,t,t,t,t,t,t,t,t	<img class = center src='/static/experiments/beast_fmri_test/images/D.png'></img>	71,89	2750.0	test	<img class = center src='/static/experiments/beast_fmri_test/images/redD.png'></img>	stop	1450.0	1.0	33.0	stop	non-target	D	71,Index Finger	89,Middle Finger	950.0	1300.0	1850.0	1450.0	0.0	1300.0	n/a	1.0	go_stim
156095.228061	1450.0	n/a	-1	-1	2750	4243.771939	stim	stop-signal	266	750952	0.0-13.33-1.33	beast_fmri_test	384	748434,/,749113,/,749793,/,750473,/,751153,/,751833,/,752513,/,753193,/,753873,/,754553,/	t,t,t,t,t,t,t,t,t,t	<img class = center src='/static/experiments/beast_fmri_test/images/D.png'></img>	71,89	2750.0	test	<img class = center src='/static/experiments/beast_fmri_test/images/redD.png'></img>	stop	1450.0	1.0	33.0	stop	non-target	D	71,Index Finger	89,Middle Finger	950.0	1300.0	1850.0	1450.0	0.0	1300.0	n/a	1.0	stop_stim
157395.228061	4243.7719390000002	n/a	-1	-1	2750	4243.771939	stim	stop-signal	266	750952	0.0-13.33-1.33	beast_fmri_test	384	748434,/,749113,/,749793,/,750473,/,751153,/,751833,/,752513,/,753193,/,753873,/,754553,/	t,t,t,t,t,t,t,t,t,t	<img class = center src='/static/experiments/beast_fmri_test/images/D.png'></img>	71,89	2750.0	test	<img class = center src='/static/experiments/beast_fmri_test/images/redD.png'></img>	stop	1450.0	1.0	33.0	stop	non-target	D	71,Index Finger	89,Middle Finger	950.0	1300.0	1850.0	1450.0	0.0	1300.0	n/a	1.0	ITI
166392	500	n/a	-1	-1	500	0.0	fixation	poldrack-single-stim	267	755705	0.0-13.34-0.34	beast_fmri_test	384	755233,/	t	<div class = centerbox2><div class = fixation>+</div></div>	none	500.0	test	n/a	n/a	n/a	n/a	n/a	n/a	n/a	n/a	n/a	n/a	n/a	n/a	n/a	n/a	n/a	n/a	n/a	n/a	fixation
164867.00954100001	2750	n/a	1024	71	2750	1526.990459	stim	stop-signal	268	758457	0.0-13.34-1.34	beast_fmri_test	384	755913,/,756593,/,757273,/,757953,/,758634,/,759313,/	t,t,t,t,t,t	<img class = center src='/static/experiments/beast_fmri_test/images/D.png'></img>	71,89	2750.0	test	<img class = center src='/static/experiments/beast_fmri_test/images/redD.png'></img>	go	1800.0	1.0	34.0	go	target	D	71,Index Finger	89,Middle Finger	950.0	1350.0	1800.0	1450.0	1.0	950.0	1.0	n/a	go_stim
167617.00954100001	1526.9904589999999	n/a	1024	71	2750	1526.990459	stim	stop-signal	268	758457	0.0-13.34-1.34	beast_fmri_test	384	755913,/,756593,/,757273,/,757953,/,758634,/,759313,/	t,t,t,t,t,t	<img class = center src='/static/experiments/beast_fmri_test/images/D.png'></img>	71,89	2750.0	test	<img class = center src='/static/experiments/beast_fmri_test/images/redD.png'></img>	go	1800.0	1.0	34.0	go	target	D	71,Index Finger	89,Middle Finger	950.0	1350.0	1800.0	1450.0	1.0	950.0	1.0	n/a	ITI
171182	500	n/a	-1	-1	500	0.0	fixation	poldrack-single-stim	269	760495	0.0-13.35-0.35	beast_fmri_test	384	759993,/	t	<div class = centerbox2><div class = fixation>+</div></div>	none	500.0	test	n/a	n/a	n/a	n/a	n/a	n/a	n/a	n/a	n/a	n/a	n/a	n/a	n/a	n/a	n/a	n/a	n/a	n/a	fixation
169261.05323900003	2750	n/a	1659	89	2750	1921.946761	stim	stop-signal	270	763246	0.0-13.35-1.35	beast_fmri_test	384	760673,/,761353,/,762033,/,762713,/,763393,/,764073,/,764753,/	t,t,t,t,t,t,t	<img class = center src='/static/experiments/beast_fmri_test/images/B.png'></img>	71,89	2750.0	test	<img class = center src='/static/experiments/beast_fmri_test/images/redB.png'></img>	go	1400.0	1.0	35.0	go	non-target	B	71,Index Finger	89,Middle Finger	950.0	1350.0	1800.0	1400.0	1.0	1350.0	1.0	n/a	go_stim
172011.05323900003	1921.9467609999999	n/a	1659	89	2750	1921.946761	stim	stop-signal	270	763246	0.0-13.35-1.35	beast_fmri_test	384	760673,/,761353,/,762033,/,762713,/,763393,/,764073,/,764753,/	t,t,t,t,t,t,t	<img class = center src='/static/experiments/beast_fmri_test/images/B.png'></img>	71,89	2750.0	test	<img class = center src='/static/experiments/beast_fmri_test/images/redB.png'></img>	go	1400.0	1.0	35.0	go	non-target	B	71,Index Finger	89,Middle Finger	950.0	1350.0	1800.0	1400.0	1.0	1350.0	1.0	n/a	ITI
176365	500	n/a	-1	-1	500	0.0	fixation	poldrack-single-stim	271	765678	0.0-13.36-0.36	beast_fmri_test	384	765433,/	t	<div class = centerbox2><div class = fixation>+</div></div>	none	500.0	test	n/a	n/a	n/a	n/a	n/a	n/a	n/a	n/a	n/a	n/a	n/a	n/a	n/a	n/a	n/a	n/a	n/a	n/a	fixation
175473.96115370002	2750	n/a	1896	89	2750	893.0388463	stim	stop-signal	272	768430	0.0-13.36-1.36	beast_fmri_test	384	766113,/,766794,/,767474,/,768153,/,768834,/	t,t,t,t,t	<img class = center src='/static/experiments/beast_fmri_test/images/D.png'></img>	71,89	2750.0	test	<img class = center src='/static/experiments/beast_fmri_test/images/redD.png'></img>	go	1400.0	1.0	36.0	go	non-target	D	71,Index Finger	89,Middle Finger	950.0	1350.0	1800.0	1400.0	1.0	1350.0	1.0	n/a	go_stim
178223.96115370002	893.03884629999993	n/a	1896	89	2750	893.0388463	stim	stop-signal	272	768430	0.0-13.36-1.36	beast_fmri_test	384	766113,/,766794,/,767474,/,768153,/,768834,/	t,t,t,t,t	<img class = center src='/static/experiments/beast_fmri_test/images/D.png'></img>	71,89	2750.0	test	<img class = center src='/static/experiments/beast_fmri_test/images/redD.png'></img>	go	1400.0	1.0	36.0	go	non-target	D	71,Index Finger	89,Middle Finger	950.0	1350.0	1800.0	1400.0	1.0	1350.0	1.0	n/a	ITI
180521	500	n/a	-1	-1	500	0.0	fixation	poldrack-single-stim	273	769834	0.0-13.37-0.37	beast_fmri_test	384	769513,/	t	<div class = centerbox2><div class = fixation>+</div></div>	none	500.0	test	n/a	n/a	n/a	n/a	n/a	n/a	n/a	n/a	n/a	n/a	n/a	n/a	n/a	n/a	n/a	n/a	n/a	n/a	fixation
179997.40694020002	2750	n/a	1935	89	2750	526.5930598	stim	stop-signal	274	772587	0.0-13.37-1.37	beast_fmri_test	384	770193,/,770873,/,771552,/,772233,/,772913,/	t,t,t,t,t	<img class = center src='/static/experiments/beast_fmri_test/images/V.png'></img>	71,89	2750.0	test	<img class = center src='/static/experiments/beast_fmri_test/images/redV.png'></img>	go	1400.0	1.0	37.0	go	non-target	V	71,Index Finger	89,Middle Finger	950.0	1350.0	1800.0	1400.0	1.0	1350.0	1.0	n/a	go_stim
182747.40694020002	526.59305979999999	n/a	1935	89	2750	526.5930598	stim	stop-signal	274	772587	0.0-13.37-1.37	beast_fmri_test	384	770193,/,770873,/,771552,/,772233,/,772913,/	t,t,t,t,t	<img class = center src='/static/experiments/beast_fmri_test/images/V.png'></img>	71,89	2750.0	test	<img class = center src='/static/experiments/beast_fmri_test/images/redV.png'></img>	go	1400.0	1.0	37.0	go	non-target	V	71,Index Finger	89,Middle Finger	950.0	1350.0	1800.0	1400.0	1.0	1350.0	1.0	n/a	ITI
184309	500	n/a	-1	-1	500	0.0	fixation	poldrack-single-stim	275	773622	0.0-13.38-0.38	beast_fmri_test	384	773593,/	t	<div class = centerbox2><div class = fixation>+</div></div>	none	500.0	test	n/a	n/a	n/a	n/a	n/a	n/a	n/a	n/a	n/a	n/a	n/a	n/a	n/a	n/a	n/a	n/a	n/a	n/a	fixation
183217.65583599999	2750	n/a	1719	89	2750	1093.344164	stim	stop-signal	276	776374	0.0-13.38-1.38	beast_fmri_test	384	774274,/,774953,/,775633,/,776313,/,776994,/	t,t,t,t,t	<img class = center src='/static/experiments/beast_fmri_test/images/V.png'></img>	71,89	2750.0	test	<img class = center src='/static/experiments/beast_fmri_test/images/redV.png'></img>	go	1800.0	1.0	38.0	go	target	V	71,Index Finger	89,Middle Finger	950.0	1350.0	1800.0	1400.0	0.0	950.0	0.0	n/a	go_stim
185967.65583599999	1093.3441640000001	n/a	1719	89	2750	1093.344164	stim	stop-signal	276	776374	0.0-13.38-1.38	beast_fmri_test	384	774274,/,774953,/,775633,/,776313,/,776994,/	t,t,t,t,t	<img class = center src='/static/experiments/beast_fmri_test/images/V.png'></img>	71,89	2750.0	test	<img class = center src='/static/experiments/beast_fmri_test/images/redV.png'></img>	go	1800.0	1.0	38.0	go	target	V	71,Index Finger	89,Middle Finger	950.0	1350.0	1800.0	1400.0	0.0	950.0	0.0	n/a	ITI
188665	500	n/a	-1	-1	500	0.0	fixation	poldrack-single-stim	277	777978	0.0-13.39-0.39	beast_fmri_test	384	777673,/	t	<div class = centerbox2><div class = fixation>+</div></div>	none	500.0	test	n/a	n/a	n/a	n/a	n/a	n/a	n/a	n/a	n/a	n/a	n/a	n/a	n/a	n/a	n/a	n/a	n/a	n/a	fixation
187695.53206580004	2750	n/a	2115	89	2750	972.4679342	stim	stop-signal	278	780731	0.0-13.39-1.39	beast_fmri_test	384	778354,/,779034,/,779713,/,780393,/,781073,/	t,t,t,t,t	<img class = center src='/static/experiments/beast_fmri_test/images/P.png'></img>	71,89	2750.0	test	<img class = center src='/static/experiments/beast_fmri_test/images/redP.png'></img>	go	1400.0	1.0	39.0	go	non-target	P	71,Index Finger	89,Middle Finger	950.0	1350.0	1800.0	1400.0	1.0	1350.0	1.0	n/a	go_stim
190445.53206580004	972.46793420000006	n/a	2115	89	2750	972.4679342	stim	stop-signal	278	780731	0.0-13.39-1.39	beast_fmri_test	384	778354,/,779034,/,779713,/,780393,/,781073,/	t,t,t,t,t	<img class = center src='/static/experiments/beast_fmri_test/images/P.png'></img>	71,89	2750.0	test	<img class = center src='/static/experiments/beast_fmri_test/images/redP.png'></img>	go	1400.0	1.0	39.0	go	non-target	P	71,Index Finger	89,Middle Finger	950.0	1350.0	1800.0	1400.0	1.0	1350.0	1.0	n/a	ITI
192901	500	n/a	-1	-1	500	0.0	fixation	poldrack-single-stim	279	782214	0.0-13.40-0.40	beast_fmri_test	384	781753,/	t	<div class = centerbox2><div class = fixation>+</div></div>	none	500.0	test	n/a	n/a	n/a	n/a	n/a	n/a	n/a	n/a	n/a	n/a	n/a	n/a	n/a	n/a	n/a	n/a	n/a	n/a	fixation
191913.04679519997	2750	n/a	1723	89	2750	989.9532048	stim	stop-signal	280	784966	0.0-13.40-1.40	beast_fmri_test	384	782434,/,783113,/,783793,/,784473,/,785153,/,785833,/	t,t,t,t,t,t	<img class = center src='/static/experiments/beast_fmri_test/images/D.png'></img>	71,89	2750.0	test	<img class = center src='/static/experiments/beast_fmri_test/images/redD.png'></img>	go	1400.0	1.0	40.0	go	non-target	D	71,Index Finger	89,Middle Finger	950.0	1350.0	1800.0	1400.0	1.0	1350.0	1.0	n/a	go_stim
194663.04679519997	989.95320480000009	n/a	1723	89	2750	989.9532048	stim	stop-signal	280	784966	0.0-13.40-1.40	beast_fmri_test	384	782434,/,783113,/,783793,/,784473,/,785153,/,785833,/	t,t,t,t,t,t	<img class = center src='/static/experiments/beast_fmri_test/images/D.png'></img>	71,89	2750.0	test	<img class = center src='/static/experiments/beast_fmri_test/images/redD.png'></img>	go	1400.0	1.0	40.0	go	non-target	D	71,Index Finger	89,Middle Finger	950.0	1350.0	1800.0	1400.0	1.0	1350.0	1.0	n/a	ITI
197154	500	n/a	-1	-1	500	0.0	fixation	poldrack-single-stim	281	786467	0.0-13.41-0.41	beast_fmri_test	384	n/a	n/a	<div class = centerbox2><div class = fixation>+</div></div>	none	500.0	test	n/a	n/a	n/a	n/a	n/a	n/a	n/a	n/a	n/a	n/a	n/a	n/a	n/a	n/a	n/a	n/a	n/a	n/a	fixation
197019.92008289997	2750	n/a	1475	89	2750	136.0799171	stim	stop-signal	282	789219	0.0-13.41-1.41	beast_fmri_test	384	786513,/,787193,/,787873,/,788553,/,789234,/	t,t,t,t,t	<img class = center src='/static/experiments/beast_fmri_test/images/T.png'></img>	71,89	2750.0	test	<img class = center src='/static/experiments/beast_fmri_test/images/redT.png'></img>	go	1400.0	1.0	41.0	go	non-target	T	71,Index Finger	89,Middle Finger	950.0	1350.0	1800.0	1400.0	1.0	1350.0	1.0	n/a	go_stim
199769.92008289997	136.07991709999999	n/a	1475	89	2750	136.0799171	stim	stop-signal	282	789219	0.0-13.41-1.41	beast_fmri_test	384	786513,/,787193,/,787873,/,788553,/,789234,/	t,t,t,t,t	<img class = center src='/static/experiments/beast_fmri_test/images/T.png'></img>	71,89	2750.0	test	<img class = center src='/static/experiments/beast_fmri_test/images/redT.png'></img>	go	1400.0	1.0	41.0	go	non-target	T	71,Index Finger	89,Middle Finger	950.0	1350.0	1800.0	1400.0	1.0	1350.0	1.0	n/a	ITI
200553	500	n/a	-1	-1	500	0.0	fixation	poldrack-single-stim	283	789866	0.0-13.42-0.42	beast_fmri_test	384	n/a	n/a	<div class = centerbox2><div class = fixation>+</div></div>	none	500.0	test	n/a	n/a	n/a	n/a	n/a	n/a	n/a	n/a	n/a	n/a	n/a	n/a	n/a	n/a	n/a	n/a	n/a	n/a	fixation
199982.81559779996	950.0	n/a	-1	-1	2750	572.1844022	stim	stop-signal	284	792618	0.0-13.42-1.42	beast_fmri_test	384	789913,/,790593,/,791273,/,791953,/,792633,/	t,t,t,t,t	<img class = center src='/static/experiments/beast_fmri_test/images/T.png'></img>	71,89	2750.0	test	<img class = center src='/static/experiments/beast_fmri_test/images/redT.png'></img>	stop	1800.0	1.0	42.0	stop	target	T	71,Index Finger	89,Middle Finger	950.0	1350.0	1800.0	1400.0	0.0	950.0	n/a	1.0	go_stim
201782.81559779996	1800.0	n/a	-1	-1	2750	572.1844022	stim	stop-signal	284	792618	0.0-13.42-1.42	beast_fmri_test	384	789913,/,790593,/,791273,/,791953,/,792633,/	t,t,t,t,t	<img class = center src='/static/experiments/beast_fmri_test/images/T.png'></img>	71,89	2750.0	test	<img class = center src='/static/experiments/beast_fmri_test/images/redT.png'></img>	stop	1800.0	1.0	42.0	stop	target	T	71,Index Finger	89,Middle Finger	950.0	1350.0	1800.0	1400.0	0.0	950.0	n/a	1.0	stop_stim
202732.81559779996	572.18440220000014	n/a	-1	-1	2750	572.1844022	stim	stop-signal	284	792618	0.0-13.42-1.42	beast_fmri_test	384	789913,/,790593,/,791273,/,791953,/,792633,/	t,t,t,t,t	<img class = center src='/static/experiments/beast_fmri_test/images/T.png'></img>	71,89	2750.0	test	<img class = center src='/static/experiments/beast_fmri_test/images/redT.png'></img>	stop	1800.0	1.0	42.0	stop	target	T	71,Index Finger	89,Middle Finger	950.0	1350.0	1800.0	1400.0	0.0	950.0	n/a	1.0	ITI
204390	500	n/a	-1	-1	500	0.0	fixation	poldrack-single-stim	285	793703	0.0-13.43-0.43	beast_fmri_test	384	793313,/	t	<div class = centerbox2><div class = fixation>+</div></div>	none	500.0	test	n/a	n/a	n/a	n/a	n/a	n/a	n/a	n/a	n/a	n/a	n/a	n/a	n/a	n/a	n/a	n/a	n/a	n/a	fixation
203972.99187230004	2750	n/a	1616	89	2750	419.0081277	stim	stop-signal	286	796455	0.0-13.43-1.43	beast_fmri_test	384	793993,/,794673,/,795353,/,796033,/,796713,/	t,t,t,t,t	<img class = center src='/static/experiments/beast_fmri_test/images/V.png'></img>	71,89	2750.0	test	<img class = center src='/static/experiments/beast_fmri_test/images/redV.png'></img>	go	1400.0	1.0	43.0	go	non-target	V	71,Index Finger	89,Middle Finger	1000.0	1350.0	1800.0	1400.0	1.0	1350.0	1.0	n/a	go_stim
206722.99187230004	419.00812769999999	n/a	1616	89	2750	419.0081277	stim	stop-signal	286	796455	0.0-13.43-1.43	beast_fmri_test	384	793993,/,794673,/,795353,/,796033,/,796713,/	t,t,t,t,t	<img class = center src='/static/experiments/beast_fmri_test/images/V.png'></img>	71,89	2750.0	test	<img class = center src='/static/experiments/beast_fmri_test/images/redV.png'></img>	go	1400.0	1.0	43.0	go	non-target	V	71,Index Finger	89,Middle Finger	1000.0	1350.0	1800.0	1400.0	1.0	1350.0	1.0	n/a	ITI
208073	500	n/a	-1	-1	500	0.0	fixation	poldrack-single-stim	287	797386	0.0-13.44-0.44	beast_fmri_test	384	n/a	n/a	<div class = centerbox2><div class = fixation>+</div></div>	none	500.0	test	n/a	n/a	n/a	n/a	n/a	n/a	n/a	n/a	n/a	n/a	n/a	n/a	n/a	n/a	n/a	n/a	n/a	n/a	fixation
206115.86167699995	1350.0	n/a	-1	-1	2750	1958.138323	stim	stop-signal	288	800137	0.0-13.44-1.44	beast_fmri_test	384	797392,/,798073,/,798753,/,799433,/,800113,/,800793,/,801472,/	t,t,t,t,t,t,t	<img class = center src='/static/experiments/beast_fmri_test/images/D.png'></img>	71,89	2750.0	test	<img class = center src='/static/experiments/beast_fmri_test/images/redD.png'></img>	stop	1400.0	1.0	44.0	stop	non-target	D	71,Index Finger	89,Middle Finger	1000.0	1350.0	1800.0	1400.0	0.0	1350.0	n/a	1.0	go_stim
207515.86167699995	1400.0	n/a	-1	-1	2750	1958.138323	stim	stop-signal	288	800137	0.0-13.44-1.44	beast_fmri_test	384	797392,/,798073,/,798753,/,799433,/,800113,/,800793,/,801472,/	t,t,t,t,t,t,t	<img class = center src='/static/experiments/beast_fmri_test/images/D.png'></img>	71,89	2750.0	test	<img class = center src='/static/experiments/beast_fmri_test/images/redD.png'></img>	stop	1400.0	1.0	44.0	stop	non-target	D	71,Index Finger	89,Middle Finger	1000.0	1350.0	1800.0	1400.0	0.0	1350.0	n/a	1.0	stop_stim
208865.86167699995	1958.1383230000001	n/a	-1	-1	2750	1958.138323	stim	stop-signal	288	800137	0.0-13.44-1.44	beast_fmri_test	384	797392,/,798073,/,798753,/,799433,/,800113,/,800793,/,801472,/	t,t,t,t,t,t,t	<img class = center src='/static/experiments/beast_fmri_test/images/D.png'></img>	71,89	2750.0	test	<img class = center src='/static/experiments/beast_fmri_test/images/redD.png'></img>	stop	1400.0	1.0	44.0	stop	non-target	D	71,Index Finger	89,Middle Finger	1000.0	1350.0	1800.0	1400.0	0.0	1350.0	n/a	1.0	ITI
213294	500	n/a	-1	-1	500	0.0	fixation	poldrack-single-stim	289	802607	0.0-13.45-0.45	beast_fmri_test	384	802153,/	t	<div class = centerbox2><div class = fixation>+</div></div>	none	500.0	test	n/a	n/a	n/a	n/a	n/a	n/a	n/a	n/a	n/a	n/a	n/a	n/a	n/a	n/a	n/a	n/a	n/a	n/a	fixation
210698.46978399996	1000.0	n/a	-1	-1	2750	2598.530216	stim	stop-signal	290	805360	0.0-13.45-1.45	beast_fmri_test	384	802833,/,803512,/,804193,/,804873,/,805553,/,806232,/,806913,/,807593,/	t,t,t,t,t,t,t,t	<img class = center src='/static/experiments/beast_fmri_test/images/D.png'></img>	71,89	2750.0	test	<img class = center src='/static/experiments/beast_fmri_test/images/redD.png'></img>	stop	1750.0	1.0	45.0	stop	target	D	71,Index Finger	89,Middle Finger	1000.0	1400.0	1750.0	1400.0	0.0	1000.0	n/a	1.0	go_stim
212448.46978399996	1750.0	n/a	-1	-1	2750	2598.530216	stim	stop-signal	290	805360	0.0-13.45-1.45	beast_fmri_test	384	802833,/,803512,/,804193,/,804873,/,805553,/,806232,/,806913,/,807593,/	t,t,t,t,t,t,t,t	<img class = center src='/static/experiments/beast_fmri_test/images/D.png'></img>	71,89	2750.0	test	<img class = center src='/static/experiments/beast_fmri_test/images/redD.png'></img>	stop	1750.0	1.0	45.0	stop	target	D	71,Index Finger	89,Middle Finger	1000.0	1400.0	1750.0	1400.0	0.0	1000.0	n/a	1.0	stop_stim
213448.46978399996	2598.5302160000001	n/a	-1	-1	2750	2598.530216	stim	stop-signal	290	805360	0.0-13.45-1.45	beast_fmri_test	384	802833,/,803512,/,804193,/,804873,/,805553,/,806232,/,806913,/,807593,/	t,t,t,t,t,t,t,t	<img class = center src='/static/experiments/beast_fmri_test/images/D.png'></img>	71,89	2750.0	test	<img class = center src='/static/experiments/beast_fmri_test/images/redD.png'></img>	stop	1750.0	1.0	45.0	stop	target	D	71,Index Finger	89,Middle Finger	1000.0	1400.0	1750.0	1400.0	0.0	1000.0	n/a	1.0	ITI
233653	15000	n/a	-1	-1	15000	0.0	practice-no-stop-feedback	poldrack-single-stim	291	822966	0.0-14.0	beast_fmri_test	384	808273,/,808953,/,809634,/,810313,/,810993,/,811673,/,812353,/,813033,/,813713,/,814393,/,815073,/,815753,/,816433,/,817113,/,817793,/,818473,/,819153,/,819834,/,820513,/,821193,/,821873,/,822553,/	t,t,t,t,t,t,t,t,t,t,t,t,t,t,t,t,t,t,t,t,t,t	"<div class = ""centerbox2_2""><p class = ""block-text2"">Your delay is 2 trials.</p><p class = block-text2>Please wait for the scanner to start the block</p></div>"	77	15000.0	n/a	n/a	n/a	n/a	n/a	n/a	n/a	n/a	n/a	n/a	n/a	n/a	n/a	n/a	n/a	n/a	n/a	n/a	n/a	practice-no-stop-feedback
234155	500	n/a	-1	-1	500	0.0	fixation	poldrack-single-stim	292	823468	0.0-15.0-0.0	beast_fmri_test	384	823233,/	t	<div class = centerbox2><div class = fixation>+</div></div>	none	500.0	test	n/a	n/a	n/a	n/a	n/a	n/a	n/a	n/a	n/a	n/a	n/a	n/a	n/a	n/a	n/a	n/a	n/a	n/a	fixation
232937.05282999994	temp_go_duration	n/a	1355	89	2750	1219.94717	stim	stop-signal	293	826220	0.0-15.0-1.0	beast_fmri_test	384	823913,/,824593,/,825272,/,825953,/,826633,/,827313,/	t,t,t,t,t,t	<img class = center src='/static/experiments/beast_fmri_test/images/T.png'></img>	71,89	2750.0	test	<img class = center src='/static/experiments/beast_fmri_test/images/redT.png'></img>	stop	-1.0	2.0	0.0	stop	temp-non-target	T	71,Index Finger	89,Middle Finger	1050.0	1400.0	1750.0	1400.0	0.0	n/a	n/a	0.0	go_stim
temp-non-target	temp_stop_duration	n/a	1355	89	2750	1219.94717	stim	stop-signal	293	826220	0.0-15.0-1.0	beast_fmri_test	384	823913,/,824593,/,825272,/,825953,/,826633,/,827313,/	t,t,t,t,t,t	<img class = center src='/static/experiments/beast_fmri_test/images/T.png'></img>	71,89	2750.0	test	<img class = center src='/static/experiments/beast_fmri_test/images/redT.png'></img>	stop	-1.0	2.0	0.0	stop	temp-non-target	T	71,Index Finger	89,Middle Finger	1050.0	1400.0	1750.0	1400.0	0.0	n/a	n/a	0.0	stop_stim
235687.05282999994	1219.9471699999999	n/a	1355	89	2750	1219.94717	stim	stop-signal	293	826220	0.0-15.0-1.0	beast_fmri_test	384	823913,/,824593,/,825272,/,825953,/,826633,/,827313,/	t,t,t,t,t,t	<img class = center src='/static/experiments/beast_fmri_test/images/T.png'></img>	71,89	2750.0	test	<img class = center src='/static/experiments/beast_fmri_test/images/redT.png'></img>	stop	-1.0	2.0	0.0	stop	temp-non-target	T	71,Index Finger	89,Middle Finger	1050.0	1400.0	1750.0	1400.0	0.0	n/a	n/a	0.0	ITI
238638	500	n/a	-1	-1	500	0.0	fixation	poldrack-single-stim	294	827951	0.0-15.1-0.1	beast_fmri_test	384	n/a	n/a	<div class = centerbox2><div class = fixation>+</div></div>	none	500.0	test	n/a	n/a	n/a	n/a	n/a	n/a	n/a	n/a	n/a	n/a	n/a	n/a	n/a	n/a	n/a	n/a	n/a	n/a	fixation
238221.02990790003	temp_go_duration	n/a	484	89	2750	417.9700921	stim	stop-signal	295	830702	0.0-15.1-1.1	beast_fmri_test	384	827993,/,828673,/,829353,/,830034,/,830712,/	t,t,t,t,t	<img class = center src='/static/experiments/beast_fmri_test/images/V.png'></img>	71,89	2750.0	test	<img class = center src='/static/experiments/beast_fmri_test/images/redV.png'></img>	stop	-1.0	2.0	1.0	stop	temp-non-target	V	71,Index Finger	89,Middle Finger	1050.0	1400.0	1750.0	1400.0	0.0	n/a	n/a	0.0	go_stim
temp-non-target	temp_stop_duration	n/a	484	89	2750	417.9700921	stim	stop-signal	295	830702	0.0-15.1-1.1	beast_fmri_test	384	827993,/,828673,/,829353,/,830034,/,830712,/	t,t,t,t,t	<img class = center src='/static/experiments/beast_fmri_test/images/V.png'></img>	71,89	2750.0	test	<img class = center src='/static/experiments/beast_fmri_test/images/redV.png'></img>	stop	-1.0	2.0	1.0	stop	temp-non-target	V	71,Index Finger	89,Middle Finger	1050.0	1400.0	1750.0	1400.0	0.0	n/a	n/a	0.0	stop_stim
240971.02990790003	417.97009209999999	n/a	484	89	2750	417.9700921	stim	stop-signal	295	830702	0.0-15.1-1.1	beast_fmri_test	384	827993,/,828673,/,829353,/,830034,/,830712,/	t,t,t,t,t	<img class = center src='/static/experiments/beast_fmri_test/images/V.png'></img>	71,89	2750.0	test	<img class = center src='/static/experiments/beast_fmri_test/images/redV.png'></img>	stop	-1.0	2.0	1.0	stop	temp-non-target	V	71,Index Finger	89,Middle Finger	1050.0	1400.0	1750.0	1400.0	0.0	n/a	n/a	0.0	ITI
242318	500	n/a	-1	-1	500	0.0	fixation	poldrack-single-stim	296	831631	0.0-15.2-0.2	beast_fmri_test	384	831393,/	t	<div class = centerbox2><div class = fixation>+</div></div>	none	500.0	test	n/a	n/a	n/a	n/a	n/a	n/a	n/a	n/a	n/a	n/a	n/a	n/a	n/a	n/a	n/a	n/a	n/a	n/a	fixation
241001.04087000003	2750	n/a	1032	89	2750	1317.95913	stim	stop-signal	297	834382	0.0-15.2-1.2	beast_fmri_test	384	832072,/,832752,/,833432,/,834113,/,834792,/,835472,/	t,t,t,t,t,t	<img class = center src='/static/experiments/beast_fmri_test/images/B.png'></img>	71,89	2750.0	test	<img class = center src='/static/experiments/beast_fmri_test/images/redB.png'></img>	go	1350.0	2.0	2.0	go	non-target	B	71,Index Finger	89,Middle Finger	1050.0	1400.0	1750.0	1350.0	1.0	1400.0	1.0	n/a	go_stim
243751.04087000003	1317.9591300000002	n/a	1032	89	2750	1317.95913	stim	stop-signal	297	834382	0.0-15.2-1.2	beast_fmri_test	384	832072,/,832752,/,833432,/,834113,/,834792,/,835472,/	t,t,t,t,t,t	<img class = center src='/static/experiments/beast_fmri_test/images/B.png'></img>	71,89	2750.0	test	<img class = center src='/static/experiments/beast_fmri_test/images/redB.png'></img>	go	1350.0	2.0	2.0	go	non-target	B	71,Index Finger	89,Middle Finger	1050.0	1400.0	1750.0	1350.0	1.0	1400.0	1.0	n/a	ITI
246897	500	n/a	-1	-1	500	0.0	fixation	poldrack-single-stim	298	836210	0.0-15.3-0.3	beast_fmri_test	384	836153,/	t	<div class = centerbox2><div class = fixation>+</div></div>	none	500.0	test	n/a	n/a	n/a	n/a	n/a	n/a	n/a	n/a	n/a	n/a	n/a	n/a	n/a	n/a	n/a	n/a	n/a	n/a	fixation
243683.08291200001	2750	n/a	827	71	2750	3215.917088	stim	stop-signal	299	838962	0.0-15.3-1.3	beast_fmri_test	384	836832,/,837512,/,838192,/,838872,/,839552,/,840234,/,840914,/,841594,/	t,t,t,t,t,t,t,t	<img class = center src='/static/experiments/beast_fmri_test/images/V.png'></img>	71,89	2750.0	test	<img class = center src='/static/experiments/beast_fmri_test/images/redV.png'></img>	go	1700.0	2.0	3.0	go	target	V	71,Index Finger	89,Middle Finger	1050.0	1400.0	1700.0	1350.0	1.0	1050.0	1.0	n/a	go_stim
246433.08291200001	3215.9170879999997	n/a	827	71	2750	3215.917088	stim	stop-signal	299	838962	0.0-15.3-1.3	beast_fmri_test	384	836832,/,837512,/,838192,/,838872,/,839552,/,840234,/,840914,/,841594,/	t,t,t,t,t,t,t,t	<img class = center src='/static/experiments/beast_fmri_test/images/V.png'></img>	71,89	2750.0	test	<img class = center src='/static/experiments/beast_fmri_test/images/redV.png'></img>	go	1700.0	2.0	3.0	go	target	V	71,Index Finger	89,Middle Finger	1050.0	1400.0	1700.0	1350.0	1.0	1050.0	1.0	n/a	ITI
253374	500	n/a	-1	-1	500	0.0	fixation	poldrack-single-stim	300	842687	0.0-15.4-0.4	beast_fmri_test	384	842273,/	t	<div class = centerbox2><div class = fixation>+</div></div>	none	500.0	test	n/a	n/a	n/a	n/a	n/a	n/a	n/a	n/a	n/a	n/a	n/a	n/a	n/a	n/a	n/a	n/a	n/a	n/a	fixation
252911.10375280003	2750	n/a	1120	89	2750	463.8962472	stim	stop-signal	301	845438	0.0-15.4-1.4	beast_fmri_test	384	842953,/,843633,/,844313,/,844993,/,845673,/	t,t,t,t,t	<img class = center src='/static/experiments/beast_fmri_test/images/D.png'></img>	71,89	2750.0	test	<img class = center src='/static/experiments/beast_fmri_test/images/redD.png'></img>	go	1350.0	2.0	4.0	go	non-target	D	71,Index Finger	89,Middle Finger	1050.0	1400.0	1700.0	1350.0	1.0	1400.0	1.0	n/a	go_stim
255661.10375280003	463.8962472	n/a	1120	89	2750	463.8962472	stim	stop-signal	301	845438	0.0-15.4-1.4	beast_fmri_test	384	842953,/,843633,/,844313,/,844993,/,845673,/	t,t,t,t,t	<img class = center src='/static/experiments/beast_fmri_test/images/D.png'></img>	71,89	2750.0	test	<img class = center src='/static/experiments/beast_fmri_test/images/redD.png'></img>	go	1350.0	2.0	4.0	go	non-target	D	71,Index Finger	89,Middle Finger	1050.0	1400.0	1700.0	1350.0	1.0	1400.0	1.0	n/a	ITI
257098	500	n/a	-1	-1	500	0.0	fixation	poldrack-single-stim	302	846411	0.0-15.5-0.5	beast_fmri_test	384	846353,/	t	<div class = centerbox2><div class = fixation>+</div></div>	none	500.0	test	n/a	n/a	n/a	n/a	n/a	n/a	n/a	n/a	n/a	n/a	n/a	n/a	n/a	n/a	n/a	n/a	n/a	n/a	fixation
256786.10664160002	1050.0	n/a	-1	-1	2750	311.8933584	stim	stop-signal	303	849161	0.0-15.5-1.5	beast_fmri_test	384	847034,/,847713,/,848393,/,849073,/	t,t,t,t	<img class = center src='/static/experiments/beast_fmri_test/images/V.png'></img>	71,89	2750.0	test	<img class = center src='/static/experiments/beast_fmri_test/images/redV.png'></img>	stop	1700.0	2.0	5.0	stop	target	V	71,Index Finger	89,Middle Finger	1050.0	1400.0	1700.0	1350.0	0.0	1050.0	n/a	1.0	go_stim
258486.10664160002	1700.0	n/a	-1	-1	2750	311.8933584	stim	stop-signal	303	849161	0.0-15.5-1.5	beast_fmri_test	384	847034,/,847713,/,848393,/,849073,/	t,t,t,t	<img class = center src='/static/experiments/beast_fmri_test/images/V.png'></img>	71,89	2750.0	test	<img class = center src='/static/experiments/beast_fmri_test/images/redV.png'></img>	stop	1700.0	2.0	5.0	stop	target	V	71,Index Finger	89,Middle Finger	1050.0	1400.0	1700.0	1350.0	0.0	1050.0	n/a	1.0	stop_stim
259536.10664160002	311.89335839999995	n/a	-1	-1	2750	311.8933584	stim	stop-signal	303	849161	0.0-15.5-1.5	beast_fmri_test	384	847034,/,847713,/,848393,/,849073,/	t,t,t,t	<img class = center src='/static/experiments/beast_fmri_test/images/V.png'></img>	71,89	2750.0	test	<img class = center src='/static/experiments/beast_fmri_test/images/redV.png'></img>	stop	1700.0	2.0	5.0	stop	target	V	71,Index Finger	89,Middle Finger	1050.0	1400.0	1700.0	1350.0	0.0	1050.0	n/a	1.0	ITI
260670	500	n/a	-1	-1	500	0.0	fixation	poldrack-single-stim	304	849983	0.0-15.6-0.6	beast_fmri_test	384	849753,/	t	<div class = centerbox2><div class = fixation>+</div></div>	none	500.0	test	n/a	n/a	n/a	n/a	n/a	n/a	n/a	n/a	n/a	n/a	n/a	n/a	n/a	n/a	n/a	n/a	n/a	n/a	fixation
259830.61751160002	2750	n/a	928	71	2750	841.3824884	stim	stop-signal	305	852735	0.0-15.6-1.6	beast_fmri_test	384	850434,/,851113,/,851793,/,852473,/,853153,/	t,t,t,t,t	<img class = center src='/static/experiments/beast_fmri_test/images/D.png'></img>	71,89	2750.0	test	<img class = center src='/static/experiments/beast_fmri_test/images/redD.png'></img>	go	1650.0	2.0	6.0	go	target	D	71,Index Finger	89,Middle Finger	1100.0	1400.0	1650.0	1350.0	1.0	1100.0	1.0	n/a	go_stim
262580.61751160002	841.38248839999994	n/a	928	71	2750	841.3824884	stim	stop-signal	305	852735	0.0-15.6-1.6	beast_fmri_test	384	850434,/,851113,/,851793,/,852473,/,853153,/	t,t,t,t,t	<img class = center src='/static/experiments/beast_fmri_test/images/D.png'></img>	71,89	2750.0	test	<img class = center src='/static/experiments/beast_fmri_test/images/redD.png'></img>	go	1650.0	2.0	6.0	go	target	D	71,Index Finger	89,Middle Finger	1100.0	1400.0	1650.0	1350.0	1.0	1100.0	1.0	n/a	ITI
264772	500	n/a	-1	-1	500	0.0	fixation	poldrack-single-stim	306	854085	0.0-15.7-0.7	beast_fmri_test	384	853833,/	t	<div class = centerbox2><div class = fixation>+</div></div>	none	500.0	test	n/a	n/a	n/a	n/a	n/a	n/a	n/a	n/a	n/a	n/a	n/a	n/a	n/a	n/a	n/a	n/a	n/a	n/a	fixation
263384.01232400001	2750	n/a	1023	89	2750	1389.987676	stim	stop-signal	307	856837	0.0-15.7-1.7	beast_fmri_test	384	854513,/,855193,/,855872,/,856553,/,857233,/,857912,/	t,t,t,t,t,t	<img class = center src='/static/experiments/beast_fmri_test/images/B.png'></img>	71,89	2750.0	test	<img class = center src='/static/experiments/beast_fmri_test/images/redB.png'></img>	go	1350.0	2.0	7.0	go	non-target	B	71,Index Finger	89,Middle Finger	1100.0	1400.0	1650.0	1350.0	1.0	1400.0	1.0	n/a	go_stim
266134.01232400001	1389.987676	n/a	1023	89	2750	1389.987676	stim	stop-signal	307	856837	0.0-15.7-1.7	beast_fmri_test	384	854513,/,855193,/,855872,/,856553,/,857233,/,857912,/	t,t,t,t,t,t	<img class = center src='/static/experiments/beast_fmri_test/images/B.png'></img>	71,89	2750.0	test	<img class = center src='/static/experiments/beast_fmri_test/images/redB.png'></img>	go	1350.0	2.0	7.0	go	non-target	B	71,Index Finger	89,Middle Finger	1100.0	1400.0	1650.0	1350.0	1.0	1400.0	1.0	n/a	ITI
269425	500	n/a	-1	-1	500	0.0	fixation	poldrack-single-stim	308	858738	0.0-15.8-0.8	beast_fmri_test	384	858593,/	t	<div class = centerbox2><div class = fixation>+</div></div>	none	500.0	test	n/a	n/a	n/a	n/a	n/a	n/a	n/a	n/a	n/a	n/a	n/a	n/a	n/a	n/a	n/a	n/a	n/a	n/a	fixation
267556.597343	1100.0	n/a	-1	-1	2750	1870.402657	stim	stop-signal	309	861490	0.0-15.8-1.8	beast_fmri_test	384	859273,/,859952,/,860633,/,861313,/,861993,/,862673,/,863353,/	t,t,t,t,t,t,t	<img class = center src='/static/experiments/beast_fmri_test/images/D.png'></img>	71,89	2750.0	test	<img class = center src='/static/experiments/beast_fmri_test/images/redD.png'></img>	stop	1650.0	2.0	8.0	stop	target	D	71,Index Finger	89,Middle Finger	1100.0	1400.0	1650.0	1350.0	0.0	1100.0	n/a	1.0	go_stim
269206.597343	1650.0	n/a	-1	-1	2750	1870.402657	stim	stop-signal	309	861490	0.0-15.8-1.8	beast_fmri_test	384	859273,/,859952,/,860633,/,861313,/,861993,/,862673,/,863353,/	t,t,t,t,t,t,t	<img class = center src='/static/experiments/beast_fmri_test/images/D.png'></img>	71,89	2750.0	test	<img class = center src='/static/experiments/beast_fmri_test/images/redD.png'></img>	stop	1650.0	2.0	8.0	stop	target	D	71,Index Finger	89,Middle Finger	1100.0	1400.0	1650.0	1350.0	0.0	1100.0	n/a	1.0	stop_stim
270306.597343	1870.4026570000001	n/a	-1	-1	2750	1870.402657	stim	stop-signal	309	861490	0.0-15.8-1.8	beast_fmri_test	384	859273,/,859952,/,860633,/,861313,/,861993,/,862673,/,863353,/	t,t,t,t,t,t,t	<img class = center src='/static/experiments/beast_fmri_test/images/D.png'></img>	71,89	2750.0	test	<img class = center src='/static/experiments/beast_fmri_test/images/redD.png'></img>	stop	1650.0	2.0	8.0	stop	target	D	71,Index Finger	89,Middle Finger	1100.0	1400.0	1650.0	1350.0	0.0	1100.0	n/a	1.0	ITI
274557	500	n/a	-1	-1	500	0.0	fixation	poldrack-single-stim	310	863870	0.0-15.9-0.9	beast_fmri_test	384	n/a	n/a	<div class = centerbox2><div class = fixation>+</div></div>	none	500.0	test	n/a	n/a	n/a	n/a	n/a	n/a	n/a	n/a	n/a	n/a	n/a	n/a	n/a	n/a	n/a	n/a	n/a	n/a	fixation
273546.35579299997	1400.0	n/a	939	89	2750	1011.644207	stim	stop-signal	311	866621	0.0-15.9-1.9	beast_fmri_test	384	864032,/,864713,/,865393,/,866073,/,866753,/,867432,/	t,t,t,t,t,t	<img class = center src='/static/experiments/beast_fmri_test/images/T.png'></img>	71,89	2750.0	test	<img class = center src='/static/experiments/beast_fmri_test/images/redT.png'></img>	stop	1350.0	2.0	9.0	stop	non-target	T	71,Index Finger	89,Middle Finger	1150.0	1400.0	1650.0	1350.0	0.0	1400.0	n/a	0.0	go_stim
274896.35579299997	1350.0	n/a	939	89	2750	1011.644207	stim	stop-signal	311	866621	0.0-15.9-1.9	beast_fmri_test	384	864032,/,864713,/,865393,/,866073,/,866753,/,867432,/	t,t,t,t,t,t	<img class = center src='/static/experiments/beast_fmri_test/images/T.png'></img>	71,89	2750.0	test	<img class = center src='/static/experiments/beast_fmri_test/images/redT.png'></img>	stop	1350.0	2.0	9.0	stop	non-target	T	71,Index Finger	89,Middle Finger	1150.0	1400.0	1650.0	1350.0	0.0	1400.0	n/a	0.0	stop_stim
276296.35579299997	1011.6442070000001	n/a	939	89	2750	1011.644207	stim	stop-signal	311	866621	0.0-15.9-1.9	beast_fmri_test	384	864032,/,864713,/,865393,/,866073,/,866753,/,867432,/	t,t,t,t,t,t	<img class = center src='/static/experiments/beast_fmri_test/images/T.png'></img>	71,89	2750.0	test	<img class = center src='/static/experiments/beast_fmri_test/images/redT.png'></img>	stop	1350.0	2.0	9.0	stop	non-target	T	71,Index Finger	89,Middle Finger	1150.0	1400.0	1650.0	1350.0	0.0	1400.0	n/a	0.0	ITI
278827	500	n/a	-1	-1	500	0.0	fixation	poldrack-single-stim	312	868140	0.0-15.10-0.10	beast_fmri_test	384	868112,/	t	<div class = centerbox2><div class = fixation>+</div></div>	none	500.0	test	n/a	n/a	n/a	n/a	n/a	n/a	n/a	n/a	n/a	n/a	n/a	n/a	n/a	n/a	n/a	n/a	n/a	n/a	fixation
276573.65397600003	2750	n/a	2136	89	2750	2255.346024	stim	stop-signal	313	870892	0.0-15.10-1.10	beast_fmri_test	384	868792,/,869472,/,870153,/,870834,/,871512,/,872192,/,872872,/	t,t,t,t,t,t,t	<img class = center src='/static/experiments/beast_fmri_test/images/T.png'></img>	71,89	2750.0	test	<img class = center src='/static/experiments/beast_fmri_test/images/redT.png'></img>	go	1400.0	2.0	10.0	go	non-target	T	71,Index Finger	89,Middle Finger	1150.0	1350.0	1650.0	1400.0	1.0	1350.0	1.0	n/a	go_stim
279323.65397600003	2255.3460239999999	n/a	2136	89	2750	2255.346024	stim	stop-signal	313	870892	0.0-15.10-1.10	beast_fmri_test	384	868792,/,869472,/,870153,/,870834,/,871512,/,872192,/,872872,/	t,t,t,t,t,t,t	<img class = center src='/static/experiments/beast_fmri_test/images/T.png'></img>	71,89	2750.0	test	<img class = center src='/static/experiments/beast_fmri_test/images/redT.png'></img>	go	1400.0	2.0	10.0	go	non-target	T	71,Index Finger	89,Middle Finger	1150.0	1350.0	1650.0	1400.0	1.0	1350.0	1.0	n/a	ITI
284347	500	n/a	-1	-1	500	0.0	fixation	poldrack-single-stim	314	873660	0.0-15.11-0.11	beast_fmri_test	384	873554,/	t	<div class = centerbox2><div class = fixation>+</div></div>	none	500.0	test	n/a	n/a	n/a	n/a	n/a	n/a	n/a	n/a	n/a	n/a	n/a	n/a	n/a	n/a	n/a	n/a	n/a	n/a	fixation
282183.361102	1150.0	n/a	-1	-1	2750	2165.638898	stim	stop-signal	315	876412	0.0-15.11-1.11	beast_fmri_test	384	874234,/,874914,/,875593,/,876273,/,876954,/,877634,/,878313,/	t,t,t,t,t,t,t	<img class = center src='/static/experiments/beast_fmri_test/images/T.png'></img>	71,89	2750.0	test	<img class = center src='/static/experiments/beast_fmri_test/images/redT.png'></img>	stop	1600.0	2.0	11.0	stop	target	T	71,Index Finger	89,Middle Finger	1150.0	1350.0	1600.0	1400.0	0.0	1150.0	n/a	1.0	go_stim
283783.361102	1600.0	n/a	-1	-1	2750	2165.638898	stim	stop-signal	315	876412	0.0-15.11-1.11	beast_fmri_test	384	874234,/,874914,/,875593,/,876273,/,876954,/,877634,/,878313,/	t,t,t,t,t,t,t	<img class = center src='/static/experiments/beast_fmri_test/images/T.png'></img>	71,89	2750.0	test	<img class = center src='/static/experiments/beast_fmri_test/images/redT.png'></img>	stop	1600.0	2.0	11.0	stop	target	T	71,Index Finger	89,Middle Finger	1150.0	1350.0	1600.0	1400.0	0.0	1150.0	n/a	1.0	stop_stim
284933.361102	2165.6388980000002	n/a	-1	-1	2750	2165.638898	stim	stop-signal	315	876412	0.0-15.11-1.11	beast_fmri_test	384	874234,/,874914,/,875593,/,876273,/,876954,/,877634,/,878313,/	t,t,t,t,t,t,t	<img class = center src='/static/experiments/beast_fmri_test/images/T.png'></img>	71,89	2750.0	test	<img class = center src='/static/experiments/beast_fmri_test/images/redT.png'></img>	stop	1600.0	2.0	11.0	stop	target	T	71,Index Finger	89,Middle Finger	1150.0	1350.0	1600.0	1400.0	0.0	1150.0	n/a	1.0	ITI
289776	500	n/a	-1	-1	500	0.0	fixation	poldrack-single-stim	316	879089	0.0-15.12-0.12	beast_fmri_test	384	878993,/	t	<div class = centerbox2><div class = fixation>+</div></div>	none	500.0	test	n/a	n/a	n/a	n/a	n/a	n/a	n/a	n/a	n/a	n/a	n/a	n/a	n/a	n/a	n/a	n/a	n/a	n/a	fixation
287845.31174000003	2750	n/a	1423	89	2750	1932.68826	stim	stop-signal	317	881841	0.0-15.12-1.12	beast_fmri_test	384	879673,/,880353,/,881034,/,881713,/,882393,/,883073,/,883754,/	t,t,t,t,t,t,t	<img class = center src='/static/experiments/beast_fmri_test/images/D.png'></img>	71,89	2750.0	test	<img class = center src='/static/experiments/beast_fmri_test/images/redD.png'></img>	go	1400.0	2.0	12.0	go	non-target	D	71,Index Finger	89,Middle Finger	1200.0	1350.0	1600.0	1400.0	1.0	1350.0	1.0	n/a	go_stim
290595.31174000003	1932.6882600000001	n/a	1423	89	2750	1932.68826	stim	stop-signal	317	881841	0.0-15.12-1.12	beast_fmri_test	384	879673,/,880353,/,881034,/,881713,/,882393,/,883073,/,883754,/	t,t,t,t,t,t,t	<img class = center src='/static/experiments/beast_fmri_test/images/D.png'></img>	71,89	2750.0	test	<img class = center src='/static/experiments/beast_fmri_test/images/redD.png'></img>	go	1400.0	2.0	12.0	go	non-target	D	71,Index Finger	89,Middle Finger	1200.0	1350.0	1600.0	1400.0	1.0	1350.0	1.0	n/a	ITI
294970	500	n/a	-1	-1	500	0.0	fixation	poldrack-single-stim	318	884283	0.0-15.13-0.13	beast_fmri_test	384	n/a	n/a	<div class = centerbox2><div class = fixation>+</div></div>	none	500.0	test	n/a	n/a	n/a	n/a	n/a	n/a	n/a	n/a	n/a	n/a	n/a	n/a	n/a	n/a	n/a	n/a	n/a	n/a	fixation
294599.57184039999	1350.0	n/a	1503	89	2750	371.4281596	stim	stop-signal	319	887034	0.0-15.13-1.13	beast_fmri_test	384	884433,/,885113,/,885792,/,886473,/,887153,/	t,t,t,t,t	<img class = center src='/static/experiments/beast_fmri_test/images/V.png'></img>	71,89	2750.0	test	<img class = center src='/static/experiments/beast_fmri_test/images/redV.png'></img>	stop	1400.0	2.0	13.0	stop	non-target	V	71,Index Finger	89,Middle Finger	1200.0	1350.0	1600.0	1400.0	0.0	1350.0	n/a	0.0	go_stim
295999.57184039999	1400.0	n/a	1503	89	2750	371.4281596	stim	stop-signal	319	887034	0.0-15.13-1.13	beast_fmri_test	384	884433,/,885113,/,885792,/,886473,/,887153,/	t,t,t,t,t	<img class = center src='/static/experiments/beast_fmri_test/images/V.png'></img>	71,89	2750.0	test	<img class = center src='/static/experiments/beast_fmri_test/images/redV.png'></img>	stop	1400.0	2.0	13.0	stop	non-target	V	71,Index Finger	89,Middle Finger	1200.0	1350.0	1600.0	1400.0	0.0	1350.0	n/a	0.0	stop_stim
297349.57184039999	371.42815960000001	n/a	1503	89	2750	371.4281596	stim	stop-signal	319	887034	0.0-15.13-1.13	beast_fmri_test	384	884433,/,885113,/,885792,/,886473,/,887153,/	t,t,t,t,t	<img class = center src='/static/experiments/beast_fmri_test/images/V.png'></img>	71,89	2750.0	test	<img class = center src='/static/experiments/beast_fmri_test/images/redV.png'></img>	stop	1400.0	2.0	13.0	stop	non-target	V	71,Index Finger	89,Middle Finger	1200.0	1350.0	1600.0	1400.0	0.0	1350.0	n/a	0.0	ITI
298601	500	n/a	-1	-1	500	0.0	fixation	poldrack-single-stim	320	887914	0.0-15.14-0.14	beast_fmri_test	384	887833,/	t	<div class = centerbox2><div class = fixation>+</div></div>	none	500.0	test	n/a	n/a	n/a	n/a	n/a	n/a	n/a	n/a	n/a	n/a	n/a	n/a	n/a	n/a	n/a	n/a	n/a	n/a	fixation
296127.76755800005	2750	n/a	2167	89	2750	2473.232442	stim	stop-signal	321	890664	0.0-15.14-1.14	beast_fmri_test	384	888513,/,889193,/,889873,/,890552,/,891234,/,891913,/,892593,/	t,t,t,t,t,t,t	<img class = center src='/static/experiments/beast_fmri_test/images/T.png'></img>	71,89	2750.0	test	<img class = center src='/static/experiments/beast_fmri_test/images/redT.png'></img>	go	1450.0	2.0	14.0	go	non-target	T	71,Index Finger	89,Middle Finger	1200.0	1300.0	1600.0	1450.0	1.0	1300.0	1.0	n/a	go_stim
298877.76755800005	2473.232442	n/a	2167	89	2750	2473.232442	stim	stop-signal	321	890664	0.0-15.14-1.14	beast_fmri_test	384	888513,/,889193,/,889873,/,890552,/,891234,/,891913,/,892593,/	t,t,t,t,t,t,t	<img class = center src='/static/experiments/beast_fmri_test/images/T.png'></img>	71,89	2750.0	test	<img class = center src='/static/experiments/beast_fmri_test/images/redT.png'></img>	go	1450.0	2.0	14.0	go	non-target	T	71,Index Finger	89,Middle Finger	1200.0	1300.0	1600.0	1450.0	1.0	1300.0	1.0	n/a	ITI
304335	500	n/a	-1	-1	500	0.0	fixation	poldrack-single-stim	322	893648	0.0-15.15-0.15	beast_fmri_test	384	893273,/	t	<div class = centerbox2><div class = fixation>+</div></div>	none	500.0	test	n/a	n/a	n/a	n/a	n/a	n/a	n/a	n/a	n/a	n/a	n/a	n/a	n/a	n/a	n/a	n/a	n/a	n/a	fixation
302061.73297999997	1300.0	n/a	-1	-1	2750	2275.26702	stim	stop-signal	323	896400	0.0-15.15-1.15	beast_fmri_test	384	893953,/,894633,/,895313,/,895993,/,896672,/,897353,/,898033,/	t,t,t,t,t,t,t	<img class = center src='/static/experiments/beast_fmri_test/images/P.png'></img>	71,89	2750.0	test	<img class = center src='/static/experiments/beast_fmri_test/images/redP.png'></img>	stop	1450.0	2.0	15.0	stop	non-target	P	71,Index Finger	89,Middle Finger	1200.0	1300.0	1600.0	1450.0	0.0	1300.0	n/a	1.0	go_stim
303511.73297999997	1450.0	n/a	-1	-1	2750	2275.26702	stim	stop-signal	323	896400	0.0-15.15-1.15	beast_fmri_test	384	893953,/,894633,/,895313,/,895993,/,896672,/,897353,/,898033,/	t,t,t,t,t,t,t	<img class = center src='/static/experiments/beast_fmri_test/images/P.png'></img>	71,89	2750.0	test	<img class = center src='/static/experiments/beast_fmri_test/images/redP.png'></img>	stop	1450.0	2.0	15.0	stop	non-target	P	71,Index Finger	89,Middle Finger	1200.0	1300.0	1600.0	1450.0	0.0	1300.0	n/a	1.0	stop_stim
304811.73297999997	2275.2670199999998	n/a	-1	-1	2750	2275.26702	stim	stop-signal	323	896400	0.0-15.15-1.15	beast_fmri_test	384	893953,/,894633,/,895313,/,895993,/,896672,/,897353,/,898033,/	t,t,t,t,t,t,t	<img class = center src='/static/experiments/beast_fmri_test/images/P.png'></img>	71,89	2750.0	test	<img class = center src='/static/experiments/beast_fmri_test/images/redP.png'></img>	stop	1450.0	2.0	15.0	stop	non-target	P	71,Index Finger	89,Middle Finger	1200.0	1300.0	1600.0	1450.0	0.0	1300.0	n/a	1.0	ITI
309875	500	n/a	-1	-1	500	0.0	fixation	poldrack-single-stim	324	899188	0.0-15.16-0.16	beast_fmri_test	384	898713,/	t	<div class = centerbox2><div class = fixation>+</div></div>	none	500.0	test	n/a	n/a	n/a	n/a	n/a	n/a	n/a	n/a	n/a	n/a	n/a	n/a	n/a	n/a	n/a	n/a	n/a	n/a	fixation
309815.28993617999	2750	n/a	2057	89	2750	59.71006382	stim	stop-signal	325	901938	0.0-15.16-1.16	beast_fmri_test	384	899393,/,900073,/,900753,/,901433,/	t,t,t,t	<img class = center src='/static/experiments/beast_fmri_test/images/B.png'></img>	71,89	2750.0	test	<img class = center src='/static/experiments/beast_fmri_test/images/redB.png'></img>	go	1400.0	2.0	16.0	go	non-target	B	71,Index Finger	89,Middle Finger	1200.0	1350.0	1600.0	1400.0	1.0	1350.0	1.0	n/a	go_stim
312565.28993617999	59.710063820000002	n/a	2057	89	2750	59.71006382	stim	stop-signal	325	901938	0.0-15.16-1.16	beast_fmri_test	384	899393,/,900073,/,900753,/,901433,/	t,t,t,t	<img class = center src='/static/experiments/beast_fmri_test/images/B.png'></img>	71,89	2750.0	test	<img class = center src='/static/experiments/beast_fmri_test/images/redB.png'></img>	go	1400.0	2.0	16.0	go	non-target	B	71,Index Finger	89,Middle Finger	1200.0	1350.0	1600.0	1400.0	1.0	1350.0	1.0	n/a	ITI
313196	500	n/a	-1	-1	500	0.0	fixation	poldrack-single-stim	326	902509	0.0-15.17-0.17	beast_fmri_test	384	902112,/	t	<div class = centerbox2><div class = fixation>+</div></div>	none	500.0	test	n/a	n/a	n/a	n/a	n/a	n/a	n/a	n/a	n/a	n/a	n/a	n/a	n/a	n/a	n/a	n/a	n/a	n/a	fixation
312642.62147759995	2750	n/a	900	71	2750	555.3785224	stim	stop-signal	327	905261	0.0-15.17-1.17	beast_fmri_test	384	902793,/,903473,/,904152,/,904833,/,905512,/	t,t,t,t,t	<img class = center src='/static/experiments/beast_fmri_test/images/P.png'></img>	71,89	2750.0	test	<img class = center src='/static/experiments/beast_fmri_test/images/redP.png'></img>	go	1550.0	2.0	17.0	go	target	P	71,Index Finger	89,Middle Finger	1200.0	1350.0	1550.0	1400.0	1.0	1200.0	1.0	n/a	go_stim
315392.62147759995	555.37852239999995	n/a	900	71	2750	555.3785224	stim	stop-signal	327	905261	0.0-15.17-1.17	beast_fmri_test	384	902793,/,903473,/,904152,/,904833,/,905512,/	t,t,t,t,t	<img class = center src='/static/experiments/beast_fmri_test/images/P.png'></img>	71,89	2750.0	test	<img class = center src='/static/experiments/beast_fmri_test/images/redP.png'></img>	go	1550.0	2.0	17.0	go	target	P	71,Index Finger	89,Middle Finger	1200.0	1350.0	1550.0	1400.0	1.0	1200.0	1.0	n/a	ITI
317016	500	n/a	-1	-1	500	0.0	fixation	poldrack-single-stim	328	906329	0.0-15.18-0.18	beast_fmri_test	384	906193,/	t	<div class = centerbox2><div class = fixation>+</div></div>	none	500.0	test	n/a	n/a	n/a	n/a	n/a	n/a	n/a	n/a	n/a	n/a	n/a	n/a	n/a	n/a	n/a	n/a	n/a	n/a	fixation
317014.44425276504	1350.0	n/a	-1	-1	2750	3.555747235	stim	stop-signal	329	909081	0.0-15.18-1.18	beast_fmri_test	384	906873,/,907553,/,908234,/,908913,/	t,t,t,t	<img class = center src='/static/experiments/beast_fmri_test/images/T.png'></img>	71,89	2750.0	test	<img class = center src='/static/experiments/beast_fmri_test/images/redT.png'></img>	stop	1400.0	2.0	18.0	stop	non-target	T	71,Index Finger	89,Middle Finger	1200.0	1350.0	1550.0	1400.0	0.0	1350.0	n/a	1.0	go_stim
318414.44425276504	1400.0	n/a	-1	-1	2750	3.555747235	stim	stop-signal	329	909081	0.0-15.18-1.18	beast_fmri_test	384	906873,/,907553,/,908234,/,908913,/	t,t,t,t	<img class = center src='/static/experiments/beast_fmri_test/images/T.png'></img>	71,89	2750.0	test	<img class = center src='/static/experiments/beast_fmri_test/images/redT.png'></img>	stop	1400.0	2.0	18.0	stop	non-target	T	71,Index Finger	89,Middle Finger	1200.0	1350.0	1550.0	1400.0	0.0	1350.0	n/a	1.0	stop_stim
319764.44425276504	3.5557472350000001	n/a	-1	-1	2750	3.555747235	stim	stop-signal	329	909081	0.0-15.18-1.18	beast_fmri_test	384	906873,/,907553,/,908234,/,908913,/	t,t,t,t	<img class = center src='/static/experiments/beast_fmri_test/images/T.png'></img>	71,89	2750.0	test	<img class = center src='/static/experiments/beast_fmri_test/images/redT.png'></img>	stop	1400.0	2.0	18.0	stop	non-target	T	71,Index Finger	89,Middle Finger	1200.0	1350.0	1550.0	1400.0	0.0	1350.0	n/a	1.0	ITI
320282	500	n/a	-1	-1	500	0.0	fixation	poldrack-single-stim	330	909595	0.0-15.19-0.19	beast_fmri_test	384	909593,/	t	<div class = centerbox2><div class = fixation>+</div></div>	none	500.0	test	n/a	n/a	n/a	n/a	n/a	n/a	n/a	n/a	n/a	n/a	n/a	n/a	n/a	n/a	n/a	n/a	n/a	n/a	fixation
319810.11693939997	2750	n/a	1855	89	2750	473.8830606	stim	stop-signal	331	912347	0.0-15.19-1.19	beast_fmri_test	384	910273,/,910953,/,911633,/,912313,/	t,t,t,t	<img class = center src='/static/experiments/beast_fmri_test/images/B.png'></img>	71,89	2750.0	test	<img class = center src='/static/experiments/beast_fmri_test/images/redB.png'></img>	go	1350.0	2.0	19.0	go	non-target	B	71,Index Finger	89,Middle Finger	1200.0	1400.0	1550.0	1350.0	1.0	1400.0	1.0	n/a	go_stim
322560.11693939997	473.88306060000008	n/a	1855	89	2750	473.8830606	stim	stop-signal	331	912347	0.0-15.19-1.19	beast_fmri_test	384	910273,/,910953,/,911633,/,912313,/	t,t,t,t	<img class = center src='/static/experiments/beast_fmri_test/images/B.png'></img>	71,89	2750.0	test	<img class = center src='/static/experiments/beast_fmri_test/images/redB.png'></img>	go	1350.0	2.0	19.0	go	non-target	B	71,Index Finger	89,Middle Finger	1200.0	1400.0	1550.0	1350.0	1.0	1400.0	1.0	n/a	ITI
324020	500	n/a	-1	-1	500	0.0	fixation	poldrack-single-stim	332	913333	0.0-15.20-0.20	beast_fmri_test	384	912993,/	t	<div class = centerbox2><div class = fixation>+</div></div>	none	500.0	test	n/a	n/a	n/a	n/a	n/a	n/a	n/a	n/a	n/a	n/a	n/a	n/a	n/a	n/a	n/a	n/a	n/a	n/a	fixation
323223.24221379997	2750	n/a	2122	89	2750	798.7577862	stim	stop-signal	333	916085	0.0-15.20-1.20	beast_fmri_test	384	913674,/,914354,/,915034,/,915713,/,916394,/	t,t,t,t,t	<img class = center src='/static/experiments/beast_fmri_test/images/B.png'></img>	71,89	2750.0	test	<img class = center src='/static/experiments/beast_fmri_test/images/redB.png'></img>	go	1350.0	2.0	20.0	go	non-target	B	71,Index Finger	89,Middle Finger	1200.0	1400.0	1550.0	1350.0	1.0	1400.0	1.0	n/a	go_stim
325973.24221379997	798.75778620000006	n/a	2122	89	2750	798.7577862	stim	stop-signal	333	916085	0.0-15.20-1.20	beast_fmri_test	384	913674,/,914354,/,915034,/,915713,/,916394,/	t,t,t,t,t	<img class = center src='/static/experiments/beast_fmri_test/images/B.png'></img>	71,89	2750.0	test	<img class = center src='/static/experiments/beast_fmri_test/images/redB.png'></img>	go	1350.0	2.0	20.0	go	non-target	B	71,Index Finger	89,Middle Finger	1200.0	1400.0	1550.0	1350.0	1.0	1400.0	1.0	n/a	ITI
328084	500	n/a	-1	-1	500	0.0	fixation	poldrack-single-stim	334	917397	0.0-15.21-0.21	beast_fmri_test	384	917073,/	t	<div class = centerbox2><div class = fixation>+</div></div>	none	500.0	test	n/a	n/a	n/a	n/a	n/a	n/a	n/a	n/a	n/a	n/a	n/a	n/a	n/a	n/a	n/a	n/a	n/a	n/a	fixation
324503.51875399996	1400.0	n/a	-1	-1	2750	3582.481246	stim	stop-signal	335	920149	0.0-15.21-1.21	beast_fmri_test	384	917754,/,918433,/,919113,/,919793,/,920473,/,921153,/,921833,/,922513,/,923193,/	t,t,t,t,t,t,t,t,t	<img class = center src='/static/experiments/beast_fmri_test/images/T.png'></img>	71,89	2750.0	test	<img class = center src='/static/experiments/beast_fmri_test/images/redT.png'></img>	stop	1350.0	2.0	21.0	stop	non-target	T	71,Index Finger	89,Middle Finger	1200.0	1400.0	1550.0	1350.0	0.0	1400.0	n/a	1.0	go_stim
325853.51875399996	1350.0	n/a	-1	-1	2750	3582.481246	stim	stop-signal	335	920149	0.0-15.21-1.21	beast_fmri_test	384	917754,/,918433,/,919113,/,919793,/,920473,/,921153,/,921833,/,922513,/,923193,/	t,t,t,t,t,t,t,t,t	<img class = center src='/static/experiments/beast_fmri_test/images/T.png'></img>	71,89	2750.0	test	<img class = center src='/static/experiments/beast_fmri_test/images/redT.png'></img>	stop	1350.0	2.0	21.0	stop	non-target	T	71,Index Finger	89,Middle Finger	1200.0	1400.0	1550.0	1350.0	0.0	1400.0	n/a	1.0	stop_stim
327253.51875399996	3582.4812460000003	n/a	-1	-1	2750	3582.481246	stim	stop-signal	335	920149	0.0-15.21-1.21	beast_fmri_test	384	917754,/,918433,/,919113,/,919793,/,920473,/,921153,/,921833,/,922513,/,923193,/	t,t,t,t,t,t,t,t,t	<img class = center src='/static/experiments/beast_fmri_test/images/T.png'></img>	71,89	2750.0	test	<img class = center src='/static/experiments/beast_fmri_test/images/redT.png'></img>	stop	1350.0	2.0	21.0	stop	non-target	T	71,Index Finger	89,Middle Finger	1200.0	1400.0	1550.0	1350.0	0.0	1400.0	n/a	1.0	ITI
334932	500	n/a	-1	-1	500	0.0	fixation	poldrack-single-stim	336	924245	0.0-15.22-0.22	beast_fmri_test	384	923873,/	t	<div class = centerbox2><div class = fixation>+</div></div>	none	500.0	test	n/a	n/a	n/a	n/a	n/a	n/a	n/a	n/a	n/a	n/a	n/a	n/a	n/a	n/a	n/a	n/a	n/a	n/a	fixation
332823.33540099999	2750	n/a	1820	89	2750	2110.664599	stim	stop-signal	337	926997	0.0-15.22-1.22	beast_fmri_test	384	924553,/,925233,/,925914,/,926593,/,927273,/,927953,/,928633,/	t,t,t,t,t,t,t	<img class = center src='/static/experiments/beast_fmri_test/images/V.png'></img>	71,89	2750.0	test	<img class = center src='/static/experiments/beast_fmri_test/images/redV.png'></img>	go	1300.0	2.0	22.0	go	non-target	V	71,Index Finger	89,Middle Finger	1200.0	1450.0	1550.0	1300.0	1.0	1450.0	1.0	n/a	go_stim
