onset	duration	text	rt	key_press	block_duration	timing_post_trial	trial_id	trial_type	trial_index	time_elapsed	internal_node_id	exp_id	subject_id	trigger_times	triggers	stimulus	possible_responses	stim_duration	exp_stage	SS_stimulus	SS_trial_type	SS_duration	load	trial_num	stop_trial_type	adaptive_trial_type	stim	yes_response_key	no_response_key	SSD_target	SSD_non_target	SSTarget	SSNonTarget	go_acc	SS_delay	adaptive_acc	stop_acc	new_trial_type
test	10880	n/a	-1	-1	10880	0.0	practice-no-stop-feedback	poldrack-single-stim	582	1583562	0.0-24.0	beast_fmri_test	384	1572682,/,1573361,/,1574041,/,1574721,/,1575401,/,1576081,/,1576761,/,1577442,/,1578121,/,1578801,/,1579481,/,1580161,/,1580841,/,1581522,/,1582201,/,1582881,/,1583561,/	t,t,t,t,t,t,t,t,t,t,t,t,t,t,t,t,t	"<div class = ""centerbox2_2""><p class = ""block-text2"">Your delay is 1 trials.</p><p class = block-text2>Please wait for the scanner to start the block</p></div>"	77	10880.0	n/a	n/a	n/a	n/a	n/a	n/a	n/a	n/a	n/a	n/a	n/a	n/a	n/a	n/a	n/a	n/a	n/a	n/a	n/a	start_functional_block
11382	500	n/a	-1	-1	500	0.0	fixation	poldrack-single-stim	583	1584064	0.0-25.0-0.0	beast_fmri_test	384	n/a	n/a	<div class = centerbox2><div class = fixation>+</div></div>	none	500.0	test	n/a	n/a	n/a	n/a	n/a	n/a	n/a	n/a	n/a	n/a	n/a	n/a	n/a	n/a	n/a	n/a	n/a	n/a	fixation
10384.061861099908	temp_go_duration	n/a	1037	89	2750	999.9381389	stim	stop-signal	584	1586816	0.0-25.0-1.0	beast_fmri_test	384	1584241,/,1584921,/,1585601,/,1586281,/,1586961,/,1587640,/	t,t,t,t,t,t	<img class = center src='/static/experiments/beast_fmri_test/images/P.png'></img>	71,89	2750.0	test	<img class = center src='/static/experiments/beast_fmri_test/images/redP.png'></img>	stop	-1.0	1.0	0.0	stop	temp-non-target	P	71,Index Finger	89,Middle Finger	1400.0	1500.0	1300.0	1300.0	0.0	n/a	n/a	0.0	go_stim
temp-non-target	temp_stop_duration	n/a	1037	89	2750	999.9381389	stim	stop-signal	584	1586816	0.0-25.0-1.0	beast_fmri_test	384	1584241,/,1584921,/,1585601,/,1586281,/,1586961,/,1587640,/	t,t,t,t,t,t	<img class = center src='/static/experiments/beast_fmri_test/images/P.png'></img>	71,89	2750.0	test	<img class = center src='/static/experiments/beast_fmri_test/images/redP.png'></img>	stop	-1.0	1.0	0.0	stop	temp-non-target	P	71,Index Finger	89,Middle Finger	1400.0	1500.0	1300.0	1300.0	0.0	n/a	n/a	0.0	stop_stim
13134.061861099908	999.93813890000001	n/a	1037	89	2750	999.9381389	stim	stop-signal	584	1586816	0.0-25.0-1.0	beast_fmri_test	384	1584241,/,1584921,/,1585601,/,1586281,/,1586961,/,1587640,/	t,t,t,t,t,t	<img class = center src='/static/experiments/beast_fmri_test/images/P.png'></img>	71,89	2750.0	test	<img class = center src='/static/experiments/beast_fmri_test/images/redP.png'></img>	stop	-1.0	1.0	0.0	stop	temp-non-target	P	71,Index Finger	89,Middle Finger	1400.0	1500.0	1300.0	1300.0	0.0	n/a	n/a	0.0	ITI
15652	500	n/a	-1	-1	500	0.0	fixation	poldrack-single-stim	585	1588334	0.0-25.1-0.1	beast_fmri_test	384	1588321,/	t	<div class = centerbox2><div class = fixation>+</div></div>	none	500.0	test	n/a	n/a	n/a	n/a	n/a	n/a	n/a	n/a	n/a	n/a	n/a	n/a	n/a	n/a	n/a	n/a	n/a	n/a	fixation
15552.848969100043	2750	n/a	1494	71	2750	102.1510309	stim	stop-signal	586	1591087	0.0-25.1-1.1	beast_fmri_test	384	1589001,/,1589681,/,1590361,/,1591041,/	t,t,t,t	<img class = center src='/static/experiments/beast_fmri_test/images/P.png'></img>	71,89	2750.0	test	<img class = center src='/static/experiments/beast_fmri_test/images/redP.png'></img>	go	1350.0	1.0	1.0	go	target	P	71,Index Finger	89,Middle Finger	1400.0	1500.0	1350.0	1300.0	1.0	1400.0	1.0	n/a	go_stim
18302.848969100043	102.15103089999999	n/a	1494	71	2750	102.1510309	stim	stop-signal	586	1591087	0.0-25.1-1.1	beast_fmri_test	384	1589001,/,1589681,/,1590361,/,1591041,/	t,t,t,t	<img class = center src='/static/experiments/beast_fmri_test/images/P.png'></img>	71,89	2750.0	test	<img class = center src='/static/experiments/beast_fmri_test/images/redP.png'></img>	go	1350.0	1.0	1.0	go	target	P	71,Index Finger	89,Middle Finger	1400.0	1500.0	1350.0	1300.0	1.0	1400.0	1.0	n/a	ITI
19026	500	n/a	-1	-1	500	0.0	fixation	poldrack-single-stim	587	1591708	0.0-25.2-0.2	beast_fmri_test	384	n/a	n/a	<div class = centerbox2><div class = fixation>+</div></div>	none	500.0	test	n/a	n/a	n/a	n/a	n/a	n/a	n/a	n/a	n/a	n/a	n/a	n/a	n/a	n/a	n/a	n/a	n/a	n/a	fixation
17798.174561999971	1500.0	n/a	1662	89	2750	1229.825438	stim	stop-signal	588	1594460	0.0-25.2-1.2	beast_fmri_test	384	1591721,/,1592401,/,1593080,/,1593761,/,1594441,/,1595121,/	t,t,t,t,t,t	<img class = center src='/static/experiments/beast_fmri_test/images/V.png'></img>	71,89	2750.0	test	<img class = center src='/static/experiments/beast_fmri_test/images/redV.png'></img>	stop	1250.0	1.0	2.0	stop	non-target	V	71,Index Finger	89,Middle Finger	1400.0	1500.0	1350.0	1250.0	0.0	1500.0	n/a	0.0	go_stim
19048.174561999971	1250.0	n/a	1662	89	2750	1229.825438	stim	stop-signal	588	1594460	0.0-25.2-1.2	beast_fmri_test	384	1591721,/,1592401,/,1593080,/,1593761,/,1594441,/,1595121,/	t,t,t,t,t,t	<img class = center src='/static/experiments/beast_fmri_test/images/V.png'></img>	71,89	2750.0	test	<img class = center src='/static/experiments/beast_fmri_test/images/redV.png'></img>	stop	1250.0	1.0	2.0	stop	non-target	V	71,Index Finger	89,Middle Finger	1400.0	1500.0	1350.0	1250.0	0.0	1500.0	n/a	0.0	stop_stim
20548.174561999971	1229.8254380000001	n/a	1662	89	2750	1229.825438	stim	stop-signal	588	1594460	0.0-25.2-1.2	beast_fmri_test	384	1591721,/,1592401,/,1593080,/,1593761,/,1594441,/,1595121,/	t,t,t,t,t,t	<img class = center src='/static/experiments/beast_fmri_test/images/V.png'></img>	71,89	2750.0	test	<img class = center src='/static/experiments/beast_fmri_test/images/redV.png'></img>	stop	1250.0	1.0	2.0	stop	non-target	V	71,Index Finger	89,Middle Finger	1400.0	1500.0	1350.0	1250.0	0.0	1500.0	n/a	0.0	ITI
23527	500	n/a	-1	-1	500	0.0	fixation	poldrack-single-stim	589	1596209	0.0-25.3-0.3	beast_fmri_test	384	1595801,/	t	<div class = centerbox2><div class = fixation>+</div></div>	none	500.0	test	n/a	n/a	n/a	n/a	n/a	n/a	n/a	n/a	n/a	n/a	n/a	n/a	n/a	n/a	n/a	n/a	n/a	n/a	fixation
23003.392027700087	2750	n/a	1765	71	2750	526.6079723	stim	stop-signal	590	1598962	0.0-25.3-1.3	beast_fmri_test	384	1596481,/,1597161,/,1597841,/,1598520,/,1599200,/	t,t,t,t,t	<img class = center src='/static/experiments/beast_fmri_test/images/V.png'></img>	71,89	2750.0	test	<img class = center src='/static/experiments/beast_fmri_test/images/redV.png'></img>	go	1350.0	1.0	3.0	go	target	V	71,Index Finger	89,Middle Finger	1400.0	1450.0	1350.0	1250.0	1.0	1400.0	1.0	n/a	go_stim
25753.392027700087	526.60797230000003	n/a	1765	71	2750	526.6079723	stim	stop-signal	590	1598962	0.0-25.3-1.3	beast_fmri_test	384	1596481,/,1597161,/,1597841,/,1598520,/,1599200,/	t,t,t,t,t	<img class = center src='/static/experiments/beast_fmri_test/images/V.png'></img>	71,89	2750.0	test	<img class = center src='/static/experiments/beast_fmri_test/images/redV.png'></img>	go	1350.0	1.0	3.0	go	target	V	71,Index Finger	89,Middle Finger	1400.0	1450.0	1350.0	1250.0	1.0	1400.0	1.0	n/a	ITI
27324	500	n/a	-1	-1	500	0.0	fixation	poldrack-single-stim	591	1600006	0.0-25.4-0.4	beast_fmri_test	384	1599880,/	t	<div class = centerbox2><div class = fixation>+</div></div>	none	500.0	test	n/a	n/a	n/a	n/a	n/a	n/a	n/a	n/a	n/a	n/a	n/a	n/a	n/a	n/a	n/a	n/a	n/a	n/a	fixation
26838.352839800064	2750	n/a	2216	89	2750	487.6471602	stim	stop-signal	592	1602758	0.0-25.4-1.4	beast_fmri_test	384	1600561,/,1601241,/,1601921,/,1602600,/	t,t,t,t	<img class = center src='/static/experiments/beast_fmri_test/images/P.png'></img>	71,89	2750.0	test	<img class = center src='/static/experiments/beast_fmri_test/images/redP.png'></img>	go	1300.0	1.0	4.0	go	non-target	P	71,Index Finger	89,Middle Finger	1400.0	1450.0	1350.0	1300.0	1.0	1450.0	1.0	n/a	go_stim
29588.352839800064	487.64716019999997	n/a	2216	89	2750	487.6471602	stim	stop-signal	592	1602758	0.0-25.4-1.4	beast_fmri_test	384	1600561,/,1601241,/,1601921,/,1602600,/	t,t,t,t	<img class = center src='/static/experiments/beast_fmri_test/images/P.png'></img>	71,89	2750.0	test	<img class = center src='/static/experiments/beast_fmri_test/images/redP.png'></img>	go	1300.0	1.0	4.0	go	non-target	P	71,Index Finger	89,Middle Finger	1400.0	1450.0	1350.0	1300.0	1.0	1450.0	1.0	n/a	ITI
31082	500	n/a	-1	-1	500	0.0	fixation	poldrack-single-stim	593	1603764	0.0-25.5-0.5	beast_fmri_test	384	1603281,/	t	<div class = centerbox2><div class = fixation>+</div></div>	none	500.0	test	n/a	n/a	n/a	n/a	n/a	n/a	n/a	n/a	n/a	n/a	n/a	n/a	n/a	n/a	n/a	n/a	n/a	n/a	fixation
29714.093331000069	2750	n/a	1672	71	2750	1369.906669	stim	stop-signal	594	1606516	0.0-25.5-1.5	beast_fmri_test	384	1603961,/,1604642,/,1605321,/,1606001,/,1606681,/,1607361,/	t,t,t,t,t,t	<img class = center src='/static/experiments/beast_fmri_test/images/P.png'></img>	71,89	2750.0	test	<img class = center src='/static/experiments/beast_fmri_test/images/redP.png'></img>	go	1350.0	1.0	5.0	go	target	P	71,Index Finger	89,Middle Finger	1400.0	1450.0	1350.0	1300.0	1.0	1400.0	1.0	n/a	go_stim
32464.093331000069	1369.906669	n/a	1672	71	2750	1369.906669	stim	stop-signal	594	1606516	0.0-25.5-1.5	beast_fmri_test	384	1603961,/,1604642,/,1605321,/,1606001,/,1606681,/,1607361,/	t,t,t,t,t,t	<img class = center src='/static/experiments/beast_fmri_test/images/P.png'></img>	71,89	2750.0	test	<img class = center src='/static/experiments/beast_fmri_test/images/redP.png'></img>	go	1350.0	1.0	5.0	go	target	P	71,Index Finger	89,Middle Finger	1400.0	1450.0	1350.0	1300.0	1.0	1400.0	1.0	n/a	ITI
35722	500	n/a	-1	-1	500	0.0	fixation	poldrack-single-stim	595	1608404	0.0-25.6-0.6	beast_fmri_test	384	1608044,/	t	<div class = centerbox2><div class = fixation>+</div></div>	none	500.0	test	n/a	n/a	n/a	n/a	n/a	n/a	n/a	n/a	n/a	n/a	n/a	n/a	n/a	n/a	n/a	n/a	n/a	n/a	fixation
34591.680147999898	2750	n/a	1889	89	2750	1132.319852	stim	stop-signal	596	1611156	0.0-25.6-1.6	beast_fmri_test	384	1608721,/,1609401,/,1610081,/,1610761,/,1611441,/,1612122,/	t,t,t,t,t,t	<img class = center src='/static/experiments/beast_fmri_test/images/V.png'></img>	71,89	2750.0	test	<img class = center src='/static/experiments/beast_fmri_test/images/redV.png'></img>	go	1300.0	1.0	6.0	go	non-target	V	71,Index Finger	89,Middle Finger	1400.0	1450.0	1350.0	1300.0	1.0	1450.0	1.0	n/a	go_stim
37341.680147999898	1132.3198519999999	n/a	1889	89	2750	1132.319852	stim	stop-signal	596	1611156	0.0-25.6-1.6	beast_fmri_test	384	1608721,/,1609401,/,1610081,/,1610761,/,1611441,/,1612122,/	t,t,t,t,t,t	<img class = center src='/static/experiments/beast_fmri_test/images/V.png'></img>	71,89	2750.0	test	<img class = center src='/static/experiments/beast_fmri_test/images/redV.png'></img>	go	1300.0	1.0	6.0	go	non-target	V	71,Index Finger	89,Middle Finger	1400.0	1450.0	1350.0	1300.0	1.0	1450.0	1.0	n/a	ITI
40124	500	n/a	-1	-1	500	0.0	fixation	poldrack-single-stim	597	1612806	0.0-25.7-0.7	beast_fmri_test	384	1612801,/	t	<div class = centerbox2><div class = fixation>+</div></div>	none	500.0	test	n/a	n/a	n/a	n/a	n/a	n/a	n/a	n/a	n/a	n/a	n/a	n/a	n/a	n/a	n/a	n/a	n/a	n/a	fixation
35586.714374999981	2750	n/a	1790	89	2750	4539.285625	stim	stop-signal	598	1615558	0.0-25.7-1.7	beast_fmri_test	384	1613481,/,1614161,/,1614841,/,1615521,/,1616201,/,1616881,/,1617561,/,1618240,/,1618921,/,1619601,/	t,t,t,t,t,t,t,t,t,t	<img class = center src='/static/experiments/beast_fmri_test/images/V.png'></img>	71,89	2750.0	test	<img class = center src='/static/experiments/beast_fmri_test/images/redV.png'></img>	go	1350.0	1.0	7.0	go	target	V	71,Index Finger	89,Middle Finger	1400.0	1450.0	1350.0	1300.0	0.0	1400.0	0.0	n/a	go_stim
38336.714374999981	4539.2856250000004	n/a	1790	89	2750	4539.285625	stim	stop-signal	598	1615558	0.0-25.7-1.7	beast_fmri_test	384	1613481,/,1614161,/,1614841,/,1615521,/,1616201,/,1616881,/,1617561,/,1618240,/,1618921,/,1619601,/	t,t,t,t,t,t,t,t,t,t	<img class = center src='/static/experiments/beast_fmri_test/images/V.png'></img>	71,89	2750.0	test	<img class = center src='/static/experiments/beast_fmri_test/images/redV.png'></img>	go	1350.0	1.0	7.0	go	target	V	71,Index Finger	89,Middle Finger	1400.0	1450.0	1350.0	1300.0	0.0	1400.0	0.0	n/a	ITI
47935	500	n/a	-1	-1	500	0.0	fixation	poldrack-single-stim	599	1620617	0.0-25.8-0.8	beast_fmri_test	384	1620281,/	t	<div class = centerbox2><div class = fixation>+</div></div>	none	500.0	test	n/a	n/a	n/a	n/a	n/a	n/a	n/a	n/a	n/a	n/a	n/a	n/a	n/a	n/a	n/a	n/a	n/a	n/a	fixation
47201.346745900111	2750	n/a	1118	89	2750	735.6532541	stim	stop-signal	600	1623369	0.0-25.8-1.8	beast_fmri_test	384	1620961,/,1621641,/,1622322,/,1623001,/,1623681,/	t,t,t,t,t	<img class = center src='/static/experiments/beast_fmri_test/images/T.png'></img>	71,89	2750.0	test	<img class = center src='/static/experiments/beast_fmri_test/images/redT.png'></img>	go	1300.0	1.0	8.0	go	non-target	T	71,Index Finger	89,Middle Finger	1400.0	1450.0	1350.0	1300.0	1.0	1450.0	1.0	n/a	go_stim
49951.346745900111	735.65325410000003	n/a	1118	89	2750	735.6532541	stim	stop-signal	600	1623369	0.0-25.8-1.8	beast_fmri_test	384	1620961,/,1621641,/,1622322,/,1623001,/,1623681,/	t,t,t,t,t	<img class = center src='/static/experiments/beast_fmri_test/images/T.png'></img>	71,89	2750.0	test	<img class = center src='/static/experiments/beast_fmri_test/images/redT.png'></img>	go	1300.0	1.0	8.0	go	non-target	T	71,Index Finger	89,Middle Finger	1400.0	1450.0	1350.0	1300.0	1.0	1450.0	1.0	n/a	ITI
51943	500	n/a	-1	-1	500	0.0	fixation	poldrack-single-stim	601	1624625	0.0-25.9-0.9	beast_fmri_test	384	1624361,/	t	<div class = centerbox2><div class = fixation>+</div></div>	none	500.0	test	n/a	n/a	n/a	n/a	n/a	n/a	n/a	n/a	n/a	n/a	n/a	n/a	n/a	n/a	n/a	n/a	n/a	n/a	fixation
50954.280451599974	2750	n/a	1683	89	2750	990.7195484	stim	stop-signal	602	1627377	0.0-25.9-1.9	beast_fmri_test	384	1625041,/,1625721,/,1626401,/,1627081,/,1627761,/	t,t,t,t,t	<img class = center src='/static/experiments/beast_fmri_test/images/V.png'></img>	71,89	2750.0	test	<img class = center src='/static/experiments/beast_fmri_test/images/redV.png'></img>	go	1300.0	1.0	9.0	go	non-target	V	71,Index Finger	89,Middle Finger	1400.0	1450.0	1350.0	1300.0	1.0	1450.0	1.0	n/a	go_stim
53704.280451599974	990.71954839999989	n/a	1683	89	2750	990.7195484	stim	stop-signal	602	1627377	0.0-25.9-1.9	beast_fmri_test	384	1625041,/,1625721,/,1626401,/,1627081,/,1627761,/	t,t,t,t,t	<img class = center src='/static/experiments/beast_fmri_test/images/V.png'></img>	71,89	2750.0	test	<img class = center src='/static/experiments/beast_fmri_test/images/redV.png'></img>	go	1300.0	1.0	9.0	go	non-target	V	71,Index Finger	89,Middle Finger	1400.0	1450.0	1350.0	1300.0	1.0	1450.0	1.0	n/a	ITI
56204	500	n/a	-1	-1	500	0.0	fixation	poldrack-single-stim	603	1628886	0.0-25.10-0.10	beast_fmri_test	384	1628441,/	t	<div class = centerbox2><div class = fixation>+</div></div>	none	500.0	test	n/a	n/a	n/a	n/a	n/a	n/a	n/a	n/a	n/a	n/a	n/a	n/a	n/a	n/a	n/a	n/a	n/a	n/a	fixation
54953.668136999942	2750	n/a	2025	89	2750	1252.331863	stim	stop-signal	604	1631638	0.0-25.10-1.10	beast_fmri_test	384	1629121,/,1629801,/,1630481,/,1631160,/,1631841,/,1632521,/	t,t,t,t,t,t	<img class = center src='/static/experiments/beast_fmri_test/images/P.png'></img>	71,89	2750.0	test	<img class = center src='/static/experiments/beast_fmri_test/images/redP.png'></img>	go	1300.0	1.0	10.0	go	non-target	P	71,Index Finger	89,Middle Finger	1400.0	1450.0	1350.0	1300.0	1.0	1450.0	1.0	n/a	go_stim
57703.668136999942	1252.3318630000001	n/a	2025	89	2750	1252.331863	stim	stop-signal	604	1631638	0.0-25.10-1.10	beast_fmri_test	384	1629121,/,1629801,/,1630481,/,1631160,/,1631841,/,1632521,/	t,t,t,t,t,t	<img class = center src='/static/experiments/beast_fmri_test/images/P.png'></img>	71,89	2750.0	test	<img class = center src='/static/experiments/beast_fmri_test/images/redP.png'></img>	go	1300.0	1.0	10.0	go	non-target	P	71,Index Finger	89,Middle Finger	1400.0	1450.0	1350.0	1300.0	1.0	1450.0	1.0	n/a	ITI
60727	500	n/a	-1	-1	500	0.0	fixation	poldrack-single-stim	605	1633409	0.0-25.11-0.11	beast_fmri_test	384	1633201,/	t	<div class = centerbox2><div class = fixation>+</div></div>	none	500.0	test	n/a	n/a	n/a	n/a	n/a	n/a	n/a	n/a	n/a	n/a	n/a	n/a	n/a	n/a	n/a	n/a	n/a	n/a	fixation
60665.81326840003	2750	n/a	1184	89	2750	63.1867316	stim	stop-signal	606	1636161	0.0-25.11-1.11	beast_fmri_test	384	1633881,/,1634561,/,1635240,/,1635921,/	t,t,t,t	<img class = center src='/static/experiments/beast_fmri_test/images/D.png'></img>	71,89	2750.0	test	<img class = center src='/static/experiments/beast_fmri_test/images/redD.png'></img>	go	1300.0	1.0	11.0	go	non-target	D	71,Index Finger	89,Middle Finger	1400.0	1450.0	1350.0	1300.0	1.0	1450.0	1.0	n/a	go_stim
63415.81326840003	63.186731600000002	n/a	1184	89	2750	63.1867316	stim	stop-signal	606	1636161	0.0-25.11-1.11	beast_fmri_test	384	1633881,/,1634561,/,1635240,/,1635921,/	t,t,t,t	<img class = center src='/static/experiments/beast_fmri_test/images/D.png'></img>	71,89	2750.0	test	<img class = center src='/static/experiments/beast_fmri_test/images/redD.png'></img>	go	1300.0	1.0	11.0	go	non-target	D	71,Index Finger	89,Middle Finger	1400.0	1450.0	1350.0	1300.0	1.0	1450.0	1.0	n/a	ITI
64058	500	n/a	-1	-1	500	0.0	fixation	poldrack-single-stim	607	1636740	0.0-25.12-0.12	beast_fmri_test	384	1636601,/	t	<div class = centerbox2><div class = fixation>+</div></div>	none	500.0	test	n/a	n/a	n/a	n/a	n/a	n/a	n/a	n/a	n/a	n/a	n/a	n/a	n/a	n/a	n/a	n/a	n/a	n/a	fixation
63325.581962400116	2750	n/a	1545	89	2750	734.4180376	stim	stop-signal	608	1639492	0.0-25.12-1.12	beast_fmri_test	384	1637281,/,1637962,/,1638641,/,1639321,/,1640001,/	t,t,t,t,t	<img class = center src='/static/experiments/beast_fmri_test/images/T.png'></img>	71,89	2750.0	test	<img class = center src='/static/experiments/beast_fmri_test/images/redT.png'></img>	go	1300.0	1.0	12.0	go	non-target	T	71,Index Finger	89,Middle Finger	1400.0	1450.0	1350.0	1300.0	1.0	1450.0	1.0	n/a	go_stim
66075.581962400116	734.41803760000005	n/a	1545	89	2750	734.4180376	stim	stop-signal	608	1639492	0.0-25.12-1.12	beast_fmri_test	384	1637281,/,1637962,/,1638641,/,1639321,/,1640001,/	t,t,t,t,t	<img class = center src='/static/experiments/beast_fmri_test/images/T.png'></img>	71,89	2750.0	test	<img class = center src='/static/experiments/beast_fmri_test/images/redT.png'></img>	go	1300.0	1.0	12.0	go	non-target	T	71,Index Finger	89,Middle Finger	1400.0	1450.0	1350.0	1300.0	1.0	1450.0	1.0	n/a	ITI
68064	500	n/a	-1	-1	500	0.0	fixation	poldrack-single-stim	609	1640746	0.0-25.13-0.13	beast_fmri_test	384	1640681,/	t	<div class = centerbox2><div class = fixation>+</div></div>	none	500.0	test	n/a	n/a	n/a	n/a	n/a	n/a	n/a	n/a	n/a	n/a	n/a	n/a	n/a	n/a	n/a	n/a	n/a	n/a	fixation
66473.909715000074	1400.0	n/a	1336	71	2750	1592.090285	stim	stop-signal	610	1643498	0.0-25.13-1.13	beast_fmri_test	384	1641361,/,1642041,/,1642722,/,1643401,/,1644081,/,1644761,/	t,t,t,t,t,t	<img class = center src='/static/experiments/beast_fmri_test/images/T.png'></img>	71,89	2750.0	test	<img class = center src='/static/experiments/beast_fmri_test/images/redT.png'></img>	stop	1350.0	1.0	13.0	stop	target	T	71,Index Finger	89,Middle Finger	1400.0	1450.0	1350.0	1300.0	0.0	1400.0	n/a	0.0	go_stim
67823.909715000074	1350.0	n/a	1336	71	2750	1592.090285	stim	stop-signal	610	1643498	0.0-25.13-1.13	beast_fmri_test	384	1641361,/,1642041,/,1642722,/,1643401,/,1644081,/,1644761,/	t,t,t,t,t,t	<img class = center src='/static/experiments/beast_fmri_test/images/T.png'></img>	71,89	2750.0	test	<img class = center src='/static/experiments/beast_fmri_test/images/redT.png'></img>	stop	1350.0	1.0	13.0	stop	target	T	71,Index Finger	89,Middle Finger	1400.0	1450.0	1350.0	1300.0	0.0	1400.0	n/a	0.0	stop_stim
69223.909715000074	1592.090285	n/a	1336	71	2750	1592.090285	stim	stop-signal	610	1643498	0.0-25.13-1.13	beast_fmri_test	384	1641361,/,1642041,/,1642722,/,1643401,/,1644081,/,1644761,/	t,t,t,t,t,t	<img class = center src='/static/experiments/beast_fmri_test/images/T.png'></img>	71,89	2750.0	test	<img class = center src='/static/experiments/beast_fmri_test/images/redT.png'></img>	stop	1350.0	1.0	13.0	stop	target	T	71,Index Finger	89,Middle Finger	1400.0	1450.0	1350.0	1300.0	0.0	1400.0	n/a	0.0	ITI
72926	500	n/a	-1	-1	500	0.0	fixation	poldrack-single-stim	611	1645608	0.0-25.14-0.14	beast_fmri_test	384	1645441,/	t	<div class = centerbox2><div class = fixation>+</div></div>	none	500.0	test	n/a	n/a	n/a	n/a	n/a	n/a	n/a	n/a	n/a	n/a	n/a	n/a	n/a	n/a	n/a	n/a	n/a	n/a	fixation
72468.586233800044	2750	n/a	1858	89	2750	459.4137662	stim	stop-signal	612	1648360	0.0-25.14-1.14	beast_fmri_test	384	1646121,/,1646801,/,1647481,/,1648161,/	t,t,t,t	<img class = center src='/static/experiments/beast_fmri_test/images/V.png'></img>	71,89	2750.0	test	<img class = center src='/static/experiments/beast_fmri_test/images/redV.png'></img>	go	1300.0	1.0	14.0	go	non-target	V	71,Index Finger	89,Middle Finger	1350.0	1450.0	1350.0	1300.0	1.0	1450.0	1.0	n/a	go_stim
75218.586233800044	459.41376619999994	n/a	1858	89	2750	459.4137662	stim	stop-signal	612	1648360	0.0-25.14-1.14	beast_fmri_test	384	1646121,/,1646801,/,1647481,/,1648161,/	t,t,t,t	<img class = center src='/static/experiments/beast_fmri_test/images/V.png'></img>	71,89	2750.0	test	<img class = center src='/static/experiments/beast_fmri_test/images/redV.png'></img>	go	1300.0	1.0	14.0	go	non-target	V	71,Index Finger	89,Middle Finger	1350.0	1450.0	1350.0	1300.0	1.0	1450.0	1.0	n/a	ITI
76656	500	n/a	-1	-1	500	0.0	fixation	poldrack-single-stim	613	1649338	0.0-25.15-0.15	beast_fmri_test	384	1648846,/	t	<div class = centerbox2><div class = fixation>+</div></div>	none	500.0	test	n/a	n/a	n/a	n/a	n/a	n/a	n/a	n/a	n/a	n/a	n/a	n/a	n/a	n/a	n/a	n/a	n/a	n/a	fixation
76451.224090500036	2750	n/a	2097	71	2750	207.7759095	stim	stop-signal	614	1652091	0.0-25.15-1.15	beast_fmri_test	384	1649521,/,1650201,/,1650881,/,1651561,/,1652241,/	t,t,t,t,t	<img class = center src='/static/experiments/beast_fmri_test/images/V.png'></img>	71,89	2750.0	test	<img class = center src='/static/experiments/beast_fmri_test/images/redV.png'></img>	go	1400.0	1.0	15.0	go	target	V	71,Index Finger	89,Middle Finger	1350.0	1450.0	1400.0	1300.0	1.0	1350.0	1.0	n/a	go_stim
79201.224090500036	207.77590949999998	n/a	2097	71	2750	207.7759095	stim	stop-signal	614	1652091	0.0-25.15-1.15	beast_fmri_test	384	1649521,/,1650201,/,1650881,/,1651561,/,1652241,/	t,t,t,t,t	<img class = center src='/static/experiments/beast_fmri_test/images/V.png'></img>	71,89	2750.0	test	<img class = center src='/static/experiments/beast_fmri_test/images/redV.png'></img>	go	1400.0	1.0	15.0	go	target	V	71,Index Finger	89,Middle Finger	1350.0	1450.0	1400.0	1300.0	1.0	1350.0	1.0	n/a	ITI
80135	500	n/a	-1	-1	500	0.0	fixation	poldrack-single-stim	615	1652817	0.0-25.16-0.16	beast_fmri_test	384	n/a	n/a	<div class = centerbox2><div class = fixation>+</div></div>	none	500.0	test	n/a	n/a	n/a	n/a	n/a	n/a	n/a	n/a	n/a	n/a	n/a	n/a	n/a	n/a	n/a	n/a	n/a	n/a	fixation
78235.252602000022	2750	n/a	2620	71	2750	1901.747398	stim	stop-signal	616	1655569	0.0-25.16-1.16	beast_fmri_test	384	1652922,/,1653601,/,1654281,/,1654961,/,1655641,/,1656321,/,1657001,/	t,t,t,t,t,t,t	<img class = center src='/static/experiments/beast_fmri_test/images/V.png'></img>	71,89	2750.0	test	<img class = center src='/static/experiments/beast_fmri_test/images/redV.png'></img>	go	1400.0	1.0	16.0	go	target	V	71,Index Finger	89,Middle Finger	1350.0	1450.0	1400.0	1300.0	1.0	1350.0	1.0	n/a	go_stim
80985.252602000022	1901.747398	n/a	2620	71	2750	1901.747398	stim	stop-signal	616	1655569	0.0-25.16-1.16	beast_fmri_test	384	1652922,/,1653601,/,1654281,/,1654961,/,1655641,/,1656321,/,1657001,/	t,t,t,t,t,t,t	<img class = center src='/static/experiments/beast_fmri_test/images/V.png'></img>	71,89	2750.0	test	<img class = center src='/static/experiments/beast_fmri_test/images/redV.png'></img>	go	1400.0	1.0	16.0	go	target	V	71,Index Finger	89,Middle Finger	1350.0	1450.0	1400.0	1300.0	1.0	1350.0	1.0	n/a	ITI
85306	500	n/a	-1	-1	500	0.0	fixation	poldrack-single-stim	617	1657988	0.0-25.17-0.17	beast_fmri_test	384	1657681,/	t	<div class = centerbox2><div class = fixation>+</div></div>	none	500.0	test	n/a	n/a	n/a	n/a	n/a	n/a	n/a	n/a	n/a	n/a	n/a	n/a	n/a	n/a	n/a	n/a	n/a	n/a	fixation
84222.064247000031	1350.0	n/a	-1	-1	2750	1086.935753	stim	stop-signal	618	1660741	0.0-25.17-1.17	beast_fmri_test	384	1658361,/,1659041,/,1659721,/,1660401,/,1661081,/,1661761,/	t,t,t,t,t,t	<img class = center src='/static/experiments/beast_fmri_test/images/V.png'></img>	71,89	2750.0	test	<img class = center src='/static/experiments/beast_fmri_test/images/redV.png'></img>	stop	1400.0	1.0	17.0	stop	target	V	71,Index Finger	89,Middle Finger	1350.0	1450.0	1400.0	1300.0	0.0	1350.0	n/a	1.0	go_stim
85622.064247000031	1400.0	n/a	-1	-1	2750	1086.935753	stim	stop-signal	618	1660741	0.0-25.17-1.17	beast_fmri_test	384	1658361,/,1659041,/,1659721,/,1660401,/,1661081,/,1661761,/	t,t,t,t,t,t	<img class = center src='/static/experiments/beast_fmri_test/images/V.png'></img>	71,89	2750.0	test	<img class = center src='/static/experiments/beast_fmri_test/images/redV.png'></img>	stop	1400.0	1.0	17.0	stop	target	V	71,Index Finger	89,Middle Finger	1350.0	1450.0	1400.0	1300.0	0.0	1350.0	n/a	1.0	stop_stim
86972.064247000031	1086.935753	n/a	-1	-1	2750	1086.935753	stim	stop-signal	618	1660741	0.0-25.17-1.17	beast_fmri_test	384	1658361,/,1659041,/,1659721,/,1660401,/,1661081,/,1661761,/	t,t,t,t,t,t	<img class = center src='/static/experiments/beast_fmri_test/images/V.png'></img>	71,89	2750.0	test	<img class = center src='/static/experiments/beast_fmri_test/images/redV.png'></img>	stop	1400.0	1.0	17.0	stop	target	V	71,Index Finger	89,Middle Finger	1350.0	1450.0	1400.0	1300.0	0.0	1350.0	n/a	1.0	ITI
89665	500	n/a	-1	-1	500	0.0	fixation	poldrack-single-stim	619	1662347	0.0-25.18-0.18	beast_fmri_test	384	n/a	n/a	<div class = centerbox2><div class = fixation>+</div></div>	none	500.0	test	n/a	n/a	n/a	n/a	n/a	n/a	n/a	n/a	n/a	n/a	n/a	n/a	n/a	n/a	n/a	n/a	n/a	n/a	fixation
89283.270452799974	1450.0	n/a	1675	89	2750	383.7295472	stim	stop-signal	620	1665099	0.0-25.18-1.18	beast_fmri_test	384	1662441,/,1663121,/,1663800,/,1664481,/,1665161,/	t,t,t,t,t	<img class = center src='/static/experiments/beast_fmri_test/images/P.png'></img>	71,89	2750.0	test	<img class = center src='/static/experiments/beast_fmri_test/images/redP.png'></img>	stop	1300.0	1.0	18.0	stop	non-target	P	71,Index Finger	89,Middle Finger	1400.0	1450.0	1400.0	1300.0	0.0	1450.0	n/a	0.0	go_stim
90583.270452799974	1300.0	n/a	1675	89	2750	383.7295472	stim	stop-signal	620	1665099	0.0-25.18-1.18	beast_fmri_test	384	1662441,/,1663121,/,1663800,/,1664481,/,1665161,/	t,t,t,t,t	<img class = center src='/static/experiments/beast_fmri_test/images/P.png'></img>	71,89	2750.0	test	<img class = center src='/static/experiments/beast_fmri_test/images/redP.png'></img>	stop	1300.0	1.0	18.0	stop	non-target	P	71,Index Finger	89,Middle Finger	1400.0	1450.0	1400.0	1300.0	0.0	1450.0	n/a	0.0	stop_stim
92033.270452799974	383.72954720000001	n/a	1675	89	2750	383.7295472	stim	stop-signal	620	1665099	0.0-25.18-1.18	beast_fmri_test	384	1662441,/,1663121,/,1663800,/,1664481,/,1665161,/	t,t,t,t,t	<img class = center src='/static/experiments/beast_fmri_test/images/P.png'></img>	71,89	2750.0	test	<img class = center src='/static/experiments/beast_fmri_test/images/redP.png'></img>	stop	1300.0	1.0	18.0	stop	non-target	P	71,Index Finger	89,Middle Finger	1400.0	1450.0	1400.0	1300.0	0.0	1450.0	n/a	0.0	ITI
93317	500	n/a	-1	-1	500	0.0	fixation	poldrack-single-stim	621	1665999	0.0-25.19-0.19	beast_fmri_test	384	1665841,/	t	<div class = centerbox2><div class = fixation>+</div></div>	none	500.0	test	n/a	n/a	n/a	n/a	n/a	n/a	n/a	n/a	n/a	n/a	n/a	n/a	n/a	n/a	n/a	n/a	n/a	n/a	fixation
92040.330455000047	1400.0	n/a	-1	-1	2750	1279.669545	stim	stop-signal	622	1668752	0.0-25.19-1.19	beast_fmri_test	384	1666521,/,1667200,/,1667880,/,1668561,/,1669240,/,1669922,/	t,t,t,t,t,t	<img class = center src='/static/experiments/beast_fmri_test/images/V.png'></img>	71,89	2750.0	test	<img class = center src='/static/experiments/beast_fmri_test/images/redV.png'></img>	stop	1350.0	1.0	19.0	stop	non-target	V	71,Index Finger	89,Middle Finger	1400.0	1400.0	1400.0	1350.0	0.0	1400.0	n/a	1.0	go_stim
93390.330455000047	1350.0	n/a	-1	-1	2750	1279.669545	stim	stop-signal	622	1668752	0.0-25.19-1.19	beast_fmri_test	384	1666521,/,1667200,/,1667880,/,1668561,/,1669240,/,1669922,/	t,t,t,t,t,t	<img class = center src='/static/experiments/beast_fmri_test/images/V.png'></img>	71,89	2750.0	test	<img class = center src='/static/experiments/beast_fmri_test/images/redV.png'></img>	stop	1350.0	1.0	19.0	stop	non-target	V	71,Index Finger	89,Middle Finger	1400.0	1400.0	1400.0	1350.0	0.0	1400.0	n/a	1.0	stop_stim
94790.330455000047	1279.669545	n/a	-1	-1	2750	1279.669545	stim	stop-signal	622	1668752	0.0-25.19-1.19	beast_fmri_test	384	1666521,/,1667200,/,1667880,/,1668561,/,1669240,/,1669922,/	t,t,t,t,t,t	<img class = center src='/static/experiments/beast_fmri_test/images/V.png'></img>	71,89	2750.0	test	<img class = center src='/static/experiments/beast_fmri_test/images/redV.png'></img>	stop	1350.0	1.0	19.0	stop	non-target	V	71,Index Finger	89,Middle Finger	1400.0	1400.0	1400.0	1350.0	0.0	1400.0	n/a	1.0	ITI
97867	500	n/a	-1	-1	500	0.0	fixation	poldrack-single-stim	623	1670549	0.0-25.20-0.20	beast_fmri_test	384	n/a	n/a	<div class = centerbox2><div class = fixation>+</div></div>	none	500.0	test	n/a	n/a	n/a	n/a	n/a	n/a	n/a	n/a	n/a	n/a	n/a	n/a	n/a	n/a	n/a	n/a	n/a	n/a	fixation
96115.705091000069	2750	n/a	2334	89	2750	1753.294909	stim	stop-signal	624	1673301	0.0-25.20-1.20	beast_fmri_test	384	1670602,/,1671282,/,1671962,/,1672641,/,1673322,/,1674001,/,1674681,/	t,t,t,t,t,t,t	<img class = center src='/static/experiments/beast_fmri_test/images/B.png'></img>	71,89	2750.0	test	<img class = center src='/static/experiments/beast_fmri_test/images/redB.png'></img>	go	1300.0	1.0	20.0	go	non-target	B	71,Index Finger	89,Middle Finger	1400.0	1450.0	1400.0	1300.0	1.0	1450.0	1.0	n/a	go_stim
98865.705091000069	1753.294909	n/a	2334	89	2750	1753.294909	stim	stop-signal	624	1673301	0.0-25.20-1.20	beast_fmri_test	384	1670602,/,1671282,/,1671962,/,1672641,/,1673322,/,1674001,/,1674681,/	t,t,t,t,t,t,t	<img class = center src='/static/experiments/beast_fmri_test/images/B.png'></img>	71,89	2750.0	test	<img class = center src='/static/experiments/beast_fmri_test/images/redB.png'></img>	go	1300.0	1.0	20.0	go	non-target	B	71,Index Finger	89,Middle Finger	1400.0	1450.0	1400.0	1300.0	1.0	1450.0	1.0	n/a	ITI
102891	500	n/a	-1	-1	500	0.0	fixation	poldrack-single-stim	625	1675573	0.0-25.21-0.21	beast_fmri_test	384	1675361,/	t	<div class = centerbox2><div class = fixation>+</div></div>	none	500.0	test	n/a	n/a	n/a	n/a	n/a	n/a	n/a	n/a	n/a	n/a	n/a	n/a	n/a	n/a	n/a	n/a	n/a	n/a	fixation
102812.22951954999	2750	n/a	2336	89	2750	80.77048045	stim	stop-signal	626	1678325	0.0-25.21-1.21	beast_fmri_test	384	1676041,/,1676721,/,1677401,/,1678081,/	t,t,t,t	<img class = center src='/static/experiments/beast_fmri_test/images/P.png'></img>	71,89	2750.0	test	<img class = center src='/static/experiments/beast_fmri_test/images/redP.png'></img>	go	1300.0	1.0	21.0	go	non-target	P	71,Index Finger	89,Middle Finger	1400.0	1450.0	1400.0	1300.0	1.0	1450.0	1.0	n/a	go_stim
105562.22951954999	80.770480449999994	n/a	2336	89	2750	80.77048045	stim	stop-signal	626	1678325	0.0-25.21-1.21	beast_fmri_test	384	1676041,/,1676721,/,1677401,/,1678081,/	t,t,t,t	<img class = center src='/static/experiments/beast_fmri_test/images/P.png'></img>	71,89	2750.0	test	<img class = center src='/static/experiments/beast_fmri_test/images/redP.png'></img>	go	1300.0	1.0	21.0	go	non-target	P	71,Index Finger	89,Middle Finger	1400.0	1450.0	1400.0	1300.0	1.0	1450.0	1.0	n/a	ITI
106245	500	n/a	-1	-1	500	0.0	fixation	poldrack-single-stim	627	1678927	0.0-25.22-0.22	beast_fmri_test	384	1678761,/	t	<div class = centerbox2><div class = fixation>+</div></div>	none	500.0	test	n/a	n/a	n/a	n/a	n/a	n/a	n/a	n/a	n/a	n/a	n/a	n/a	n/a	n/a	n/a	n/a	n/a	n/a	fixation
106190.50499001006	1450.0	n/a	-1	-1	2750	57.49500999	stim	stop-signal	628	1681680	0.0-25.22-1.22	beast_fmri_test	384	1679441,/,1680121,/,1680801,/,1681481,/	t,t,t,t	<img class = center src='/static/experiments/beast_fmri_test/images/D.png'></img>	71,89	2750.0	test	<img class = center src='/static/experiments/beast_fmri_test/images/redD.png'></img>	stop	1300.0	1.0	22.0	stop	non-target	D	71,Index Finger	89,Middle Finger	1400.0	1450.0	1400.0	1300.0	0.0	1450.0	n/a	1.0	go_stim
107490.50499001006	1300.0	n/a	-1	-1	2750	57.49500999	stim	stop-signal	628	1681680	0.0-25.22-1.22	beast_fmri_test	384	1679441,/,1680121,/,1680801,/,1681481,/	t,t,t,t	<img class = center src='/static/experiments/beast_fmri_test/images/D.png'></img>	71,89	2750.0	test	<img class = center src='/static/experiments/beast_fmri_test/images/redD.png'></img>	stop	1300.0	1.0	22.0	stop	non-target	D	71,Index Finger	89,Middle Finger	1400.0	1450.0	1400.0	1300.0	0.0	1450.0	n/a	1.0	stop_stim
108940.50499001006	57.49500999	n/a	-1	-1	2750	57.49500999	stim	stop-signal	628	1681680	0.0-25.22-1.22	beast_fmri_test	384	1679441,/,1680121,/,1680801,/,1681481,/	t,t,t,t	<img class = center src='/static/experiments/beast_fmri_test/images/D.png'></img>	71,89	2750.0	test	<img class = center src='/static/experiments/beast_fmri_test/images/redD.png'></img>	stop	1300.0	1.0	22.0	stop	non-target	D	71,Index Finger	89,Middle Finger	1400.0	1450.0	1400.0	1300.0	0.0	1450.0	n/a	1.0	ITI
109578	500	n/a	-1	-1	500	0.0	fixation	poldrack-single-stim	629	1682260	0.0-25.23-0.23	beast_fmri_test	384	1682161,/	t	<div class = centerbox2><div class = fixation>+</div></div>	none	500.0	test	n/a	n/a	n/a	n/a	n/a	n/a	n/a	n/a	n/a	n/a	n/a	n/a	n/a	n/a	n/a	n/a	n/a	n/a	fixation
108652.79786529997	2750	n/a	978	89	2750	927.2021347	stim	stop-signal	630	1685012	0.0-25.23-1.23	beast_fmri_test	384	1682841,/,1683522,/,1684201,/,1684881,/,1685561,/	t,t,t,t,t	<img class = center src='/static/experiments/beast_fmri_test/images/D.png'></img>	71,89	2750.0	test	<img class = center src='/static/experiments/beast_fmri_test/images/redD.png'></img>	go	1350.0	1.0	23.0	go	target	D	71,Index Finger	89,Middle Finger	1400.0	1500.0	1350.0	1300.0	0.0	1400.0	0.0	n/a	go_stim
111402.79786529997	927.2021347000001	n/a	978	89	2750	927.2021347	stim	stop-signal	630	1685012	0.0-25.23-1.23	beast_fmri_test	384	1682841,/,1683522,/,1684201,/,1684881,/,1685561,/	t,t,t,t,t	<img class = center src='/static/experiments/beast_fmri_test/images/D.png'></img>	71,89	2750.0	test	<img class = center src='/static/experiments/beast_fmri_test/images/redD.png'></img>	go	1350.0	1.0	23.0	go	target	D	71,Index Finger	89,Middle Finger	1400.0	1500.0	1350.0	1300.0	0.0	1400.0	0.0	n/a	ITI
113777	500	n/a	-1	-1	500	0.0	fixation	poldrack-single-stim	631	1686459	0.0-25.24-0.24	beast_fmri_test	384	1686241,/	t	<div class = centerbox2><div class = fixation>+</div></div>	none	500.0	test	n/a	n/a	n/a	n/a	n/a	n/a	n/a	n/a	n/a	n/a	n/a	n/a	n/a	n/a	n/a	n/a	n/a	n/a	fixation
112123.85204000003	1400.0	n/a	-1	-1	2750	1654.14796	stim	stop-signal	632	1689210	0.0-25.24-1.24	beast_fmri_test	384	1686921,/,1687601,/,1688281,/,1688961,/,1689641,/,1690320,/	t,t,t,t,t,t	<img class = center src='/static/experiments/beast_fmri_test/images/D.png'></img>	71,89	2750.0	test	<img class = center src='/static/experiments/beast_fmri_test/images/redD.png'></img>	stop	1350.0	1.0	24.0	stop	target	D	71,Index Finger	89,Middle Finger	1400.0	1500.0	1350.0	1300.0	0.0	1400.0	n/a	1.0	go_stim
113473.85204000003	1350.0	n/a	-1	-1	2750	1654.14796	stim	stop-signal	632	1689210	0.0-25.24-1.24	beast_fmri_test	384	1686921,/,1687601,/,1688281,/,1688961,/,1689641,/,1690320,/	t,t,t,t,t,t	<img class = center src='/static/experiments/beast_fmri_test/images/D.png'></img>	71,89	2750.0	test	<img class = center src='/static/experiments/beast_fmri_test/images/redD.png'></img>	stop	1350.0	1.0	24.0	stop	target	D	71,Index Finger	89,Middle Finger	1400.0	1500.0	1350.0	1300.0	0.0	1400.0	n/a	1.0	stop_stim
114873.85204000003	1654.14796	n/a	-1	-1	2750	1654.14796	stim	stop-signal	632	1689210	0.0-25.24-1.24	beast_fmri_test	384	1686921,/,1687601,/,1688281,/,1688961,/,1689641,/,1690320,/	t,t,t,t,t,t	<img class = center src='/static/experiments/beast_fmri_test/images/D.png'></img>	71,89	2750.0	test	<img class = center src='/static/experiments/beast_fmri_test/images/redD.png'></img>	stop	1350.0	1.0	24.0	stop	target	D	71,Index Finger	89,Middle Finger	1400.0	1500.0	1350.0	1300.0	0.0	1400.0	n/a	1.0	ITI
118704	500	n/a	-1	-1	500	0.0	fixation	poldrack-single-stim	633	1691386	0.0-25.25-0.25	beast_fmri_test	384	1691001,/	t	<div class = centerbox2><div class = fixation>+</div></div>	none	500.0	test	n/a	n/a	n/a	n/a	n/a	n/a	n/a	n/a	n/a	n/a	n/a	n/a	n/a	n/a	n/a	n/a	n/a	n/a	fixation
118611.43293130002	2750	n/a	1715	89	2750	94.5670687	stim	stop-signal	634	1694138	0.0-25.25-1.25	beast_fmri_test	384	1691681,/,1692361,/,1693041,/,1693722,/	t,t,t,t	<img class = center src='/static/experiments/beast_fmri_test/images/V.png'></img>	71,89	2750.0	test	<img class = center src='/static/experiments/beast_fmri_test/images/redV.png'></img>	go	1250.0	1.0	25.0	go	non-target	V	71,Index Finger	89,Middle Finger	1450.0	1500.0	1350.0	1250.0	1.0	1500.0	1.0	n/a	go_stim
121361.43293130002	94.567068700000007	n/a	1715	89	2750	94.5670687	stim	stop-signal	634	1694138	0.0-25.25-1.25	beast_fmri_test	384	1691681,/,1692361,/,1693041,/,1693722,/	t,t,t,t	<img class = center src='/static/experiments/beast_fmri_test/images/V.png'></img>	71,89	2750.0	test	<img class = center src='/static/experiments/beast_fmri_test/images/redV.png'></img>	go	1250.0	1.0	25.0	go	non-target	V	71,Index Finger	89,Middle Finger	1450.0	1500.0	1350.0	1250.0	1.0	1500.0	1.0	n/a	ITI
122072	500	n/a	-1	-1	500	0.0	fixation	poldrack-single-stim	635	1694754	0.0-25.26-0.26	beast_fmri_test	384	1694400,/	t	<div class = centerbox2><div class = fixation>+</div></div>	none	500.0	test	n/a	n/a	n/a	n/a	n/a	n/a	n/a	n/a	n/a	n/a	n/a	n/a	n/a	n/a	n/a	n/a	n/a	n/a	fixation
121685.44767170004	1500.0	n/a	-1	-1	2750	388.5523283	stim	stop-signal	636	1697506	0.0-25.26-1.26	beast_fmri_test	384	1695081,/,1695761,/,1696441,/,1697121,/,1697801,/	t,t,t,t,t	<img class = center src='/static/experiments/beast_fmri_test/images/D.png'></img>	71,89	2750.0	test	<img class = center src='/static/experiments/beast_fmri_test/images/redD.png'></img>	stop	1250.0	1.0	26.0	stop	non-target	D	71,Index Finger	89,Middle Finger	1450.0	1500.0	1350.0	1250.0	0.0	1500.0	n/a	1.0	go_stim
122935.44767170004	1250.0	n/a	-1	-1	2750	388.5523283	stim	stop-signal	636	1697506	0.0-25.26-1.26	beast_fmri_test	384	1695081,/,1695761,/,1696441,/,1697121,/,1697801,/	t,t,t,t,t	<img class = center src='/static/experiments/beast_fmri_test/images/D.png'></img>	71,89	2750.0	test	<img class = center src='/static/experiments/beast_fmri_test/images/redD.png'></img>	stop	1250.0	1.0	26.0	stop	non-target	D	71,Index Finger	89,Middle Finger	1450.0	1500.0	1350.0	1250.0	0.0	1500.0	n/a	1.0	stop_stim
124435.44767170004	388.55232830000006	n/a	-1	-1	2750	388.5523283	stim	stop-signal	636	1697506	0.0-25.26-1.26	beast_fmri_test	384	1695081,/,1695761,/,1696441,/,1697121,/,1697801,/	t,t,t,t,t	<img class = center src='/static/experiments/beast_fmri_test/images/D.png'></img>	71,89	2750.0	test	<img class = center src='/static/experiments/beast_fmri_test/images/redD.png'></img>	stop	1250.0	1.0	26.0	stop	non-target	D	71,Index Finger	89,Middle Finger	1450.0	1500.0	1350.0	1250.0	0.0	1500.0	n/a	1.0	ITI
125733	500	n/a	-1	-1	500	0.0	fixation	poldrack-single-stim	637	1698415	0.0-25.27-0.27	beast_fmri_test	384	n/a	n/a	<div class = centerbox2><div class = fixation>+</div></div>	none	500.0	test	n/a	n/a	n/a	n/a	n/a	n/a	n/a	n/a	n/a	n/a	n/a	n/a	n/a	n/a	n/a	n/a	n/a	n/a	fixation
125668.38848365005	1500.0	n/a	-1	-1	2750	66.61151635	stim	stop-signal	638	1701167	0.0-25.27-1.27	beast_fmri_test	384	1698481,/,1699161,/,1699840,/,1700521,/,1701200,/	t,t,t,t,t	<img class = center src='/static/experiments/beast_fmri_test/images/B.png'></img>	71,89	2750.0	test	<img class = center src='/static/experiments/beast_fmri_test/images/redB.png'></img>	stop	1250.0	1.0	27.0	stop	non-target	B	71,Index Finger	89,Middle Finger	1450.0	1500.0	1350.0	1250.0	0.0	1500.0	n/a	1.0	go_stim
126918.38848365005	1250.0	n/a	-1	-1	2750	66.61151635	stim	stop-signal	638	1701167	0.0-25.27-1.27	beast_fmri_test	384	1698481,/,1699161,/,1699840,/,1700521,/,1701200,/	t,t,t,t,t	<img class = center src='/static/experiments/beast_fmri_test/images/B.png'></img>	71,89	2750.0	test	<img class = center src='/static/experiments/beast_fmri_test/images/redB.png'></img>	stop	1250.0	1.0	27.0	stop	non-target	B	71,Index Finger	89,Middle Finger	1450.0	1500.0	1350.0	1250.0	0.0	1500.0	n/a	1.0	stop_stim
128418.38848365005	66.611516350000002	n/a	-1	-1	2750	66.61151635	stim	stop-signal	638	1701167	0.0-25.27-1.27	beast_fmri_test	384	1698481,/,1699161,/,1699840,/,1700521,/,1701200,/	t,t,t,t,t	<img class = center src='/static/experiments/beast_fmri_test/images/B.png'></img>	71,89	2750.0	test	<img class = center src='/static/experiments/beast_fmri_test/images/redB.png'></img>	stop	1250.0	1.0	27.0	stop	non-target	B	71,Index Finger	89,Middle Finger	1450.0	1500.0	1350.0	1250.0	0.0	1500.0	n/a	1.0	ITI
129072	500	n/a	-1	-1	500	0.0	fixation	poldrack-single-stim	639	1701754	0.0-25.28-0.28	beast_fmri_test	384	n/a	n/a	<div class = centerbox2><div class = fixation>+</div></div>	none	500.0	test	n/a	n/a	n/a	n/a	n/a	n/a	n/a	n/a	n/a	n/a	n/a	n/a	n/a	n/a	n/a	n/a	n/a	n/a	fixation
128856.03140849993	2750	n/a	2600	89	2750	217.9685915	stim	stop-signal	640	1704506	0.0-25.28-1.28	beast_fmri_test	384	1701881,/,1702561,/,1703240,/,1703922,/,1704601,/	t,t,t,t,t	<img class = center src='/static/experiments/beast_fmri_test/images/D.png'></img>	71,89	2750.0	test	<img class = center src='/static/experiments/beast_fmri_test/images/redD.png'></img>	go	1250.0	1.0	28.0	go	non-target	D	71,Index Finger	89,Middle Finger	1450.0	1500.0	1350.0	1250.0	1.0	1500.0	1.0	n/a	go_stim
131606.03140849993	217.9685915	n/a	2600	89	2750	217.9685915	stim	stop-signal	640	1704506	0.0-25.28-1.28	beast_fmri_test	384	1701881,/,1702561,/,1703240,/,1703922,/,1704601,/	t,t,t,t,t	<img class = center src='/static/experiments/beast_fmri_test/images/D.png'></img>	71,89	2750.0	test	<img class = center src='/static/experiments/beast_fmri_test/images/redD.png'></img>	go	1250.0	1.0	28.0	go	non-target	D	71,Index Finger	89,Middle Finger	1450.0	1500.0	1350.0	1250.0	1.0	1500.0	1.0	n/a	ITI
132561	500	n/a	-1	-1	500	0.0	fixation	poldrack-single-stim	641	1705243	0.0-25.29-0.29	beast_fmri_test	384	n/a	n/a	<div class = centerbox2><div class = fixation>+</div></div>	none	500.0	test	n/a	n/a	n/a	n/a	n/a	n/a	n/a	n/a	n/a	n/a	n/a	n/a	n/a	n/a	n/a	n/a	n/a	n/a	fixation
131157.62707699998	1500.0	n/a	1398	89	2750	1406.372923	stim	stop-signal	642	1707996	0.0-25.29-1.29	beast_fmri_test	384	1705281,/,1705961,/,1706642,/,1707321,/,1708001,/,1708682,/,1709361,/	t,t,t,t,t,t,t	<img class = center src='/static/experiments/beast_fmri_test/images/T.png'></img>	71,89	2750.0	test	<img class = center src='/static/experiments/beast_fmri_test/images/redT.png'></img>	stop	1250.0	1.0	29.0	stop	non-target	T	71,Index Finger	89,Middle Finger	1450.0	1500.0	1350.0	1250.0	0.0	1500.0	n/a	0.0	go_stim
132407.62707699998	1250.0	n/a	1398	89	2750	1406.372923	stim	stop-signal	642	1707996	0.0-25.29-1.29	beast_fmri_test	384	1705281,/,1705961,/,1706642,/,1707321,/,1708001,/,1708682,/,1709361,/	t,t,t,t,t,t,t	<img class = center src='/static/experiments/beast_fmri_test/images/T.png'></img>	71,89	2750.0	test	<img class = center src='/static/experiments/beast_fmri_test/images/redT.png'></img>	stop	1250.0	1.0	29.0	stop	non-target	T	71,Index Finger	89,Middle Finger	1450.0	1500.0	1350.0	1250.0	0.0	1500.0	n/a	0.0	stop_stim
133907.62707699998	1406.3729230000001	n/a	1398	89	2750	1406.372923	stim	stop-signal	642	1707996	0.0-25.29-1.29	beast_fmri_test	384	1705281,/,1705961,/,1706642,/,1707321,/,1708001,/,1708682,/,1709361,/	t,t,t,t,t,t,t	<img class = center src='/static/experiments/beast_fmri_test/images/T.png'></img>	71,89	2750.0	test	<img class = center src='/static/experiments/beast_fmri_test/images/redT.png'></img>	stop	1250.0	1.0	29.0	stop	non-target	T	71,Index Finger	89,Middle Finger	1450.0	1500.0	1350.0	1250.0	0.0	1500.0	n/a	0.0	ITI
137241	500	n/a	-1	-1	500	0.0	fixation	poldrack-single-stim	643	1709923	0.0-25.30-0.30	beast_fmri_test	384	n/a	n/a	<div class = centerbox2><div class = fixation>+</div></div>	none	500.0	test	n/a	n/a	n/a	n/a	n/a	n/a	n/a	n/a	n/a	n/a	n/a	n/a	n/a	n/a	n/a	n/a	n/a	n/a	fixation
136840.70045050001	2750	n/a	2223	89	2750	402.2995495	stim	stop-signal	644	1712675	0.0-25.30-1.30	beast_fmri_test	384	1710041,/,1710721,/,1711401,/,1712100,/,1712761,/	t,t,t,t,t	<img class = center src='/static/experiments/beast_fmri_test/images/B.png'></img>	71,89	2750.0	test	<img class = center src='/static/experiments/beast_fmri_test/images/redB.png'></img>	go	1300.0	1.0	30.0	go	non-target	B	71,Index Finger	89,Middle Finger	1450.0	1450.0	1350.0	1300.0	1.0	1450.0	1.0	n/a	go_stim
139590.70045050001	402.29954950000001	n/a	2223	89	2750	402.2995495	stim	stop-signal	644	1712675	0.0-25.30-1.30	beast_fmri_test	384	1710041,/,1710721,/,1711401,/,1712100,/,1712761,/	t,t,t,t,t	<img class = center src='/static/experiments/beast_fmri_test/images/B.png'></img>	71,89	2750.0	test	<img class = center src='/static/experiments/beast_fmri_test/images/redB.png'></img>	go	1300.0	1.0	30.0	go	non-target	B	71,Index Finger	89,Middle Finger	1450.0	1450.0	1350.0	1300.0	1.0	1450.0	1.0	n/a	ITI
140916	500	n/a	-1	-1	500	0.0	fixation	poldrack-single-stim	645	1713598	0.0-25.31-0.31	beast_fmri_test	384	1713441,/	t	<div class = centerbox2><div class = fixation>+</div></div>	none	500.0	test	n/a	n/a	n/a	n/a	n/a	n/a	n/a	n/a	n/a	n/a	n/a	n/a	n/a	n/a	n/a	n/a	n/a	n/a	fixation
138992.666921	1450.0	n/a	-1	-1	2750	1925.333079	stim	stop-signal	646	1716350	0.0-25.31-1.31	beast_fmri_test	384	1714122,/,1714801,/,1715481,/,1716161,/,1716841,/,1717521,/,1718201,/	t,t,t,t,t,t,t	<img class = center src='/static/experiments/beast_fmri_test/images/B.png'></img>	71,89	2750.0	test	<img class = center src='/static/experiments/beast_fmri_test/images/redB.png'></img>	stop	1300.0	1.0	31.0	stop	target	B	71,Index Finger	89,Middle Finger	1450.0	1450.0	1300.0	1300.0	0.0	1450.0	n/a	1.0	go_stim
140292.666921	1300.0	n/a	-1	-1	2750	1925.333079	stim	stop-signal	646	1716350	0.0-25.31-1.31	beast_fmri_test	384	1714122,/,1714801,/,1715481,/,1716161,/,1716841,/,1717521,/,1718201,/	t,t,t,t,t,t,t	<img class = center src='/static/experiments/beast_fmri_test/images/B.png'></img>	71,89	2750.0	test	<img class = center src='/static/experiments/beast_fmri_test/images/redB.png'></img>	stop	1300.0	1.0	31.0	stop	target	B	71,Index Finger	89,Middle Finger	1450.0	1450.0	1300.0	1300.0	0.0	1450.0	n/a	1.0	stop_stim
141742.666921	1925.333079	n/a	-1	-1	2750	1925.333079	stim	stop-signal	646	1716350	0.0-25.31-1.31	beast_fmri_test	384	1714122,/,1714801,/,1715481,/,1716161,/,1716841,/,1717521,/,1718201,/	t,t,t,t,t,t,t	<img class = center src='/static/experiments/beast_fmri_test/images/B.png'></img>	71,89	2750.0	test	<img class = center src='/static/experiments/beast_fmri_test/images/redB.png'></img>	stop	1300.0	1.0	31.0	stop	target	B	71,Index Finger	89,Middle Finger	1450.0	1450.0	1300.0	1300.0	0.0	1450.0	n/a	1.0	ITI
146114	500	n/a	-1	-1	500	0.0	fixation	poldrack-single-stim	647	1718796	0.0-25.32-0.32	beast_fmri_test	384	n/a	n/a	<div class = centerbox2><div class = fixation>+</div></div>	none	500.0	test	n/a	n/a	n/a	n/a	n/a	n/a	n/a	n/a	n/a	n/a	n/a	n/a	n/a	n/a	n/a	n/a	n/a	n/a	fixation
145301.25195729989	1450.0	n/a	-1	-1	2750	814.7480427	stim	stop-signal	648	1721548	0.0-25.32-1.32	beast_fmri_test	384	1718881,/,1719561,/,1720241,/,1720921,/,1721601,/,1722281,/	t,t,t,t,t,t	<img class = center src='/static/experiments/beast_fmri_test/images/D.png'></img>	71,89	2750.0	test	<img class = center src='/static/experiments/beast_fmri_test/images/redD.png'></img>	stop	1300.0	1.0	32.0	stop	non-target	D	71,Index Finger	89,Middle Finger	1500.0	1450.0	1300.0	1300.0	0.0	1450.0	n/a	1.0	go_stim
146601.25195729989	1300.0	n/a	-1	-1	2750	814.7480427	stim	stop-signal	648	1721548	0.0-25.32-1.32	beast_fmri_test	384	1718881,/,1719561,/,1720241,/,1720921,/,1721601,/,1722281,/	t,t,t,t,t,t	<img class = center src='/static/experiments/beast_fmri_test/images/D.png'></img>	71,89	2750.0	test	<img class = center src='/static/experiments/beast_fmri_test/images/redD.png'></img>	stop	1300.0	1.0	32.0	stop	non-target	D	71,Index Finger	89,Middle Finger	1500.0	1450.0	1300.0	1300.0	0.0	1450.0	n/a	1.0	stop_stim
148051.25195729989	814.74804270000004	n/a	-1	-1	2750	814.7480427	stim	stop-signal	648	1721548	0.0-25.32-1.32	beast_fmri_test	384	1718881,/,1719561,/,1720241,/,1720921,/,1721601,/,1722281,/	t,t,t,t,t,t	<img class = center src='/static/experiments/beast_fmri_test/images/D.png'></img>	71,89	2750.0	test	<img class = center src='/static/experiments/beast_fmri_test/images/redD.png'></img>	stop	1300.0	1.0	32.0	stop	non-target	D	71,Index Finger	89,Middle Finger	1500.0	1450.0	1300.0	1300.0	0.0	1450.0	n/a	1.0	ITI
150200	500	n/a	-1	-1	500	0.0	fixation	poldrack-single-stim	649	1722882	0.0-25.33-0.33	beast_fmri_test	384	n/a	n/a	<div class = centerbox2><div class = fixation>+</div></div>	none	500.0	test	n/a	n/a	n/a	n/a	n/a	n/a	n/a	n/a	n/a	n/a	n/a	n/a	n/a	n/a	n/a	n/a	n/a	n/a	fixation
148624.80807400006	1500.0	n/a	-1	-1	2750	1578.191926	stim	stop-signal	650	1725635	0.0-25.33-1.33	beast_fmri_test	384	1722961,/,1723641,/,1724322,/,1725001,/,1725681,/,1726361,/,1727041,/	t,t,t,t,t,t,t	<img class = center src='/static/experiments/beast_fmri_test/images/T.png'></img>	71,89	2750.0	test	<img class = center src='/static/experiments/beast_fmri_test/images/redT.png'></img>	stop	1250.0	1.0	33.0	stop	non-target	T	71,Index Finger	89,Middle Finger	1500.0	1500.0	1300.0	1250.0	0.0	1500.0	n/a	1.0	go_stim
149874.80807400006	1250.0	n/a	-1	-1	2750	1578.191926	stim	stop-signal	650	1725635	0.0-25.33-1.33	beast_fmri_test	384	1722961,/,1723641,/,1724322,/,1725001,/,1725681,/,1726361,/,1727041,/	t,t,t,t,t,t,t	<img class = center src='/static/experiments/beast_fmri_test/images/T.png'></img>	71,89	2750.0	test	<img class = center src='/static/experiments/beast_fmri_test/images/redT.png'></img>	stop	1250.0	1.0	33.0	stop	non-target	T	71,Index Finger	89,Middle Finger	1500.0	1500.0	1300.0	1250.0	0.0	1500.0	n/a	1.0	stop_stim
151374.80807400006	1578.191926	n/a	-1	-1	2750	1578.191926	stim	stop-signal	650	1725635	0.0-25.33-1.33	beast_fmri_test	384	1722961,/,1723641,/,1724322,/,1725001,/,1725681,/,1726361,/,1727041,/	t,t,t,t,t,t,t	<img class = center src='/static/experiments/beast_fmri_test/images/T.png'></img>	71,89	2750.0	test	<img class = center src='/static/experiments/beast_fmri_test/images/redT.png'></img>	stop	1250.0	1.0	33.0	stop	non-target	T	71,Index Finger	89,Middle Finger	1500.0	1500.0	1300.0	1250.0	0.0	1500.0	n/a	1.0	ITI
155051	500	n/a	-1	-1	500	0.0	fixation	poldrack-single-stim	651	1727733	0.0-25.34-0.34	beast_fmri_test	384	1727721,/	t	<div class = centerbox2><div class = fixation>+</div></div>	none	500.0	test	n/a	n/a	n/a	n/a	n/a	n/a	n/a	n/a	n/a	n/a	n/a	n/a	n/a	n/a	n/a	n/a	n/a	n/a	fixation
153745.44050500006	2750	n/a	2043	89	2750	1307.559495	stim	stop-signal	652	1730485	0.0-25.34-1.34	beast_fmri_test	384	1728401,/,1729081,/,1729760,/,1730440,/,1731121,/	t,t,t,t,t	<img class = center src='/static/experiments/beast_fmri_test/images/D.png'></img>	71,89	2750.0	test	<img class = center src='/static/experiments/beast_fmri_test/images/redD.png'></img>	go	1250.0	1.0	34.0	go	non-target	D	71,Index Finger	89,Middle Finger	1500.0	1500.0	1300.0	1250.0	1.0	1500.0	1.0	n/a	go_stim
156495.44050500006	1307.559495	n/a	2043	89	2750	1307.559495	stim	stop-signal	652	1730485	0.0-25.34-1.34	beast_fmri_test	384	1728401,/,1729081,/,1729760,/,1730440,/,1731121,/	t,t,t,t,t	<img class = center src='/static/experiments/beast_fmri_test/images/D.png'></img>	71,89	2750.0	test	<img class = center src='/static/experiments/beast_fmri_test/images/redD.png'></img>	go	1250.0	1.0	34.0	go	non-target	D	71,Index Finger	89,Middle Finger	1500.0	1500.0	1300.0	1250.0	1.0	1500.0	1.0	n/a	ITI
159631	500	n/a	-1	-1	500	0.0	fixation	poldrack-single-stim	653	1732313	0.0-25.35-0.35	beast_fmri_test	384	1731811,/	t	<div class = centerbox2><div class = fixation>+</div></div>	none	500.0	test	n/a	n/a	n/a	n/a	n/a	n/a	n/a	n/a	n/a	n/a	n/a	n/a	n/a	n/a	n/a	n/a	n/a	n/a	fixation
158244.17872600001	2750	n/a	2426	89	2750	1388.821274	stim	stop-signal	654	1735065	0.0-25.35-1.35	beast_fmri_test	384	1732480,/,1733161,/,1733841,/,1734521,/,1735201,/,1735881,/	t,t,t,t,t,t	<img class = center src='/static/experiments/beast_fmri_test/images/V.png'></img>	71,89	2750.0	test	<img class = center src='/static/experiments/beast_fmri_test/images/redV.png'></img>	go	1250.0	1.0	35.0	go	non-target	V	71,Index Finger	89,Middle Finger	1500.0	1500.0	1300.0	1250.0	1.0	1500.0	1.0	n/a	go_stim
160994.17872600001	1388.8212740000001	n/a	2426	89	2750	1388.821274	stim	stop-signal	654	1735065	0.0-25.35-1.35	beast_fmri_test	384	1732480,/,1733161,/,1733841,/,1734521,/,1735201,/,1735881,/	t,t,t,t,t,t	<img class = center src='/static/experiments/beast_fmri_test/images/V.png'></img>	71,89	2750.0	test	<img class = center src='/static/experiments/beast_fmri_test/images/redV.png'></img>	go	1250.0	1.0	35.0	go	non-target	V	71,Index Finger	89,Middle Finger	1500.0	1500.0	1300.0	1250.0	1.0	1500.0	1.0	n/a	ITI
164290	500	n/a	-1	-1	500	0.0	fixation	poldrack-single-stim	655	1736972	0.0-25.36-0.36	beast_fmri_test	384	1736562,/	t	<div class = centerbox2><div class = fixation>+</div></div>	none	500.0	test	n/a	n/a	n/a	n/a	n/a	n/a	n/a	n/a	n/a	n/a	n/a	n/a	n/a	n/a	n/a	n/a	n/a	n/a	fixation
164288.17162285699	2750	n/a	2174	71	2750	3.828377143	stim	stop-signal	656	1739724	0.0-25.36-1.36	beast_fmri_test	384	1737241,/,1737921,/,1738602,/,1739282,/	t,t,t,t	<img class = center src='/static/experiments/beast_fmri_test/images/V.png'></img>	71,89	2750.0	test	<img class = center src='/static/experiments/beast_fmri_test/images/redV.png'></img>	go	1250.0	1.0	36.0	go	target	V	71,Index Finger	89,Middle Finger	1500.0	1500.0	1250.0	1250.0	1.0	1500.0	1.0	n/a	go_stim
167038.17162285699	3.828377143	n/a	2174	71	2750	3.828377143	stim	stop-signal	656	1739724	0.0-25.36-1.36	beast_fmri_test	384	1737241,/,1737921,/,1738602,/,1739282,/	t,t,t,t	<img class = center src='/static/experiments/beast_fmri_test/images/V.png'></img>	71,89	2750.0	test	<img class = center src='/static/experiments/beast_fmri_test/images/redV.png'></img>	go	1250.0	1.0	36.0	go	target	V	71,Index Finger	89,Middle Finger	1500.0	1500.0	1250.0	1250.0	1.0	1500.0	1.0	n/a	ITI
167566	500	n/a	-1	-1	500	0.0	fixation	poldrack-single-stim	657	1740248	0.0-25.37-0.37	beast_fmri_test	384	1739962,/	t	<div class = centerbox2><div class = fixation>+</div></div>	none	500.0	test	n/a	n/a	n/a	n/a	n/a	n/a	n/a	n/a	n/a	n/a	n/a	n/a	n/a	n/a	n/a	n/a	n/a	n/a	fixation
167206.22311779996	2750	n/a	2359	89	2750	362.7768822	stim	stop-signal	658	1743001	0.0-25.37-1.37	beast_fmri_test	384	1740641,/,1741321,/,1742002,/,1742681,/,1743361,/	t,t,t,t,t	<img class = center src='/static/experiments/beast_fmri_test/images/B.png'></img>	71,89	2750.0	test	<img class = center src='/static/experiments/beast_fmri_test/images/redB.png'></img>	go	1250.0	1.0	37.0	go	non-target	B	71,Index Finger	89,Middle Finger	1500.0	1500.0	1250.0	1250.0	1.0	1500.0	1.0	n/a	go_stim
169956.22311779996	362.77688219999999	n/a	2359	89	2750	362.7768822	stim	stop-signal	658	1743001	0.0-25.37-1.37	beast_fmri_test	384	1740641,/,1741321,/,1742002,/,1742681,/,1743361,/	t,t,t,t,t	<img class = center src='/static/experiments/beast_fmri_test/images/B.png'></img>	71,89	2750.0	test	<img class = center src='/static/experiments/beast_fmri_test/images/redB.png'></img>	go	1250.0	1.0	37.0	go	non-target	B	71,Index Finger	89,Middle Finger	1500.0	1500.0	1250.0	1250.0	1.0	1500.0	1.0	n/a	ITI
171199	500	n/a	-1	-1	500	0.0	fixation	poldrack-single-stim	659	1743881	0.0-25.38-0.38	beast_fmri_test	384	n/a	n/a	<div class = centerbox2><div class = fixation>+</div></div>	none	500.0	test	n/a	n/a	n/a	n/a	n/a	n/a	n/a	n/a	n/a	n/a	n/a	n/a	n/a	n/a	n/a	n/a	n/a	n/a	fixation
171093.29007370002	2750	n/a	1995	89	2750	107.7099263	stim	stop-signal	660	1746633	0.0-25.38-1.38	beast_fmri_test	384	1744042,/,1744722,/,1745401,/,1746081,/	t,t,t,t	<img class = center src='/static/experiments/beast_fmri_test/images/P.png'></img>	71,89	2750.0	test	<img class = center src='/static/experiments/beast_fmri_test/images/redP.png'></img>	go	1250.0	1.0	38.0	go	non-target	P	71,Index Finger	89,Middle Finger	1500.0	1500.0	1250.0	1250.0	1.0	1500.0	1.0	n/a	go_stim
173843.29007370002	107.70992630000001	n/a	1995	89	2750	107.7099263	stim	stop-signal	660	1746633	0.0-25.38-1.38	beast_fmri_test	384	1744042,/,1744722,/,1745401,/,1746081,/	t,t,t,t	<img class = center src='/static/experiments/beast_fmri_test/images/P.png'></img>	71,89	2750.0	test	<img class = center src='/static/experiments/beast_fmri_test/images/redP.png'></img>	go	1250.0	1.0	38.0	go	non-target	P	71,Index Finger	89,Middle Finger	1500.0	1500.0	1250.0	1250.0	1.0	1500.0	1.0	n/a	ITI
174580	500	n/a	-1	-1	500	0.0	fixation	poldrack-single-stim	661	1747262	0.0-25.39-0.39	beast_fmri_test	384	1746761,/	t	<div class = centerbox2><div class = fixation>+</div></div>	none	500.0	test	n/a	n/a	n/a	n/a	n/a	n/a	n/a	n/a	n/a	n/a	n/a	n/a	n/a	n/a	n/a	n/a	n/a	n/a	fixation
174525.40442050993	2750	n/a	1638	89	2750	56.59557949	stim	stop-signal	662	1750014	0.0-25.39-1.39	beast_fmri_test	384	1747441,/,1748121,/,1748801,/,1749481,/	t,t,t,t	<img class = center src='/static/experiments/beast_fmri_test/images/T.png'></img>	71,89	2750.0	test	<img class = center src='/static/experiments/beast_fmri_test/images/redT.png'></img>	go	1250.0	1.0	39.0	go	non-target	T	71,Index Finger	89,Middle Finger	1500.0	1500.0	1250.0	1250.0	1.0	1500.0	1.0	n/a	go_stim
177275.40442050993	56.595579489999999	n/a	1638	89	2750	56.59557949	stim	stop-signal	662	1750014	0.0-25.39-1.39	beast_fmri_test	384	1747441,/,1748121,/,1748801,/,1749481,/	t,t,t,t	<img class = center src='/static/experiments/beast_fmri_test/images/T.png'></img>	71,89	2750.0	test	<img class = center src='/static/experiments/beast_fmri_test/images/redT.png'></img>	go	1250.0	1.0	39.0	go	non-target	T	71,Index Finger	89,Middle Finger	1500.0	1500.0	1250.0	1250.0	1.0	1500.0	1.0	n/a	ITI
177907	500	n/a	-1	-1	500	0.0	fixation	poldrack-single-stim	663	1750589	0.0-25.40-0.40	beast_fmri_test	384	1750161,/	t	<div class = centerbox2><div class = fixation>+</div></div>	none	500.0	test	n/a	n/a	n/a	n/a	n/a	n/a	n/a	n/a	n/a	n/a	n/a	n/a	n/a	n/a	n/a	n/a	n/a	n/a	fixation
174632.82808599994	2750	n/a	2139	71	2750	3277.171914	stim	stop-signal	664	1753342	0.0-25.40-1.40	beast_fmri_test	384	1750841,/,1751521,/,1752201,/,1752881,/,1753561,/,1754241,/,1754922,/,1755601,/,1756281,/	t,t,t,t,t,t,t,t,t	<img class = center src='/static/experiments/beast_fmri_test/images/T.png'></img>	71,89	2750.0	test	<img class = center src='/static/experiments/beast_fmri_test/images/redT.png'></img>	go	1250.0	1.0	40.0	go	target	T	71,Index Finger	89,Middle Finger	1500.0	1500.0	1250.0	1250.0	1.0	1500.0	1.0	n/a	go_stim
177382.82808599994	3277.171914	n/a	2139	71	2750	3277.171914	stim	stop-signal	664	1753342	0.0-25.40-1.40	beast_fmri_test	384	1750841,/,1751521,/,1752201,/,1752881,/,1753561,/,1754241,/,1754922,/,1755601,/,1756281,/	t,t,t,t,t,t,t,t,t	<img class = center src='/static/experiments/beast_fmri_test/images/T.png'></img>	71,89	2750.0	test	<img class = center src='/static/experiments/beast_fmri_test/images/redT.png'></img>	go	1250.0	1.0	40.0	go	target	T	71,Index Finger	89,Middle Finger	1500.0	1500.0	1250.0	1250.0	1.0	1500.0	1.0	n/a	ITI
184460	500	n/a	-1	-1	500	0.0	fixation	poldrack-single-stim	665	1757142	0.0-25.41-0.41	beast_fmri_test	384	1756961,/	t	<div class = centerbox2><div class = fixation>+</div></div>	none	500.0	test	n/a	n/a	n/a	n/a	n/a	n/a	n/a	n/a	n/a	n/a	n/a	n/a	n/a	n/a	n/a	n/a	n/a	n/a	fixation
183706.45505920006	2750	n/a	2078	89	2750	755.5449408	stim	stop-signal	666	1759894	0.0-25.41-1.41	beast_fmri_test	384	1757641,/,1758321,/,1759001,/,1759681,/,1760361,/	t,t,t,t,t	<img class = center src='/static/experiments/beast_fmri_test/images/B.png'></img>	71,89	2750.0	test	<img class = center src='/static/experiments/beast_fmri_test/images/redB.png'></img>	go	1250.0	1.0	41.0	go	non-target	B	71,Index Finger	89,Middle Finger	1500.0	1500.0	1250.0	1250.0	1.0	1500.0	1.0	n/a	go_stim
186456.45505920006	755.54494079999995	n/a	2078	89	2750	755.5449408	stim	stop-signal	666	1759894	0.0-25.41-1.41	beast_fmri_test	384	1757641,/,1758321,/,1759001,/,1759681,/,1760361,/	t,t,t,t,t	<img class = center src='/static/experiments/beast_fmri_test/images/B.png'></img>	71,89	2750.0	test	<img class = center src='/static/experiments/beast_fmri_test/images/redB.png'></img>	go	1250.0	1.0	41.0	go	non-target	B	71,Index Finger	89,Middle Finger	1500.0	1500.0	1250.0	1250.0	1.0	1500.0	1.0	n/a	ITI
188488	500	n/a	-1	-1	500	0.0	fixation	poldrack-single-stim	667	1761170	0.0-25.42-0.42	beast_fmri_test	384	1761041,/	t	<div class = centerbox2><div class = fixation>+</div></div>	none	500.0	test	n/a	n/a	n/a	n/a	n/a	n/a	n/a	n/a	n/a	n/a	n/a	n/a	n/a	n/a	n/a	n/a	n/a	n/a	fixation
186341.15245099994	2750	n/a	2249	71	2750	2148.847549	stim	stop-signal	668	1763922	0.0-25.42-1.42	beast_fmri_test	384	1761721,/,1762401,/,1763081,/,1763761,/,1764441,/,1765122,/,1765801,/	t,t,t,t,t,t,t	<img class = center src='/static/experiments/beast_fmri_test/images/B.png'></img>	71,89	2750.0	test	<img class = center src='/static/experiments/beast_fmri_test/images/redB.png'></img>	go	1250.0	1.0	42.0	go	target	B	71,Index Finger	89,Middle Finger	1500.0	1500.0	1250.0	1250.0	1.0	1500.0	1.0	n/a	go_stim
189091.15245099994	2148.8475489999996	n/a	2249	71	2750	2148.847549	stim	stop-signal	668	1763922	0.0-25.42-1.42	beast_fmri_test	384	1761721,/,1762401,/,1763081,/,1763761,/,1764441,/,1765122,/,1765801,/	t,t,t,t,t,t,t	<img class = center src='/static/experiments/beast_fmri_test/images/B.png'></img>	71,89	2750.0	test	<img class = center src='/static/experiments/beast_fmri_test/images/redB.png'></img>	go	1250.0	1.0	42.0	go	target	B	71,Index Finger	89,Middle Finger	1500.0	1500.0	1250.0	1250.0	1.0	1500.0	1.0	n/a	ITI
193907	500	n/a	-1	-1	500	0.0	fixation	poldrack-single-stim	669	1766589	0.0-25.43-0.43	beast_fmri_test	384	1766480,/	t	<div class = centerbox2><div class = fixation>+</div></div>	none	500.0	test	n/a	n/a	n/a	n/a	n/a	n/a	n/a	n/a	n/a	n/a	n/a	n/a	n/a	n/a	n/a	n/a	n/a	n/a	fixation
193295.24105200008	2750	n/a	2340	89	2750	614.758948	stim	stop-signal	670	1769342	0.0-25.43-1.43	beast_fmri_test	384	1767161,/,1767842,/,1768521,/,1769200,/,1769881,/	t,t,t,t,t	<img class = center src='/static/experiments/beast_fmri_test/images/D.png'></img>	71,89	2750.0	test	<img class = center src='/static/experiments/beast_fmri_test/images/redD.png'></img>	go	1250.0	1.0	43.0	go	non-target	D	71,Index Finger	89,Middle Finger	1500.0	1500.0	1250.0	1250.0	1.0	1500.0	1.0	n/a	go_stim
196045.24105200008	614.75894800000003	n/a	2340	89	2750	614.758948	stim	stop-signal	670	1769342	0.0-25.43-1.43	beast_fmri_test	384	1767161,/,1767842,/,1768521,/,1769200,/,1769881,/	t,t,t,t,t	<img class = center src='/static/experiments/beast_fmri_test/images/D.png'></img>	71,89	2750.0	test	<img class = center src='/static/experiments/beast_fmri_test/images/redD.png'></img>	go	1250.0	1.0	43.0	go	non-target	D	71,Index Finger	89,Middle Finger	1500.0	1500.0	1250.0	1250.0	1.0	1500.0	1.0	n/a	ITI
197795	500	n/a	-1	-1	500	0.0	fixation	poldrack-single-stim	671	1770477	0.0-25.44-0.44	beast_fmri_test	384	n/a	n/a	<div class = centerbox2><div class = fixation>+</div></div>	none	500.0	test	n/a	n/a	n/a	n/a	n/a	n/a	n/a	n/a	n/a	n/a	n/a	n/a	n/a	n/a	n/a	n/a	n/a	n/a	fixation
196676.84528400004	1500.0	n/a	-1	-1	2750	1121.154716	stim	stop-signal	672	1773230	0.0-25.44-1.44	beast_fmri_test	384	1770562,/,1771241,/,1771922,/,1772601,/,1773282,/,1773961,/	t,t,t,t,t,t	<img class = center src='/static/experiments/beast_fmri_test/images/D.png'></img>	71,89	2750.0	test	<img class = center src='/static/experiments/beast_fmri_test/images/redD.png'></img>	stop	1250.0	1.0	44.0	stop	target	D	71,Index Finger	89,Middle Finger	1500.0	1500.0	1250.0	1250.0	0.0	1500.0	n/a	1.0	go_stim
197926.84528400004	1250.0	n/a	-1	-1	2750	1121.154716	stim	stop-signal	672	1773230	0.0-25.44-1.44	beast_fmri_test	384	1770562,/,1771241,/,1771922,/,1772601,/,1773282,/,1773961,/	t,t,t,t,t,t	<img class = center src='/static/experiments/beast_fmri_test/images/D.png'></img>	71,89	2750.0	test	<img class = center src='/static/experiments/beast_fmri_test/images/redD.png'></img>	stop	1250.0	1.0	44.0	stop	target	D	71,Index Finger	89,Middle Finger	1500.0	1500.0	1250.0	1250.0	0.0	1500.0	n/a	1.0	stop_stim
199426.84528400004	1121.154716	n/a	-1	-1	2750	1121.154716	stim	stop-signal	672	1773230	0.0-25.44-1.44	beast_fmri_test	384	1770562,/,1771241,/,1771922,/,1772601,/,1773282,/,1773961,/	t,t,t,t,t,t	<img class = center src='/static/experiments/beast_fmri_test/images/D.png'></img>	71,89	2750.0	test	<img class = center src='/static/experiments/beast_fmri_test/images/redD.png'></img>	stop	1250.0	1.0	44.0	stop	target	D	71,Index Finger	89,Middle Finger	1500.0	1500.0	1250.0	1250.0	0.0	1500.0	n/a	1.0	ITI
202190	500	n/a	-1	-1	500	0.0	fixation	poldrack-single-stim	673	1774872	0.0-25.45-0.45	beast_fmri_test	384	1774642,/	t	<div class = centerbox2><div class = fixation>+</div></div>	none	500.0	test	n/a	n/a	n/a	n/a	n/a	n/a	n/a	n/a	n/a	n/a	n/a	n/a	n/a	n/a	n/a	n/a	n/a	n/a	fixation
200816.34213700006	1500.0	n/a	-1	-1	2750	1375.657863	stim	stop-signal	674	1777624	0.0-25.45-1.45	beast_fmri_test	384	1775322,/,1776001,/,1776681,/,1777361,/,1778041,/,1778721,/	t,t,t,t,t,t	<img class = center src='/static/experiments/beast_fmri_test/images/V.png'></img>	71,89	2750.0	test	<img class = center src='/static/experiments/beast_fmri_test/images/redV.png'></img>	stop	1250.0	1.0	45.0	stop	non-target	V	71,Index Finger	89,Middle Finger	1500.0	1500.0	1250.0	1250.0	0.0	1500.0	n/a	1.0	go_stim
202066.34213700006	1250.0	n/a	-1	-1	2750	1375.657863	stim	stop-signal	674	1777624	0.0-25.45-1.45	beast_fmri_test	384	1775322,/,1776001,/,1776681,/,1777361,/,1778041,/,1778721,/	t,t,t,t,t,t	<img class = center src='/static/experiments/beast_fmri_test/images/V.png'></img>	71,89	2750.0	test	<img class = center src='/static/experiments/beast_fmri_test/images/redV.png'></img>	stop	1250.0	1.0	45.0	stop	non-target	V	71,Index Finger	89,Middle Finger	1500.0	1500.0	1250.0	1250.0	0.0	1500.0	n/a	1.0	stop_stim
203566.34213700006	1375.6578630000001	n/a	-1	-1	2750	1375.657863	stim	stop-signal	674	1777624	0.0-25.45-1.45	beast_fmri_test	384	1775322,/,1776001,/,1776681,/,1777361,/,1778041,/,1778721,/	t,t,t,t,t,t	<img class = center src='/static/experiments/beast_fmri_test/images/V.png'></img>	71,89	2750.0	test	<img class = center src='/static/experiments/beast_fmri_test/images/redV.png'></img>	stop	1250.0	1.0	45.0	stop	non-target	V	71,Index Finger	89,Middle Finger	1500.0	1500.0	1250.0	1250.0	0.0	1500.0	n/a	1.0	ITI
221337	15000	n/a	-1	-1	15000	0.0	practice-no-stop-feedback	poldrack-single-stim	675	1794019	0.0-26.0	beast_fmri_test	384	1779401,/,1780081,/,1780761,/,1781441,/,1782121,/,1782801,/,1783481,/,1784161,/,1784841,/,1785522,/,1786201,/,1786881,/,1787561,/,1788241,/,1788921,/,1789601,/,1790281,/,1790961,/,1791641,/,1792321,/,1793001,/,1793681,/	t,t,t,t,t,t,t,t,t,t,t,t,t,t,t,t,t,t,t,t,t,t	"<div class = ""centerbox2_2""><p class = ""block-text2"">Your delay is 2 trials.</p><p class = block-text2>Please wait for the scanner to start the block</p></div>"	77	15000.0	n/a	n/a	n/a	n/a	n/a	n/a	n/a	n/a	n/a	n/a	n/a	n/a	n/a	n/a	n/a	n/a	n/a	n/a	n/a	practice-no-stop-feedback
221838	500	n/a	-1	-1	500	0.0	fixation	poldrack-single-stim	676	1794520	0.0-27.0-0.0	beast_fmri_test	384	1794361,/	t	<div class = centerbox2><div class = fixation>+</div></div>	none	500.0	test	n/a	n/a	n/a	n/a	n/a	n/a	n/a	n/a	n/a	n/a	n/a	n/a	n/a	n/a	n/a	n/a	n/a	n/a	fixation
220933.73391459999	2750	n/a	1600	89	2750	906.2660854	stim	stop-signal	677	1797272	0.0-27.0-1.0	beast_fmri_test	384	1795041,/,1795721,/,1796400,/,1797081,/,1797760,/	t,t,t,t,t	<img class = center src='/static/experiments/beast_fmri_test/images/V.png'></img>	71,89	2750.0	test	<img class = center src='/static/experiments/beast_fmri_test/images/redV.png'></img>	go	-1.0	2.0	0.0	go	temp-non-target	V	71,Index Finger	89,Middle Finger	1500.0	1500.0	1250.0	1250.0	0.0	n/a	n/a	n/a	go_stim
223683.73391459999	906.26608540000007	n/a	1600	89	2750	906.2660854	stim	stop-signal	677	1797272	0.0-27.0-1.0	beast_fmri_test	384	1795041,/,1795721,/,1796400,/,1797081,/,1797760,/	t,t,t,t,t	<img class = center src='/static/experiments/beast_fmri_test/images/V.png'></img>	71,89	2750.0	test	<img class = center src='/static/experiments/beast_fmri_test/images/redV.png'></img>	go	-1.0	2.0	0.0	go	temp-non-target	V	71,Index Finger	89,Middle Finger	1500.0	1500.0	1250.0	1250.0	0.0	n/a	n/a	n/a	ITI
226018	500	n/a	-1	-1	500	0.0	fixation	poldrack-single-stim	678	1798700	0.0-27.1-0.1	beast_fmri_test	384	1798440,/	t	<div class = centerbox2><div class = fixation>+</div></div>	none	500.0	test	n/a	n/a	n/a	n/a	n/a	n/a	n/a	n/a	n/a	n/a	n/a	n/a	n/a	n/a	n/a	n/a	n/a	n/a	fixation
225911.1237917	2750	n/a	1404	89	2750	108.8762083	stim	stop-signal	679	1801452	0.0-27.1-1.1	beast_fmri_test	384	1799121,/,1799801,/,1800481,/,1801161,/	t,t,t,t	<img class = center src='/static/experiments/beast_fmri_test/images/V.png'></img>	71,89	2750.0	test	<img class = center src='/static/experiments/beast_fmri_test/images/redV.png'></img>	go	-1.0	2.0	1.0	go	temp-non-target	V	71,Index Finger	89,Middle Finger	1500.0	1500.0	1250.0	1250.0	0.0	n/a	n/a	n/a	go_stim
228661.1237917	108.87620829999999	n/a	1404	89	2750	108.8762083	stim	stop-signal	679	1801452	0.0-27.1-1.1	beast_fmri_test	384	1799121,/,1799801,/,1800481,/,1801161,/	t,t,t,t	<img class = center src='/static/experiments/beast_fmri_test/images/V.png'></img>	71,89	2750.0	test	<img class = center src='/static/experiments/beast_fmri_test/images/redV.png'></img>	go	-1.0	2.0	1.0	go	temp-non-target	V	71,Index Finger	89,Middle Finger	1500.0	1500.0	1250.0	1250.0	0.0	n/a	n/a	n/a	ITI
229399	500	n/a	-1	-1	500	0.0	fixation	poldrack-single-stim	680	1802081	0.0-27.2-0.2	beast_fmri_test	384	1801841,/	t	<div class = centerbox2><div class = fixation>+</div></div>	none	500.0	test	n/a	n/a	n/a	n/a	n/a	n/a	n/a	n/a	n/a	n/a	n/a	n/a	n/a	n/a	n/a	n/a	n/a	n/a	fixation
228397.38223899994	2750	n/a	1629	71	2750	1003.617761	stim	stop-signal	681	1804833	0.0-27.2-1.2	beast_fmri_test	384	1802520,/,1803201,/,1803881,/,1804561,/,1805241,/	t,t,t,t,t	<img class = center src='/static/experiments/beast_fmri_test/images/V.png'></img>	71,89	2750.0	test	<img class = center src='/static/experiments/beast_fmri_test/images/redV.png'></img>	go	1250.0	2.0	2.0	go	target	V	71,Index Finger	89,Middle Finger	1500.0	1500.0	1250.0	1250.0	1.0	1500.0	1.0	n/a	go_stim
231147.38223899994	1003.617761	n/a	1629	71	2750	1003.617761	stim	stop-signal	681	1804833	0.0-27.2-1.2	beast_fmri_test	384	1802520,/,1803201,/,1803881,/,1804561,/,1805241,/	t,t,t,t,t	<img class = center src='/static/experiments/beast_fmri_test/images/V.png'></img>	71,89	2750.0	test	<img class = center src='/static/experiments/beast_fmri_test/images/redV.png'></img>	go	1250.0	2.0	2.0	go	target	V	71,Index Finger	89,Middle Finger	1500.0	1500.0	1250.0	1250.0	1.0	1500.0	1.0	n/a	ITI
233678	500	n/a	-1	-1	500	0.0	fixation	poldrack-single-stim	682	1806360	0.0-27.3-0.3	beast_fmri_test	384	1805922,/	t	<div class = centerbox2><div class = fixation>+</div></div>	none	500.0	test	n/a	n/a	n/a	n/a	n/a	n/a	n/a	n/a	n/a	n/a	n/a	n/a	n/a	n/a	n/a	n/a	n/a	n/a	fixation
232043.88564400002	2750	n/a	1670	89	2750	1636.114356	stim	stop-signal	683	1809112	0.0-27.3-1.3	beast_fmri_test	384	1806601,/,1807281,/,1807961,/,1808641,/,1809321,/,1810001,/,1810681,/	t,t,t,t,t,t,t	<img class = center src='/static/experiments/beast_fmri_test/images/T.png'></img>	71,89	2750.0	test	<img class = center src='/static/experiments/beast_fmri_test/images/redT.png'></img>	go	1250.0	2.0	3.0	go	non-target	T	71,Index Finger	89,Middle Finger	1500.0	1500.0	1250.0	1250.0	1.0	1500.0	1.0	n/a	go_stim
234793.88564400002	1636.114356	n/a	1670	89	2750	1636.114356	stim	stop-signal	683	1809112	0.0-27.3-1.3	beast_fmri_test	384	1806601,/,1807281,/,1807961,/,1808641,/,1809321,/,1810001,/,1810681,/	t,t,t,t,t,t,t	<img class = center src='/static/experiments/beast_fmri_test/images/T.png'></img>	71,89	2750.0	test	<img class = center src='/static/experiments/beast_fmri_test/images/redT.png'></img>	go	1250.0	2.0	3.0	go	non-target	T	71,Index Finger	89,Middle Finger	1500.0	1500.0	1250.0	1250.0	1.0	1500.0	1.0	n/a	ITI
238587	500	n/a	-1	-1	500	0.0	fixation	poldrack-single-stim	684	1811269	0.0-27.4-0.4	beast_fmri_test	384	n/a	n/a	<div class = centerbox2><div class = fixation>+</div></div>	none	500.0	test	n/a	n/a	n/a	n/a	n/a	n/a	n/a	n/a	n/a	n/a	n/a	n/a	n/a	n/a	n/a	n/a	n/a	n/a	fixation
236119.637598	1500.0	n/a	1094	89	2750	2469.362402	stim	stop-signal	685	1814021	0.0-27.4-1.4	beast_fmri_test	384	1811361,/,1812041,/,1812721,/,1813401,/,1814081,/,1814761,/,1815441,/,1816122,/	t,t,t,t,t,t,t,t	<img class = center src='/static/experiments/beast_fmri_test/images/T.png'></img>	71,89	2750.0	test	<img class = center src='/static/experiments/beast_fmri_test/images/redT.png'></img>	stop	1250.0	2.0	4.0	stop	non-target	T	71,Index Finger	89,Middle Finger	1500.0	1500.0	1250.0	1250.0	0.0	1500.0	n/a	0.0	go_stim
237369.637598	1250.0	n/a	1094	89	2750	2469.362402	stim	stop-signal	685	1814021	0.0-27.4-1.4	beast_fmri_test	384	1811361,/,1812041,/,1812721,/,1813401,/,1814081,/,1814761,/,1815441,/,1816122,/	t,t,t,t,t,t,t,t	<img class = center src='/static/experiments/beast_fmri_test/images/T.png'></img>	71,89	2750.0	test	<img class = center src='/static/experiments/beast_fmri_test/images/redT.png'></img>	stop	1250.0	2.0	4.0	stop	non-target	T	71,Index Finger	89,Middle Finger	1500.0	1500.0	1250.0	1250.0	0.0	1500.0	n/a	0.0	stop_stim
238869.637598	2469.3624019999997	n/a	1094	89	2750	2469.362402	stim	stop-signal	685	1814021	0.0-27.4-1.4	beast_fmri_test	384	1811361,/,1812041,/,1812721,/,1813401,/,1814081,/,1814761,/,1815441,/,1816122,/	t,t,t,t,t,t,t,t	<img class = center src='/static/experiments/beast_fmri_test/images/T.png'></img>	71,89	2750.0	test	<img class = center src='/static/experiments/beast_fmri_test/images/redT.png'></img>	stop	1250.0	2.0	4.0	stop	non-target	T	71,Index Finger	89,Middle Finger	1500.0	1500.0	1250.0	1250.0	0.0	1500.0	n/a	0.0	ITI
244330	500	n/a	-1	-1	500	0.0	fixation	poldrack-single-stim	686	1817012	0.0-27.5-0.5	beast_fmri_test	384	1816801,/	t	<div class = centerbox2><div class = fixation>+</div></div>	none	500.0	test	n/a	n/a	n/a	n/a	n/a	n/a	n/a	n/a	n/a	n/a	n/a	n/a	n/a	n/a	n/a	n/a	n/a	n/a	fixation
243242.19643000001	1500.0	n/a	1740	89	2750	1089.80357	stim	stop-signal	687	1819764	0.0-27.5-1.5	beast_fmri_test	384	1817481,/,1818161,/,1818841,/,1819521,/,1820201,/	t,t,t,t,t	<img class = center src='/static/experiments/beast_fmri_test/images/T.png'></img>	71,89	2750.0	test	<img class = center src='/static/experiments/beast_fmri_test/images/redT.png'></img>	stop	1250.0	2.0	5.0	stop	target	T	71,Index Finger	89,Middle Finger	1500.0	1450.0	1250.0	1250.0	0.0	1500.0	n/a	0.0	go_stim
244492.19643000001	1250.0	n/a	1740	89	2750	1089.80357	stim	stop-signal	687	1819764	0.0-27.5-1.5	beast_fmri_test	384	1817481,/,1818161,/,1818841,/,1819521,/,1820201,/	t,t,t,t,t	<img class = center src='/static/experiments/beast_fmri_test/images/T.png'></img>	71,89	2750.0	test	<img class = center src='/static/experiments/beast_fmri_test/images/redT.png'></img>	stop	1250.0	2.0	5.0	stop	target	T	71,Index Finger	89,Middle Finger	1500.0	1450.0	1250.0	1250.0	0.0	1500.0	n/a	0.0	stop_stim
245992.19643000001	1089.80357	n/a	1740	89	2750	1089.80357	stim	stop-signal	687	1819764	0.0-27.5-1.5	beast_fmri_test	384	1817481,/,1818161,/,1818841,/,1819521,/,1820201,/	t,t,t,t,t	<img class = center src='/static/experiments/beast_fmri_test/images/T.png'></img>	71,89	2750.0	test	<img class = center src='/static/experiments/beast_fmri_test/images/redT.png'></img>	stop	1250.0	2.0	5.0	stop	target	T	71,Index Finger	89,Middle Finger	1500.0	1450.0	1250.0	1250.0	0.0	1500.0	n/a	0.0	ITI
248692	500	n/a	-1	-1	500	0.0	fixation	poldrack-single-stim	688	1821374	0.0-27.6-0.6	beast_fmri_test	384	1820880,/	t	<div class = centerbox2><div class = fixation>+</div></div>	none	500.0	test	n/a	n/a	n/a	n/a	n/a	n/a	n/a	n/a	n/a	n/a	n/a	n/a	n/a	n/a	n/a	n/a	n/a	n/a	fixation
248170.69213650003	2750	n/a	1836	89	2750	523.3078635	stim	stop-signal	689	1824126	0.0-27.6-1.6	beast_fmri_test	384	1821561,/,1822241,/,1822921,/,1823601,/,1824281,/	t,t,t,t,t	<img class = center src='/static/experiments/beast_fmri_test/images/D.png'></img>	71,89	2750.0	test	<img class = center src='/static/experiments/beast_fmri_test/images/redD.png'></img>	go	1300.0	2.0	6.0	go	non-target	D	71,Index Finger	89,Middle Finger	1450.0	1450.0	1250.0	1300.0	1.0	1450.0	1.0	n/a	go_stim
250920.69213650003	523.30786349999994	n/a	1836	89	2750	523.3078635	stim	stop-signal	689	1824126	0.0-27.6-1.6	beast_fmri_test	384	1821561,/,1822241,/,1822921,/,1823601,/,1824281,/	t,t,t,t,t	<img class = center src='/static/experiments/beast_fmri_test/images/D.png'></img>	71,89	2750.0	test	<img class = center src='/static/experiments/beast_fmri_test/images/redD.png'></img>	go	1300.0	2.0	6.0	go	non-target	D	71,Index Finger	89,Middle Finger	1450.0	1450.0	1250.0	1300.0	1.0	1450.0	1.0	n/a	ITI
252489	500	n/a	-1	-1	500	0.0	fixation	poldrack-single-stim	690	1825171	0.0-27.7-0.7	beast_fmri_test	384	1824961,/	t	<div class = centerbox2><div class = fixation>+</div></div>	none	500.0	test	n/a	n/a	n/a	n/a	n/a	n/a	n/a	n/a	n/a	n/a	n/a	n/a	n/a	n/a	n/a	n/a	n/a	n/a	fixation
251025.32190399989	2750	n/a	2149	89	2750	1465.678096	stim	stop-signal	691	1827923	0.0-27.7-1.7	beast_fmri_test	384	1825641,/,1826322,/,1827001,/,1827681,/,1828361,/,1829041,/	t,t,t,t,t,t	<img class = center src='/static/experiments/beast_fmri_test/images/B.png'></img>	71,89	2750.0	test	<img class = center src='/static/experiments/beast_fmri_test/images/redB.png'></img>	go	1300.0	2.0	7.0	go	non-target	B	71,Index Finger	89,Middle Finger	1450.0	1450.0	1250.0	1300.0	1.0	1450.0	1.0	n/a	go_stim
253775.32190399989	1465.6780960000001	n/a	2149	89	2750	1465.678096	stim	stop-signal	691	1827923	0.0-27.7-1.7	beast_fmri_test	384	1825641,/,1826322,/,1827001,/,1827681,/,1828361,/,1829041,/	t,t,t,t,t,t	<img class = center src='/static/experiments/beast_fmri_test/images/B.png'></img>	71,89	2750.0	test	<img class = center src='/static/experiments/beast_fmri_test/images/redB.png'></img>	go	1300.0	2.0	7.0	go	non-target	B	71,Index Finger	89,Middle Finger	1450.0	1450.0	1250.0	1300.0	1.0	1450.0	1.0	n/a	ITI
257229	500	n/a	-1	-1	500	0.0	fixation	poldrack-single-stim	692	1829911	0.0-27.8-0.8	beast_fmri_test	384	1829721,/	t	<div class = centerbox2><div class = fixation>+</div></div>	none	500.0	test	n/a	n/a	n/a	n/a	n/a	n/a	n/a	n/a	n/a	n/a	n/a	n/a	n/a	n/a	n/a	n/a	n/a	n/a	fixation
255289.65978299989	2750	n/a	1910	71	2750	1941.340217	stim	stop-signal	693	1832663	0.0-27.8-1.8	beast_fmri_test	384	1830401,/,1831081,/,1831761,/,1832441,/,1833121,/,1833800,/,1834480,/	t,t,t,t,t,t,t	<img class = center src='/static/experiments/beast_fmri_test/images/D.png'></img>	71,89	2750.0	test	<img class = center src='/static/experiments/beast_fmri_test/images/redD.png'></img>	go	1300.0	2.0	8.0	go	target	D	71,Index Finger	89,Middle Finger	1450.0	1450.0	1300.0	1300.0	1.0	1450.0	1.0	n/a	go_stim
258039.65978299989	1941.3402170000002	n/a	1910	71	2750	1941.340217	stim	stop-signal	693	1832663	0.0-27.8-1.8	beast_fmri_test	384	1830401,/,1831081,/,1831761,/,1832441,/,1833121,/,1833800,/,1834480,/	t,t,t,t,t,t,t	<img class = center src='/static/experiments/beast_fmri_test/images/D.png'></img>	71,89	2750.0	test	<img class = center src='/static/experiments/beast_fmri_test/images/redD.png'></img>	go	1300.0	2.0	8.0	go	target	D	71,Index Finger	89,Middle Finger	1450.0	1450.0	1300.0	1300.0	1.0	1450.0	1.0	n/a	ITI
262442	500	n/a	-1	-1	500	0.0	fixation	poldrack-single-stim	694	1835124	0.0-27.9-0.9	beast_fmri_test	384	n/a	n/a	<div class = centerbox2><div class = fixation>+</div></div>	none	500.0	test	n/a	n/a	n/a	n/a	n/a	n/a	n/a	n/a	n/a	n/a	n/a	n/a	n/a	n/a	n/a	n/a	n/a	n/a	fixation
261318.98621	1450.0	n/a	-1	-1	2750	1125.01379	stim	stop-signal	695	1837876	0.0-27.9-1.9	beast_fmri_test	384	1835162,/,1835842,/,1836523,/,1837202,/,1837882,/,1838562,/	t,t,t,t,t,t	<img class = center src='/static/experiments/beast_fmri_test/images/T.png'></img>	71,89	2750.0	test	<img class = center src='/static/experiments/beast_fmri_test/images/redT.png'></img>	stop	1300.0	2.0	9.0	stop	non-target	T	71,Index Finger	89,Middle Finger	1450.0	1450.0	1300.0	1300.0	0.0	1450.0	n/a	1.0	go_stim
262618.98621	1300.0	n/a	-1	-1	2750	1125.01379	stim	stop-signal	695	1837876	0.0-27.9-1.9	beast_fmri_test	384	1835162,/,1835842,/,1836523,/,1837202,/,1837882,/,1838562,/	t,t,t,t,t,t	<img class = center src='/static/experiments/beast_fmri_test/images/T.png'></img>	71,89	2750.0	test	<img class = center src='/static/experiments/beast_fmri_test/images/redT.png'></img>	stop	1300.0	2.0	9.0	stop	non-target	T	71,Index Finger	89,Middle Finger	1450.0	1450.0	1300.0	1300.0	0.0	1450.0	n/a	1.0	stop_stim
264068.98621	1125.01379	n/a	-1	-1	2750	1125.01379	stim	stop-signal	695	1837876	0.0-27.9-1.9	beast_fmri_test	384	1835162,/,1835842,/,1836523,/,1837202,/,1837882,/,1838562,/	t,t,t,t,t,t	<img class = center src='/static/experiments/beast_fmri_test/images/T.png'></img>	71,89	2750.0	test	<img class = center src='/static/experiments/beast_fmri_test/images/redT.png'></img>	stop	1300.0	2.0	9.0	stop	non-target	T	71,Index Finger	89,Middle Finger	1450.0	1450.0	1300.0	1300.0	0.0	1450.0	n/a	1.0	ITI
266843	500	n/a	-1	-1	500	0.0	fixation	poldrack-single-stim	696	1839525	0.0-27.10-0.10	beast_fmri_test	384	1839241,/	t	<div class = centerbox2><div class = fixation>+</div></div>	none	500.0	test	n/a	n/a	n/a	n/a	n/a	n/a	n/a	n/a	n/a	n/a	n/a	n/a	n/a	n/a	n/a	n/a	n/a	n/a	fixation
266111.42810550006	1500.0	n/a	-1	-1	2750	733.5718945	stim	stop-signal	697	1842277	0.0-27.10-1.10	beast_fmri_test	384	1839922,/,1840602,/,1841282,/,1841962,/,1842642,/	t,t,t,t,t	<img class = center src='/static/experiments/beast_fmri_test/images/T.png'></img>	71,89	2750.0	test	<img class = center src='/static/experiments/beast_fmri_test/images/redT.png'></img>	stop	1250.0	2.0	10.0	stop	non-target	T	71,Index Finger	89,Middle Finger	1450.0	1500.0	1300.0	1250.0	0.0	1500.0	n/a	1.0	go_stim
267361.42810550006	1250.0	n/a	-1	-1	2750	733.5718945	stim	stop-signal	697	1842277	0.0-27.10-1.10	beast_fmri_test	384	1839922,/,1840602,/,1841282,/,1841962,/,1842642,/	t,t,t,t,t	<img class = center src='/static/experiments/beast_fmri_test/images/T.png'></img>	71,89	2750.0	test	<img class = center src='/static/experiments/beast_fmri_test/images/redT.png'></img>	stop	1250.0	2.0	10.0	stop	non-target	T	71,Index Finger	89,Middle Finger	1450.0	1500.0	1300.0	1250.0	0.0	1500.0	n/a	1.0	stop_stim
268861.42810550006	733.57189449999998	n/a	-1	-1	2750	733.5718945	stim	stop-signal	697	1842277	0.0-27.10-1.10	beast_fmri_test	384	1839922,/,1840602,/,1841282,/,1841962,/,1842642,/	t,t,t,t,t	<img class = center src='/static/experiments/beast_fmri_test/images/T.png'></img>	71,89	2750.0	test	<img class = center src='/static/experiments/beast_fmri_test/images/redT.png'></img>	stop	1250.0	2.0	10.0	stop	non-target	T	71,Index Finger	89,Middle Finger	1450.0	1500.0	1300.0	1250.0	0.0	1500.0	n/a	1.0	ITI
270850	500	n/a	-1	-1	500	0.0	fixation	poldrack-single-stim	698	1843532	0.0-27.11-0.11	beast_fmri_test	384	1843321,/	t	<div class = centerbox2><div class = fixation>+</div></div>	none	500.0	test	n/a	n/a	n/a	n/a	n/a	n/a	n/a	n/a	n/a	n/a	n/a	n/a	n/a	n/a	n/a	n/a	n/a	n/a	fixation
270683.47929259995	2750	n/a	1303	71	2750	168.5207074	stim	stop-signal	699	1846284	0.0-27.11-1.11	beast_fmri_test	384	1844001,/,1844681,/,1845361,/,1846041,/	t,t,t,t	<img class = center src='/static/experiments/beast_fmri_test/images/T.png'></img>	71,89	2750.0	test	<img class = center src='/static/experiments/beast_fmri_test/images/redT.png'></img>	go	1300.0	2.0	11.0	go	target	T	71,Index Finger	89,Middle Finger	1450.0	1500.0	1300.0	1250.0	1.0	1450.0	1.0	n/a	go_stim
273433.47929259995	168.52070739999999	n/a	1303	71	2750	168.5207074	stim	stop-signal	699	1846284	0.0-27.11-1.11	beast_fmri_test	384	1844001,/,1844681,/,1845361,/,1846041,/	t,t,t,t	<img class = center src='/static/experiments/beast_fmri_test/images/T.png'></img>	71,89	2750.0	test	<img class = center src='/static/experiments/beast_fmri_test/images/redT.png'></img>	go	1300.0	2.0	11.0	go	target	T	71,Index Finger	89,Middle Finger	1450.0	1500.0	1300.0	1250.0	1.0	1450.0	1.0	n/a	ITI
274292	500	n/a	-1	-1	500	0.0	fixation	poldrack-single-stim	700	1846974	0.0-27.12-0.12	beast_fmri_test	384	1846723,/	t	<div class = centerbox2><div class = fixation>+</div></div>	none	500.0	test	n/a	n/a	n/a	n/a	n/a	n/a	n/a	n/a	n/a	n/a	n/a	n/a	n/a	n/a	n/a	n/a	n/a	n/a	fixation
274214.22082347004	1450.0	n/a	-1	-1	2750	78.77917653	stim	stop-signal	701	1849725	0.0-27.12-1.12	beast_fmri_test	384	1847401,/,1848081,/,1848761,/,1849442,/	t,t,t,t	<img class = center src='/static/experiments/beast_fmri_test/images/T.png'></img>	71,89	2750.0	test	<img class = center src='/static/experiments/beast_fmri_test/images/redT.png'></img>	stop	1300.0	2.0	12.0	stop	target	T	71,Index Finger	89,Middle Finger	1450.0	1500.0	1300.0	1250.0	0.0	1450.0	n/a	1.0	go_stim
275514.22082347004	1300.0	n/a	-1	-1	2750	78.77917653	stim	stop-signal	701	1849725	0.0-27.12-1.12	beast_fmri_test	384	1847401,/,1848081,/,1848761,/,1849442,/	t,t,t,t	<img class = center src='/static/experiments/beast_fmri_test/images/T.png'></img>	71,89	2750.0	test	<img class = center src='/static/experiments/beast_fmri_test/images/redT.png'></img>	stop	1300.0	2.0	12.0	stop	target	T	71,Index Finger	89,Middle Finger	1450.0	1500.0	1300.0	1250.0	0.0	1450.0	n/a	1.0	stop_stim
276964.22082347004	78.779176530000001	n/a	-1	-1	2750	78.77917653	stim	stop-signal	701	1849725	0.0-27.12-1.12	beast_fmri_test	384	1847401,/,1848081,/,1848761,/,1849442,/	t,t,t,t	<img class = center src='/static/experiments/beast_fmri_test/images/T.png'></img>	71,89	2750.0	test	<img class = center src='/static/experiments/beast_fmri_test/images/redT.png'></img>	stop	1300.0	2.0	12.0	stop	target	T	71,Index Finger	89,Middle Finger	1450.0	1500.0	1300.0	1250.0	0.0	1450.0	n/a	1.0	ITI
277644	500	n/a	-1	-1	500	0.0	fixation	poldrack-single-stim	702	1850326	0.0-27.13-0.13	beast_fmri_test	384	1850121,/	t	<div class = centerbox2><div class = fixation>+</div></div>	none	500.0	test	n/a	n/a	n/a	n/a	n/a	n/a	n/a	n/a	n/a	n/a	n/a	n/a	n/a	n/a	n/a	n/a	n/a	n/a	fixation
276870.82868889999	2750	n/a	1710	71	2750	775.1713111	stim	stop-signal	703	1853078	0.0-27.13-1.13	beast_fmri_test	384	1850801,/,1851481,/,1852161,/,1852841,/,1853521,/	t,t,t,t,t	<img class = center src='/static/experiments/beast_fmri_test/images/T.png'></img>	71,89	2750.0	test	<img class = center src='/static/experiments/beast_fmri_test/images/redT.png'></img>	go	1250.0	2.0	13.0	go	target	T	71,Index Finger	89,Middle Finger	1500.0	1500.0	1250.0	1250.0	1.0	1500.0	1.0	n/a	go_stim
279620.82868889999	775.17131110000003	n/a	1710	71	2750	775.1713111	stim	stop-signal	703	1853078	0.0-27.13-1.13	beast_fmri_test	384	1850801,/,1851481,/,1852161,/,1852841,/,1853521,/	t,t,t,t,t	<img class = center src='/static/experiments/beast_fmri_test/images/T.png'></img>	71,89	2750.0	test	<img class = center src='/static/experiments/beast_fmri_test/images/redT.png'></img>	go	1250.0	2.0	13.0	go	target	T	71,Index Finger	89,Middle Finger	1500.0	1500.0	1250.0	1250.0	1.0	1500.0	1.0	n/a	ITI
281691	500	n/a	-1	-1	500	0.0	fixation	poldrack-single-stim	704	1854373	0.0-27.14-0.14	beast_fmri_test	384	1854201,/	t	<div class = centerbox2><div class = fixation>+</div></div>	none	500.0	test	n/a	n/a	n/a	n/a	n/a	n/a	n/a	n/a	n/a	n/a	n/a	n/a	n/a	n/a	n/a	n/a	n/a	n/a	fixation
281646.39128370001	2750	n/a	2183	71	2750	46.6087163	stim	stop-signal	705	1857125	0.0-27.14-1.14	beast_fmri_test	384	1854881,/,1855561,/,1856241,/,1856921,/	t,t,t,t	<img class = center src='/static/experiments/beast_fmri_test/images/T.png'></img>	71,89	2750.0	test	<img class = center src='/static/experiments/beast_fmri_test/images/redT.png'></img>	go	1250.0	2.0	14.0	go	target	T	71,Index Finger	89,Middle Finger	1500.0	1500.0	1250.0	1250.0	1.0	1500.0	1.0	n/a	go_stim
284396.39128370001	46.608716299999998	n/a	2183	71	2750	46.6087163	stim	stop-signal	705	1857125	0.0-27.14-1.14	beast_fmri_test	384	1854881,/,1855561,/,1856241,/,1856921,/	t,t,t,t	<img class = center src='/static/experiments/beast_fmri_test/images/T.png'></img>	71,89	2750.0	test	<img class = center src='/static/experiments/beast_fmri_test/images/redT.png'></img>	go	1250.0	2.0	14.0	go	target	T	71,Index Finger	89,Middle Finger	1500.0	1500.0	1250.0	1250.0	1.0	1500.0	1.0	n/a	ITI
285010	500	n/a	-1	-1	500	0.0	fixation	poldrack-single-stim	706	1857692	0.0-27.15-0.15	beast_fmri_test	384	1857601,/	t	<div class = centerbox2><div class = fixation>+</div></div>	none	500.0	test	n/a	n/a	n/a	n/a	n/a	n/a	n/a	n/a	n/a	n/a	n/a	n/a	n/a	n/a	n/a	n/a	n/a	n/a	fixation
282752.28358000005	1500.0	n/a	-1	-1	2750	2259.71642	stim	stop-signal	707	1860444	0.0-27.15-1.15	beast_fmri_test	384	1858281,/,1858961,/,1859641,/,1860321,/,1861001,/,1861681,/,1862361,/	t,t,t,t,t,t,t	<img class = center src='/static/experiments/beast_fmri_test/images/T.png'></img>	71,89	2750.0	test	<img class = center src='/static/experiments/beast_fmri_test/images/redT.png'></img>	stop	1250.0	2.0	15.0	stop	target	T	71,Index Finger	89,Middle Finger	1500.0	1500.0	1250.0	1250.0	0.0	1500.0	n/a	1.0	go_stim
284002.28358000005	1250.0	n/a	-1	-1	2750	2259.71642	stim	stop-signal	707	1860444	0.0-27.15-1.15	beast_fmri_test	384	1858281,/,1858961,/,1859641,/,1860321,/,1861001,/,1861681,/,1862361,/	t,t,t,t,t,t,t	<img class = center src='/static/experiments/beast_fmri_test/images/T.png'></img>	71,89	2750.0	test	<img class = center src='/static/experiments/beast_fmri_test/images/redT.png'></img>	stop	1250.0	2.0	15.0	stop	target	T	71,Index Finger	89,Middle Finger	1500.0	1500.0	1250.0	1250.0	0.0	1500.0	n/a	1.0	stop_stim
285502.28358000005	2259.7164199999997	n/a	-1	-1	2750	2259.71642	stim	stop-signal	707	1860444	0.0-27.15-1.15	beast_fmri_test	384	1858281,/,1858961,/,1859641,/,1860321,/,1861001,/,1861681,/,1862361,/	t,t,t,t,t,t,t	<img class = center src='/static/experiments/beast_fmri_test/images/T.png'></img>	71,89	2750.0	test	<img class = center src='/static/experiments/beast_fmri_test/images/redT.png'></img>	stop	1250.0	2.0	15.0	stop	target	T	71,Index Finger	89,Middle Finger	1500.0	1500.0	1250.0	1250.0	0.0	1500.0	n/a	1.0	ITI
290543	500	n/a	-1	-1	500	0.0	fixation	poldrack-single-stim	708	1863225	0.0-27.16-0.16	beast_fmri_test	384	1863041,/	t	<div class = centerbox2><div class = fixation>+</div></div>	none	500.0	test	n/a	n/a	n/a	n/a	n/a	n/a	n/a	n/a	n/a	n/a	n/a	n/a	n/a	n/a	n/a	n/a	n/a	n/a	fixation
290203.93359820009	2750	n/a	1754	89	2750	340.0664018	stim	stop-signal	709	1865976	0.0-27.16-1.16	beast_fmri_test	384	1863721,/,1864401,/,1865081,/,1865761,/	t,t,t,t	<img class = center src='/static/experiments/beast_fmri_test/images/B.png'></img>	71,89	2750.0	test	<img class = center src='/static/experiments/beast_fmri_test/images/redB.png'></img>	go	1250.0	2.0	16.0	go	non-target	B	71,Index Finger	89,Middle Finger	1500.0	1500.0	1250.0	1250.0	1.0	1500.0	1.0	n/a	go_stim
292953.93359820009	340.06640179999999	n/a	1754	89	2750	340.0664018	stim	stop-signal	709	1865976	0.0-27.16-1.16	beast_fmri_test	384	1863721,/,1864401,/,1865081,/,1865761,/	t,t,t,t	<img class = center src='/static/experiments/beast_fmri_test/images/B.png'></img>	71,89	2750.0	test	<img class = center src='/static/experiments/beast_fmri_test/images/redB.png'></img>	go	1250.0	2.0	16.0	go	non-target	B	71,Index Finger	89,Middle Finger	1500.0	1500.0	1250.0	1250.0	1.0	1500.0	1.0	n/a	ITI
294156	500	n/a	-1	-1	500	0.0	fixation	poldrack-single-stim	710	1866838	0.0-27.17-0.17	beast_fmri_test	384	1866441,/	t	<div class = centerbox2><div class = fixation>+</div></div>	none	500.0	test	n/a	n/a	n/a	n/a	n/a	n/a	n/a	n/a	n/a	n/a	n/a	n/a	n/a	n/a	n/a	n/a	n/a	n/a	fixation
293132.31435399991	2750	n/a	2570	71	2750	1025.685646	stim	stop-signal	711	1869590	0.0-27.17-1.17	beast_fmri_test	384	1867122,/,1867801,/,1868482,/,1869162,/,1869841,/,1870522,/	t,t,t,t,t,t	<img class = center src='/static/experiments/beast_fmri_test/images/T.png'></img>	71,89	2750.0	test	<img class = center src='/static/experiments/beast_fmri_test/images/redT.png'></img>	go	1250.0	2.0	17.0	go	target	T	71,Index Finger	89,Middle Finger	1500.0	1500.0	1250.0	1250.0	1.0	1500.0	1.0	n/a	go_stim
295882.31435399991	1025.6856460000001	n/a	2570	71	2750	1025.685646	stim	stop-signal	711	1869590	0.0-27.17-1.17	beast_fmri_test	384	1867122,/,1867801,/,1868482,/,1869162,/,1869841,/,1870522,/	t,t,t,t,t,t	<img class = center src='/static/experiments/beast_fmri_test/images/T.png'></img>	71,89	2750.0	test	<img class = center src='/static/experiments/beast_fmri_test/images/redT.png'></img>	go	1250.0	2.0	17.0	go	target	T	71,Index Finger	89,Middle Finger	1500.0	1500.0	1250.0	1250.0	1.0	1500.0	1.0	n/a	ITI
298454	500	n/a	-1	-1	500	0.0	fixation	poldrack-single-stim	712	1871136	0.0-27.18-0.18	beast_fmri_test	384	n/a	n/a	<div class = centerbox2><div class = fixation>+</div></div>	none	500.0	test	n/a	n/a	n/a	n/a	n/a	n/a	n/a	n/a	n/a	n/a	n/a	n/a	n/a	n/a	n/a	n/a	n/a	n/a	fixation
296727.28940799995	1500.0	n/a	-1	-1	2750	1729.710592	stim	stop-signal	713	1873889	0.0-27.18-1.18	beast_fmri_test	384	1871202,/,1871882,/,1872561,/,1873242,/,1873921,/,1874602,/,1875281,/	t,t,t,t,t,t,t	<img class = center src='/static/experiments/beast_fmri_test/images/V.png'></img>	71,89	2750.0	test	<img class = center src='/static/experiments/beast_fmri_test/images/redV.png'></img>	stop	1250.0	2.0	18.0	stop	non-target	V	71,Index Finger	89,Middle Finger	1500.0	1500.0	1250.0	1250.0	0.0	1500.0	n/a	1.0	go_stim
297977.28940799995	1250.0	n/a	-1	-1	2750	1729.710592	stim	stop-signal	713	1873889	0.0-27.18-1.18	beast_fmri_test	384	1871202,/,1871882,/,1872561,/,1873242,/,1873921,/,1874602,/,1875281,/	t,t,t,t,t,t,t	<img class = center src='/static/experiments/beast_fmri_test/images/V.png'></img>	71,89	2750.0	test	<img class = center src='/static/experiments/beast_fmri_test/images/redV.png'></img>	stop	1250.0	2.0	18.0	stop	non-target	V	71,Index Finger	89,Middle Finger	1500.0	1500.0	1250.0	1250.0	0.0	1500.0	n/a	1.0	stop_stim
299477.28940799995	1729.7105920000001	n/a	-1	-1	2750	1729.710592	stim	stop-signal	713	1873889	0.0-27.18-1.18	beast_fmri_test	384	1871202,/,1871882,/,1872561,/,1873242,/,1873921,/,1874602,/,1875281,/	t,t,t,t,t,t,t	<img class = center src='/static/experiments/beast_fmri_test/images/V.png'></img>	71,89	2750.0	test	<img class = center src='/static/experiments/beast_fmri_test/images/redV.png'></img>	stop	1250.0	2.0	18.0	stop	non-target	V	71,Index Finger	89,Middle Finger	1500.0	1500.0	1250.0	1250.0	0.0	1500.0	n/a	1.0	ITI
303456	500	n/a	-1	-1	500	0.0	fixation	poldrack-single-stim	714	1876138	0.0-27.19-0.19	beast_fmri_test	384	1875961,/	t	<div class = centerbox2><div class = fixation>+</div></div>	none	500.0	test	n/a	n/a	n/a	n/a	n/a	n/a	n/a	n/a	n/a	n/a	n/a	n/a	n/a	n/a	n/a	n/a	n/a	n/a	fixation
301937.32584400009	1500.0	n/a	-1	-1	2750	1520.674156	stim	stop-signal	715	1878890	0.0-27.19-1.19	beast_fmri_test	384	1876642,/,1877323,/,1878001,/,1878682,/,1879361,/,1880041,/	t,t,t,t,t,t	<img class = center src='/static/experiments/beast_fmri_test/images/V.png'></img>	71,89	2750.0	test	<img class = center src='/static/experiments/beast_fmri_test/images/redV.png'></img>	stop	1250.0	2.0	19.0	stop	non-target	V	71,Index Finger	89,Middle Finger	1500.0	1500.0	1250.0	1250.0	0.0	1500.0	n/a	1.0	go_stim
303187.32584400009	1250.0	n/a	-1	-1	2750	1520.674156	stim	stop-signal	715	1878890	0.0-27.19-1.19	beast_fmri_test	384	1876642,/,1877323,/,1878001,/,1878682,/,1879361,/,1880041,/	t,t,t,t,t,t	<img class = center src='/static/experiments/beast_fmri_test/images/V.png'></img>	71,89	2750.0	test	<img class = center src='/static/experiments/beast_fmri_test/images/redV.png'></img>	stop	1250.0	2.0	19.0	stop	non-target	V	71,Index Finger	89,Middle Finger	1500.0	1500.0	1250.0	1250.0	0.0	1500.0	n/a	1.0	stop_stim
304687.32584400009	1520.674156	n/a	-1	-1	2750	1520.674156	stim	stop-signal	715	1878890	0.0-27.19-1.19	beast_fmri_test	384	1876642,/,1877323,/,1878001,/,1878682,/,1879361,/,1880041,/	t,t,t,t,t,t	<img class = center src='/static/experiments/beast_fmri_test/images/V.png'></img>	71,89	2750.0	test	<img class = center src='/static/experiments/beast_fmri_test/images/redV.png'></img>	stop	1250.0	2.0	19.0	stop	non-target	V	71,Index Finger	89,Middle Finger	1500.0	1500.0	1250.0	1250.0	0.0	1500.0	n/a	1.0	ITI
308250	500	n/a	-1	-1	500	0.0	fixation	poldrack-single-stim	716	1880932	0.0-27.20-0.20	beast_fmri_test	384	1880721,/	t	<div class = centerbox2><div class = fixation>+</div></div>	none	500.0	test	n/a	n/a	n/a	n/a	n/a	n/a	n/a	n/a	n/a	n/a	n/a	n/a	n/a	n/a	n/a	n/a	n/a	n/a	fixation
307818.18715939997	2750	n/a	1770	89	2750	433.8128406	stim	stop-signal	717	1883684	0.0-27.20-1.20	beast_fmri_test	384	1881401,/,1882081,/,1882761,/,1883441,/	t,t,t,t	<img class = center src='/static/experiments/beast_fmri_test/images/T.png'></img>	71,89	2750.0	test	<img class = center src='/static/experiments/beast_fmri_test/images/redT.png'></img>	go	1250.0	2.0	20.0	go	non-target	T	71,Index Finger	89,Middle Finger	1500.0	1500.0	1250.0	1250.0	1.0	1500.0	1.0	n/a	go_stim
310568.18715939997	433.81284060000002	n/a	1770	89	2750	433.8128406	stim	stop-signal	717	1883684	0.0-27.20-1.20	beast_fmri_test	384	1881401,/,1882081,/,1882761,/,1883441,/	t,t,t,t	<img class = center src='/static/experiments/beast_fmri_test/images/T.png'></img>	71,89	2750.0	test	<img class = center src='/static/experiments/beast_fmri_test/images/redT.png'></img>	go	1250.0	2.0	20.0	go	non-target	T	71,Index Finger	89,Middle Finger	1500.0	1500.0	1250.0	1250.0	1.0	1500.0	1.0	n/a	ITI
311957	500	n/a	-1	-1	500	0.0	fixation	poldrack-single-stim	718	1884639	0.0-27.21-0.21	beast_fmri_test	384	1884137,/	t	<div class = centerbox2><div class = fixation>+</div></div>	none	500.0	test	n/a	n/a	n/a	n/a	n/a	n/a	n/a	n/a	n/a	n/a	n/a	n/a	n/a	n/a	n/a	n/a	n/a	n/a	fixation
310551.79447400011	2750	n/a	2196	89	2750	1407.205526	stim	stop-signal	719	1887391	0.0-27.21-1.21	beast_fmri_test	384	1884801,/,1885481,/,1886161,/,1886841,/,1887522,/,1888201,/	t,t,t,t,t,t	<img class = center src='/static/experiments/beast_fmri_test/images/P.png'></img>	71,89	2750.0	test	<img class = center src='/static/experiments/beast_fmri_test/images/redP.png'></img>	go	1250.0	2.0	21.0	go	non-target	P	71,Index Finger	89,Middle Finger	1500.0	1500.0	1250.0	1250.0	1.0	1500.0	1.0	n/a	go_stim
313301.79447400011	1407.205526	n/a	2196	89	2750	1407.205526	stim	stop-signal	719	1887391	0.0-27.21-1.21	beast_fmri_test	384	1884801,/,1885481,/,1886161,/,1886841,/,1887522,/,1888201,/	t,t,t,t,t,t	<img class = center src='/static/experiments/beast_fmri_test/images/P.png'></img>	71,89	2750.0	test	<img class = center src='/static/experiments/beast_fmri_test/images/redP.png'></img>	go	1250.0	2.0	21.0	go	non-target	P	71,Index Finger	89,Middle Finger	1500.0	1500.0	1250.0	1250.0	1.0	1500.0	1.0	n/a	ITI
316639	500	n/a	-1	-1	500	0.0	fixation	poldrack-single-stim	720	1889321	0.0-27.22-0.22	beast_fmri_test	384	1888881,/	t	<div class = centerbox2><div class = fixation>+</div></div>	none	500.0	test	n/a	n/a	n/a	n/a	n/a	n/a	n/a	n/a	n/a	n/a	n/a	n/a	n/a	n/a	n/a	n/a	n/a	n/a	fixation
