onset	duration	text	rt	key_press	block_duration	timing_post_trial	trial_id	trial_type	trial_index	time_elapsed	internal_node_id	exp_id	subject_id	trigger_times	triggers	stimulus	possible_responses	stim_duration	exp_stage	SS_stimulus	SS_trial_type	SS_duration	load	trial_num	stop_trial_type	adaptive_trial_type	stim	yes_response_key	no_response_key	SSD_target	SSD_non_target	SSTarget	SSNonTarget	go_acc	SS_delay	adaptive_acc	stop_acc	new_trial_type
test	10880	n/a	-1	-1	10880	0.0	practice-no-stop-feedback	poldrack-single-stim	388	1092471	0.0-18.0	beast_fmri_test	384	1081591,/,1082271,/,1082951,/,1083630,/,1084310,/,1084991,/,1085670,/,1086351,/,1087031,/,1087710,/,1088392,/,1089071,/,1089752,/,1090431,/,1091112,/,1091791,/	t,t,t,t,t,t,t,t,t,t,t,t,t,t,t,t	"<div class = ""centerbox2_2""><p class = ""block-text2"">Your delay is 3 trials.</p><p class = block-text2>Please wait for the scanner to start the block</p></div>"	77	10880.0	n/a	n/a	n/a	n/a	n/a	n/a	n/a	n/a	n/a	n/a	n/a	n/a	n/a	n/a	n/a	n/a	n/a	n/a	n/a	start_functional_block
11382	500	n/a	-1	-1	500	0.0	fixation	poldrack-single-stim	389	1092973	0.0-19.0-0.0	beast_fmri_test	384	1092473,/	t	<div class = centerbox2><div class = fixation>+</div></div>	none	500.0	test	n/a	n/a	n/a	n/a	n/a	n/a	n/a	n/a	n/a	n/a	n/a	n/a	n/a	n/a	n/a	n/a	n/a	n/a	fixation
11219.518253999995	2750	n/a	1058	89	2750	164.481746	stim	stop-signal	390	1095725	0.0-19.0-1.0	beast_fmri_test	384	1093151,/,1093831,/,1094511,/,1095191,/,1095871,/	t,t,t,t,t	<img class = center src='/static/experiments/beast_fmri_test/images/B.png'></img>	71,89	2750.0	test	<img class = center src='/static/experiments/beast_fmri_test/images/redB.png'></img>	go	-1.0	3.0	0.0	go	temp-non-target	B	71,Index Finger	89,Middle Finger	1200.0	1400.0	1550.0	1300.0	0.0	n/a	n/a	n/a	go_stim
13969.518253999995	164.48174599999999	n/a	1058	89	2750	164.481746	stim	stop-signal	390	1095725	0.0-19.0-1.0	beast_fmri_test	384	1093151,/,1093831,/,1094511,/,1095191,/,1095871,/	t,t,t,t,t	<img class = center src='/static/experiments/beast_fmri_test/images/B.png'></img>	71,89	2750.0	test	<img class = center src='/static/experiments/beast_fmri_test/images/redB.png'></img>	go	-1.0	3.0	0.0	go	temp-non-target	B	71,Index Finger	89,Middle Finger	1200.0	1400.0	1550.0	1300.0	0.0	n/a	n/a	n/a	ITI
14811	500	n/a	-1	-1	500	0.0	fixation	poldrack-single-stim	391	1096402	0.0-19.1-0.1	beast_fmri_test	384	n/a	n/a	<div class = centerbox2><div class = fixation>+</div></div>	none	500.0	test	n/a	n/a	n/a	n/a	n/a	n/a	n/a	n/a	n/a	n/a	n/a	n/a	n/a	n/a	n/a	n/a	n/a	n/a	fixation
12402.453710000031	temp_go_duration	n/a	636	89	2750	2410.54629	stim	stop-signal	392	1099154	0.0-19.1-1.1	beast_fmri_test	384	1096551,/,1097231,/,1097911,/,1098591,/,1099271,/,1099952,/,1100631,/,1101311,/	t,t,t,t,t,t,t,t	<img class = center src='/static/experiments/beast_fmri_test/images/T.png'></img>	71,89	2750.0	test	<img class = center src='/static/experiments/beast_fmri_test/images/redT.png'></img>	stop	-1.0	3.0	1.0	stop	temp-non-target	T	71,Index Finger	89,Middle Finger	1200.0	1400.0	1550.0	1300.0	0.0	n/a	n/a	0.0	go_stim
temp-non-target	temp_stop_duration	n/a	636	89	2750	2410.54629	stim	stop-signal	392	1099154	0.0-19.1-1.1	beast_fmri_test	384	1096551,/,1097231,/,1097911,/,1098591,/,1099271,/,1099952,/,1100631,/,1101311,/	t,t,t,t,t,t,t,t	<img class = center src='/static/experiments/beast_fmri_test/images/T.png'></img>	71,89	2750.0	test	<img class = center src='/static/experiments/beast_fmri_test/images/redT.png'></img>	stop	-1.0	3.0	1.0	stop	temp-non-target	T	71,Index Finger	89,Middle Finger	1200.0	1400.0	1550.0	1300.0	0.0	n/a	n/a	0.0	stop_stim
15152.453710000031	2410.5462899999998	n/a	636	89	2750	2410.54629	stim	stop-signal	392	1099154	0.0-19.1-1.1	beast_fmri_test	384	1096551,/,1097231,/,1097911,/,1098591,/,1099271,/,1099952,/,1100631,/,1101311,/	t,t,t,t,t,t,t,t	<img class = center src='/static/experiments/beast_fmri_test/images/T.png'></img>	71,89	2750.0	test	<img class = center src='/static/experiments/beast_fmri_test/images/redT.png'></img>	stop	-1.0	3.0	1.0	stop	temp-non-target	T	71,Index Finger	89,Middle Finger	1200.0	1400.0	1550.0	1300.0	0.0	n/a	n/a	0.0	ITI
20488	500	n/a	-1	-1	500	0.0	fixation	poldrack-single-stim	393	1102079	0.0-19.2-0.2	beast_fmri_test	384	1101991,/	t	<div class = centerbox2><div class = fixation>+</div></div>	none	500.0	test	n/a	n/a	n/a	n/a	n/a	n/a	n/a	n/a	n/a	n/a	n/a	n/a	n/a	n/a	n/a	n/a	n/a	n/a	fixation
19749.127221500035	temp_go_duration	n/a	972	89	2750	740.8727785	stim	stop-signal	394	1104831	0.0-19.2-1.2	beast_fmri_test	384	1102671,/,1103351,/,1104031,/,1104711,/,1105391,/	t,t,t,t,t	<img class = center src='/static/experiments/beast_fmri_test/images/P.png'></img>	71,89	2750.0	test	<img class = center src='/static/experiments/beast_fmri_test/images/redP.png'></img>	stop	-1.0	3.0	2.0	stop	temp-non-target	P	71,Index Finger	89,Middle Finger	1200.0	1400.0	1550.0	1300.0	0.0	n/a	n/a	0.0	go_stim
temp-non-target	temp_stop_duration	n/a	972	89	2750	740.8727785	stim	stop-signal	394	1104831	0.0-19.2-1.2	beast_fmri_test	384	1102671,/,1103351,/,1104031,/,1104711,/,1105391,/	t,t,t,t,t	<img class = center src='/static/experiments/beast_fmri_test/images/P.png'></img>	71,89	2750.0	test	<img class = center src='/static/experiments/beast_fmri_test/images/redP.png'></img>	stop	-1.0	3.0	2.0	stop	temp-non-target	P	71,Index Finger	89,Middle Finger	1200.0	1400.0	1550.0	1300.0	0.0	n/a	n/a	0.0	stop_stim
22499.127221500035	740.87277849999998	n/a	972	89	2750	740.8727785	stim	stop-signal	394	1104831	0.0-19.2-1.2	beast_fmri_test	384	1102671,/,1103351,/,1104031,/,1104711,/,1105391,/	t,t,t,t,t	<img class = center src='/static/experiments/beast_fmri_test/images/P.png'></img>	71,89	2750.0	test	<img class = center src='/static/experiments/beast_fmri_test/images/redP.png'></img>	stop	-1.0	3.0	2.0	stop	temp-non-target	P	71,Index Finger	89,Middle Finger	1200.0	1400.0	1550.0	1300.0	0.0	n/a	n/a	0.0	ITI
24493	500	n/a	-1	-1	500	0.0	fixation	poldrack-single-stim	395	1106084	0.0-19.3-0.3	beast_fmri_test	384	1106071,/	t	<div class = centerbox2><div class = fixation>+</div></div>	none	500.0	test	n/a	n/a	n/a	n/a	n/a	n/a	n/a	n/a	n/a	n/a	n/a	n/a	n/a	n/a	n/a	n/a	n/a	n/a	fixation
23754.357517200056	1400.0	n/a	801	89	2750	740.6424828	stim	stop-signal	396	1108836	0.0-19.3-1.3	beast_fmri_test	384	1106751,/,1107431,/,1108111,/,1108791,/,1109470,/	t,t,t,t,t	<img class = center src='/static/experiments/beast_fmri_test/images/D.png'></img>	71,89	2750.0	test	<img class = center src='/static/experiments/beast_fmri_test/images/redD.png'></img>	stop	1350.0	3.0	3.0	stop	non-target	D	71,Index Finger	89,Middle Finger	1200.0	1400.0	1550.0	1350.0	0.0	1400.0	n/a	0.0	go_stim
25104.357517200056	1350.0	n/a	801	89	2750	740.6424828	stim	stop-signal	396	1108836	0.0-19.3-1.3	beast_fmri_test	384	1106751,/,1107431,/,1108111,/,1108791,/,1109470,/	t,t,t,t,t	<img class = center src='/static/experiments/beast_fmri_test/images/D.png'></img>	71,89	2750.0	test	<img class = center src='/static/experiments/beast_fmri_test/images/redD.png'></img>	stop	1350.0	3.0	3.0	stop	non-target	D	71,Index Finger	89,Middle Finger	1200.0	1400.0	1550.0	1350.0	0.0	1400.0	n/a	0.0	stop_stim
26504.357517200056	740.64248279999993	n/a	801	89	2750	740.6424828	stim	stop-signal	396	1108836	0.0-19.3-1.3	beast_fmri_test	384	1106751,/,1107431,/,1108111,/,1108791,/,1109470,/	t,t,t,t,t	<img class = center src='/static/experiments/beast_fmri_test/images/D.png'></img>	71,89	2750.0	test	<img class = center src='/static/experiments/beast_fmri_test/images/redD.png'></img>	stop	1350.0	3.0	3.0	stop	non-target	D	71,Index Finger	89,Middle Finger	1200.0	1400.0	1550.0	1350.0	0.0	1400.0	n/a	0.0	ITI
28501	500	n/a	-1	-1	500	0.0	fixation	poldrack-single-stim	397	1110092	0.0-19.4-0.4	beast_fmri_test	384	n/a	n/a	<div class = centerbox2><div class = fixation>+</div></div>	none	500.0	test	n/a	n/a	n/a	n/a	n/a	n/a	n/a	n/a	n/a	n/a	n/a	n/a	n/a	n/a	n/a	n/a	n/a	n/a	fixation
26447.782368999906	2750	n/a	1866	89	2750	2055.217631	stim	stop-signal	398	1112844	0.0-19.4-1.4	beast_fmri_test	384	1110152,/,1110831,/,1111511,/,1112191,/,1112871,/,1113551,/,1114231,/	t,t,t,t,t,t,t	<img class = center src='/static/experiments/beast_fmri_test/images/V.png'></img>	71,89	2750.0	test	<img class = center src='/static/experiments/beast_fmri_test/images/redV.png'></img>	go	1400.0	3.0	4.0	go	non-target	V	71,Index Finger	89,Middle Finger	1200.0	1350.0	1550.0	1400.0	1.0	1350.0	1.0	n/a	go_stim
29197.782368999906	2055.217631	n/a	1866	89	2750	2055.217631	stim	stop-signal	398	1112844	0.0-19.4-1.4	beast_fmri_test	384	1110152,/,1110831,/,1111511,/,1112191,/,1112871,/,1113551,/,1114231,/	t,t,t,t,t,t,t	<img class = center src='/static/experiments/beast_fmri_test/images/V.png'></img>	71,89	2750.0	test	<img class = center src='/static/experiments/beast_fmri_test/images/redV.png'></img>	go	1400.0	3.0	4.0	go	non-target	V	71,Index Finger	89,Middle Finger	1200.0	1350.0	1550.0	1400.0	1.0	1350.0	1.0	n/a	ITI
33823	500	n/a	-1	-1	500	0.0	fixation	poldrack-single-stim	399	1115414	0.0-19.5-0.5	beast_fmri_test	384	1114913,/	t	<div class = centerbox2><div class = fixation>+</div></div>	none	500.0	test	n/a	n/a	n/a	n/a	n/a	n/a	n/a	n/a	n/a	n/a	n/a	n/a	n/a	n/a	n/a	n/a	n/a	n/a	fixation
33458.377609299961	2750	n/a	1116	89	2750	365.6223907	stim	stop-signal	400	1118165	0.0-19.5-1.5	beast_fmri_test	384	1115591,/,1116271,/,1116950,/,1117631,/,1118310,/	t,t,t,t,t	<img class = center src='/static/experiments/beast_fmri_test/images/V.png'></img>	71,89	2750.0	test	<img class = center src='/static/experiments/beast_fmri_test/images/redV.png'></img>	go	1400.0	3.0	5.0	go	non-target	V	71,Index Finger	89,Middle Finger	1200.0	1350.0	1550.0	1400.0	1.0	1350.0	1.0	n/a	go_stim
36208.377609299961	365.62239069999998	n/a	1116	89	2750	365.6223907	stim	stop-signal	400	1118165	0.0-19.5-1.5	beast_fmri_test	384	1115591,/,1116271,/,1116950,/,1117631,/,1118310,/	t,t,t,t,t	<img class = center src='/static/experiments/beast_fmri_test/images/V.png'></img>	71,89	2750.0	test	<img class = center src='/static/experiments/beast_fmri_test/images/redV.png'></img>	go	1400.0	3.0	5.0	go	non-target	V	71,Index Finger	89,Middle Finger	1200.0	1350.0	1550.0	1400.0	1.0	1350.0	1.0	n/a	ITI
37454	500	n/a	-1	-1	500	0.0	fixation	poldrack-single-stim	401	1119045	0.0-19.6-0.6	beast_fmri_test	384	1118991,/	t	<div class = centerbox2><div class = fixation>+</div></div>	none	500.0	test	n/a	n/a	n/a	n/a	n/a	n/a	n/a	n/a	n/a	n/a	n/a	n/a	n/a	n/a	n/a	n/a	n/a	n/a	fixation
37091.432187499944	2750	n/a	1424	89	2750	364.5678125	stim	stop-signal	402	1121797	0.0-19.6-1.6	beast_fmri_test	384	1119671,/,1120351,/,1121031,/,1121712,/	t,t,t,t	<img class = center src='/static/experiments/beast_fmri_test/images/T.png'></img>	71,89	2750.0	test	<img class = center src='/static/experiments/beast_fmri_test/images/redT.png'></img>	go	1400.0	3.0	6.0	go	non-target	T	71,Index Finger	89,Middle Finger	1200.0	1350.0	1550.0	1400.0	1.0	1350.0	1.0	n/a	go_stim
39841.432187499944	364.5678125	n/a	1424	89	2750	364.5678125	stim	stop-signal	402	1121797	0.0-19.6-1.6	beast_fmri_test	384	1119671,/,1120351,/,1121031,/,1121712,/	t,t,t,t	<img class = center src='/static/experiments/beast_fmri_test/images/T.png'></img>	71,89	2750.0	test	<img class = center src='/static/experiments/beast_fmri_test/images/redT.png'></img>	go	1400.0	3.0	6.0	go	non-target	T	71,Index Finger	89,Middle Finger	1200.0	1350.0	1550.0	1400.0	1.0	1350.0	1.0	n/a	ITI
41086	500	n/a	-1	-1	500	0.0	fixation	poldrack-single-stim	403	1122677	0.0-19.7-0.7	beast_fmri_test	384	1122392,/	t	<div class = centerbox2><div class = fixation>+</div></div>	none	500.0	test	n/a	n/a	n/a	n/a	n/a	n/a	n/a	n/a	n/a	n/a	n/a	n/a	n/a	n/a	n/a	n/a	n/a	n/a	fixation
41064.994947619969	1200.0	n/a	-1	-1	2750	24.00505238	stim	stop-signal	404	1125430	0.0-19.7-1.7	beast_fmri_test	384	1123072,/,1123752,/,1124431,/,1125111,/	t,t,t,t	<img class = center src='/static/experiments/beast_fmri_test/images/V.png'></img>	71,89	2750.0	test	<img class = center src='/static/experiments/beast_fmri_test/images/redV.png'></img>	stop	1550.0	3.0	7.0	stop	target	V	71,Index Finger	89,Middle Finger	1200.0	1350.0	1550.0	1400.0	0.0	1200.0	n/a	1.0	go_stim
42614.994947619969	1550.0	n/a	-1	-1	2750	24.00505238	stim	stop-signal	404	1125430	0.0-19.7-1.7	beast_fmri_test	384	1123072,/,1123752,/,1124431,/,1125111,/	t,t,t,t	<img class = center src='/static/experiments/beast_fmri_test/images/V.png'></img>	71,89	2750.0	test	<img class = center src='/static/experiments/beast_fmri_test/images/redV.png'></img>	stop	1550.0	3.0	7.0	stop	target	V	71,Index Finger	89,Middle Finger	1200.0	1350.0	1550.0	1400.0	0.0	1200.0	n/a	1.0	stop_stim
43814.994947619969	24.005052379999999	n/a	-1	-1	2750	24.00505238	stim	stop-signal	404	1125430	0.0-19.7-1.7	beast_fmri_test	384	1123072,/,1123752,/,1124431,/,1125111,/	t,t,t,t	<img class = center src='/static/experiments/beast_fmri_test/images/V.png'></img>	71,89	2750.0	test	<img class = center src='/static/experiments/beast_fmri_test/images/redV.png'></img>	stop	1550.0	3.0	7.0	stop	target	V	71,Index Finger	89,Middle Finger	1200.0	1350.0	1550.0	1400.0	0.0	1200.0	n/a	1.0	ITI
44378	500	n/a	-1	-1	500	0.0	fixation	poldrack-single-stim	405	1125969	0.0-19.8-0.8	beast_fmri_test	384	1125791,/	t	<div class = centerbox2><div class = fixation>+</div></div>	none	500.0	test	n/a	n/a	n/a	n/a	n/a	n/a	n/a	n/a	n/a	n/a	n/a	n/a	n/a	n/a	n/a	n/a	n/a	n/a	fixation
44042.384627999971	1350.0	n/a	-1	-1	2750	337.615372	stim	stop-signal	406	1128721	0.0-19.8-1.8	beast_fmri_test	384	1126472,/,1127151,/,1127831,/,1128511,/	t,t,t,t	<img class = center src='/static/experiments/beast_fmri_test/images/P.png'></img>	71,89	2750.0	test	<img class = center src='/static/experiments/beast_fmri_test/images/redP.png'></img>	stop	1400.0	3.0	8.0	stop	non-target	P	71,Index Finger	89,Middle Finger	1250.0	1350.0	1550.0	1400.0	0.0	1350.0	n/a	1.0	go_stim
45442.384627999971	1400.0	n/a	-1	-1	2750	337.615372	stim	stop-signal	406	1128721	0.0-19.8-1.8	beast_fmri_test	384	1126472,/,1127151,/,1127831,/,1128511,/	t,t,t,t	<img class = center src='/static/experiments/beast_fmri_test/images/P.png'></img>	71,89	2750.0	test	<img class = center src='/static/experiments/beast_fmri_test/images/redP.png'></img>	stop	1400.0	3.0	8.0	stop	non-target	P	71,Index Finger	89,Middle Finger	1250.0	1350.0	1550.0	1400.0	0.0	1350.0	n/a	1.0	stop_stim
46792.384627999971	337.61537200000004	n/a	-1	-1	2750	337.615372	stim	stop-signal	406	1128721	0.0-19.8-1.8	beast_fmri_test	384	1126472,/,1127151,/,1127831,/,1128511,/	t,t,t,t	<img class = center src='/static/experiments/beast_fmri_test/images/P.png'></img>	71,89	2750.0	test	<img class = center src='/static/experiments/beast_fmri_test/images/redP.png'></img>	stop	1400.0	3.0	8.0	stop	non-target	P	71,Index Finger	89,Middle Finger	1250.0	1350.0	1550.0	1400.0	0.0	1350.0	n/a	1.0	ITI
47982	500	n/a	-1	-1	500	0.0	fixation	poldrack-single-stim	407	1129573	0.0-19.9-0.9	beast_fmri_test	384	1129191,/	t	<div class = centerbox2><div class = fixation>+</div></div>	none	500.0	test	n/a	n/a	n/a	n/a	n/a	n/a	n/a	n/a	n/a	n/a	n/a	n/a	n/a	n/a	n/a	n/a	n/a	n/a	fixation
47687.37227390008	2750	n/a	1531	89	2750	296.6277261	stim	stop-signal	408	1132325	0.0-19.9-1.9	beast_fmri_test	384	1129872,/,1130552,/,1131231,/,1131911,/,1132591,/	t,t,t,t,t	<img class = center src='/static/experiments/beast_fmri_test/images/P.png'></img>	71,89	2750.0	test	<img class = center src='/static/experiments/beast_fmri_test/images/redP.png'></img>	go	1350.0	3.0	9.0	go	non-target	P	71,Index Finger	89,Middle Finger	1250.0	1400.0	1550.0	1350.0	1.0	1400.0	1.0	n/a	go_stim
50437.37227390008	296.62772610000002	n/a	1531	89	2750	296.6277261	stim	stop-signal	408	1132325	0.0-19.9-1.9	beast_fmri_test	384	1129872,/,1130552,/,1131231,/,1131911,/,1132591,/	t,t,t,t,t	<img class = center src='/static/experiments/beast_fmri_test/images/P.png'></img>	71,89	2750.0	test	<img class = center src='/static/experiments/beast_fmri_test/images/redP.png'></img>	go	1350.0	3.0	9.0	go	non-target	P	71,Index Finger	89,Middle Finger	1250.0	1400.0	1550.0	1350.0	1.0	1400.0	1.0	n/a	ITI
51546	500	n/a	-1	-1	500	0.0	fixation	poldrack-single-stim	409	1133137	0.0-19.10-0.10	beast_fmri_test	384	n/a	n/a	<div class = centerbox2><div class = fixation>+</div></div>	none	500.0	test	n/a	n/a	n/a	n/a	n/a	n/a	n/a	n/a	n/a	n/a	n/a	n/a	n/a	n/a	n/a	n/a	n/a	n/a	fixation
51532.706106289988	2750	n/a	1264	71	2750	15.29389371	stim	stop-signal	410	1135889	0.0-19.10-1.10	beast_fmri_test	384	1133271,/,1133951,/,1134631,/,1135311,/	t,t,t,t	<img class = center src='/static/experiments/beast_fmri_test/images/P.png'></img>	71,89	2750.0	test	<img class = center src='/static/experiments/beast_fmri_test/images/redP.png'></img>	go	1350.0	3.0	10.0	go	non-target	P	71,Index Finger	89,Middle Finger	1250.0	1400.0	1550.0	1350.0	0.0	1400.0	0.0	n/a	go_stim
54282.706106289988	15.293893710000001	n/a	1264	71	2750	15.29389371	stim	stop-signal	410	1135889	0.0-19.10-1.10	beast_fmri_test	384	1133271,/,1133951,/,1134631,/,1135311,/	t,t,t,t	<img class = center src='/static/experiments/beast_fmri_test/images/P.png'></img>	71,89	2750.0	test	<img class = center src='/static/experiments/beast_fmri_test/images/redP.png'></img>	go	1350.0	3.0	10.0	go	non-target	P	71,Index Finger	89,Middle Finger	1250.0	1400.0	1550.0	1350.0	0.0	1400.0	0.0	n/a	ITI
54826	500	n/a	-1	-1	500	0.0	fixation	poldrack-single-stim	411	1136417	0.0-19.11-0.11	beast_fmri_test	384	1135991,/	t	<div class = centerbox2><div class = fixation>+</div></div>	none	500.0	test	n/a	n/a	n/a	n/a	n/a	n/a	n/a	n/a	n/a	n/a	n/a	n/a	n/a	n/a	n/a	n/a	n/a	n/a	fixation
54373.264081999892	2750	n/a	2410	89	2750	454.735918	stim	stop-signal	412	1139169	0.0-19.11-1.11	beast_fmri_test	384	1136671,/,1137351,/,1138035,/,1138712,/,1139391,/	t,t,t,t,t	<img class = center src='/static/experiments/beast_fmri_test/images/P.png'></img>	71,89	2750.0	test	<img class = center src='/static/experiments/beast_fmri_test/images/redP.png'></img>	go	1500.0	3.0	11.0	go	target	P	71,Index Finger	89,Middle Finger	1250.0	1400.0	1500.0	1350.0	0.0	1250.0	0.0	n/a	go_stim
57123.264081999892	454.73591799999997	n/a	2410	89	2750	454.735918	stim	stop-signal	412	1139169	0.0-19.11-1.11	beast_fmri_test	384	1136671,/,1137351,/,1138035,/,1138712,/,1139391,/	t,t,t,t,t	<img class = center src='/static/experiments/beast_fmri_test/images/P.png'></img>	71,89	2750.0	test	<img class = center src='/static/experiments/beast_fmri_test/images/redP.png'></img>	go	1500.0	3.0	11.0	go	target	P	71,Index Finger	89,Middle Finger	1250.0	1400.0	1500.0	1350.0	0.0	1250.0	0.0	n/a	ITI
58549	500	n/a	-1	-1	500	0.0	fixation	poldrack-single-stim	413	1140140	0.0-19.12-0.12	beast_fmri_test	384	1140071,/	t	<div class = centerbox2><div class = fixation>+</div></div>	none	500.0	test	n/a	n/a	n/a	n/a	n/a	n/a	n/a	n/a	n/a	n/a	n/a	n/a	n/a	n/a	n/a	n/a	n/a	n/a	fixation
58187.426319800084	1400.0	n/a	-1	-1	2750	363.5736802	stim	stop-signal	414	1142892	0.0-19.12-1.12	beast_fmri_test	384	1140752,/,1141431,/,1142111,/,1142791,/	t,t,t,t	<img class = center src='/static/experiments/beast_fmri_test/images/B.png'></img>	71,89	2750.0	test	<img class = center src='/static/experiments/beast_fmri_test/images/redB.png'></img>	stop	1350.0	3.0	12.0	stop	non-target	B	71,Index Finger	89,Middle Finger	1250.0	1400.0	1500.0	1350.0	0.0	1400.0	n/a	1.0	go_stim
59537.426319800084	1350.0	n/a	-1	-1	2750	363.5736802	stim	stop-signal	414	1142892	0.0-19.12-1.12	beast_fmri_test	384	1140752,/,1141431,/,1142111,/,1142791,/	t,t,t,t	<img class = center src='/static/experiments/beast_fmri_test/images/B.png'></img>	71,89	2750.0	test	<img class = center src='/static/experiments/beast_fmri_test/images/redB.png'></img>	stop	1350.0	3.0	12.0	stop	non-target	B	71,Index Finger	89,Middle Finger	1250.0	1400.0	1500.0	1350.0	0.0	1400.0	n/a	1.0	stop_stim
60937.426319800084	363.57368019999996	n/a	-1	-1	2750	363.5736802	stim	stop-signal	414	1142892	0.0-19.12-1.12	beast_fmri_test	384	1140752,/,1141431,/,1142111,/,1142791,/	t,t,t,t	<img class = center src='/static/experiments/beast_fmri_test/images/B.png'></img>	71,89	2750.0	test	<img class = center src='/static/experiments/beast_fmri_test/images/redB.png'></img>	stop	1350.0	3.0	12.0	stop	non-target	B	71,Index Finger	89,Middle Finger	1250.0	1400.0	1500.0	1350.0	0.0	1400.0	n/a	1.0	ITI
62178	500	n/a	-1	-1	500	0.0	fixation	poldrack-single-stim	415	1143769	0.0-19.13-0.13	beast_fmri_test	384	1143471,/	t	<div class = centerbox2><div class = fixation>+</div></div>	none	500.0	test	n/a	n/a	n/a	n/a	n/a	n/a	n/a	n/a	n/a	n/a	n/a	n/a	n/a	n/a	n/a	n/a	n/a	n/a	fixation
57357.835087999934	2750	n/a	1608	89	2750	4822.164912	stim	stop-signal	416	1146521	0.0-19.13-1.13	beast_fmri_test	384	1144151,/,1144831,/,1145511,/,1146191,/,1146871,/,1147551,/,1148231,/,1148911,/,1149591,/,1150271,/,1150952,/	t,t,t,t,t,t,t,t,t,t,t	<img class = center src='/static/experiments/beast_fmri_test/images/B.png'></img>	71,89	2750.0	test	<img class = center src='/static/experiments/beast_fmri_test/images/redB.png'></img>	go	1300.0	3.0	13.0	go	non-target	B	71,Index Finger	89,Middle Finger	1250.0	1450.0	1500.0	1300.0	1.0	1450.0	1.0	n/a	go_stim
60107.835087999934	4822.1649120000002	n/a	1608	89	2750	4822.164912	stim	stop-signal	416	1146521	0.0-19.13-1.13	beast_fmri_test	384	1144151,/,1144831,/,1145511,/,1146191,/,1146871,/,1147551,/,1148231,/,1148911,/,1149591,/,1150271,/,1150952,/	t,t,t,t,t,t,t,t,t,t,t	<img class = center src='/static/experiments/beast_fmri_test/images/B.png'></img>	71,89	2750.0	test	<img class = center src='/static/experiments/beast_fmri_test/images/redB.png'></img>	go	1300.0	3.0	13.0	go	non-target	B	71,Index Finger	89,Middle Finger	1250.0	1450.0	1500.0	1300.0	1.0	1450.0	1.0	n/a	ITI
70267	500	n/a	-1	-1	500	0.0	fixation	poldrack-single-stim	417	1151858	0.0-19.14-0.14	beast_fmri_test	384	1151631,/	t	<div class = centerbox2><div class = fixation>+</div></div>	none	500.0	test	n/a	n/a	n/a	n/a	n/a	n/a	n/a	n/a	n/a	n/a	n/a	n/a	n/a	n/a	n/a	n/a	n/a	n/a	fixation
70241.552836240036	2750	n/a	1421	89	2750	27.44716376	stim	stop-signal	418	1154610	0.0-19.14-1.14	beast_fmri_test	384	1152311,/,1152991,/,1153670,/,1154351,/	t,t,t,t	<img class = center src='/static/experiments/beast_fmri_test/images/T.png'></img>	71,89	2750.0	test	<img class = center src='/static/experiments/beast_fmri_test/images/redT.png'></img>	go	1300.0	3.0	14.0	go	non-target	T	71,Index Finger	89,Middle Finger	1250.0	1450.0	1500.0	1300.0	1.0	1450.0	1.0	n/a	go_stim
72991.552836240036	27.447163759999999	n/a	1421	89	2750	27.44716376	stim	stop-signal	418	1154610	0.0-19.14-1.14	beast_fmri_test	384	1152311,/,1152991,/,1153670,/,1154351,/	t,t,t,t	<img class = center src='/static/experiments/beast_fmri_test/images/T.png'></img>	71,89	2750.0	test	<img class = center src='/static/experiments/beast_fmri_test/images/redT.png'></img>	go	1300.0	3.0	14.0	go	non-target	T	71,Index Finger	89,Middle Finger	1250.0	1450.0	1500.0	1300.0	1.0	1450.0	1.0	n/a	ITI
73560	500	n/a	-1	-1	500	0.0	fixation	poldrack-single-stim	419	1155151	0.0-19.15-0.15	beast_fmri_test	384	1155031,/	t	<div class = centerbox2><div class = fixation>+</div></div>	none	500.0	test	n/a	n/a	n/a	n/a	n/a	n/a	n/a	n/a	n/a	n/a	n/a	n/a	n/a	n/a	n/a	n/a	n/a	n/a	fixation
71927.051331999945	2750	n/a	2113	89	2750	1634.948668	stim	stop-signal	420	1157903	0.0-19.15-1.15	beast_fmri_test	384	1155712,/,1156392,/,1157072,/,1157751,/,1158431,/,1159111,/	t,t,t,t,t,t	<img class = center src='/static/experiments/beast_fmri_test/images/V.png'></img>	71,89	2750.0	test	<img class = center src='/static/experiments/beast_fmri_test/images/redV.png'></img>	go	1300.0	3.0	15.0	go	non-target	V	71,Index Finger	89,Middle Finger	1250.0	1450.0	1500.0	1300.0	1.0	1450.0	1.0	n/a	go_stim
74677.051331999945	1634.948668	n/a	2113	89	2750	1634.948668	stim	stop-signal	420	1157903	0.0-19.15-1.15	beast_fmri_test	384	1155712,/,1156392,/,1157072,/,1157751,/,1158431,/,1159111,/	t,t,t,t,t,t	<img class = center src='/static/experiments/beast_fmri_test/images/V.png'></img>	71,89	2750.0	test	<img class = center src='/static/experiments/beast_fmri_test/images/redV.png'></img>	go	1300.0	3.0	15.0	go	non-target	V	71,Index Finger	89,Middle Finger	1250.0	1450.0	1500.0	1300.0	1.0	1450.0	1.0	n/a	ITI
78459	500	n/a	-1	-1	500	0.0	fixation	poldrack-single-stim	421	1160050	0.0-19.16-0.16	beast_fmri_test	384	1159792,/	t	<div class = centerbox2><div class = fixation>+</div></div>	none	500.0	test	n/a	n/a	n/a	n/a	n/a	n/a	n/a	n/a	n/a	n/a	n/a	n/a	n/a	n/a	n/a	n/a	n/a	n/a	fixation
78140.785917199915	2750	n/a	2441	71	2750	320.2140828	stim	stop-signal	422	1162802	0.0-19.16-1.16	beast_fmri_test	384	1160471,/,1161152,/,1161831,/,1162511,/	t,t,t,t	<img class = center src='/static/experiments/beast_fmri_test/images/B.png'></img>	71,89	2750.0	test	<img class = center src='/static/experiments/beast_fmri_test/images/redB.png'></img>	go	1500.0	3.0	16.0	go	target	B	71,Index Finger	89,Middle Finger	1250.0	1450.0	1500.0	1300.0	1.0	1250.0	1.0	n/a	go_stim
80890.785917199915	320.21408280000003	n/a	2441	71	2750	320.2140828	stim	stop-signal	422	1162802	0.0-19.16-1.16	beast_fmri_test	384	1160471,/,1161152,/,1161831,/,1162511,/	t,t,t,t	<img class = center src='/static/experiments/beast_fmri_test/images/B.png'></img>	71,89	2750.0	test	<img class = center src='/static/experiments/beast_fmri_test/images/redB.png'></img>	go	1500.0	3.0	16.0	go	target	B	71,Index Finger	89,Middle Finger	1250.0	1450.0	1500.0	1300.0	1.0	1250.0	1.0	n/a	ITI
82047	500	n/a	-1	-1	500	0.0	fixation	poldrack-single-stim	423	1163638	0.0-19.17-0.17	beast_fmri_test	384	1163191,/	t	<div class = centerbox2><div class = fixation>+</div></div>	none	500.0	test	n/a	n/a	n/a	n/a	n/a	n/a	n/a	n/a	n/a	n/a	n/a	n/a	n/a	n/a	n/a	n/a	n/a	n/a	fixation
81498.934352299897	2750	n/a	1328	89	2750	550.0656477	stim	stop-signal	424	1166390	0.0-19.17-1.17	beast_fmri_test	384	1163871,/,1164551,/,1165231,/,1165911,/,1166591,/	t,t,t,t,t	<img class = center src='/static/experiments/beast_fmri_test/images/B.png'></img>	71,89	2750.0	test	<img class = center src='/static/experiments/beast_fmri_test/images/redB.png'></img>	go	1300.0	3.0	17.0	go	non-target	B	71,Index Finger	89,Middle Finger	1250.0	1450.0	1500.0	1300.0	1.0	1450.0	1.0	n/a	go_stim
84248.934352299897	550.06564770000011	n/a	1328	89	2750	550.0656477	stim	stop-signal	424	1166390	0.0-19.17-1.17	beast_fmri_test	384	1163871,/,1164551,/,1165231,/,1165911,/,1166591,/	t,t,t,t,t	<img class = center src='/static/experiments/beast_fmri_test/images/B.png'></img>	71,89	2750.0	test	<img class = center src='/static/experiments/beast_fmri_test/images/redB.png'></img>	go	1300.0	3.0	17.0	go	non-target	B	71,Index Finger	89,Middle Finger	1250.0	1450.0	1500.0	1300.0	1.0	1450.0	1.0	n/a	ITI
85865	500	n/a	-1	-1	500	0.0	fixation	poldrack-single-stim	425	1167456	0.0-19.18-0.18	beast_fmri_test	384	1167271,/	t	<div class = centerbox2><div class = fixation>+</div></div>	none	500.0	test	n/a	n/a	n/a	n/a	n/a	n/a	n/a	n/a	n/a	n/a	n/a	n/a	n/a	n/a	n/a	n/a	n/a	n/a	fixation
83396.717691000085	1250.0	n/a	-1	-1	2750	2471.282309	stim	stop-signal	426	1170209	0.0-19.18-1.18	beast_fmri_test	384	1167951,/,1168631,/,1169311,/,1169991,/,1170671,/,1171351,/,1172031,/	t,t,t,t,t,t,t	<img class = center src='/static/experiments/beast_fmri_test/images/V.png'></img>	71,89	2750.0	test	<img class = center src='/static/experiments/beast_fmri_test/images/redV.png'></img>	stop	1500.0	3.0	18.0	stop	target	V	71,Index Finger	89,Middle Finger	1250.0	1450.0	1500.0	1300.0	0.0	1250.0	n/a	1.0	go_stim
84896.717691000085	1500.0	n/a	-1	-1	2750	2471.282309	stim	stop-signal	426	1170209	0.0-19.18-1.18	beast_fmri_test	384	1167951,/,1168631,/,1169311,/,1169991,/,1170671,/,1171351,/,1172031,/	t,t,t,t,t,t,t	<img class = center src='/static/experiments/beast_fmri_test/images/V.png'></img>	71,89	2750.0	test	<img class = center src='/static/experiments/beast_fmri_test/images/redV.png'></img>	stop	1500.0	3.0	18.0	stop	target	V	71,Index Finger	89,Middle Finger	1250.0	1450.0	1500.0	1300.0	0.0	1250.0	n/a	1.0	stop_stim
86146.717691000085	2471.2823090000002	n/a	-1	-1	2750	2471.282309	stim	stop-signal	426	1170209	0.0-19.18-1.18	beast_fmri_test	384	1167951,/,1168631,/,1169311,/,1169991,/,1170671,/,1171351,/,1172031,/	t,t,t,t,t,t,t	<img class = center src='/static/experiments/beast_fmri_test/images/V.png'></img>	71,89	2750.0	test	<img class = center src='/static/experiments/beast_fmri_test/images/redV.png'></img>	stop	1500.0	3.0	18.0	stop	target	V	71,Index Finger	89,Middle Finger	1250.0	1450.0	1500.0	1300.0	0.0	1250.0	n/a	1.0	ITI
91604	500	n/a	-1	-1	500	0.0	fixation	poldrack-single-stim	427	1173195	0.0-19.19-0.19	beast_fmri_test	384	1172714,/	t	<div class = centerbox2><div class = fixation>+</div></div>	none	500.0	test	n/a	n/a	n/a	n/a	n/a	n/a	n/a	n/a	n/a	n/a	n/a	n/a	n/a	n/a	n/a	n/a	n/a	n/a	fixation
91228.583649799926	2750	n/a	1673	71	2750	377.4163502	stim	stop-signal	428	1175947	0.0-19.19-1.19	beast_fmri_test	384	1173391,/,1174071,/,1174751,/,1175431,/,1176111,/	t,t,t,t,t	<img class = center src='/static/experiments/beast_fmri_test/images/B.png'></img>	71,89	2750.0	test	<img class = center src='/static/experiments/beast_fmri_test/images/redB.png'></img>	go	1450.0	3.0	19.0	go	target	B	71,Index Finger	89,Middle Finger	1300.0	1450.0	1450.0	1300.0	1.0	1300.0	1.0	n/a	go_stim
93978.583649799926	377.41635020000001	n/a	1673	71	2750	377.4163502	stim	stop-signal	428	1175947	0.0-19.19-1.19	beast_fmri_test	384	1173391,/,1174071,/,1174751,/,1175431,/,1176111,/	t,t,t,t,t	<img class = center src='/static/experiments/beast_fmri_test/images/B.png'></img>	71,89	2750.0	test	<img class = center src='/static/experiments/beast_fmri_test/images/redB.png'></img>	go	1450.0	3.0	19.0	go	target	B	71,Index Finger	89,Middle Finger	1300.0	1450.0	1450.0	1300.0	1.0	1300.0	1.0	n/a	ITI
95249	500	n/a	-1	-1	500	0.0	fixation	poldrack-single-stim	429	1176840	0.0-19.20-0.20	beast_fmri_test	384	1176791,/	t	<div class = centerbox2><div class = fixation>+</div></div>	none	500.0	test	n/a	n/a	n/a	n/a	n/a	n/a	n/a	n/a	n/a	n/a	n/a	n/a	n/a	n/a	n/a	n/a	n/a	n/a	fixation
93841.459863000084	2750	n/a	1718	71	2750	1409.540137	stim	stop-signal	430	1179592	0.0-19.20-1.20	beast_fmri_test	384	1177471,/,1178151,/,1178831,/,1179511,/,1180191,/,1180870,/	t,t,t,t,t,t	<img class = center src='/static/experiments/beast_fmri_test/images/T.png'></img>	71,89	2750.0	test	<img class = center src='/static/experiments/beast_fmri_test/images/redT.png'></img>	go	1300.0	3.0	20.0	go	non-target	T	71,Index Finger	89,Middle Finger	1300.0	1450.0	1450.0	1300.0	0.0	1450.0	0.0	n/a	go_stim
96591.459863000084	1409.540137	n/a	1718	71	2750	1409.540137	stim	stop-signal	430	1179592	0.0-19.20-1.20	beast_fmri_test	384	1177471,/,1178151,/,1178831,/,1179511,/,1180191,/,1180870,/	t,t,t,t,t,t	<img class = center src='/static/experiments/beast_fmri_test/images/T.png'></img>	71,89	2750.0	test	<img class = center src='/static/experiments/beast_fmri_test/images/redT.png'></img>	go	1300.0	3.0	20.0	go	non-target	T	71,Index Finger	89,Middle Finger	1300.0	1450.0	1450.0	1300.0	0.0	1450.0	0.0	n/a	ITI
99926	500	n/a	-1	-1	500	0.0	fixation	poldrack-single-stim	431	1181517	0.0-19.21-0.21	beast_fmri_test	384	n/a	n/a	<div class = centerbox2><div class = fixation>+</div></div>	none	500.0	test	n/a	n/a	n/a	n/a	n/a	n/a	n/a	n/a	n/a	n/a	n/a	n/a	n/a	n/a	n/a	n/a	n/a	n/a	fixation
99529.514974199934	1450.0	n/a	1423	71	2750	398.4850258	stim	stop-signal	432	1184269	0.0-19.21-1.21	beast_fmri_test	384	1181552,/,1182230,/,1182911,/,1183591,/,1184270,/	t,t,t,t,t	<img class = center src='/static/experiments/beast_fmri_test/images/B.png'></img>	71,89	2750.0	test	<img class = center src='/static/experiments/beast_fmri_test/images/redB.png'></img>	stop	1300.0	3.0	21.0	stop	non-target	B	71,Index Finger	89,Middle Finger	1300.0	1450.0	1450.0	1300.0	0.0	1450.0	n/a	0.0	go_stim
100829.51497419993	1300.0	n/a	1423	71	2750	398.4850258	stim	stop-signal	432	1184269	0.0-19.21-1.21	beast_fmri_test	384	1181552,/,1182230,/,1182911,/,1183591,/,1184270,/	t,t,t,t,t	<img class = center src='/static/experiments/beast_fmri_test/images/B.png'></img>	71,89	2750.0	test	<img class = center src='/static/experiments/beast_fmri_test/images/redB.png'></img>	stop	1300.0	3.0	21.0	stop	non-target	B	71,Index Finger	89,Middle Finger	1300.0	1450.0	1450.0	1300.0	0.0	1450.0	n/a	0.0	stop_stim
102279.51497419993	398.48502580000002	n/a	1423	71	2750	398.4850258	stim	stop-signal	432	1184269	0.0-19.21-1.21	beast_fmri_test	384	1181552,/,1182230,/,1182911,/,1183591,/,1184270,/	t,t,t,t,t	<img class = center src='/static/experiments/beast_fmri_test/images/B.png'></img>	71,89	2750.0	test	<img class = center src='/static/experiments/beast_fmri_test/images/redB.png'></img>	stop	1300.0	3.0	21.0	stop	non-target	B	71,Index Finger	89,Middle Finger	1300.0	1450.0	1450.0	1300.0	0.0	1450.0	n/a	0.0	ITI
103593	500	n/a	-1	-1	500	0.0	fixation	poldrack-single-stim	433	1185184	0.0-19.22-0.22	beast_fmri_test	384	1184950,/	t	<div class = centerbox2><div class = fixation>+</div></div>	none	500.0	test	n/a	n/a	n/a	n/a	n/a	n/a	n/a	n/a	n/a	n/a	n/a	n/a	n/a	n/a	n/a	n/a	n/a	n/a	fixation
103446.43616100005	1400.0	n/a	1502	89	2750	148.563839	stim	stop-signal	434	1187936	0.0-19.22-1.22	beast_fmri_test	384	1185631,/,1186311,/,1186990,/,1187670,/	t,t,t,t	<img class = center src='/static/experiments/beast_fmri_test/images/V.png'></img>	71,89	2750.0	test	<img class = center src='/static/experiments/beast_fmri_test/images/redV.png'></img>	stop	1350.0	3.0	22.0	stop	non-target	V	71,Index Finger	89,Middle Finger	1300.0	1400.0	1450.0	1350.0	0.0	1400.0	n/a	0.0	go_stim
104796.43616100005	1350.0	n/a	1502	89	2750	148.563839	stim	stop-signal	434	1187936	0.0-19.22-1.22	beast_fmri_test	384	1185631,/,1186311,/,1186990,/,1187670,/	t,t,t,t	<img class = center src='/static/experiments/beast_fmri_test/images/V.png'></img>	71,89	2750.0	test	<img class = center src='/static/experiments/beast_fmri_test/images/redV.png'></img>	stop	1350.0	3.0	22.0	stop	non-target	V	71,Index Finger	89,Middle Finger	1300.0	1400.0	1450.0	1350.0	0.0	1400.0	n/a	0.0	stop_stim
106196.43616100005	148.563839	n/a	1502	89	2750	148.563839	stim	stop-signal	434	1187936	0.0-19.22-1.22	beast_fmri_test	384	1185631,/,1186311,/,1186990,/,1187670,/	t,t,t,t	<img class = center src='/static/experiments/beast_fmri_test/images/V.png'></img>	71,89	2750.0	test	<img class = center src='/static/experiments/beast_fmri_test/images/redV.png'></img>	stop	1350.0	3.0	22.0	stop	non-target	V	71,Index Finger	89,Middle Finger	1300.0	1400.0	1450.0	1350.0	0.0	1400.0	n/a	0.0	ITI
107008	500	n/a	-1	-1	500	0.0	fixation	poldrack-single-stim	435	1188599	0.0-19.23-0.23	beast_fmri_test	384	1188352,/	t	<div class = centerbox2><div class = fixation>+</div></div>	none	500.0	test	n/a	n/a	n/a	n/a	n/a	n/a	n/a	n/a	n/a	n/a	n/a	n/a	n/a	n/a	n/a	n/a	n/a	n/a	fixation
105223.22792099998	2750	n/a	2074	89	2750	1786.772079	stim	stop-signal	436	1191351	0.0-19.23-1.23	beast_fmri_test	384	1189031,/,1189712,/,1190392,/,1191071,/,1191753,/,1192432,/,1193111,/	t,t,t,t,t,t,t	<img class = center src='/static/experiments/beast_fmri_test/images/P.png'></img>	71,89	2750.0	test	<img class = center src='/static/experiments/beast_fmri_test/images/redP.png'></img>	go	1400.0	3.0	23.0	go	non-target	P	71,Index Finger	89,Middle Finger	1300.0	1350.0	1450.0	1400.0	1.0	1350.0	1.0	n/a	go_stim
107973.22792099998	1786.7720789999998	n/a	2074	89	2750	1786.772079	stim	stop-signal	436	1191351	0.0-19.23-1.23	beast_fmri_test	384	1189031,/,1189712,/,1190392,/,1191071,/,1191753,/,1192432,/,1193111,/	t,t,t,t,t,t,t	<img class = center src='/static/experiments/beast_fmri_test/images/P.png'></img>	71,89	2750.0	test	<img class = center src='/static/experiments/beast_fmri_test/images/redP.png'></img>	go	1400.0	3.0	23.0	go	non-target	P	71,Index Finger	89,Middle Finger	1300.0	1350.0	1450.0	1400.0	1.0	1350.0	1.0	n/a	ITI
112061	500	n/a	-1	-1	500	0.0	fixation	poldrack-single-stim	437	1193652	0.0-19.24-0.24	beast_fmri_test	384	n/a	n/a	<div class = centerbox2><div class = fixation>+</div></div>	none	500.0	test	n/a	n/a	n/a	n/a	n/a	n/a	n/a	n/a	n/a	n/a	n/a	n/a	n/a	n/a	n/a	n/a	n/a	n/a	fixation
111378.7862166001	2750	n/a	1967	89	2750	684.2137834	stim	stop-signal	438	1196404	0.0-19.24-1.24	beast_fmri_test	384	1193792,/,1194472,/,1195151,/,1195831,/,1196511,/	t,t,t,t,t	<img class = center src='/static/experiments/beast_fmri_test/images/B.png'></img>	71,89	2750.0	test	<img class = center src='/static/experiments/beast_fmri_test/images/redB.png'></img>	go	1450.0	3.0	24.0	go	target	B	71,Index Finger	89,Middle Finger	1300.0	1350.0	1450.0	1400.0	0.0	1300.0	0.0	n/a	go_stim
114128.7862166001	684.21378340000001	n/a	1967	89	2750	684.2137834	stim	stop-signal	438	1196404	0.0-19.24-1.24	beast_fmri_test	384	1193792,/,1194472,/,1195151,/,1195831,/,1196511,/	t,t,t,t,t	<img class = center src='/static/experiments/beast_fmri_test/images/B.png'></img>	71,89	2750.0	test	<img class = center src='/static/experiments/beast_fmri_test/images/redB.png'></img>	go	1450.0	3.0	24.0	go	target	B	71,Index Finger	89,Middle Finger	1300.0	1350.0	1450.0	1400.0	0.0	1300.0	0.0	n/a	ITI
116014	500	n/a	-1	-1	500	0.0	fixation	poldrack-single-stim	439	1197605	0.0-19.25-0.25	beast_fmri_test	384	1197192,/	t	<div class = centerbox2><div class = fixation>+</div></div>	none	500.0	test	n/a	n/a	n/a	n/a	n/a	n/a	n/a	n/a	n/a	n/a	n/a	n/a	n/a	n/a	n/a	n/a	n/a	n/a	fixation
115844.37183879991	2750	n/a	1856	89	2750	171.6281612	stim	stop-signal	440	1200357	0.0-19.25-1.25	beast_fmri_test	384	1197872,/,1198551,/,1199231,/,1199911,/	t,t,t,t	<img class = center src='/static/experiments/beast_fmri_test/images/P.png'></img>	71,89	2750.0	test	<img class = center src='/static/experiments/beast_fmri_test/images/redP.png'></img>	go	1400.0	3.0	25.0	go	non-target	P	71,Index Finger	89,Middle Finger	1300.0	1350.0	1450.0	1400.0	1.0	1350.0	1.0	n/a	go_stim
118594.37183879991	171.62816119999999	n/a	1856	89	2750	171.6281612	stim	stop-signal	440	1200357	0.0-19.25-1.25	beast_fmri_test	384	1197872,/,1198551,/,1199231,/,1199911,/	t,t,t,t	<img class = center src='/static/experiments/beast_fmri_test/images/P.png'></img>	71,89	2750.0	test	<img class = center src='/static/experiments/beast_fmri_test/images/redP.png'></img>	go	1400.0	3.0	25.0	go	non-target	P	71,Index Finger	89,Middle Finger	1300.0	1350.0	1450.0	1400.0	1.0	1350.0	1.0	n/a	ITI
119451	500	n/a	-1	-1	500	0.0	fixation	poldrack-single-stim	441	1201042	0.0-19.26-0.26	beast_fmri_test	384	1200591,/	t	<div class = centerbox2><div class = fixation>+</div></div>	none	500.0	test	n/a	n/a	n/a	n/a	n/a	n/a	n/a	n/a	n/a	n/a	n/a	n/a	n/a	n/a	n/a	n/a	n/a	n/a	fixation
118938.08967219992	2750	n/a	1769	71	2750	514.9103278	stim	stop-signal	442	1203794	0.0-19.26-1.26	beast_fmri_test	384	1201271,/,1201952,/,1202631,/,1203311,/,1203991,/	t,t,t,t,t	<img class = center src='/static/experiments/beast_fmri_test/images/B.png'></img>	71,89	2750.0	test	<img class = center src='/static/experiments/beast_fmri_test/images/redB.png'></img>	go	1400.0	3.0	26.0	go	non-target	B	71,Index Finger	89,Middle Finger	1300.0	1350.0	1450.0	1400.0	0.0	1350.0	0.0	n/a	go_stim
121688.08967219992	514.9103278	n/a	1769	71	2750	514.9103278	stim	stop-signal	442	1203794	0.0-19.26-1.26	beast_fmri_test	384	1201271,/,1201952,/,1202631,/,1203311,/,1203991,/	t,t,t,t,t	<img class = center src='/static/experiments/beast_fmri_test/images/B.png'></img>	71,89	2750.0	test	<img class = center src='/static/experiments/beast_fmri_test/images/redB.png'></img>	go	1400.0	3.0	26.0	go	non-target	B	71,Index Finger	89,Middle Finger	1300.0	1350.0	1450.0	1400.0	0.0	1350.0	0.0	n/a	ITI
123235	500	n/a	-1	-1	500	0.0	fixation	poldrack-single-stim	443	1204826	0.0-19.27-0.27	beast_fmri_test	384	1204671,/	t	<div class = centerbox2><div class = fixation>+</div></div>	none	500.0	test	n/a	n/a	n/a	n/a	n/a	n/a	n/a	n/a	n/a	n/a	n/a	n/a	n/a	n/a	n/a	n/a	n/a	n/a	fixation
123094.61829990009	1300.0	n/a	1550	71	2750	142.3817001	stim	stop-signal	444	1207578	0.0-19.27-1.27	beast_fmri_test	384	1205351,/,1206031,/,1206711,/,1207391,/	t,t,t,t	<img class = center src='/static/experiments/beast_fmri_test/images/B.png'></img>	71,89	2750.0	test	<img class = center src='/static/experiments/beast_fmri_test/images/redB.png'></img>	stop	1450.0	3.0	27.0	stop	target	B	71,Index Finger	89,Middle Finger	1300.0	1350.0	1450.0	1400.0	0.0	1300.0	n/a	0.0	go_stim
124544.61829990009	1450.0	n/a	1550	71	2750	142.3817001	stim	stop-signal	444	1207578	0.0-19.27-1.27	beast_fmri_test	384	1205351,/,1206031,/,1206711,/,1207391,/	t,t,t,t	<img class = center src='/static/experiments/beast_fmri_test/images/B.png'></img>	71,89	2750.0	test	<img class = center src='/static/experiments/beast_fmri_test/images/redB.png'></img>	stop	1450.0	3.0	27.0	stop	target	B	71,Index Finger	89,Middle Finger	1300.0	1350.0	1450.0	1400.0	0.0	1300.0	n/a	0.0	stop_stim
125844.61829990009	142.38170009999999	n/a	1550	71	2750	142.3817001	stim	stop-signal	444	1207578	0.0-19.27-1.27	beast_fmri_test	384	1205351,/,1206031,/,1206711,/,1207391,/	t,t,t,t	<img class = center src='/static/experiments/beast_fmri_test/images/B.png'></img>	71,89	2750.0	test	<img class = center src='/static/experiments/beast_fmri_test/images/redB.png'></img>	stop	1450.0	3.0	27.0	stop	target	B	71,Index Finger	89,Middle Finger	1300.0	1350.0	1450.0	1400.0	0.0	1300.0	n/a	0.0	ITI
126646	500	n/a	-1	-1	500	0.0	fixation	poldrack-single-stim	445	1208237	0.0-19.28-0.28	beast_fmri_test	384	1208071,/	t	<div class = centerbox2><div class = fixation>+</div></div>	none	500.0	test	n/a	n/a	n/a	n/a	n/a	n/a	n/a	n/a	n/a	n/a	n/a	n/a	n/a	n/a	n/a	n/a	n/a	n/a	fixation
125962.7859896	2750	n/a	2394	89	2750	685.2140104	stim	stop-signal	446	1210989	0.0-19.28-1.28	beast_fmri_test	384	1208751,/,1209431,/,1210111,/,1210791,/,1211471,/	t,t,t,t,t	<img class = center src='/static/experiments/beast_fmri_test/images/D.png'></img>	71,89	2750.0	test	<img class = center src='/static/experiments/beast_fmri_test/images/redD.png'></img>	go	1400.0	3.0	28.0	go	non-target	D	71,Index Finger	89,Middle Finger	1250.0	1350.0	1450.0	1400.0	1.0	1350.0	1.0	n/a	go_stim
128712.7859896	685.21401039999989	n/a	2394	89	2750	685.2140104	stim	stop-signal	446	1210989	0.0-19.28-1.28	beast_fmri_test	384	1208751,/,1209431,/,1210111,/,1210791,/,1211471,/	t,t,t,t,t	<img class = center src='/static/experiments/beast_fmri_test/images/D.png'></img>	71,89	2750.0	test	<img class = center src='/static/experiments/beast_fmri_test/images/redD.png'></img>	go	1400.0	3.0	28.0	go	non-target	D	71,Index Finger	89,Middle Finger	1250.0	1350.0	1450.0	1400.0	1.0	1350.0	1.0	n/a	ITI
130595	500	n/a	-1	-1	500	0.0	fixation	poldrack-single-stim	447	1212186	0.0-19.29-0.29	beast_fmri_test	384	1212152,/	t	<div class = centerbox2><div class = fixation>+</div></div>	none	500.0	test	n/a	n/a	n/a	n/a	n/a	n/a	n/a	n/a	n/a	n/a	n/a	n/a	n/a	n/a	n/a	n/a	n/a	n/a	fixation
129892.57764529996	1250.0	n/a	-1	-1	2750	704.4223547	stim	stop-signal	448	1214938	0.0-19.29-1.29	beast_fmri_test	384	1212831,/,1213511,/,1214191,/,1214871,/,1215551,/	t,t,t,t,t	<img class = center src='/static/experiments/beast_fmri_test/images/B.png'></img>	71,89	2750.0	test	<img class = center src='/static/experiments/beast_fmri_test/images/redB.png'></img>	stop	1500.0	3.0	29.0	stop	target	B	71,Index Finger	89,Middle Finger	1250.0	1350.0	1500.0	1400.0	0.0	1250.0	n/a	1.0	go_stim
131392.57764529996	1500.0	n/a	-1	-1	2750	704.4223547	stim	stop-signal	448	1214938	0.0-19.29-1.29	beast_fmri_test	384	1212831,/,1213511,/,1214191,/,1214871,/,1215551,/	t,t,t,t,t	<img class = center src='/static/experiments/beast_fmri_test/images/B.png'></img>	71,89	2750.0	test	<img class = center src='/static/experiments/beast_fmri_test/images/redB.png'></img>	stop	1500.0	3.0	29.0	stop	target	B	71,Index Finger	89,Middle Finger	1250.0	1350.0	1500.0	1400.0	0.0	1250.0	n/a	1.0	stop_stim
132642.57764529996	704.42235470000003	n/a	-1	-1	2750	704.4223547	stim	stop-signal	448	1214938	0.0-19.29-1.29	beast_fmri_test	384	1212831,/,1213511,/,1214191,/,1214871,/,1215551,/	t,t,t,t,t	<img class = center src='/static/experiments/beast_fmri_test/images/B.png'></img>	71,89	2750.0	test	<img class = center src='/static/experiments/beast_fmri_test/images/redB.png'></img>	stop	1500.0	3.0	29.0	stop	target	B	71,Index Finger	89,Middle Finger	1250.0	1350.0	1500.0	1400.0	0.0	1250.0	n/a	1.0	ITI
134567	500	n/a	-1	-1	500	0.0	fixation	poldrack-single-stim	449	1216158	0.0-19.30-0.30	beast_fmri_test	384	n/a	n/a	<div class = centerbox2><div class = fixation>+</div></div>	none	500.0	test	n/a	n/a	n/a	n/a	n/a	n/a	n/a	n/a	n/a	n/a	n/a	n/a	n/a	n/a	n/a	n/a	n/a	n/a	fixation
134558.37778780004	1350.0	n/a	-1	-1	2750	11.6222122	stim	stop-signal	450	1218911	0.0-19.30-1.30	beast_fmri_test	384	1216231,/,1216911,/,1217591,/,1218271,/	t,t,t,t	<img class = center src='/static/experiments/beast_fmri_test/images/T.png'></img>	71,89	2750.0	test	<img class = center src='/static/experiments/beast_fmri_test/images/redT.png'></img>	stop	1400.0	3.0	30.0	stop	non-target	T	71,Index Finger	89,Middle Finger	1300.0	1350.0	1500.0	1400.0	0.0	1350.0	n/a	1.0	go_stim
135958.37778780004	1400.0	n/a	-1	-1	2750	11.6222122	stim	stop-signal	450	1218911	0.0-19.30-1.30	beast_fmri_test	384	1216231,/,1216911,/,1217591,/,1218271,/	t,t,t,t	<img class = center src='/static/experiments/beast_fmri_test/images/T.png'></img>	71,89	2750.0	test	<img class = center src='/static/experiments/beast_fmri_test/images/redT.png'></img>	stop	1400.0	3.0	30.0	stop	non-target	T	71,Index Finger	89,Middle Finger	1300.0	1350.0	1500.0	1400.0	0.0	1350.0	n/a	1.0	stop_stim
137308.37778780004	11.622212199999998	n/a	-1	-1	2750	11.6222122	stim	stop-signal	450	1218911	0.0-19.30-1.30	beast_fmri_test	384	1216231,/,1216911,/,1217591,/,1218271,/	t,t,t,t	<img class = center src='/static/experiments/beast_fmri_test/images/T.png'></img>	71,89	2750.0	test	<img class = center src='/static/experiments/beast_fmri_test/images/redT.png'></img>	stop	1400.0	3.0	30.0	stop	non-target	T	71,Index Finger	89,Middle Finger	1300.0	1350.0	1500.0	1400.0	0.0	1350.0	n/a	1.0	ITI
137846	500	n/a	-1	-1	500	0.0	fixation	poldrack-single-stim	451	1219437	0.0-19.31-0.31	beast_fmri_test	384	1218951,/	t	<div class = centerbox2><div class = fixation>+</div></div>	none	500.0	test	n/a	n/a	n/a	n/a	n/a	n/a	n/a	n/a	n/a	n/a	n/a	n/a	n/a	n/a	n/a	n/a	n/a	n/a	fixation
137702.1149838001	1300.0	n/a	-1	-1	2750	145.8850162	stim	stop-signal	452	1222189	0.0-19.31-1.31	beast_fmri_test	384	1219631,/,1220310,/,1220991,/,1221670,/	t,t,t,t	<img class = center src='/static/experiments/beast_fmri_test/images/D.png'></img>	71,89	2750.0	test	<img class = center src='/static/experiments/beast_fmri_test/images/redD.png'></img>	stop	1450.0	3.0	31.0	stop	target	D	71,Index Finger	89,Middle Finger	1300.0	1400.0	1450.0	1400.0	0.0	1300.0	n/a	1.0	go_stim
139152.1149838001	1450.0	n/a	-1	-1	2750	145.8850162	stim	stop-signal	452	1222189	0.0-19.31-1.31	beast_fmri_test	384	1219631,/,1220310,/,1220991,/,1221670,/	t,t,t,t	<img class = center src='/static/experiments/beast_fmri_test/images/D.png'></img>	71,89	2750.0	test	<img class = center src='/static/experiments/beast_fmri_test/images/redD.png'></img>	stop	1450.0	3.0	31.0	stop	target	D	71,Index Finger	89,Middle Finger	1300.0	1400.0	1450.0	1400.0	0.0	1300.0	n/a	1.0	stop_stim
140452.1149838001	145.88501619999997	n/a	-1	-1	2750	145.8850162	stim	stop-signal	452	1222189	0.0-19.31-1.31	beast_fmri_test	384	1219631,/,1220310,/,1220991,/,1221670,/	t,t,t,t	<img class = center src='/static/experiments/beast_fmri_test/images/D.png'></img>	71,89	2750.0	test	<img class = center src='/static/experiments/beast_fmri_test/images/redD.png'></img>	stop	1450.0	3.0	31.0	stop	target	D	71,Index Finger	89,Middle Finger	1300.0	1400.0	1450.0	1400.0	0.0	1300.0	n/a	1.0	ITI
141259	500	n/a	-1	-1	500	0.0	fixation	poldrack-single-stim	453	1222850	0.0-19.32-0.32	beast_fmri_test	384	1222352,/	t	<div class = centerbox2><div class = fixation>+</div></div>	none	500.0	test	n/a	n/a	n/a	n/a	n/a	n/a	n/a	n/a	n/a	n/a	n/a	n/a	n/a	n/a	n/a	n/a	n/a	n/a	fixation
139777.17404099996	1400.0	n/a	-1	-1	2750	1483.825959	stim	stop-signal	454	1225602	0.0-19.32-1.32	beast_fmri_test	384	1223032,/,1223712,/,1224392,/,1225072,/,1225751,/,1226431,/	t,t,t,t,t,t	<img class = center src='/static/experiments/beast_fmri_test/images/T.png'></img>	71,89	2750.0	test	<img class = center src='/static/experiments/beast_fmri_test/images/redT.png'></img>	stop	1350.0	3.0	32.0	stop	non-target	T	71,Index Finger	89,Middle Finger	1350.0	1400.0	1450.0	1350.0	0.0	1400.0	n/a	1.0	go_stim
141127.17404099996	1350.0	n/a	-1	-1	2750	1483.825959	stim	stop-signal	454	1225602	0.0-19.32-1.32	beast_fmri_test	384	1223032,/,1223712,/,1224392,/,1225072,/,1225751,/,1226431,/	t,t,t,t,t,t	<img class = center src='/static/experiments/beast_fmri_test/images/T.png'></img>	71,89	2750.0	test	<img class = center src='/static/experiments/beast_fmri_test/images/redT.png'></img>	stop	1350.0	3.0	32.0	stop	non-target	T	71,Index Finger	89,Middle Finger	1350.0	1400.0	1450.0	1350.0	0.0	1400.0	n/a	1.0	stop_stim
142527.17404099996	1483.825959	n/a	-1	-1	2750	1483.825959	stim	stop-signal	454	1225602	0.0-19.32-1.32	beast_fmri_test	384	1223032,/,1223712,/,1224392,/,1225072,/,1225751,/,1226431,/	t,t,t,t,t,t	<img class = center src='/static/experiments/beast_fmri_test/images/T.png'></img>	71,89	2750.0	test	<img class = center src='/static/experiments/beast_fmri_test/images/redT.png'></img>	stop	1350.0	3.0	32.0	stop	non-target	T	71,Index Finger	89,Middle Finger	1350.0	1400.0	1450.0	1350.0	0.0	1400.0	n/a	1.0	ITI
146011	500	n/a	-1	-1	500	0.0	fixation	poldrack-single-stim	455	1227602	0.0-19.33-0.33	beast_fmri_test	384	1227111,/	t	<div class = centerbox2><div class = fixation>+</div></div>	none	500.0	test	n/a	n/a	n/a	n/a	n/a	n/a	n/a	n/a	n/a	n/a	n/a	n/a	n/a	n/a	n/a	n/a	n/a	n/a	fixation
145868.62712830002	2750	n/a	1742	89	2750	144.3728717	stim	stop-signal	456	1230354	0.0-19.33-1.33	beast_fmri_test	384	1227792,/,1228471,/,1229151,/,1229831,/	t,t,t,t	<img class = center src='/static/experiments/beast_fmri_test/images/T.png'></img>	71,89	2750.0	test	<img class = center src='/static/experiments/beast_fmri_test/images/redT.png'></img>	go	1400.0	3.0	33.0	go	target	T	71,Index Finger	89,Middle Finger	1350.0	1450.0	1400.0	1350.0	0.0	1350.0	0.0	n/a	go_stim
148618.62712830002	144.37287169999999	n/a	1742	89	2750	144.3728717	stim	stop-signal	456	1230354	0.0-19.33-1.33	beast_fmri_test	384	1227792,/,1228471,/,1229151,/,1229831,/	t,t,t,t	<img class = center src='/static/experiments/beast_fmri_test/images/T.png'></img>	71,89	2750.0	test	<img class = center src='/static/experiments/beast_fmri_test/images/redT.png'></img>	go	1400.0	3.0	33.0	go	target	T	71,Index Finger	89,Middle Finger	1350.0	1450.0	1400.0	1350.0	0.0	1350.0	0.0	n/a	ITI
149424	500	n/a	-1	-1	500	0.0	fixation	poldrack-single-stim	457	1231015	0.0-19.34-0.34	beast_fmri_test	384	1230514,/	t	<div class = centerbox2><div class = fixation>+</div></div>	none	500.0	test	n/a	n/a	n/a	n/a	n/a	n/a	n/a	n/a	n/a	n/a	n/a	n/a	n/a	n/a	n/a	n/a	n/a	n/a	fixation
146613.03640799993	2750	n/a	-1	-1	2750	2812.963592	stim	stop-signal	458	1233767	0.0-19.34-1.34	beast_fmri_test	384	1231191,/,1231872,/,1232552,/,1233231,/,1233911,/,1234591,/,1235271,/,1235951,/	t,t,t,t,t,t,t,t	<img class = center src='/static/experiments/beast_fmri_test/images/D.png'></img>	71,89	2750.0	test	<img class = center src='/static/experiments/beast_fmri_test/images/redD.png'></img>	go	1400.0	3.0	34.0	go	target	D	71,Index Finger	89,Middle Finger	1350.0	1450.0	1400.0	1350.0	0.0	1350.0	0.0	n/a	go_stim
149363.03640799993	2812.9635920000001	n/a	-1	-1	2750	2812.963592	stim	stop-signal	458	1233767	0.0-19.34-1.34	beast_fmri_test	384	1231191,/,1231872,/,1232552,/,1233231,/,1233911,/,1234591,/,1235271,/,1235951,/	t,t,t,t,t,t,t,t	<img class = center src='/static/experiments/beast_fmri_test/images/D.png'></img>	71,89	2750.0	test	<img class = center src='/static/experiments/beast_fmri_test/images/redD.png'></img>	go	1400.0	3.0	34.0	go	target	D	71,Index Finger	89,Middle Finger	1350.0	1450.0	1400.0	1350.0	0.0	1350.0	0.0	n/a	ITI
155504	500	n/a	-1	-1	500	0.0	fixation	poldrack-single-stim	459	1237095	0.0-19.35-0.35	beast_fmri_test	384	1236631,/	t	<div class = centerbox2><div class = fixation>+</div></div>	none	500.0	test	n/a	n/a	n/a	n/a	n/a	n/a	n/a	n/a	n/a	n/a	n/a	n/a	n/a	n/a	n/a	n/a	n/a	n/a	fixation
155182.71257960005	2750	n/a	1819	71	2750	323.2874204	stim	stop-signal	460	1239847	0.0-19.35-1.35	beast_fmri_test	384	1237311,/,1237991,/,1238672,/,1239351,/,1240031,/	t,t,t,t,t	<img class = center src='/static/experiments/beast_fmri_test/images/T.png'></img>	71,89	2750.0	test	<img class = center src='/static/experiments/beast_fmri_test/images/redT.png'></img>	go	1400.0	3.0	35.0	go	target	T	71,Index Finger	89,Middle Finger	1350.0	1450.0	1400.0	1350.0	1.0	1350.0	1.0	n/a	go_stim
157932.71257960005	323.28742039999997	n/a	1819	71	2750	323.2874204	stim	stop-signal	460	1239847	0.0-19.35-1.35	beast_fmri_test	384	1237311,/,1237991,/,1238672,/,1239351,/,1240031,/	t,t,t,t,t	<img class = center src='/static/experiments/beast_fmri_test/images/T.png'></img>	71,89	2750.0	test	<img class = center src='/static/experiments/beast_fmri_test/images/redT.png'></img>	go	1400.0	3.0	35.0	go	target	T	71,Index Finger	89,Middle Finger	1350.0	1450.0	1400.0	1350.0	1.0	1350.0	1.0	n/a	ITI
159093	500	n/a	-1	-1	500	0.0	fixation	poldrack-single-stim	461	1240684	0.0-19.36-0.36	beast_fmri_test	384	n/a	n/a	<div class = centerbox2><div class = fixation>+</div></div>	none	500.0	test	n/a	n/a	n/a	n/a	n/a	n/a	n/a	n/a	n/a	n/a	n/a	n/a	n/a	n/a	n/a	n/a	n/a	n/a	fixation
155655.79975400004	2750	n/a	1994	89	2750	3438.200246	stim	stop-signal	462	1243435	0.0-19.36-1.36	beast_fmri_test	384	1240711,/,1241391,/,1242071,/,1242751,/,1243431,/,1244111,/,1244791,/,1245471,/,1246151,/,1246831,/	t,t,t,t,t,t,t,t,t,t	<img class = center src='/static/experiments/beast_fmri_test/images/T.png'></img>	71,89	2750.0	test	<img class = center src='/static/experiments/beast_fmri_test/images/redT.png'></img>	go	1400.0	3.0	36.0	go	target	T	71,Index Finger	89,Middle Finger	1350.0	1450.0	1400.0	1350.0	0.0	1350.0	0.0	n/a	go_stim
158405.79975400004	3438.2002459999999	n/a	1994	89	2750	3438.200246	stim	stop-signal	462	1243435	0.0-19.36-1.36	beast_fmri_test	384	1240711,/,1241391,/,1242071,/,1242751,/,1243431,/,1244111,/,1244791,/,1245471,/,1246151,/,1246831,/	t,t,t,t,t,t,t,t,t,t	<img class = center src='/static/experiments/beast_fmri_test/images/T.png'></img>	71,89	2750.0	test	<img class = center src='/static/experiments/beast_fmri_test/images/redT.png'></img>	go	1400.0	3.0	36.0	go	target	T	71,Index Finger	89,Middle Finger	1350.0	1450.0	1400.0	1350.0	0.0	1350.0	0.0	n/a	ITI
165796	500	n/a	-1	-1	500	0.0	fixation	poldrack-single-stim	463	1247387	0.0-19.37-0.37	beast_fmri_test	384	n/a	n/a	<div class = centerbox2><div class = fixation>+</div></div>	none	500.0	test	n/a	n/a	n/a	n/a	n/a	n/a	n/a	n/a	n/a	n/a	n/a	n/a	n/a	n/a	n/a	n/a	n/a	n/a	fixation
165176.52319899993	2750	n/a	1600	71	2750	621.476801	stim	stop-signal	464	1250139	0.0-19.37-1.37	beast_fmri_test	384	1247511,/,1248191,/,1248871,/,1249551,/,1250231,/	t,t,t,t,t	<img class = center src='/static/experiments/beast_fmri_test/images/D.png'></img>	71,89	2750.0	test	<img class = center src='/static/experiments/beast_fmri_test/images/redD.png'></img>	go	1400.0	3.0	37.0	go	target	D	71,Index Finger	89,Middle Finger	1350.0	1450.0	1400.0	1350.0	1.0	1350.0	1.0	n/a	go_stim
167926.52319899993	621.47680100000002	n/a	1600	71	2750	621.476801	stim	stop-signal	464	1250139	0.0-19.37-1.37	beast_fmri_test	384	1247511,/,1248191,/,1248871,/,1249551,/,1250231,/	t,t,t,t,t	<img class = center src='/static/experiments/beast_fmri_test/images/D.png'></img>	71,89	2750.0	test	<img class = center src='/static/experiments/beast_fmri_test/images/redD.png'></img>	go	1400.0	3.0	37.0	go	target	D	71,Index Finger	89,Middle Finger	1350.0	1450.0	1400.0	1350.0	1.0	1350.0	1.0	n/a	ITI
169685	500	n/a	-1	-1	500	0.0	fixation	poldrack-single-stim	465	1251276	0.0-19.38-0.38	beast_fmri_test	384	1250911,/	t	<div class = centerbox2><div class = fixation>+</div></div>	none	500.0	test	n/a	n/a	n/a	n/a	n/a	n/a	n/a	n/a	n/a	n/a	n/a	n/a	n/a	n/a	n/a	n/a	n/a	n/a	fixation
169228.71468329988	2750	n/a	1733	89	2750	458.2853167	stim	stop-signal	466	1254028	0.0-19.38-1.38	beast_fmri_test	384	1251591,/,1252271,/,1252952,/,1253631,/,1254312,/	t,t,t,t,t	<img class = center src='/static/experiments/beast_fmri_test/images/P.png'></img>	71,89	2750.0	test	<img class = center src='/static/experiments/beast_fmri_test/images/redP.png'></img>	go	1300.0	3.0	38.0	go	non-target	P	71,Index Finger	89,Middle Finger	1350.0	1450.0	1400.0	1300.0	1.0	1450.0	1.0	n/a	go_stim
171978.71468329988	458.28531669999995	n/a	1733	89	2750	458.2853167	stim	stop-signal	466	1254028	0.0-19.38-1.38	beast_fmri_test	384	1251591,/,1252271,/,1252952,/,1253631,/,1254312,/	t,t,t,t,t	<img class = center src='/static/experiments/beast_fmri_test/images/P.png'></img>	71,89	2750.0	test	<img class = center src='/static/experiments/beast_fmri_test/images/redP.png'></img>	go	1300.0	3.0	38.0	go	non-target	P	71,Index Finger	89,Middle Finger	1350.0	1450.0	1400.0	1300.0	1.0	1450.0	1.0	n/a	ITI
173410	500	n/a	-1	-1	500	0.0	fixation	poldrack-single-stim	467	1255001	0.0-19.39-0.39	beast_fmri_test	384	1254992,/	t	<div class = centerbox2><div class = fixation>+</div></div>	none	500.0	test	n/a	n/a	n/a	n/a	n/a	n/a	n/a	n/a	n/a	n/a	n/a	n/a	n/a	n/a	n/a	n/a	n/a	n/a	fixation
172418.86999549996	2750	n/a	1566	89	2750	993.1300045	stim	stop-signal	468	1257753	0.0-19.39-1.39	beast_fmri_test	384	1255672,/,1256351,/,1257032,/,1257712,/,1258392,/	t,t,t,t,t	<img class = center src='/static/experiments/beast_fmri_test/images/D.png'></img>	71,89	2750.0	test	<img class = center src='/static/experiments/beast_fmri_test/images/redD.png'></img>	go	1300.0	3.0	39.0	go	non-target	D	71,Index Finger	89,Middle Finger	1350.0	1450.0	1400.0	1300.0	1.0	1450.0	1.0	n/a	go_stim
175168.86999549996	993.13000450000004	n/a	1566	89	2750	993.1300045	stim	stop-signal	468	1257753	0.0-19.39-1.39	beast_fmri_test	384	1255672,/,1256351,/,1257032,/,1257712,/,1258392,/	t,t,t,t,t	<img class = center src='/static/experiments/beast_fmri_test/images/D.png'></img>	71,89	2750.0	test	<img class = center src='/static/experiments/beast_fmri_test/images/redD.png'></img>	go	1300.0	3.0	39.0	go	non-target	D	71,Index Finger	89,Middle Finger	1350.0	1450.0	1400.0	1300.0	1.0	1450.0	1.0	n/a	ITI
177672	500	n/a	-1	-1	500	0.0	fixation	poldrack-single-stim	469	1259263	0.0-19.40-0.40	beast_fmri_test	384	1259071,/	t	<div class = centerbox2><div class = fixation>+</div></div>	none	500.0	test	n/a	n/a	n/a	n/a	n/a	n/a	n/a	n/a	n/a	n/a	n/a	n/a	n/a	n/a	n/a	n/a	n/a	n/a	fixation
176041.30190400011	2750	n/a	1801	71	2750	1632.698096	stim	stop-signal	470	1262015	0.0-19.40-1.40	beast_fmri_test	384	1259752,/,1260431,/,1261111,/,1261791,/,1262471,/,1263152,/	t,t,t,t,t,t	<img class = center src='/static/experiments/beast_fmri_test/images/V.png'></img>	71,89	2750.0	test	<img class = center src='/static/experiments/beast_fmri_test/images/redV.png'></img>	go	1300.0	3.0	40.0	go	non-target	V	71,Index Finger	89,Middle Finger	1350.0	1450.0	1400.0	1300.0	0.0	1450.0	0.0	n/a	go_stim
178791.30190400011	1632.6980960000001	n/a	1801	71	2750	1632.698096	stim	stop-signal	470	1262015	0.0-19.40-1.40	beast_fmri_test	384	1259752,/,1260431,/,1261111,/,1261791,/,1262471,/,1263152,/	t,t,t,t,t,t	<img class = center src='/static/experiments/beast_fmri_test/images/V.png'></img>	71,89	2750.0	test	<img class = center src='/static/experiments/beast_fmri_test/images/redV.png'></img>	go	1300.0	3.0	40.0	go	non-target	V	71,Index Finger	89,Middle Finger	1350.0	1450.0	1400.0	1300.0	0.0	1450.0	0.0	n/a	ITI
182572	500	n/a	-1	-1	500	0.0	fixation	poldrack-single-stim	471	1264163	0.0-19.41-0.41	beast_fmri_test	384	1263831,/	t	<div class = centerbox2><div class = fixation>+</div></div>	none	500.0	test	n/a	n/a	n/a	n/a	n/a	n/a	n/a	n/a	n/a	n/a	n/a	n/a	n/a	n/a	n/a	n/a	n/a	n/a	fixation
180024.74877299997	2750	n/a	-1	-1	2750	2549.251227	stim	stop-signal	472	1266915	0.0-19.41-1.41	beast_fmri_test	384	1264511,/,1265191,/,1265871,/,1266552,/,1267231,/,1267911,/,1268591,/,1269271,/	t,t,t,t,t,t,t,t	<img class = center src='/static/experiments/beast_fmri_test/images/P.png'></img>	71,89	2750.0	test	<img class = center src='/static/experiments/beast_fmri_test/images/redP.png'></img>	go	1400.0	3.0	41.0	go	target	P	71,Index Finger	89,Middle Finger	1350.0	1450.0	1400.0	1300.0	0.0	1350.0	0.0	n/a	go_stim
182774.74877299997	2549.2512269999997	n/a	-1	-1	2750	2549.251227	stim	stop-signal	472	1266915	0.0-19.41-1.41	beast_fmri_test	384	1264511,/,1265191,/,1265871,/,1266552,/,1267231,/,1267911,/,1268591,/,1269271,/	t,t,t,t,t,t,t,t	<img class = center src='/static/experiments/beast_fmri_test/images/P.png'></img>	71,89	2750.0	test	<img class = center src='/static/experiments/beast_fmri_test/images/redP.png'></img>	go	1400.0	3.0	41.0	go	target	P	71,Index Finger	89,Middle Finger	1350.0	1450.0	1400.0	1300.0	0.0	1350.0	0.0	n/a	ITI
188390	500	n/a	-1	-1	500	0.0	fixation	poldrack-single-stim	473	1269981	0.0-19.42-0.42	beast_fmri_test	384	1269951,/	t	<div class = centerbox2><div class = fixation>+</div></div>	none	500.0	test	n/a	n/a	n/a	n/a	n/a	n/a	n/a	n/a	n/a	n/a	n/a	n/a	n/a	n/a	n/a	n/a	n/a	n/a	fixation
186681.97094999999	2750	n/a	1847	71	2750	1710.02905	stim	stop-signal	474	1272733	0.0-19.42-1.42	beast_fmri_test	384	1270631,/,1271311,/,1271991,/,1272671,/,1273352,/,1274031,/	t,t,t,t,t,t	<img class = center src='/static/experiments/beast_fmri_test/images/T.png'></img>	71,89	2750.0	test	<img class = center src='/static/experiments/beast_fmri_test/images/redT.png'></img>	go	1300.0	3.0	42.0	go	non-target	T	71,Index Finger	89,Middle Finger	1350.0	1450.0	1400.0	1300.0	0.0	1450.0	0.0	n/a	go_stim
189431.97094999999	1710.0290500000001	n/a	1847	71	2750	1710.02905	stim	stop-signal	474	1272733	0.0-19.42-1.42	beast_fmri_test	384	1270631,/,1271311,/,1271991,/,1272671,/,1273352,/,1274031,/	t,t,t,t,t,t	<img class = center src='/static/experiments/beast_fmri_test/images/T.png'></img>	71,89	2750.0	test	<img class = center src='/static/experiments/beast_fmri_test/images/redT.png'></img>	go	1300.0	3.0	42.0	go	non-target	T	71,Index Finger	89,Middle Finger	1350.0	1450.0	1400.0	1300.0	0.0	1450.0	0.0	n/a	ITI
193369	500	n/a	-1	-1	500	0.0	fixation	poldrack-single-stim	475	1274960	0.0-19.43-0.43	beast_fmri_test	384	1274711,/	t	<div class = centerbox2><div class = fixation>+</div></div>	none	500.0	test	n/a	n/a	n/a	n/a	n/a	n/a	n/a	n/a	n/a	n/a	n/a	n/a	n/a	n/a	n/a	n/a	n/a	n/a	fixation
193154.95102389995	1450.0	n/a	1242	89	2750	216.0489761	stim	stop-signal	476	1277712	0.0-19.43-1.43	beast_fmri_test	384	1275391,/,1276071,/,1276751,/,1277431,/	t,t,t,t	<img class = center src='/static/experiments/beast_fmri_test/images/D.png'></img>	71,89	2750.0	test	<img class = center src='/static/experiments/beast_fmri_test/images/redD.png'></img>	stop	1300.0	3.0	43.0	stop	non-target	D	71,Index Finger	89,Middle Finger	1350.0	1450.0	1400.0	1300.0	0.0	1450.0	n/a	0.0	go_stim
194454.95102389995	1300.0	n/a	1242	89	2750	216.0489761	stim	stop-signal	476	1277712	0.0-19.43-1.43	beast_fmri_test	384	1275391,/,1276071,/,1276751,/,1277431,/	t,t,t,t	<img class = center src='/static/experiments/beast_fmri_test/images/D.png'></img>	71,89	2750.0	test	<img class = center src='/static/experiments/beast_fmri_test/images/redD.png'></img>	stop	1300.0	3.0	43.0	stop	non-target	D	71,Index Finger	89,Middle Finger	1350.0	1450.0	1400.0	1300.0	0.0	1450.0	n/a	0.0	stop_stim
195904.95102389995	216.0489761	n/a	1242	89	2750	216.0489761	stim	stop-signal	476	1277712	0.0-19.43-1.43	beast_fmri_test	384	1275391,/,1276071,/,1276751,/,1277431,/	t,t,t,t	<img class = center src='/static/experiments/beast_fmri_test/images/D.png'></img>	71,89	2750.0	test	<img class = center src='/static/experiments/beast_fmri_test/images/redD.png'></img>	stop	1300.0	3.0	43.0	stop	non-target	D	71,Index Finger	89,Middle Finger	1350.0	1450.0	1400.0	1300.0	0.0	1450.0	n/a	0.0	ITI
196854	500	n/a	-1	-1	500	0.0	fixation	poldrack-single-stim	477	1278445	0.0-19.44-0.44	beast_fmri_test	384	1278111,/	t	<div class = centerbox2><div class = fixation>+</div></div>	none	500.0	test	n/a	n/a	n/a	n/a	n/a	n/a	n/a	n/a	n/a	n/a	n/a	n/a	n/a	n/a	n/a	n/a	n/a	n/a	fixation
194994.58875899995	1400.0	n/a	-1	-1	2750	1861.411241	stim	stop-signal	478	1281197	0.0-19.44-1.44	beast_fmri_test	384	1278791,/,1279471,/,1280151,/,1280831,/,1281511,/,1282191,/,1282871,/	t,t,t,t,t,t,t	<img class = center src='/static/experiments/beast_fmri_test/images/V.png'></img>	71,89	2750.0	test	<img class = center src='/static/experiments/beast_fmri_test/images/redV.png'></img>	stop	1350.0	3.0	44.0	stop	non-target	V	71,Index Finger	89,Middle Finger	1350.0	1400.0	1400.0	1350.0	0.0	1400.0	n/a	1.0	go_stim
196344.58875899995	1350.0	n/a	-1	-1	2750	1861.411241	stim	stop-signal	478	1281197	0.0-19.44-1.44	beast_fmri_test	384	1278791,/,1279471,/,1280151,/,1280831,/,1281511,/,1282191,/,1282871,/	t,t,t,t,t,t,t	<img class = center src='/static/experiments/beast_fmri_test/images/V.png'></img>	71,89	2750.0	test	<img class = center src='/static/experiments/beast_fmri_test/images/redV.png'></img>	stop	1350.0	3.0	44.0	stop	non-target	V	71,Index Finger	89,Middle Finger	1350.0	1400.0	1400.0	1350.0	0.0	1400.0	n/a	1.0	stop_stim
197744.58875899995	1861.411241	n/a	-1	-1	2750	1861.411241	stim	stop-signal	478	1281197	0.0-19.44-1.44	beast_fmri_test	384	1278791,/,1279471,/,1280151,/,1280831,/,1281511,/,1282191,/,1282871,/	t,t,t,t,t,t,t	<img class = center src='/static/experiments/beast_fmri_test/images/V.png'></img>	71,89	2750.0	test	<img class = center src='/static/experiments/beast_fmri_test/images/redV.png'></img>	stop	1350.0	3.0	44.0	stop	non-target	V	71,Index Finger	89,Middle Finger	1350.0	1400.0	1400.0	1350.0	0.0	1400.0	n/a	1.0	ITI
201981	500	n/a	-1	-1	500	0.0	fixation	poldrack-single-stim	479	1283572	0.0-19.45-0.45	beast_fmri_test	384	1283552,/	t	<div class = centerbox2><div class = fixation>+</div></div>	none	500.0	test	n/a	n/a	n/a	n/a	n/a	n/a	n/a	n/a	n/a	n/a	n/a	n/a	n/a	n/a	n/a	n/a	n/a	n/a	fixation
201801.40816239989	1450.0	n/a	-1	-1	2750	180.5918376	stim	stop-signal	480	1286323	0.0-19.45-1.45	beast_fmri_test	384	1284231,/,1284911,/,1285591,/,1286271,/	t,t,t,t	<img class = center src='/static/experiments/beast_fmri_test/images/V.png'></img>	71,89	2750.0	test	<img class = center src='/static/experiments/beast_fmri_test/images/redV.png'></img>	stop	1300.0	3.0	45.0	stop	non-target	V	71,Index Finger	89,Middle Finger	1350.0	1450.0	1400.0	1300.0	0.0	1450.0	n/a	1.0	go_stim
203101.40816239989	1300.0	n/a	-1	-1	2750	180.5918376	stim	stop-signal	480	1286323	0.0-19.45-1.45	beast_fmri_test	384	1284231,/,1284911,/,1285591,/,1286271,/	t,t,t,t	<img class = center src='/static/experiments/beast_fmri_test/images/V.png'></img>	71,89	2750.0	test	<img class = center src='/static/experiments/beast_fmri_test/images/redV.png'></img>	stop	1300.0	3.0	45.0	stop	non-target	V	71,Index Finger	89,Middle Finger	1350.0	1450.0	1400.0	1300.0	0.0	1450.0	n/a	1.0	stop_stim
204551.40816239989	180.59183759999999	n/a	-1	-1	2750	180.5918376	stim	stop-signal	480	1286323	0.0-19.45-1.45	beast_fmri_test	384	1284231,/,1284911,/,1285591,/,1286271,/	t,t,t,t	<img class = center src='/static/experiments/beast_fmri_test/images/V.png'></img>	71,89	2750.0	test	<img class = center src='/static/experiments/beast_fmri_test/images/redV.png'></img>	stop	1300.0	3.0	45.0	stop	non-target	V	71,Index Finger	89,Middle Finger	1350.0	1450.0	1400.0	1300.0	0.0	1450.0	n/a	1.0	ITI
205430	500	n/a	-1	-1	500	0.0	fixation	poldrack-single-stim	481	1287021	0.0-19.46-0.46	beast_fmri_test	384	1286952,/	t	<div class = centerbox2><div class = fixation>+</div></div>	none	500.0	test	n/a	n/a	n/a	n/a	n/a	n/a	n/a	n/a	n/a	n/a	n/a	n/a	n/a	n/a	n/a	n/a	n/a	n/a	fixation
205186.69316680008	2750	n/a	1954	89	2750	245.3068332	stim	stop-signal	482	1289773	0.0-19.46-1.46	beast_fmri_test	384	1287631,/,1288312,/,1288992,/,1289671,/	t,t,t,t	<img class = center src='/static/experiments/beast_fmri_test/images/T.png'></img>	71,89	2750.0	test	<img class = center src='/static/experiments/beast_fmri_test/images/redT.png'></img>	go	1250.0	3.0	46.0	go	non-target	T	71,Index Finger	89,Middle Finger	1350.0	1500.0	1400.0	1250.0	1.0	1500.0	1.0	n/a	go_stim
207936.69316680008	245.3068332	n/a	1954	89	2750	245.3068332	stim	stop-signal	482	1289773	0.0-19.46-1.46	beast_fmri_test	384	1287631,/,1288312,/,1288992,/,1289671,/	t,t,t,t	<img class = center src='/static/experiments/beast_fmri_test/images/T.png'></img>	71,89	2750.0	test	<img class = center src='/static/experiments/beast_fmri_test/images/redT.png'></img>	go	1250.0	3.0	46.0	go	non-target	T	71,Index Finger	89,Middle Finger	1350.0	1500.0	1400.0	1250.0	1.0	1500.0	1.0	n/a	ITI
208943	500	n/a	-1	-1	500	0.0	fixation	poldrack-single-stim	483	1290534	0.0-19.47-0.47	beast_fmri_test	384	1290352,/	t	<div class = centerbox2><div class = fixation>+</div></div>	none	500.0	test	n/a	n/a	n/a	n/a	n/a	n/a	n/a	n/a	n/a	n/a	n/a	n/a	n/a	n/a	n/a	n/a	n/a	n/a	fixation
208557.90634680004	2750	n/a	2305	89	2750	387.0936532	stim	stop-signal	484	1293286	0.0-19.47-1.47	beast_fmri_test	384	1291032,/,1291712,/,1292392,/,1293071,/	t,t,t,t	<img class = center src='/static/experiments/beast_fmri_test/images/D.png'></img>	71,89	2750.0	test	<img class = center src='/static/experiments/beast_fmri_test/images/redD.png'></img>	go	1250.0	3.0	47.0	go	non-target	D	71,Index Finger	89,Middle Finger	1350.0	1500.0	1400.0	1250.0	1.0	1500.0	1.0	n/a	go_stim
211307.90634680004	387.09365319999995	n/a	2305	89	2750	387.0936532	stim	stop-signal	484	1293286	0.0-19.47-1.47	beast_fmri_test	384	1291032,/,1291712,/,1292392,/,1293071,/	t,t,t,t	<img class = center src='/static/experiments/beast_fmri_test/images/D.png'></img>	71,89	2750.0	test	<img class = center src='/static/experiments/beast_fmri_test/images/redD.png'></img>	go	1250.0	3.0	47.0	go	non-target	D	71,Index Finger	89,Middle Finger	1350.0	1500.0	1400.0	1250.0	1.0	1500.0	1.0	n/a	ITI
227100	15000	n/a	-1	-1	15000	0.0	practice-no-stop-feedback	poldrack-single-stim	485	1308691	0.0-20.0	beast_fmri_test	384	1293753,/,1294432,/,1295112,/,1295792,/,1296472,/,1297151,/,1297832,/,1298511,/,1299192,/,1299871,/,1300552,/,1301231,/,1301911,/,1302591,/,1303271,/,1303952,/,1304631,/,1305311,/,1305991,/,1306671,/,1307351,/,1308031,/	t,t,t,t,t,t,t,t,t,t,t,t,t,t,t,t,t,t,t,t,t,t	"<div class = ""centerbox2_2""><p class = ""block-text2"">Your delay is 2 trials.</p><p class = block-text2>Please wait for the scanner to start the block</p></div>"	77	15000.0	n/a	n/a	n/a	n/a	n/a	n/a	n/a	n/a	n/a	n/a	n/a	n/a	n/a	n/a	n/a	n/a	n/a	n/a	n/a	practice-no-stop-feedback
227601	500	n/a	-1	-1	500	0.0	fixation	poldrack-single-stim	486	1309192	0.0-21.0-0.0	beast_fmri_test	384	1308711,/	t	<div class = centerbox2><div class = fixation>+</div></div>	none	500.0	test	n/a	n/a	n/a	n/a	n/a	n/a	n/a	n/a	n/a	n/a	n/a	n/a	n/a	n/a	n/a	n/a	n/a	n/a	fixation
224736.32649599994	2750	n/a	1331	89	2750	2866.673504	stim	stop-signal	487	1311944	0.0-21.0-1.0	beast_fmri_test	384	1309391,/,1310071,/,1310751,/,1311431,/,1312111,/,1312791,/,1313471,/,1314152,/	t,t,t,t,t,t,t,t	<img class = center src='/static/experiments/beast_fmri_test/images/V.png'></img>	71,89	2750.0	test	<img class = center src='/static/experiments/beast_fmri_test/images/redV.png'></img>	go	-1.0	2.0	0.0	go	temp-non-target	V	71,Index Finger	89,Middle Finger	1350.0	1500.0	1400.0	1250.0	0.0	n/a	n/a	n/a	go_stim
227486.32649599994	2866.6735039999999	n/a	1331	89	2750	2866.673504	stim	stop-signal	487	1311944	0.0-21.0-1.0	beast_fmri_test	384	1309391,/,1310071,/,1310751,/,1311431,/,1312111,/,1312791,/,1313471,/,1314152,/	t,t,t,t,t,t,t,t	<img class = center src='/static/experiments/beast_fmri_test/images/V.png'></img>	71,89	2750.0	test	<img class = center src='/static/experiments/beast_fmri_test/images/redV.png'></img>	go	-1.0	2.0	0.0	go	temp-non-target	V	71,Index Finger	89,Middle Finger	1350.0	1500.0	1400.0	1250.0	0.0	n/a	n/a	n/a	ITI
233738	500	n/a	-1	-1	500	0.0	fixation	poldrack-single-stim	488	1315329	0.0-21.1-0.1	beast_fmri_test	384	1314837,/	t	<div class = centerbox2><div class = fixation>+</div></div>	none	500.0	test	n/a	n/a	n/a	n/a	n/a	n/a	n/a	n/a	n/a	n/a	n/a	n/a	n/a	n/a	n/a	n/a	n/a	n/a	fixation
232951.11728399992	2750	n/a	1162	89	2750	788.882716	stim	stop-signal	489	1318081	0.0-21.1-1.1	beast_fmri_test	384	1315511,/,1316191,/,1316871,/,1317551,/,1318231,/	t,t,t,t,t	<img class = center src='/static/experiments/beast_fmri_test/images/B.png'></img>	71,89	2750.0	test	<img class = center src='/static/experiments/beast_fmri_test/images/redB.png'></img>	go	-1.0	2.0	1.0	go	temp-non-target	B	71,Index Finger	89,Middle Finger	1350.0	1500.0	1400.0	1250.0	0.0	n/a	n/a	n/a	go_stim
235701.11728399992	788.88271599999996	n/a	1162	89	2750	788.882716	stim	stop-signal	489	1318081	0.0-21.1-1.1	beast_fmri_test	384	1315511,/,1316191,/,1316871,/,1317551,/,1318231,/	t,t,t,t,t	<img class = center src='/static/experiments/beast_fmri_test/images/B.png'></img>	71,89	2750.0	test	<img class = center src='/static/experiments/beast_fmri_test/images/redB.png'></img>	go	-1.0	2.0	1.0	go	temp-non-target	B	71,Index Finger	89,Middle Finger	1350.0	1500.0	1400.0	1250.0	0.0	n/a	n/a	n/a	ITI
237796	500	n/a	-1	-1	500	0.0	fixation	poldrack-single-stim	490	1319387	0.0-21.2-0.2	beast_fmri_test	384	1318912,/	t	<div class = centerbox2><div class = fixation>+</div></div>	none	500.0	test	n/a	n/a	n/a	n/a	n/a	n/a	n/a	n/a	n/a	n/a	n/a	n/a	n/a	n/a	n/a	n/a	n/a	n/a	fixation
237715.46539418004	2750	n/a	1406	71	2750	82.53460582	stim	stop-signal	491	1322139	0.0-21.2-1.2	beast_fmri_test	384	1319591,/,1320272,/,1320952,/,1321631,/	t,t,t,t	<img class = center src='/static/experiments/beast_fmri_test/images/V.png'></img>	71,89	2750.0	test	<img class = center src='/static/experiments/beast_fmri_test/images/redV.png'></img>	go	1400.0	2.0	2.0	go	target	V	71,Index Finger	89,Middle Finger	1350.0	1500.0	1400.0	1250.0	1.0	1350.0	1.0	n/a	go_stim
240465.46539418004	82.534605819999996	n/a	1406	71	2750	82.53460582	stim	stop-signal	491	1322139	0.0-21.2-1.2	beast_fmri_test	384	1319591,/,1320272,/,1320952,/,1321631,/	t,t,t,t	<img class = center src='/static/experiments/beast_fmri_test/images/V.png'></img>	71,89	2750.0	test	<img class = center src='/static/experiments/beast_fmri_test/images/redV.png'></img>	go	1400.0	2.0	2.0	go	target	V	71,Index Finger	89,Middle Finger	1350.0	1500.0	1400.0	1250.0	1.0	1350.0	1.0	n/a	ITI
241147	500	n/a	-1	-1	500	0.0	fixation	poldrack-single-stim	492	1322738	0.0-21.3-0.3	beast_fmri_test	384	1322312,/	t	<div class = centerbox2><div class = fixation>+</div></div>	none	500.0	test	n/a	n/a	n/a	n/a	n/a	n/a	n/a	n/a	n/a	n/a	n/a	n/a	n/a	n/a	n/a	n/a	n/a	n/a	fixation
240903.97918420006	1500.0	n/a	1322	89	2750	246.0208158	stim	stop-signal	493	1325491	0.0-21.3-1.3	beast_fmri_test	384	1322992,/,1323672,/,1324353,/,1325032,/,1325711,/	t,t,t,t,t	<img class = center src='/static/experiments/beast_fmri_test/images/V.png'></img>	71,89	2750.0	test	<img class = center src='/static/experiments/beast_fmri_test/images/redV.png'></img>	stop	1250.0	2.0	3.0	stop	non-target	V	71,Index Finger	89,Middle Finger	1350.0	1500.0	1400.0	1250.0	0.0	1500.0	n/a	0.0	go_stim
242153.97918420006	1250.0	n/a	1322	89	2750	246.0208158	stim	stop-signal	493	1325491	0.0-21.3-1.3	beast_fmri_test	384	1322992,/,1323672,/,1324353,/,1325032,/,1325711,/	t,t,t,t,t	<img class = center src='/static/experiments/beast_fmri_test/images/V.png'></img>	71,89	2750.0	test	<img class = center src='/static/experiments/beast_fmri_test/images/redV.png'></img>	stop	1250.0	2.0	3.0	stop	non-target	V	71,Index Finger	89,Middle Finger	1350.0	1500.0	1400.0	1250.0	0.0	1500.0	n/a	0.0	stop_stim
243653.97918420006	246.02081580000004	n/a	1322	89	2750	246.0208158	stim	stop-signal	493	1325491	0.0-21.3-1.3	beast_fmri_test	384	1322992,/,1323672,/,1324353,/,1325032,/,1325711,/	t,t,t,t,t	<img class = center src='/static/experiments/beast_fmri_test/images/V.png'></img>	71,89	2750.0	test	<img class = center src='/static/experiments/beast_fmri_test/images/redV.png'></img>	stop	1250.0	2.0	3.0	stop	non-target	V	71,Index Finger	89,Middle Finger	1350.0	1500.0	1400.0	1250.0	0.0	1500.0	n/a	0.0	ITI
244665	500	n/a	-1	-1	500	0.0	fixation	poldrack-single-stim	494	1326256	0.0-21.4-0.4	beast_fmri_test	384	n/a	n/a	<div class = centerbox2><div class = fixation>+</div></div>	none	500.0	test	n/a	n/a	n/a	n/a	n/a	n/a	n/a	n/a	n/a	n/a	n/a	n/a	n/a	n/a	n/a	n/a	n/a	n/a	fixation
243981.88333430002	2750	n/a	1566	89	2750	685.1166657	stim	stop-signal	495	1329008	0.0-21.4-1.4	beast_fmri_test	384	1326392,/,1327072,/,1327751,/,1328432,/,1329111,/	t,t,t,t,t	<img class = center src='/static/experiments/beast_fmri_test/images/P.png'></img>	71,89	2750.0	test	<img class = center src='/static/experiments/beast_fmri_test/images/redP.png'></img>	go	1300.0	2.0	4.0	go	non-target	P	71,Index Finger	89,Middle Finger	1350.0	1450.0	1400.0	1300.0	1.0	1450.0	1.0	n/a	go_stim
246731.88333430002	685.11666570000011	n/a	1566	89	2750	685.1166657	stim	stop-signal	495	1329008	0.0-21.4-1.4	beast_fmri_test	384	1326392,/,1327072,/,1327751,/,1328432,/,1329111,/	t,t,t,t,t	<img class = center src='/static/experiments/beast_fmri_test/images/P.png'></img>	71,89	2750.0	test	<img class = center src='/static/experiments/beast_fmri_test/images/redP.png'></img>	go	1300.0	2.0	4.0	go	non-target	P	71,Index Finger	89,Middle Finger	1350.0	1450.0	1400.0	1300.0	1.0	1450.0	1.0	n/a	ITI
248617	500	n/a	-1	-1	500	0.0	fixation	poldrack-single-stim	496	1330208	0.0-21.5-0.5	beast_fmri_test	384	1329792,/	t	<div class = centerbox2><div class = fixation>+</div></div>	none	500.0	test	n/a	n/a	n/a	n/a	n/a	n/a	n/a	n/a	n/a	n/a	n/a	n/a	n/a	n/a	n/a	n/a	n/a	n/a	fixation
246999.07625899999	2750	n/a	1584	89	2750	1619.923741	stim	stop-signal	497	1332960	0.0-21.5-1.5	beast_fmri_test	384	1330472,/,1331151,/,1331831,/,1332511,/,1333191,/,1333871,/,1334552,/	t,t,t,t,t,t,t	<img class = center src='/static/experiments/beast_fmri_test/images/P.png'></img>	71,89	2750.0	test	<img class = center src='/static/experiments/beast_fmri_test/images/redP.png'></img>	go	1300.0	2.0	5.0	go	non-target	P	71,Index Finger	89,Middle Finger	1350.0	1450.0	1400.0	1300.0	1.0	1450.0	1.0	n/a	go_stim
249749.07625899999	1619.9237410000001	n/a	1584	89	2750	1619.923741	stim	stop-signal	497	1332960	0.0-21.5-1.5	beast_fmri_test	384	1330472,/,1331151,/,1331831,/,1332511,/,1333191,/,1333871,/,1334552,/	t,t,t,t,t,t,t	<img class = center src='/static/experiments/beast_fmri_test/images/P.png'></img>	71,89	2750.0	test	<img class = center src='/static/experiments/beast_fmri_test/images/redP.png'></img>	go	1300.0	2.0	5.0	go	non-target	P	71,Index Finger	89,Middle Finger	1350.0	1450.0	1400.0	1300.0	1.0	1450.0	1.0	n/a	ITI
253504	500	n/a	-1	-1	500	0.0	fixation	poldrack-single-stim	498	1335095	0.0-21.6-0.6	beast_fmri_test	384	n/a	n/a	<div class = centerbox2><div class = fixation>+</div></div>	none	500.0	test	n/a	n/a	n/a	n/a	n/a	n/a	n/a	n/a	n/a	n/a	n/a	n/a	n/a	n/a	n/a	n/a	n/a	n/a	fixation
252864.29742039996	2750	n/a	1219	89	2750	641.7025796	stim	stop-signal	499	1337847	0.0-21.6-1.6	beast_fmri_test	384	1335231,/,1335911,/,1336591,/,1337271,/,1337951,/	t,t,t,t,t	<img class = center src='/static/experiments/beast_fmri_test/images/B.png'></img>	71,89	2750.0	test	<img class = center src='/static/experiments/beast_fmri_test/images/redB.png'></img>	go	1300.0	2.0	6.0	go	non-target	B	71,Index Finger	89,Middle Finger	1350.0	1450.0	1400.0	1300.0	1.0	1450.0	1.0	n/a	go_stim
255614.29742039996	641.70257960000004	n/a	1219	89	2750	641.7025796	stim	stop-signal	499	1337847	0.0-21.6-1.6	beast_fmri_test	384	1335231,/,1335911,/,1336591,/,1337271,/,1337951,/	t,t,t,t,t	<img class = center src='/static/experiments/beast_fmri_test/images/B.png'></img>	71,89	2750.0	test	<img class = center src='/static/experiments/beast_fmri_test/images/redB.png'></img>	go	1300.0	2.0	6.0	go	non-target	B	71,Index Finger	89,Middle Finger	1350.0	1450.0	1400.0	1300.0	1.0	1450.0	1.0	n/a	ITI
257416	500	n/a	-1	-1	500	0.0	fixation	poldrack-single-stim	500	1339007	0.0-21.7-0.7	beast_fmri_test	384	1338631,/	t	<div class = centerbox2><div class = fixation>+</div></div>	none	500.0	test	n/a	n/a	n/a	n/a	n/a	n/a	n/a	n/a	n/a	n/a	n/a	n/a	n/a	n/a	n/a	n/a	n/a	n/a	fixation
257332.39950019005	1350.0	n/a	-1	-1	2750	85.60049981	stim	stop-signal	501	1341759	0.0-21.7-1.7	beast_fmri_test	384	1339311,/,1339991,/,1340671,/,1341351,/	t,t,t,t	<img class = center src='/static/experiments/beast_fmri_test/images/P.png'></img>	71,89	2750.0	test	<img class = center src='/static/experiments/beast_fmri_test/images/redP.png'></img>	stop	1400.0	2.0	7.0	stop	target	P	71,Index Finger	89,Middle Finger	1350.0	1450.0	1400.0	1300.0	0.0	1350.0	n/a	1.0	go_stim
258732.39950019005	1400.0	n/a	-1	-1	2750	85.60049981	stim	stop-signal	501	1341759	0.0-21.7-1.7	beast_fmri_test	384	1339311,/,1339991,/,1340671,/,1341351,/	t,t,t,t	<img class = center src='/static/experiments/beast_fmri_test/images/P.png'></img>	71,89	2750.0	test	<img class = center src='/static/experiments/beast_fmri_test/images/redP.png'></img>	stop	1400.0	2.0	7.0	stop	target	P	71,Index Finger	89,Middle Finger	1350.0	1450.0	1400.0	1300.0	0.0	1350.0	n/a	1.0	stop_stim
260082.39950019005	85.600499810000002	n/a	-1	-1	2750	85.60049981	stim	stop-signal	501	1341759	0.0-21.7-1.7	beast_fmri_test	384	1339311,/,1339991,/,1340671,/,1341351,/	t,t,t,t	<img class = center src='/static/experiments/beast_fmri_test/images/P.png'></img>	71,89	2750.0	test	<img class = center src='/static/experiments/beast_fmri_test/images/redP.png'></img>	stop	1400.0	2.0	7.0	stop	target	P	71,Index Finger	89,Middle Finger	1350.0	1450.0	1400.0	1300.0	0.0	1350.0	n/a	1.0	ITI
260768	500	n/a	-1	-1	500	0.0	fixation	poldrack-single-stim	502	1342359	0.0-21.8-0.8	beast_fmri_test	384	1342031,/	t	<div class = centerbox2><div class = fixation>+</div></div>	none	500.0	test	n/a	n/a	n/a	n/a	n/a	n/a	n/a	n/a	n/a	n/a	n/a	n/a	n/a	n/a	n/a	n/a	n/a	n/a	fixation
259632.15236599999	2750	n/a	1647	89	2750	1137.847634	stim	stop-signal	503	1345111	0.0-21.8-1.8	beast_fmri_test	384	1342711,/,1343391,/,1344071,/,1344752,/,1345431,/,1346111,/	t,t,t,t,t,t	<img class = center src='/static/experiments/beast_fmri_test/images/B.png'></img>	71,89	2750.0	test	<img class = center src='/static/experiments/beast_fmri_test/images/redB.png'></img>	go	1350.0	2.0	8.0	go	target	B	71,Index Finger	89,Middle Finger	1400.0	1450.0	1350.0	1300.0	0.0	1400.0	0.0	n/a	go_stim
262382.15236599999	1137.847634	n/a	1647	89	2750	1137.847634	stim	stop-signal	503	1345111	0.0-21.8-1.8	beast_fmri_test	384	1342711,/,1343391,/,1344071,/,1344752,/,1345431,/,1346111,/	t,t,t,t,t,t	<img class = center src='/static/experiments/beast_fmri_test/images/B.png'></img>	71,89	2750.0	test	<img class = center src='/static/experiments/beast_fmri_test/images/redB.png'></img>	go	1350.0	2.0	8.0	go	target	B	71,Index Finger	89,Middle Finger	1400.0	1450.0	1350.0	1300.0	0.0	1400.0	0.0	n/a	ITI
265175	500	n/a	-1	-1	500	0.0	fixation	poldrack-single-stim	504	1346766	0.0-21.9-0.9	beast_fmri_test	384	n/a	n/a	<div class = centerbox2><div class = fixation>+</div></div>	none	500.0	test	n/a	n/a	n/a	n/a	n/a	n/a	n/a	n/a	n/a	n/a	n/a	n/a	n/a	n/a	n/a	n/a	n/a	n/a	fixation
264881.07817219989	2750	n/a	939	89	2750	295.9218278	stim	stop-signal	505	1349518	0.0-21.9-1.9	beast_fmri_test	384	1346791,/,1347471,/,1348151,/,1348831,/,1349511,/	t,t,t,t,t	<img class = center src='/static/experiments/beast_fmri_test/images/D.png'></img>	71,89	2750.0	test	<img class = center src='/static/experiments/beast_fmri_test/images/redD.png'></img>	go	1300.0	2.0	9.0	go	non-target	D	71,Index Finger	89,Middle Finger	1400.0	1450.0	1350.0	1300.0	1.0	1450.0	1.0	n/a	go_stim
267631.07817219989	295.92182780000002	n/a	939	89	2750	295.9218278	stim	stop-signal	505	1349518	0.0-21.9-1.9	beast_fmri_test	384	1346791,/,1347471,/,1348151,/,1348831,/,1349511,/	t,t,t,t,t	<img class = center src='/static/experiments/beast_fmri_test/images/D.png'></img>	71,89	2750.0	test	<img class = center src='/static/experiments/beast_fmri_test/images/redD.png'></img>	go	1300.0	2.0	9.0	go	non-target	D	71,Index Finger	89,Middle Finger	1400.0	1450.0	1350.0	1300.0	1.0	1450.0	1.0	n/a	ITI
268739	500	n/a	-1	-1	500	0.0	fixation	poldrack-single-stim	506	1350330	0.0-21.10-0.10	beast_fmri_test	384	1350191,/	t	<div class = centerbox2><div class = fixation>+</div></div>	none	500.0	test	n/a	n/a	n/a	n/a	n/a	n/a	n/a	n/a	n/a	n/a	n/a	n/a	n/a	n/a	n/a	n/a	n/a	n/a	fixation
268618.87115580007	2750	n/a	2131	71	2750	122.1288442	stim	stop-signal	507	1353082	0.0-21.10-1.10	beast_fmri_test	384	1350871,/,1351551,/,1352231,/,1352911,/	t,t,t,t	<img class = center src='/static/experiments/beast_fmri_test/images/P.png'></img>	71,89	2750.0	test	<img class = center src='/static/experiments/beast_fmri_test/images/redP.png'></img>	go	1300.0	2.0	10.0	go	non-target	P	71,Index Finger	89,Middle Finger	1400.0	1450.0	1350.0	1300.0	0.0	1450.0	0.0	n/a	go_stim
271368.87115580007	122.1288442	n/a	2131	71	2750	122.1288442	stim	stop-signal	507	1353082	0.0-21.10-1.10	beast_fmri_test	384	1350871,/,1351551,/,1352231,/,1352911,/	t,t,t,t	<img class = center src='/static/experiments/beast_fmri_test/images/P.png'></img>	71,89	2750.0	test	<img class = center src='/static/experiments/beast_fmri_test/images/redP.png'></img>	go	1300.0	2.0	10.0	go	non-target	P	71,Index Finger	89,Middle Finger	1400.0	1450.0	1350.0	1300.0	0.0	1450.0	0.0	n/a	ITI
272131	500	n/a	-1	-1	500	0.0	fixation	poldrack-single-stim	508	1353722	0.0-21.11-0.11	beast_fmri_test	384	1353592,/	t	<div class = centerbox2><div class = fixation>+</div></div>	none	500.0	test	n/a	n/a	n/a	n/a	n/a	n/a	n/a	n/a	n/a	n/a	n/a	n/a	n/a	n/a	n/a	n/a	n/a	n/a	fixation
271691.62197729992	2750	n/a	1050	89	2750	442.3780227	stim	stop-signal	509	1356475	0.0-21.11-1.11	beast_fmri_test	384	1354272,/,1354952,/,1355631,/,1356312,/	t,t,t,t	<img class = center src='/static/experiments/beast_fmri_test/images/P.png'></img>	71,89	2750.0	test	<img class = center src='/static/experiments/beast_fmri_test/images/redP.png'></img>	go	1300.0	2.0	11.0	go	non-target	P	71,Index Finger	89,Middle Finger	1400.0	1450.0	1350.0	1300.0	1.0	1450.0	1.0	n/a	go_stim
274441.62197729992	442.37802269999997	n/a	1050	89	2750	442.3780227	stim	stop-signal	509	1356475	0.0-21.11-1.11	beast_fmri_test	384	1354272,/,1354952,/,1355631,/,1356312,/	t,t,t,t	<img class = center src='/static/experiments/beast_fmri_test/images/P.png'></img>	71,89	2750.0	test	<img class = center src='/static/experiments/beast_fmri_test/images/redP.png'></img>	go	1300.0	2.0	11.0	go	non-target	P	71,Index Finger	89,Middle Finger	1400.0	1450.0	1350.0	1300.0	1.0	1450.0	1.0	n/a	ITI
275843	500	n/a	-1	-1	500	0.0	fixation	poldrack-single-stim	510	1357434	0.0-21.12-0.12	beast_fmri_test	384	1356992,/	t	<div class = centerbox2><div class = fixation>+</div></div>	none	500.0	test	n/a	n/a	n/a	n/a	n/a	n/a	n/a	n/a	n/a	n/a	n/a	n/a	n/a	n/a	n/a	n/a	n/a	n/a	fixation
274036.28131400002	2750	n/a	1209	89	2750	1808.718686	stim	stop-signal	511	1360186	0.0-21.12-1.12	beast_fmri_test	384	1357672,/,1358351,/,1359032,/,1359712,/,1360392,/,1361071,/,1361752,/	t,t,t,t,t,t,t	<img class = center src='/static/experiments/beast_fmri_test/images/V.png'></img>	71,89	2750.0	test	<img class = center src='/static/experiments/beast_fmri_test/images/redV.png'></img>	go	1300.0	2.0	12.0	go	non-target	V	71,Index Finger	89,Middle Finger	1400.0	1450.0	1350.0	1300.0	1.0	1450.0	1.0	n/a	go_stim
276786.28131400002	1808.7186859999999	n/a	1209	89	2750	1808.718686	stim	stop-signal	511	1360186	0.0-21.12-1.12	beast_fmri_test	384	1357672,/,1358351,/,1359032,/,1359712,/,1360392,/,1361071,/,1361752,/	t,t,t,t,t,t,t	<img class = center src='/static/experiments/beast_fmri_test/images/V.png'></img>	71,89	2750.0	test	<img class = center src='/static/experiments/beast_fmri_test/images/redV.png'></img>	go	1300.0	2.0	12.0	go	non-target	V	71,Index Finger	89,Middle Finger	1400.0	1450.0	1350.0	1300.0	1.0	1450.0	1.0	n/a	ITI
280922	500	n/a	-1	-1	500	0.0	fixation	poldrack-single-stim	512	1362513	0.0-21.13-0.13	beast_fmri_test	384	1362432,/	t	<div class = centerbox2><div class = fixation>+</div></div>	none	500.0	test	n/a	n/a	n/a	n/a	n/a	n/a	n/a	n/a	n/a	n/a	n/a	n/a	n/a	n/a	n/a	n/a	n/a	n/a	fixation
278957.26448199991	2750	n/a	1070	71	2750	1966.735518	stim	stop-signal	513	1365265	0.0-21.13-1.13	beast_fmri_test	384	1363112,/,1363791,/,1364471,/,1365153,/,1365831,/,1366511,/,1367191,/	t,t,t,t,t,t,t	<img class = center src='/static/experiments/beast_fmri_test/images/P.png'></img>	71,89	2750.0	test	<img class = center src='/static/experiments/beast_fmri_test/images/redP.png'></img>	go	1350.0	2.0	13.0	go	target	P	71,Index Finger	89,Middle Finger	1400.0	1450.0	1350.0	1300.0	1.0	1400.0	1.0	n/a	go_stim
281707.26448199991	1966.735518	n/a	1070	71	2750	1966.735518	stim	stop-signal	513	1365265	0.0-21.13-1.13	beast_fmri_test	384	1363112,/,1363791,/,1364471,/,1365153,/,1365831,/,1366511,/,1367191,/	t,t,t,t,t,t,t	<img class = center src='/static/experiments/beast_fmri_test/images/P.png'></img>	71,89	2750.0	test	<img class = center src='/static/experiments/beast_fmri_test/images/redP.png'></img>	go	1350.0	2.0	13.0	go	target	P	71,Index Finger	89,Middle Finger	1400.0	1450.0	1350.0	1300.0	1.0	1400.0	1.0	n/a	ITI
286157	500	n/a	-1	-1	500	0.0	fixation	poldrack-single-stim	514	1367748	0.0-21.14-0.14	beast_fmri_test	384	n/a	n/a	<div class = centerbox2><div class = fixation>+</div></div>	none	500.0	test	n/a	n/a	n/a	n/a	n/a	n/a	n/a	n/a	n/a	n/a	n/a	n/a	n/a	n/a	n/a	n/a	n/a	n/a	fixation
284516.14359300002	2750	n/a	1460	89	2750	1643.856407	stim	stop-signal	515	1370501	0.0-21.14-1.14	beast_fmri_test	384	1367872,/,1368551,/,1369231,/,1369911,/,1370591,/,1371271,/,1371951,/	t,t,t,t,t,t,t	<img class = center src='/static/experiments/beast_fmri_test/images/B.png'></img>	71,89	2750.0	test	<img class = center src='/static/experiments/beast_fmri_test/images/redB.png'></img>	go	1300.0	2.0	14.0	go	non-target	B	71,Index Finger	89,Middle Finger	1400.0	1450.0	1350.0	1300.0	1.0	1450.0	1.0	n/a	go_stim
287266.14359300002	1643.856407	n/a	1460	89	2750	1643.856407	stim	stop-signal	515	1370501	0.0-21.14-1.14	beast_fmri_test	384	1367872,/,1368551,/,1369231,/,1369911,/,1370591,/,1371271,/,1371951,/	t,t,t,t,t,t,t	<img class = center src='/static/experiments/beast_fmri_test/images/B.png'></img>	71,89	2750.0	test	<img class = center src='/static/experiments/beast_fmri_test/images/redB.png'></img>	go	1300.0	2.0	14.0	go	non-target	B	71,Index Finger	89,Middle Finger	1400.0	1450.0	1350.0	1300.0	1.0	1450.0	1.0	n/a	ITI
291070	500	n/a	-1	-1	500	0.0	fixation	poldrack-single-stim	516	1372661	0.0-21.15-0.15	beast_fmri_test	384	1372631,/	t	<div class = centerbox2><div class = fixation>+</div></div>	none	500.0	test	n/a	n/a	n/a	n/a	n/a	n/a	n/a	n/a	n/a	n/a	n/a	n/a	n/a	n/a	n/a	n/a	n/a	n/a	fixation
290805.70888520009	1450.0	n/a	1532	89	2750	266.2911148	stim	stop-signal	517	1375413	0.0-21.15-1.15	beast_fmri_test	384	1373311,/,1373991,/,1374671,/,1375352,/	t,t,t,t	<img class = center src='/static/experiments/beast_fmri_test/images/D.png'></img>	71,89	2750.0	test	<img class = center src='/static/experiments/beast_fmri_test/images/redD.png'></img>	stop	1300.0	2.0	15.0	stop	non-target	D	71,Index Finger	89,Middle Finger	1400.0	1450.0	1350.0	1300.0	0.0	1450.0	n/a	0.0	go_stim
292105.70888520009	1300.0	n/a	1532	89	2750	266.2911148	stim	stop-signal	517	1375413	0.0-21.15-1.15	beast_fmri_test	384	1373311,/,1373991,/,1374671,/,1375352,/	t,t,t,t	<img class = center src='/static/experiments/beast_fmri_test/images/D.png'></img>	71,89	2750.0	test	<img class = center src='/static/experiments/beast_fmri_test/images/redD.png'></img>	stop	1300.0	2.0	15.0	stop	non-target	D	71,Index Finger	89,Middle Finger	1400.0	1450.0	1350.0	1300.0	0.0	1450.0	n/a	0.0	stop_stim
293555.70888520009	266.2911148	n/a	1532	89	2750	266.2911148	stim	stop-signal	517	1375413	0.0-21.15-1.15	beast_fmri_test	384	1373311,/,1373991,/,1374671,/,1375352,/	t,t,t,t	<img class = center src='/static/experiments/beast_fmri_test/images/D.png'></img>	71,89	2750.0	test	<img class = center src='/static/experiments/beast_fmri_test/images/redD.png'></img>	stop	1300.0	2.0	15.0	stop	non-target	D	71,Index Finger	89,Middle Finger	1400.0	1450.0	1350.0	1300.0	0.0	1450.0	n/a	0.0	ITI
294608	500	n/a	-1	-1	500	0.0	fixation	poldrack-single-stim	518	1376199	0.0-21.16-0.16	beast_fmri_test	384	1376032,/	t	<div class = centerbox2><div class = fixation>+</div></div>	none	500.0	test	n/a	n/a	n/a	n/a	n/a	n/a	n/a	n/a	n/a	n/a	n/a	n/a	n/a	n/a	n/a	n/a	n/a	n/a	fixation
294525.44796669995	2750	n/a	1352	71	2750	84.5520333	stim	stop-signal	519	1378951	0.0-21.16-1.16	beast_fmri_test	384	1376711,/,1377391,/,1378071,/,1378751,/	t,t,t,t	<img class = center src='/static/experiments/beast_fmri_test/images/B.png'></img>	71,89	2750.0	test	<img class = center src='/static/experiments/beast_fmri_test/images/redB.png'></img>	go	1350.0	2.0	16.0	go	target	B	71,Index Finger	89,Middle Finger	1400.0	1400.0	1350.0	1300.0	1.0	1400.0	1.0	n/a	go_stim
297275.44796669995	84.552033300000005	n/a	1352	71	2750	84.5520333	stim	stop-signal	519	1378951	0.0-21.16-1.16	beast_fmri_test	384	1376711,/,1377391,/,1378071,/,1378751,/	t,t,t,t	<img class = center src='/static/experiments/beast_fmri_test/images/B.png'></img>	71,89	2750.0	test	<img class = center src='/static/experiments/beast_fmri_test/images/redB.png'></img>	go	1350.0	2.0	16.0	go	target	B	71,Index Finger	89,Middle Finger	1400.0	1400.0	1350.0	1300.0	1.0	1400.0	1.0	n/a	ITI
297961	500	n/a	-1	-1	500	0.0	fixation	poldrack-single-stim	520	1379552	0.0-21.17-0.17	beast_fmri_test	384	1379431,/	t	<div class = centerbox2><div class = fixation>+</div></div>	none	500.0	test	n/a	n/a	n/a	n/a	n/a	n/a	n/a	n/a	n/a	n/a	n/a	n/a	n/a	n/a	n/a	n/a	n/a	n/a	fixation
295568.94760100008	2750	n/a	2085	71	2750	2394.052399	stim	stop-signal	521	1382304	0.0-21.17-1.17	beast_fmri_test	384	1380111,/,1380791,/,1381471,/,1382151,/,1382831,/,1383511,/,1384191,/	t,t,t,t,t,t,t	<img class = center src='/static/experiments/beast_fmri_test/images/D.png'></img>	71,89	2750.0	test	<img class = center src='/static/experiments/beast_fmri_test/images/redD.png'></img>	go	1350.0	2.0	17.0	go	target	D	71,Index Finger	89,Middle Finger	1400.0	1400.0	1350.0	1300.0	1.0	1400.0	1.0	n/a	go_stim
298318.94760100008	2394.0523989999997	n/a	2085	71	2750	2394.052399	stim	stop-signal	521	1382304	0.0-21.17-1.17	beast_fmri_test	384	1380111,/,1380791,/,1381471,/,1382151,/,1382831,/,1383511,/,1384191,/	t,t,t,t,t,t,t	<img class = center src='/static/experiments/beast_fmri_test/images/D.png'></img>	71,89	2750.0	test	<img class = center src='/static/experiments/beast_fmri_test/images/redD.png'></img>	go	1350.0	2.0	17.0	go	target	D	71,Index Finger	89,Middle Finger	1400.0	1400.0	1350.0	1300.0	1.0	1400.0	1.0	n/a	ITI
303624	500	n/a	-1	-1	500	0.0	fixation	poldrack-single-stim	522	1385215	0.0-21.18-0.18	beast_fmri_test	384	1384871,/	t	<div class = centerbox2><div class = fixation>+</div></div>	none	500.0	test	n/a	n/a	n/a	n/a	n/a	n/a	n/a	n/a	n/a	n/a	n/a	n/a	n/a	n/a	n/a	n/a	n/a	n/a	fixation
303610.65377201	1400.0	n/a	1403	89	2750	15.34622799	stim	stop-signal	523	1387967	0.0-21.18-1.18	beast_fmri_test	384	1385551,/,1386231,/,1386911,/,1387592,/	t,t,t,t	<img class = center src='/static/experiments/beast_fmri_test/images/D.png'></img>	71,89	2750.0	test	<img class = center src='/static/experiments/beast_fmri_test/images/redD.png'></img>	stop	1350.0	2.0	18.0	stop	non-target	D	71,Index Finger	89,Middle Finger	1400.0	1400.0	1350.0	1350.0	0.0	1400.0	n/a	0.0	go_stim
304960.65377201	1350.0	n/a	1403	89	2750	15.34622799	stim	stop-signal	523	1387967	0.0-21.18-1.18	beast_fmri_test	384	1385551,/,1386231,/,1386911,/,1387592,/	t,t,t,t	<img class = center src='/static/experiments/beast_fmri_test/images/D.png'></img>	71,89	2750.0	test	<img class = center src='/static/experiments/beast_fmri_test/images/redD.png'></img>	stop	1350.0	2.0	18.0	stop	non-target	D	71,Index Finger	89,Middle Finger	1400.0	1400.0	1350.0	1350.0	0.0	1400.0	n/a	0.0	stop_stim
306360.65377201	15.346227989999999	n/a	1403	89	2750	15.34622799	stim	stop-signal	523	1387967	0.0-21.18-1.18	beast_fmri_test	384	1385551,/,1386231,/,1386911,/,1387592,/	t,t,t,t	<img class = center src='/static/experiments/beast_fmri_test/images/D.png'></img>	71,89	2750.0	test	<img class = center src='/static/experiments/beast_fmri_test/images/redD.png'></img>	stop	1350.0	2.0	18.0	stop	non-target	D	71,Index Finger	89,Middle Finger	1400.0	1400.0	1350.0	1350.0	0.0	1400.0	n/a	0.0	ITI
306910	500	n/a	-1	-1	500	0.0	fixation	poldrack-single-stim	524	1388501	0.0-21.19-0.19	beast_fmri_test	384	1388271,/	t	<div class = centerbox2><div class = fixation>+</div></div>	none	500.0	test	n/a	n/a	n/a	n/a	n/a	n/a	n/a	n/a	n/a	n/a	n/a	n/a	n/a	n/a	n/a	n/a	n/a	n/a	fixation
306817.0553359699	1350.0	n/a	-1	-1	2750	94.94466403	stim	stop-signal	525	1391253	0.0-21.19-1.19	beast_fmri_test	384	1388951,/,1389632,/,1390311,/,1390992,/	t,t,t,t	<img class = center src='/static/experiments/beast_fmri_test/images/P.png'></img>	71,89	2750.0	test	<img class = center src='/static/experiments/beast_fmri_test/images/redP.png'></img>	stop	1400.0	2.0	19.0	stop	non-target	P	71,Index Finger	89,Middle Finger	1400.0	1350.0	1350.0	1400.0	0.0	1350.0	n/a	1.0	go_stim
308217.0553359699	1400.0	n/a	-1	-1	2750	94.94466403	stim	stop-signal	525	1391253	0.0-21.19-1.19	beast_fmri_test	384	1388951,/,1389632,/,1390311,/,1390992,/	t,t,t,t	<img class = center src='/static/experiments/beast_fmri_test/images/P.png'></img>	71,89	2750.0	test	<img class = center src='/static/experiments/beast_fmri_test/images/redP.png'></img>	stop	1400.0	2.0	19.0	stop	non-target	P	71,Index Finger	89,Middle Finger	1400.0	1350.0	1350.0	1400.0	0.0	1350.0	n/a	1.0	stop_stim
309567.0553359699	94.944664029999998	n/a	-1	-1	2750	94.94466403	stim	stop-signal	525	1391253	0.0-21.19-1.19	beast_fmri_test	384	1388951,/,1389632,/,1390311,/,1390992,/	t,t,t,t	<img class = center src='/static/experiments/beast_fmri_test/images/P.png'></img>	71,89	2750.0	test	<img class = center src='/static/experiments/beast_fmri_test/images/redP.png'></img>	stop	1400.0	2.0	19.0	stop	non-target	P	71,Index Finger	89,Middle Finger	1400.0	1350.0	1350.0	1400.0	0.0	1350.0	n/a	1.0	ITI
310273	500	n/a	-1	-1	500	0.0	fixation	poldrack-single-stim	526	1391864	0.0-21.20-0.20	beast_fmri_test	384	1391671,/	t	<div class = centerbox2><div class = fixation>+</div></div>	none	500.0	test	n/a	n/a	n/a	n/a	n/a	n/a	n/a	n/a	n/a	n/a	n/a	n/a	n/a	n/a	n/a	n/a	n/a	n/a	fixation
309990.48586219992	2750	n/a	1764	89	2750	284.5141378	stim	stop-signal	527	1394616	0.0-21.20-1.20	beast_fmri_test	384	1392351,/,1393032,/,1393711,/,1394391,/	t,t,t,t	<img class = center src='/static/experiments/beast_fmri_test/images/V.png'></img>	71,89	2750.0	test	<img class = center src='/static/experiments/beast_fmri_test/images/redV.png'></img>	go	1350.0	2.0	20.0	go	non-target	V	71,Index Finger	89,Middle Finger	1400.0	1400.0	1350.0	1350.0	1.0	1400.0	1.0	n/a	go_stim
312740.48586219992	284.51413780000001	n/a	1764	89	2750	284.5141378	stim	stop-signal	527	1394616	0.0-21.20-1.20	beast_fmri_test	384	1392351,/,1393032,/,1393711,/,1394391,/	t,t,t,t	<img class = center src='/static/experiments/beast_fmri_test/images/V.png'></img>	71,89	2750.0	test	<img class = center src='/static/experiments/beast_fmri_test/images/redV.png'></img>	go	1350.0	2.0	20.0	go	non-target	V	71,Index Finger	89,Middle Finger	1400.0	1400.0	1350.0	1350.0	1.0	1400.0	1.0	n/a	ITI
313827	500	n/a	-1	-1	500	0.0	fixation	poldrack-single-stim	528	1395418	0.0-21.21-0.21	beast_fmri_test	384	1395072,/	t	<div class = centerbox2><div class = fixation>+</div></div>	none	500.0	test	n/a	n/a	n/a	n/a	n/a	n/a	n/a	n/a	n/a	n/a	n/a	n/a	n/a	n/a	n/a	n/a	n/a	n/a	fixation
313641.07006020006	1400.0	n/a	-1	-1	2750	187.9299398	stim	stop-signal	529	1398170	0.0-21.21-1.21	beast_fmri_test	384	1395752,/,1396431,/,1397111,/,1397791,/	t,t,t,t	<img class = center src='/static/experiments/beast_fmri_test/images/B.png'></img>	71,89	2750.0	test	<img class = center src='/static/experiments/beast_fmri_test/images/redB.png'></img>	stop	1350.0	2.0	21.0	stop	non-target	B	71,Index Finger	89,Middle Finger	1400.0	1400.0	1350.0	1350.0	0.0	1400.0	n/a	1.0	go_stim
