onset	duration	text	rt	key_press	block_duration	timing_post_trial	trial_id	trial_type	trial_index	time_elapsed	internal_node_id	exp_id	subject_id	trigger_times	triggers	stimulus	possible_responses	stim_duration	exp_stage	SS_stimulus	SS_trial_type	SS_duration	load	trial_num	stop_trial_type	adaptive_trial_type	stim	yes_response_key	no_response_key	SSD_target	SSD_non_target	SSTarget	SSNonTarget	go_acc	SS_delay	adaptive_acc	stop_acc	new_trial_type
test	10880.0	n/a	-1	-1	10880	0.0	practice-no-stop-feedback	poldrack-single-stim	6	111567	0.0-6.0	beast_fmri_test	384	100686,/,101365,/,102045,/,102725,/,103405,/,104085,/,104765,/,105445,/,106125,/,106806,/,107485,/,108165,/,108845,/,109525,/,110205,/,110885,/,111565,/	t,t,t,t,t,t,t,t,t,t,t,t,t,t,t,t,t	"<div class = ""centerbox2_2""><p class = ""block-text2"">Your delay is 2 trials.</p><p class = block-text2>Please wait for the scanner to start the block</p></div>"	77	10880.0	n/a	n/a	n/a	n/a	n/a	n/a	n/a	n/a	n/a	n/a	n/a	n/a	n/a	n/a	n/a	n/a	n/a	n/a	n/a	start_functional_block
11383	500.0	n/a	-1	-1	500	0.0	fixation	poldrack-single-stim	7	112069	0.0-7.0-0.0	beast_fmri_test	384	n/a	n/a	<div class = centerbox2><div class = fixation>+</div></div>	none	500.0	test	n/a	n/a	n/a	n/a	n/a	n/a	n/a	n/a	n/a	n/a	n/a	n/a	n/a	n/a	n/a	n/a	n/a	n/a	fixation
10216.370830999993	2750.0	n/a	1563	89	2750	1170.629169	stim	stop-signal	8	114823	0.0-7.0-1.0	beast_fmri_test	384	112245,/,112925,/,113605,/,114286,/,114965,/,115645,/	t,t,t,t,t,t	<img class = center src='/static/experiments/beast_fmri_test/images/P.png'></img>	71,89	2750.0	test	<img class = center src='/static/experiments/beast_fmri_test/images/redP.png'></img>	go	-1.0	2.0	0.0	go	temp-non-target	P	71,Index Finger	89,Middle Finger	500.0	500.0	0.0	0.0	0.0	n/a	n/a	n/a	go_stim
12966.370830999993	1170.629169	n/a	1563	89	2750	1170.629169	stim	stop-signal	8	114823	0.0-7.0-1.0	beast_fmri_test	384	112245,/,112925,/,113605,/,114286,/,114965,/,115645,/	t,t,t,t,t,t	<img class = center src='/static/experiments/beast_fmri_test/images/P.png'></img>	71,89	2750.0	test	<img class = center src='/static/experiments/beast_fmri_test/images/redP.png'></img>	go	-1.0	2.0	0.0	go	temp-non-target	P	71,Index Finger	89,Middle Finger	500.0	500.0	0.0	0.0	0.0	n/a	n/a	n/a	ITI
15814	500.0	n/a	-1	-1	500	0.0	fixation	poldrack-single-stim	9	116500	0.0-7.1-0.1	beast_fmri_test	384	116326,/	t	<div class = centerbox2><div class = fixation>+</div></div>	none	500.0	test	n/a	n/a	n/a	n/a	n/a	n/a	n/a	n/a	n/a	n/a	n/a	n/a	n/a	n/a	n/a	n/a	n/a	n/a	fixation
15640.452601800003	2750.0	n/a	781	89	2750	175.5473982	stim	stop-signal	10	119252	0.0-7.1-1.1	beast_fmri_test	384	117006,/,117686,/,118366,/,119045,/	t,t,t,t	<img class = center src='/static/experiments/beast_fmri_test/images/D.png'></img>	71,89	2750.0	test	<img class = center src='/static/experiments/beast_fmri_test/images/redD.png'></img>	go	-1.0	2.0	1.0	go	temp-non-target	D	71,Index Finger	89,Middle Finger	500.0	500.0	0.0	0.0	0.0	n/a	n/a	n/a	go_stim
18390.452601800003	175.5473982	n/a	781	89	2750	175.5473982	stim	stop-signal	10	119252	0.0-7.1-1.1	beast_fmri_test	384	117006,/,117686,/,118366,/,119045,/	t,t,t,t	<img class = center src='/static/experiments/beast_fmri_test/images/D.png'></img>	71,89	2750.0	test	<img class = center src='/static/experiments/beast_fmri_test/images/redD.png'></img>	go	-1.0	2.0	1.0	go	temp-non-target	D	71,Index Finger	89,Middle Finger	500.0	500.0	0.0	0.0	0.0	n/a	n/a	n/a	ITI
19246	500.0	n/a	-1	-1	500	0.0	fixation	poldrack-single-stim	11	119932	0.0-7.2-0.2	beast_fmri_test	384	119726,/	t	<div class = centerbox2><div class = fixation>+</div></div>	none	500.0	test	n/a	n/a	n/a	n/a	n/a	n/a	n/a	n/a	n/a	n/a	n/a	n/a	n/a	n/a	n/a	n/a	n/a	n/a	fixation
17900.580220999997	2750.0	n/a	1642	89	2750	1348.419779	stim	stop-signal	12	122685	0.0-7.2-1.2	beast_fmri_test	384	120405,/,121086,/,121765,/,122446,/,123126,/,123805,/	t,t,t,t,t,t	<img class = center src='/static/experiments/beast_fmri_test/images/D.png'></img>	71,89	2750.0	test	<img class = center src='/static/experiments/beast_fmri_test/images/redD.png'></img>	go	2250.0	2.0	2.0	go	non-target	D	71,Index Finger	89,Middle Finger	500.0	500.0	0.0	2250.0	1.0	500.0	1.0	n/a	go_stim
20650.580220999997	1348.419779	n/a	1642	89	2750	1348.419779	stim	stop-signal	12	122685	0.0-7.2-1.2	beast_fmri_test	384	120405,/,121086,/,121765,/,122446,/,123126,/,123805,/	t,t,t,t,t,t	<img class = center src='/static/experiments/beast_fmri_test/images/D.png'></img>	71,89	2750.0	test	<img class = center src='/static/experiments/beast_fmri_test/images/redD.png'></img>	go	2250.0	2.0	2.0	go	non-target	D	71,Index Finger	89,Middle Finger	500.0	500.0	0.0	2250.0	1.0	500.0	1.0	n/a	ITI
23851	500.0	n/a	-1	-1	500	0.0	fixation	poldrack-single-stim	13	124537	0.0-7.3-0.3	beast_fmri_test	384	124485,/	t	<div class = centerbox2><div class = fixation>+</div></div>	none	500.0	test	n/a	n/a	n/a	n/a	n/a	n/a	n/a	n/a	n/a	n/a	n/a	n/a	n/a	n/a	n/a	n/a	n/a	n/a	fixation
23368.786632000003	2750.0	n/a	872	71	2750	484.213368	stim	stop-signal	14	127289	0.0-7.3-1.3	beast_fmri_test	384	125165,/,125845,/,126525,/,127206,/	t,t,t,t	<img class = center src='/static/experiments/beast_fmri_test/images/D.png'></img>	71,89	2750.0	test	<img class = center src='/static/experiments/beast_fmri_test/images/redD.png'></img>	go	2250.0	2.0	3.0	go	target	D	71,Index Finger	89,Middle Finger	500.0	500.0	2250.0	2250.0	1.0	500.0	1.0	n/a	go_stim
26118.786632000003	484.213368	n/a	872	71	2750	484.213368	stim	stop-signal	14	127289	0.0-7.3-1.3	beast_fmri_test	384	125165,/,125845,/,126525,/,127206,/	t,t,t,t	<img class = center src='/static/experiments/beast_fmri_test/images/D.png'></img>	71,89	2750.0	test	<img class = center src='/static/experiments/beast_fmri_test/images/redD.png'></img>	go	2250.0	2.0	3.0	go	target	D	71,Index Finger	89,Middle Finger	500.0	500.0	2250.0	2250.0	1.0	500.0	1.0	n/a	ITI
27591	500.0	n/a	-1	-1	500	0.0	fixation	poldrack-single-stim	15	128277	0.0-7.4-0.4	beast_fmri_test	384	127885,/	t	<div class = centerbox2><div class = fixation>+</div></div>	none	500.0	test	n/a	n/a	n/a	n/a	n/a	n/a	n/a	n/a	n/a	n/a	n/a	n/a	n/a	n/a	n/a	n/a	n/a	n/a	fixation
26699.357297199997	2750.0	n/a	1469	71	2750	893.6427028	stim	stop-signal	16	131029	0.0-7.4-1.4	beast_fmri_test	384	128565,/,129245,/,129925,/,130605,/,131285,/	t,t,t,t,t	<img class = center src='/static/experiments/beast_fmri_test/images/P.png'></img>	71,89	2750.0	test	<img class = center src='/static/experiments/beast_fmri_test/images/redP.png'></img>	go	2250.0	2.0	4.0	go	non-target	P	71,Index Finger	89,Middle Finger	500.0	500.0	2250.0	2250.0	0.0	500.0	0.0	n/a	go_stim
29449.357297199997	893.6427028	n/a	1469	71	2750	893.6427028	stim	stop-signal	16	131029	0.0-7.4-1.4	beast_fmri_test	384	128565,/,129245,/,129925,/,130605,/,131285,/	t,t,t,t,t	<img class = center src='/static/experiments/beast_fmri_test/images/P.png'></img>	71,89	2750.0	test	<img class = center src='/static/experiments/beast_fmri_test/images/redP.png'></img>	go	2250.0	2.0	4.0	go	non-target	P	71,Index Finger	89,Middle Finger	500.0	500.0	2250.0	2250.0	0.0	500.0	0.0	n/a	ITI
31740	500.0	n/a	-1	-1	500	0.0	fixation	poldrack-single-stim	17	132426	0.0-7.5-0.5	beast_fmri_test	384	131965,/	t	<div class = centerbox2><div class = fixation>+</div></div>	none	500.0	test	n/a	n/a	n/a	n/a	n/a	n/a	n/a	n/a	n/a	n/a	n/a	n/a	n/a	n/a	n/a	n/a	n/a	n/a	fixation
31184.37792639999	2750.0	n/a	1805	71	2750	557.6220736	stim	stop-signal	18	135178	0.0-7.5-1.5	beast_fmri_test	384	132645,/,133325,/,134005,/,134685,/,135365,/	t,t,t,t,t	<img class = center src='/static/experiments/beast_fmri_test/images/D.png'></img>	71,89	2750.0	test	<img class = center src='/static/experiments/beast_fmri_test/images/redD.png'></img>	go	2250.0	2.0	5.0	go	target	D	71,Index Finger	89,Middle Finger	500.0	500.0	2250.0	2250.0	1.0	500.0	1.0	n/a	go_stim
33934.37792639999	557.6220736	n/a	1805	71	2750	557.6220736	stim	stop-signal	18	135178	0.0-7.5-1.5	beast_fmri_test	384	132645,/,133325,/,134005,/,134685,/,135365,/	t,t,t,t,t	<img class = center src='/static/experiments/beast_fmri_test/images/D.png'></img>	71,89	2750.0	test	<img class = center src='/static/experiments/beast_fmri_test/images/redD.png'></img>	go	2250.0	2.0	5.0	go	target	D	71,Index Finger	89,Middle Finger	500.0	500.0	2250.0	2250.0	1.0	500.0	1.0	n/a	ITI
35553	500.0	n/a	-1	-1	500	0.0	fixation	poldrack-single-stim	19	136239	0.0-7.6-0.6	beast_fmri_test	384	136045,/	t	<div class = centerbox2><div class = fixation>+</div></div>	none	500.0	test	n/a	n/a	n/a	n/a	n/a	n/a	n/a	n/a	n/a	n/a	n/a	n/a	n/a	n/a	n/a	n/a	n/a	n/a	fixation
35481.940799580014	500.0	n/a	-1	-1	2750	73.05920042	stim	stop-signal	20	138991	0.0-7.6-1.6	beast_fmri_test	384	136725,/,137405,/,138085,/,138765,/	t,t,t,t	<img class = center src='/static/experiments/beast_fmri_test/images/P.png'></img>	71,89	2750.0	test	<img class = center src='/static/experiments/beast_fmri_test/images/redP.png'></img>	stop	2250.0	2.0	6.0	stop	target	P	71,Index Finger	89,Middle Finger	500.0	500.0	2250.0	2250.0	0.0	500.0	n/a	1.0	go_stim
37731.940799580014	2250.0	n/a	-1	-1	2750	73.05920042	stim	stop-signal	20	138991	0.0-7.6-1.6	beast_fmri_test	384	136725,/,137405,/,138085,/,138765,/	t,t,t,t	<img class = center src='/static/experiments/beast_fmri_test/images/P.png'></img>	71,89	2750.0	test	<img class = center src='/static/experiments/beast_fmri_test/images/redP.png'></img>	stop	2250.0	2.0	6.0	stop	target	P	71,Index Finger	89,Middle Finger	500.0	500.0	2250.0	2250.0	0.0	500.0	n/a	1.0	stop_stim
38231.940799580014	73.05920042	n/a	-1	-1	2750	73.05920042	stim	stop-signal	20	138991	0.0-7.6-1.6	beast_fmri_test	384	136725,/,137405,/,138085,/,138765,/	t,t,t,t	<img class = center src='/static/experiments/beast_fmri_test/images/P.png'></img>	71,89	2750.0	test	<img class = center src='/static/experiments/beast_fmri_test/images/redP.png'></img>	stop	2250.0	2.0	6.0	stop	target	P	71,Index Finger	89,Middle Finger	500.0	500.0	2250.0	2250.0	0.0	500.0	n/a	1.0	ITI
38884	500.0	n/a	-1	-1	500	0.0	fixation	poldrack-single-stim	21	139570	0.0-7.7-0.7	beast_fmri_test	384	139445,/	t	<div class = centerbox2><div class = fixation>+</div></div>	none	500.0	test	n/a	n/a	n/a	n/a	n/a	n/a	n/a	n/a	n/a	n/a	n/a	n/a	n/a	n/a	n/a	n/a	n/a	n/a	fixation
36964.128357999987	550.0	n/a	-1	-1	2750	1920.871642	stim	stop-signal	22	142321	0.0-7.7-1.7	beast_fmri_test	384	140125,/,140805,/,141485,/,142165,/,142845,/,143525,/,144205,/	t,t,t,t,t,t,t	<img class = center src='/static/experiments/beast_fmri_test/images/D.png'></img>	71,89	2750.0	test	<img class = center src='/static/experiments/beast_fmri_test/images/redD.png'></img>	stop	2200.0	2.0	7.0	stop	target	D	71,Index Finger	89,Middle Finger	550.0	500.0	2200.0	2250.0	0.0	550.0	n/a	1.0	go_stim
39164.128357999987	2200.0	n/a	-1	-1	2750	1920.871642	stim	stop-signal	22	142321	0.0-7.7-1.7	beast_fmri_test	384	140125,/,140805,/,141485,/,142165,/,142845,/,143525,/,144205,/	t,t,t,t,t,t,t	<img class = center src='/static/experiments/beast_fmri_test/images/D.png'></img>	71,89	2750.0	test	<img class = center src='/static/experiments/beast_fmri_test/images/redD.png'></img>	stop	2200.0	2.0	7.0	stop	target	D	71,Index Finger	89,Middle Finger	550.0	500.0	2200.0	2250.0	0.0	550.0	n/a	1.0	stop_stim
39714.128357999987	1920.871642	n/a	-1	-1	2750	1920.871642	stim	stop-signal	22	142321	0.0-7.7-1.7	beast_fmri_test	384	140125,/,140805,/,141485,/,142165,/,142845,/,143525,/,144205,/	t,t,t,t,t,t,t	<img class = center src='/static/experiments/beast_fmri_test/images/D.png'></img>	71,89	2750.0	test	<img class = center src='/static/experiments/beast_fmri_test/images/redD.png'></img>	stop	2200.0	2.0	7.0	stop	target	D	71,Index Finger	89,Middle Finger	550.0	500.0	2200.0	2250.0	0.0	550.0	n/a	1.0	ITI
44060	500.0	n/a	-1	-1	500	0.0	fixation	poldrack-single-stim	23	144746	0.0-7.8-0.8	beast_fmri_test	384	n/a	n/a	<div class = centerbox2><div class = fixation>+</div></div>	none	500.0	test	n/a	n/a	n/a	n/a	n/a	n/a	n/a	n/a	n/a	n/a	n/a	n/a	n/a	n/a	n/a	n/a	n/a	n/a	fixation
43866.771593000012	600.0	n/a	-1	-1	2750	196.228407	stim	stop-signal	24	147499	0.0-7.8-1.8	beast_fmri_test	384	144885,/,145565,/,146245,/,146925,/,147606,/	t,t,t,t,t	<img class = center src='/static/experiments/beast_fmri_test/images/P.png'></img>	71,89	2750.0	test	<img class = center src='/static/experiments/beast_fmri_test/images/redP.png'></img>	stop	2150.0	2.0	8.0	stop	target	P	71,Index Finger	89,Middle Finger	600.0	500.0	2150.0	2250.0	0.0	600.0	n/a	1.0	go_stim
46016.771593000012	2150.0	n/a	-1	-1	2750	196.228407	stim	stop-signal	24	147499	0.0-7.8-1.8	beast_fmri_test	384	144885,/,145565,/,146245,/,146925,/,147606,/	t,t,t,t,t	<img class = center src='/static/experiments/beast_fmri_test/images/P.png'></img>	71,89	2750.0	test	<img class = center src='/static/experiments/beast_fmri_test/images/redP.png'></img>	stop	2150.0	2.0	8.0	stop	target	P	71,Index Finger	89,Middle Finger	600.0	500.0	2150.0	2250.0	0.0	600.0	n/a	1.0	stop_stim
46616.771593000012	196.228407	n/a	-1	-1	2750	196.228407	stim	stop-signal	24	147499	0.0-7.8-1.8	beast_fmri_test	384	144885,/,145565,/,146245,/,146925,/,147606,/	t,t,t,t,t	<img class = center src='/static/experiments/beast_fmri_test/images/P.png'></img>	71,89	2750.0	test	<img class = center src='/static/experiments/beast_fmri_test/images/redP.png'></img>	stop	2150.0	2.0	8.0	stop	target	P	71,Index Finger	89,Middle Finger	600.0	500.0	2150.0	2250.0	0.0	600.0	n/a	1.0	ITI
47514	500.0	n/a	-1	-1	500	0.0	fixation	poldrack-single-stim	25	148200	0.0-7.9-0.9	beast_fmri_test	384	n/a	n/a	<div class = centerbox2><div class = fixation>+</div></div>	none	500.0	test	n/a	n/a	n/a	n/a	n/a	n/a	n/a	n/a	n/a	n/a	n/a	n/a	n/a	n/a	n/a	n/a	n/a	n/a	fixation
46156.997571999993	2750.0	n/a	1135	89	2750	1360.002428	stim	stop-signal	26	150953	0.0-7.9-1.9	beast_fmri_test	384	148286,/,148966,/,149646,/,150326,/,151005,/,151686,/	t,t,t,t,t,t	<img class = center src='/static/experiments/beast_fmri_test/images/D.png'></img>	71,89	2750.0	test	<img class = center src='/static/experiments/beast_fmri_test/images/redD.png'></img>	go	2100.0	2.0	9.0	go	target	D	71,Index Finger	89,Middle Finger	650.0	500.0	2100.0	2250.0	0.0	650.0	0.0	n/a	go_stim
48906.997571999993	1360.002428	n/a	1135	89	2750	1360.002428	stim	stop-signal	26	150953	0.0-7.9-1.9	beast_fmri_test	384	148286,/,148966,/,149646,/,150326,/,151005,/,151686,/	t,t,t,t,t,t	<img class = center src='/static/experiments/beast_fmri_test/images/D.png'></img>	71,89	2750.0	test	<img class = center src='/static/experiments/beast_fmri_test/images/redD.png'></img>	go	2100.0	2.0	9.0	go	target	D	71,Index Finger	89,Middle Finger	650.0	500.0	2100.0	2250.0	0.0	650.0	0.0	n/a	ITI
52131	500.0	n/a	-1	-1	500	0.0	fixation	poldrack-single-stim	27	152817	0.0-7.10-0.10	beast_fmri_test	384	152366,/	t	<div class = centerbox2><div class = fixation>+</div></div>	none	500.0	test	n/a	n/a	n/a	n/a	n/a	n/a	n/a	n/a	n/a	n/a	n/a	n/a	n/a	n/a	n/a	n/a	n/a	n/a	fixation
52014.332600599999	2750.0	n/a	1446	71	2750	118.6673994	stim	stop-signal	28	155569	0.0-7.10-1.10	beast_fmri_test	384	153046,/,153726,/,154405,/,155085,/	t,t,t,t	<img class = center src='/static/experiments/beast_fmri_test/images/P.png'></img>	71,89	2750.0	test	<img class = center src='/static/experiments/beast_fmri_test/images/redP.png'></img>	go	2100.0	2.0	10.0	go	target	P	71,Index Finger	89,Middle Finger	650.0	500.0	2100.0	2250.0	1.0	650.0	1.0	n/a	go_stim
54764.332600599999	118.6673994	n/a	1446	71	2750	118.6673994	stim	stop-signal	28	155569	0.0-7.10-1.10	beast_fmri_test	384	153046,/,153726,/,154405,/,155085,/	t,t,t,t	<img class = center src='/static/experiments/beast_fmri_test/images/P.png'></img>	71,89	2750.0	test	<img class = center src='/static/experiments/beast_fmri_test/images/redP.png'></img>	go	2100.0	2.0	10.0	go	target	P	71,Index Finger	89,Middle Finger	650.0	500.0	2100.0	2250.0	1.0	650.0	1.0	n/a	ITI
55506	500.0	n/a	-1	-1	500	0.0	fixation	poldrack-single-stim	29	156192	0.0-7.11-0.11	beast_fmri_test	384	155766,/	t	<div class = centerbox2><div class = fixation>+</div></div>	none	500.0	test	n/a	n/a	n/a	n/a	n/a	n/a	n/a	n/a	n/a	n/a	n/a	n/a	n/a	n/a	n/a	n/a	n/a	n/a	fixation
55050.356039200007	500.0	n/a	-1	-1	2750	458.6439608	stim	stop-signal	30	158945	0.0-7.11-1.11	beast_fmri_test	384	156446,/,157126,/,157807,/,158486,/,159165,/	t,t,t,t,t	<img class = center src='/static/experiments/beast_fmri_test/images/P.png'></img>	71,89	2750.0	test	<img class = center src='/static/experiments/beast_fmri_test/images/redP.png'></img>	stop	2250.0	2.0	11.0	stop	non-target	P	71,Index Finger	89,Middle Finger	650.0	500.0	2100.0	2250.0	0.0	500.0	n/a	1.0	go_stim
57300.356039200007	2250.0	n/a	-1	-1	2750	458.6439608	stim	stop-signal	30	158945	0.0-7.11-1.11	beast_fmri_test	384	156446,/,157126,/,157807,/,158486,/,159165,/	t,t,t,t,t	<img class = center src='/static/experiments/beast_fmri_test/images/P.png'></img>	71,89	2750.0	test	<img class = center src='/static/experiments/beast_fmri_test/images/redP.png'></img>	stop	2250.0	2.0	11.0	stop	non-target	P	71,Index Finger	89,Middle Finger	650.0	500.0	2100.0	2250.0	0.0	500.0	n/a	1.0	stop_stim
57800.356039200007	458.6439608	n/a	-1	-1	2750	458.6439608	stim	stop-signal	30	158945	0.0-7.11-1.11	beast_fmri_test	384	156446,/,157126,/,157807,/,158486,/,159165,/	t,t,t,t,t	<img class = center src='/static/experiments/beast_fmri_test/images/P.png'></img>	71,89	2750.0	test	<img class = center src='/static/experiments/beast_fmri_test/images/redP.png'></img>	stop	2250.0	2.0	11.0	stop	non-target	P	71,Index Finger	89,Middle Finger	650.0	500.0	2100.0	2250.0	0.0	500.0	n/a	1.0	ITI
59221	500.0	n/a	-1	-1	500	0.0	fixation	poldrack-single-stim	31	159907	0.0-7.12-0.12	beast_fmri_test	384	159845,/	t	<div class = centerbox2><div class = fixation>+</div></div>	none	500.0	test	n/a	n/a	n/a	n/a	n/a	n/a	n/a	n/a	n/a	n/a	n/a	n/a	n/a	n/a	n/a	n/a	n/a	n/a	fixation
59147.178978490003	550.0	n/a	1131	89	2750	75.82102151	stim	stop-signal	32	162659	0.0-7.12-1.12	beast_fmri_test	384	160526,/,161205,/,161885,/,162565,/	t,t,t,t	<img class = center src='/static/experiments/beast_fmri_test/images/V.png'></img>	71,89	2750.0	test	<img class = center src='/static/experiments/beast_fmri_test/images/redV.png'></img>	stop	2200.0	2.0	12.0	stop	non-target	V	71,Index Finger	89,Middle Finger	650.0	550.0	2100.0	2200.0	0.0	550.0	n/a	0.0	go_stim
61347.178978490003	2200.0	n/a	1131	89	2750	75.82102151	stim	stop-signal	32	162659	0.0-7.12-1.12	beast_fmri_test	384	160526,/,161205,/,161885,/,162565,/	t,t,t,t	<img class = center src='/static/experiments/beast_fmri_test/images/V.png'></img>	71,89	2750.0	test	<img class = center src='/static/experiments/beast_fmri_test/images/redV.png'></img>	stop	2200.0	2.0	12.0	stop	non-target	V	71,Index Finger	89,Middle Finger	650.0	550.0	2100.0	2200.0	0.0	550.0	n/a	0.0	stop_stim
61897.178978490003	75.82102151	n/a	1131	89	2750	75.82102151	stim	stop-signal	32	162659	0.0-7.12-1.12	beast_fmri_test	384	160526,/,161205,/,161885,/,162565,/	t,t,t,t	<img class = center src='/static/experiments/beast_fmri_test/images/V.png'></img>	71,89	2750.0	test	<img class = center src='/static/experiments/beast_fmri_test/images/redV.png'></img>	stop	2200.0	2.0	12.0	stop	non-target	V	71,Index Finger	89,Middle Finger	650.0	550.0	2100.0	2200.0	0.0	550.0	n/a	0.0	ITI
62552	500.0	n/a	-1	-1	500	0.0	fixation	poldrack-single-stim	33	163238	0.0-7.13-0.13	beast_fmri_test	384	n/a	n/a	<div class = centerbox2><div class = fixation>+</div></div>	none	500.0	test	n/a	n/a	n/a	n/a	n/a	n/a	n/a	n/a	n/a	n/a	n/a	n/a	n/a	n/a	n/a	n/a	n/a	n/a	fixation
61581.584342099988	2750.0	n/a	1406	89	2750	972.4156579	stim	stop-signal	34	165990	0.0-7.13-1.13	beast_fmri_test	384	163245,/,163925,/,164605,/,165285,/,165965,/,166645,/	t,t,t,t,t,t	<img class = center src='/static/experiments/beast_fmri_test/images/D.png'></img>	71,89	2750.0	test	<img class = center src='/static/experiments/beast_fmri_test/images/redD.png'></img>	go	2250.0	2.0	13.0	go	non-target	D	71,Index Finger	89,Middle Finger	650.0	500.0	2100.0	2250.0	1.0	500.0	1.0	n/a	go_stim
64331.584342099988	972.4156579	n/a	1406	89	2750	972.4156579	stim	stop-signal	34	165990	0.0-7.13-1.13	beast_fmri_test	384	163245,/,163925,/,164605,/,165285,/,165965,/,166645,/	t,t,t,t,t,t	<img class = center src='/static/experiments/beast_fmri_test/images/D.png'></img>	71,89	2750.0	test	<img class = center src='/static/experiments/beast_fmri_test/images/redD.png'></img>	go	2250.0	2.0	13.0	go	non-target	D	71,Index Finger	89,Middle Finger	650.0	500.0	2100.0	2250.0	1.0	500.0	1.0	n/a	ITI
66782	500.0	n/a	-1	-1	500	0.0	fixation	poldrack-single-stim	35	167468	0.0-7.14-0.14	beast_fmri_test	384	167325,/	t	<div class = centerbox2><div class = fixation>+</div></div>	none	500.0	test	n/a	n/a	n/a	n/a	n/a	n/a	n/a	n/a	n/a	n/a	n/a	n/a	n/a	n/a	n/a	n/a	n/a	n/a	fixation
63969.445542000001	2750.0	n/a	2590	89	2750	2813.554458	stim	stop-signal	36	170219	0.0-7.14-1.14	beast_fmri_test	384	168006,/,168685,/,169365,/,170045,/,170725,/,171405,/,172085,/,172765,/	t,t,t,t,t,t,t,t	<img class = center src='/static/experiments/beast_fmri_test/images/P.png'></img>	71,89	2750.0	test	<img class = center src='/static/experiments/beast_fmri_test/images/redP.png'></img>	go	2250.0	2.0	14.0	go	non-target	P	71,Index Finger	89,Middle Finger	650.0	500.0	2100.0	2250.0	1.0	500.0	1.0	n/a	go_stim
66719.445542000001	2813.554458	n/a	2590	89	2750	2813.554458	stim	stop-signal	36	170219	0.0-7.14-1.14	beast_fmri_test	384	168006,/,168685,/,169365,/,170045,/,170725,/,171405,/,172085,/,172765,/	t,t,t,t,t,t,t,t	<img class = center src='/static/experiments/beast_fmri_test/images/P.png'></img>	71,89	2750.0	test	<img class = center src='/static/experiments/beast_fmri_test/images/redP.png'></img>	go	2250.0	2.0	14.0	go	non-target	P	71,Index Finger	89,Middle Finger	650.0	500.0	2100.0	2250.0	1.0	500.0	1.0	n/a	ITI
72851	500.0	n/a	-1	-1	500	0.0	fixation	poldrack-single-stim	37	173537	0.0-7.15-0.15	beast_fmri_test	384	173445,/	t	<div class = centerbox2><div class = fixation>+</div></div>	none	500.0	test	n/a	n/a	n/a	n/a	n/a	n/a	n/a	n/a	n/a	n/a	n/a	n/a	n/a	n/a	n/a	n/a	n/a	n/a	fixation
71991.651360299991	500.0	n/a	-1	-1	2750	861.3486397	stim	stop-signal	38	176289	0.0-7.15-1.15	beast_fmri_test	384	174125,/,174805,/,175485,/,176165,/,176845,/	t,t,t,t,t	<img class = center src='/static/experiments/beast_fmri_test/images/B.png'></img>	71,89	2750.0	test	<img class = center src='/static/experiments/beast_fmri_test/images/redB.png'></img>	stop	2250.0	2.0	15.0	stop	non-target	B	71,Index Finger	89,Middle Finger	650.0	500.0	2100.0	2250.0	0.0	500.0	n/a	1.0	go_stim
74241.651360299991	2250.0	n/a	-1	-1	2750	861.3486397	stim	stop-signal	38	176289	0.0-7.15-1.15	beast_fmri_test	384	174125,/,174805,/,175485,/,176165,/,176845,/	t,t,t,t,t	<img class = center src='/static/experiments/beast_fmri_test/images/B.png'></img>	71,89	2750.0	test	<img class = center src='/static/experiments/beast_fmri_test/images/redB.png'></img>	stop	2250.0	2.0	15.0	stop	non-target	B	71,Index Finger	89,Middle Finger	650.0	500.0	2100.0	2250.0	0.0	500.0	n/a	1.0	stop_stim
74741.651360299991	861.3486397	n/a	-1	-1	2750	861.3486397	stim	stop-signal	38	176289	0.0-7.15-1.15	beast_fmri_test	384	174125,/,174805,/,175485,/,176165,/,176845,/	t,t,t,t,t	<img class = center src='/static/experiments/beast_fmri_test/images/B.png'></img>	71,89	2750.0	test	<img class = center src='/static/experiments/beast_fmri_test/images/redB.png'></img>	stop	2250.0	2.0	15.0	stop	non-target	B	71,Index Finger	89,Middle Finger	650.0	500.0	2100.0	2250.0	0.0	500.0	n/a	1.0	ITI
76969	500.0	n/a	-1	-1	500	0.0	fixation	poldrack-single-stim	39	177655	0.0-7.16-0.16	beast_fmri_test	384	177525,/	t	<div class = centerbox2><div class = fixation>+</div></div>	none	500.0	test	n/a	n/a	n/a	n/a	n/a	n/a	n/a	n/a	n/a	n/a	n/a	n/a	n/a	n/a	n/a	n/a	n/a	n/a	fixation
76759.148959100014	550.0	n/a	-1	-1	2750	212.8510409	stim	stop-signal	40	180408	0.0-7.16-1.16	beast_fmri_test	384	178205,/,178885,/,179565,/,180245,/	t,t,t,t	<img class = center src='/static/experiments/beast_fmri_test/images/T.png'></img>	71,89	2750.0	test	<img class = center src='/static/experiments/beast_fmri_test/images/redT.png'></img>	stop	2200.0	2.0	16.0	stop	non-target	T	71,Index Finger	89,Middle Finger	650.0	550.0	2100.0	2200.0	0.0	550.0	n/a	1.0	go_stim
78959.148959100014	2200.0	n/a	-1	-1	2750	212.8510409	stim	stop-signal	40	180408	0.0-7.16-1.16	beast_fmri_test	384	178205,/,178885,/,179565,/,180245,/	t,t,t,t	<img class = center src='/static/experiments/beast_fmri_test/images/T.png'></img>	71,89	2750.0	test	<img class = center src='/static/experiments/beast_fmri_test/images/redT.png'></img>	stop	2200.0	2.0	16.0	stop	non-target	T	71,Index Finger	89,Middle Finger	650.0	550.0	2100.0	2200.0	0.0	550.0	n/a	1.0	stop_stim
79509.148959100014	212.8510409	n/a	-1	-1	2750	212.8510409	stim	stop-signal	40	180408	0.0-7.16-1.16	beast_fmri_test	384	178205,/,178885,/,179565,/,180245,/	t,t,t,t	<img class = center src='/static/experiments/beast_fmri_test/images/T.png'></img>	71,89	2750.0	test	<img class = center src='/static/experiments/beast_fmri_test/images/redT.png'></img>	stop	2200.0	2.0	16.0	stop	non-target	T	71,Index Finger	89,Middle Finger	650.0	550.0	2100.0	2200.0	0.0	550.0	n/a	1.0	ITI
80438	500.0	n/a	-1	-1	500	0.0	fixation	poldrack-single-stim	41	181124	0.0-7.17-0.17	beast_fmri_test	384	180926,/	t	<div class = centerbox2><div class = fixation>+</div></div>	none	500.0	test	n/a	n/a	n/a	n/a	n/a	n/a	n/a	n/a	n/a	n/a	n/a	n/a	n/a	n/a	n/a	n/a	n/a	n/a	fixation
80054.539427599986	600.0	n/a	-1	-1	2750	385.4605724	stim	stop-signal	42	183876	0.0-7.17-1.17	beast_fmri_test	384	181606,/,182285,/,182966,/,183645,/	t,t,t,t	<img class = center src='/static/experiments/beast_fmri_test/images/V.png'></img>	71,89	2750.0	test	<img class = center src='/static/experiments/beast_fmri_test/images/redV.png'></img>	stop	2150.0	2.0	17.0	stop	non-target	V	71,Index Finger	89,Middle Finger	650.0	600.0	2100.0	2150.0	0.0	600.0	n/a	1.0	go_stim
82204.539427599986	2150.0	n/a	-1	-1	2750	385.4605724	stim	stop-signal	42	183876	0.0-7.17-1.17	beast_fmri_test	384	181606,/,182285,/,182966,/,183645,/	t,t,t,t	<img class = center src='/static/experiments/beast_fmri_test/images/V.png'></img>	71,89	2750.0	test	<img class = center src='/static/experiments/beast_fmri_test/images/redV.png'></img>	stop	2150.0	2.0	17.0	stop	non-target	V	71,Index Finger	89,Middle Finger	650.0	600.0	2100.0	2150.0	0.0	600.0	n/a	1.0	stop_stim
82804.539427599986	385.4605724	n/a	-1	-1	2750	385.4605724	stim	stop-signal	42	183876	0.0-7.17-1.17	beast_fmri_test	384	181606,/,182285,/,182966,/,183645,/	t,t,t,t	<img class = center src='/static/experiments/beast_fmri_test/images/V.png'></img>	71,89	2750.0	test	<img class = center src='/static/experiments/beast_fmri_test/images/redV.png'></img>	stop	2150.0	2.0	17.0	stop	non-target	V	71,Index Finger	89,Middle Finger	650.0	600.0	2100.0	2150.0	0.0	600.0	n/a	1.0	ITI
84081	500.0	n/a	-1	-1	500	0.0	fixation	poldrack-single-stim	43	184767	0.0-7.18-0.18	beast_fmri_test	384	184326,/	t	<div class = centerbox2><div class = fixation>+</div></div>	none	500.0	test	n/a	n/a	n/a	n/a	n/a	n/a	n/a	n/a	n/a	n/a	n/a	n/a	n/a	n/a	n/a	n/a	n/a	n/a	fixation
80948.874206999986	2750.0	n/a	1411	89	2750	3134.125793	stim	stop-signal	44	187519	0.0-7.18-1.18	beast_fmri_test	384	185006,/,185686,/,186366,/,187045,/,187725,/,188406,/,189085,/,189766,/,190445,/	t,t,t,t,t,t,t,t,t	<img class = center src='/static/experiments/beast_fmri_test/images/P.png'></img>	71,89	2750.0	test	<img class = center src='/static/experiments/beast_fmri_test/images/redP.png'></img>	go	2100.0	2.0	18.0	go	non-target	P	71,Index Finger	89,Middle Finger	650.0	650.0	2100.0	2100.0	1.0	650.0	1.0	n/a	go_stim
83698.874206999986	3134.125793	n/a	1411	89	2750	3134.125793	stim	stop-signal	44	187519	0.0-7.18-1.18	beast_fmri_test	384	185006,/,185686,/,186366,/,187045,/,187725,/,188406,/,189085,/,189766,/,190445,/	t,t,t,t,t,t,t,t,t	<img class = center src='/static/experiments/beast_fmri_test/images/P.png'></img>	71,89	2750.0	test	<img class = center src='/static/experiments/beast_fmri_test/images/redP.png'></img>	go	2100.0	2.0	18.0	go	non-target	P	71,Index Finger	89,Middle Finger	650.0	650.0	2100.0	2100.0	1.0	650.0	1.0	n/a	ITI
90474	500.0	n/a	-1	-1	500	0.0	fixation	poldrack-single-stim	45	191160	0.0-7.19-0.19	beast_fmri_test	384	191126,/	t	<div class = centerbox2><div class = fixation>+</div></div>	none	500.0	test	n/a	n/a	n/a	n/a	n/a	n/a	n/a	n/a	n/a	n/a	n/a	n/a	n/a	n/a	n/a	n/a	n/a	n/a	fixation
90158.251699999993	2750.0	n/a	2060	89	2750	317.7483	stim	stop-signal	46	193912	0.0-7.19-1.19	beast_fmri_test	384	191806,/,192485,/,193166,/,193845,/	t,t,t,t	<img class = center src='/static/experiments/beast_fmri_test/images/D.png'></img>	71,89	2750.0	test	<img class = center src='/static/experiments/beast_fmri_test/images/redD.png'></img>	go	2100.0	2.0	19.0	go	non-target	D	71,Index Finger	89,Middle Finger	650.0	650.0	2100.0	2100.0	1.0	650.0	1.0	n/a	go_stim
92908.251699999993	317.7483	n/a	2060	89	2750	317.7483	stim	stop-signal	46	193912	0.0-7.19-1.19	beast_fmri_test	384	191806,/,192485,/,193166,/,193845,/	t,t,t,t	<img class = center src='/static/experiments/beast_fmri_test/images/D.png'></img>	71,89	2750.0	test	<img class = center src='/static/experiments/beast_fmri_test/images/redD.png'></img>	go	2100.0	2.0	19.0	go	non-target	D	71,Index Finger	89,Middle Finger	650.0	650.0	2100.0	2100.0	1.0	650.0	1.0	n/a	ITI
94050	500.0	n/a	-1	-1	500	0.0	fixation	poldrack-single-stim	47	194736	0.0-7.20-0.20	beast_fmri_test	384	194525,/	t	<div class = centerbox2><div class = fixation>+</div></div>	none	500.0	test	n/a	n/a	n/a	n/a	n/a	n/a	n/a	n/a	n/a	n/a	n/a	n/a	n/a	n/a	n/a	n/a	n/a	n/a	fixation
90471.942383999994	2750.0	n/a	1560	89	2750	3580.057616	stim	stop-signal	48	197488	0.0-7.20-1.20	beast_fmri_test	384	195205,/,195885,/,196565,/,197245,/,197925,/,198606,/,199285,/,199965,/,200645,/	t,t,t,t,t,t,t,t,t	<img class = center src='/static/experiments/beast_fmri_test/images/B.png'></img>	71,89	2750.0	test	<img class = center src='/static/experiments/beast_fmri_test/images/redB.png'></img>	go	2100.0	2.0	20.0	go	non-target	B	71,Index Finger	89,Middle Finger	650.0	650.0	2100.0	2100.0	1.0	650.0	1.0	n/a	go_stim
93221.942383999994	3580.057616	n/a	1560	89	2750	3580.057616	stim	stop-signal	48	197488	0.0-7.20-1.20	beast_fmri_test	384	195205,/,195885,/,196565,/,197245,/,197925,/,198606,/,199285,/,199965,/,200645,/	t,t,t,t,t,t,t,t,t	<img class = center src='/static/experiments/beast_fmri_test/images/B.png'></img>	71,89	2750.0	test	<img class = center src='/static/experiments/beast_fmri_test/images/redB.png'></img>	go	2100.0	2.0	20.0	go	non-target	B	71,Index Finger	89,Middle Finger	650.0	650.0	2100.0	2100.0	1.0	650.0	1.0	n/a	ITI
100887	500.0	n/a	-1	-1	500	0.0	fixation	poldrack-single-stim	49	201573	0.0-7.21-0.21	beast_fmri_test	384	201325,/	t	<div class = centerbox2><div class = fixation>+</div></div>	none	500.0	test	n/a	n/a	n/a	n/a	n/a	n/a	n/a	n/a	n/a	n/a	n/a	n/a	n/a	n/a	n/a	n/a	n/a	n/a	fixation
100774.10979459999	650.0	n/a	-1	-1	2750	114.8902054	stim	stop-signal	50	204325	0.0-7.21-1.21	beast_fmri_test	384	202005,/,202685,/,203365,/,204045,/	t,t,t,t	<img class = center src='/static/experiments/beast_fmri_test/images/B.png'></img>	71,89	2750.0	test	<img class = center src='/static/experiments/beast_fmri_test/images/redB.png'></img>	stop	2100.0	2.0	21.0	stop	non-target	B	71,Index Finger	89,Middle Finger	650.0	650.0	2100.0	2100.0	0.0	650.0	n/a	1.0	go_stim
102874.10979459999	2100.0	n/a	-1	-1	2750	114.8902054	stim	stop-signal	50	204325	0.0-7.21-1.21	beast_fmri_test	384	202005,/,202685,/,203365,/,204045,/	t,t,t,t	<img class = center src='/static/experiments/beast_fmri_test/images/B.png'></img>	71,89	2750.0	test	<img class = center src='/static/experiments/beast_fmri_test/images/redB.png'></img>	stop	2100.0	2.0	21.0	stop	non-target	B	71,Index Finger	89,Middle Finger	650.0	650.0	2100.0	2100.0	0.0	650.0	n/a	1.0	stop_stim
103524.10979459999	114.8902054	n/a	-1	-1	2750	114.8902054	stim	stop-signal	50	204325	0.0-7.21-1.21	beast_fmri_test	384	202005,/,202685,/,203365,/,204045,/	t,t,t,t	<img class = center src='/static/experiments/beast_fmri_test/images/B.png'></img>	71,89	2750.0	test	<img class = center src='/static/experiments/beast_fmri_test/images/redB.png'></img>	stop	2100.0	2.0	21.0	stop	non-target	B	71,Index Finger	89,Middle Finger	650.0	650.0	2100.0	2100.0	0.0	650.0	n/a	1.0	ITI
104259	500.0	n/a	-1	-1	500	0.0	fixation	poldrack-single-stim	51	204945	0.0-7.22-0.22	beast_fmri_test	384	204725,/	t	<div class = centerbox2><div class = fixation>+</div></div>	none	500.0	test	n/a	n/a	n/a	n/a	n/a	n/a	n/a	n/a	n/a	n/a	n/a	n/a	n/a	n/a	n/a	n/a	n/a	n/a	fixation
102773.627286	2750.0	n/a	1621	89	2750	1486.372714	stim	stop-signal	52	207696	0.0-7.22-1.22	beast_fmri_test	384	205405,/,206085,/,206765,/,207445,/,208125,/,208806,/	t,t,t,t,t,t	<img class = center src='/static/experiments/beast_fmri_test/images/V.png'></img>	71,89	2750.0	test	<img class = center src='/static/experiments/beast_fmri_test/images/redV.png'></img>	go	2050.0	2.0	22.0	go	non-target	V	71,Index Finger	89,Middle Finger	650.0	700.0	2100.0	2050.0	1.0	700.0	1.0	n/a	go_stim
105523.627286	1486.372714	n/a	1621	89	2750	1486.372714	stim	stop-signal	52	207696	0.0-7.22-1.22	beast_fmri_test	384	205405,/,206085,/,206765,/,207445,/,208125,/,208806,/	t,t,t,t,t,t	<img class = center src='/static/experiments/beast_fmri_test/images/V.png'></img>	71,89	2750.0	test	<img class = center src='/static/experiments/beast_fmri_test/images/redV.png'></img>	go	2050.0	2.0	22.0	go	non-target	V	71,Index Finger	89,Middle Finger	650.0	700.0	2100.0	2050.0	1.0	700.0	1.0	n/a	ITI
109002	500.0	n/a	-1	-1	500	0.0	fixation	poldrack-single-stim	53	209688	0.0-7.23-0.23	beast_fmri_test	384	209485,/	t	<div class = centerbox2><div class = fixation>+</div></div>	none	500.0	test	n/a	n/a	n/a	n/a	n/a	n/a	n/a	n/a	n/a	n/a	n/a	n/a	n/a	n/a	n/a	n/a	n/a	n/a	fixation
108638.78986039999	2750.0	n/a	968	89	2750	365.2101396	stim	stop-signal	54	212440	0.0-7.23-1.23	beast_fmri_test	384	210165,/,210845,/,211525,/,212205,/	t,t,t,t	<img class = center src='/static/experiments/beast_fmri_test/images/D.png'></img>	71,89	2750.0	test	<img class = center src='/static/experiments/beast_fmri_test/images/redD.png'></img>	go	2050.0	2.0	23.0	go	non-target	D	71,Index Finger	89,Middle Finger	650.0	700.0	2100.0	2050.0	1.0	700.0	1.0	n/a	go_stim
111388.78986039999	365.2101396	n/a	968	89	2750	365.2101396	stim	stop-signal	54	212440	0.0-7.23-1.23	beast_fmri_test	384	210165,/,210845,/,211525,/,212205,/	t,t,t,t	<img class = center src='/static/experiments/beast_fmri_test/images/D.png'></img>	71,89	2750.0	test	<img class = center src='/static/experiments/beast_fmri_test/images/redD.png'></img>	go	2050.0	2.0	23.0	go	non-target	D	71,Index Finger	89,Middle Finger	650.0	700.0	2100.0	2050.0	1.0	700.0	1.0	n/a	ITI
112624	500.0	n/a	-1	-1	500	0.0	fixation	poldrack-single-stim	55	213310	0.0-7.24-0.24	beast_fmri_test	384	212886,/	t	<div class = centerbox2><div class = fixation>+</div></div>	none	500.0	test	n/a	n/a	n/a	n/a	n/a	n/a	n/a	n/a	n/a	n/a	n/a	n/a	n/a	n/a	n/a	n/a	n/a	n/a	fixation
111052.67116999999	2750.0	n/a	1187	89	2750	1574.32883	stim	stop-signal	56	216063	0.0-7.24-1.24	beast_fmri_test	384	213566,/,214246,/,214926,/,215606,/,216286,/,216966,/	t,t,t,t,t,t	<img class = center src='/static/experiments/beast_fmri_test/images/D.png'></img>	71,89	2750.0	test	<img class = center src='/static/experiments/beast_fmri_test/images/redD.png'></img>	go	2050.0	2.0	24.0	go	non-target	D	71,Index Finger	89,Middle Finger	650.0	700.0	2100.0	2050.0	1.0	700.0	1.0	n/a	go_stim
113802.67116999999	1574.32883	n/a	1187	89	2750	1574.32883	stim	stop-signal	56	216063	0.0-7.24-1.24	beast_fmri_test	384	213566,/,214246,/,214926,/,215606,/,216286,/,216966,/	t,t,t,t,t,t	<img class = center src='/static/experiments/beast_fmri_test/images/D.png'></img>	71,89	2750.0	test	<img class = center src='/static/experiments/beast_fmri_test/images/redD.png'></img>	go	2050.0	2.0	24.0	go	non-target	D	71,Index Finger	89,Middle Finger	650.0	700.0	2100.0	2050.0	1.0	700.0	1.0	n/a	ITI
117458	500.0	n/a	-1	-1	500	0.0	fixation	poldrack-single-stim	57	218144	0.0-7.25-0.25	beast_fmri_test	384	217645,/	t	<div class = centerbox2><div class = fixation>+</div></div>	none	500.0	test	n/a	n/a	n/a	n/a	n/a	n/a	n/a	n/a	n/a	n/a	n/a	n/a	n/a	n/a	n/a	n/a	n/a	n/a	fixation
116805.94790110001	2750.0	n/a	738	71	2750	653.0520989	stim	stop-signal	58	220895	0.0-7.25-1.25	beast_fmri_test	384	218326,/,219006,/,219686,/,220366,/,221045,/	t,t,t,t,t	<img class = center src='/static/experiments/beast_fmri_test/images/D.png'></img>	71,89	2750.0	test	<img class = center src='/static/experiments/beast_fmri_test/images/redD.png'></img>	go	2100.0	2.0	25.0	go	target	D	71,Index Finger	89,Middle Finger	650.0	700.0	2100.0	2050.0	1.0	650.0	1.0	n/a	go_stim
119555.94790110001	653.0520989	n/a	738	71	2750	653.0520989	stim	stop-signal	58	220895	0.0-7.25-1.25	beast_fmri_test	384	218326,/,219006,/,219686,/,220366,/,221045,/	t,t,t,t,t	<img class = center src='/static/experiments/beast_fmri_test/images/D.png'></img>	71,89	2750.0	test	<img class = center src='/static/experiments/beast_fmri_test/images/redD.png'></img>	go	2100.0	2.0	25.0	go	target	D	71,Index Finger	89,Middle Finger	650.0	700.0	2100.0	2050.0	1.0	650.0	1.0	n/a	ITI
121368	500.0	n/a	-1	-1	500	0.0	fixation	poldrack-single-stim	59	222054	0.0-7.26-0.26	beast_fmri_test	384	221726,/	t	<div class = centerbox2><div class = fixation>+</div></div>	none	500.0	test	n/a	n/a	n/a	n/a	n/a	n/a	n/a	n/a	n/a	n/a	n/a	n/a	n/a	n/a	n/a	n/a	n/a	n/a	fixation
120907.4442538	2750.0	n/a	1527	71	2750	463.5557462	stim	stop-signal	60	224807	0.0-7.26-1.26	beast_fmri_test	384	222406,/,223086,/,223765,/,224445,/,225125,/	t,t,t,t,t	<img class = center src='/static/experiments/beast_fmri_test/images/D.png'></img>	71,89	2750.0	test	<img class = center src='/static/experiments/beast_fmri_test/images/redD.png'></img>	go	2100.0	2.0	26.0	go	target	D	71,Index Finger	89,Middle Finger	650.0	700.0	2100.0	2050.0	1.0	650.0	1.0	n/a	go_stim
123657.4442538	463.5557462	n/a	1527	71	2750	463.5557462	stim	stop-signal	60	224807	0.0-7.26-1.26	beast_fmri_test	384	222406,/,223086,/,223765,/,224445,/,225125,/	t,t,t,t,t	<img class = center src='/static/experiments/beast_fmri_test/images/D.png'></img>	71,89	2750.0	test	<img class = center src='/static/experiments/beast_fmri_test/images/redD.png'></img>	go	2100.0	2.0	26.0	go	target	D	71,Index Finger	89,Middle Finger	650.0	700.0	2100.0	2050.0	1.0	650.0	1.0	n/a	ITI
125090	500.0	n/a	-1	-1	500	0.0	fixation	poldrack-single-stim	61	225776	0.0-7.27-0.27	beast_fmri_test	384	n/a	n/a	<div class = centerbox2><div class = fixation>+</div></div>	none	500.0	test	n/a	n/a	n/a	n/a	n/a	n/a	n/a	n/a	n/a	n/a	n/a	n/a	n/a	n/a	n/a	n/a	n/a	n/a	fixation
125006.66213347999	2750.0	n/a	1382	71	2750	84.33786652	stim	stop-signal	62	228527	0.0-7.27-1.27	beast_fmri_test	384	225806,/,226485,/,227165,/,227845,/,228525,/	t,t,t,t,t	<img class = center src='/static/experiments/beast_fmri_test/images/D.png'></img>	71,89	2750.0	test	<img class = center src='/static/experiments/beast_fmri_test/images/redD.png'></img>	go	2100.0	2.0	27.0	go	target	D	71,Index Finger	89,Middle Finger	650.0	700.0	2100.0	2050.0	1.0	650.0	1.0	n/a	go_stim
127756.66213347999	84.33786652	n/a	1382	71	2750	84.33786652	stim	stop-signal	62	228527	0.0-7.27-1.27	beast_fmri_test	384	225806,/,226485,/,227165,/,227845,/,228525,/	t,t,t,t,t	<img class = center src='/static/experiments/beast_fmri_test/images/D.png'></img>	71,89	2750.0	test	<img class = center src='/static/experiments/beast_fmri_test/images/redD.png'></img>	go	2100.0	2.0	27.0	go	target	D	71,Index Finger	89,Middle Finger	650.0	700.0	2100.0	2050.0	1.0	650.0	1.0	n/a	ITI
128430	500.0	n/a	-1	-1	500	0.0	fixation	poldrack-single-stim	63	229116	0.0-7.28-0.28	beast_fmri_test	384	n/a	n/a	<div class = centerbox2><div class = fixation>+</div></div>	none	500.0	test	n/a	n/a	n/a	n/a	n/a	n/a	n/a	n/a	n/a	n/a	n/a	n/a	n/a	n/a	n/a	n/a	n/a	n/a	fixation
123432.0	2750.0	n/a	1506	89	2750	5000.0	stim	stop-signal	64	231868	0.0-7.28-1.28	beast_fmri_test	384	229206,/,229885,/,230565,/,231245,/,231925,/,232605,/,233285,/,233965,/,234645,/,235325,/,236005,/,236685,/	t,t,t,t,t,t,t,t,t,t,t,t	<img class = center src='/static/experiments/beast_fmri_test/images/V.png'></img>	71,89	2750.0	test	<img class = center src='/static/experiments/beast_fmri_test/images/redV.png'></img>	go	2050.0	2.0	28.0	go	non-target	V	71,Index Finger	89,Middle Finger	650.0	700.0	2100.0	2050.0	1.0	700.0	1.0	n/a	go_stim
126182.0	5000.0	n/a	1506	89	2750	5000.0	stim	stop-signal	64	231868	0.0-7.28-1.28	beast_fmri_test	384	229206,/,229885,/,230565,/,231245,/,231925,/,232605,/,233285,/,233965,/,234645,/,235325,/,236005,/,236685,/	t,t,t,t,t,t,t,t,t,t,t,t	<img class = center src='/static/experiments/beast_fmri_test/images/V.png'></img>	71,89	2750.0	test	<img class = center src='/static/experiments/beast_fmri_test/images/redV.png'></img>	go	2050.0	2.0	28.0	go	non-target	V	71,Index Finger	89,Middle Finger	650.0	700.0	2100.0	2050.0	1.0	700.0	1.0	n/a	ITI
136689	500.0	n/a	-1	-1	500	0.0	fixation	poldrack-single-stim	65	237375	0.0-7.29-0.29	beast_fmri_test	384	237365,/	t	<div class = centerbox2><div class = fixation>+</div></div>	none	500.0	test	n/a	n/a	n/a	n/a	n/a	n/a	n/a	n/a	n/a	n/a	n/a	n/a	n/a	n/a	n/a	n/a	n/a	n/a	fixation
136519.9956425	2750.0	n/a	1478	89	2750	171.0043575	stim	stop-signal	66	240127	0.0-7.29-1.29	beast_fmri_test	384	238045,/,238725,/,239406,/,240085,/	t,t,t,t	<img class = center src='/static/experiments/beast_fmri_test/images/B.png'></img>	71,89	2750.0	test	<img class = center src='/static/experiments/beast_fmri_test/images/redB.png'></img>	go	2050.0	2.0	29.0	go	non-target	B	71,Index Finger	89,Middle Finger	650.0	700.0	2100.0	2050.0	1.0	700.0	1.0	n/a	go_stim
139269.9956425	171.0043575	n/a	1478	89	2750	171.0043575	stim	stop-signal	66	240127	0.0-7.29-1.29	beast_fmri_test	384	238045,/,238725,/,239406,/,240085,/	t,t,t,t	<img class = center src='/static/experiments/beast_fmri_test/images/B.png'></img>	71,89	2750.0	test	<img class = center src='/static/experiments/beast_fmri_test/images/redB.png'></img>	go	2050.0	2.0	29.0	go	non-target	B	71,Index Finger	89,Middle Finger	650.0	700.0	2100.0	2050.0	1.0	700.0	1.0	n/a	ITI
140118	500.0	n/a	-1	-1	500	0.0	fixation	poldrack-single-stim	67	240804	0.0-7.30-0.30	beast_fmri_test	384	240765,/	t	<div class = centerbox2><div class = fixation>+</div></div>	none	500.0	test	n/a	n/a	n/a	n/a	n/a	n/a	n/a	n/a	n/a	n/a	n/a	n/a	n/a	n/a	n/a	n/a	n/a	n/a	fixation
139494.13910209999	700.0	n/a	-1	-1	2750	626.8608979	stim	stop-signal	68	243557	0.0-7.30-1.30	beast_fmri_test	384	241445,/,242125,/,242805,/,243484,/,244165,/	t,t,t,t,t	<img class = center src='/static/experiments/beast_fmri_test/images/D.png'></img>	71,89	2750.0	test	<img class = center src='/static/experiments/beast_fmri_test/images/redD.png'></img>	stop	2050.0	2.0	30.0	stop	non-target	D	71,Index Finger	89,Middle Finger	650.0	700.0	2100.0	2050.0	0.0	700.0	n/a	1.0	go_stim
141544.13910209999	2050.0	n/a	-1	-1	2750	626.8608979	stim	stop-signal	68	243557	0.0-7.30-1.30	beast_fmri_test	384	241445,/,242125,/,242805,/,243484,/,244165,/	t,t,t,t,t	<img class = center src='/static/experiments/beast_fmri_test/images/D.png'></img>	71,89	2750.0	test	<img class = center src='/static/experiments/beast_fmri_test/images/redD.png'></img>	stop	2050.0	2.0	30.0	stop	non-target	D	71,Index Finger	89,Middle Finger	650.0	700.0	2100.0	2050.0	0.0	700.0	n/a	1.0	stop_stim
142244.13910209999	626.8608979	n/a	-1	-1	2750	626.8608979	stim	stop-signal	68	243557	0.0-7.30-1.30	beast_fmri_test	384	241445,/,242125,/,242805,/,243484,/,244165,/	t,t,t,t,t	<img class = center src='/static/experiments/beast_fmri_test/images/D.png'></img>	71,89	2750.0	test	<img class = center src='/static/experiments/beast_fmri_test/images/redD.png'></img>	stop	2050.0	2.0	30.0	stop	non-target	D	71,Index Finger	89,Middle Finger	650.0	700.0	2100.0	2050.0	0.0	700.0	n/a	1.0	ITI
144003	500.0	n/a	-1	-1	500	0.0	fixation	poldrack-single-stim	69	244689	0.0-7.31-0.31	beast_fmri_test	384	n/a	n/a	<div class = centerbox2><div class = fixation>+</div></div>	none	500.0	test	n/a	n/a	n/a	n/a	n/a	n/a	n/a	n/a	n/a	n/a	n/a	n/a	n/a	n/a	n/a	n/a	n/a	n/a	fixation
143822.69314019999	750.0	n/a	-1	-1	2750	181.3068598	stim	stop-signal	70	247440	0.0-7.31-1.31	beast_fmri_test	384	244845,/,245525,/,246206,/,246885,/,247566,/	t,t,t,t,t	<img class = center src='/static/experiments/beast_fmri_test/images/D.png'></img>	71,89	2750.0	test	<img class = center src='/static/experiments/beast_fmri_test/images/redD.png'></img>	stop	2000.0	2.0	31.0	stop	non-target	D	71,Index Finger	89,Middle Finger	650.0	750.0	2100.0	2000.0	0.0	750.0	n/a	1.0	go_stim
145822.69314019999	2000.0	n/a	-1	-1	2750	181.3068598	stim	stop-signal	70	247440	0.0-7.31-1.31	beast_fmri_test	384	244845,/,245525,/,246206,/,246885,/,247566,/	t,t,t,t,t	<img class = center src='/static/experiments/beast_fmri_test/images/D.png'></img>	71,89	2750.0	test	<img class = center src='/static/experiments/beast_fmri_test/images/redD.png'></img>	stop	2000.0	2.0	31.0	stop	non-target	D	71,Index Finger	89,Middle Finger	650.0	750.0	2100.0	2000.0	0.0	750.0	n/a	1.0	stop_stim
146572.69314019999	181.3068598	n/a	-1	-1	2750	181.3068598	stim	stop-signal	70	247440	0.0-7.31-1.31	beast_fmri_test	384	244845,/,245525,/,246206,/,246885,/,247566,/	t,t,t,t,t	<img class = center src='/static/experiments/beast_fmri_test/images/D.png'></img>	71,89	2750.0	test	<img class = center src='/static/experiments/beast_fmri_test/images/redD.png'></img>	stop	2000.0	2.0	31.0	stop	non-target	D	71,Index Finger	89,Middle Finger	650.0	750.0	2100.0	2000.0	0.0	750.0	n/a	1.0	ITI
147441	500.0	n/a	-1	-1	500	0.0	fixation	poldrack-single-stim	71	248127	0.0-7.32-0.32	beast_fmri_test	384	n/a	n/a	<div class = centerbox2><div class = fixation>+</div></div>	none	500.0	test	n/a	n/a	n/a	n/a	n/a	n/a	n/a	n/a	n/a	n/a	n/a	n/a	n/a	n/a	n/a	n/a	n/a	n/a	fixation
147386.94394482	2750.0	n/a	830	89	2750	56.05605518	stim	stop-signal	72	250879	0.0-7.32-1.32	beast_fmri_test	384	248246,/,248926,/,249607,/,250286,/	t,t,t,t	<img class = center src='/static/experiments/beast_fmri_test/images/V.png'></img>	71,89	2750.0	test	<img class = center src='/static/experiments/beast_fmri_test/images/redV.png'></img>	go	1950.0	2.0	32.0	go	non-target	V	71,Index Finger	89,Middle Finger	650.0	800.0	2100.0	1950.0	1.0	800.0	1.0	n/a	go_stim
150136.94394482	56.05605518	n/a	830	89	2750	56.05605518	stim	stop-signal	72	250879	0.0-7.32-1.32	beast_fmri_test	384	248246,/,248926,/,249607,/,250286,/	t,t,t,t	<img class = center src='/static/experiments/beast_fmri_test/images/V.png'></img>	71,89	2750.0	test	<img class = center src='/static/experiments/beast_fmri_test/images/redV.png'></img>	go	1950.0	2.0	32.0	go	non-target	V	71,Index Finger	89,Middle Finger	650.0	800.0	2100.0	1950.0	1.0	800.0	1.0	n/a	ITI
150755	500.0	n/a	-1	-1	500	0.0	fixation	poldrack-single-stim	73	251441	0.0-7.33-0.33	beast_fmri_test	384	250965,/	t	<div class = centerbox2><div class = fixation>+</div></div>	none	500.0	test	n/a	n/a	n/a	n/a	n/a	n/a	n/a	n/a	n/a	n/a	n/a	n/a	n/a	n/a	n/a	n/a	n/a	n/a	fixation
150629.16138030001	2750.0	n/a	2307	89	2750	126.8386197	stim	stop-signal	74	254192	0.0-7.33-1.33	beast_fmri_test	384	251645,/,252326,/,253006,/,253686,/	t,t,t,t	<img class = center src='/static/experiments/beast_fmri_test/images/B.png'></img>	71,89	2750.0	test	<img class = center src='/static/experiments/beast_fmri_test/images/redB.png'></img>	go	1950.0	2.0	33.0	go	non-target	B	71,Index Finger	89,Middle Finger	650.0	800.0	2100.0	1950.0	1.0	800.0	1.0	n/a	go_stim
153379.16138030001	126.8386197	n/a	2307	89	2750	126.8386197	stim	stop-signal	74	254192	0.0-7.33-1.33	beast_fmri_test	384	251645,/,252326,/,253006,/,253686,/	t,t,t,t	<img class = center src='/static/experiments/beast_fmri_test/images/B.png'></img>	71,89	2750.0	test	<img class = center src='/static/experiments/beast_fmri_test/images/redB.png'></img>	go	1950.0	2.0	33.0	go	non-target	B	71,Index Finger	89,Middle Finger	650.0	800.0	2100.0	1950.0	1.0	800.0	1.0	n/a	ITI
154138	500.0	n/a	-1	-1	500	0.0	fixation	poldrack-single-stim	75	254824	0.0-7.34-0.34	beast_fmri_test	384	254366,/	t	<div class = centerbox2><div class = fixation>+</div></div>	none	500.0	test	n/a	n/a	n/a	n/a	n/a	n/a	n/a	n/a	n/a	n/a	n/a	n/a	n/a	n/a	n/a	n/a	n/a	n/a	fixation
151192.65451200001	2750.0	n/a	1237	71	2750	2947.345488	stim	stop-signal	76	257576	0.0-7.34-1.34	beast_fmri_test	384	255046,/,255725,/,256406,/,257086,/,257765,/,258445,/,259126,/,259806,/,260485,/	t,t,t,t,t,t,t,t,t	<img class = center src='/static/experiments/beast_fmri_test/images/V.png'></img>	71,89	2750.0	test	<img class = center src='/static/experiments/beast_fmri_test/images/redV.png'></img>	go	2100.0	2.0	34.0	go	target	V	71,Index Finger	89,Middle Finger	650.0	800.0	2100.0	1950.0	1.0	650.0	1.0	n/a	go_stim
153942.65451200001	2947.345488	n/a	1237	71	2750	2947.345488	stim	stop-signal	76	257576	0.0-7.34-1.34	beast_fmri_test	384	255046,/,255725,/,256406,/,257086,/,257765,/,258445,/,259126,/,259806,/,260485,/	t,t,t,t,t,t,t,t,t	<img class = center src='/static/experiments/beast_fmri_test/images/V.png'></img>	71,89	2750.0	test	<img class = center src='/static/experiments/beast_fmri_test/images/redV.png'></img>	go	2100.0	2.0	34.0	go	target	V	71,Index Finger	89,Middle Finger	650.0	800.0	2100.0	1950.0	1.0	650.0	1.0	n/a	ITI
160344	500.0	n/a	-1	-1	500	0.0	fixation	poldrack-single-stim	77	261030	0.0-7.35-0.35	beast_fmri_test	384	n/a	n/a	<div class = centerbox2><div class = fixation>+</div></div>	none	500.0	test	n/a	n/a	n/a	n/a	n/a	n/a	n/a	n/a	n/a	n/a	n/a	n/a	n/a	n/a	n/a	n/a	n/a	n/a	fixation
158887.868113	2750.0	n/a	1576	89	2750	1458.131887	stim	stop-signal	78	263782	0.0-7.35-1.35	beast_fmri_test	384	261166,/,261845,/,262525,/,263205,/,263885,/,264565,/	t,t,t,t,t,t	<img class = center src='/static/experiments/beast_fmri_test/images/B.png'></img>	71,89	2750.0	test	<img class = center src='/static/experiments/beast_fmri_test/images/redB.png'></img>	go	2100.0	2.0	35.0	go	target	B	71,Index Finger	89,Middle Finger	650.0	800.0	2100.0	1950.0	0.0	650.0	0.0	n/a	go_stim
161637.868113	1458.131887	n/a	1576	89	2750	1458.131887	stim	stop-signal	78	263782	0.0-7.35-1.35	beast_fmri_test	384	261166,/,261845,/,262525,/,263205,/,263885,/,264565,/	t,t,t,t,t,t	<img class = center src='/static/experiments/beast_fmri_test/images/B.png'></img>	71,89	2750.0	test	<img class = center src='/static/experiments/beast_fmri_test/images/redB.png'></img>	go	2100.0	2.0	35.0	go	target	B	71,Index Finger	89,Middle Finger	650.0	800.0	2100.0	1950.0	0.0	650.0	0.0	n/a	ITI
165059	500.0	n/a	-1	-1	500	0.0	fixation	poldrack-single-stim	79	265745	0.0-7.36-0.36	beast_fmri_test	384	265245,/	t	<div class = centerbox2><div class = fixation>+</div></div>	none	500.0	test	n/a	n/a	n/a	n/a	n/a	n/a	n/a	n/a	n/a	n/a	n/a	n/a	n/a	n/a	n/a	n/a	n/a	n/a	fixation
164427.42971340002	2750.0	n/a	1091	89	2750	633.5702866	stim	stop-signal	80	268497	0.0-7.36-1.36	beast_fmri_test	384	265925,/,266605,/,267285,/,267965,/,268645,/	t,t,t,t,t	<img class = center src='/static/experiments/beast_fmri_test/images/B.png'></img>	71,89	2750.0	test	<img class = center src='/static/experiments/beast_fmri_test/images/redB.png'></img>	go	1950.0	2.0	36.0	go	non-target	B	71,Index Finger	89,Middle Finger	650.0	800.0	2100.0	1950.0	1.0	800.0	1.0	n/a	go_stim
167177.42971340002	633.5702866	n/a	1091	89	2750	633.5702866	stim	stop-signal	80	268497	0.0-7.36-1.36	beast_fmri_test	384	265925,/,266605,/,267285,/,267965,/,268645,/	t,t,t,t,t	<img class = center src='/static/experiments/beast_fmri_test/images/B.png'></img>	71,89	2750.0	test	<img class = center src='/static/experiments/beast_fmri_test/images/redB.png'></img>	go	1950.0	2.0	36.0	go	non-target	B	71,Index Finger	89,Middle Finger	650.0	800.0	2100.0	1950.0	1.0	800.0	1.0	n/a	ITI
168950	500.0	n/a	-1	-1	500	0.0	fixation	poldrack-single-stim	81	269636	0.0-7.37-0.37	beast_fmri_test	384	269325,/	t	<div class = centerbox2><div class = fixation>+</div></div>	none	500.0	test	n/a	n/a	n/a	n/a	n/a	n/a	n/a	n/a	n/a	n/a	n/a	n/a	n/a	n/a	n/a	n/a	n/a	n/a	fixation
168567.34628459997	2750.0	n/a	1056	89	2750	384.6537154	stim	stop-signal	82	272388	0.0-7.37-1.37	beast_fmri_test	384	270006,/,270685,/,271365,/,272045,/,272725,/	t,t,t,t,t	<img class = center src='/static/experiments/beast_fmri_test/images/P.png'></img>	71,89	2750.0	test	<img class = center src='/static/experiments/beast_fmri_test/images/redP.png'></img>	go	1950.0	2.0	37.0	go	non-target	P	71,Index Finger	89,Middle Finger	650.0	800.0	2100.0	1950.0	1.0	800.0	1.0	n/a	go_stim
171317.34628459997	384.6537154	n/a	1056	89	2750	384.6537154	stim	stop-signal	82	272388	0.0-7.37-1.37	beast_fmri_test	384	270006,/,270685,/,271365,/,272045,/,272725,/	t,t,t,t,t	<img class = center src='/static/experiments/beast_fmri_test/images/P.png'></img>	71,89	2750.0	test	<img class = center src='/static/experiments/beast_fmri_test/images/redP.png'></img>	go	1950.0	2.0	37.0	go	non-target	P	71,Index Finger	89,Middle Finger	650.0	800.0	2100.0	1950.0	1.0	800.0	1.0	n/a	ITI
172591	500.0	n/a	-1	-1	500	0.0	fixation	poldrack-single-stim	83	273277	0.0-7.38-0.38	beast_fmri_test	384	n/a	n/a	<div class = centerbox2><div class = fixation>+</div></div>	none	500.0	test	n/a	n/a	n/a	n/a	n/a	n/a	n/a	n/a	n/a	n/a	n/a	n/a	n/a	n/a	n/a	n/a	n/a	n/a	fixation
171887.40480610001	2750.0	n/a	1425	71	2750	706.5951939	stim	stop-signal	84	276030	0.0-7.38-1.38	beast_fmri_test	384	273405,/,274085,/,274765,/,275445,/,276125,/	t,t,t,t,t	<img class = center src='/static/experiments/beast_fmri_test/images/B.png'></img>	71,89	2750.0	test	<img class = center src='/static/experiments/beast_fmri_test/images/redB.png'></img>	go	2100.0	2.0	38.0	go	target	B	71,Index Finger	89,Middle Finger	650.0	800.0	2100.0	1950.0	1.0	650.0	1.0	n/a	go_stim
174637.40480610001	706.5951939	n/a	1425	71	2750	706.5951939	stim	stop-signal	84	276030	0.0-7.38-1.38	beast_fmri_test	384	273405,/,274085,/,274765,/,275445,/,276125,/	t,t,t,t,t	<img class = center src='/static/experiments/beast_fmri_test/images/B.png'></img>	71,89	2750.0	test	<img class = center src='/static/experiments/beast_fmri_test/images/redB.png'></img>	go	2100.0	2.0	38.0	go	target	B	71,Index Finger	89,Middle Finger	650.0	800.0	2100.0	1950.0	1.0	650.0	1.0	n/a	ITI
176555	500.0	n/a	-1	-1	500	0.0	fixation	poldrack-single-stim	85	277241	0.0-7.39-0.39	beast_fmri_test	384	276805,/	t	<div class = centerbox2><div class = fixation>+</div></div>	none	500.0	test	n/a	n/a	n/a	n/a	n/a	n/a	n/a	n/a	n/a	n/a	n/a	n/a	n/a	n/a	n/a	n/a	n/a	n/a	fixation
176398.75032210001	650.0	n/a	-1	-1	2750	158.2496779	stim	stop-signal	86	279993	0.0-7.39-1.39	beast_fmri_test	384	277485,/,278165,/,278845,/,279526,/	t,t,t,t	<img class = center src='/static/experiments/beast_fmri_test/images/P.png'></img>	71,89	2750.0	test	<img class = center src='/static/experiments/beast_fmri_test/images/redP.png'></img>	stop	2100.0	2.0	39.0	stop	target	P	71,Index Finger	89,Middle Finger	650.0	800.0	2100.0	1950.0	0.0	650.0	n/a	1.0	go_stim
178498.75032210001	2100.0	n/a	-1	-1	2750	158.2496779	stim	stop-signal	86	279993	0.0-7.39-1.39	beast_fmri_test	384	277485,/,278165,/,278845,/,279526,/	t,t,t,t	<img class = center src='/static/experiments/beast_fmri_test/images/P.png'></img>	71,89	2750.0	test	<img class = center src='/static/experiments/beast_fmri_test/images/redP.png'></img>	stop	2100.0	2.0	39.0	stop	target	P	71,Index Finger	89,Middle Finger	650.0	800.0	2100.0	1950.0	0.0	650.0	n/a	1.0	stop_stim
179148.75032210001	158.2496779	n/a	-1	-1	2750	158.2496779	stim	stop-signal	86	279993	0.0-7.39-1.39	beast_fmri_test	384	277485,/,278165,/,278845,/,279526,/	t,t,t,t	<img class = center src='/static/experiments/beast_fmri_test/images/P.png'></img>	71,89	2750.0	test	<img class = center src='/static/experiments/beast_fmri_test/images/redP.png'></img>	stop	2100.0	2.0	39.0	stop	target	P	71,Index Finger	89,Middle Finger	650.0	800.0	2100.0	1950.0	0.0	650.0	n/a	1.0	ITI
179971	500.0	n/a	-1	-1	500	0.0	fixation	poldrack-single-stim	87	280657	0.0-7.40-0.40	beast_fmri_test	384	280207,/	t	<div class = centerbox2><div class = fixation>+</div></div>	none	500.0	test	n/a	n/a	n/a	n/a	n/a	n/a	n/a	n/a	n/a	n/a	n/a	n/a	n/a	n/a	n/a	n/a	n/a	n/a	fixation
179343.81616320001	2750.0	n/a	812	89	2750	629.1838368	stim	stop-signal	88	283409	0.0-7.40-1.40	beast_fmri_test	384	280886,/,281565,/,282245,/,282926,/,283605,/	t,t,t,t,t	<img class = center src='/static/experiments/beast_fmri_test/images/V.png'></img>	71,89	2750.0	test	<img class = center src='/static/experiments/beast_fmri_test/images/redV.png'></img>	go	1950.0	2.0	40.0	go	non-target	V	71,Index Finger	89,Middle Finger	700.0	800.0	2100.0	1950.0	1.0	800.0	1.0	n/a	go_stim
182093.81616320001	629.1838368	n/a	812	89	2750	629.1838368	stim	stop-signal	88	283409	0.0-7.40-1.40	beast_fmri_test	384	280886,/,281565,/,282245,/,282926,/,283605,/	t,t,t,t,t	<img class = center src='/static/experiments/beast_fmri_test/images/V.png'></img>	71,89	2750.0	test	<img class = center src='/static/experiments/beast_fmri_test/images/redV.png'></img>	go	1950.0	2.0	40.0	go	non-target	V	71,Index Finger	89,Middle Finger	700.0	800.0	2100.0	1950.0	1.0	800.0	1.0	n/a	ITI
183859	500.0	n/a	-1	-1	500	0.0	fixation	poldrack-single-stim	89	284545	0.0-7.41-0.41	beast_fmri_test	384	284286,/	t	<div class = centerbox2><div class = fixation>+</div></div>	none	500.0	test	n/a	n/a	n/a	n/a	n/a	n/a	n/a	n/a	n/a	n/a	n/a	n/a	n/a	n/a	n/a	n/a	n/a	n/a	fixation
183704.21287769999	2750.0	n/a	1389	89	2750	156.7871223	stim	stop-signal	90	287297	0.0-7.41-1.41	beast_fmri_test	384	284966,/,285646,/,286325,/,287005,/	t,t,t,t	<img class = center src='/static/experiments/beast_fmri_test/images/V.png'></img>	71,89	2750.0	test	<img class = center src='/static/experiments/beast_fmri_test/images/redV.png'></img>	go	1950.0	2.0	41.0	go	non-target	V	71,Index Finger	89,Middle Finger	700.0	800.0	2100.0	1950.0	1.0	800.0	1.0	n/a	go_stim
186454.21287769999	156.7871223	n/a	1389	89	2750	156.7871223	stim	stop-signal	90	287297	0.0-7.41-1.41	beast_fmri_test	384	284966,/,285646,/,286325,/,287005,/	t,t,t,t	<img class = center src='/static/experiments/beast_fmri_test/images/V.png'></img>	71,89	2750.0	test	<img class = center src='/static/experiments/beast_fmri_test/images/redV.png'></img>	go	1950.0	2.0	41.0	go	non-target	V	71,Index Finger	89,Middle Finger	700.0	800.0	2100.0	1950.0	1.0	800.0	1.0	n/a	ITI
187272	500.0	n/a	-1	-1	500	0.0	fixation	poldrack-single-stim	91	287958	0.0-7.42-0.42	beast_fmri_test	384	287686,/	t	<div class = centerbox2><div class = fixation>+</div></div>	none	500.0	test	n/a	n/a	n/a	n/a	n/a	n/a	n/a	n/a	n/a	n/a	n/a	n/a	n/a	n/a	n/a	n/a	n/a	n/a	fixation
186998.96649959998	2750.0	n/a	829	89	2750	275.0335004	stim	stop-signal	92	290710	0.0-7.42-1.42	beast_fmri_test	384	288366,/,289045,/,289726,/,290407,/	t,t,t,t	<img class = center src='/static/experiments/beast_fmri_test/images/D.png'></img>	71,89	2750.0	test	<img class = center src='/static/experiments/beast_fmri_test/images/redD.png'></img>	go	1950.0	2.0	42.0	go	non-target	D	71,Index Finger	89,Middle Finger	700.0	800.0	2100.0	1950.0	1.0	800.0	1.0	n/a	go_stim
189748.96649959998	275.0335004	n/a	829	89	2750	275.0335004	stim	stop-signal	92	290710	0.0-7.42-1.42	beast_fmri_test	384	288366,/,289045,/,289726,/,290407,/	t,t,t,t	<img class = center src='/static/experiments/beast_fmri_test/images/D.png'></img>	71,89	2750.0	test	<img class = center src='/static/experiments/beast_fmri_test/images/redD.png'></img>	go	1950.0	2.0	42.0	go	non-target	D	71,Index Finger	89,Middle Finger	700.0	800.0	2100.0	1950.0	1.0	800.0	1.0	n/a	ITI
190805	500.0	n/a	-1	-1	500	0.0	fixation	poldrack-single-stim	93	291491	0.0-7.43-0.43	beast_fmri_test	384	291086,/	t	<div class = centerbox2><div class = fixation>+</div></div>	none	500.0	test	n/a	n/a	n/a	n/a	n/a	n/a	n/a	n/a	n/a	n/a	n/a	n/a	n/a	n/a	n/a	n/a	n/a	n/a	fixation
190258.93373809999	800.0	n/a	855	89	2750	548.0662619	stim	stop-signal	94	294243	0.0-7.43-1.43	beast_fmri_test	384	291766,/,292445,/,293126,/,293806,/,294485,/	t,t,t,t,t	<img class = center src='/static/experiments/beast_fmri_test/images/T.png'></img>	71,89	2750.0	test	<img class = center src='/static/experiments/beast_fmri_test/images/redT.png'></img>	stop	1950.0	2.0	43.0	stop	non-target	T	71,Index Finger	89,Middle Finger	700.0	800.0	2100.0	1950.0	0.0	800.0	n/a	0.0	go_stim
192208.93373809999	1950.0	n/a	855	89	2750	548.0662619	stim	stop-signal	94	294243	0.0-7.43-1.43	beast_fmri_test	384	291766,/,292445,/,293126,/,293806,/,294485,/	t,t,t,t,t	<img class = center src='/static/experiments/beast_fmri_test/images/T.png'></img>	71,89	2750.0	test	<img class = center src='/static/experiments/beast_fmri_test/images/redT.png'></img>	stop	1950.0	2.0	43.0	stop	non-target	T	71,Index Finger	89,Middle Finger	700.0	800.0	2100.0	1950.0	0.0	800.0	n/a	0.0	stop_stim
193008.93373809999	548.0662619	n/a	855	89	2750	548.0662619	stim	stop-signal	94	294243	0.0-7.43-1.43	beast_fmri_test	384	291766,/,292445,/,293126,/,293806,/,294485,/	t,t,t,t,t	<img class = center src='/static/experiments/beast_fmri_test/images/T.png'></img>	71,89	2750.0	test	<img class = center src='/static/experiments/beast_fmri_test/images/redT.png'></img>	stop	1950.0	2.0	43.0	stop	non-target	T	71,Index Finger	89,Middle Finger	700.0	800.0	2100.0	1950.0	0.0	800.0	n/a	0.0	ITI
194610	500.0	n/a	-1	-1	500	0.0	fixation	poldrack-single-stim	95	295296	0.0-7.44-0.44	beast_fmri_test	384	295166,/	t	<div class = centerbox2><div class = fixation>+</div></div>	none	500.0	test	n/a	n/a	n/a	n/a	n/a	n/a	n/a	n/a	n/a	n/a	n/a	n/a	n/a	n/a	n/a	n/a	n/a	n/a	fixation
194342.3924056	700.0	n/a	-1	-1	2750	269.6075944	stim	stop-signal	96	298048	0.0-7.44-1.44	beast_fmri_test	384	295845,/,296525,/,297206,/,297886,/	t,t,t,t	<img class = center src='/static/experiments/beast_fmri_test/images/D.png'></img>	71,89	2750.0	test	<img class = center src='/static/experiments/beast_fmri_test/images/redD.png'></img>	stop	2050.0	2.0	44.0	stop	target	D	71,Index Finger	89,Middle Finger	700.0	750.0	2050.0	1950.0	0.0	700.0	n/a	1.0	go_stim
196392.3924056	2050.0	n/a	-1	-1	2750	269.6075944	stim	stop-signal	96	298048	0.0-7.44-1.44	beast_fmri_test	384	295845,/,296525,/,297206,/,297886,/	t,t,t,t	<img class = center src='/static/experiments/beast_fmri_test/images/D.png'></img>	71,89	2750.0	test	<img class = center src='/static/experiments/beast_fmri_test/images/redD.png'></img>	stop	2050.0	2.0	44.0	stop	target	D	71,Index Finger	89,Middle Finger	700.0	750.0	2050.0	1950.0	0.0	700.0	n/a	1.0	stop_stim
197092.3924056	269.6075944	n/a	-1	-1	2750	269.6075944	stim	stop-signal	96	298048	0.0-7.44-1.44	beast_fmri_test	384	295845,/,296525,/,297206,/,297886,/	t,t,t,t	<img class = center src='/static/experiments/beast_fmri_test/images/D.png'></img>	71,89	2750.0	test	<img class = center src='/static/experiments/beast_fmri_test/images/redD.png'></img>	stop	2050.0	2.0	44.0	stop	target	D	71,Index Finger	89,Middle Finger	700.0	750.0	2050.0	1950.0	0.0	700.0	n/a	1.0	ITI
198137	500.0	n/a	-1	-1	500	0.0	fixation	poldrack-single-stim	97	298823	0.0-7.45-0.45	beast_fmri_test	384	298565,/	t	<div class = centerbox2><div class = fixation>+</div></div>	none	500.0	test	n/a	n/a	n/a	n/a	n/a	n/a	n/a	n/a	n/a	n/a	n/a	n/a	n/a	n/a	n/a	n/a	n/a	n/a	fixation
197578.60646089999	750.0	n/a	-1	-1	2750	560.3935391	stim	stop-signal	98	301575	0.0-7.45-1.45	beast_fmri_test	384	299245,/,299925,/,300606,/,301285,/,301965,/	t,t,t,t,t	<img class = center src='/static/experiments/beast_fmri_test/images/D.png'></img>	71,89	2750.0	test	<img class = center src='/static/experiments/beast_fmri_test/images/redD.png'></img>	stop	2000.0	2.0	45.0	stop	non-target	D	71,Index Finger	89,Middle Finger	750.0	750.0	2050.0	2000.0	0.0	750.0	n/a	1.0	go_stim
199578.60646089999	2000.0	n/a	-1	-1	2750	560.3935391	stim	stop-signal	98	301575	0.0-7.45-1.45	beast_fmri_test	384	299245,/,299925,/,300606,/,301285,/,301965,/	t,t,t,t,t	<img class = center src='/static/experiments/beast_fmri_test/images/D.png'></img>	71,89	2750.0	test	<img class = center src='/static/experiments/beast_fmri_test/images/redD.png'></img>	stop	2000.0	2.0	45.0	stop	non-target	D	71,Index Finger	89,Middle Finger	750.0	750.0	2050.0	2000.0	0.0	750.0	n/a	1.0	stop_stim
200328.60646089999	560.3935391	n/a	-1	-1	2750	560.3935391	stim	stop-signal	98	301575	0.0-7.45-1.45	beast_fmri_test	384	299245,/,299925,/,300606,/,301285,/,301965,/	t,t,t,t,t	<img class = center src='/static/experiments/beast_fmri_test/images/D.png'></img>	71,89	2750.0	test	<img class = center src='/static/experiments/beast_fmri_test/images/redD.png'></img>	stop	2000.0	2.0	45.0	stop	non-target	D	71,Index Finger	89,Middle Finger	750.0	750.0	2050.0	2000.0	0.0	750.0	n/a	1.0	ITI
201957	500.0	n/a	-1	-1	500	0.0	fixation	poldrack-single-stim	99	302643	0.0-7.46-0.46	beast_fmri_test	384	n/a	n/a	<div class = centerbox2><div class = fixation>+</div></div>	none	500.0	test	n/a	n/a	n/a	n/a	n/a	n/a	n/a	n/a	n/a	n/a	n/a	n/a	n/a	n/a	n/a	n/a	n/a	n/a	fixation
201130.48369319999	2750.0	n/a	1107	89	2750	828.5163068	stim	stop-signal	100	305395	0.0-7.46-1.46	beast_fmri_test	384	302645,/,303325,/,304005,/,304685,/,305365,/,306045,/	t,t,t,t,t,t	<img class = center src='/static/experiments/beast_fmri_test/images/P.png'></img>	71,89	2750.0	test	<img class = center src='/static/experiments/beast_fmri_test/images/redP.png'></img>	go	1950.0	2.0	46.0	go	non-target	P	71,Index Finger	89,Middle Finger	750.0	800.0	2050.0	1950.0	1.0	800.0	1.0	n/a	go_stim
203880.48369319999	828.5163068	n/a	1107	89	2750	828.5163068	stim	stop-signal	100	305395	0.0-7.46-1.46	beast_fmri_test	384	302645,/,303325,/,304005,/,304685,/,305365,/,306045,/	t,t,t,t,t,t	<img class = center src='/static/experiments/beast_fmri_test/images/P.png'></img>	71,89	2750.0	test	<img class = center src='/static/experiments/beast_fmri_test/images/redP.png'></img>	go	1950.0	2.0	46.0	go	non-target	P	71,Index Finger	89,Middle Finger	750.0	800.0	2050.0	1950.0	1.0	800.0	1.0	n/a	ITI
220544	15000.0	n/a	-1	-1	15000	0.0	practice-no-stop-feedback	poldrack-single-stim	101	321230	0.0-8.0	beast_fmri_test	384	306725,/,307405,/,308085,/,308765,/,309445,/,310125,/,310806,/,311486,/,312166,/,312846,/,313526,/,314206,/,314886,/,315566,/,316245,/,316926,/,317606,/,318286,/,318965,/,319646,/,320325,/,321006,/	t,t,t,t,t,t,t,t,t,t,t,t,t,t,t,t,t,t,t,t,t,t	"<div class = ""centerbox2_2""><p class = ""block-text2"">Your delay is 2 trials.</p><p class = block-text2>Please wait for the scanner to start the block</p></div>"	77	15000.0	n/a	n/a	n/a	n/a	n/a	n/a	n/a	n/a	n/a	n/a	n/a	n/a	n/a	n/a	n/a	n/a	n/a	n/a	n/a	practice-no-stop-feedback
221045	500.0	n/a	-1	-1	500	0.0	fixation	poldrack-single-stim	102	321731	0.0-9.0-0.0	beast_fmri_test	384	321686,/	t	<div class = centerbox2><div class = fixation>+</div></div>	none	500.0	test	n/a	n/a	n/a	n/a	n/a	n/a	n/a	n/a	n/a	n/a	n/a	n/a	n/a	n/a	n/a	n/a	n/a	n/a	fixation
220751.8394392	2750.0	n/a	1210	89	2750	295.1605608	stim	stop-signal	103	324483	0.0-9.0-1.0	beast_fmri_test	384	322366,/,323045,/,323726,/,324406,/	t,t,t,t	<img class = center src='/static/experiments/beast_fmri_test/images/T.png'></img>	71,89	2750.0	test	<img class = center src='/static/experiments/beast_fmri_test/images/redT.png'></img>	go	-1.0	2.0	0.0	go	temp-non-target	T	71,Index Finger	89,Middle Finger	750.0	800.0	2050.0	1950.0	0.0	n/a	n/a	n/a	go_stim
223501.8394392	295.1605608	n/a	1210	89	2750	295.1605608	stim	stop-signal	103	324483	0.0-9.0-1.0	beast_fmri_test	384	322366,/,323045,/,323726,/,324406,/	t,t,t,t	<img class = center src='/static/experiments/beast_fmri_test/images/T.png'></img>	71,89	2750.0	test	<img class = center src='/static/experiments/beast_fmri_test/images/redT.png'></img>	go	-1.0	2.0	0.0	go	temp-non-target	T	71,Index Finger	89,Middle Finger	750.0	800.0	2050.0	1950.0	0.0	n/a	n/a	n/a	ITI
224599	500.0	n/a	-1	-1	500	0.0	fixation	poldrack-single-stim	104	325285	0.0-9.1-0.1	beast_fmri_test	384	325086,/	t	<div class = centerbox2><div class = fixation>+</div></div>	none	500.0	test	n/a	n/a	n/a	n/a	n/a	n/a	n/a	n/a	n/a	n/a	n/a	n/a	n/a	n/a	n/a	n/a	n/a	n/a	fixation
222776.10018299997	2750.0	n/a	920	89	2750	1824.899817	stim	stop-signal	105	328037	0.0-9.1-1.1	beast_fmri_test	384	325766,/,326445,/,327126,/,327806,/,328485,/,329165,/,329845,/	t,t,t,t,t,t,t	<img class = center src='/static/experiments/beast_fmri_test/images/V.png'></img>	71,89	2750.0	test	<img class = center src='/static/experiments/beast_fmri_test/images/redV.png'></img>	go	-1.0	2.0	1.0	go	temp-non-target	V	71,Index Finger	89,Middle Finger	750.0	800.0	2050.0	1950.0	0.0	n/a	n/a	n/a	go_stim
225526.10018299997	1824.899817	n/a	920	89	2750	1824.899817	stim	stop-signal	105	328037	0.0-9.1-1.1	beast_fmri_test	384	325766,/,326445,/,327126,/,327806,/,328485,/,329165,/,329845,/	t,t,t,t,t,t,t	<img class = center src='/static/experiments/beast_fmri_test/images/V.png'></img>	71,89	2750.0	test	<img class = center src='/static/experiments/beast_fmri_test/images/redV.png'></img>	go	-1.0	2.0	1.0	go	temp-non-target	V	71,Index Finger	89,Middle Finger	750.0	800.0	2050.0	1950.0	0.0	n/a	n/a	n/a	ITI
229681	500.0	n/a	-1	-1	500	0.0	fixation	poldrack-single-stim	106	330367	0.0-9.2-0.2	beast_fmri_test	384	n/a	n/a	<div class = centerbox2><div class = fixation>+</div></div>	none	500.0	test	n/a	n/a	n/a	n/a	n/a	n/a	n/a	n/a	n/a	n/a	n/a	n/a	n/a	n/a	n/a	n/a	n/a	n/a	fixation
229431.38831559999	800.0	n/a	-1	-1	2750	251.6116844	stim	stop-signal	107	333119	0.0-9.2-1.2	beast_fmri_test	384	330525,/,331206,/,331885,/,332566,/,333245,/	t,t,t,t,t	<img class = center src='/static/experiments/beast_fmri_test/images/B.png'></img>	71,89	2750.0	test	<img class = center src='/static/experiments/beast_fmri_test/images/redB.png'></img>	stop	1950.0	2.0	2.0	stop	non-target	B	71,Index Finger	89,Middle Finger	750.0	800.0	2050.0	1950.0	0.0	800.0	n/a	1.0	go_stim
231381.38831559999	1950.0	n/a	-1	-1	2750	251.6116844	stim	stop-signal	107	333119	0.0-9.2-1.2	beast_fmri_test	384	330525,/,331206,/,331885,/,332566,/,333245,/	t,t,t,t,t	<img class = center src='/static/experiments/beast_fmri_test/images/B.png'></img>	71,89	2750.0	test	<img class = center src='/static/experiments/beast_fmri_test/images/redB.png'></img>	stop	1950.0	2.0	2.0	stop	non-target	B	71,Index Finger	89,Middle Finger	750.0	800.0	2050.0	1950.0	0.0	800.0	n/a	1.0	stop_stim
232181.38831559999	251.6116844	n/a	-1	-1	2750	251.6116844	stim	stop-signal	107	333119	0.0-9.2-1.2	beast_fmri_test	384	330525,/,331206,/,331885,/,332566,/,333245,/	t,t,t,t,t	<img class = center src='/static/experiments/beast_fmri_test/images/B.png'></img>	71,89	2750.0	test	<img class = center src='/static/experiments/beast_fmri_test/images/redB.png'></img>	stop	1950.0	2.0	2.0	stop	non-target	B	71,Index Finger	89,Middle Finger	750.0	800.0	2050.0	1950.0	0.0	800.0	n/a	1.0	ITI
233191	500.0	n/a	-1	-1	500	0.0	fixation	poldrack-single-stim	108	333877	0.0-9.3-0.3	beast_fmri_test	384	n/a	n/a	<div class = centerbox2><div class = fixation>+</div></div>	none	500.0	test	n/a	n/a	n/a	n/a	n/a	n/a	n/a	n/a	n/a	n/a	n/a	n/a	n/a	n/a	n/a	n/a	n/a	n/a	fixation
232472.72130219999	2750.0	n/a	1708	89	2750	720.2786978	stim	stop-signal	109	336629	0.0-9.3-1.3	beast_fmri_test	384	333925,/,334605,/,335286,/,335965,/,336645,/,337325,/	t,t,t,t,t,t	<img class = center src='/static/experiments/beast_fmri_test/images/T.png'></img>	71,89	2750.0	test	<img class = center src='/static/experiments/beast_fmri_test/images/redT.png'></img>	go	1900.0	2.0	3.0	go	non-target	T	71,Index Finger	89,Middle Finger	750.0	850.0	2050.0	1900.0	1.0	850.0	1.0	n/a	go_stim
235222.72130219999	720.2786978	n/a	1708	89	2750	720.2786978	stim	stop-signal	109	336629	0.0-9.3-1.3	beast_fmri_test	384	333925,/,334605,/,335286,/,335965,/,336645,/,337325,/	t,t,t,t,t,t	<img class = center src='/static/experiments/beast_fmri_test/images/T.png'></img>	71,89	2750.0	test	<img class = center src='/static/experiments/beast_fmri_test/images/redT.png'></img>	go	1900.0	2.0	3.0	go	non-target	T	71,Index Finger	89,Middle Finger	750.0	850.0	2050.0	1900.0	1.0	850.0	1.0	n/a	ITI
237169	500.0	n/a	-1	-1	500	0.0	fixation	poldrack-single-stim	110	337855	0.0-9.4-0.4	beast_fmri_test	384	n/a	n/a	<div class = centerbox2><div class = fixation>+</div></div>	none	500.0	test	n/a	n/a	n/a	n/a	n/a	n/a	n/a	n/a	n/a	n/a	n/a	n/a	n/a	n/a	n/a	n/a	n/a	n/a	fixation
236805.31036439998	2750.0	n/a	973	89	2750	365.6896356	stim	stop-signal	111	340607	0.0-9.4-1.4	beast_fmri_test	384	338005,/,338685,/,339365,/,340045,/,340725,/	t,t,t,t,t	<img class = center src='/static/experiments/beast_fmri_test/images/V.png'></img>	71,89	2750.0	test	<img class = center src='/static/experiments/beast_fmri_test/images/redV.png'></img>	go	1900.0	2.0	4.0	go	non-target	V	71,Index Finger	89,Middle Finger	750.0	850.0	2050.0	1900.0	1.0	850.0	1.0	n/a	go_stim
239555.31036439998	365.6896356	n/a	973	89	2750	365.6896356	stim	stop-signal	111	340607	0.0-9.4-1.4	beast_fmri_test	384	338005,/,338685,/,339365,/,340045,/,340725,/	t,t,t,t,t	<img class = center src='/static/experiments/beast_fmri_test/images/V.png'></img>	71,89	2750.0	test	<img class = center src='/static/experiments/beast_fmri_test/images/redV.png'></img>	go	1900.0	2.0	4.0	go	non-target	V	71,Index Finger	89,Middle Finger	750.0	850.0	2050.0	1900.0	1.0	850.0	1.0	n/a	ITI
240794	500.0	n/a	-1	-1	500	0.0	fixation	poldrack-single-stim	112	341480	0.0-9.5-0.5	beast_fmri_test	384	341405,/	t	<div class = centerbox2><div class = fixation>+</div></div>	none	500.0	test	n/a	n/a	n/a	n/a	n/a	n/a	n/a	n/a	n/a	n/a	n/a	n/a	n/a	n/a	n/a	n/a	n/a	n/a	fixation
240636.10876460001	2750.0	n/a	1166	71	2750	158.8912354	stim	stop-signal	113	344231	0.0-9.5-1.5	beast_fmri_test	384	342085,/,342765,/,343445,/,344125,/	t,t,t,t	<img class = center src='/static/experiments/beast_fmri_test/images/T.png'></img>	71,89	2750.0	test	<img class = center src='/static/experiments/beast_fmri_test/images/redT.png'></img>	go	2000.0	2.0	5.0	go	target	T	71,Index Finger	89,Middle Finger	750.0	850.0	2000.0	1900.0	1.0	750.0	1.0	n/a	go_stim
243386.10876460001	158.8912354	n/a	1166	71	2750	158.8912354	stim	stop-signal	113	344231	0.0-9.5-1.5	beast_fmri_test	384	342085,/,342765,/,343445,/,344125,/	t,t,t,t	<img class = center src='/static/experiments/beast_fmri_test/images/T.png'></img>	71,89	2750.0	test	<img class = center src='/static/experiments/beast_fmri_test/images/redT.png'></img>	go	2000.0	2.0	5.0	go	target	T	71,Index Finger	89,Middle Finger	750.0	850.0	2000.0	1900.0	1.0	750.0	1.0	n/a	ITI
244212	500.0	n/a	-1	-1	500	0.0	fixation	poldrack-single-stim	114	344898	0.0-9.6-0.6	beast_fmri_test	384	344805,/	t	<div class = centerbox2><div class = fixation>+</div></div>	none	500.0	test	n/a	n/a	n/a	n/a	n/a	n/a	n/a	n/a	n/a	n/a	n/a	n/a	n/a	n/a	n/a	n/a	n/a	n/a	fixation
243458.28906769998	750.0	n/a	-1	-1	2750	754.7109323	stim	stop-signal	115	347649	0.0-9.6-1.6	beast_fmri_test	384	345486,/,346166,/,346846,/,347526,/,348206,/	t,t,t,t,t	<img class = center src='/static/experiments/beast_fmri_test/images/V.png'></img>	71,89	2750.0	test	<img class = center src='/static/experiments/beast_fmri_test/images/redV.png'></img>	stop	2000.0	2.0	6.0	stop	target	V	71,Index Finger	89,Middle Finger	750.0	850.0	2000.0	1900.0	0.0	750.0	n/a	1.0	go_stim
245458.28906769998	2000.0	n/a	-1	-1	2750	754.7109323	stim	stop-signal	115	347649	0.0-9.6-1.6	beast_fmri_test	384	345486,/,346166,/,346846,/,347526,/,348206,/	t,t,t,t,t	<img class = center src='/static/experiments/beast_fmri_test/images/V.png'></img>	71,89	2750.0	test	<img class = center src='/static/experiments/beast_fmri_test/images/redV.png'></img>	stop	2000.0	2.0	6.0	stop	target	V	71,Index Finger	89,Middle Finger	750.0	850.0	2000.0	1900.0	0.0	750.0	n/a	1.0	stop_stim
246208.28906769998	754.7109323	n/a	-1	-1	2750	754.7109323	stim	stop-signal	115	347649	0.0-9.6-1.6	beast_fmri_test	384	345486,/,346166,/,346846,/,347526,/,348206,/	t,t,t,t,t	<img class = center src='/static/experiments/beast_fmri_test/images/V.png'></img>	71,89	2750.0	test	<img class = center src='/static/experiments/beast_fmri_test/images/redV.png'></img>	stop	2000.0	2.0	6.0	stop	target	V	71,Index Finger	89,Middle Finger	750.0	850.0	2000.0	1900.0	0.0	750.0	n/a	1.0	ITI
248223	500.0	n/a	-1	-1	500	0.0	fixation	poldrack-single-stim	116	348909	0.0-9.7-0.7	beast_fmri_test	384	348886,/	t	<div class = centerbox2><div class = fixation>+</div></div>	none	500.0	test	n/a	n/a	n/a	n/a	n/a	n/a	n/a	n/a	n/a	n/a	n/a	n/a	n/a	n/a	n/a	n/a	n/a	n/a	fixation
248207.07350902999	2750.0	n/a	780	89	2750	17.92649097	stim	stop-signal	117	351661	0.0-9.7-1.7	beast_fmri_test	384	349566,/,350246,/,350926,/,351606,/	t,t,t,t	<img class = center src='/static/experiments/beast_fmri_test/images/D.png'></img>	71,89	2750.0	test	<img class = center src='/static/experiments/beast_fmri_test/images/redD.png'></img>	go	1900.0	2.0	7.0	go	non-target	D	71,Index Finger	89,Middle Finger	800.0	850.0	2000.0	1900.0	1.0	850.0	1.0	n/a	go_stim
250957.07350902999	17.92649097	n/a	780	89	2750	17.92649097	stim	stop-signal	117	351661	0.0-9.7-1.7	beast_fmri_test	384	349566,/,350246,/,350926,/,351606,/	t,t,t,t	<img class = center src='/static/experiments/beast_fmri_test/images/D.png'></img>	71,89	2750.0	test	<img class = center src='/static/experiments/beast_fmri_test/images/redD.png'></img>	go	1900.0	2.0	7.0	go	non-target	D	71,Index Finger	89,Middle Finger	800.0	850.0	2000.0	1900.0	1.0	850.0	1.0	n/a	ITI
251500	500.0	n/a	-1	-1	500	0.0	fixation	poldrack-single-stim	118	352186	0.0-9.8-0.8	beast_fmri_test	384	n/a	n/a	<div class = centerbox2><div class = fixation>+</div></div>	none	500.0	test	n/a	n/a	n/a	n/a	n/a	n/a	n/a	n/a	n/a	n/a	n/a	n/a	n/a	n/a	n/a	n/a	n/a	n/a	fixation
250933.74033850001	800.0	n/a	-1	-1	2750	568.2596615	stim	stop-signal	119	354938	0.0-9.8-1.8	beast_fmri_test	384	352286,/,352966,/,353646,/,354325,/,355005,/	t,t,t,t,t	<img class = center src='/static/experiments/beast_fmri_test/images/V.png'></img>	71,89	2750.0	test	<img class = center src='/static/experiments/beast_fmri_test/images/redV.png'></img>	stop	1950.0	2.0	8.0	stop	target	V	71,Index Finger	89,Middle Finger	800.0	850.0	1950.0	1900.0	0.0	800.0	n/a	1.0	go_stim
252883.74033850001	1950.0	n/a	-1	-1	2750	568.2596615	stim	stop-signal	119	354938	0.0-9.8-1.8	beast_fmri_test	384	352286,/,352966,/,353646,/,354325,/,355005,/	t,t,t,t,t	<img class = center src='/static/experiments/beast_fmri_test/images/V.png'></img>	71,89	2750.0	test	<img class = center src='/static/experiments/beast_fmri_test/images/redV.png'></img>	stop	1950.0	2.0	8.0	stop	target	V	71,Index Finger	89,Middle Finger	800.0	850.0	1950.0	1900.0	0.0	800.0	n/a	1.0	stop_stim
253683.74033850001	568.2596615	n/a	-1	-1	2750	568.2596615	stim	stop-signal	119	354938	0.0-9.8-1.8	beast_fmri_test	384	352286,/,352966,/,353646,/,354325,/,355005,/	t,t,t,t,t	<img class = center src='/static/experiments/beast_fmri_test/images/V.png'></img>	71,89	2750.0	test	<img class = center src='/static/experiments/beast_fmri_test/images/redV.png'></img>	stop	1950.0	2.0	8.0	stop	target	V	71,Index Finger	89,Middle Finger	800.0	850.0	1950.0	1900.0	0.0	800.0	n/a	1.0	ITI
255326	500.0	n/a	-1	-1	500	0.0	fixation	poldrack-single-stim	120	356012	0.0-9.9-0.9	beast_fmri_test	384	355686,/	t	<div class = centerbox2><div class = fixation>+</div></div>	none	500.0	test	n/a	n/a	n/a	n/a	n/a	n/a	n/a	n/a	n/a	n/a	n/a	n/a	n/a	n/a	n/a	n/a	n/a	n/a	fixation
255048.98243929999	2750.0	n/a	1163	89	2750	279.0175607	stim	stop-signal	121	358764	0.0-9.9-1.9	beast_fmri_test	384	356366,/,357046,/,357725,/,358406,/	t,t,t,t	<img class = center src='/static/experiments/beast_fmri_test/images/D.png'></img>	71,89	2750.0	test	<img class = center src='/static/experiments/beast_fmri_test/images/redD.png'></img>	go	1900.0	2.0	9.0	go	target	D	71,Index Finger	89,Middle Finger	850.0	850.0	1900.0	1900.0	0.0	850.0	0.0	n/a	go_stim
257798.98243929999	279.0175607	n/a	1163	89	2750	279.0175607	stim	stop-signal	121	358764	0.0-9.9-1.9	beast_fmri_test	384	356366,/,357046,/,357725,/,358406,/	t,t,t,t	<img class = center src='/static/experiments/beast_fmri_test/images/D.png'></img>	71,89	2750.0	test	<img class = center src='/static/experiments/beast_fmri_test/images/redD.png'></img>	go	1900.0	2.0	9.0	go	target	D	71,Index Finger	89,Middle Finger	850.0	850.0	1900.0	1900.0	0.0	850.0	0.0	n/a	ITI
258864	500.0	n/a	-1	-1	500	0.0	fixation	poldrack-single-stim	122	359550	0.0-9.10-0.10	beast_fmri_test	384	359086,/	t	<div class = centerbox2><div class = fixation>+</div></div>	none	500.0	test	n/a	n/a	n/a	n/a	n/a	n/a	n/a	n/a	n/a	n/a	n/a	n/a	n/a	n/a	n/a	n/a	n/a	n/a	fixation
258833.50014387001	2750.0	n/a	1290	71	2750	32.49985613	stim	stop-signal	123	362302	0.0-9.10-1.10	beast_fmri_test	384	359766,/,360445,/,361126,/,361806,/	t,t,t,t	<img class = center src='/static/experiments/beast_fmri_test/images/T.png'></img>	71,89	2750.0	test	<img class = center src='/static/experiments/beast_fmri_test/images/redT.png'></img>	go	1900.0	2.0	10.0	go	non-target	T	71,Index Finger	89,Middle Finger	850.0	850.0	1900.0	1900.0	0.0	850.0	0.0	n/a	go_stim
261583.50014387001	32.49985613	n/a	1290	71	2750	32.49985613	stim	stop-signal	123	362302	0.0-9.10-1.10	beast_fmri_test	384	359766,/,360445,/,361126,/,361806,/	t,t,t,t	<img class = center src='/static/experiments/beast_fmri_test/images/T.png'></img>	71,89	2750.0	test	<img class = center src='/static/experiments/beast_fmri_test/images/redT.png'></img>	go	1900.0	2.0	10.0	go	non-target	T	71,Index Finger	89,Middle Finger	850.0	850.0	1900.0	1900.0	0.0	850.0	0.0	n/a	ITI
262155	500.0	n/a	-1	-1	500	0.0	fixation	poldrack-single-stim	124	362841	0.0-9.11-0.11	beast_fmri_test	384	362485,/	t	<div class = centerbox2><div class = fixation>+</div></div>	none	500.0	test	n/a	n/a	n/a	n/a	n/a	n/a	n/a	n/a	n/a	n/a	n/a	n/a	n/a	n/a	n/a	n/a	n/a	n/a	fixation
262155.81420045899	2750.0	n/a	1029	89	2750	1.185799541	stim	stop-signal	125	365593	0.0-9.11-1.11	beast_fmri_test	384	363165,/,363845,/,364525,/,365205,/	t,t,t,t	<img class = center src='/static/experiments/beast_fmri_test/images/T.png'></img>	71,89	2750.0	test	<img class = center src='/static/experiments/beast_fmri_test/images/redT.png'></img>	go	1900.0	2.0	11.0	go	non-target	T	71,Index Finger	89,Middle Finger	850.0	850.0	1900.0	1900.0	1.0	850.0	1.0	n/a	go_stim
264905.81420045899	1.185799541	n/a	1029	89	2750	1.185799541	stim	stop-signal	125	365593	0.0-9.11-1.11	beast_fmri_test	384	363165,/,363845,/,364525,/,365205,/	t,t,t,t	<img class = center src='/static/experiments/beast_fmri_test/images/T.png'></img>	71,89	2750.0	test	<img class = center src='/static/experiments/beast_fmri_test/images/redT.png'></img>	go	1900.0	2.0	11.0	go	non-target	T	71,Index Finger	89,Middle Finger	850.0	850.0	1900.0	1900.0	1.0	850.0	1.0	n/a	ITI
265416	500.0	n/a	-1	-1	500	0.0	fixation	poldrack-single-stim	126	366102	0.0-9.12-0.12	beast_fmri_test	384	365885,/	t	<div class = centerbox2><div class = fixation>+</div></div>	none	500.0	test	n/a	n/a	n/a	n/a	n/a	n/a	n/a	n/a	n/a	n/a	n/a	n/a	n/a	n/a	n/a	n/a	n/a	n/a	fixation
265040.79551560001	850.0	n/a	-1	-1	2750	378.2044844	stim	stop-signal	127	368855	0.0-9.12-1.12	beast_fmri_test	384	366566,/,367245,/,367926,/,368605,/	t,t,t,t	<img class = center src='/static/experiments/beast_fmri_test/images/D.png'></img>	71,89	2750.0	test	<img class = center src='/static/experiments/beast_fmri_test/images/redD.png'></img>	stop	1900.0	2.0	12.0	stop	non-target	D	71,Index Finger	89,Middle Finger	850.0	850.0	1900.0	1900.0	0.0	850.0	n/a	1.0	go_stim
266940.79551560001	1900.0	n/a	-1	-1	2750	378.2044844	stim	stop-signal	127	368855	0.0-9.12-1.12	beast_fmri_test	384	366566,/,367245,/,367926,/,368605,/	t,t,t,t	<img class = center src='/static/experiments/beast_fmri_test/images/D.png'></img>	71,89	2750.0	test	<img class = center src='/static/experiments/beast_fmri_test/images/redD.png'></img>	stop	1900.0	2.0	12.0	stop	non-target	D	71,Index Finger	89,Middle Finger	850.0	850.0	1900.0	1900.0	0.0	850.0	n/a	1.0	stop_stim
267790.79551560001	378.2044844	n/a	-1	-1	2750	378.2044844	stim	stop-signal	127	368855	0.0-9.12-1.12	beast_fmri_test	384	366566,/,367245,/,367926,/,368605,/	t,t,t,t	<img class = center src='/static/experiments/beast_fmri_test/images/D.png'></img>	71,89	2750.0	test	<img class = center src='/static/experiments/beast_fmri_test/images/redD.png'></img>	stop	1900.0	2.0	12.0	stop	non-target	D	71,Index Finger	89,Middle Finger	850.0	850.0	1900.0	1900.0	0.0	850.0	n/a	1.0	ITI
269054	500.0	n/a	-1	-1	500	0.0	fixation	poldrack-single-stim	128	369740	0.0-9.13-0.13	beast_fmri_test	384	369285,/	t	<div class = centerbox2><div class = fixation>+</div></div>	none	500.0	test	n/a	n/a	n/a	n/a	n/a	n/a	n/a	n/a	n/a	n/a	n/a	n/a	n/a	n/a	n/a	n/a	n/a	n/a	fixation
268696.61423379998	2750.0	n/a	1261	89	2750	359.3857662	stim	stop-signal	129	372492	0.0-9.13-1.13	beast_fmri_test	384	369965,/,370645,/,371325,/,372006,/,372685,/	t,t,t,t,t	<img class = center src='/static/experiments/beast_fmri_test/images/V.png'></img>	71,89	2750.0	test	<img class = center src='/static/experiments/beast_fmri_test/images/redV.png'></img>	go	1850.0	2.0	13.0	go	non-target	V	71,Index Finger	89,Middle Finger	850.0	900.0	1900.0	1850.0	1.0	900.0	1.0	n/a	go_stim
271446.61423379998	359.3857662	n/a	1261	89	2750	359.3857662	stim	stop-signal	129	372492	0.0-9.13-1.13	beast_fmri_test	384	369965,/,370645,/,371325,/,372006,/,372685,/	t,t,t,t,t	<img class = center src='/static/experiments/beast_fmri_test/images/V.png'></img>	71,89	2750.0	test	<img class = center src='/static/experiments/beast_fmri_test/images/redV.png'></img>	go	1850.0	2.0	13.0	go	non-target	V	71,Index Finger	89,Middle Finger	850.0	900.0	1900.0	1850.0	1.0	900.0	1.0	n/a	ITI
272673	500.0	n/a	-1	-1	500	0.0	fixation	poldrack-single-stim	130	373359	0.0-9.14-0.14	beast_fmri_test	384	n/a	n/a	<div class = centerbox2><div class = fixation>+</div></div>	none	500.0	test	n/a	n/a	n/a	n/a	n/a	n/a	n/a	n/a	n/a	n/a	n/a	n/a	n/a	n/a	n/a	n/a	n/a	n/a	fixation
272025.4880597	2750.0	n/a	895	71	2750	650.5119403	stim	stop-signal	131	376112	0.0-9.14-1.14	beast_fmri_test	384	373365,/,374045,/,374725,/,375405,/,376085,/	t,t,t,t,t	<img class = center src='/static/experiments/beast_fmri_test/images/D.png'></img>	71,89	2750.0	test	<img class = center src='/static/experiments/beast_fmri_test/images/redD.png'></img>	go	1900.0	2.0	14.0	go	target	D	71,Index Finger	89,Middle Finger	850.0	900.0	1900.0	1850.0	1.0	850.0	1.0	n/a	go_stim
274775.4880597	650.5119403	n/a	895	71	2750	650.5119403	stim	stop-signal	131	376112	0.0-9.14-1.14	beast_fmri_test	384	373365,/,374045,/,374725,/,375405,/,376085,/	t,t,t,t,t	<img class = center src='/static/experiments/beast_fmri_test/images/D.png'></img>	71,89	2750.0	test	<img class = center src='/static/experiments/beast_fmri_test/images/redD.png'></img>	go	1900.0	2.0	14.0	go	target	D	71,Index Finger	89,Middle Finger	850.0	900.0	1900.0	1850.0	1.0	850.0	1.0	n/a	ITI
276584	500.0	n/a	-1	-1	500	0.0	fixation	poldrack-single-stim	132	377270	0.0-9.15-0.15	beast_fmri_test	384	376769,/	t	<div class = centerbox2><div class = fixation>+</div></div>	none	500.0	test	n/a	n/a	n/a	n/a	n/a	n/a	n/a	n/a	n/a	n/a	n/a	n/a	n/a	n/a	n/a	n/a	n/a	n/a	fixation
276238.9600578	2750.0	n/a	2112	89	2750	348.0399422	stim	stop-signal	133	380023	0.0-9.15-1.15	beast_fmri_test	384	377445,/,378126,/,378806,/,379486,/,380166,/	t,t,t,t,t	<img class = center src='/static/experiments/beast_fmri_test/images/V.png'></img>	71,89	2750.0	test	<img class = center src='/static/experiments/beast_fmri_test/images/redV.png'></img>	go	1900.0	2.0	15.0	go	target	V	71,Index Finger	89,Middle Finger	850.0	900.0	1900.0	1850.0	0.0	850.0	0.0	n/a	go_stim
278988.9600578	348.0399422	n/a	2112	89	2750	348.0399422	stim	stop-signal	133	380023	0.0-9.15-1.15	beast_fmri_test	384	377445,/,378126,/,378806,/,379486,/,380166,/	t,t,t,t,t	<img class = center src='/static/experiments/beast_fmri_test/images/V.png'></img>	71,89	2750.0	test	<img class = center src='/static/experiments/beast_fmri_test/images/redV.png'></img>	go	1900.0	2.0	15.0	go	target	V	71,Index Finger	89,Middle Finger	850.0	900.0	1900.0	1850.0	0.0	850.0	0.0	n/a	ITI
280191	500.0	n/a	-1	-1	500	0.0	fixation	poldrack-single-stim	134	380877	0.0-9.16-0.16	beast_fmri_test	384	380846,/	t	<div class = centerbox2><div class = fixation>+</div></div>	none	500.0	test	n/a	n/a	n/a	n/a	n/a	n/a	n/a	n/a	n/a	n/a	n/a	n/a	n/a	n/a	n/a	n/a	n/a	n/a	fixation
279835.81496280001	2750.0	n/a	1264	89	2750	356.1850372	stim	stop-signal	135	383628	0.0-9.16-1.16	beast_fmri_test	384	381526,/,382206,/,382886,/,383566,/	t,t,t,t	<img class = center src='/static/experiments/beast_fmri_test/images/T.png'></img>	71,89	2750.0	test	<img class = center src='/static/experiments/beast_fmri_test/images/redT.png'></img>	go	1850.0	2.0	16.0	go	non-target	T	71,Index Finger	89,Middle Finger	850.0	900.0	1900.0	1850.0	1.0	900.0	1.0	n/a	go_stim
282585.81496280001	356.1850372	n/a	1264	89	2750	356.1850372	stim	stop-signal	135	383628	0.0-9.16-1.16	beast_fmri_test	384	381526,/,382206,/,382886,/,383566,/	t,t,t,t	<img class = center src='/static/experiments/beast_fmri_test/images/T.png'></img>	71,89	2750.0	test	<img class = center src='/static/experiments/beast_fmri_test/images/redT.png'></img>	go	1850.0	2.0	16.0	go	non-target	T	71,Index Finger	89,Middle Finger	850.0	900.0	1900.0	1850.0	1.0	900.0	1.0	n/a	ITI
283804	500.0	n/a	-1	-1	500	0.0	fixation	poldrack-single-stim	136	384490	0.0-9.17-0.17	beast_fmri_test	384	384246,/	t	<div class = centerbox2><div class = fixation>+</div></div>	none	500.0	test	n/a	n/a	n/a	n/a	n/a	n/a	n/a	n/a	n/a	n/a	n/a	n/a	n/a	n/a	n/a	n/a	n/a	n/a	fixation
281701.297677	2750.0	n/a	1674	89	2750	2104.702323	stim	stop-signal	137	387242	0.0-9.17-1.17	beast_fmri_test	384	384926,/,385606,/,386285,/,386966,/,387645,/,388325,/,389006,/	t,t,t,t,t,t,t	<img class = center src='/static/experiments/beast_fmri_test/images/V.png'></img>	71,89	2750.0	test	<img class = center src='/static/experiments/beast_fmri_test/images/redV.png'></img>	go	1900.0	2.0	17.0	go	target	V	71,Index Finger	89,Middle Finger	850.0	900.0	1900.0	1850.0	0.0	850.0	0.0	n/a	go_stim
284451.297677	2104.702323	n/a	1674	89	2750	2104.702323	stim	stop-signal	137	387242	0.0-9.17-1.17	beast_fmri_test	384	384926,/,385606,/,386285,/,386966,/,387645,/,388325,/,389006,/	t,t,t,t,t,t,t	<img class = center src='/static/experiments/beast_fmri_test/images/V.png'></img>	71,89	2750.0	test	<img class = center src='/static/experiments/beast_fmri_test/images/redV.png'></img>	go	1900.0	2.0	17.0	go	target	V	71,Index Finger	89,Middle Finger	850.0	900.0	1900.0	1850.0	0.0	850.0	0.0	n/a	ITI
289169	500.0	n/a	-1	-1	500	0.0	fixation	poldrack-single-stim	138	389855	0.0-9.18-0.18	beast_fmri_test	384	389685,/	t	<div class = centerbox2><div class = fixation>+</div></div>	none	500.0	test	n/a	n/a	n/a	n/a	n/a	n/a	n/a	n/a	n/a	n/a	n/a	n/a	n/a	n/a	n/a	n/a	n/a	n/a	fixation
288533.35097799997	2750.0	n/a	958	71	2750	637.649022	stim	stop-signal	139	392607	0.0-9.18-1.18	beast_fmri_test	384	390365,/,391046,/,391726,/,392406,/,393085,/	t,t,t,t,t	<img class = center src='/static/experiments/beast_fmri_test/images/V.png'></img>	71,89	2750.0	test	<img class = center src='/static/experiments/beast_fmri_test/images/redV.png'></img>	go	1850.0	2.0	18.0	go	non-target	V	71,Index Finger	89,Middle Finger	850.0	900.0	1900.0	1850.0	0.0	900.0	0.0	n/a	go_stim
291283.35097799997	637.649022	n/a	958	71	2750	637.649022	stim	stop-signal	139	392607	0.0-9.18-1.18	beast_fmri_test	384	390365,/,391046,/,391726,/,392406,/,393085,/	t,t,t,t,t	<img class = center src='/static/experiments/beast_fmri_test/images/V.png'></img>	71,89	2750.0	test	<img class = center src='/static/experiments/beast_fmri_test/images/redV.png'></img>	go	1850.0	2.0	18.0	go	non-target	V	71,Index Finger	89,Middle Finger	850.0	900.0	1900.0	1850.0	0.0	900.0	0.0	n/a	ITI
293066	500.0	n/a	-1	-1	500	0.0	fixation	poldrack-single-stim	140	393752	0.0-9.19-0.19	beast_fmri_test	384	n/a	n/a	<div class = centerbox2><div class = fixation>+</div></div>	none	500.0	test	n/a	n/a	n/a	n/a	n/a	n/a	n/a	n/a	n/a	n/a	n/a	n/a	n/a	n/a	n/a	n/a	n/a	n/a	fixation
292692.29303499998	2750.0	n/a	1721	89	2750	375.706965	stim	stop-signal	141	396504	0.0-9.19-1.19	beast_fmri_test	384	393765,/,394446,/,395125,/,395805,/,396486,/	t,t,t,t,t	<img class = center src='/static/experiments/beast_fmri_test/images/T.png'></img>	71,89	2750.0	test	<img class = center src='/static/experiments/beast_fmri_test/images/redT.png'></img>	go	1850.0	2.0	19.0	go	non-target	T	71,Index Finger	89,Middle Finger	850.0	900.0	1900.0	1850.0	1.0	900.0	1.0	n/a	go_stim
295442.29303499998	375.706965	n/a	1721	89	2750	375.706965	stim	stop-signal	141	396504	0.0-9.19-1.19	beast_fmri_test	384	393765,/,394446,/,395125,/,395805,/,396486,/	t,t,t,t,t	<img class = center src='/static/experiments/beast_fmri_test/images/T.png'></img>	71,89	2750.0	test	<img class = center src='/static/experiments/beast_fmri_test/images/redT.png'></img>	go	1850.0	2.0	19.0	go	non-target	T	71,Index Finger	89,Middle Finger	850.0	900.0	1900.0	1850.0	1.0	900.0	1.0	n/a	ITI
296700	500.0	n/a	-1	-1	500	0.0	fixation	poldrack-single-stim	142	397386	0.0-9.20-0.20	beast_fmri_test	384	397165,/	t	<div class = centerbox2><div class = fixation>+</div></div>	none	500.0	test	n/a	n/a	n/a	n/a	n/a	n/a	n/a	n/a	n/a	n/a	n/a	n/a	n/a	n/a	n/a	n/a	n/a	n/a	fixation
296109.16273410001	900.0	n/a	843	89	2750	592.8372659	stim	stop-signal	143	400138	0.0-9.20-1.20	beast_fmri_test	384	397846,/,398525,/,399205,/,399885,/,400565,/	t,t,t,t,t	<img class = center src='/static/experiments/beast_fmri_test/images/B.png'></img>	71,89	2750.0	test	<img class = center src='/static/experiments/beast_fmri_test/images/redB.png'></img>	stop	1850.0	2.0	20.0	stop	non-target	B	71,Index Finger	89,Middle Finger	850.0	900.0	1900.0	1850.0	0.0	900.0	n/a	0.0	go_stim
297959.16273410001	1850.0	n/a	843	89	2750	592.8372659	stim	stop-signal	143	400138	0.0-9.20-1.20	beast_fmri_test	384	397846,/,398525,/,399205,/,399885,/,400565,/	t,t,t,t,t	<img class = center src='/static/experiments/beast_fmri_test/images/B.png'></img>	71,89	2750.0	test	<img class = center src='/static/experiments/beast_fmri_test/images/redB.png'></img>	stop	1850.0	2.0	20.0	stop	non-target	B	71,Index Finger	89,Middle Finger	850.0	900.0	1900.0	1850.0	0.0	900.0	n/a	0.0	stop_stim
298859.16273410001	592.8372659	n/a	843	89	2750	592.8372659	stim	stop-signal	143	400138	0.0-9.20-1.20	beast_fmri_test	384	397846,/,398525,/,399205,/,399885,/,400565,/	t,t,t,t,t	<img class = center src='/static/experiments/beast_fmri_test/images/B.png'></img>	71,89	2750.0	test	<img class = center src='/static/experiments/beast_fmri_test/images/redB.png'></img>	stop	1850.0	2.0	20.0	stop	non-target	B	71,Index Finger	89,Middle Finger	850.0	900.0	1900.0	1850.0	0.0	900.0	n/a	0.0	ITI
300552	500.0	n/a	-1	-1	500	0.0	fixation	poldrack-single-stim	144	401238	0.0-9.21-0.21	beast_fmri_test	384	n/a	n/a	<div class = centerbox2><div class = fixation>+</div></div>	none	500.0	test	n/a	n/a	n/a	n/a	n/a	n/a	n/a	n/a	n/a	n/a	n/a	n/a	n/a	n/a	n/a	n/a	n/a	n/a	fixation
300063.08723429998	2750.0	n/a	841	89	2750	489.9127657	stim	stop-signal	145	403989	0.0-9.21-1.21	beast_fmri_test	384	401245,/,401926,/,402606,/,403285,/,403965,/	t,t,t,t,t	<img class = center src='/static/experiments/beast_fmri_test/images/V.png'></img>	71,89	2750.0	test	<img class = center src='/static/experiments/beast_fmri_test/images/redV.png'></img>	go	1900.0	2.0	21.0	go	non-target	V	71,Index Finger	89,Middle Finger	850.0	850.0	1900.0	1900.0	1.0	850.0	1.0	n/a	go_stim
302813.08723429998	489.9127657	n/a	841	89	2750	489.9127657	stim	stop-signal	145	403989	0.0-9.21-1.21	beast_fmri_test	384	401245,/,401926,/,402606,/,403285,/,403965,/	t,t,t,t,t	<img class = center src='/static/experiments/beast_fmri_test/images/V.png'></img>	71,89	2750.0	test	<img class = center src='/static/experiments/beast_fmri_test/images/redV.png'></img>	go	1900.0	2.0	21.0	go	non-target	V	71,Index Finger	89,Middle Finger	850.0	850.0	1900.0	1900.0	1.0	850.0	1.0	n/a	ITI
304300	500.0	n/a	-1	-1	500	0.0	fixation	poldrack-single-stim	146	404986	0.0-9.22-0.22	beast_fmri_test	384	404645,/	t	<div class = centerbox2><div class = fixation>+</div></div>	none	500.0	test	n/a	n/a	n/a	n/a	n/a	n/a	n/a	n/a	n/a	n/a	n/a	n/a	n/a	n/a	n/a	n/a	n/a	n/a	fixation
302979.84839100001	850.0	n/a	765	89	2750	1322.151609	stim	stop-signal	147	407738	0.0-9.22-1.22	beast_fmri_test	384	405325,/,406005,/,406685,/,407365,/,408045,/,408725,/	t,t,t,t,t,t	<img class = center src='/static/experiments/beast_fmri_test/images/T.png'></img>	71,89	2750.0	test	<img class = center src='/static/experiments/beast_fmri_test/images/redT.png'></img>	stop	1900.0	2.0	22.0	stop	non-target	T	71,Index Finger	89,Middle Finger	850.0	850.0	1900.0	1900.0	0.0	850.0	n/a	0.0	go_stim
304879.84839100001	1900.0	n/a	765	89	2750	1322.151609	stim	stop-signal	147	407738	0.0-9.22-1.22	beast_fmri_test	384	405325,/,406005,/,406685,/,407365,/,408045,/,408725,/	t,t,t,t,t,t	<img class = center src='/static/experiments/beast_fmri_test/images/T.png'></img>	71,89	2750.0	test	<img class = center src='/static/experiments/beast_fmri_test/images/redT.png'></img>	stop	1900.0	2.0	22.0	stop	non-target	T	71,Index Finger	89,Middle Finger	850.0	850.0	1900.0	1900.0	0.0	850.0	n/a	0.0	stop_stim
305729.84839100001	1322.151609	n/a	765	89	2750	1322.151609	stim	stop-signal	147	407738	0.0-9.22-1.22	beast_fmri_test	384	405325,/,406005,/,406685,/,407365,/,408045,/,408725,/	t,t,t,t,t,t	<img class = center src='/static/experiments/beast_fmri_test/images/T.png'></img>	71,89	2750.0	test	<img class = center src='/static/experiments/beast_fmri_test/images/redT.png'></img>	stop	1900.0	2.0	22.0	stop	non-target	T	71,Index Finger	89,Middle Finger	850.0	850.0	1900.0	1900.0	0.0	850.0	n/a	0.0	ITI
308883	500.0	n/a	-1	-1	500	0.0	fixation	poldrack-single-stim	148	409569	0.0-9.23-0.23	beast_fmri_test	384	409405,/	t	<div class = centerbox2><div class = fixation>+</div></div>	none	500.0	test	n/a	n/a	n/a	n/a	n/a	n/a	n/a	n/a	n/a	n/a	n/a	n/a	n/a	n/a	n/a	n/a	n/a	n/a	fixation
308840.54877031001	2750.0	n/a	1857	71	2750	43.45122969	stim	stop-signal	149	412320	0.0-9.23-1.23	beast_fmri_test	384	410085,/,410766,/,411446,/,412126,/	t,t,t,t	<img class = center src='/static/experiments/beast_fmri_test/images/V.png'></img>	71,89	2750.0	test	<img class = center src='/static/experiments/beast_fmri_test/images/redV.png'></img>	go	1900.0	2.0	23.0	go	target	V	71,Index Finger	89,Middle Finger	850.0	800.0	1900.0	1900.0	1.0	850.0	1.0	n/a	go_stim
311590.54877031001	43.45122969	n/a	1857	71	2750	43.45122969	stim	stop-signal	149	412320	0.0-9.23-1.23	beast_fmri_test	384	410085,/,410766,/,411446,/,412126,/	t,t,t,t	<img class = center src='/static/experiments/beast_fmri_test/images/V.png'></img>	71,89	2750.0	test	<img class = center src='/static/experiments/beast_fmri_test/images/redV.png'></img>	go	1900.0	2.0	23.0	go	target	V	71,Index Finger	89,Middle Finger	850.0	800.0	1900.0	1900.0	1.0	850.0	1.0	n/a	ITI
312186	500.0	n/a	-1	-1	500	0.0	fixation	poldrack-single-stim	150	412872	0.0-9.24-0.24	beast_fmri_test	384	412807,/	t	<div class = centerbox2><div class = fixation>+</div></div>	none	500.0	test	n/a	n/a	n/a	n/a	n/a	n/a	n/a	n/a	n/a	n/a	n/a	n/a	n/a	n/a	n/a	n/a	n/a	n/a	fixation
311473.30309569999	2750.0	n/a	1868	71	2750	714.6969043	stim	stop-signal	151	415624	0.0-9.24-1.24	beast_fmri_test	384	413486,/,414166,/,414846,/,415526,/,416206,/	t,t,t,t,t	<img class = center src='/static/experiments/beast_fmri_test/images/B.png'></img>	71,89	2750.0	test	<img class = center src='/static/experiments/beast_fmri_test/images/redB.png'></img>	go	1950.0	2.0	24.0	go	non-target	B	71,Index Finger	89,Middle Finger	850.0	800.0	1900.0	1950.0	0.0	800.0	0.0	n/a	go_stim
314223.30309569999	714.6969043	n/a	1868	71	2750	714.6969043	stim	stop-signal	151	415624	0.0-9.24-1.24	beast_fmri_test	384	413486,/,414166,/,414846,/,415526,/,416206,/	t,t,t,t,t	<img class = center src='/static/experiments/beast_fmri_test/images/B.png'></img>	71,89	2750.0	test	<img class = center src='/static/experiments/beast_fmri_test/images/redB.png'></img>	go	1950.0	2.0	24.0	go	non-target	B	71,Index Finger	89,Middle Finger	850.0	800.0	1900.0	1950.0	0.0	800.0	0.0	n/a	ITI
316161	500.0	n/a	-1	-1	500	0.0	fixation	poldrack-single-stim	152	416847	0.0-9.25-0.25	beast_fmri_test	384	n/a	n/a	<div class = centerbox2><div class = fixation>+</div></div>	none	500.0	test	n/a	n/a	n/a	n/a	n/a	n/a	n/a	n/a	n/a	n/a	n/a	n/a	n/a	n/a	n/a	n/a	n/a	n/a	fixation
