onset	duration	text	rt	key_press	block_duration	timing_post_trial	trial_id	trial_type	trial_index	time_elapsed	internal_node_id	exp_id	subject_id	trigger_times	triggers	stimulus	possible_responses	stim_duration	exp_stage	SS_stimulus	SS_trial_type	SS_duration	load	trial_num	stop_trial_type	adaptive_trial_type	stim	yes_response_key	no_response_key	SSD_target	SSD_non_target	SSTarget	SSNonTarget	go_acc	stop_acc	SS_delay	adaptive_acc	new_trial_type
test	10880.0	n/a	-1	-1	10880	0.0	practice-no-stop-feedback	poldrack-single-stim	198	597906	0.0-12.0	beast_fmri_test	311	587029,/,587708,/,588387,/,589066,/,589746,/,590427,/,591106,/,591785,/,592466,/,593145,/,593825,/,594504,/,595184,/,595863,/,596543,/,597223,/,597903,/	t,t,t,t,t,t,t,t,t,t,t,t,t,t,t,t,t	"<div class = ""centerbox""><p class = ""block-text"">Your delay is 2 trials.</p><p class = block-text>Please wait for the scanner to start the block</p></div>"	77	10880.0	n/a	n/a	n/a	n/a	n/a	n/a	n/a	n/a	n/a	n/a	n/a	n/a	n/a	n/a	n/a	n/a	n/a	n/a	n/a	start_functional_block
11379	500.0	n/a	-1	-1	500	0.0	fixation	poldrack-single-stim	199	598408	0.0-13.0-0.0	beast_fmri_test	311	n/a	n/a	<div class = centerbox2><div class = fixation>+</div></div>	none	500.0	test	n/a	n/a	n/a	n/a	n/a	n/a	n/a	n/a	n/a	n/a	n/a	n/a	n/a	n/a	n/a	n/a	n/a	n/a	fixation
10497.862925522379	2750.0	n/a	834	71	2750	883.137074478	stim	stop-signal	200	601160	0.0-13.0-1.0	beast_fmri_test	311	598582,/,599262,/,599941,/,600620,/,601301,/,601981,/	t,t,t,t,t,t	<img class = center src='/static/experiments/beast_fmri_test/images/B.png'></img>	89,71	2750.0	test	<img class = center src='/static/experiments/beast_fmri_test/images/redB.png'></img>	go	-1.0	2.0	0.0	go	temp-non-target	B	89,Middle Finger	71,Index Finger	700.0	800.0	2100.0	1950.0	0.0	n/a	n/a	n/a	go_stim
13247.862925522379	883.137074478	n/a	834	71	2750	883.137074478	stim	stop-signal	200	601160	0.0-13.0-1.0	beast_fmri_test	311	598582,/,599262,/,599941,/,600620,/,601301,/,601981,/	t,t,t,t,t,t	<img class = center src='/static/experiments/beast_fmri_test/images/B.png'></img>	89,71	2750.0	test	<img class = center src='/static/experiments/beast_fmri_test/images/redB.png'></img>	go	-1.0	2.0	0.0	go	temp-non-target	B	89,Middle Finger	71,Index Finger	700.0	800.0	2100.0	1950.0	0.0	n/a	n/a	n/a	ITI
15538	500.0	n/a	-1	-1	500	0.0	fixation	poldrack-single-stim	201	602567	0.0-13.1-0.1	beast_fmri_test	311	n/a	n/a	<div class = centerbox2><div class = fixation>+</div></div>	none	500.0	test	n/a	n/a	n/a	n/a	n/a	n/a	n/a	n/a	n/a	n/a	n/a	n/a	n/a	n/a	n/a	n/a	n/a	n/a	fixation
15493.324330129079	2750.0	n/a	712	71	2750	45.675669871	stim	stop-signal	202	605318	0.0-13.1-1.1	beast_fmri_test	311	602659,/,603340,/,604019,/,604698,/	t,t,t,t	<img class = center src='/static/experiments/beast_fmri_test/images/V.png'></img>	89,71	2750.0	test	<img class = center src='/static/experiments/beast_fmri_test/images/redV.png'></img>	go	-1.0	2.0	1.0	go	temp-non-target	V	89,Middle Finger	71,Index Finger	700.0	800.0	2100.0	1950.0	0.0	n/a	n/a	n/a	go_stim
18243.324330129079	45.675669871	n/a	712	71	2750	45.675669871	stim	stop-signal	202	605318	0.0-13.1-1.1	beast_fmri_test	311	602659,/,603340,/,604019,/,604698,/	t,t,t,t	<img class = center src='/static/experiments/beast_fmri_test/images/V.png'></img>	89,71	2750.0	test	<img class = center src='/static/experiments/beast_fmri_test/images/redV.png'></img>	go	-1.0	2.0	1.0	go	temp-non-target	V	89,Middle Finger	71,Index Finger	700.0	800.0	2100.0	1950.0	0.0	n/a	n/a	n/a	ITI
18860	500.0	n/a	-1	-1	500	0.0	fixation	poldrack-single-stim	203	605889	0.0-13.2-0.2	beast_fmri_test	311	605388,/	t	<div class = centerbox2><div class = fixation>+</div></div>	none	500.0	test	n/a	n/a	n/a	n/a	n/a	n/a	n/a	n/a	n/a	n/a	n/a	n/a	n/a	n/a	n/a	n/a	n/a	n/a	fixation
17148.905443202704	800.0	n/a	1061	71	2750	1713.0945568	stim	stop-signal	204	608641	0.0-13.2-1.2	beast_fmri_test	311	606058,/,606738,/,607418,/,608098,/,608776,/,609458,/,610136,/	t,t,t,t,t,t,t	<img class = center src='/static/experiments/beast_fmri_test/images/T.png'></img>	89,71	2750.0	test	<img class = center src='/static/experiments/beast_fmri_test/images/redT.png'></img>	stop	1950.0	2.0	2.0	stop	non-target	T	89,Middle Finger	71,Index Finger	700.0	800.0	2100.0	1950.0	0.0	0.0	800.0	n/a	go_stim
19098.905443202704	1950.0	n/a	1061	71	2750	1713.0945568	stim	stop-signal	204	608641	0.0-13.2-1.2	beast_fmri_test	311	606058,/,606738,/,607418,/,608098,/,608776,/,609458,/,610136,/	t,t,t,t,t,t,t	<img class = center src='/static/experiments/beast_fmri_test/images/T.png'></img>	89,71	2750.0	test	<img class = center src='/static/experiments/beast_fmri_test/images/redT.png'></img>	stop	1950.0	2.0	2.0	stop	non-target	T	89,Middle Finger	71,Index Finger	700.0	800.0	2100.0	1950.0	0.0	0.0	800.0	n/a	stop_stim
19898.905443202704	1713.0945568	n/a	1061	71	2750	1713.0945568	stim	stop-signal	204	608641	0.0-13.2-1.2	beast_fmri_test	311	606058,/,606738,/,607418,/,608098,/,608776,/,609458,/,610136,/	t,t,t,t,t,t,t	<img class = center src='/static/experiments/beast_fmri_test/images/T.png'></img>	89,71	2750.0	test	<img class = center src='/static/experiments/beast_fmri_test/images/redT.png'></img>	stop	1950.0	2.0	2.0	stop	non-target	T	89,Middle Finger	71,Index Finger	700.0	800.0	2100.0	1950.0	0.0	0.0	800.0	n/a	ITI
23849	500.0	n/a	-1	-1	500	0.0	fixation	poldrack-single-stim	205	610878	0.0-13.3-0.3	beast_fmri_test	311	610816,/	t	<div class = centerbox2><div class = fixation>+</div></div>	none	500.0	test	n/a	n/a	n/a	n/a	n/a	n/a	n/a	n/a	n/a	n/a	n/a	n/a	n/a	n/a	n/a	n/a	n/a	n/a	fixation
23437.958597917459	750.0	n/a	-1	-1	2750	413.041402083	stim	stop-signal	206	613630	0.0-13.3-1.3	beast_fmri_test	311	611496,/,612176,/,612854,/,613535,/	t,t,t,t	<img class = center src='/static/experiments/beast_fmri_test/images/T.png'></img>	89,71	2750.0	test	<img class = center src='/static/experiments/beast_fmri_test/images/redT.png'></img>	stop	2000.0	2.0	3.0	stop	non-target	T	89,Middle Finger	71,Index Finger	700.0	750.0	2100.0	2000.0	0.0	1.0	750.0	n/a	go_stim
25437.958597917459	2000.0	n/a	-1	-1	2750	413.041402083	stim	stop-signal	206	613630	0.0-13.3-1.3	beast_fmri_test	311	611496,/,612176,/,612854,/,613535,/	t,t,t,t	<img class = center src='/static/experiments/beast_fmri_test/images/T.png'></img>	89,71	2750.0	test	<img class = center src='/static/experiments/beast_fmri_test/images/redT.png'></img>	stop	2000.0	2.0	3.0	stop	non-target	T	89,Middle Finger	71,Index Finger	700.0	750.0	2100.0	2000.0	0.0	1.0	750.0	n/a	stop_stim
26187.958597917459	413.041402083	n/a	-1	-1	2750	413.041402083	stim	stop-signal	206	613630	0.0-13.3-1.3	beast_fmri_test	311	611496,/,612176,/,612854,/,613535,/	t,t,t,t	<img class = center src='/static/experiments/beast_fmri_test/images/T.png'></img>	89,71	2750.0	test	<img class = center src='/static/experiments/beast_fmri_test/images/redT.png'></img>	stop	2000.0	2.0	3.0	stop	non-target	T	89,Middle Finger	71,Index Finger	700.0	750.0	2100.0	2000.0	0.0	1.0	750.0	n/a	ITI
27543	500.0	n/a	-1	-1	500	0.0	fixation	poldrack-single-stim	207	614572	0.0-13.4-0.4	beast_fmri_test	311	614214,/	t	<div class = centerbox2><div class = fixation>+</div></div>	none	500.0	test	n/a	n/a	n/a	n/a	n/a	n/a	n/a	n/a	n/a	n/a	n/a	n/a	n/a	n/a	n/a	n/a	n/a	n/a	fixation
27407.591710383072	2750.0	n/a	1481	71	2750	138.408289617	stim	stop-signal	208	617325	0.0-13.4-1.4	beast_fmri_test	311	614893,/,615575,/,616253,/,616934,/	t,t,t,t	<img class = center src='/static/experiments/beast_fmri_test/images/V.png'></img>	89,71	2750.0	test	<img class = center src='/static/experiments/beast_fmri_test/images/redV.png'></img>	go	1950.0	2.0	4.0	go	non-target	V	89,Middle Finger	71,Index Finger	700.0	800.0	2100.0	1950.0	1.0	n/a	800.0	1.0	go_stim
30157.591710383072	138.408289617	n/a	1481	71	2750	138.408289617	stim	stop-signal	208	617325	0.0-13.4-1.4	beast_fmri_test	311	614893,/,615575,/,616253,/,616934,/	t,t,t,t	<img class = center src='/static/experiments/beast_fmri_test/images/V.png'></img>	89,71	2750.0	test	<img class = center src='/static/experiments/beast_fmri_test/images/redV.png'></img>	go	1950.0	2.0	4.0	go	non-target	V	89,Middle Finger	71,Index Finger	700.0	800.0	2100.0	1950.0	1.0	n/a	800.0	1.0	ITI
30963	500.0	n/a	-1	-1	500	0.0	fixation	poldrack-single-stim	209	617992	0.0-13.5-0.5	beast_fmri_test	311	617613,/	t	<div class = centerbox2><div class = fixation>+</div></div>	none	500.0	test	n/a	n/a	n/a	n/a	n/a	n/a	n/a	n/a	n/a	n/a	n/a	n/a	n/a	n/a	n/a	n/a	n/a	n/a	fixation
30412.466010399745	700.0	n/a	-1	-1	2750	552.5339896	stim	stop-signal	210	620744	0.0-13.5-1.5	beast_fmri_test	311	618293,/,618973,/,619652,/,620333,/,621012,/	t,t,t,t,t	<img class = center src='/static/experiments/beast_fmri_test/images/T.png'></img>	89,71	2750.0	test	<img class = center src='/static/experiments/beast_fmri_test/images/redT.png'></img>	stop	2050.0	2.0	5.0	stop	target	T	89,Middle Finger	71,Index Finger	700.0	800.0	2050.0	1950.0	0.0	1.0	700.0	n/a	go_stim
32462.466010399745	2050.0	n/a	-1	-1	2750	552.5339896	stim	stop-signal	210	620744	0.0-13.5-1.5	beast_fmri_test	311	618293,/,618973,/,619652,/,620333,/,621012,/	t,t,t,t,t	<img class = center src='/static/experiments/beast_fmri_test/images/T.png'></img>	89,71	2750.0	test	<img class = center src='/static/experiments/beast_fmri_test/images/redT.png'></img>	stop	2050.0	2.0	5.0	stop	target	T	89,Middle Finger	71,Index Finger	700.0	800.0	2050.0	1950.0	0.0	1.0	700.0	n/a	stop_stim
33162.466010399745	552.5339896	n/a	-1	-1	2750	552.5339896	stim	stop-signal	210	620744	0.0-13.5-1.5	beast_fmri_test	311	618293,/,618973,/,619652,/,620333,/,621012,/	t,t,t,t,t	<img class = center src='/static/experiments/beast_fmri_test/images/T.png'></img>	89,71	2750.0	test	<img class = center src='/static/experiments/beast_fmri_test/images/redT.png'></img>	stop	2050.0	2.0	5.0	stop	target	T	89,Middle Finger	71,Index Finger	700.0	800.0	2050.0	1950.0	0.0	1.0	700.0	n/a	ITI
34796	500.0	n/a	-1	-1	500	0.0	fixation	poldrack-single-stim	211	621825	0.0-13.6-0.6	beast_fmri_test	311	621691,/	t	<div class = centerbox2><div class = fixation>+</div></div>	none	500.0	test	n/a	n/a	n/a	n/a	n/a	n/a	n/a	n/a	n/a	n/a	n/a	n/a	n/a	n/a	n/a	n/a	n/a	n/a	fixation
34189.052155386657	2750.0	n/a	1754	71	2750	608.947844613	stim	stop-signal	212	624577	0.0-13.6-1.6	beast_fmri_test	311	622371,/,623051,/,623730,/,624410,/,625089,/	t,t,t,t,t	<img class = center src='/static/experiments/beast_fmri_test/images/P.png'></img>	89,71	2750.0	test	<img class = center src='/static/experiments/beast_fmri_test/images/redP.png'></img>	go	1950.0	2.0	6.0	go	non-target	P	89,Middle Finger	71,Index Finger	750.0	800.0	2050.0	1950.0	1.0	n/a	800.0	1.0	go_stim
36939.052155386657	608.947844613	n/a	1754	71	2750	608.947844613	stim	stop-signal	212	624577	0.0-13.6-1.6	beast_fmri_test	311	622371,/,623051,/,623730,/,624410,/,625089,/	t,t,t,t,t	<img class = center src='/static/experiments/beast_fmri_test/images/P.png'></img>	89,71	2750.0	test	<img class = center src='/static/experiments/beast_fmri_test/images/redP.png'></img>	go	1950.0	2.0	6.0	go	non-target	P	89,Middle Finger	71,Index Finger	750.0	800.0	2050.0	1950.0	1.0	n/a	800.0	1.0	ITI
38684	500.0	n/a	-1	-1	500	0.0	fixation	poldrack-single-stim	213	625713	0.0-13.7-0.7	beast_fmri_test	311	n/a	n/a	<div class = centerbox2><div class = fixation>+</div></div>	none	500.0	test	n/a	n/a	n/a	n/a	n/a	n/a	n/a	n/a	n/a	n/a	n/a	n/a	n/a	n/a	n/a	n/a	n/a	n/a	fixation
38499.73619197635	2750.0	n/a	1712	71	2750	187.263808024	stim	stop-signal	214	628466	0.0-13.7-1.7	beast_fmri_test	311	625770,/,626450,/,627128,/,627808,/,628487,/	t,t,t,t,t	<img class = center src='/static/experiments/beast_fmri_test/images/D.png'></img>	89,71	2750.0	test	<img class = center src='/static/experiments/beast_fmri_test/images/redD.png'></img>	go	1950.0	2.0	7.0	go	non-target	D	89,Middle Finger	71,Index Finger	750.0	800.0	2050.0	1950.0	1.0	n/a	800.0	1.0	go_stim
41249.73619197635	187.263808024	n/a	1712	71	2750	187.263808024	stim	stop-signal	214	628466	0.0-13.7-1.7	beast_fmri_test	311	625770,/,626450,/,627128,/,627808,/,628487,/	t,t,t,t,t	<img class = center src='/static/experiments/beast_fmri_test/images/D.png'></img>	89,71	2750.0	test	<img class = center src='/static/experiments/beast_fmri_test/images/redD.png'></img>	go	1950.0	2.0	7.0	go	non-target	D	89,Middle Finger	71,Index Finger	750.0	800.0	2050.0	1950.0	1.0	n/a	800.0	1.0	ITI
42152	500.0	n/a	-1	-1	500	0.0	fixation	poldrack-single-stim	215	629181	0.0-13.8-0.8	beast_fmri_test	311	629168,/	t	<div class = centerbox2><div class = fixation>+</div></div>	none	500.0	test	n/a	n/a	n/a	n/a	n/a	n/a	n/a	n/a	n/a	n/a	n/a	n/a	n/a	n/a	n/a	n/a	n/a	n/a	fixation
41737.162970028003	800.0	n/a	-1	-1	2750	415.837029972	stim	stop-signal	216	631932	0.0-13.8-1.8	beast_fmri_test	311	629848,/,630527,/,631208,/,631887,/	t,t,t,t	<img class = center src='/static/experiments/beast_fmri_test/images/V.png'></img>	89,71	2750.0	test	<img class = center src='/static/experiments/beast_fmri_test/images/redV.png'></img>	stop	1950.0	2.0	8.0	stop	non-target	V	89,Middle Finger	71,Index Finger	750.0	800.0	2050.0	1950.0	0.0	1.0	800.0	n/a	go_stim
43687.162970028003	1950.0	n/a	-1	-1	2750	415.837029972	stim	stop-signal	216	631932	0.0-13.8-1.8	beast_fmri_test	311	629848,/,630527,/,631208,/,631887,/	t,t,t,t	<img class = center src='/static/experiments/beast_fmri_test/images/V.png'></img>	89,71	2750.0	test	<img class = center src='/static/experiments/beast_fmri_test/images/redV.png'></img>	stop	1950.0	2.0	8.0	stop	non-target	V	89,Middle Finger	71,Index Finger	750.0	800.0	2050.0	1950.0	0.0	1.0	800.0	n/a	stop_stim
44487.162970028003	415.837029972	n/a	-1	-1	2750	415.837029972	stim	stop-signal	216	631932	0.0-13.8-1.8	beast_fmri_test	311	629848,/,630527,/,631208,/,631887,/	t,t,t,t	<img class = center src='/static/experiments/beast_fmri_test/images/V.png'></img>	89,71	2750.0	test	<img class = center src='/static/experiments/beast_fmri_test/images/redV.png'></img>	stop	1950.0	2.0	8.0	stop	non-target	V	89,Middle Finger	71,Index Finger	750.0	800.0	2050.0	1950.0	0.0	1.0	800.0	n/a	ITI
45845	500.0	n/a	-1	-1	500	0.0	fixation	poldrack-single-stim	217	632874	0.0-13.9-0.9	beast_fmri_test	311	632566,/	t	<div class = centerbox2><div class = fixation>+</div></div>	none	500.0	test	n/a	n/a	n/a	n/a	n/a	n/a	n/a	n/a	n/a	n/a	n/a	n/a	n/a	n/a	n/a	n/a	n/a	n/a	fixation
45571.08703638427	850.0	n/a	-1	-1	2750	275.912963616	stim	stop-signal	218	635626	0.0-13.9-1.9	beast_fmri_test	311	633246,/,633925,/,634604,/,635285,/	t,t,t,t	<img class = center src='/static/experiments/beast_fmri_test/images/T.png'></img>	89,71	2750.0	test	<img class = center src='/static/experiments/beast_fmri_test/images/redT.png'></img>	stop	1900.0	2.0	9.0	stop	non-target	T	89,Middle Finger	71,Index Finger	750.0	850.0	2050.0	1900.0	0.0	1.0	850.0	n/a	go_stim
47471.08703638427	1900.0	n/a	-1	-1	2750	275.912963616	stim	stop-signal	218	635626	0.0-13.9-1.9	beast_fmri_test	311	633246,/,633925,/,634604,/,635285,/	t,t,t,t	<img class = center src='/static/experiments/beast_fmri_test/images/T.png'></img>	89,71	2750.0	test	<img class = center src='/static/experiments/beast_fmri_test/images/redT.png'></img>	stop	1900.0	2.0	9.0	stop	non-target	T	89,Middle Finger	71,Index Finger	750.0	850.0	2050.0	1900.0	0.0	1.0	850.0	n/a	stop_stim
48321.08703638427	275.912963616	n/a	-1	-1	2750	275.912963616	stim	stop-signal	218	635626	0.0-13.9-1.9	beast_fmri_test	311	633246,/,633925,/,634604,/,635285,/	t,t,t,t	<img class = center src='/static/experiments/beast_fmri_test/images/T.png'></img>	89,71	2750.0	test	<img class = center src='/static/experiments/beast_fmri_test/images/redT.png'></img>	stop	1900.0	2.0	9.0	stop	non-target	T	89,Middle Finger	71,Index Finger	750.0	850.0	2050.0	1900.0	0.0	1.0	850.0	n/a	ITI
49400	500.0	n/a	-1	-1	500	0.0	fixation	poldrack-single-stim	219	636429	0.0-13.10-0.10	beast_fmri_test	311	635965,/	t	<div class = centerbox2><div class = fixation>+</div></div>	none	500.0	test	n/a	n/a	n/a	n/a	n/a	n/a	n/a	n/a	n/a	n/a	n/a	n/a	n/a	n/a	n/a	n/a	n/a	n/a	fixation
48815.088388594915	750.0	n/a	-1	-1	2750	586.911611405	stim	stop-signal	220	639181	0.0-13.10-1.10	beast_fmri_test	311	636643,/,637325,/,638003,/,638683,/,639363,/	t,t,t,t,t	<img class = center src='/static/experiments/beast_fmri_test/images/V.png'></img>	89,71	2750.0	test	<img class = center src='/static/experiments/beast_fmri_test/images/redV.png'></img>	stop	2000.0	2.0	10.0	stop	target	V	89,Middle Finger	71,Index Finger	750.0	900.0	2000.0	1900.0	0.0	1.0	750.0	n/a	go_stim
50815.088388594915	2000.0	n/a	-1	-1	2750	586.911611405	stim	stop-signal	220	639181	0.0-13.10-1.10	beast_fmri_test	311	636643,/,637325,/,638003,/,638683,/,639363,/	t,t,t,t,t	<img class = center src='/static/experiments/beast_fmri_test/images/V.png'></img>	89,71	2750.0	test	<img class = center src='/static/experiments/beast_fmri_test/images/redV.png'></img>	stop	2000.0	2.0	10.0	stop	target	V	89,Middle Finger	71,Index Finger	750.0	900.0	2000.0	1900.0	0.0	1.0	750.0	n/a	stop_stim
51565.088388594915	586.911611405	n/a	-1	-1	2750	586.911611405	stim	stop-signal	220	639181	0.0-13.10-1.10	beast_fmri_test	311	636643,/,637325,/,638003,/,638683,/,639363,/	t,t,t,t,t	<img class = center src='/static/experiments/beast_fmri_test/images/V.png'></img>	89,71	2750.0	test	<img class = center src='/static/experiments/beast_fmri_test/images/redV.png'></img>	stop	2000.0	2.0	10.0	stop	target	V	89,Middle Finger	71,Index Finger	750.0	900.0	2000.0	1900.0	0.0	1.0	750.0	n/a	ITI
53265	500.0	n/a	-1	-1	500	0.0	fixation	poldrack-single-stim	221	640294	0.0-13.11-0.11	beast_fmri_test	311	640043,/	t	<div class = centerbox2><div class = fixation>+</div></div>	none	500.0	test	n/a	n/a	n/a	n/a	n/a	n/a	n/a	n/a	n/a	n/a	n/a	n/a	n/a	n/a	n/a	n/a	n/a	n/a	fixation
48267.0	2750.0	n/a	1669	71	2750	5000.0	stim	stop-signal	222	643046	0.0-13.11-1.11	beast_fmri_test	311	640722,/,641402,/,642082,/,642760,/,643441,/,644122,/,644800,/,645480,/,646161,/,646840,/,647519,/	t,t,t,t,t,t,t,t,t,t,t	<img class = center src='/static/experiments/beast_fmri_test/images/V.png'></img>	89,71	2750.0	test	<img class = center src='/static/experiments/beast_fmri_test/images/redV.png'></img>	go	1850.0	2.0	11.0	go	non-target	V	89,Middle Finger	71,Index Finger	800.0	900.0	2000.0	1850.0	1.0	n/a	900.0	1.0	go_stim
51017.0	5000.0	n/a	1669	71	2750	5000.0	stim	stop-signal	222	643046	0.0-13.11-1.11	beast_fmri_test	311	640722,/,641402,/,642082,/,642760,/,643441,/,644122,/,644800,/,645480,/,646161,/,646840,/,647519,/	t,t,t,t,t,t,t,t,t,t,t	<img class = center src='/static/experiments/beast_fmri_test/images/V.png'></img>	89,71	2750.0	test	<img class = center src='/static/experiments/beast_fmri_test/images/redV.png'></img>	go	1850.0	2.0	11.0	go	non-target	V	89,Middle Finger	71,Index Finger	800.0	900.0	2000.0	1850.0	1.0	n/a	900.0	1.0	ITI
61544	500.0	n/a	-1	-1	500	0.0	fixation	poldrack-single-stim	223	648573	0.0-13.12-0.12	beast_fmri_test	311	648199,/	t	<div class = centerbox2><div class = fixation>+</div></div>	none	500.0	test	n/a	n/a	n/a	n/a	n/a	n/a	n/a	n/a	n/a	n/a	n/a	n/a	n/a	n/a	n/a	n/a	n/a	n/a	fixation
59577.591909001232	2750.0	n/a	1197	89	2750	1968.408091	stim	stop-signal	224	651325	0.0-13.12-1.12	beast_fmri_test	311	648879,/,649558,/,650239,/,650918,/,651597,/,652277,/,652957,/	t,t,t,t,t,t,t	<img class = center src='/static/experiments/beast_fmri_test/images/V.png'></img>	89,71	2750.0	test	<img class = center src='/static/experiments/beast_fmri_test/images/redV.png'></img>	go	1950.0	2.0	12.0	go	target	V	89,Middle Finger	71,Index Finger	800.0	900.0	1950.0	1850.0	1.0	n/a	800.0	1.0	go_stim
62327.591909001232	1968.408091	n/a	1197	89	2750	1968.408091	stim	stop-signal	224	651325	0.0-13.12-1.12	beast_fmri_test	311	648879,/,649558,/,650239,/,650918,/,651597,/,652277,/,652957,/	t,t,t,t,t,t,t	<img class = center src='/static/experiments/beast_fmri_test/images/V.png'></img>	89,71	2750.0	test	<img class = center src='/static/experiments/beast_fmri_test/images/redV.png'></img>	go	1950.0	2.0	12.0	go	target	V	89,Middle Finger	71,Index Finger	800.0	900.0	1950.0	1850.0	1.0	n/a	800.0	1.0	ITI
66791	500.0	n/a	-1	-1	500	0.0	fixation	poldrack-single-stim	225	653820	0.0-13.13-0.13	beast_fmri_test	311	653637,/	t	<div class = centerbox2><div class = fixation>+</div></div>	none	500.0	test	n/a	n/a	n/a	n/a	n/a	n/a	n/a	n/a	n/a	n/a	n/a	n/a	n/a	n/a	n/a	n/a	n/a	n/a	fixation
66690.73025672778	2750.0	n/a	1915	71	2750	101.269743272	stim	stop-signal	226	656571	0.0-13.13-1.13	beast_fmri_test	311	654317,/,654996,/,655676,/,656355,/	t,t,t,t	<img class = center src='/static/experiments/beast_fmri_test/images/B.png'></img>	89,71	2750.0	test	<img class = center src='/static/experiments/beast_fmri_test/images/redB.png'></img>	go	1850.0	2.0	13.0	go	non-target	B	89,Middle Finger	71,Index Finger	800.0	900.0	1950.0	1850.0	1.0	n/a	900.0	1.0	go_stim
69440.73025672778	101.269743272	n/a	1915	71	2750	101.269743272	stim	stop-signal	226	656571	0.0-13.13-1.13	beast_fmri_test	311	654317,/,654996,/,655676,/,656355,/	t,t,t,t	<img class = center src='/static/experiments/beast_fmri_test/images/B.png'></img>	89,71	2750.0	test	<img class = center src='/static/experiments/beast_fmri_test/images/redB.png'></img>	go	1850.0	2.0	13.0	go	non-target	B	89,Middle Finger	71,Index Finger	800.0	900.0	1950.0	1850.0	1.0	n/a	900.0	1.0	ITI
70172	500.0	n/a	-1	-1	500	0.0	fixation	poldrack-single-stim	227	657201	0.0-13.14-0.14	beast_fmri_test	311	657035,/	t	<div class = centerbox2><div class = fixation>+</div></div>	none	500.0	test	n/a	n/a	n/a	n/a	n/a	n/a	n/a	n/a	n/a	n/a	n/a	n/a	n/a	n/a	n/a	n/a	n/a	n/a	fixation
70115.789256131044	900.0	n/a	-1	-1	2750	57.2107438689	stim	stop-signal	228	659952	0.0-13.14-1.14	beast_fmri_test	311	657715,/,658395,/,659074,/,659753,/	t,t,t,t	<img class = center src='/static/experiments/beast_fmri_test/images/D.png'></img>	89,71	2750.0	test	<img class = center src='/static/experiments/beast_fmri_test/images/redD.png'></img>	stop	1850.0	2.0	14.0	stop	non-target	D	89,Middle Finger	71,Index Finger	800.0	900.0	1950.0	1850.0	0.0	1.0	900.0	n/a	go_stim
71965.789256131044	1850.0	n/a	-1	-1	2750	57.2107438689	stim	stop-signal	228	659952	0.0-13.14-1.14	beast_fmri_test	311	657715,/,658395,/,659074,/,659753,/	t,t,t,t	<img class = center src='/static/experiments/beast_fmri_test/images/D.png'></img>	89,71	2750.0	test	<img class = center src='/static/experiments/beast_fmri_test/images/redD.png'></img>	stop	1850.0	2.0	14.0	stop	non-target	D	89,Middle Finger	71,Index Finger	800.0	900.0	1950.0	1850.0	0.0	1.0	900.0	n/a	stop_stim
72865.789256131044	57.2107438689	n/a	-1	-1	2750	57.2107438689	stim	stop-signal	228	659952	0.0-13.14-1.14	beast_fmri_test	311	657715,/,658395,/,659074,/,659753,/	t,t,t,t	<img class = center src='/static/experiments/beast_fmri_test/images/D.png'></img>	89,71	2750.0	test	<img class = center src='/static/experiments/beast_fmri_test/images/redD.png'></img>	stop	1850.0	2.0	14.0	stop	non-target	D	89,Middle Finger	71,Index Finger	800.0	900.0	1950.0	1850.0	0.0	1.0	900.0	n/a	ITI
73509	500.0	n/a	-1	-1	500	0.0	fixation	poldrack-single-stim	229	660538	0.0-13.15-0.15	beast_fmri_test	311	660433,/	t	<div class = centerbox2><div class = fixation>+</div></div>	none	500.0	test	n/a	n/a	n/a	n/a	n/a	n/a	n/a	n/a	n/a	n/a	n/a	n/a	n/a	n/a	n/a	n/a	n/a	n/a	fixation
73394.7193789226	950.0	n/a	-1	-1	2750	118.280621077	stim	stop-signal	230	663292	0.0-13.15-1.15	beast_fmri_test	311	661113,/,661792,/,662471,/,663152,/	t,t,t,t	<img class = center src='/static/experiments/beast_fmri_test/images/V.png'></img>	89,71	2750.0	test	<img class = center src='/static/experiments/beast_fmri_test/images/redV.png'></img>	stop	1800.0	2.0	15.0	stop	non-target	V	89,Middle Finger	71,Index Finger	800.0	950.0	1950.0	1800.0	0.0	1.0	950.0	n/a	go_stim
75194.7193789226	1800.0	n/a	-1	-1	2750	118.280621077	stim	stop-signal	230	663292	0.0-13.15-1.15	beast_fmri_test	311	661113,/,661792,/,662471,/,663152,/	t,t,t,t	<img class = center src='/static/experiments/beast_fmri_test/images/V.png'></img>	89,71	2750.0	test	<img class = center src='/static/experiments/beast_fmri_test/images/redV.png'></img>	stop	1800.0	2.0	15.0	stop	non-target	V	89,Middle Finger	71,Index Finger	800.0	950.0	1950.0	1800.0	0.0	1.0	950.0	n/a	stop_stim
76144.7193789226	118.280621077	n/a	-1	-1	2750	118.280621077	stim	stop-signal	230	663292	0.0-13.15-1.15	beast_fmri_test	311	661113,/,661792,/,662471,/,663152,/	t,t,t,t	<img class = center src='/static/experiments/beast_fmri_test/images/V.png'></img>	89,71	2750.0	test	<img class = center src='/static/experiments/beast_fmri_test/images/redV.png'></img>	stop	1800.0	2.0	15.0	stop	non-target	V	89,Middle Finger	71,Index Finger	800.0	950.0	1950.0	1800.0	0.0	1.0	950.0	n/a	ITI
76911	500.0	n/a	-1	-1	500	0.0	fixation	poldrack-single-stim	231	663940	0.0-13.16-0.16	beast_fmri_test	311	663832,/	t	<div class = centerbox2><div class = fixation>+</div></div>	none	500.0	test	n/a	n/a	n/a	n/a	n/a	n/a	n/a	n/a	n/a	n/a	n/a	n/a	n/a	n/a	n/a	n/a	n/a	n/a	fixation
74779.191656488343	2750.0	n/a	1493	71	2750	2133.80834351	stim	stop-signal	232	666692	0.0-13.16-1.16	beast_fmri_test	311	664512,/,665191,/,665871,/,666550,/,667229,/,667910,/,668589,/	t,t,t,t,t,t,t	<img class = center src='/static/experiments/beast_fmri_test/images/B.png'></img>	89,71	2750.0	test	<img class = center src='/static/experiments/beast_fmri_test/images/redB.png'></img>	go	1750.0	2.0	16.0	go	non-target	B	89,Middle Finger	71,Index Finger	800.0	1000.0	1950.0	1750.0	1.0	n/a	1000.0	1.0	go_stim
77529.191656488343	2133.80834351	n/a	1493	71	2750	2133.80834351	stim	stop-signal	232	666692	0.0-13.16-1.16	beast_fmri_test	311	664512,/,665191,/,665871,/,666550,/,667229,/,667910,/,668589,/	t,t,t,t,t,t,t	<img class = center src='/static/experiments/beast_fmri_test/images/B.png'></img>	89,71	2750.0	test	<img class = center src='/static/experiments/beast_fmri_test/images/redB.png'></img>	go	1750.0	2.0	16.0	go	non-target	B	89,Middle Finger	71,Index Finger	800.0	1000.0	1950.0	1750.0	1.0	n/a	1000.0	1.0	ITI
82324	500.0	n/a	-1	-1	500	0.0	fixation	poldrack-single-stim	233	669353	0.0-13.17-0.17	beast_fmri_test	311	669269,/	t	<div class = centerbox2><div class = fixation>+</div></div>	none	500.0	test	n/a	n/a	n/a	n/a	n/a	n/a	n/a	n/a	n/a	n/a	n/a	n/a	n/a	n/a	n/a	n/a	n/a	n/a	fixation
82310.694498766679	2750.0	n/a	1738	71	2750	15.3055012334	stim	stop-signal	234	672105	0.0-13.17-1.17	beast_fmri_test	311	669949,/,670629,/,671308,/,671986,/	t,t,t,t	<img class = center src='/static/experiments/beast_fmri_test/images/D.png'></img>	89,71	2750.0	test	<img class = center src='/static/experiments/beast_fmri_test/images/redD.png'></img>	go	1750.0	2.0	17.0	go	non-target	D	89,Middle Finger	71,Index Finger	800.0	1000.0	1950.0	1750.0	1.0	n/a	1000.0	1.0	go_stim
85060.694498766679	15.3055012334	n/a	1738	71	2750	15.3055012334	stim	stop-signal	234	672105	0.0-13.17-1.17	beast_fmri_test	311	669949,/,670629,/,671308,/,671986,/	t,t,t,t	<img class = center src='/static/experiments/beast_fmri_test/images/D.png'></img>	89,71	2750.0	test	<img class = center src='/static/experiments/beast_fmri_test/images/redD.png'></img>	go	1750.0	2.0	17.0	go	non-target	D	89,Middle Finger	71,Index Finger	800.0	1000.0	1950.0	1750.0	1.0	n/a	1000.0	1.0	ITI
85617	500.0	n/a	-1	-1	500	0.0	fixation	poldrack-single-stim	235	672646	0.0-13.18-0.18	beast_fmri_test	311	n/a	n/a	<div class = centerbox2><div class = fixation>+</div></div>	none	500.0	test	n/a	n/a	n/a	n/a	n/a	n/a	n/a	n/a	n/a	n/a	n/a	n/a	n/a	n/a	n/a	n/a	n/a	n/a	fixation
85488.018125732313	1000.0	n/a	-1	-1	2750	130.981874268	stim	stop-signal	236	675398	0.0-13.18-1.18	beast_fmri_test	311	672668,/,673347,/,674027,/,674707,/,675386,/	t,t,t,t,t	<img class = center src='/static/experiments/beast_fmri_test/images/P.png'></img>	89,71	2750.0	test	<img class = center src='/static/experiments/beast_fmri_test/images/redP.png'></img>	stop	1750.0	2.0	18.0	stop	non-target	P	89,Middle Finger	71,Index Finger	800.0	1000.0	1950.0	1750.0	0.0	1.0	1000.0	n/a	go_stim
87238.018125732313	1750.0	n/a	-1	-1	2750	130.981874268	stim	stop-signal	236	675398	0.0-13.18-1.18	beast_fmri_test	311	672668,/,673347,/,674027,/,674707,/,675386,/	t,t,t,t,t	<img class = center src='/static/experiments/beast_fmri_test/images/P.png'></img>	89,71	2750.0	test	<img class = center src='/static/experiments/beast_fmri_test/images/redP.png'></img>	stop	1750.0	2.0	18.0	stop	non-target	P	89,Middle Finger	71,Index Finger	800.0	1000.0	1950.0	1750.0	0.0	1.0	1000.0	n/a	stop_stim
88238.018125732313	130.981874268	n/a	-1	-1	2750	130.981874268	stim	stop-signal	236	675398	0.0-13.18-1.18	beast_fmri_test	311	672668,/,673347,/,674027,/,674707,/,675386,/	t,t,t,t,t	<img class = center src='/static/experiments/beast_fmri_test/images/P.png'></img>	89,71	2750.0	test	<img class = center src='/static/experiments/beast_fmri_test/images/redP.png'></img>	stop	1750.0	2.0	18.0	stop	non-target	P	89,Middle Finger	71,Index Finger	800.0	1000.0	1950.0	1750.0	0.0	1.0	1000.0	n/a	ITI
89029	500.0	n/a	-1	-1	500	0.0	fixation	poldrack-single-stim	237	676058	0.0-13.19-0.19	beast_fmri_test	311	n/a	n/a	<div class = centerbox2><div class = fixation>+</div></div>	none	500.0	test	n/a	n/a	n/a	n/a	n/a	n/a	n/a	n/a	n/a	n/a	n/a	n/a	n/a	n/a	n/a	n/a	n/a	n/a	fixation
88239.914515716722	2750.0	n/a	1666	71	2750	789.085484283	stim	stop-signal	238	678808	0.0-13.19-1.19	beast_fmri_test	311	676066,/,676745,/,677426,/,678106,/,678785,/,679465,/	t,t,t,t,t,t	<img class = center src='/static/experiments/beast_fmri_test/images/D.png'></img>	89,71	2750.0	test	<img class = center src='/static/experiments/beast_fmri_test/images/redD.png'></img>	go	1950.0	2.0	19.0	go	target	D	89,Middle Finger	71,Index Finger	800.0	1050.0	1950.0	1750.0	0.0	n/a	800.0	0.0	go_stim
90989.914515716722	789.085484283	n/a	1666	71	2750	789.085484283	stim	stop-signal	238	678808	0.0-13.19-1.19	beast_fmri_test	311	676066,/,676745,/,677426,/,678106,/,678785,/,679465,/	t,t,t,t,t,t	<img class = center src='/static/experiments/beast_fmri_test/images/D.png'></img>	89,71	2750.0	test	<img class = center src='/static/experiments/beast_fmri_test/images/redD.png'></img>	go	1950.0	2.0	19.0	go	target	D	89,Middle Finger	71,Index Finger	800.0	1050.0	1950.0	1750.0	0.0	n/a	800.0	0.0	ITI
93096	500.0	n/a	-1	-1	500	0.0	fixation	poldrack-single-stim	239	680125	0.0-13.20-0.20	beast_fmri_test	311	n/a	n/a	<div class = centerbox2><div class = fixation>+</div></div>	none	500.0	test	n/a	n/a	n/a	n/a	n/a	n/a	n/a	n/a	n/a	n/a	n/a	n/a	n/a	n/a	n/a	n/a	n/a	n/a	fixation
92173.7356514727	2750.0	n/a	949	71	2750	924.264348527	stim	stop-signal	240	682877	0.0-13.20-1.20	beast_fmri_test	311	680143,/,680824,/,681504,/,682183,/,682863,/,683543,/	t,t,t,t,t,t	<img class = center src='/static/experiments/beast_fmri_test/images/B.png'></img>	89,71	2750.0	test	<img class = center src='/static/experiments/beast_fmri_test/images/redB.png'></img>	go	1700.0	2.0	20.0	go	non-target	B	89,Middle Finger	71,Index Finger	800.0	1050.0	1950.0	1700.0	1.0	n/a	1050.0	1.0	go_stim
94923.7356514727	924.264348527	n/a	949	71	2750	924.264348527	stim	stop-signal	240	682877	0.0-13.20-1.20	beast_fmri_test	311	680143,/,680824,/,681504,/,682183,/,682863,/,683543,/	t,t,t,t,t,t	<img class = center src='/static/experiments/beast_fmri_test/images/B.png'></img>	89,71	2750.0	test	<img class = center src='/static/experiments/beast_fmri_test/images/redB.png'></img>	go	1700.0	2.0	20.0	go	non-target	B	89,Middle Finger	71,Index Finger	800.0	1050.0	1950.0	1700.0	1.0	n/a	1050.0	1.0	ITI
97299	500.0	n/a	-1	-1	500	0.0	fixation	poldrack-single-stim	241	684328	0.0-13.21-0.21	beast_fmri_test	311	684223,/	t	<div class = centerbox2><div class = fixation>+</div></div>	none	500.0	test	n/a	n/a	n/a	n/a	n/a	n/a	n/a	n/a	n/a	n/a	n/a	n/a	n/a	n/a	n/a	n/a	n/a	n/a	fixation
97063.602766660741	800.0	n/a	-1	-1	2750	238.397233339	stim	stop-signal	242	687081	0.0-13.21-1.21	beast_fmri_test	311	684902,/,685582,/,686261,/,686941,/	t,t,t,t	<img class = center src='/static/experiments/beast_fmri_test/images/D.png'></img>	89,71	2750.0	test	<img class = center src='/static/experiments/beast_fmri_test/images/redD.png'></img>	stop	1950.0	2.0	21.0	stop	target	D	89,Middle Finger	71,Index Finger	800.0	1050.0	1950.0	1700.0	0.0	1.0	800.0	n/a	go_stim
99013.602766660741	1950.0	n/a	-1	-1	2750	238.397233339	stim	stop-signal	242	687081	0.0-13.21-1.21	beast_fmri_test	311	684902,/,685582,/,686261,/,686941,/	t,t,t,t	<img class = center src='/static/experiments/beast_fmri_test/images/D.png'></img>	89,71	2750.0	test	<img class = center src='/static/experiments/beast_fmri_test/images/redD.png'></img>	stop	1950.0	2.0	21.0	stop	target	D	89,Middle Finger	71,Index Finger	800.0	1050.0	1950.0	1700.0	0.0	1.0	800.0	n/a	stop_stim
99813.602766660741	238.397233339	n/a	-1	-1	2750	238.397233339	stim	stop-signal	242	687081	0.0-13.21-1.21	beast_fmri_test	311	684902,/,685582,/,686261,/,686941,/	t,t,t,t	<img class = center src='/static/experiments/beast_fmri_test/images/D.png'></img>	89,71	2750.0	test	<img class = center src='/static/experiments/beast_fmri_test/images/redD.png'></img>	stop	1950.0	2.0	21.0	stop	target	D	89,Middle Finger	71,Index Finger	800.0	1050.0	1950.0	1700.0	0.0	1.0	800.0	n/a	ITI
100821	500.0	n/a	-1	-1	500	0.0	fixation	poldrack-single-stim	243	687850	0.0-13.22-0.22	beast_fmri_test	311	687621,/	t	<div class = centerbox2><div class = fixation>+</div></div>	none	500.0	test	n/a	n/a	n/a	n/a	n/a	n/a	n/a	n/a	n/a	n/a	n/a	n/a	n/a	n/a	n/a	n/a	n/a	n/a	fixation
100605.80389696173	2750.0	n/a	1637	71	2750	217.196103038	stim	stop-signal	244	690602	0.0-13.22-1.22	beast_fmri_test	311	688301,/,688980,/,689659,/,690339,/	t,t,t,t	<img class = center src='/static/experiments/beast_fmri_test/images/D.png'></img>	89,71	2750.0	test	<img class = center src='/static/experiments/beast_fmri_test/images/redD.png'></img>	go	1700.0	2.0	22.0	go	non-target	D	89,Middle Finger	71,Index Finger	850.0	1050.0	1950.0	1700.0	1.0	n/a	1050.0	1.0	go_stim
103355.80389696173	217.196103038	n/a	1637	71	2750	217.196103038	stim	stop-signal	244	690602	0.0-13.22-1.22	beast_fmri_test	311	688301,/,688980,/,689659,/,690339,/	t,t,t,t	<img class = center src='/static/experiments/beast_fmri_test/images/D.png'></img>	89,71	2750.0	test	<img class = center src='/static/experiments/beast_fmri_test/images/redD.png'></img>	go	1700.0	2.0	22.0	go	non-target	D	89,Middle Finger	71,Index Finger	850.0	1050.0	1950.0	1700.0	1.0	n/a	1050.0	1.0	ITI
104319	500.0	n/a	-1	-1	500	0.0	fixation	poldrack-single-stim	245	691348	0.0-13.23-0.23	beast_fmri_test	311	691018,/	t	<div class = centerbox2><div class = fixation>+</div></div>	none	500.0	test	n/a	n/a	n/a	n/a	n/a	n/a	n/a	n/a	n/a	n/a	n/a	n/a	n/a	n/a	n/a	n/a	n/a	n/a	fixation
103351.67033227719	2750.0	n/a	1779	71	2750	969.329667723	stim	stop-signal	246	694100	0.0-13.23-1.23	beast_fmri_test	311	691699,/,692379,/,693058,/,693738,/,694417,/	t,t,t,t,t	<img class = center src='/static/experiments/beast_fmri_test/images/P.png'></img>	89,71	2750.0	test	<img class = center src='/static/experiments/beast_fmri_test/images/redP.png'></img>	go	1700.0	2.0	23.0	go	non-target	P	89,Middle Finger	71,Index Finger	850.0	1050.0	1950.0	1700.0	1.0	n/a	1050.0	1.0	go_stim
106101.67033227719	969.329667723	n/a	1779	71	2750	969.329667723	stim	stop-signal	246	694100	0.0-13.23-1.23	beast_fmri_test	311	691699,/,692379,/,693058,/,693738,/,694417,/	t,t,t,t,t	<img class = center src='/static/experiments/beast_fmri_test/images/P.png'></img>	89,71	2750.0	test	<img class = center src='/static/experiments/beast_fmri_test/images/redP.png'></img>	go	1700.0	2.0	23.0	go	non-target	P	89,Middle Finger	71,Index Finger	850.0	1050.0	1950.0	1700.0	1.0	n/a	1050.0	1.0	ITI
108572	500.0	n/a	-1	-1	500	0.0	fixation	poldrack-single-stim	247	695601	0.0-13.24-0.24	beast_fmri_test	311	695099,/	t	<div class = centerbox2><div class = fixation>+</div></div>	none	500.0	test	n/a	n/a	n/a	n/a	n/a	n/a	n/a	n/a	n/a	n/a	n/a	n/a	n/a	n/a	n/a	n/a	n/a	n/a	fixation
107677.68616953422	2750.0	n/a	1333	89	2750	897.313830466	stim	stop-signal	248	698354	0.0-13.24-1.24	beast_fmri_test	311	695777,/,696457,/,697137,/,697816,/,698495,/,699175,/	t,t,t,t,t,t	<img class = center src='/static/experiments/beast_fmri_test/images/D.png'></img>	89,71	2750.0	test	<img class = center src='/static/experiments/beast_fmri_test/images/redD.png'></img>	go	1900.0	2.0	24.0	go	target	D	89,Middle Finger	71,Index Finger	850.0	1050.0	1900.0	1700.0	1.0	n/a	850.0	1.0	go_stim
110427.68616953422	897.313830466	n/a	1333	89	2750	897.313830466	stim	stop-signal	248	698354	0.0-13.24-1.24	beast_fmri_test	311	695777,/,696457,/,697137,/,697816,/,698495,/,699175,/	t,t,t,t,t,t	<img class = center src='/static/experiments/beast_fmri_test/images/D.png'></img>	89,71	2750.0	test	<img class = center src='/static/experiments/beast_fmri_test/images/redD.png'></img>	go	1900.0	2.0	24.0	go	target	D	89,Middle Finger	71,Index Finger	850.0	1050.0	1900.0	1700.0	1.0	n/a	850.0	1.0	ITI
112755	500.0	n/a	-1	-1	500	0.0	fixation	poldrack-single-stim	249	699784	0.0-13.25-0.25	beast_fmri_test	311	n/a	n/a	<div class = centerbox2><div class = fixation>+</div></div>	none	500.0	test	n/a	n/a	n/a	n/a	n/a	n/a	n/a	n/a	n/a	n/a	n/a	n/a	n/a	n/a	n/a	n/a	n/a	n/a	fixation
110479.42280698917	2750.0	n/a	720	89	2750	2277.57719301	stim	stop-signal	250	702536	0.0-13.25-1.25	beast_fmri_test	311	699854,/,700534,/,701214,/,701894,/,702573,/,703253,/,703933,/,704614,/	t,t,t,t,t,t,t,t	<img class = center src='/static/experiments/beast_fmri_test/images/P.png'></img>	89,71	2750.0	test	<img class = center src='/static/experiments/beast_fmri_test/images/redP.png'></img>	go	1900.0	2.0	25.0	go	target	P	89,Middle Finger	71,Index Finger	850.0	1050.0	1900.0	1700.0	1.0	n/a	850.0	1.0	go_stim
113229.42280698917	2277.57719301	n/a	720	89	2750	2277.57719301	stim	stop-signal	250	702536	0.0-13.25-1.25	beast_fmri_test	311	699854,/,700534,/,701214,/,701894,/,702573,/,703253,/,703933,/,704614,/	t,t,t,t,t,t,t,t	<img class = center src='/static/experiments/beast_fmri_test/images/P.png'></img>	89,71	2750.0	test	<img class = center src='/static/experiments/beast_fmri_test/images/redP.png'></img>	go	1900.0	2.0	25.0	go	target	P	89,Middle Finger	71,Index Finger	850.0	1050.0	1900.0	1700.0	1.0	n/a	850.0	1.0	ITI
118314	500.0	n/a	-1	-1	500	0.0	fixation	poldrack-single-stim	251	705343	0.0-13.26-0.26	beast_fmri_test	311	705292,/	t	<div class = centerbox2><div class = fixation>+</div></div>	none	500.0	test	n/a	n/a	n/a	n/a	n/a	n/a	n/a	n/a	n/a	n/a	n/a	n/a	n/a	n/a	n/a	n/a	n/a	n/a	fixation
117648.21320716082	2750.0	n/a	1065	71	2750	668.786792839	stim	stop-signal	252	708096	0.0-13.26-1.26	beast_fmri_test	311	705972,/,706651,/,707332,/,708011,/,708691,/	t,t,t,t,t	<img class = center src='/static/experiments/beast_fmri_test/images/B.png'></img>	89,71	2750.0	test	<img class = center src='/static/experiments/beast_fmri_test/images/redB.png'></img>	go	1700.0	2.0	26.0	go	non-target	B	89,Middle Finger	71,Index Finger	850.0	1050.0	1900.0	1700.0	1.0	n/a	1050.0	1.0	go_stim
120398.21320716082	668.786792839	n/a	1065	71	2750	668.786792839	stim	stop-signal	252	708096	0.0-13.26-1.26	beast_fmri_test	311	705972,/,706651,/,707332,/,708011,/,708691,/	t,t,t,t,t	<img class = center src='/static/experiments/beast_fmri_test/images/B.png'></img>	89,71	2750.0	test	<img class = center src='/static/experiments/beast_fmri_test/images/redB.png'></img>	go	1700.0	2.0	26.0	go	non-target	B	89,Middle Finger	71,Index Finger	850.0	1050.0	1900.0	1700.0	1.0	n/a	1050.0	1.0	ITI
122266	500.0	n/a	-1	-1	500	0.0	fixation	poldrack-single-stim	253	709295	0.0-13.27-0.27	beast_fmri_test	311	n/a	n/a	<div class = centerbox2><div class = fixation>+</div></div>	none	500.0	test	n/a	n/a	n/a	n/a	n/a	n/a	n/a	n/a	n/a	n/a	n/a	n/a	n/a	n/a	n/a	n/a	n/a	n/a	fixation
121497.55755372543	2750.0	n/a	1302	89	2750	769.442446275	stim	stop-signal	254	712046	0.0-13.27-1.27	beast_fmri_test	311	709370,/,710051,/,710729,/,711410,/,712089,/,712769,/	t,t,t,t,t,t	<img class = center src='/static/experiments/beast_fmri_test/images/P.png'></img>	89,71	2750.0	test	<img class = center src='/static/experiments/beast_fmri_test/images/redP.png'></img>	go	1900.0	2.0	27.0	go	target	P	89,Middle Finger	71,Index Finger	850.0	1050.0	1900.0	1700.0	1.0	n/a	850.0	1.0	go_stim
124247.55755372543	769.442446275	n/a	1302	89	2750	769.442446275	stim	stop-signal	254	712046	0.0-13.27-1.27	beast_fmri_test	311	709370,/,710051,/,710729,/,711410,/,712089,/,712769,/	t,t,t,t,t,t	<img class = center src='/static/experiments/beast_fmri_test/images/P.png'></img>	89,71	2750.0	test	<img class = center src='/static/experiments/beast_fmri_test/images/redP.png'></img>	go	1900.0	2.0	27.0	go	target	P	89,Middle Finger	71,Index Finger	850.0	1050.0	1900.0	1700.0	1.0	n/a	850.0	1.0	ITI
126319	500.0	n/a	-1	-1	500	0.0	fixation	poldrack-single-stim	255	713348	0.0-13.28-0.28	beast_fmri_test	311	n/a	n/a	<div class = centerbox2><div class = fixation>+</div></div>	none	500.0	test	n/a	n/a	n/a	n/a	n/a	n/a	n/a	n/a	n/a	n/a	n/a	n/a	n/a	n/a	n/a	n/a	n/a	n/a	fixation
125687.67811960017	2750.0	n/a	1293	71	2750	632.3218804	stim	stop-signal	256	716099	0.0-13.28-1.28	beast_fmri_test	311	713449,/,714129,/,714809,/,715488,/,716167,/	t,t,t,t,t	<img class = center src='/static/experiments/beast_fmri_test/images/D.png'></img>	89,71	2750.0	test	<img class = center src='/static/experiments/beast_fmri_test/images/redD.png'></img>	go	1700.0	2.0	28.0	go	non-target	D	89,Middle Finger	71,Index Finger	850.0	1050.0	1900.0	1700.0	1.0	n/a	1050.0	1.0	go_stim
128437.67811960017	632.3218804	n/a	1293	71	2750	632.3218804	stim	stop-signal	256	716099	0.0-13.28-1.28	beast_fmri_test	311	713449,/,714129,/,714809,/,715488,/,716167,/	t,t,t,t,t	<img class = center src='/static/experiments/beast_fmri_test/images/D.png'></img>	89,71	2750.0	test	<img class = center src='/static/experiments/beast_fmri_test/images/redD.png'></img>	go	1700.0	2.0	28.0	go	non-target	D	89,Middle Finger	71,Index Finger	850.0	1050.0	1900.0	1700.0	1.0	n/a	1050.0	1.0	ITI
130234	500.0	n/a	-1	-1	500	0.0	fixation	poldrack-single-stim	257	717263	0.0-13.29-0.29	beast_fmri_test	311	716847,/	t	<div class = centerbox2><div class = fixation>+</div></div>	none	500.0	test	n/a	n/a	n/a	n/a	n/a	n/a	n/a	n/a	n/a	n/a	n/a	n/a	n/a	n/a	n/a	n/a	n/a	n/a	fixation
128926.57233289466	2750.0	n/a	1778	89	2750	1308.42766711	stim	stop-signal	258	720014	0.0-13.29-1.29	beast_fmri_test	311	717527,/,718207,/,718886,/,719565,/,720245,/,720925,/	t,t,t,t,t,t	<img class = center src='/static/experiments/beast_fmri_test/images/P.png'></img>	89,71	2750.0	test	<img class = center src='/static/experiments/beast_fmri_test/images/redP.png'></img>	go	1900.0	2.0	29.0	go	target	P	89,Middle Finger	71,Index Finger	850.0	1050.0	1900.0	1700.0	1.0	n/a	850.0	1.0	go_stim
131676.57233289466	1308.42766711	n/a	1778	89	2750	1308.42766711	stim	stop-signal	258	720014	0.0-13.29-1.29	beast_fmri_test	311	717527,/,718207,/,718886,/,719565,/,720245,/,720925,/	t,t,t,t,t,t	<img class = center src='/static/experiments/beast_fmri_test/images/P.png'></img>	89,71	2750.0	test	<img class = center src='/static/experiments/beast_fmri_test/images/redP.png'></img>	go	1900.0	2.0	29.0	go	target	P	89,Middle Finger	71,Index Finger	850.0	1050.0	1900.0	1700.0	1.0	n/a	850.0	1.0	ITI
134819	500.0	n/a	-1	-1	500	0.0	fixation	poldrack-single-stim	259	721848	0.0-13.30-0.30	beast_fmri_test	311	721605,/	t	<div class = centerbox2><div class = fixation>+</div></div>	none	500.0	test	n/a	n/a	n/a	n/a	n/a	n/a	n/a	n/a	n/a	n/a	n/a	n/a	n/a	n/a	n/a	n/a	n/a	n/a	fixation
134454.68467705697	2750.0	n/a	1079	71	2750	365.315322943	stim	stop-signal	260	724599	0.0-13.30-1.30	beast_fmri_test	311	722285,/,722964,/,723643,/,724324,/	t,t,t,t	<img class = center src='/static/experiments/beast_fmri_test/images/V.png'></img>	89,71	2750.0	test	<img class = center src='/static/experiments/beast_fmri_test/images/redV.png'></img>	go	1700.0	2.0	30.0	go	non-target	V	89,Middle Finger	71,Index Finger	850.0	1050.0	1900.0	1700.0	1.0	n/a	1050.0	1.0	go_stim
137204.68467705697	365.315322943	n/a	1079	71	2750	365.315322943	stim	stop-signal	260	724599	0.0-13.30-1.30	beast_fmri_test	311	722285,/,722964,/,723643,/,724324,/	t,t,t,t	<img class = center src='/static/experiments/beast_fmri_test/images/V.png'></img>	89,71	2750.0	test	<img class = center src='/static/experiments/beast_fmri_test/images/redV.png'></img>	go	1700.0	2.0	30.0	go	non-target	V	89,Middle Finger	71,Index Finger	850.0	1050.0	1900.0	1700.0	1.0	n/a	1050.0	1.0	ITI
138467	500.0	n/a	-1	-1	500	0.0	fixation	poldrack-single-stim	261	725496	0.0-13.31-0.31	beast_fmri_test	311	725002,/	t	<div class = centerbox2><div class = fixation>+</div></div>	none	500.0	test	n/a	n/a	n/a	n/a	n/a	n/a	n/a	n/a	n/a	n/a	n/a	n/a	n/a	n/a	n/a	n/a	n/a	n/a	fixation
137548.60091025953	850.0	n/a	-1	-1	2750	921.39908974	stim	stop-signal	262	728249	0.0-13.31-1.31	beast_fmri_test	311	725683,/,726362,/,727043,/,727721,/,728401,/,729081,/	t,t,t,t,t,t	<img class = center src='/static/experiments/beast_fmri_test/images/P.png'></img>	89,71	2750.0	test	<img class = center src='/static/experiments/beast_fmri_test/images/redP.png'></img>	stop	1900.0	2.0	31.0	stop	target	P	89,Middle Finger	71,Index Finger	850.0	1050.0	1900.0	1700.0	0.0	1.0	850.0	n/a	go_stim
139448.60091025953	1900.0	n/a	-1	-1	2750	921.39908974	stim	stop-signal	262	728249	0.0-13.31-1.31	beast_fmri_test	311	725683,/,726362,/,727043,/,727721,/,728401,/,729081,/	t,t,t,t,t,t	<img class = center src='/static/experiments/beast_fmri_test/images/P.png'></img>	89,71	2750.0	test	<img class = center src='/static/experiments/beast_fmri_test/images/redP.png'></img>	stop	1900.0	2.0	31.0	stop	target	P	89,Middle Finger	71,Index Finger	850.0	1050.0	1900.0	1700.0	0.0	1.0	850.0	n/a	stop_stim
140298.60091025953	921.39908974	n/a	-1	-1	2750	921.39908974	stim	stop-signal	262	728249	0.0-13.31-1.31	beast_fmri_test	311	725683,/,726362,/,727043,/,727721,/,728401,/,729081,/	t,t,t,t,t,t	<img class = center src='/static/experiments/beast_fmri_test/images/P.png'></img>	89,71	2750.0	test	<img class = center src='/static/experiments/beast_fmri_test/images/redP.png'></img>	stop	1900.0	2.0	31.0	stop	target	P	89,Middle Finger	71,Index Finger	850.0	1050.0	1900.0	1700.0	0.0	1.0	850.0	n/a	ITI
142671	500.0	n/a	-1	-1	500	0.0	fixation	poldrack-single-stim	263	729700	0.0-13.32-0.32	beast_fmri_test	311	n/a	n/a	<div class = centerbox2><div class = fixation>+</div></div>	none	500.0	test	n/a	n/a	n/a	n/a	n/a	n/a	n/a	n/a	n/a	n/a	n/a	n/a	n/a	n/a	n/a	n/a	n/a	n/a	fixation
142068.90028989955	2750.0	n/a	2243	71	2750	605.0997101	stim	stop-signal	264	732453	0.0-13.32-1.32	beast_fmri_test	311	729762,/,730441,/,731120,/,731801,/,732479,/	t,t,t,t,t	<img class = center src='/static/experiments/beast_fmri_test/images/P.png'></img>	89,71	2750.0	test	<img class = center src='/static/experiments/beast_fmri_test/images/redP.png'></img>	go	1700.0	2.0	32.0	go	non-target	P	89,Middle Finger	71,Index Finger	900.0	1050.0	1900.0	1700.0	1.0	n/a	1050.0	1.0	go_stim
144818.90028989955	605.0997101	n/a	2243	71	2750	605.0997101	stim	stop-signal	264	732453	0.0-13.32-1.32	beast_fmri_test	311	729762,/,730441,/,731120,/,731801,/,732479,/	t,t,t,t,t	<img class = center src='/static/experiments/beast_fmri_test/images/P.png'></img>	89,71	2750.0	test	<img class = center src='/static/experiments/beast_fmri_test/images/redP.png'></img>	go	1700.0	2.0	32.0	go	non-target	P	89,Middle Finger	71,Index Finger	900.0	1050.0	1900.0	1700.0	1.0	n/a	1050.0	1.0	ITI
146561	500.0	n/a	-1	-1	500	0.0	fixation	poldrack-single-stim	265	733590	0.0-13.33-0.33	beast_fmri_test	311	733159,/	t	<div class = centerbox2><div class = fixation>+</div></div>	none	500.0	test	n/a	n/a	n/a	n/a	n/a	n/a	n/a	n/a	n/a	n/a	n/a	n/a	n/a	n/a	n/a	n/a	n/a	n/a	fixation
145935.40765596915	2750.0	n/a	740	89	2750	627.592344031	stim	stop-signal	266	736342	0.0-13.33-1.33	beast_fmri_test	311	733840,/,734519,/,735199,/,735879,/,736558,/	t,t,t,t,t	<img class = center src='/static/experiments/beast_fmri_test/images/P.png'></img>	89,71	2750.0	test	<img class = center src='/static/experiments/beast_fmri_test/images/redP.png'></img>	go	1850.0	2.0	33.0	go	target	P	89,Middle Finger	71,Index Finger	900.0	1050.0	1850.0	1700.0	1.0	n/a	900.0	1.0	go_stim
148685.40765596915	627.592344031	n/a	740	89	2750	627.592344031	stim	stop-signal	266	736342	0.0-13.33-1.33	beast_fmri_test	311	733840,/,734519,/,735199,/,735879,/,736558,/	t,t,t,t,t	<img class = center src='/static/experiments/beast_fmri_test/images/P.png'></img>	89,71	2750.0	test	<img class = center src='/static/experiments/beast_fmri_test/images/redP.png'></img>	go	1850.0	2.0	33.0	go	target	P	89,Middle Finger	71,Index Finger	900.0	1050.0	1850.0	1700.0	1.0	n/a	900.0	1.0	ITI
150471	500.0	n/a	-1	-1	500	0.0	fixation	poldrack-single-stim	267	737500	0.0-13.34-0.34	beast_fmri_test	311	737238,/	t	<div class = centerbox2><div class = fixation>+</div></div>	none	500.0	test	n/a	n/a	n/a	n/a	n/a	n/a	n/a	n/a	n/a	n/a	n/a	n/a	n/a	n/a	n/a	n/a	n/a	n/a	fixation
148541.22759985598	2750.0	n/a	930	71	2750	1930.77240014	stim	stop-signal	268	740251	0.0-13.34-1.34	beast_fmri_test	311	737918,/,738597,/,739277,/,739957,/,740636,/,741316,/,741996,/	t,t,t,t,t,t,t	<img class = center src='/static/experiments/beast_fmri_test/images/T.png'></img>	89,71	2750.0	test	<img class = center src='/static/experiments/beast_fmri_test/images/redT.png'></img>	go	1700.0	2.0	34.0	go	non-target	T	89,Middle Finger	71,Index Finger	900.0	1050.0	1850.0	1700.0	1.0	n/a	1050.0	1.0	go_stim
151291.22759985598	1930.77240014	n/a	930	71	2750	1930.77240014	stim	stop-signal	268	740251	0.0-13.34-1.34	beast_fmri_test	311	737918,/,738597,/,739277,/,739957,/,740636,/,741316,/,741996,/	t,t,t,t,t,t,t	<img class = center src='/static/experiments/beast_fmri_test/images/T.png'></img>	89,71	2750.0	test	<img class = center src='/static/experiments/beast_fmri_test/images/redT.png'></img>	go	1700.0	2.0	34.0	go	non-target	T	89,Middle Finger	71,Index Finger	900.0	1050.0	1850.0	1700.0	1.0	n/a	1050.0	1.0	ITI
155683	500.0	n/a	-1	-1	500	0.0	fixation	poldrack-single-stim	269	742712	0.0-13.35-0.35	beast_fmri_test	311	742675,/	t	<div class = centerbox2><div class = fixation>+</div></div>	none	500.0	test	n/a	n/a	n/a	n/a	n/a	n/a	n/a	n/a	n/a	n/a	n/a	n/a	n/a	n/a	n/a	n/a	n/a	n/a	fixation
154743.18832675018	2750.0	n/a	1265	71	2750	941.81167325	stim	stop-signal	270	745464	0.0-13.35-1.35	beast_fmri_test	311	743355,/,744035,/,744714,/,745394,/,746073,/	t,t,t,t,t	<img class = center src='/static/experiments/beast_fmri_test/images/V.png'></img>	89,71	2750.0	test	<img class = center src='/static/experiments/beast_fmri_test/images/redV.png'></img>	go	1700.0	2.0	35.0	go	non-target	V	89,Middle Finger	71,Index Finger	900.0	1050.0	1850.0	1700.0	1.0	n/a	1050.0	1.0	go_stim
157493.18832675018	941.81167325	n/a	1265	71	2750	941.81167325	stim	stop-signal	270	745464	0.0-13.35-1.35	beast_fmri_test	311	743355,/,744035,/,744714,/,745394,/,746073,/	t,t,t,t,t	<img class = center src='/static/experiments/beast_fmri_test/images/V.png'></img>	89,71	2750.0	test	<img class = center src='/static/experiments/beast_fmri_test/images/redV.png'></img>	go	1700.0	2.0	35.0	go	non-target	V	89,Middle Finger	71,Index Finger	900.0	1050.0	1850.0	1700.0	1.0	n/a	1050.0	1.0	ITI
159910	500.0	n/a	-1	-1	500	0.0	fixation	poldrack-single-stim	271	746939	0.0-13.36-0.36	beast_fmri_test	311	746753,/	t	<div class = centerbox2><div class = fixation>+</div></div>	none	500.0	test	n/a	n/a	n/a	n/a	n/a	n/a	n/a	n/a	n/a	n/a	n/a	n/a	n/a	n/a	n/a	n/a	n/a	n/a	fixation
157617.86038441025	900.0	n/a	-1	-1	2750	2295.13961559	stim	stop-signal	272	749692	0.0-13.36-1.36	beast_fmri_test	311	747433,/,748113,/,748792,/,749472,/,750152,/,750831,/,751509,/	t,t,t,t,t,t,t	<img class = center src='/static/experiments/beast_fmri_test/images/T.png'></img>	89,71	2750.0	test	<img class = center src='/static/experiments/beast_fmri_test/images/redT.png'></img>	stop	1850.0	2.0	36.0	stop	target	T	89,Middle Finger	71,Index Finger	900.0	1050.0	1850.0	1700.0	0.0	1.0	900.0	n/a	go_stim
159467.86038441025	1850.0	n/a	-1	-1	2750	2295.13961559	stim	stop-signal	272	749692	0.0-13.36-1.36	beast_fmri_test	311	747433,/,748113,/,748792,/,749472,/,750152,/,750831,/,751509,/	t,t,t,t,t,t,t	<img class = center src='/static/experiments/beast_fmri_test/images/T.png'></img>	89,71	2750.0	test	<img class = center src='/static/experiments/beast_fmri_test/images/redT.png'></img>	stop	1850.0	2.0	36.0	stop	target	T	89,Middle Finger	71,Index Finger	900.0	1050.0	1850.0	1700.0	0.0	1.0	900.0	n/a	stop_stim
160367.86038441025	2295.13961559	n/a	-1	-1	2750	2295.13961559	stim	stop-signal	272	749692	0.0-13.36-1.36	beast_fmri_test	311	747433,/,748113,/,748792,/,749472,/,750152,/,750831,/,751509,/	t,t,t,t,t,t,t	<img class = center src='/static/experiments/beast_fmri_test/images/T.png'></img>	89,71	2750.0	test	<img class = center src='/static/experiments/beast_fmri_test/images/redT.png'></img>	stop	1850.0	2.0	36.0	stop	target	T	89,Middle Finger	71,Index Finger	900.0	1050.0	1850.0	1700.0	0.0	1.0	900.0	n/a	ITI
165488	500.0	n/a	-1	-1	500	0.0	fixation	poldrack-single-stim	273	752517	0.0-13.37-0.37	beast_fmri_test	311	752189,/	t	<div class = centerbox2><div class = fixation>+</div></div>	none	500.0	test	n/a	n/a	n/a	n/a	n/a	n/a	n/a	n/a	n/a	n/a	n/a	n/a	n/a	n/a	n/a	n/a	n/a	n/a	fixation
164631.35760583635	2750.0	n/a	1404	71	2750	860.642394164	stim	stop-signal	274	755271	0.0-13.37-1.37	beast_fmri_test	311	752870,/,753550,/,754230,/,754910,/,755589,/	t,t,t,t,t	<img class = center src='/static/experiments/beast_fmri_test/images/V.png'></img>	89,71	2750.0	test	<img class = center src='/static/experiments/beast_fmri_test/images/redV.png'></img>	go	1800.0	2.0	37.0	go	target	V	89,Middle Finger	71,Index Finger	950.0	1050.0	1800.0	1700.0	0.0	n/a	950.0	0.0	go_stim
167381.35760583635	860.642394164	n/a	1404	71	2750	860.642394164	stim	stop-signal	274	755271	0.0-13.37-1.37	beast_fmri_test	311	752870,/,753550,/,754230,/,754910,/,755589,/	t,t,t,t,t	<img class = center src='/static/experiments/beast_fmri_test/images/V.png'></img>	89,71	2750.0	test	<img class = center src='/static/experiments/beast_fmri_test/images/redV.png'></img>	go	1800.0	2.0	37.0	go	target	V	89,Middle Finger	71,Index Finger	950.0	1050.0	1800.0	1700.0	0.0	n/a	950.0	0.0	ITI
169635	500.0	n/a	-1	-1	500	0.0	fixation	poldrack-single-stim	275	756664	0.0-13.38-0.38	beast_fmri_test	311	756269,/	t	<div class = centerbox2><div class = fixation>+</div></div>	none	500.0	test	n/a	n/a	n/a	n/a	n/a	n/a	n/a	n/a	n/a	n/a	n/a	n/a	n/a	n/a	n/a	n/a	n/a	n/a	fixation
169545.54195264634	2750.0	n/a	1170	71	2750	91.4580473537	stim	stop-signal	276	759416	0.0-13.38-1.38	beast_fmri_test	311	756947,/,757628,/,758308,/,758987,/	t,t,t,t	<img class = center src='/static/experiments/beast_fmri_test/images/B.png'></img>	89,71	2750.0	test	<img class = center src='/static/experiments/beast_fmri_test/images/redB.png'></img>	go	1700.0	2.0	38.0	go	non-target	B	89,Middle Finger	71,Index Finger	950.0	1050.0	1800.0	1700.0	1.0	n/a	1050.0	1.0	go_stim
172295.54195264634	91.4580473537	n/a	1170	71	2750	91.4580473537	stim	stop-signal	276	759416	0.0-13.38-1.38	beast_fmri_test	311	756947,/,757628,/,758308,/,758987,/	t,t,t,t	<img class = center src='/static/experiments/beast_fmri_test/images/B.png'></img>	89,71	2750.0	test	<img class = center src='/static/experiments/beast_fmri_test/images/redB.png'></img>	go	1700.0	2.0	38.0	go	non-target	B	89,Middle Finger	71,Index Finger	950.0	1050.0	1800.0	1700.0	1.0	n/a	1050.0	1.0	ITI
173008	500.0	n/a	-1	-1	500	0.0	fixation	poldrack-single-stim	277	760037	0.0-13.39-0.39	beast_fmri_test	311	759667,/	t	<div class = centerbox2><div class = fixation>+</div></div>	none	500.0	test	n/a	n/a	n/a	n/a	n/a	n/a	n/a	n/a	n/a	n/a	n/a	n/a	n/a	n/a	n/a	n/a	n/a	n/a	fixation
171800.99095565651	2750.0	n/a	1569	71	2750	1209.00904434	stim	stop-signal	278	762789	0.0-13.39-1.39	beast_fmri_test	311	760348,/,761028,/,761707,/,762386,/,763066,/,763746,/	t,t,t,t,t,t	<img class = center src='/static/experiments/beast_fmri_test/images/V.png'></img>	89,71	2750.0	test	<img class = center src='/static/experiments/beast_fmri_test/images/redV.png'></img>	go	1800.0	2.0	39.0	go	target	V	89,Middle Finger	71,Index Finger	950.0	1050.0	1800.0	1700.0	0.0	n/a	950.0	0.0	go_stim
174550.99095565651	1209.00904434	n/a	1569	71	2750	1209.00904434	stim	stop-signal	278	762789	0.0-13.39-1.39	beast_fmri_test	311	760348,/,761028,/,761707,/,762386,/,763066,/,763746,/	t,t,t,t,t,t	<img class = center src='/static/experiments/beast_fmri_test/images/V.png'></img>	89,71	2750.0	test	<img class = center src='/static/experiments/beast_fmri_test/images/redV.png'></img>	go	1800.0	2.0	39.0	go	target	V	89,Middle Finger	71,Index Finger	950.0	1050.0	1800.0	1700.0	0.0	n/a	950.0	0.0	ITI
177501	500.0	n/a	-1	-1	500	0.0	fixation	poldrack-single-stim	279	764530	0.0-13.40-0.40	beast_fmri_test	311	764425,/	t	<div class = centerbox2><div class = fixation>+</div></div>	none	500.0	test	n/a	n/a	n/a	n/a	n/a	n/a	n/a	n/a	n/a	n/a	n/a	n/a	n/a	n/a	n/a	n/a	n/a	n/a	fixation
174838.2108177573	2750.0	n/a	1434	71	2750	2664.78918224	stim	stop-signal	280	767282	0.0-13.40-1.40	beast_fmri_test	311	765105,/,765785,/,766465,/,767144,/,767824,/,768504,/,769183,/,769862,/	t,t,t,t,t,t,t,t	<img class = center src='/static/experiments/beast_fmri_test/images/B.png'></img>	89,71	2750.0	test	<img class = center src='/static/experiments/beast_fmri_test/images/redB.png'></img>	go	1800.0	2.0	40.0	go	target	B	89,Middle Finger	71,Index Finger	950.0	1050.0	1800.0	1700.0	0.0	n/a	950.0	0.0	go_stim
177588.2108177573	2664.78918224	n/a	1434	71	2750	2664.78918224	stim	stop-signal	280	767282	0.0-13.40-1.40	beast_fmri_test	311	765105,/,765785,/,766465,/,767144,/,767824,/,768504,/,769183,/,769862,/	t,t,t,t,t,t,t,t	<img class = center src='/static/experiments/beast_fmri_test/images/B.png'></img>	89,71	2750.0	test	<img class = center src='/static/experiments/beast_fmri_test/images/redB.png'></img>	go	1800.0	2.0	40.0	go	target	B	89,Middle Finger	71,Index Finger	950.0	1050.0	1800.0	1700.0	0.0	n/a	950.0	0.0	ITI
183446	500.0	n/a	-1	-1	500	0.0	fixation	poldrack-single-stim	281	770475	0.0-13.41-0.41	beast_fmri_test	311	n/a	n/a	<div class = centerbox2><div class = fixation>+</div></div>	none	500.0	test	n/a	n/a	n/a	n/a	n/a	n/a	n/a	n/a	n/a	n/a	n/a	n/a	n/a	n/a	n/a	n/a	n/a	n/a	fixation
183217.32459683553	1050.0	n/a	-1	-1	2750	230.675403164	stim	stop-signal	282	773227	0.0-13.41-1.41	beast_fmri_test	311	770541,/,771223,/,771902,/,772581,/,773261,/	t,t,t,t,t	<img class = center src='/static/experiments/beast_fmri_test/images/P.png'></img>	89,71	2750.0	test	<img class = center src='/static/experiments/beast_fmri_test/images/redP.png'></img>	stop	1700.0	2.0	41.0	stop	non-target	P	89,Middle Finger	71,Index Finger	950.0	1050.0	1800.0	1700.0	0.0	1.0	1050.0	n/a	go_stim
184917.32459683553	1700.0	n/a	-1	-1	2750	230.675403164	stim	stop-signal	282	773227	0.0-13.41-1.41	beast_fmri_test	311	770541,/,771223,/,771902,/,772581,/,773261,/	t,t,t,t,t	<img class = center src='/static/experiments/beast_fmri_test/images/P.png'></img>	89,71	2750.0	test	<img class = center src='/static/experiments/beast_fmri_test/images/redP.png'></img>	stop	1700.0	2.0	41.0	stop	non-target	P	89,Middle Finger	71,Index Finger	950.0	1050.0	1800.0	1700.0	0.0	1.0	1050.0	n/a	stop_stim
185967.32459683553	230.675403164	n/a	-1	-1	2750	230.675403164	stim	stop-signal	282	773227	0.0-13.41-1.41	beast_fmri_test	311	770541,/,771223,/,771902,/,772581,/,773261,/	t,t,t,t,t	<img class = center src='/static/experiments/beast_fmri_test/images/P.png'></img>	89,71	2750.0	test	<img class = center src='/static/experiments/beast_fmri_test/images/redP.png'></img>	stop	1700.0	2.0	41.0	stop	non-target	P	89,Middle Finger	71,Index Finger	950.0	1050.0	1800.0	1700.0	0.0	1.0	1050.0	n/a	ITI
186961	500.0	n/a	-1	-1	500	0.0	fixation	poldrack-single-stim	283	773990	0.0-13.42-0.42	beast_fmri_test	311	773941,/	t	<div class = centerbox2><div class = fixation>+</div></div>	none	500.0	test	n/a	n/a	n/a	n/a	n/a	n/a	n/a	n/a	n/a	n/a	n/a	n/a	n/a	n/a	n/a	n/a	n/a	n/a	fixation
185307.82669486117	2750.0	n/a	1779	71	2750	1654.17330514	stim	stop-signal	284	776741	0.0-13.42-1.42	beast_fmri_test	311	774620,/,775300,/,775980,/,776659,/,777339,/,778019,/	t,t,t,t,t,t	<img class = center src='/static/experiments/beast_fmri_test/images/D.png'></img>	89,71	2750.0	test	<img class = center src='/static/experiments/beast_fmri_test/images/redD.png'></img>	go	1650.0	2.0	42.0	go	non-target	D	89,Middle Finger	71,Index Finger	950.0	1100.0	1800.0	1650.0	1.0	n/a	1100.0	1.0	go_stim
188057.82669486117	1654.17330514	n/a	1779	71	2750	1654.17330514	stim	stop-signal	284	776741	0.0-13.42-1.42	beast_fmri_test	311	774620,/,775300,/,775980,/,776659,/,777339,/,778019,/	t,t,t,t,t,t	<img class = center src='/static/experiments/beast_fmri_test/images/D.png'></img>	89,71	2750.0	test	<img class = center src='/static/experiments/beast_fmri_test/images/redD.png'></img>	go	1650.0	2.0	42.0	go	non-target	D	89,Middle Finger	71,Index Finger	950.0	1100.0	1800.0	1650.0	1.0	n/a	1100.0	1.0	ITI
191899	500.0	n/a	-1	-1	500	0.0	fixation	poldrack-single-stim	285	778928	0.0-13.43-0.43	beast_fmri_test	311	778699,/	t	<div class = centerbox2><div class = fixation>+</div></div>	none	500.0	test	n/a	n/a	n/a	n/a	n/a	n/a	n/a	n/a	n/a	n/a	n/a	n/a	n/a	n/a	n/a	n/a	n/a	n/a	fixation
191565.27955051709	1100.0	n/a	-1	-1	2750	335.720449483	stim	stop-signal	286	781680	0.0-13.43-1.43	beast_fmri_test	311	779377,/,780057,/,780738,/,781417,/	t,t,t,t	<img class = center src='/static/experiments/beast_fmri_test/images/V.png'></img>	89,71	2750.0	test	<img class = center src='/static/experiments/beast_fmri_test/images/redV.png'></img>	stop	1650.0	2.0	43.0	stop	non-target	V	89,Middle Finger	71,Index Finger	950.0	1100.0	1800.0	1650.0	0.0	1.0	1100.0	n/a	go_stim
193215.27955051709	1650.0	n/a	-1	-1	2750	335.720449483	stim	stop-signal	286	781680	0.0-13.43-1.43	beast_fmri_test	311	779377,/,780057,/,780738,/,781417,/	t,t,t,t	<img class = center src='/static/experiments/beast_fmri_test/images/V.png'></img>	89,71	2750.0	test	<img class = center src='/static/experiments/beast_fmri_test/images/redV.png'></img>	stop	1650.0	2.0	43.0	stop	non-target	V	89,Middle Finger	71,Index Finger	950.0	1100.0	1800.0	1650.0	0.0	1.0	1100.0	n/a	stop_stim
194315.27955051709	335.720449483	n/a	-1	-1	2750	335.720449483	stim	stop-signal	286	781680	0.0-13.43-1.43	beast_fmri_test	311	779377,/,780057,/,780738,/,781417,/	t,t,t,t	<img class = center src='/static/experiments/beast_fmri_test/images/V.png'></img>	89,71	2750.0	test	<img class = center src='/static/experiments/beast_fmri_test/images/redV.png'></img>	stop	1650.0	2.0	43.0	stop	non-target	V	89,Middle Finger	71,Index Finger	950.0	1100.0	1800.0	1650.0	0.0	1.0	1100.0	n/a	ITI
195517	500.0	n/a	-1	-1	500	0.0	fixation	poldrack-single-stim	287	782546	0.0-13.44-0.44	beast_fmri_test	311	782097,/	t	<div class = centerbox2><div class = fixation>+</div></div>	none	500.0	test	n/a	n/a	n/a	n/a	n/a	n/a	n/a	n/a	n/a	n/a	n/a	n/a	n/a	n/a	n/a	n/a	n/a	n/a	fixation
193542.17559447582	1150.0	n/a	1396	71	2750	1977.82440552	stim	stop-signal	288	785299	0.0-13.44-1.44	beast_fmri_test	311	782776,/,783455,/,784136,/,784815,/,785495,/,786175,/,786854,/	t,t,t,t,t,t,t	<img class = center src='/static/experiments/beast_fmri_test/images/P.png'></img>	89,71	2750.0	test	<img class = center src='/static/experiments/beast_fmri_test/images/redP.png'></img>	stop	1600.0	2.0	44.0	stop	non-target	P	89,Middle Finger	71,Index Finger	950.0	1150.0	1800.0	1600.0	0.0	0.0	1150.0	n/a	go_stim
195142.17559447582	1600.0	n/a	1396	71	2750	1977.82440552	stim	stop-signal	288	785299	0.0-13.44-1.44	beast_fmri_test	311	782776,/,783455,/,784136,/,784815,/,785495,/,786175,/,786854,/	t,t,t,t,t,t,t	<img class = center src='/static/experiments/beast_fmri_test/images/P.png'></img>	89,71	2750.0	test	<img class = center src='/static/experiments/beast_fmri_test/images/redP.png'></img>	stop	1600.0	2.0	44.0	stop	non-target	P	89,Middle Finger	71,Index Finger	950.0	1150.0	1800.0	1600.0	0.0	0.0	1150.0	n/a	stop_stim
196292.17559447582	1977.82440552	n/a	1396	71	2750	1977.82440552	stim	stop-signal	288	785299	0.0-13.44-1.44	beast_fmri_test	311	782776,/,783455,/,784136,/,784815,/,785495,/,786175,/,786854,/	t,t,t,t,t,t,t	<img class = center src='/static/experiments/beast_fmri_test/images/P.png'></img>	89,71	2750.0	test	<img class = center src='/static/experiments/beast_fmri_test/images/redP.png'></img>	stop	1600.0	2.0	44.0	stop	non-target	P	89,Middle Finger	71,Index Finger	950.0	1150.0	1800.0	1600.0	0.0	0.0	1150.0	n/a	ITI
200780	500.0	n/a	-1	-1	500	0.0	fixation	poldrack-single-stim	289	787809	0.0-13.45-0.45	beast_fmri_test	311	787534,/	t	<div class = centerbox2><div class = fixation>+</div></div>	none	500.0	test	n/a	n/a	n/a	n/a	n/a	n/a	n/a	n/a	n/a	n/a	n/a	n/a	n/a	n/a	n/a	n/a	n/a	n/a	fixation
200425.9993768821	2750.0	n/a	1580	71	2750	356.000623118	stim	stop-signal	290	790561	0.0-13.45-1.45	beast_fmri_test	311	788214,/,788894,/,789573,/,790254,/	t,t,t,t	<img class = center src='/static/experiments/beast_fmri_test/images/T.png'></img>	89,71	2750.0	test	<img class = center src='/static/experiments/beast_fmri_test/images/redT.png'></img>	go	1650.0	2.0	45.0	go	non-target	T	89,Middle Finger	71,Index Finger	950.0	1100.0	1800.0	1650.0	1.0	n/a	1100.0	1.0	go_stim
203175.9993768821	356.000623118	n/a	1580	71	2750	356.000623118	stim	stop-signal	290	790561	0.0-13.45-1.45	beast_fmri_test	311	788214,/,788894,/,789573,/,790254,/	t,t,t,t	<img class = center src='/static/experiments/beast_fmri_test/images/T.png'></img>	89,71	2750.0	test	<img class = center src='/static/experiments/beast_fmri_test/images/redT.png'></img>	go	1650.0	2.0	45.0	go	non-target	T	89,Middle Finger	71,Index Finger	950.0	1100.0	1800.0	1650.0	1.0	n/a	1100.0	1.0	ITI
204421	500.0	n/a	-1	-1	500	0.0	fixation	poldrack-single-stim	291	791450	0.0-13.46-0.46	beast_fmri_test	311	790950,/	t	<div class = centerbox2><div class = fixation>+</div></div>	none	500.0	test	n/a	n/a	n/a	n/a	n/a	n/a	n/a	n/a	n/a	n/a	n/a	n/a	n/a	n/a	n/a	n/a	n/a	n/a	fixation
204024.84754804301	2750.0	n/a	2035	71	2750	399.152451957	stim	stop-signal	292	794203	0.0-13.46-1.46	beast_fmri_test	311	791613,/,792293,/,792972,/,793652,/,794332,/	t,t,t,t,t	<img class = center src='/static/experiments/beast_fmri_test/images/D.png'></img>	89,71	2750.0	test	<img class = center src='/static/experiments/beast_fmri_test/images/redD.png'></img>	go	1650.0	2.0	46.0	go	non-target	D	89,Middle Finger	71,Index Finger	950.0	1100.0	1800.0	1650.0	1.0	n/a	1100.0	1.0	go_stim
206774.84754804301	399.152451957	n/a	2035	71	2750	399.152451957	stim	stop-signal	292	794203	0.0-13.46-1.46	beast_fmri_test	311	791613,/,792293,/,792972,/,793652,/,794332,/	t,t,t,t,t	<img class = center src='/static/experiments/beast_fmri_test/images/D.png'></img>	89,71	2750.0	test	<img class = center src='/static/experiments/beast_fmri_test/images/redD.png'></img>	go	1650.0	2.0	46.0	go	non-target	D	89,Middle Finger	71,Index Finger	950.0	1100.0	1800.0	1650.0	1.0	n/a	1100.0	1.0	ITI
222601	15000.0	n/a	-1	-1	15000	0.0	practice-no-stop-feedback	poldrack-single-stim	293	809630	0.0-14.0	beast_fmri_test	311	795012,/,795691,/,796370,/,797050,/,797729,/,798409,/,799090,/,799769,/,800449,/,801128,/,801808,/,802487,/,803167,/,803848,/,804527,/,805207,/,805886,/,806566,/,807245,/,807925,/,808605,/,809285,/	t,t,t,t,t,t,t,t,t,t,t,t,t,t,t,t,t,t,t,t,t,t	"<div class = ""centerbox""><p class = ""block-text"">Your delay is 2 trials.</p><p class = block-text>Please wait for the scanner to start the block</p></div>"	77	15000.0	n/a	n/a	n/a	n/a	n/a	n/a	n/a	n/a	n/a	n/a	n/a	n/a	n/a	n/a	n/a	n/a	n/a	n/a	n/a	practice-no-stop-feedback
223103	500.0	n/a	-1	-1	500	0.0	fixation	poldrack-single-stim	294	810132	0.0-15.0-0.0	beast_fmri_test	311	809964,/	t	<div class = centerbox2><div class = fixation>+</div></div>	none	500.0	test	n/a	n/a	n/a	n/a	n/a	n/a	n/a	n/a	n/a	n/a	n/a	n/a	n/a	n/a	n/a	n/a	n/a	n/a	fixation
222551.99430447374	2750.0	n/a	992	71	2750	553.005695526	stim	stop-signal	295	812884	0.0-15.0-1.0	beast_fmri_test	311	810644,/,811324,/,812003,/,812682,/,813361,/	t,t,t,t,t	<img class = center src='/static/experiments/beast_fmri_test/images/D.png'></img>	89,71	2750.0	test	<img class = center src='/static/experiments/beast_fmri_test/images/redD.png'></img>	go	-1.0	2.0	0.0	go	temp-non-target	D	89,Middle Finger	71,Index Finger	950.0	1100.0	1800.0	1650.0	0.0	n/a	n/a	n/a	go_stim
225301.99430447374	553.005695526	n/a	992	71	2750	553.005695526	stim	stop-signal	295	812884	0.0-15.0-1.0	beast_fmri_test	311	810644,/,811324,/,812003,/,812682,/,813361,/	t,t,t,t,t	<img class = center src='/static/experiments/beast_fmri_test/images/D.png'></img>	89,71	2750.0	test	<img class = center src='/static/experiments/beast_fmri_test/images/redD.png'></img>	go	-1.0	2.0	0.0	go	temp-non-target	D	89,Middle Finger	71,Index Finger	950.0	1100.0	1800.0	1650.0	0.0	n/a	n/a	n/a	ITI
226941	500.0	n/a	-1	-1	500	0.0	fixation	poldrack-single-stim	296	813970	0.0-15.1-0.1	beast_fmri_test	311	n/a	n/a	<div class = centerbox2><div class = fixation>+</div></div>	none	500.0	test	n/a	n/a	n/a	n/a	n/a	n/a	n/a	n/a	n/a	n/a	n/a	n/a	n/a	n/a	n/a	n/a	n/a	n/a	fixation
224611.35225091386	2750.0	n/a	722	71	2750	2331.64774909	stim	stop-signal	297	816722	0.0-15.1-1.1	beast_fmri_test	311	814042,/,814721,/,815402,/,816081,/,816759,/,817441,/,818120,/,818800,/	t,t,t,t,t,t,t,t	<img class = center src='/static/experiments/beast_fmri_test/images/V.png'></img>	89,71	2750.0	test	<img class = center src='/static/experiments/beast_fmri_test/images/redV.png'></img>	go	-1.0	2.0	1.0	go	temp-non-target	V	89,Middle Finger	71,Index Finger	950.0	1100.0	1800.0	1650.0	0.0	n/a	n/a	n/a	go_stim
227361.35225091386	2331.64774909	n/a	722	71	2750	2331.64774909	stim	stop-signal	297	816722	0.0-15.1-1.1	beast_fmri_test	311	814042,/,814721,/,815402,/,816081,/,816759,/,817441,/,818120,/,818800,/	t,t,t,t,t,t,t,t	<img class = center src='/static/experiments/beast_fmri_test/images/V.png'></img>	89,71	2750.0	test	<img class = center src='/static/experiments/beast_fmri_test/images/redV.png'></img>	go	-1.0	2.0	1.0	go	temp-non-target	V	89,Middle Finger	71,Index Finger	950.0	1100.0	1800.0	1650.0	0.0	n/a	n/a	n/a	ITI
232557	500.0	n/a	-1	-1	500	0.0	fixation	poldrack-single-stim	298	819586	0.0-15.2-0.2	beast_fmri_test	311	819480,/	t	<div class = centerbox2><div class = fixation>+</div></div>	none	500.0	test	n/a	n/a	n/a	n/a	n/a	n/a	n/a	n/a	n/a	n/a	n/a	n/a	n/a	n/a	n/a	n/a	n/a	n/a	fixation
231532.82988680713	2750.0	n/a	951	71	2750	1027.17011319	stim	stop-signal	299	822339	0.0-15.2-1.2	beast_fmri_test	311	820160,/,820839,/,821519,/,822199,/,822879,/	t,t,t,t,t	<img class = center src='/static/experiments/beast_fmri_test/images/P.png'></img>	89,71	2750.0	test	<img class = center src='/static/experiments/beast_fmri_test/images/redP.png'></img>	go	1650.0	2.0	2.0	go	non-target	P	89,Middle Finger	71,Index Finger	950.0	1100.0	1800.0	1650.0	1.0	n/a	1100.0	1.0	go_stim
234282.82988680713	1027.17011319	n/a	951	71	2750	1027.17011319	stim	stop-signal	299	822339	0.0-15.2-1.2	beast_fmri_test	311	820160,/,820839,/,821519,/,822199,/,822879,/	t,t,t,t,t	<img class = center src='/static/experiments/beast_fmri_test/images/P.png'></img>	89,71	2750.0	test	<img class = center src='/static/experiments/beast_fmri_test/images/redP.png'></img>	go	1650.0	2.0	2.0	go	non-target	P	89,Middle Finger	71,Index Finger	950.0	1100.0	1800.0	1650.0	1.0	n/a	1100.0	1.0	ITI
236872	500.0	n/a	-1	-1	500	0.0	fixation	poldrack-single-stim	300	823901	0.0-15.3-0.3	beast_fmri_test	311	823557,/	t	<div class = centerbox2><div class = fixation>+</div></div>	none	500.0	test	n/a	n/a	n/a	n/a	n/a	n/a	n/a	n/a	n/a	n/a	n/a	n/a	n/a	n/a	n/a	n/a	n/a	n/a	fixation
232589.18696059636	1100.0	n/a	1131	71	2750	4283.8130394	stim	stop-signal	301	826652	0.0-15.3-1.3	beast_fmri_test	311	824238,/,824918,/,825596,/,826277,/,826956,/,827636,/,828316,/,828995,/,829675,/,830354,/	t,t,t,t,t,t,t,t,t,t	<img class = center src='/static/experiments/beast_fmri_test/images/P.png'></img>	89,71	2750.0	test	<img class = center src='/static/experiments/beast_fmri_test/images/redP.png'></img>	stop	1650.0	2.0	3.0	stop	non-target	P	89,Middle Finger	71,Index Finger	950.0	1100.0	1800.0	1650.0	0.0	0.0	1100.0	n/a	go_stim
234239.18696059636	1650.0	n/a	1131	71	2750	4283.8130394	stim	stop-signal	301	826652	0.0-15.3-1.3	beast_fmri_test	311	824238,/,824918,/,825596,/,826277,/,826956,/,827636,/,828316,/,828995,/,829675,/,830354,/	t,t,t,t,t,t,t,t,t,t	<img class = center src='/static/experiments/beast_fmri_test/images/P.png'></img>	89,71	2750.0	test	<img class = center src='/static/experiments/beast_fmri_test/images/redP.png'></img>	stop	1650.0	2.0	3.0	stop	non-target	P	89,Middle Finger	71,Index Finger	950.0	1100.0	1800.0	1650.0	0.0	0.0	1100.0	n/a	stop_stim
235339.18696059636	4283.8130394	n/a	1131	71	2750	4283.8130394	stim	stop-signal	301	826652	0.0-15.3-1.3	beast_fmri_test	311	824238,/,824918,/,825596,/,826277,/,826956,/,827636,/,828316,/,828995,/,829675,/,830354,/	t,t,t,t,t,t,t,t,t,t	<img class = center src='/static/experiments/beast_fmri_test/images/P.png'></img>	89,71	2750.0	test	<img class = center src='/static/experiments/beast_fmri_test/images/redP.png'></img>	stop	1650.0	2.0	3.0	stop	non-target	P	89,Middle Finger	71,Index Finger	950.0	1100.0	1800.0	1650.0	0.0	0.0	1100.0	n/a	ITI
244442	500.0	n/a	-1	-1	500	0.0	fixation	poldrack-single-stim	302	831471	0.0-15.4-0.4	beast_fmri_test	311	831034,/	t	<div class = centerbox2><div class = fixation>+</div></div>	none	500.0	test	n/a	n/a	n/a	n/a	n/a	n/a	n/a	n/a	n/a	n/a	n/a	n/a	n/a	n/a	n/a	n/a	n/a	n/a	fixation
244075.03462654818	1050.0	n/a	-1	-1	2750	368.965373452	stim	stop-signal	303	834223	0.0-15.4-1.4	beast_fmri_test	311	831714,/,832394,/,833074,/,833753,/,834433,/	t,t,t,t,t	<img class = center src='/static/experiments/beast_fmri_test/images/B.png'></img>	89,71	2750.0	test	<img class = center src='/static/experiments/beast_fmri_test/images/redB.png'></img>	stop	1700.0	2.0	4.0	stop	non-target	B	89,Middle Finger	71,Index Finger	950.0	1050.0	1800.0	1700.0	0.0	1.0	1050.0	n/a	go_stim
245775.03462654818	1700.0	n/a	-1	-1	2750	368.965373452	stim	stop-signal	303	834223	0.0-15.4-1.4	beast_fmri_test	311	831714,/,832394,/,833074,/,833753,/,834433,/	t,t,t,t,t	<img class = center src='/static/experiments/beast_fmri_test/images/B.png'></img>	89,71	2750.0	test	<img class = center src='/static/experiments/beast_fmri_test/images/redB.png'></img>	stop	1700.0	2.0	4.0	stop	non-target	B	89,Middle Finger	71,Index Finger	950.0	1050.0	1800.0	1700.0	0.0	1.0	1050.0	n/a	stop_stim
246825.03462654818	368.965373452	n/a	-1	-1	2750	368.965373452	stim	stop-signal	303	834223	0.0-15.4-1.4	beast_fmri_test	311	831714,/,832394,/,833074,/,833753,/,834433,/	t,t,t,t,t	<img class = center src='/static/experiments/beast_fmri_test/images/B.png'></img>	89,71	2750.0	test	<img class = center src='/static/experiments/beast_fmri_test/images/redB.png'></img>	stop	1700.0	2.0	4.0	stop	non-target	B	89,Middle Finger	71,Index Finger	950.0	1050.0	1800.0	1700.0	0.0	1.0	1050.0	n/a	ITI
248095	500.0	n/a	-1	-1	500	0.0	fixation	poldrack-single-stim	304	835124	0.0-15.5-0.5	beast_fmri_test	311	835112,/	t	<div class = centerbox2><div class = fixation>+</div></div>	none	500.0	test	n/a	n/a	n/a	n/a	n/a	n/a	n/a	n/a	n/a	n/a	n/a	n/a	n/a	n/a	n/a	n/a	n/a	n/a	fixation
247783.65783593233	2750.0	n/a	1512	71	2750	314.342164068	stim	stop-signal	305	837877	0.0-15.5-1.5	beast_fmri_test	311	835792,/,836471,/,837152,/,837831,/	t,t,t,t	<img class = center src='/static/experiments/beast_fmri_test/images/P.png'></img>	89,71	2750.0	test	<img class = center src='/static/experiments/beast_fmri_test/images/redP.png'></img>	go	1800.0	2.0	5.0	go	target	P	89,Middle Finger	71,Index Finger	950.0	1100.0	1800.0	1700.0	0.0	n/a	950.0	0.0	go_stim
250533.65783593233	314.342164068	n/a	1512	71	2750	314.342164068	stim	stop-signal	305	837877	0.0-15.5-1.5	beast_fmri_test	311	835792,/,836471,/,837152,/,837831,/	t,t,t,t	<img class = center src='/static/experiments/beast_fmri_test/images/P.png'></img>	89,71	2750.0	test	<img class = center src='/static/experiments/beast_fmri_test/images/redP.png'></img>	go	1800.0	2.0	5.0	go	target	P	89,Middle Finger	71,Index Finger	950.0	1100.0	1800.0	1700.0	0.0	n/a	950.0	0.0	ITI
251698	500.0	n/a	-1	-1	500	0.0	fixation	poldrack-single-stim	306	838727	0.0-15.6-0.6	beast_fmri_test	311	838510,/	t	<div class = centerbox2><div class = fixation>+</div></div>	none	500.0	test	n/a	n/a	n/a	n/a	n/a	n/a	n/a	n/a	n/a	n/a	n/a	n/a	n/a	n/a	n/a	n/a	n/a	n/a	fixation
251329.16563784005	950.0	n/a	911	89	2750	370.83436216	stim	stop-signal	307	841479	0.0-15.6-1.6	beast_fmri_test	311	839190,/,839870,/,840549,/,841229,/	t,t,t,t	<img class = center src='/static/experiments/beast_fmri_test/images/B.png'></img>	89,71	2750.0	test	<img class = center src='/static/experiments/beast_fmri_test/images/redB.png'></img>	stop	1800.0	2.0	6.0	stop	target	B	89,Middle Finger	71,Index Finger	950.0	1100.0	1800.0	1700.0	0.0	0.0	950.0	n/a	go_stim
253129.16563784005	1800.0	n/a	911	89	2750	370.83436216	stim	stop-signal	307	841479	0.0-15.6-1.6	beast_fmri_test	311	839190,/,839870,/,840549,/,841229,/	t,t,t,t	<img class = center src='/static/experiments/beast_fmri_test/images/B.png'></img>	89,71	2750.0	test	<img class = center src='/static/experiments/beast_fmri_test/images/redB.png'></img>	stop	1800.0	2.0	6.0	stop	target	B	89,Middle Finger	71,Index Finger	950.0	1100.0	1800.0	1700.0	0.0	0.0	950.0	n/a	stop_stim
254079.16563784005	370.83436216	n/a	911	89	2750	370.83436216	stim	stop-signal	307	841479	0.0-15.6-1.6	beast_fmri_test	311	839190,/,839870,/,840549,/,841229,/	t,t,t,t	<img class = center src='/static/experiments/beast_fmri_test/images/B.png'></img>	89,71	2750.0	test	<img class = center src='/static/experiments/beast_fmri_test/images/redB.png'></img>	stop	1800.0	2.0	6.0	stop	target	B	89,Middle Finger	71,Index Finger	950.0	1100.0	1800.0	1700.0	0.0	0.0	950.0	n/a	ITI
255358	500.0	n/a	-1	-1	500	0.0	fixation	poldrack-single-stim	308	842387	0.0-15.7-0.7	beast_fmri_test	311	841908,/	t	<div class = centerbox2><div class = fixation>+</div></div>	none	500.0	test	n/a	n/a	n/a	n/a	n/a	n/a	n/a	n/a	n/a	n/a	n/a	n/a	n/a	n/a	n/a	n/a	n/a	n/a	fixation
254515.12012028764	2750.0	n/a	841	71	2750	843.879879712	stim	stop-signal	309	845138	0.0-15.7-1.7	beast_fmri_test	311	842589,/,843269,/,843948,/,844628,/,845307,/	t,t,t,t,t	<img class = center src='/static/experiments/beast_fmri_test/images/D.png'></img>	89,71	2750.0	test	<img class = center src='/static/experiments/beast_fmri_test/images/redD.png'></img>	go	1650.0	2.0	7.0	go	non-target	D	89,Middle Finger	71,Index Finger	900.0	1100.0	1800.0	1650.0	1.0	n/a	1100.0	1.0	go_stim
257265.12012028764	843.879879712	n/a	841	71	2750	843.879879712	stim	stop-signal	309	845138	0.0-15.7-1.7	beast_fmri_test	311	842589,/,843269,/,843948,/,844628,/,845307,/	t,t,t,t,t	<img class = center src='/static/experiments/beast_fmri_test/images/D.png'></img>	89,71	2750.0	test	<img class = center src='/static/experiments/beast_fmri_test/images/redD.png'></img>	go	1650.0	2.0	7.0	go	non-target	D	89,Middle Finger	71,Index Finger	900.0	1100.0	1800.0	1650.0	1.0	n/a	1100.0	1.0	ITI
259491	500.0	n/a	-1	-1	500	0.0	fixation	poldrack-single-stim	310	846520	0.0-15.8-0.8	beast_fmri_test	311	846018,/	t	<div class = centerbox2><div class = fixation>+</div></div>	none	500.0	test	n/a	n/a	n/a	n/a	n/a	n/a	n/a	n/a	n/a	n/a	n/a	n/a	n/a	n/a	n/a	n/a	n/a	n/a	fixation
259249.67511534307	2750.0	n/a	1390	89	2750	242.324884657	stim	stop-signal	311	849271	0.0-15.8-1.8	beast_fmri_test	311	846667,/,847348,/,848027,/,848706,/,849386,/	t,t,t,t,t	<img class = center src='/static/experiments/beast_fmri_test/images/B.png'></img>	89,71	2750.0	test	<img class = center src='/static/experiments/beast_fmri_test/images/redB.png'></img>	go	1850.0	2.0	8.0	go	target	B	89,Middle Finger	71,Index Finger	900.0	1100.0	1850.0	1650.0	1.0	n/a	900.0	1.0	go_stim
261999.67511534307	242.324884657	n/a	1390	89	2750	242.324884657	stim	stop-signal	311	849271	0.0-15.8-1.8	beast_fmri_test	311	846667,/,847348,/,848027,/,848706,/,849386,/	t,t,t,t,t	<img class = center src='/static/experiments/beast_fmri_test/images/B.png'></img>	89,71	2750.0	test	<img class = center src='/static/experiments/beast_fmri_test/images/redB.png'></img>	go	1850.0	2.0	8.0	go	target	B	89,Middle Finger	71,Index Finger	900.0	1100.0	1850.0	1650.0	1.0	n/a	900.0	1.0	ITI
263021	500.0	n/a	-1	-1	500	0.0	fixation	poldrack-single-stim	312	850050	0.0-15.9-0.9	beast_fmri_test	311	n/a	n/a	<div class = centerbox2><div class = fixation>+</div></div>	none	500.0	test	n/a	n/a	n/a	n/a	n/a	n/a	n/a	n/a	n/a	n/a	n/a	n/a	n/a	n/a	n/a	n/a	n/a	n/a	fixation
262106.35993499577	2750.0	n/a	1394	71	2750	917.640065004	stim	stop-signal	313	852803	0.0-15.9-1.9	beast_fmri_test	311	850065,/,850746,/,851425,/,852105,/,852784,/,853464,/	t,t,t,t,t,t	<img class = center src='/static/experiments/beast_fmri_test/images/T.png'></img>	89,71	2750.0	test	<img class = center src='/static/experiments/beast_fmri_test/images/redT.png'></img>	go	1650.0	2.0	9.0	go	non-target	T	89,Middle Finger	71,Index Finger	900.0	1100.0	1850.0	1650.0	1.0	n/a	1100.0	1.0	go_stim
264856.35993499577	917.640065004	n/a	1394	71	2750	917.640065004	stim	stop-signal	313	852803	0.0-15.9-1.9	beast_fmri_test	311	850065,/,850746,/,851425,/,852105,/,852784,/,853464,/	t,t,t,t,t,t	<img class = center src='/static/experiments/beast_fmri_test/images/T.png'></img>	89,71	2750.0	test	<img class = center src='/static/experiments/beast_fmri_test/images/redT.png'></img>	go	1650.0	2.0	9.0	go	non-target	T	89,Middle Finger	71,Index Finger	900.0	1100.0	1850.0	1650.0	1.0	n/a	1100.0	1.0	ITI
267228	500.0	n/a	-1	-1	500	0.0	fixation	poldrack-single-stim	314	854257	0.0-15.10-0.10	beast_fmri_test	311	854144,/	t	<div class = centerbox2><div class = fixation>+</div></div>	none	500.0	test	n/a	n/a	n/a	n/a	n/a	n/a	n/a	n/a	n/a	n/a	n/a	n/a	n/a	n/a	n/a	n/a	n/a	n/a	fixation
266561.14032546873	2750.0	n/a	1493	71	2750	666.859674531	stim	stop-signal	315	857007	0.0-15.10-1.10	beast_fmri_test	311	854823,/,855502,/,856183,/,856862,/,857542,/	t,t,t,t,t	<img class = center src='/static/experiments/beast_fmri_test/images/D.png'></img>	89,71	2750.0	test	<img class = center src='/static/experiments/beast_fmri_test/images/redD.png'></img>	go	1650.0	2.0	10.0	go	non-target	D	89,Middle Finger	71,Index Finger	900.0	1100.0	1850.0	1650.0	1.0	n/a	1100.0	1.0	go_stim
269311.14032546873	666.859674531	n/a	1493	71	2750	666.859674531	stim	stop-signal	315	857007	0.0-15.10-1.10	beast_fmri_test	311	854823,/,855502,/,856183,/,856862,/,857542,/	t,t,t,t,t	<img class = center src='/static/experiments/beast_fmri_test/images/D.png'></img>	89,71	2750.0	test	<img class = center src='/static/experiments/beast_fmri_test/images/redD.png'></img>	go	1650.0	2.0	10.0	go	non-target	D	89,Middle Finger	71,Index Finger	900.0	1100.0	1850.0	1650.0	1.0	n/a	1100.0	1.0	ITI
271182	500.0	n/a	-1	-1	500	0.0	fixation	poldrack-single-stim	316	858211	0.0-15.11-0.11	beast_fmri_test	311	n/a	n/a	<div class = centerbox2><div class = fixation>+</div></div>	none	500.0	test	n/a	n/a	n/a	n/a	n/a	n/a	n/a	n/a	n/a	n/a	n/a	n/a	n/a	n/a	n/a	n/a	n/a	n/a	fixation
271174.9530952248	2750.0	n/a	1389	89	2750	7.04690477522	stim	stop-signal	317	860961	0.0-15.11-1.11	beast_fmri_test	311	858221,/,858900,/,859580,/,860261,/,860941,/	t,t,t,t,t	<img class = center src='/static/experiments/beast_fmri_test/images/P.png'></img>	89,71	2750.0	test	<img class = center src='/static/experiments/beast_fmri_test/images/redP.png'></img>	go	1650.0	2.0	11.0	go	non-target	P	89,Middle Finger	71,Index Finger	900.0	1100.0	1850.0	1650.0	0.0	n/a	1100.0	0.0	go_stim
273924.9530952248	7.04690477522	n/a	1389	89	2750	7.04690477522	stim	stop-signal	317	860961	0.0-15.11-1.11	beast_fmri_test	311	858221,/,858900,/,859580,/,860261,/,860941,/	t,t,t,t,t	<img class = center src='/static/experiments/beast_fmri_test/images/P.png'></img>	89,71	2750.0	test	<img class = center src='/static/experiments/beast_fmri_test/images/redP.png'></img>	go	1650.0	2.0	11.0	go	non-target	P	89,Middle Finger	71,Index Finger	900.0	1100.0	1850.0	1650.0	0.0	n/a	1100.0	0.0	ITI
274474	500.0	n/a	-1	-1	500	0.0	fixation	poldrack-single-stim	318	861503	0.0-15.12-0.12	beast_fmri_test	311	n/a	n/a	<div class = centerbox2><div class = fixation>+</div></div>	none	500.0	test	n/a	n/a	n/a	n/a	n/a	n/a	n/a	n/a	n/a	n/a	n/a	n/a	n/a	n/a	n/a	n/a	n/a	n/a	fixation
272773.76097519964	2750.0	n/a	1140	89	2750	1701.2390248	stim	stop-signal	319	864254	0.0-15.12-1.12	beast_fmri_test	311	861621,/,862299,/,862980,/,863659,/,864337,/,865019,/,865698,/	t,t,t,t,t,t,t	<img class = center src='/static/experiments/beast_fmri_test/images/D.png'></img>	89,71	2750.0	test	<img class = center src='/static/experiments/beast_fmri_test/images/redD.png'></img>	go	1850.0	2.0	12.0	go	target	D	89,Middle Finger	71,Index Finger	900.0	1100.0	1850.0	1650.0	1.0	n/a	900.0	1.0	go_stim
275523.76097519964	1701.2390248	n/a	1140	89	2750	1701.2390248	stim	stop-signal	319	864254	0.0-15.12-1.12	beast_fmri_test	311	861621,/,862299,/,862980,/,863659,/,864337,/,865019,/,865698,/	t,t,t,t,t,t,t	<img class = center src='/static/experiments/beast_fmri_test/images/D.png'></img>	89,71	2750.0	test	<img class = center src='/static/experiments/beast_fmri_test/images/redD.png'></img>	go	1850.0	2.0	12.0	go	target	D	89,Middle Finger	71,Index Finger	900.0	1100.0	1850.0	1650.0	1.0	n/a	900.0	1.0	ITI
279467	500.0	n/a	-1	-1	500	0.0	fixation	poldrack-single-stim	320	866496	0.0-15.13-0.13	beast_fmri_test	311	866378,/	t	<div class = centerbox2><div class = fixation>+</div></div>	none	500.0	test	n/a	n/a	n/a	n/a	n/a	n/a	n/a	n/a	n/a	n/a	n/a	n/a	n/a	n/a	n/a	n/a	n/a	n/a	fixation
279288.4436273966	2750.0	n/a	937	89	2750	180.556372603	stim	stop-signal	321	869248	0.0-15.13-1.13	beast_fmri_test	311	867058,/,867737,/,868416,/,869096,/	t,t,t,t	<img class = center src='/static/experiments/beast_fmri_test/images/P.png'></img>	89,71	2750.0	test	<img class = center src='/static/experiments/beast_fmri_test/images/redP.png'></img>	go	1850.0	2.0	13.0	go	target	P	89,Middle Finger	71,Index Finger	900.0	1100.0	1850.0	1650.0	1.0	n/a	900.0	1.0	go_stim
282038.4436273966	180.556372603	n/a	937	89	2750	180.556372603	stim	stop-signal	321	869248	0.0-15.13-1.13	beast_fmri_test	311	867058,/,867737,/,868416,/,869096,/	t,t,t,t	<img class = center src='/static/experiments/beast_fmri_test/images/P.png'></img>	89,71	2750.0	test	<img class = center src='/static/experiments/beast_fmri_test/images/redP.png'></img>	go	1850.0	2.0	13.0	go	target	P	89,Middle Finger	71,Index Finger	900.0	1100.0	1850.0	1650.0	1.0	n/a	900.0	1.0	ITI
282935	500.0	n/a	-1	-1	500	0.0	fixation	poldrack-single-stim	322	869964	0.0-15.14-0.14	beast_fmri_test	311	869776,/	t	<div class = centerbox2><div class = fixation>+</div></div>	none	500.0	test	n/a	n/a	n/a	n/a	n/a	n/a	n/a	n/a	n/a	n/a	n/a	n/a	n/a	n/a	n/a	n/a	n/a	n/a	fixation
281940.70581721235	2750.0	n/a	963	89	2750	995.294182788	stim	stop-signal	323	872715	0.0-15.14-1.14	beast_fmri_test	311	870456,/,871135,/,871815,/,872495,/,873173,/	t,t,t,t,t	<img class = center src='/static/experiments/beast_fmri_test/images/D.png'></img>	89,71	2750.0	test	<img class = center src='/static/experiments/beast_fmri_test/images/redD.png'></img>	go	1850.0	2.0	14.0	go	target	D	89,Middle Finger	71,Index Finger	900.0	1100.0	1850.0	1650.0	1.0	n/a	900.0	1.0	go_stim
284690.70581721235	995.294182788	n/a	963	89	2750	995.294182788	stim	stop-signal	323	872715	0.0-15.14-1.14	beast_fmri_test	311	870456,/,871135,/,871815,/,872495,/,873173,/	t,t,t,t,t	<img class = center src='/static/experiments/beast_fmri_test/images/D.png'></img>	89,71	2750.0	test	<img class = center src='/static/experiments/beast_fmri_test/images/redD.png'></img>	go	1850.0	2.0	14.0	go	target	D	89,Middle Finger	71,Index Finger	900.0	1100.0	1850.0	1650.0	1.0	n/a	900.0	1.0	ITI
287222	500.0	n/a	-1	-1	500	0.0	fixation	poldrack-single-stim	324	874251	0.0-15.15-0.15	beast_fmri_test	311	873855,/	t	<div class = centerbox2><div class = fixation>+</div></div>	none	500.0	test	n/a	n/a	n/a	n/a	n/a	n/a	n/a	n/a	n/a	n/a	n/a	n/a	n/a	n/a	n/a	n/a	n/a	n/a	fixation
284029.50926124887	1100.0	n/a	1094	89	2750	3194.49073875	stim	stop-signal	325	877003	0.0-15.15-1.15	beast_fmri_test	311	874534,/,875215,/,875894,/,876574,/,877253,/,877933,/,878613,/,879292,/,879972,/	t,t,t,t,t,t,t,t,t	<img class = center src='/static/experiments/beast_fmri_test/images/B.png'></img>	89,71	2750.0	test	<img class = center src='/static/experiments/beast_fmri_test/images/redB.png'></img>	stop	1650.0	2.0	15.0	stop	non-target	B	89,Middle Finger	71,Index Finger	900.0	1100.0	1850.0	1650.0	0.0	0.0	1100.0	n/a	go_stim
285679.50926124887	1650.0	n/a	1094	89	2750	3194.49073875	stim	stop-signal	325	877003	0.0-15.15-1.15	beast_fmri_test	311	874534,/,875215,/,875894,/,876574,/,877253,/,877933,/,878613,/,879292,/,879972,/	t,t,t,t,t,t,t,t,t	<img class = center src='/static/experiments/beast_fmri_test/images/B.png'></img>	89,71	2750.0	test	<img class = center src='/static/experiments/beast_fmri_test/images/redB.png'></img>	stop	1650.0	2.0	15.0	stop	non-target	B	89,Middle Finger	71,Index Finger	900.0	1100.0	1850.0	1650.0	0.0	0.0	1100.0	n/a	stop_stim
286779.50926124887	3194.49073875	n/a	1094	89	2750	3194.49073875	stim	stop-signal	325	877003	0.0-15.15-1.15	beast_fmri_test	311	874534,/,875215,/,875894,/,876574,/,877253,/,877933,/,878613,/,879292,/,879972,/	t,t,t,t,t,t,t,t,t	<img class = center src='/static/experiments/beast_fmri_test/images/B.png'></img>	89,71	2750.0	test	<img class = center src='/static/experiments/beast_fmri_test/images/redB.png'></img>	stop	1650.0	2.0	15.0	stop	non-target	B	89,Middle Finger	71,Index Finger	900.0	1100.0	1850.0	1650.0	0.0	0.0	1100.0	n/a	ITI
293706	500.0	n/a	-1	-1	500	0.0	fixation	poldrack-single-stim	326	880735	0.0-15.16-0.16	beast_fmri_test	311	880652,/	t	<div class = centerbox2><div class = fixation>+</div></div>	none	500.0	test	n/a	n/a	n/a	n/a	n/a	n/a	n/a	n/a	n/a	n/a	n/a	n/a	n/a	n/a	n/a	n/a	n/a	n/a	fixation
290920.34005380666	900.0	n/a	-1	-1	2750	2787.65994619	stim	stop-signal	327	883487	0.0-15.16-1.16	beast_fmri_test	311	881332,/,882010,/,882690,/,883369,/,884050,/,884730,/,885409,/,886089,/	t,t,t,t,t,t,t,t	<img class = center src='/static/experiments/beast_fmri_test/images/D.png'></img>	89,71	2750.0	test	<img class = center src='/static/experiments/beast_fmri_test/images/redD.png'></img>	stop	1850.0	2.0	16.0	stop	target	D	89,Middle Finger	71,Index Finger	900.0	1050.0	1850.0	1650.0	0.0	1.0	900.0	n/a	go_stim
292770.34005380666	1850.0	n/a	-1	-1	2750	2787.65994619	stim	stop-signal	327	883487	0.0-15.16-1.16	beast_fmri_test	311	881332,/,882010,/,882690,/,883369,/,884050,/,884730,/,885409,/,886089,/	t,t,t,t,t,t,t,t	<img class = center src='/static/experiments/beast_fmri_test/images/D.png'></img>	89,71	2750.0	test	<img class = center src='/static/experiments/beast_fmri_test/images/redD.png'></img>	stop	1850.0	2.0	16.0	stop	target	D	89,Middle Finger	71,Index Finger	900.0	1050.0	1850.0	1650.0	0.0	1.0	900.0	n/a	stop_stim
293670.34005380666	2787.65994619	n/a	-1	-1	2750	2787.65994619	stim	stop-signal	327	883487	0.0-15.16-1.16	beast_fmri_test	311	881332,/,882010,/,882690,/,883369,/,884050,/,884730,/,885409,/,886089,/	t,t,t,t,t,t,t,t	<img class = center src='/static/experiments/beast_fmri_test/images/D.png'></img>	89,71	2750.0	test	<img class = center src='/static/experiments/beast_fmri_test/images/redD.png'></img>	stop	1850.0	2.0	16.0	stop	target	D	89,Middle Finger	71,Index Finger	900.0	1050.0	1850.0	1650.0	0.0	1.0	900.0	n/a	ITI
299783	500.0	n/a	-1	-1	500	0.0	fixation	poldrack-single-stim	328	886812	0.0-15.17-0.17	beast_fmri_test	311	886769,/	t	<div class = centerbox2><div class = fixation>+</div></div>	none	500.0	test	n/a	n/a	n/a	n/a	n/a	n/a	n/a	n/a	n/a	n/a	n/a	n/a	n/a	n/a	n/a	n/a	n/a	n/a	fixation
299596.56971483433	2750.0	n/a	826	71	2750	187.430285166	stim	stop-signal	329	889563	0.0-15.17-1.17	beast_fmri_test	311	887447,/,888128,/,888807,/,889487,/	t,t,t,t	<img class = center src='/static/experiments/beast_fmri_test/images/B.png'></img>	89,71	2750.0	test	<img class = center src='/static/experiments/beast_fmri_test/images/redB.png'></img>	go	1800.0	2.0	17.0	go	target	B	89,Middle Finger	71,Index Finger	950.0	1050.0	1800.0	1650.0	0.0	n/a	950.0	0.0	go_stim
302346.56971483433	187.430285166	n/a	826	71	2750	187.430285166	stim	stop-signal	329	889563	0.0-15.17-1.17	beast_fmri_test	311	887447,/,888128,/,888807,/,889487,/	t,t,t,t	<img class = center src='/static/experiments/beast_fmri_test/images/B.png'></img>	89,71	2750.0	test	<img class = center src='/static/experiments/beast_fmri_test/images/redB.png'></img>	go	1800.0	2.0	17.0	go	target	B	89,Middle Finger	71,Index Finger	950.0	1050.0	1800.0	1650.0	0.0	n/a	950.0	0.0	ITI
303260	500.0	n/a	-1	-1	500	0.0	fixation	poldrack-single-stim	330	890289	0.0-15.18-0.18	beast_fmri_test	311	890168,/	t	<div class = centerbox2><div class = fixation>+</div></div>	none	500.0	test	n/a	n/a	n/a	n/a	n/a	n/a	n/a	n/a	n/a	n/a	n/a	n/a	n/a	n/a	n/a	n/a	n/a	n/a	fixation
301138.40896168386	2750.0	n/a	1331	71	2750	2122.59103832	stim	stop-signal	331	893040	0.0-15.18-1.18	beast_fmri_test	311	890846,/,891526,/,892206,/,892885,/,893565,/,894245,/,894925,/	t,t,t,t,t,t,t	<img class = center src='/static/experiments/beast_fmri_test/images/V.png'></img>	89,71	2750.0	test	<img class = center src='/static/experiments/beast_fmri_test/images/redV.png'></img>	go	1700.0	2.0	18.0	go	non-target	V	89,Middle Finger	71,Index Finger	950.0	1050.0	1800.0	1700.0	1.0	n/a	1050.0	1.0	go_stim
303888.40896168386	2122.59103832	n/a	1331	71	2750	2122.59103832	stim	stop-signal	331	893040	0.0-15.18-1.18	beast_fmri_test	311	890846,/,891526,/,892206,/,892885,/,893565,/,894245,/,894925,/	t,t,t,t,t,t,t	<img class = center src='/static/experiments/beast_fmri_test/images/V.png'></img>	89,71	2750.0	test	<img class = center src='/static/experiments/beast_fmri_test/images/redV.png'></img>	go	1700.0	2.0	18.0	go	non-target	V	89,Middle Finger	71,Index Finger	950.0	1050.0	1800.0	1700.0	1.0	n/a	1050.0	1.0	ITI
308671	500.0	n/a	-1	-1	500	0.0	fixation	poldrack-single-stim	332	895700	0.0-15.19-0.19	beast_fmri_test	311	895604,/	t	<div class = centerbox2><div class = fixation>+</div></div>	none	500.0	test	n/a	n/a	n/a	n/a	n/a	n/a	n/a	n/a	n/a	n/a	n/a	n/a	n/a	n/a	n/a	n/a	n/a	n/a	fixation
308609.29038622184	1050.0	n/a	1057	71	2750	62.7096137781	stim	stop-signal	333	898451	0.0-15.19-1.19	beast_fmri_test	311	896284,/,896964,/,897643,/,898323,/	t,t,t,t	<img class = center src='/static/experiments/beast_fmri_test/images/D.png'></img>	89,71	2750.0	test	<img class = center src='/static/experiments/beast_fmri_test/images/redD.png'></img>	stop	1700.0	2.0	19.0	stop	non-target	D	89,Middle Finger	71,Index Finger	950.0	1050.0	1800.0	1700.0	0.0	0.0	1050.0	n/a	go_stim
310309.29038622184	1700.0	n/a	1057	71	2750	62.7096137781	stim	stop-signal	333	898451	0.0-15.19-1.19	beast_fmri_test	311	896284,/,896964,/,897643,/,898323,/	t,t,t,t	<img class = center src='/static/experiments/beast_fmri_test/images/D.png'></img>	89,71	2750.0	test	<img class = center src='/static/experiments/beast_fmri_test/images/redD.png'></img>	stop	1700.0	2.0	19.0	stop	non-target	D	89,Middle Finger	71,Index Finger	950.0	1050.0	1800.0	1700.0	0.0	0.0	1050.0	n/a	stop_stim
311359.29038622184	62.7096137781	n/a	1057	71	2750	62.7096137781	stim	stop-signal	333	898451	0.0-15.19-1.19	beast_fmri_test	311	896284,/,896964,/,897643,/,898323,/	t,t,t,t	<img class = center src='/static/experiments/beast_fmri_test/images/D.png'></img>	89,71	2750.0	test	<img class = center src='/static/experiments/beast_fmri_test/images/redD.png'></img>	stop	1700.0	2.0	19.0	stop	non-target	D	89,Middle Finger	71,Index Finger	950.0	1050.0	1800.0	1700.0	0.0	0.0	1050.0	n/a	ITI
312022	500.0	n/a	-1	-1	500	0.0	fixation	poldrack-single-stim	334	899051	0.0-15.20-0.20	beast_fmri_test	311	899003,/	t	<div class = centerbox2><div class = fixation>+</div></div>	none	500.0	test	n/a	n/a	n/a	n/a	n/a	n/a	n/a	n/a	n/a	n/a	n/a	n/a	n/a	n/a	n/a	n/a	n/a	n/a	fixation
311573.73094081657	2750.0	n/a	1625	71	2750	450.269059183	stim	stop-signal	335	901803	0.0-15.20-1.20	beast_fmri_test	311	899682,/,900362,/,901042,/,901722,/	t,t,t,t	<img class = center src='/static/experiments/beast_fmri_test/images/P.png'></img>	89,71	2750.0	test	<img class = center src='/static/experiments/beast_fmri_test/images/redP.png'></img>	go	1750.0	2.0	20.0	go	non-target	P	89,Middle Finger	71,Index Finger	950.0	1000.0	1800.0	1750.0	1.0	n/a	1000.0	1.0	go_stim
314323.73094081657	450.269059183	n/a	1625	71	2750	450.269059183	stim	stop-signal	335	901803	0.0-15.20-1.20	beast_fmri_test	311	899682,/,900362,/,901042,/,901722,/	t,t,t,t	<img class = center src='/static/experiments/beast_fmri_test/images/P.png'></img>	89,71	2750.0	test	<img class = center src='/static/experiments/beast_fmri_test/images/redP.png'></img>	go	1750.0	2.0	20.0	go	non-target	P	89,Middle Finger	71,Index Finger	950.0	1000.0	1800.0	1750.0	1.0	n/a	1000.0	1.0	ITI
315763	500.0	n/a	-1	-1	500	0.0	fixation	poldrack-single-stim	336	902792	0.0-15.21-0.21	beast_fmri_test	311	902401,/	t	<div class = centerbox2><div class = fixation>+</div></div>	none	500.0	test	n/a	n/a	n/a	n/a	n/a	n/a	n/a	n/a	n/a	n/a	n/a	n/a	n/a	n/a	n/a	n/a	n/a	n/a	fixation
314901.21714585379	1000.0	n/a	1176	71	2750	862.782854146	stim	stop-signal	337	905543	0.0-15.21-1.21	beast_fmri_test	311	903081,/,903759,/,904440,/,905121,/,905801,/	t,t,t,t,t	<img class = center src='/static/experiments/beast_fmri_test/images/V.png'></img>	89,71	2750.0	test	<img class = center src='/static/experiments/beast_fmri_test/images/redV.png'></img>	stop	1750.0	2.0	21.0	stop	non-target	V	89,Middle Finger	71,Index Finger	950.0	1000.0	1800.0	1750.0	0.0	0.0	1000.0	n/a	go_stim
316651.21714585379	1750.0	n/a	1176	71	2750	862.782854146	stim	stop-signal	337	905543	0.0-15.21-1.21	beast_fmri_test	311	903081,/,903759,/,904440,/,905121,/,905801,/	t,t,t,t,t	<img class = center src='/static/experiments/beast_fmri_test/images/V.png'></img>	89,71	2750.0	test	<img class = center src='/static/experiments/beast_fmri_test/images/redV.png'></img>	stop	1750.0	2.0	21.0	stop	non-target	V	89,Middle Finger	71,Index Finger	950.0	1000.0	1800.0	1750.0	0.0	0.0	1000.0	n/a	stop_stim
317651.21714585379	862.782854146	n/a	1176	71	2750	862.782854146	stim	stop-signal	337	905543	0.0-15.21-1.21	beast_fmri_test	311	903081,/,903759,/,904440,/,905121,/,905801,/	t,t,t,t,t	<img class = center src='/static/experiments/beast_fmri_test/images/V.png'></img>	89,71	2750.0	test	<img class = center src='/static/experiments/beast_fmri_test/images/redV.png'></img>	stop	1750.0	2.0	21.0	stop	non-target	V	89,Middle Finger	71,Index Finger	950.0	1000.0	1800.0	1750.0	0.0	0.0	1000.0	n/a	ITI
319911	500.0	n/a	-1	-1	500	0.0	fixation	poldrack-single-stim	338	906940	0.0-15.22-0.22	beast_fmri_test	311	906479,/	t	<div class = centerbox2><div class = fixation>+</div></div>	none	500.0	test	n/a	n/a	n/a	n/a	n/a	n/a	n/a	n/a	n/a	n/a	n/a	n/a	n/a	n/a	n/a	n/a	n/a	n/a	fixation
319748.62591486168	950.0	n/a	-1	-1	2750	164.374085138	stim	stop-signal	339	909692	0.0-15.22-1.22	beast_fmri_test	311	907160,/,907839,/,908519,/,909198,/	t,t,t,t	<img class = center src='/static/experiments/beast_fmri_test/images/B.png'></img>	89,71	2750.0	test	<img class = center src='/static/experiments/beast_fmri_test/images/redB.png'></img>	stop	1800.0	2.0	22.0	stop	non-target	B	89,Middle Finger	71,Index Finger	950.0	950.0	1800.0	1800.0	0.0	1.0	950.0	n/a	go_stim
321548.62591486168	1800.0	n/a	-1	-1	2750	164.374085138	stim	stop-signal	339	909692	0.0-15.22-1.22	beast_fmri_test	311	907160,/,907839,/,908519,/,909198,/	t,t,t,t	<img class = center src='/static/experiments/beast_fmri_test/images/B.png'></img>	89,71	2750.0	test	<img class = center src='/static/experiments/beast_fmri_test/images/redB.png'></img>	stop	1800.0	2.0	22.0	stop	non-target	B	89,Middle Finger	71,Index Finger	950.0	950.0	1800.0	1800.0	0.0	1.0	950.0	n/a	stop_stim
322498.62591486168	164.374085138	n/a	-1	-1	2750	164.374085138	stim	stop-signal	339	909692	0.0-15.22-1.22	beast_fmri_test	311	907160,/,907839,/,908519,/,909198,/	t,t,t,t	<img class = center src='/static/experiments/beast_fmri_test/images/B.png'></img>	89,71	2750.0	test	<img class = center src='/static/experiments/beast_fmri_test/images/redB.png'></img>	stop	1800.0	2.0	22.0	stop	non-target	B	89,Middle Finger	71,Index Finger	950.0	950.0	1800.0	1800.0	0.0	1.0	950.0	n/a	ITI
