onset	duration	text	rt	key_press	block_duration	timing_post_trial	trial_id	trial_type	trial_index	time_elapsed	internal_node_id	exp_id	subject_id	trigger_times	triggers	stimulus	possible_responses	stim_duration	exp_stage	SS_stimulus	SS_trial_type	SS_duration	load	trial_num	stop_trial_type	adaptive_trial_type	stim	yes_response_key	no_response_key	SSD_target	SSD_non_target	SSTarget	SSNonTarget	go_acc	stop_acc	SS_delay	adaptive_acc	new_trial_type
test	10880	n/a	-1	-1	10880	0.0	practice-no-stop-feedback	poldrack-single-stim	390	1130959	0.0-18.0	beast_fmri_test	311	1120082,/,1120760,/,1121440,/,1122119,/,1122799,/,1123479,/,1124159,/,1124837,/,1125518,/,1126198,/,1126876,/,1127557,/,1128237,/,1128916,/,1129595,/,1130276,/,1130955,/	t,t,t,t,t,t,t,t,t,t,t,t,t,t,t,t,t	"<div class = ""centerbox""><p class = ""block-text"">Your delay is 2 trials.</p><p class = block-text>Please wait for the scanner to start the block</p></div>"	77	10880.0	n/a	n/a	n/a	n/a	n/a	n/a	n/a	n/a	n/a	n/a	n/a	n/a	n/a	n/a	n/a	n/a	n/a	n/a	n/a	start_functional_block
11378	500	n/a	-1	-1	500	0.0	fixation	poldrack-single-stim	391	1131460	0.0-19.0-0.0	beast_fmri_test	311	n/a	n/a	<div class = centerbox2><div class = fixation>+</div></div>	none	500.0	test	n/a	n/a	n/a	n/a	n/a	n/a	n/a	n/a	n/a	n/a	n/a	n/a	n/a	n/a	n/a	n/a	n/a	n/a	fixation
10806.443259392632	2750	n/a	827	71	2750	573.556740607	stim	stop-signal	392	1134212	0.0-19.0-1.0	beast_fmri_test	311	1131636,/,1132314,/,1132995,/,1133675,/,1134354,/	t,t,t,t,t	<img class = center src='/static/experiments/beast_fmri_test/images/B.png'></img>	89,71	2750.0	test	<img class = center src='/static/experiments/beast_fmri_test/images/redB.png'></img>	go	-1.0	2.0	0.0	go	temp-non-target	B	89,Middle Finger	71,Index Finger	1100.0	1100.0	1650.0	1600.0	0.0	n/a	n/a	n/a	go_stim
13556.443259392632	573.55674060743877	n/a	827	71	2750	573.556740607	stim	stop-signal	392	1134212	0.0-19.0-1.0	beast_fmri_test	311	1131636,/,1132314,/,1132995,/,1133675,/,1134354,/	t,t,t,t,t	<img class = center src='/static/experiments/beast_fmri_test/images/B.png'></img>	89,71	2750.0	test	<img class = center src='/static/experiments/beast_fmri_test/images/redB.png'></img>	go	-1.0	2.0	0.0	go	temp-non-target	B	89,Middle Finger	71,Index Finger	1100.0	1100.0	1650.0	1600.0	0.0	n/a	n/a	n/a	ITI
15255	500	n/a	-1	-1	500	0.0	fixation	poldrack-single-stim	393	1135337	0.0-19.1-0.1	beast_fmri_test	311	1135033,/	t	<div class = centerbox2><div class = fixation>+</div></div>	none	500.0	test	n/a	n/a	n/a	n/a	n/a	n/a	n/a	n/a	n/a	n/a	n/a	n/a	n/a	n/a	n/a	n/a	n/a	n/a	fixation
15218.004855243489	temp_go_duration	n/a	723	71	2750	39.9951447565	stim	stop-signal	394	1138090	0.0-19.1-1.1	beast_fmri_test	311	1135714,/,1136393,/,1137073,/,1137753,/	t,t,t,t	<img class = center src='/static/experiments/beast_fmri_test/images/P.png'></img>	89,71	2750.0	test	<img class = center src='/static/experiments/beast_fmri_test/images/redP.png'></img>	stop	-1.0	2.0	1.0	stop	temp-non-target	P	89,Middle Finger	71,Index Finger	1100.0	1100.0	1650.0	1600.0	0.0	0.0	n/a	n/a	go_stim
temp-non-target	temp_stop_duration	n/a	723	71	2750	39.9951447565	stim	stop-signal	394	1138090	0.0-19.1-1.1	beast_fmri_test	311	1135714,/,1136393,/,1137073,/,1137753,/	t,t,t,t	<img class = center src='/static/experiments/beast_fmri_test/images/P.png'></img>	89,71	2750.0	test	<img class = center src='/static/experiments/beast_fmri_test/images/redP.png'></img>	stop	-1.0	2.0	1.0	stop	temp-non-target	P	89,Middle Finger	71,Index Finger	1100.0	1100.0	1650.0	1600.0	0.0	0.0	n/a	n/a	stop_stim
17968.004855243489	39.995144756470097	n/a	723	71	2750	39.9951447565	stim	stop-signal	394	1138090	0.0-19.1-1.1	beast_fmri_test	311	1135714,/,1136393,/,1137073,/,1137753,/	t,t,t,t	<img class = center src='/static/experiments/beast_fmri_test/images/P.png'></img>	89,71	2750.0	test	<img class = center src='/static/experiments/beast_fmri_test/images/redP.png'></img>	stop	-1.0	2.0	1.0	stop	temp-non-target	P	89,Middle Finger	71,Index Finger	1100.0	1100.0	1650.0	1600.0	0.0	0.0	n/a	n/a	ITI
18594	500	n/a	-1	-1	500	0.0	fixation	poldrack-single-stim	395	1138676	0.0-19.2-0.2	beast_fmri_test	311	1138432,/	t	<div class = centerbox2><div class = fixation>+</div></div>	none	500.0	test	n/a	n/a	n/a	n/a	n/a	n/a	n/a	n/a	n/a	n/a	n/a	n/a	n/a	n/a	n/a	n/a	n/a	n/a	fixation
17258.504194245907	1100.0	n/a	851	71	2750	1336.49580575	stim	stop-signal	396	1141427	0.0-19.2-1.2	beast_fmri_test	311	1139112,/,1139792,/,1140471,/,1141150,/,1141829,/,1142509,/	t,t,t,t,t,t	<img class = center src='/static/experiments/beast_fmri_test/images/T.png'></img>	89,71	2750.0	test	<img class = center src='/static/experiments/beast_fmri_test/images/redT.png'></img>	stop	1650.0	2.0	2.0	stop	non-target	T	89,Middle Finger	71,Index Finger	1100.0	1100.0	1650.0	1650.0	0.0	0.0	1100.0	n/a	go_stim
18908.504194245907	1650.0	n/a	851	71	2750	1336.49580575	stim	stop-signal	396	1141427	0.0-19.2-1.2	beast_fmri_test	311	1139112,/,1139792,/,1140471,/,1141150,/,1141829,/,1142509,/	t,t,t,t,t,t	<img class = center src='/static/experiments/beast_fmri_test/images/T.png'></img>	89,71	2750.0	test	<img class = center src='/static/experiments/beast_fmri_test/images/redT.png'></img>	stop	1650.0	2.0	2.0	stop	non-target	T	89,Middle Finger	71,Index Finger	1100.0	1100.0	1650.0	1650.0	0.0	0.0	1100.0	n/a	stop_stim
20008.504194245907	1336.4958057540637	n/a	851	71	2750	1336.49580575	stim	stop-signal	396	1141427	0.0-19.2-1.2	beast_fmri_test	311	1139112,/,1139792,/,1140471,/,1141150,/,1141829,/,1142509,/	t,t,t,t,t,t	<img class = center src='/static/experiments/beast_fmri_test/images/T.png'></img>	89,71	2750.0	test	<img class = center src='/static/experiments/beast_fmri_test/images/redT.png'></img>	stop	1650.0	2.0	2.0	stop	non-target	T	89,Middle Finger	71,Index Finger	1100.0	1100.0	1650.0	1650.0	0.0	0.0	1100.0	n/a	ITI
23234	500	n/a	-1	-1	500	0.0	fixation	poldrack-single-stim	397	1143316	0.0-19.3-0.3	beast_fmri_test	311	1143190,/	t	<div class = centerbox2><div class = fixation>+</div></div>	none	500.0	test	n/a	n/a	n/a	n/a	n/a	n/a	n/a	n/a	n/a	n/a	n/a	n/a	n/a	n/a	n/a	n/a	n/a	n/a	fixation
20384.089719620068	2750	n/a	1461	71	2750	2852.91028038	stim	stop-signal	398	1146069	0.0-19.3-1.3	beast_fmri_test	311	1143870,/,1144550,/,1145229,/,1145908,/,1146588,/,1147268,/,1147948,/,1148627,/	t,t,t,t,t,t,t,t	<img class = center src='/static/experiments/beast_fmri_test/images/T.png'></img>	89,71	2750.0	test	<img class = center src='/static/experiments/beast_fmri_test/images/redT.png'></img>	go	1700.0	2.0	3.0	go	non-target	T	89,Middle Finger	71,Index Finger	1100.0	1050.0	1650.0	1700.0	1.0	n/a	1050.0	1.0	go_stim
23134.089719620068	2852.9102803798628	n/a	1461	71	2750	2852.91028038	stim	stop-signal	398	1146069	0.0-19.3-1.3	beast_fmri_test	311	1143870,/,1144550,/,1145229,/,1145908,/,1146588,/,1147268,/,1147948,/,1148627,/	t,t,t,t,t,t,t,t	<img class = center src='/static/experiments/beast_fmri_test/images/T.png'></img>	89,71	2750.0	test	<img class = center src='/static/experiments/beast_fmri_test/images/redT.png'></img>	go	1700.0	2.0	3.0	go	non-target	T	89,Middle Finger	71,Index Finger	1100.0	1050.0	1650.0	1700.0	1.0	n/a	1050.0	1.0	ITI
29385	500	n/a	-1	-1	500	0.0	fixation	poldrack-single-stim	399	1149467	0.0-19.4-0.4	beast_fmri_test	311	1149307,/	t	<div class = centerbox2><div class = fixation>+</div></div>	none	500.0	test	n/a	n/a	n/a	n/a	n/a	n/a	n/a	n/a	n/a	n/a	n/a	n/a	n/a	n/a	n/a	n/a	n/a	n/a	fixation
27447.385500777746	2750	n/a	1366	71	2750	1939.61449922	stim	stop-signal	400	1152219	0.0-19.4-1.4	beast_fmri_test	311	1149987,/,1150665,/,1151345,/,1152025,/,1152705,/,1153385,/,1154064,/	t,t,t,t,t,t,t	<img class = center src='/static/experiments/beast_fmri_test/images/D.png'></img>	89,71	2750.0	test	<img class = center src='/static/experiments/beast_fmri_test/images/redD.png'></img>	go	1700.0	2.0	4.0	go	non-target	D	89,Middle Finger	71,Index Finger	1100.0	1050.0	1650.0	1700.0	1.0	n/a	1050.0	1.0	go_stim
30197.385500777746	1939.6144992222928	n/a	1366	71	2750	1939.61449922	stim	stop-signal	400	1152219	0.0-19.4-1.4	beast_fmri_test	311	1149987,/,1150665,/,1151345,/,1152025,/,1152705,/,1153385,/,1154064,/	t,t,t,t,t,t,t	<img class = center src='/static/experiments/beast_fmri_test/images/D.png'></img>	89,71	2750.0	test	<img class = center src='/static/experiments/beast_fmri_test/images/redD.png'></img>	go	1700.0	2.0	4.0	go	non-target	D	89,Middle Finger	71,Index Finger	1100.0	1050.0	1650.0	1700.0	1.0	n/a	1050.0	1.0	ITI
34631	500	n/a	-1	-1	500	0.0	fixation	poldrack-single-stim	401	1154713	0.0-19.5-0.5	beast_fmri_test	311	n/a	n/a	<div class = centerbox2><div class = fixation>+</div></div>	none	500.0	test	n/a	n/a	n/a	n/a	n/a	n/a	n/a	n/a	n/a	n/a	n/a	n/a	n/a	n/a	n/a	n/a	n/a	n/a	fixation
34182.653490498895	1050.0	n/a	1257	71	2750	449.346509501	stim	stop-signal	402	1157464	0.0-19.5-1.5	beast_fmri_test	311	1154743,/,1155424,/,1156103,/,1156784,/,1157462,/	t,t,t,t,t	<img class = center src='/static/experiments/beast_fmri_test/images/P.png'></img>	89,71	2750.0	test	<img class = center src='/static/experiments/beast_fmri_test/images/redP.png'></img>	stop	1700.0	2.0	5.0	stop	non-target	P	89,Middle Finger	71,Index Finger	1100.0	1050.0	1650.0	1700.0	0.0	0.0	1050.0	n/a	go_stim
35882.653490498895	1700.0	n/a	1257	71	2750	449.346509501	stim	stop-signal	402	1157464	0.0-19.5-1.5	beast_fmri_test	311	1154743,/,1155424,/,1156103,/,1156784,/,1157462,/	t,t,t,t,t	<img class = center src='/static/experiments/beast_fmri_test/images/P.png'></img>	89,71	2750.0	test	<img class = center src='/static/experiments/beast_fmri_test/images/redP.png'></img>	stop	1700.0	2.0	5.0	stop	non-target	P	89,Middle Finger	71,Index Finger	1100.0	1050.0	1650.0	1700.0	0.0	0.0	1050.0	n/a	stop_stim
36932.653490498895	449.34650950106214	n/a	1257	71	2750	449.346509501	stim	stop-signal	402	1157464	0.0-19.5-1.5	beast_fmri_test	311	1154743,/,1155424,/,1156103,/,1156784,/,1157462,/	t,t,t,t,t	<img class = center src='/static/experiments/beast_fmri_test/images/P.png'></img>	89,71	2750.0	test	<img class = center src='/static/experiments/beast_fmri_test/images/redP.png'></img>	stop	1700.0	2.0	5.0	stop	non-target	P	89,Middle Finger	71,Index Finger	1100.0	1050.0	1650.0	1700.0	0.0	0.0	1050.0	n/a	ITI
38375	500	n/a	-1	-1	500	0.0	fixation	poldrack-single-stim	403	1158457	0.0-19.6-0.6	beast_fmri_test	311	1158143,/	t	<div class = centerbox2><div class = fixation>+</div></div>	none	500.0	test	n/a	n/a	n/a	n/a	n/a	n/a	n/a	n/a	n/a	n/a	n/a	n/a	n/a	n/a	n/a	n/a	n/a	n/a	fixation
35967.588039107155	2750	n/a	1286	71	2750	2411.41196089	stim	stop-signal	404	1161211	0.0-19.6-1.6	beast_fmri_test	311	1158822,/,1159502,/,1160182,/,1160860,/,1161539,/,1162221,/,1162902,/,1163580,/	t,t,t,t,t,t,t,t	<img class = center src='/static/experiments/beast_fmri_test/images/B.png'></img>	89,71	2750.0	test	<img class = center src='/static/experiments/beast_fmri_test/images/redB.png'></img>	go	1750.0	2.0	6.0	go	non-target	B	89,Middle Finger	71,Index Finger	1100.0	1000.0	1650.0	1750.0	1.0	n/a	1000.0	1.0	go_stim
38717.588039107155	2411.4119608928218	n/a	1286	71	2750	2411.41196089	stim	stop-signal	404	1161211	0.0-19.6-1.6	beast_fmri_test	311	1158822,/,1159502,/,1160182,/,1160860,/,1161539,/,1162221,/,1162902,/,1163580,/	t,t,t,t,t,t,t,t	<img class = center src='/static/experiments/beast_fmri_test/images/B.png'></img>	89,71	2750.0	test	<img class = center src='/static/experiments/beast_fmri_test/images/redB.png'></img>	go	1750.0	2.0	6.0	go	non-target	B	89,Middle Finger	71,Index Finger	1100.0	1000.0	1650.0	1750.0	1.0	n/a	1000.0	1.0	ITI
44083	500	n/a	-1	-1	500	0.0	fixation	poldrack-single-stim	405	1164165	0.0-19.7-0.7	beast_fmri_test	311	n/a	n/a	<div class = centerbox2><div class = fixation>+</div></div>	none	500.0	test	n/a	n/a	n/a	n/a	n/a	n/a	n/a	n/a	n/a	n/a	n/a	n/a	n/a	n/a	n/a	n/a	n/a	n/a	fixation
43704.140200446593	2750	n/a	1658	71	2750	380.859799553	stim	stop-signal	406	1166917	0.0-19.7-1.7	beast_fmri_test	311	1164259,/,1164940,/,1165620,/,1166299,/,1166978,/	t,t,t,t,t	<img class = center src='/static/experiments/beast_fmri_test/images/V.png'></img>	89,71	2750.0	test	<img class = center src='/static/experiments/beast_fmri_test/images/redV.png'></img>	go	1750.0	2.0	7.0	go	non-target	V	89,Middle Finger	71,Index Finger	1100.0	1000.0	1650.0	1750.0	1.0	n/a	1000.0	1.0	go_stim
46454.140200446593	380.85979955331777	n/a	1658	71	2750	380.859799553	stim	stop-signal	406	1166917	0.0-19.7-1.7	beast_fmri_test	311	1164259,/,1164940,/,1165620,/,1166299,/,1166978,/	t,t,t,t,t	<img class = center src='/static/experiments/beast_fmri_test/images/V.png'></img>	89,71	2750.0	test	<img class = center src='/static/experiments/beast_fmri_test/images/redV.png'></img>	go	1750.0	2.0	7.0	go	non-target	V	89,Middle Finger	71,Index Finger	1100.0	1000.0	1650.0	1750.0	1.0	n/a	1000.0	1.0	ITI
47757	500	n/a	-1	-1	500	0.0	fixation	poldrack-single-stim	407	1167839	0.0-19.8-0.8	beast_fmri_test	311	1167659,/	t	<div class = centerbox2><div class = fixation>+</div></div>	none	500.0	test	n/a	n/a	n/a	n/a	n/a	n/a	n/a	n/a	n/a	n/a	n/a	n/a	n/a	n/a	n/a	n/a	n/a	n/a	fixation
46658.555718943011	2750	n/a	1415	71	2750	1099.44428106	stim	stop-signal	408	1170590	0.0-19.8-1.8	beast_fmri_test	311	1168338,/,1169018,/,1169697,/,1170377,/,1171057,/	t,t,t,t,t	<img class = center src='/static/experiments/beast_fmri_test/images/V.png'></img>	89,71	2750.0	test	<img class = center src='/static/experiments/beast_fmri_test/images/redV.png'></img>	go	1750.0	2.0	8.0	go	non-target	V	89,Middle Finger	71,Index Finger	1100.0	1000.0	1650.0	1750.0	1.0	n/a	1000.0	1.0	go_stim
49408.555718943011	1099.4442810568946	n/a	1415	71	2750	1099.44428106	stim	stop-signal	408	1170590	0.0-19.8-1.8	beast_fmri_test	311	1168338,/,1169018,/,1169697,/,1170377,/,1171057,/	t,t,t,t,t	<img class = center src='/static/experiments/beast_fmri_test/images/V.png'></img>	89,71	2750.0	test	<img class = center src='/static/experiments/beast_fmri_test/images/redV.png'></img>	go	1750.0	2.0	8.0	go	non-target	V	89,Middle Finger	71,Index Finger	1100.0	1000.0	1650.0	1750.0	1.0	n/a	1000.0	1.0	ITI
52152	500	n/a	-1	-1	500	0.0	fixation	poldrack-single-stim	409	1172234	0.0-19.9-0.9	beast_fmri_test	311	1171737,/	t	<div class = centerbox2><div class = fixation>+</div></div>	none	500.0	test	n/a	n/a	n/a	n/a	n/a	n/a	n/a	n/a	n/a	n/a	n/a	n/a	n/a	n/a	n/a	n/a	n/a	n/a	fixation
49748.634334296454	2750	n/a	1365	71	2750	2404.3656657	stim	stop-signal	410	1174985	0.0-19.9-1.9	beast_fmri_test	311	1172416,/,1173096,/,1173775,/,1174454,/,1175134,/,1175814,/,1176494,/,1177174,/	t,t,t,t,t,t,t,t	<img class = center src='/static/experiments/beast_fmri_test/images/P.png'></img>	89,71	2750.0	test	<img class = center src='/static/experiments/beast_fmri_test/images/redP.png'></img>	go	1750.0	2.0	9.0	go	non-target	P	89,Middle Finger	71,Index Finger	1100.0	1000.0	1650.0	1750.0	1.0	n/a	1000.0	1.0	go_stim
52498.634334296454	2404.3656657035212	n/a	1365	71	2750	2404.3656657	stim	stop-signal	410	1174985	0.0-19.9-1.9	beast_fmri_test	311	1172416,/,1173096,/,1173775,/,1174454,/,1175134,/,1175814,/,1176494,/,1177174,/	t,t,t,t,t,t,t,t	<img class = center src='/static/experiments/beast_fmri_test/images/P.png'></img>	89,71	2750.0	test	<img class = center src='/static/experiments/beast_fmri_test/images/redP.png'></img>	go	1750.0	2.0	9.0	go	non-target	P	89,Middle Finger	71,Index Finger	1100.0	1000.0	1650.0	1750.0	1.0	n/a	1000.0	1.0	ITI
57851	500	n/a	-1	-1	500	0.0	fixation	poldrack-single-stim	411	1177933	0.0-19.10-0.10	beast_fmri_test	311	1177853,/	t	<div class = centerbox2><div class = fixation>+</div></div>	none	500.0	test	n/a	n/a	n/a	n/a	n/a	n/a	n/a	n/a	n/a	n/a	n/a	n/a	n/a	n/a	n/a	n/a	n/a	n/a	fixation
55846.930147451116	2750	n/a	2234	71	2750	2007.06985255	stim	stop-signal	412	1180686	0.0-19.10-1.10	beast_fmri_test	311	1178533,/,1179213,/,1179892,/,1180572,/,1181253,/,1181932,/,1182611,/	t,t,t,t,t,t,t	<img class = center src='/static/experiments/beast_fmri_test/images/B.png'></img>	89,71	2750.0	test	<img class = center src='/static/experiments/beast_fmri_test/images/redB.png'></img>	go	1750.0	2.0	10.0	go	non-target	B	89,Middle Finger	71,Index Finger	1100.0	1000.0	1650.0	1750.0	1.0	n/a	1000.0	1.0	go_stim
58596.930147451116	2007.0698525488986	n/a	2234	71	2750	2007.06985255	stim	stop-signal	412	1180686	0.0-19.10-1.10	beast_fmri_test	311	1178533,/,1179213,/,1179892,/,1180572,/,1181253,/,1181932,/,1182611,/	t,t,t,t,t,t,t	<img class = center src='/static/experiments/beast_fmri_test/images/B.png'></img>	89,71	2750.0	test	<img class = center src='/static/experiments/beast_fmri_test/images/redB.png'></img>	go	1750.0	2.0	10.0	go	non-target	B	89,Middle Finger	71,Index Finger	1100.0	1000.0	1650.0	1750.0	1.0	n/a	1000.0	1.0	ITI
63157	500	n/a	-1	-1	500	0.0	fixation	poldrack-single-stim	413	1183239	0.0-19.11-0.11	beast_fmri_test	311	n/a	n/a	<div class = centerbox2><div class = fixation>+</div></div>	none	500.0	test	n/a	n/a	n/a	n/a	n/a	n/a	n/a	n/a	n/a	n/a	n/a	n/a	n/a	n/a	n/a	n/a	n/a	n/a	fixation
62546.997109903954	2750	n/a	1896	71	2750	613.002890096	stim	stop-signal	414	1185992	0.0-19.11-1.11	beast_fmri_test	311	1183291,/,1183971,/,1184651,/,1185330,/,1186009,/	t,t,t,t,t	<img class = center src='/static/experiments/beast_fmri_test/images/T.png'></img>	89,71	2750.0	test	<img class = center src='/static/experiments/beast_fmri_test/images/redT.png'></img>	go	1750.0	2.0	11.0	go	non-target	T	89,Middle Finger	71,Index Finger	1100.0	1000.0	1650.0	1750.0	1.0	n/a	1000.0	1.0	go_stim
65296.997109903954	613.00289009607809	n/a	1896	71	2750	613.002890096	stim	stop-signal	414	1185992	0.0-19.11-1.11	beast_fmri_test	311	1183291,/,1183971,/,1184651,/,1185330,/,1186009,/	t,t,t,t,t	<img class = center src='/static/experiments/beast_fmri_test/images/T.png'></img>	89,71	2750.0	test	<img class = center src='/static/experiments/beast_fmri_test/images/redT.png'></img>	go	1750.0	2.0	11.0	go	non-target	T	89,Middle Finger	71,Index Finger	1100.0	1000.0	1650.0	1750.0	1.0	n/a	1000.0	1.0	ITI
67073	500	n/a	-1	-1	500	0.0	fixation	poldrack-single-stim	415	1187155	0.0-19.12-0.12	beast_fmri_test	311	1186691,/	t	<div class = centerbox2><div class = fixation>+</div></div>	none	500.0	test	n/a	n/a	n/a	n/a	n/a	n/a	n/a	n/a	n/a	n/a	n/a	n/a	n/a	n/a	n/a	n/a	n/a	n/a	fixation
65148.009472522419	2750	n/a	2162	71	2750	1926.99052748	stim	stop-signal	416	1189907	0.0-19.12-1.12	beast_fmri_test	311	1187369,/,1188049,/,1188730,/,1189408,/,1190088,/,1190769,/,1191447,/	t,t,t,t,t,t,t	<img class = center src='/static/experiments/beast_fmri_test/images/V.png'></img>	89,71	2750.0	test	<img class = center src='/static/experiments/beast_fmri_test/images/redV.png'></img>	go	1750.0	2.0	12.0	go	non-target	V	89,Middle Finger	71,Index Finger	1100.0	1000.0	1650.0	1750.0	1.0	n/a	1000.0	1.0	go_stim
67898.009472522419	1926.990527477521	n/a	2162	71	2750	1926.99052748	stim	stop-signal	416	1189907	0.0-19.12-1.12	beast_fmri_test	311	1187369,/,1188049,/,1188730,/,1189408,/,1190088,/,1190769,/,1191447,/	t,t,t,t,t,t,t	<img class = center src='/static/experiments/beast_fmri_test/images/V.png'></img>	89,71	2750.0	test	<img class = center src='/static/experiments/beast_fmri_test/images/redV.png'></img>	go	1750.0	2.0	12.0	go	non-target	V	89,Middle Finger	71,Index Finger	1100.0	1000.0	1650.0	1750.0	1.0	n/a	1000.0	1.0	ITI
72298	500	n/a	-1	-1	500	0.0	fixation	poldrack-single-stim	417	1192380	0.0-19.13-0.13	beast_fmri_test	311	1192127,/	t	<div class = centerbox2><div class = fixation>+</div></div>	none	500.0	test	n/a	n/a	n/a	n/a	n/a	n/a	n/a	n/a	n/a	n/a	n/a	n/a	n/a	n/a	n/a	n/a	n/a	n/a	fixation
70775.595921209082	1000.0	n/a	-1	-1	2750	1524.40407879	stim	stop-signal	418	1195132	0.0-19.13-1.13	beast_fmri_test	311	1192807,/,1193487,/,1194167,/,1194847,/,1195526,/,1196206,/	t,t,t,t,t,t	<img class = center src='/static/experiments/beast_fmri_test/images/D.png'></img>	89,71	2750.0	test	<img class = center src='/static/experiments/beast_fmri_test/images/redD.png'></img>	stop	1750.0	2.0	13.0	stop	non-target	D	89,Middle Finger	71,Index Finger	1100.0	1000.0	1650.0	1750.0	0.0	1.0	1000.0	n/a	go_stim
72525.595921209082	1750.0	n/a	-1	-1	2750	1524.40407879	stim	stop-signal	418	1195132	0.0-19.13-1.13	beast_fmri_test	311	1192807,/,1193487,/,1194167,/,1194847,/,1195526,/,1196206,/	t,t,t,t,t,t	<img class = center src='/static/experiments/beast_fmri_test/images/D.png'></img>	89,71	2750.0	test	<img class = center src='/static/experiments/beast_fmri_test/images/redD.png'></img>	stop	1750.0	2.0	13.0	stop	non-target	D	89,Middle Finger	71,Index Finger	1100.0	1000.0	1650.0	1750.0	0.0	1.0	1000.0	n/a	stop_stim
73525.595921209082	1524.4040787910333	n/a	-1	-1	2750	1524.40407879	stim	stop-signal	418	1195132	0.0-19.13-1.13	beast_fmri_test	311	1192807,/,1193487,/,1194167,/,1194847,/,1195526,/,1196206,/	t,t,t,t,t,t	<img class = center src='/static/experiments/beast_fmri_test/images/D.png'></img>	89,71	2750.0	test	<img class = center src='/static/experiments/beast_fmri_test/images/redD.png'></img>	stop	1750.0	2.0	13.0	stop	non-target	D	89,Middle Finger	71,Index Finger	1100.0	1000.0	1650.0	1750.0	0.0	1.0	1000.0	n/a	ITI
77122	500	n/a	-1	-1	500	0.0	fixation	poldrack-single-stim	419	1197204	0.0-19.14-0.14	beast_fmri_test	311	1196884,/	t	<div class = centerbox2><div class = fixation>+</div></div>	none	500.0	test	n/a	n/a	n/a	n/a	n/a	n/a	n/a	n/a	n/a	n/a	n/a	n/a	n/a	n/a	n/a	n/a	n/a	n/a	fixation
75390.275646588299	1100.0	n/a	-1	-1	2750	1734.72435341	stim	stop-signal	420	1199957	0.0-19.14-1.14	beast_fmri_test	311	1197565,/,1198245,/,1198924,/,1199604,/,1200283,/,1200963,/,1201643,/	t,t,t,t,t,t,t	<img class = center src='/static/experiments/beast_fmri_test/images/V.png'></img>	89,71	2750.0	test	<img class = center src='/static/experiments/beast_fmri_test/images/redV.png'></img>	stop	1650.0	2.0	14.0	stop	target	V	89,Middle Finger	71,Index Finger	1100.0	1050.0	1650.0	1750.0	0.0	1.0	1100.0	n/a	go_stim
77040.275646588299	1650.0	n/a	-1	-1	2750	1734.72435341	stim	stop-signal	420	1199957	0.0-19.14-1.14	beast_fmri_test	311	1197565,/,1198245,/,1198924,/,1199604,/,1200283,/,1200963,/,1201643,/	t,t,t,t,t,t,t	<img class = center src='/static/experiments/beast_fmri_test/images/V.png'></img>	89,71	2750.0	test	<img class = center src='/static/experiments/beast_fmri_test/images/redV.png'></img>	stop	1650.0	2.0	14.0	stop	target	V	89,Middle Finger	71,Index Finger	1100.0	1050.0	1650.0	1750.0	0.0	1.0	1100.0	n/a	stop_stim
78140.275646588299	1734.7243534116785	n/a	-1	-1	2750	1734.72435341	stim	stop-signal	420	1199957	0.0-19.14-1.14	beast_fmri_test	311	1197565,/,1198245,/,1198924,/,1199604,/,1200283,/,1200963,/,1201643,/	t,t,t,t,t,t,t	<img class = center src='/static/experiments/beast_fmri_test/images/V.png'></img>	89,71	2750.0	test	<img class = center src='/static/experiments/beast_fmri_test/images/redV.png'></img>	stop	1650.0	2.0	14.0	stop	target	V	89,Middle Finger	71,Index Finger	1100.0	1050.0	1650.0	1750.0	0.0	1.0	1100.0	n/a	ITI
82155	500	n/a	-1	-1	500	0.0	fixation	poldrack-single-stim	421	1202237	0.0-19.15-0.15	beast_fmri_test	311	n/a	n/a	<div class = centerbox2><div class = fixation>+</div></div>	none	500.0	test	n/a	n/a	n/a	n/a	n/a	n/a	n/a	n/a	n/a	n/a	n/a	n/a	n/a	n/a	n/a	n/a	n/a	n/a	fixation
80668.030312216375	1150.0	n/a	-1	-1	2750	1487.96968778	stim	stop-signal	422	1204988	0.0-19.15-1.15	beast_fmri_test	311	1202321,/,1203001,/,1203682,/,1204361,/,1205041,/,1205720,/,1206400,/	t,t,t,t,t,t,t	<img class = center src='/static/experiments/beast_fmri_test/images/D.png'></img>	89,71	2750.0	test	<img class = center src='/static/experiments/beast_fmri_test/images/redD.png'></img>	stop	1600.0	2.0	15.0	stop	target	D	89,Middle Finger	71,Index Finger	1150.0	1050.0	1600.0	1750.0	0.0	1.0	1150.0	n/a	go_stim
82268.030312216375	1600.0	n/a	-1	-1	2750	1487.96968778	stim	stop-signal	422	1204988	0.0-19.15-1.15	beast_fmri_test	311	1202321,/,1203001,/,1203682,/,1204361,/,1205041,/,1205720,/,1206400,/	t,t,t,t,t,t,t	<img class = center src='/static/experiments/beast_fmri_test/images/D.png'></img>	89,71	2750.0	test	<img class = center src='/static/experiments/beast_fmri_test/images/redD.png'></img>	stop	1600.0	2.0	15.0	stop	target	D	89,Middle Finger	71,Index Finger	1150.0	1050.0	1600.0	1750.0	0.0	1.0	1150.0	n/a	stop_stim
83418.030312216375	1487.9696877836413	n/a	-1	-1	2750	1487.96968778	stim	stop-signal	422	1204988	0.0-19.15-1.15	beast_fmri_test	311	1202321,/,1203001,/,1203682,/,1204361,/,1205041,/,1205720,/,1206400,/	t,t,t,t,t,t,t	<img class = center src='/static/experiments/beast_fmri_test/images/D.png'></img>	89,71	2750.0	test	<img class = center src='/static/experiments/beast_fmri_test/images/redD.png'></img>	stop	1600.0	2.0	15.0	stop	target	D	89,Middle Finger	71,Index Finger	1150.0	1050.0	1600.0	1750.0	0.0	1.0	1150.0	n/a	ITI
86945	500	n/a	-1	-1	500	0.0	fixation	poldrack-single-stim	423	1207027	0.0-19.16-0.16	beast_fmri_test	311	n/a	n/a	<div class = centerbox2><div class = fixation>+</div></div>	none	500.0	test	n/a	n/a	n/a	n/a	n/a	n/a	n/a	n/a	n/a	n/a	n/a	n/a	n/a	n/a	n/a	n/a	n/a	n/a	fixation
85561.582812241279	2750	n/a	1536	71	2750	1386.41718776	stim	stop-signal	424	1209780	0.0-19.16-1.16	beast_fmri_test	311	1207078,/,1207760,/,1208440,/,1209120,/,1209798,/,1210479,/,1211158,/	t,t,t,t,t,t,t	<img class = center src='/static/experiments/beast_fmri_test/images/T.png'></img>	89,71	2750.0	test	<img class = center src='/static/experiments/beast_fmri_test/images/redT.png'></img>	go	1700.0	2.0	16.0	go	non-target	T	89,Middle Finger	71,Index Finger	1200.0	1050.0	1600.0	1700.0	1.0	n/a	1050.0	1.0	go_stim
88311.582812241279	1386.4171877586234	n/a	1536	71	2750	1386.41718776	stim	stop-signal	424	1209780	0.0-19.16-1.16	beast_fmri_test	311	1207078,/,1207760,/,1208440,/,1209120,/,1209798,/,1210479,/,1211158,/	t,t,t,t,t,t,t	<img class = center src='/static/experiments/beast_fmri_test/images/T.png'></img>	89,71	2750.0	test	<img class = center src='/static/experiments/beast_fmri_test/images/redT.png'></img>	go	1700.0	2.0	16.0	go	non-target	T	89,Middle Finger	71,Index Finger	1200.0	1050.0	1600.0	1700.0	1.0	n/a	1050.0	1.0	ITI
91630	500	n/a	-1	-1	500	0.0	fixation	poldrack-single-stim	425	1211712	0.0-19.17-0.17	beast_fmri_test	311	n/a	n/a	<div class = centerbox2><div class = fixation>+</div></div>	none	500.0	test	n/a	n/a	n/a	n/a	n/a	n/a	n/a	n/a	n/a	n/a	n/a	n/a	n/a	n/a	n/a	n/a	n/a	n/a	fixation
91520.399736253545	2750	n/a	1339	71	2750	110.600263746	stim	stop-signal	426	1214463	0.0-19.17-1.17	beast_fmri_test	311	1211838,/,1212517,/,1213196,/,1213877,/,1214556,/	t,t,t,t,t	<img class = center src='/static/experiments/beast_fmri_test/images/T.png'></img>	89,71	2750.0	test	<img class = center src='/static/experiments/beast_fmri_test/images/redT.png'></img>	go	1700.0	2.0	17.0	go	non-target	T	89,Middle Finger	71,Index Finger	1200.0	1050.0	1600.0	1700.0	1.0	n/a	1050.0	1.0	go_stim
94270.399736253545	110.6002637464734	n/a	1339	71	2750	110.600263746	stim	stop-signal	426	1214463	0.0-19.17-1.17	beast_fmri_test	311	1211838,/,1212517,/,1213196,/,1213877,/,1214556,/	t,t,t,t,t	<img class = center src='/static/experiments/beast_fmri_test/images/T.png'></img>	89,71	2750.0	test	<img class = center src='/static/experiments/beast_fmri_test/images/redT.png'></img>	go	1700.0	2.0	17.0	go	non-target	T	89,Middle Finger	71,Index Finger	1200.0	1050.0	1600.0	1700.0	1.0	n/a	1050.0	1.0	ITI
95040	500	n/a	-1	-1	500	0.0	fixation	poldrack-single-stim	427	1215122	0.0-19.18-0.18	beast_fmri_test	311	n/a	n/a	<div class = centerbox2><div class = fixation>+</div></div>	none	500.0	test	n/a	n/a	n/a	n/a	n/a	n/a	n/a	n/a	n/a	n/a	n/a	n/a	n/a	n/a	n/a	n/a	n/a	n/a	fixation
93103.986665765056	2750	n/a	1831	71	2750	1938.01333423	stim	stop-signal	428	1217874	0.0-19.18-1.18	beast_fmri_test	311	1215236,/,1215916,/,1216595,/,1217275,/,1217955,/,1218635,/,1219315,/	t,t,t,t,t,t,t	<img class = center src='/static/experiments/beast_fmri_test/images/V.png'></img>	89,71	2750.0	test	<img class = center src='/static/experiments/beast_fmri_test/images/redV.png'></img>	go	1700.0	2.0	18.0	go	non-target	V	89,Middle Finger	71,Index Finger	1200.0	1050.0	1600.0	1700.0	1.0	n/a	1050.0	1.0	go_stim
95853.986665765056	1938.0133342348879	n/a	1831	71	2750	1938.01333423	stim	stop-signal	428	1217874	0.0-19.18-1.18	beast_fmri_test	311	1215236,/,1215916,/,1216595,/,1217275,/,1217955,/,1218635,/,1219315,/	t,t,t,t,t,t,t	<img class = center src='/static/experiments/beast_fmri_test/images/V.png'></img>	89,71	2750.0	test	<img class = center src='/static/experiments/beast_fmri_test/images/redV.png'></img>	go	1700.0	2.0	18.0	go	non-target	V	89,Middle Finger	71,Index Finger	1200.0	1050.0	1600.0	1700.0	1.0	n/a	1050.0	1.0	ITI
100280	500	n/a	-1	-1	500	0.0	fixation	poldrack-single-stim	429	1220362	0.0-19.19-0.19	beast_fmri_test	311	1219993,/	t	<div class = centerbox2><div class = fixation>+</div></div>	none	500.0	test	n/a	n/a	n/a	n/a	n/a	n/a	n/a	n/a	n/a	n/a	n/a	n/a	n/a	n/a	n/a	n/a	n/a	n/a	fixation
98015.729128854116	2750	n/a	1546	89	2750	2266.27087115	stim	stop-signal	430	1223114	0.0-19.19-1.19	beast_fmri_test	311	1220674,/,1221354,/,1222034,/,1222714,/,1223393,/,1224073,/,1224752,/	t,t,t,t,t,t,t	<img class = center src='/static/experiments/beast_fmri_test/images/T.png'></img>	89,71	2750.0	test	<img class = center src='/static/experiments/beast_fmri_test/images/redT.png'></img>	go	1550.0	2.0	19.0	go	target	T	89,Middle Finger	71,Index Finger	1200.0	1050.0	1550.0	1700.0	1.0	n/a	1200.0	1.0	go_stim
100765.72912885412	2266.270871145829	n/a	1546	89	2750	2266.27087115	stim	stop-signal	430	1223114	0.0-19.19-1.19	beast_fmri_test	311	1220674,/,1221354,/,1222034,/,1222714,/,1223393,/,1224073,/,1224752,/	t,t,t,t,t,t,t	<img class = center src='/static/experiments/beast_fmri_test/images/T.png'></img>	89,71	2750.0	test	<img class = center src='/static/experiments/beast_fmri_test/images/redT.png'></img>	go	1550.0	2.0	19.0	go	target	T	89,Middle Finger	71,Index Finger	1200.0	1050.0	1550.0	1700.0	1.0	n/a	1200.0	1.0	ITI
105846	500	n/a	-1	-1	500	0.0	fixation	poldrack-single-stim	431	1225928	0.0-19.20-0.20	beast_fmri_test	311	1225431,/	t	<div class = centerbox2><div class = fixation>+</div></div>	none	500.0	test	n/a	n/a	n/a	n/a	n/a	n/a	n/a	n/a	n/a	n/a	n/a	n/a	n/a	n/a	n/a	n/a	n/a	n/a	fixation
105190.85999578959	2750	n/a	895	71	2750	657.14000421	stim	stop-signal	432	1228680	0.0-19.20-1.20	beast_fmri_test	311	1226112,/,1226792,/,1227471,/,1228151,/,1228830,/	t,t,t,t,t	<img class = center src='/static/experiments/beast_fmri_test/images/B.png'></img>	89,71	2750.0	test	<img class = center src='/static/experiments/beast_fmri_test/images/redB.png'></img>	go	1700.0	2.0	20.0	go	non-target	B	89,Middle Finger	71,Index Finger	1200.0	1050.0	1550.0	1700.0	1.0	n/a	1050.0	1.0	go_stim
107940.85999578959	657.14000421046865	n/a	895	71	2750	657.14000421	stim	stop-signal	432	1228680	0.0-19.20-1.20	beast_fmri_test	311	1226112,/,1226792,/,1227471,/,1228151,/,1228830,/	t,t,t,t,t	<img class = center src='/static/experiments/beast_fmri_test/images/B.png'></img>	89,71	2750.0	test	<img class = center src='/static/experiments/beast_fmri_test/images/redB.png'></img>	go	1700.0	2.0	20.0	go	non-target	B	89,Middle Finger	71,Index Finger	1200.0	1050.0	1550.0	1700.0	1.0	n/a	1050.0	1.0	ITI
109805	500	n/a	-1	-1	500	0.0	fixation	poldrack-single-stim	433	1229887	0.0-19.21-0.21	beast_fmri_test	311	1229510,/	t	<div class = centerbox2><div class = fixation>+</div></div>	none	500.0	test	n/a	n/a	n/a	n/a	n/a	n/a	n/a	n/a	n/a	n/a	n/a	n/a	n/a	n/a	n/a	n/a	n/a	n/a	fixation
109188.58795728651	2750	n/a	1252	71	2750	618.412042714	stim	stop-signal	434	1232639	0.0-19.21-1.21	beast_fmri_test	311	1230189,/,1230869,/,1231549,/,1232228,/,1232909,/	t,t,t,t,t	<img class = center src='/static/experiments/beast_fmri_test/images/T.png'></img>	89,71	2750.0	test	<img class = center src='/static/experiments/beast_fmri_test/images/redT.png'></img>	go	1550.0	2.0	21.0	go	target	T	89,Middle Finger	71,Index Finger	1200.0	1050.0	1550.0	1700.0	0.0	n/a	1200.0	0.0	go_stim
111938.58795728651	618.4120427135914	n/a	1252	71	2750	618.412042714	stim	stop-signal	434	1232639	0.0-19.21-1.21	beast_fmri_test	311	1230189,/,1230869,/,1231549,/,1232228,/,1232909,/	t,t,t,t,t	<img class = center src='/static/experiments/beast_fmri_test/images/T.png'></img>	89,71	2750.0	test	<img class = center src='/static/experiments/beast_fmri_test/images/redT.png'></img>	go	1550.0	2.0	21.0	go	target	T	89,Middle Finger	71,Index Finger	1200.0	1050.0	1550.0	1700.0	0.0	n/a	1200.0	0.0	ITI
113725	500	n/a	-1	-1	500	0.0	fixation	poldrack-single-stim	435	1233807	0.0-19.22-0.22	beast_fmri_test	311	1233588,/	t	<div class = centerbox2><div class = fixation>+</div></div>	none	500.0	test	n/a	n/a	n/a	n/a	n/a	n/a	n/a	n/a	n/a	n/a	n/a	n/a	n/a	n/a	n/a	n/a	n/a	n/a	fixation
113258.70465153363	1050.0	n/a	-1	-1	2750	466.295348466	stim	stop-signal	436	1236557	0.0-19.22-1.22	beast_fmri_test	311	1234267,/,1234946,/,1235627,/,1236307,/,1236985,/	t,t,t,t,t	<img class = center src='/static/experiments/beast_fmri_test/images/V.png'></img>	89,71	2750.0	test	<img class = center src='/static/experiments/beast_fmri_test/images/redV.png'></img>	stop	1700.0	2.0	22.0	stop	non-target	V	89,Middle Finger	71,Index Finger	1200.0	1050.0	1550.0	1700.0	0.0	1.0	1050.0	n/a	go_stim
114958.70465153363	1700.0	n/a	-1	-1	2750	466.295348466	stim	stop-signal	436	1236557	0.0-19.22-1.22	beast_fmri_test	311	1234267,/,1234946,/,1235627,/,1236307,/,1236985,/	t,t,t,t,t	<img class = center src='/static/experiments/beast_fmri_test/images/V.png'></img>	89,71	2750.0	test	<img class = center src='/static/experiments/beast_fmri_test/images/redV.png'></img>	stop	1700.0	2.0	22.0	stop	non-target	V	89,Middle Finger	71,Index Finger	1200.0	1050.0	1550.0	1700.0	0.0	1.0	1050.0	n/a	stop_stim
116008.70465153363	466.29534846633481	n/a	-1	-1	2750	466.295348466	stim	stop-signal	436	1236557	0.0-19.22-1.22	beast_fmri_test	311	1234267,/,1234946,/,1235627,/,1236307,/,1236985,/	t,t,t,t,t	<img class = center src='/static/experiments/beast_fmri_test/images/V.png'></img>	89,71	2750.0	test	<img class = center src='/static/experiments/beast_fmri_test/images/redV.png'></img>	stop	1700.0	2.0	22.0	stop	non-target	V	89,Middle Finger	71,Index Finger	1200.0	1050.0	1550.0	1700.0	0.0	1.0	1050.0	n/a	ITI
117491	500	n/a	-1	-1	500	0.0	fixation	poldrack-single-stim	437	1237573	0.0-19.23-0.23	beast_fmri_test	311	n/a	n/a	<div class = centerbox2><div class = fixation>+</div></div>	none	500.0	test	n/a	n/a	n/a	n/a	n/a	n/a	n/a	n/a	n/a	n/a	n/a	n/a	n/a	n/a	n/a	n/a	n/a	n/a	fixation
117138.77879290818	1200.0	n/a	-1	-1	2750	354.221207092	stim	stop-signal	438	1240325	0.0-19.23-1.23	beast_fmri_test	311	1237665,/,1238346,/,1239026,/,1239704,/,1240384,/	t,t,t,t,t	<img class = center src='/static/experiments/beast_fmri_test/images/T.png'></img>	89,71	2750.0	test	<img class = center src='/static/experiments/beast_fmri_test/images/redT.png'></img>	stop	1550.0	2.0	23.0	stop	target	T	89,Middle Finger	71,Index Finger	1200.0	1100.0	1550.0	1700.0	0.0	1.0	1200.0	n/a	go_stim
118688.77879290818	1550.0	n/a	-1	-1	2750	354.221207092	stim	stop-signal	438	1240325	0.0-19.23-1.23	beast_fmri_test	311	1237665,/,1238346,/,1239026,/,1239704,/,1240384,/	t,t,t,t,t	<img class = center src='/static/experiments/beast_fmri_test/images/T.png'></img>	89,71	2750.0	test	<img class = center src='/static/experiments/beast_fmri_test/images/redT.png'></img>	stop	1550.0	2.0	23.0	stop	target	T	89,Middle Finger	71,Index Finger	1200.0	1100.0	1550.0	1700.0	0.0	1.0	1200.0	n/a	stop_stim
119888.77879290818	354.22120709185981	n/a	-1	-1	2750	354.221207092	stim	stop-signal	438	1240325	0.0-19.23-1.23	beast_fmri_test	311	1237665,/,1238346,/,1239026,/,1239704,/,1240384,/	t,t,t,t,t	<img class = center src='/static/experiments/beast_fmri_test/images/T.png'></img>	89,71	2750.0	test	<img class = center src='/static/experiments/beast_fmri_test/images/redT.png'></img>	stop	1550.0	2.0	23.0	stop	target	T	89,Middle Finger	71,Index Finger	1200.0	1100.0	1550.0	1700.0	0.0	1.0	1200.0	n/a	ITI
121158	500	n/a	-1	-1	500	0.0	fixation	poldrack-single-stim	439	1241240	0.0-19.24-0.24	beast_fmri_test	311	1241065,/	t	<div class = centerbox2><div class = fixation>+</div></div>	none	500.0	test	n/a	n/a	n/a	n/a	n/a	n/a	n/a	n/a	n/a	n/a	n/a	n/a	n/a	n/a	n/a	n/a	n/a	n/a	fixation
121016.16196871386	1100.0	n/a	-1	-1	2750	144.838031286	stim	stop-signal	440	1243993	0.0-19.24-1.24	beast_fmri_test	311	1241744,/,1242424,/,1243104,/,1243781,/	t,t,t,t	<img class = center src='/static/experiments/beast_fmri_test/images/T.png'></img>	89,71	2750.0	test	<img class = center src='/static/experiments/beast_fmri_test/images/redT.png'></img>	stop	1650.0	2.0	24.0	stop	non-target	T	89,Middle Finger	71,Index Finger	1250.0	1100.0	1550.0	1650.0	0.0	1.0	1100.0	n/a	go_stim
122666.16196871386	1650.0	n/a	-1	-1	2750	144.838031286	stim	stop-signal	440	1243993	0.0-19.24-1.24	beast_fmri_test	311	1241744,/,1242424,/,1243104,/,1243781,/	t,t,t,t	<img class = center src='/static/experiments/beast_fmri_test/images/T.png'></img>	89,71	2750.0	test	<img class = center src='/static/experiments/beast_fmri_test/images/redT.png'></img>	stop	1650.0	2.0	24.0	stop	non-target	T	89,Middle Finger	71,Index Finger	1250.0	1100.0	1550.0	1650.0	0.0	1.0	1100.0	n/a	stop_stim
123766.16196871386	144.83803128602497	n/a	-1	-1	2750	144.838031286	stim	stop-signal	440	1243993	0.0-19.24-1.24	beast_fmri_test	311	1241744,/,1242424,/,1243104,/,1243781,/	t,t,t,t	<img class = center src='/static/experiments/beast_fmri_test/images/T.png'></img>	89,71	2750.0	test	<img class = center src='/static/experiments/beast_fmri_test/images/redT.png'></img>	stop	1650.0	2.0	24.0	stop	non-target	T	89,Middle Finger	71,Index Finger	1250.0	1100.0	1550.0	1650.0	0.0	1.0	1100.0	n/a	ITI
124602	500	n/a	-1	-1	500	0.0	fixation	poldrack-single-stim	441	1244684	0.0-19.25-0.25	beast_fmri_test	311	1244462,/	t	<div class = centerbox2><div class = fixation>+</div></div>	none	500.0	test	n/a	n/a	n/a	n/a	n/a	n/a	n/a	n/a	n/a	n/a	n/a	n/a	n/a	n/a	n/a	n/a	n/a	n/a	fixation
121726.14692367916	2750	n/a	1420	89	2750	2878.85307632	stim	stop-signal	442	1247437	0.0-19.25-1.25	beast_fmri_test	311	1245144,/,1245822,/,1246503,/,1247182,/,1247861,/,1248541,/,1249221,/,1249901,/	t,t,t,t,t,t,t,t	<img class = center src='/static/experiments/beast_fmri_test/images/T.png'></img>	89,71	2750.0	test	<img class = center src='/static/experiments/beast_fmri_test/images/redT.png'></img>	go	1500.0	2.0	25.0	go	target	T	89,Middle Finger	71,Index Finger	1250.0	1150.0	1500.0	1650.0	1.0	n/a	1250.0	1.0	go_stim
124476.14692367916	2878.8530763209096	n/a	1420	89	2750	2878.85307632	stim	stop-signal	442	1247437	0.0-19.25-1.25	beast_fmri_test	311	1245144,/,1245822,/,1246503,/,1247182,/,1247861,/,1248541,/,1249221,/,1249901,/	t,t,t,t,t,t,t,t	<img class = center src='/static/experiments/beast_fmri_test/images/T.png'></img>	89,71	2750.0	test	<img class = center src='/static/experiments/beast_fmri_test/images/redT.png'></img>	go	1500.0	2.0	25.0	go	target	T	89,Middle Finger	71,Index Finger	1250.0	1150.0	1500.0	1650.0	1.0	n/a	1250.0	1.0	ITI
130781	500	n/a	-1	-1	500	0.0	fixation	poldrack-single-stim	443	1250863	0.0-19.26-0.26	beast_fmri_test	311	1250581,/	t	<div class = centerbox2><div class = fixation>+</div></div>	none	500.0	test	n/a	n/a	n/a	n/a	n/a	n/a	n/a	n/a	n/a	n/a	n/a	n/a	n/a	n/a	n/a	n/a	n/a	n/a	fixation
130070.91134864744	2750	n/a	1027	89	2750	713.088651353	stim	stop-signal	444	1253616	0.0-19.26-1.26	beast_fmri_test	311	1251260,/,1251940,/,1252620,/,1253298,/,1253979,/	t,t,t,t,t	<img class = center src='/static/experiments/beast_fmri_test/images/T.png'></img>	89,71	2750.0	test	<img class = center src='/static/experiments/beast_fmri_test/images/redT.png'></img>	go	1500.0	2.0	26.0	go	target	T	89,Middle Finger	71,Index Finger	1250.0	1150.0	1500.0	1650.0	1.0	n/a	1250.0	1.0	go_stim
132820.91134864744	713.08865135250994	n/a	1027	89	2750	713.088651353	stim	stop-signal	444	1253616	0.0-19.26-1.26	beast_fmri_test	311	1251260,/,1251940,/,1252620,/,1253298,/,1253979,/	t,t,t,t,t	<img class = center src='/static/experiments/beast_fmri_test/images/T.png'></img>	89,71	2750.0	test	<img class = center src='/static/experiments/beast_fmri_test/images/redT.png'></img>	go	1500.0	2.0	26.0	go	target	T	89,Middle Finger	71,Index Finger	1250.0	1150.0	1500.0	1650.0	1.0	n/a	1250.0	1.0	ITI
134796	500	n/a	-1	-1	500	0.0	fixation	poldrack-single-stim	445	1254878	0.0-19.27-0.27	beast_fmri_test	311	1254659,/	t	<div class = centerbox2><div class = fixation>+</div></div>	none	500.0	test	n/a	n/a	n/a	n/a	n/a	n/a	n/a	n/a	n/a	n/a	n/a	n/a	n/a	n/a	n/a	n/a	n/a	n/a	fixation
133515.60512039065	1150.0	n/a	-1	-1	2750	1283.39487961	stim	stop-signal	446	1257631	0.0-19.27-1.27	beast_fmri_test	311	1255338,/,1256018,/,1256698,/,1257377,/,1258057,/,1258736,/	t,t,t,t,t,t	<img class = center src='/static/experiments/beast_fmri_test/images/P.png'></img>	89,71	2750.0	test	<img class = center src='/static/experiments/beast_fmri_test/images/redP.png'></img>	stop	1600.0	2.0	27.0	stop	non-target	P	89,Middle Finger	71,Index Finger	1250.0	1150.0	1500.0	1600.0	0.0	1.0	1150.0	n/a	go_stim
135115.60512039065	1600.0	n/a	-1	-1	2750	1283.39487961	stim	stop-signal	446	1257631	0.0-19.27-1.27	beast_fmri_test	311	1255338,/,1256018,/,1256698,/,1257377,/,1258057,/,1258736,/	t,t,t,t,t,t	<img class = center src='/static/experiments/beast_fmri_test/images/P.png'></img>	89,71	2750.0	test	<img class = center src='/static/experiments/beast_fmri_test/images/redP.png'></img>	stop	1600.0	2.0	27.0	stop	non-target	P	89,Middle Finger	71,Index Finger	1250.0	1150.0	1500.0	1600.0	0.0	1.0	1150.0	n/a	stop_stim
136265.60512039065	1283.3948796094548	n/a	-1	-1	2750	1283.39487961	stim	stop-signal	446	1257631	0.0-19.27-1.27	beast_fmri_test	311	1255338,/,1256018,/,1256698,/,1257377,/,1258057,/,1258736,/	t,t,t,t,t,t	<img class = center src='/static/experiments/beast_fmri_test/images/P.png'></img>	89,71	2750.0	test	<img class = center src='/static/experiments/beast_fmri_test/images/redP.png'></img>	stop	1600.0	2.0	27.0	stop	non-target	P	89,Middle Finger	71,Index Finger	1250.0	1150.0	1500.0	1600.0	0.0	1.0	1150.0	n/a	ITI
139381	500	n/a	-1	-1	500	0.0	fixation	poldrack-single-stim	447	1259463	0.0-19.28-0.28	beast_fmri_test	311	1259417,/	t	<div class = centerbox2><div class = fixation>+</div></div>	none	500.0	test	n/a	n/a	n/a	n/a	n/a	n/a	n/a	n/a	n/a	n/a	n/a	n/a	n/a	n/a	n/a	n/a	n/a	n/a	fixation
138908.55575661478	1200.0	n/a	-1	-1	2750	473.444243385	stim	stop-signal	448	1262214	0.0-19.28-1.28	beast_fmri_test	311	1260096,/,1260776,/,1261455,/,1262135,/	t,t,t,t	<img class = center src='/static/experiments/beast_fmri_test/images/D.png'></img>	89,71	2750.0	test	<img class = center src='/static/experiments/beast_fmri_test/images/redD.png'></img>	stop	1550.0	2.0	28.0	stop	non-target	D	89,Middle Finger	71,Index Finger	1250.0	1200.0	1500.0	1550.0	0.0	1.0	1200.0	n/a	go_stim
140458.55575661478	1550.0	n/a	-1	-1	2750	473.444243385	stim	stop-signal	448	1262214	0.0-19.28-1.28	beast_fmri_test	311	1260096,/,1260776,/,1261455,/,1262135,/	t,t,t,t	<img class = center src='/static/experiments/beast_fmri_test/images/D.png'></img>	89,71	2750.0	test	<img class = center src='/static/experiments/beast_fmri_test/images/redD.png'></img>	stop	1550.0	2.0	28.0	stop	non-target	D	89,Middle Finger	71,Index Finger	1250.0	1200.0	1500.0	1550.0	0.0	1.0	1200.0	n/a	stop_stim
141658.55575661478	473.44424338512948	n/a	-1	-1	2750	473.444243385	stim	stop-signal	448	1262214	0.0-19.28-1.28	beast_fmri_test	311	1260096,/,1260776,/,1261455,/,1262135,/	t,t,t,t	<img class = center src='/static/experiments/beast_fmri_test/images/D.png'></img>	89,71	2750.0	test	<img class = center src='/static/experiments/beast_fmri_test/images/redD.png'></img>	stop	1550.0	2.0	28.0	stop	non-target	D	89,Middle Finger	71,Index Finger	1250.0	1200.0	1500.0	1550.0	0.0	1.0	1200.0	n/a	ITI
143152	500	n/a	-1	-1	500	0.0	fixation	poldrack-single-stim	449	1263234	0.0-19.29-0.29	beast_fmri_test	311	1262813,/	t	<div class = centerbox2><div class = fixation>+</div></div>	none	500.0	test	n/a	n/a	n/a	n/a	n/a	n/a	n/a	n/a	n/a	n/a	n/a	n/a	n/a	n/a	n/a	n/a	n/a	n/a	fixation
142869.42607265455	1250.0	n/a	-1	-1	2750	283.573927345	stim	stop-signal	450	1265985	0.0-19.29-1.29	beast_fmri_test	311	1263494,/,1264173,/,1264853,/,1265533,/,1266213,/	t,t,t,t,t	<img class = center src='/static/experiments/beast_fmri_test/images/V.png'></img>	89,71	2750.0	test	<img class = center src='/static/experiments/beast_fmri_test/images/redV.png'></img>	stop	1500.0	2.0	29.0	stop	non-target	V	89,Middle Finger	71,Index Finger	1250.0	1250.0	1500.0	1500.0	0.0	1.0	1250.0	n/a	go_stim
144369.42607265455	1500.0	n/a	-1	-1	2750	283.573927345	stim	stop-signal	450	1265985	0.0-19.29-1.29	beast_fmri_test	311	1263494,/,1264173,/,1264853,/,1265533,/,1266213,/	t,t,t,t,t	<img class = center src='/static/experiments/beast_fmri_test/images/V.png'></img>	89,71	2750.0	test	<img class = center src='/static/experiments/beast_fmri_test/images/redV.png'></img>	stop	1500.0	2.0	29.0	stop	non-target	V	89,Middle Finger	71,Index Finger	1250.0	1250.0	1500.0	1500.0	0.0	1.0	1250.0	n/a	stop_stim
145619.42607265455	283.57392734534216	n/a	-1	-1	2750	283.573927345	stim	stop-signal	450	1265985	0.0-19.29-1.29	beast_fmri_test	311	1263494,/,1264173,/,1264853,/,1265533,/,1266213,/	t,t,t,t,t	<img class = center src='/static/experiments/beast_fmri_test/images/V.png'></img>	89,71	2750.0	test	<img class = center src='/static/experiments/beast_fmri_test/images/redV.png'></img>	stop	1500.0	2.0	29.0	stop	non-target	V	89,Middle Finger	71,Index Finger	1250.0	1250.0	1500.0	1500.0	0.0	1.0	1250.0	n/a	ITI
146733	500	n/a	-1	-1	500	0.0	fixation	poldrack-single-stim	451	1266815	0.0-19.30-0.30	beast_fmri_test	311	n/a	n/a	<div class = centerbox2><div class = fixation>+</div></div>	none	500.0	test	n/a	n/a	n/a	n/a	n/a	n/a	n/a	n/a	n/a	n/a	n/a	n/a	n/a	n/a	n/a	n/a	n/a	n/a	fixation
145709.69938146835	2750	n/a	2136	71	2750	1024.30061853	stim	stop-signal	452	1269566	0.0-19.30-1.30	beast_fmri_test	311	1266892,/,1267571,/,1268251,/,1268930,/,1269610,/,1270290,/	t,t,t,t,t,t	<img class = center src='/static/experiments/beast_fmri_test/images/P.png'></img>	89,71	2750.0	test	<img class = center src='/static/experiments/beast_fmri_test/images/redP.png'></img>	go	1450.0	2.0	30.0	go	non-target	P	89,Middle Finger	71,Index Finger	1250.0	1300.0	1500.0	1450.0	1.0	n/a	1300.0	1.0	go_stim
148459.69938146835	1024.300618531583	n/a	2136	71	2750	1024.30061853	stim	stop-signal	452	1269566	0.0-19.30-1.30	beast_fmri_test	311	1266892,/,1267571,/,1268251,/,1268930,/,1269610,/,1270290,/	t,t,t,t,t,t	<img class = center src='/static/experiments/beast_fmri_test/images/P.png'></img>	89,71	2750.0	test	<img class = center src='/static/experiments/beast_fmri_test/images/redP.png'></img>	go	1450.0	2.0	30.0	go	non-target	P	89,Middle Finger	71,Index Finger	1250.0	1300.0	1500.0	1450.0	1.0	n/a	1300.0	1.0	ITI
151056	500	n/a	-1	-1	500	0.0	fixation	poldrack-single-stim	453	1271138	0.0-19.31-0.31	beast_fmri_test	311	1270971,/	t	<div class = centerbox2><div class = fixation>+</div></div>	none	500.0	test	n/a	n/a	n/a	n/a	n/a	n/a	n/a	n/a	n/a	n/a	n/a	n/a	n/a	n/a	n/a	n/a	n/a	n/a	fixation
150390.84819334652	2750	n/a	1440	71	2750	667.151806653	stim	stop-signal	454	1273890	0.0-19.31-1.31	beast_fmri_test	311	1271650,/,1272328,/,1273009,/,1273689,/,1274369,/	t,t,t,t,t	<img class = center src='/static/experiments/beast_fmri_test/images/V.png'></img>	89,71	2750.0	test	<img class = center src='/static/experiments/beast_fmri_test/images/redV.png'></img>	go	1500.0	2.0	31.0	go	target	V	89,Middle Finger	71,Index Finger	1250.0	1300.0	1500.0	1450.0	0.0	n/a	1250.0	0.0	go_stim
153140.84819334652	667.15180665338323	n/a	1440	71	2750	667.151806653	stim	stop-signal	454	1273890	0.0-19.31-1.31	beast_fmri_test	311	1271650,/,1272328,/,1273009,/,1273689,/,1274369,/	t,t,t,t,t	<img class = center src='/static/experiments/beast_fmri_test/images/V.png'></img>	89,71	2750.0	test	<img class = center src='/static/experiments/beast_fmri_test/images/redV.png'></img>	go	1500.0	2.0	31.0	go	target	V	89,Middle Finger	71,Index Finger	1250.0	1300.0	1500.0	1450.0	0.0	n/a	1250.0	0.0	ITI
155024	500	n/a	-1	-1	500	0.0	fixation	poldrack-single-stim	455	1275106	0.0-19.32-0.32	beast_fmri_test	311	1275048,/	t	<div class = centerbox2><div class = fixation>+</div></div>	none	500.0	test	n/a	n/a	n/a	n/a	n/a	n/a	n/a	n/a	n/a	n/a	n/a	n/a	n/a	n/a	n/a	n/a	n/a	n/a	fixation
153633.66901914845	2750	n/a	650	89	2750	1391.33098085	stim	stop-signal	456	1277857	0.0-19.32-1.32	beast_fmri_test	311	1275728,/,1276407,/,1277086,/,1277768,/,1278448,/,1279127,/	t,t,t,t,t,t	<img class = center src='/static/experiments/beast_fmri_test/images/P.png'></img>	89,71	2750.0	test	<img class = center src='/static/experiments/beast_fmri_test/images/redP.png'></img>	go	1500.0	2.0	32.0	go	target	P	89,Middle Finger	71,Index Finger	1250.0	1300.0	1500.0	1450.0	1.0	n/a	1250.0	1.0	go_stim
156383.66901914845	1391.3309808515473	n/a	650	89	2750	1391.33098085	stim	stop-signal	456	1277857	0.0-19.32-1.32	beast_fmri_test	311	1275728,/,1276407,/,1277086,/,1277768,/,1278448,/,1279127,/	t,t,t,t,t,t	<img class = center src='/static/experiments/beast_fmri_test/images/P.png'></img>	89,71	2750.0	test	<img class = center src='/static/experiments/beast_fmri_test/images/redP.png'></img>	go	1500.0	2.0	32.0	go	target	P	89,Middle Finger	71,Index Finger	1250.0	1300.0	1500.0	1450.0	1.0	n/a	1250.0	1.0	ITI
159719	500	n/a	-1	-1	500	0.0	fixation	poldrack-single-stim	457	1279801	0.0-19.33-0.33	beast_fmri_test	311	n/a	n/a	<div class = centerbox2><div class = fixation>+</div></div>	none	500.0	test	n/a	n/a	n/a	n/a	n/a	n/a	n/a	n/a	n/a	n/a	n/a	n/a	n/a	n/a	n/a	n/a	n/a	n/a	fixation
159504.01284566871	1250.0	n/a	1001	89	2750	214.987154331	stim	stop-signal	458	1282551	0.0-19.33-1.33	beast_fmri_test	311	1279807,/,1280487,/,1281165,/,1281846,/,1282524,/	t,t,t,t,t	<img class = center src='/static/experiments/beast_fmri_test/images/V.png'></img>	89,71	2750.0	test	<img class = center src='/static/experiments/beast_fmri_test/images/redV.png'></img>	stop	1500.0	2.0	33.0	stop	target	V	89,Middle Finger	71,Index Finger	1250.0	1300.0	1500.0	1450.0	0.0	0.0	1250.0	n/a	go_stim
161004.01284566871	1500.0	n/a	1001	89	2750	214.987154331	stim	stop-signal	458	1282551	0.0-19.33-1.33	beast_fmri_test	311	1279807,/,1280487,/,1281165,/,1281846,/,1282524,/	t,t,t,t,t	<img class = center src='/static/experiments/beast_fmri_test/images/V.png'></img>	89,71	2750.0	test	<img class = center src='/static/experiments/beast_fmri_test/images/redV.png'></img>	stop	1500.0	2.0	33.0	stop	target	V	89,Middle Finger	71,Index Finger	1250.0	1300.0	1500.0	1450.0	0.0	0.0	1250.0	n/a	stop_stim
162254.01284566871	214.98715433138275	n/a	1001	89	2750	214.987154331	stim	stop-signal	458	1282551	0.0-19.33-1.33	beast_fmri_test	311	1279807,/,1280487,/,1281165,/,1281846,/,1282524,/	t,t,t,t,t	<img class = center src='/static/experiments/beast_fmri_test/images/V.png'></img>	89,71	2750.0	test	<img class = center src='/static/experiments/beast_fmri_test/images/redV.png'></img>	stop	1500.0	2.0	33.0	stop	target	V	89,Middle Finger	71,Index Finger	1250.0	1300.0	1500.0	1450.0	0.0	0.0	1250.0	n/a	ITI
163234	500	n/a	-1	-1	500	0.0	fixation	poldrack-single-stim	459	1283316	0.0-19.34-0.34	beast_fmri_test	311	1283205,/	t	<div class = centerbox2><div class = fixation>+</div></div>	none	500.0	test	n/a	n/a	n/a	n/a	n/a	n/a	n/a	n/a	n/a	n/a	n/a	n/a	n/a	n/a	n/a	n/a	n/a	n/a	fixation
161326.77304243157	2750	n/a	-1	-1	2750	1909.22695757	stim	stop-signal	460	1286068	0.0-19.34-1.34	beast_fmri_test	311	1283884,/,1284565,/,1285244,/,1285924,/,1286603,/,1287283,/,1287963,/	t,t,t,t,t,t,t	<img class = center src='/static/experiments/beast_fmri_test/images/P.png'></img>	89,71	2750.0	test	<img class = center src='/static/experiments/beast_fmri_test/images/redP.png'></img>	go	1550.0	2.0	34.0	go	target	P	89,Middle Finger	71,Index Finger	1200.0	1300.0	1550.0	1450.0	0.0	n/a	1200.0	0.0	go_stim
164076.77304243157	1909.2269575684927	n/a	-1	-1	2750	1909.22695757	stim	stop-signal	460	1286068	0.0-19.34-1.34	beast_fmri_test	311	1283884,/,1284565,/,1285244,/,1285924,/,1286603,/,1287283,/,1287963,/	t,t,t,t,t,t,t	<img class = center src='/static/experiments/beast_fmri_test/images/P.png'></img>	89,71	2750.0	test	<img class = center src='/static/experiments/beast_fmri_test/images/redP.png'></img>	go	1550.0	2.0	34.0	go	target	P	89,Middle Finger	71,Index Finger	1200.0	1300.0	1550.0	1450.0	0.0	n/a	1200.0	0.0	ITI
168447	500	n/a	-1	-1	500	0.0	fixation	poldrack-single-stim	461	1288529	0.0-19.35-0.35	beast_fmri_test	311	n/a	n/a	<div class = centerbox2><div class = fixation>+</div></div>	none	500.0	test	n/a	n/a	n/a	n/a	n/a	n/a	n/a	n/a	n/a	n/a	n/a	n/a	n/a	n/a	n/a	n/a	n/a	n/a	fixation
167572.89981257077	2750	n/a	959	71	2750	875.100187429	stim	stop-signal	462	1291280	0.0-19.35-1.35	beast_fmri_test	311	1288643,/,1289322,/,1290002,/,1290681,/,1291361,/,1292041,/	t,t,t,t,t,t	<img class = center src='/static/experiments/beast_fmri_test/images/P.png'></img>	89,71	2750.0	test	<img class = center src='/static/experiments/beast_fmri_test/images/redP.png'></img>	go	1450.0	2.0	35.0	go	non-target	P	89,Middle Finger	71,Index Finger	1200.0	1300.0	1550.0	1450.0	1.0	n/a	1300.0	1.0	go_stim
170322.89981257077	875.10018742920579	n/a	959	71	2750	875.100187429	stim	stop-signal	462	1291280	0.0-19.35-1.35	beast_fmri_test	311	1288643,/,1289322,/,1290002,/,1290681,/,1291361,/,1292041,/	t,t,t,t,t,t	<img class = center src='/static/experiments/beast_fmri_test/images/P.png'></img>	89,71	2750.0	test	<img class = center src='/static/experiments/beast_fmri_test/images/redP.png'></img>	go	1450.0	2.0	35.0	go	non-target	P	89,Middle Finger	71,Index Finger	1200.0	1300.0	1550.0	1450.0	1.0	n/a	1300.0	1.0	ITI
172622	500	n/a	-1	-1	500	0.0	fixation	poldrack-single-stim	463	1292704	0.0-19.36-0.36	beast_fmri_test	311	n/a	n/a	<div class = centerbox2><div class = fixation>+</div></div>	none	500.0	test	n/a	n/a	n/a	n/a	n/a	n/a	n/a	n/a	n/a	n/a	n/a	n/a	n/a	n/a	n/a	n/a	n/a	n/a	fixation
171856.82763750479	2750	n/a	1155	89	2750	767.172362495	stim	stop-signal	464	1295456	0.0-19.36-1.36	beast_fmri_test	311	1292720,/,1293400,/,1294080,/,1294759,/,1295439,/,1296119,/	t,t,t,t,t,t	<img class = center src='/static/experiments/beast_fmri_test/images/V.png'></img>	89,71	2750.0	test	<img class = center src='/static/experiments/beast_fmri_test/images/redV.png'></img>	go	1450.0	2.0	36.0	go	non-target	V	89,Middle Finger	71,Index Finger	1200.0	1300.0	1550.0	1450.0	0.0	n/a	1300.0	0.0	go_stim
174606.82763750479	767.17236249531129	n/a	1155	89	2750	767.172362495	stim	stop-signal	464	1295456	0.0-19.36-1.36	beast_fmri_test	311	1292720,/,1293400,/,1294080,/,1294759,/,1295439,/,1296119,/	t,t,t,t,t,t	<img class = center src='/static/experiments/beast_fmri_test/images/V.png'></img>	89,71	2750.0	test	<img class = center src='/static/experiments/beast_fmri_test/images/redV.png'></img>	go	1450.0	2.0	36.0	go	non-target	V	89,Middle Finger	71,Index Finger	1200.0	1300.0	1550.0	1450.0	0.0	n/a	1300.0	0.0	ITI
176691	500	n/a	-1	-1	500	0.0	fixation	poldrack-single-stim	465	1296773	0.0-19.37-0.37	beast_fmri_test	311	n/a	n/a	<div class = centerbox2><div class = fixation>+</div></div>	none	500.0	test	n/a	n/a	n/a	n/a	n/a	n/a	n/a	n/a	n/a	n/a	n/a	n/a	n/a	n/a	n/a	n/a	n/a	n/a	fixation
176622.74857101939	2750	n/a	732	71	2750	69.2514289807	stim	stop-signal	466	1299524	0.0-19.37-1.37	beast_fmri_test	311	1296798,/,1297478,/,1298158,/,1298838,/,1299517,/	t,t,t,t,t	<img class = center src='/static/experiments/beast_fmri_test/images/D.png'></img>	89,71	2750.0	test	<img class = center src='/static/experiments/beast_fmri_test/images/redD.png'></img>	go	1450.0	2.0	37.0	go	non-target	D	89,Middle Finger	71,Index Finger	1200.0	1300.0	1550.0	1450.0	1.0	n/a	1300.0	1.0	go_stim
179372.74857101939	69.251428980686498	n/a	732	71	2750	69.2514289807	stim	stop-signal	466	1299524	0.0-19.37-1.37	beast_fmri_test	311	1296798,/,1297478,/,1298158,/,1298838,/,1299517,/	t,t,t,t,t	<img class = center src='/static/experiments/beast_fmri_test/images/D.png'></img>	89,71	2750.0	test	<img class = center src='/static/experiments/beast_fmri_test/images/redD.png'></img>	go	1450.0	2.0	37.0	go	non-target	D	89,Middle Finger	71,Index Finger	1200.0	1300.0	1550.0	1450.0	1.0	n/a	1300.0	1.0	ITI
180066	500	n/a	-1	-1	500	0.0	fixation	poldrack-single-stim	467	1300148	0.0-19.38-0.38	beast_fmri_test	311	n/a	n/a	<div class = centerbox2><div class = fixation>+</div></div>	none	500.0	test	n/a	n/a	n/a	n/a	n/a	n/a	n/a	n/a	n/a	n/a	n/a	n/a	n/a	n/a	n/a	n/a	n/a	n/a	fixation
179797.8650721896	2750	n/a	1557	89	2750	270.13492781	stim	stop-signal	468	1302900	0.0-19.38-1.38	beast_fmri_test	311	1300197,/,1300876,/,1301556,/,1302236,/,1302914,/	t,t,t,t,t	<img class = center src='/static/experiments/beast_fmri_test/images/V.png'></img>	89,71	2750.0	test	<img class = center src='/static/experiments/beast_fmri_test/images/redV.png'></img>	go	1550.0	2.0	38.0	go	target	V	89,Middle Finger	71,Index Finger	1200.0	1300.0	1550.0	1450.0	1.0	n/a	1200.0	1.0	go_stim
182547.8650721896	270.13492781038218	n/a	1557	89	2750	270.13492781	stim	stop-signal	468	1302900	0.0-19.38-1.38	beast_fmri_test	311	1300197,/,1300876,/,1301556,/,1302236,/,1302914,/	t,t,t,t,t	<img class = center src='/static/experiments/beast_fmri_test/images/V.png'></img>	89,71	2750.0	test	<img class = center src='/static/experiments/beast_fmri_test/images/redV.png'></img>	go	1550.0	2.0	38.0	go	target	V	89,Middle Finger	71,Index Finger	1200.0	1300.0	1550.0	1450.0	1.0	n/a	1200.0	1.0	ITI
183640	500	n/a	-1	-1	500	0.0	fixation	poldrack-single-stim	469	1303722	0.0-19.39-0.39	beast_fmri_test	311	1303596,/	t	<div class = centerbox2><div class = fixation>+</div></div>	none	500.0	test	n/a	n/a	n/a	n/a	n/a	n/a	n/a	n/a	n/a	n/a	n/a	n/a	n/a	n/a	n/a	n/a	n/a	n/a	fixation
180699.57098516403	2750	n/a	1145	89	2750	2943.42901484	stim	stop-signal	470	1306475	0.0-19.39-1.39	beast_fmri_test	311	1304274,/,1304955,/,1305635,/,1306315,/,1306994,/,1307675,/,1308354,/,1309034,/	t,t,t,t,t,t,t,t	<img class = center src='/static/experiments/beast_fmri_test/images/P.png'></img>	89,71	2750.0	test	<img class = center src='/static/experiments/beast_fmri_test/images/redP.png'></img>	go	1450.0	2.0	39.0	go	non-target	P	89,Middle Finger	71,Index Finger	1200.0	1300.0	1550.0	1450.0	0.0	n/a	1300.0	0.0	go_stim
183449.57098516403	2943.4290148360778	n/a	1145	89	2750	2943.42901484	stim	stop-signal	470	1306475	0.0-19.39-1.39	beast_fmri_test	311	1304274,/,1304955,/,1305635,/,1306315,/,1306994,/,1307675,/,1308354,/,1309034,/	t,t,t,t,t,t,t,t	<img class = center src='/static/experiments/beast_fmri_test/images/P.png'></img>	89,71	2750.0	test	<img class = center src='/static/experiments/beast_fmri_test/images/redP.png'></img>	go	1450.0	2.0	39.0	go	non-target	P	89,Middle Finger	71,Index Finger	1200.0	1300.0	1550.0	1450.0	0.0	n/a	1300.0	0.0	ITI
189884	500	n/a	-1	-1	500	0.0	fixation	poldrack-single-stim	471	1309966	0.0-19.40-0.40	beast_fmri_test	311	1309712,/	t	<div class = centerbox2><div class = fixation>+</div></div>	none	500.0	test	n/a	n/a	n/a	n/a	n/a	n/a	n/a	n/a	n/a	n/a	n/a	n/a	n/a	n/a	n/a	n/a	n/a	n/a	fixation
189114.53115185304	1300.0	n/a	1290	71	2750	772.468848147	stim	stop-signal	472	1312719	0.0-19.40-1.40	beast_fmri_test	311	1310393,/,1311073,/,1311753,/,1312431,/,1313112,/	t,t,t,t,t	<img class = center src='/static/experiments/beast_fmri_test/images/D.png'></img>	89,71	2750.0	test	<img class = center src='/static/experiments/beast_fmri_test/images/redD.png'></img>	stop	1450.0	2.0	40.0	stop	non-target	D	89,Middle Finger	71,Index Finger	1200.0	1300.0	1550.0	1450.0	0.0	0.0	1300.0	n/a	go_stim
190564.53115185304	1450.0	n/a	1290	71	2750	772.468848147	stim	stop-signal	472	1312719	0.0-19.40-1.40	beast_fmri_test	311	1310393,/,1311073,/,1311753,/,1312431,/,1313112,/	t,t,t,t,t	<img class = center src='/static/experiments/beast_fmri_test/images/D.png'></img>	89,71	2750.0	test	<img class = center src='/static/experiments/beast_fmri_test/images/redD.png'></img>	stop	1450.0	2.0	40.0	stop	non-target	D	89,Middle Finger	71,Index Finger	1200.0	1300.0	1550.0	1450.0	0.0	0.0	1300.0	n/a	stop_stim
191864.53115185304	772.46884814695011	n/a	1290	71	2750	772.468848147	stim	stop-signal	472	1312719	0.0-19.40-1.40	beast_fmri_test	311	1310393,/,1311073,/,1311753,/,1312431,/,1313112,/	t,t,t,t,t	<img class = center src='/static/experiments/beast_fmri_test/images/D.png'></img>	89,71	2750.0	test	<img class = center src='/static/experiments/beast_fmri_test/images/redD.png'></img>	stop	1450.0	2.0	40.0	stop	non-target	D	89,Middle Finger	71,Index Finger	1200.0	1300.0	1550.0	1450.0	0.0	0.0	1300.0	n/a	ITI
193969	500	n/a	-1	-1	500	0.0	fixation	poldrack-single-stim	473	1314051	0.0-19.41-0.41	beast_fmri_test	311	1313792,/	t	<div class = centerbox2><div class = fixation>+</div></div>	none	500.0	test	n/a	n/a	n/a	n/a	n/a	n/a	n/a	n/a	n/a	n/a	n/a	n/a	n/a	n/a	n/a	n/a	n/a	n/a	fixation
193737.17620532983	2750	n/a	1792	71	2750	234.82379467	stim	stop-signal	474	1316804	0.0-19.41-1.41	beast_fmri_test	311	1314470,/,1315151,/,1315831,/,1316509,/	t,t,t,t	<img class = center src='/static/experiments/beast_fmri_test/images/D.png'></img>	89,71	2750.0	test	<img class = center src='/static/experiments/beast_fmri_test/images/redD.png'></img>	go	1500.0	2.0	41.0	go	non-target	D	89,Middle Finger	71,Index Finger	1200.0	1250.0	1550.0	1500.0	1.0	n/a	1250.0	1.0	go_stim
196487.17620532983	234.82379467018703	n/a	1792	71	2750	234.82379467	stim	stop-signal	474	1316804	0.0-19.41-1.41	beast_fmri_test	311	1314470,/,1315151,/,1315831,/,1316509,/	t,t,t,t	<img class = center src='/static/experiments/beast_fmri_test/images/D.png'></img>	89,71	2750.0	test	<img class = center src='/static/experiments/beast_fmri_test/images/redD.png'></img>	go	1500.0	2.0	41.0	go	non-target	D	89,Middle Finger	71,Index Finger	1200.0	1250.0	1550.0	1500.0	1.0	n/a	1250.0	1.0	ITI
197508	500	n/a	-1	-1	500	0.0	fixation	poldrack-single-stim	475	1317590	0.0-19.42-0.42	beast_fmri_test	311	1317190,/	t	<div class = centerbox2><div class = fixation>+</div></div>	none	500.0	test	n/a	n/a	n/a	n/a	n/a	n/a	n/a	n/a	n/a	n/a	n/a	n/a	n/a	n/a	n/a	n/a	n/a	n/a	fixation
196649.65428755875	2750	n/a	936	89	2750	860.345712441	stim	stop-signal	476	1320342	0.0-19.42-1.42	beast_fmri_test	311	1317870,/,1318549,/,1319228,/,1319908,/,1320588,/	t,t,t,t,t	<img class = center src='/static/experiments/beast_fmri_test/images/D.png'></img>	89,71	2750.0	test	<img class = center src='/static/experiments/beast_fmri_test/images/redD.png'></img>	go	1550.0	2.0	42.0	go	target	D	89,Middle Finger	71,Index Finger	1200.0	1250.0	1550.0	1500.0	1.0	n/a	1200.0	1.0	go_stim
199399.65428755875	860.34571244122913	n/a	936	89	2750	860.345712441	stim	stop-signal	476	1320342	0.0-19.42-1.42	beast_fmri_test	311	1317870,/,1318549,/,1319228,/,1319908,/,1320588,/	t,t,t,t,t	<img class = center src='/static/experiments/beast_fmri_test/images/D.png'></img>	89,71	2750.0	test	<img class = center src='/static/experiments/beast_fmri_test/images/redD.png'></img>	go	1550.0	2.0	42.0	go	target	D	89,Middle Finger	71,Index Finger	1200.0	1250.0	1550.0	1500.0	1.0	n/a	1200.0	1.0	ITI
201671	500	n/a	-1	-1	500	0.0	fixation	poldrack-single-stim	477	1321753	0.0-19.43-0.43	beast_fmri_test	311	1321267,/	t	<div class = centerbox2><div class = fixation>+</div></div>	none	500.0	test	n/a	n/a	n/a	n/a	n/a	n/a	n/a	n/a	n/a	n/a	n/a	n/a	n/a	n/a	n/a	n/a	n/a	n/a	fixation
199176.72918940894	1250.0	n/a	-1	-1	2750	2497.27081059	stim	stop-signal	478	1324506	0.0-19.43-1.43	beast_fmri_test	311	1321948,/,1322627,/,1323307,/,1323986,/,1324666,/,1325345,/,1326026,/,1326705,/	t,t,t,t,t,t,t,t	<img class = center src='/static/experiments/beast_fmri_test/images/T.png'></img>	89,71	2750.0	test	<img class = center src='/static/experiments/beast_fmri_test/images/redT.png'></img>	stop	1500.0	2.0	43.0	stop	non-target	T	89,Middle Finger	71,Index Finger	1200.0	1250.0	1550.0	1500.0	0.0	1.0	1250.0	n/a	go_stim
200676.72918940894	1500.0	n/a	-1	-1	2750	2497.27081059	stim	stop-signal	478	1324506	0.0-19.43-1.43	beast_fmri_test	311	1321948,/,1322627,/,1323307,/,1323986,/,1324666,/,1325345,/,1326026,/,1326705,/	t,t,t,t,t,t,t,t	<img class = center src='/static/experiments/beast_fmri_test/images/T.png'></img>	89,71	2750.0	test	<img class = center src='/static/experiments/beast_fmri_test/images/redT.png'></img>	stop	1500.0	2.0	43.0	stop	non-target	T	89,Middle Finger	71,Index Finger	1200.0	1250.0	1550.0	1500.0	0.0	1.0	1250.0	n/a	stop_stim
201926.72918940894	2497.270810591087	n/a	-1	-1	2750	2497.27081059	stim	stop-signal	478	1324506	0.0-19.43-1.43	beast_fmri_test	311	1321948,/,1322627,/,1323307,/,1323986,/,1324666,/,1325345,/,1326026,/,1326705,/	t,t,t,t,t,t,t,t	<img class = center src='/static/experiments/beast_fmri_test/images/T.png'></img>	89,71	2750.0	test	<img class = center src='/static/experiments/beast_fmri_test/images/redT.png'></img>	stop	1500.0	2.0	43.0	stop	non-target	T	89,Middle Finger	71,Index Finger	1200.0	1250.0	1550.0	1500.0	0.0	1.0	1250.0	n/a	ITI
207476	500	n/a	-1	-1	500	0.0	fixation	poldrack-single-stim	479	1327558	0.0-19.44-0.44	beast_fmri_test	311	1327385,/	t	<div class = centerbox2><div class = fixation>+</div></div>	none	500.0	test	n/a	n/a	n/a	n/a	n/a	n/a	n/a	n/a	n/a	n/a	n/a	n/a	n/a	n/a	n/a	n/a	n/a	n/a	fixation
206951.45614825026	2750	n/a	1192	71	2750	526.54385175	stim	stop-signal	480	1330310	0.0-19.44-1.44	beast_fmri_test	311	1328065,/,1328743,/,1329423,/,1330103,/,1330782,/	t,t,t,t,t	<img class = center src='/static/experiments/beast_fmri_test/images/P.png'></img>	89,71	2750.0	test	<img class = center src='/static/experiments/beast_fmri_test/images/redP.png'></img>	go	1450.0	2.0	44.0	go	non-target	P	89,Middle Finger	71,Index Finger	1200.0	1300.0	1550.0	1450.0	1.0	n/a	1300.0	1.0	go_stim
209701.45614825026	526.54385174965751	n/a	1192	71	2750	526.54385175	stim	stop-signal	480	1330310	0.0-19.44-1.44	beast_fmri_test	311	1328065,/,1328743,/,1329423,/,1330103,/,1330782,/	t,t,t,t,t	<img class = center src='/static/experiments/beast_fmri_test/images/P.png'></img>	89,71	2750.0	test	<img class = center src='/static/experiments/beast_fmri_test/images/redP.png'></img>	go	1450.0	2.0	44.0	go	non-target	P	89,Middle Finger	71,Index Finger	1200.0	1300.0	1550.0	1450.0	1.0	n/a	1300.0	1.0	ITI
211311	500	n/a	-1	-1	500	0.0	fixation	poldrack-single-stim	481	1331393	0.0-19.45-0.45	beast_fmri_test	311	n/a	n/a	<div class = centerbox2><div class = fixation>+</div></div>	none	500.0	test	n/a	n/a	n/a	n/a	n/a	n/a	n/a	n/a	n/a	n/a	n/a	n/a	n/a	n/a	n/a	n/a	n/a	n/a	fixation
209953.21865572245	1200.0	n/a	-1	-1	2750	1360.78134428	stim	stop-signal	482	1334146	0.0-19.45-1.45	beast_fmri_test	311	1331463,/,1332143,/,1332822,/,1333501,/,1334181,/,1334862,/	t,t,t,t,t,t	<img class = center src='/static/experiments/beast_fmri_test/images/T.png'></img>	89,71	2750.0	test	<img class = center src='/static/experiments/beast_fmri_test/images/redT.png'></img>	stop	1550.0	2.0	45.0	stop	target	T	89,Middle Finger	71,Index Finger	1200.0	1300.0	1550.0	1450.0	0.0	1.0	1200.0	n/a	go_stim
211503.21865572245	1550.0	n/a	-1	-1	2750	1360.78134428	stim	stop-signal	482	1334146	0.0-19.45-1.45	beast_fmri_test	311	1331463,/,1332143,/,1332822,/,1333501,/,1334181,/,1334862,/	t,t,t,t,t,t	<img class = center src='/static/experiments/beast_fmri_test/images/T.png'></img>	89,71	2750.0	test	<img class = center src='/static/experiments/beast_fmri_test/images/redT.png'></img>	stop	1550.0	2.0	45.0	stop	target	T	89,Middle Finger	71,Index Finger	1200.0	1300.0	1550.0	1450.0	0.0	1.0	1200.0	n/a	stop_stim
212703.21865572245	1360.7813442774625	n/a	-1	-1	2750	1360.78134428	stim	stop-signal	482	1334146	0.0-19.45-1.45	beast_fmri_test	311	1331463,/,1332143,/,1332822,/,1333501,/,1334181,/,1334862,/	t,t,t,t,t,t	<img class = center src='/static/experiments/beast_fmri_test/images/T.png'></img>	89,71	2750.0	test	<img class = center src='/static/experiments/beast_fmri_test/images/redT.png'></img>	stop	1550.0	2.0	45.0	stop	target	T	89,Middle Finger	71,Index Finger	1200.0	1300.0	1550.0	1450.0	0.0	1.0	1200.0	n/a	ITI
215978	500	n/a	-1	-1	500	0.0	fixation	poldrack-single-stim	483	1336060	0.0-19.46-0.46	beast_fmri_test	311	1335559,/	t	<div class = centerbox2><div class = fixation>+</div></div>	none	500.0	test	n/a	n/a	n/a	n/a	n/a	n/a	n/a	n/a	n/a	n/a	n/a	n/a	n/a	n/a	n/a	n/a	n/a	n/a	fixation
212670.99422733579	2750	n/a	1787	71	2750	3309.00577266	stim	stop-signal	484	1338812	0.0-19.46-1.46	beast_fmri_test	311	1336221,/,1336901,/,1337580,/,1338260,/,1338940,/,1339620,/,1340299,/,1340979,/,1341657,/	t,t,t,t,t,t,t,t,t	<img class = center src='/static/experiments/beast_fmri_test/images/P.png'></img>	89,71	2750.0	test	<img class = center src='/static/experiments/beast_fmri_test/images/redP.png'></img>	go	1500.0	2.0	46.0	go	target	P	89,Middle Finger	71,Index Finger	1250.0	1300.0	1500.0	1450.0	0.0	n/a	1250.0	0.0	go_stim
215420.99422733579	3309.0057726642249	n/a	1787	71	2750	3309.00577266	stim	stop-signal	484	1338812	0.0-19.46-1.46	beast_fmri_test	311	1336221,/,1336901,/,1337580,/,1338260,/,1338940,/,1339620,/,1340299,/,1340979,/,1341657,/	t,t,t,t,t,t,t,t,t	<img class = center src='/static/experiments/beast_fmri_test/images/P.png'></img>	89,71	2750.0	test	<img class = center src='/static/experiments/beast_fmri_test/images/redP.png'></img>	go	1500.0	2.0	46.0	go	target	P	89,Middle Finger	71,Index Finger	1250.0	1300.0	1500.0	1450.0	0.0	n/a	1250.0	0.0	ITI
237084	15000	n/a	-1	-1	15000	0.0	practice-no-stop-feedback	poldrack-single-stim	485	1357166	0.0-20.0	beast_fmri_test	311	1342338,/,1343018,/,1343697,/,1344377,/,1345057,/,1345737,/,1346416,/,1347096,/,1347776,/,1348455,/,1349135,/,1349815,/,1350494,/,1351174,/,1351853,/,1352533,/,1353211,/,1353893,/,1354572,/,1355252,/,1355932,/,1356611,/	t,t,t,t,t,t,t,t,t,t,t,t,t,t,t,t,t,t,t,t,t,t	"<div class = ""centerbox""><p class = ""block-text"">Your delay is 1 trials.</p><p class = block-text>Please wait for the scanner to start the block</p></div>"	77	15000.0	n/a	n/a	n/a	n/a	n/a	n/a	n/a	n/a	n/a	n/a	n/a	n/a	n/a	n/a	n/a	n/a	n/a	n/a	n/a	practice-no-stop-feedback
237587	500	n/a	-1	-1	500	0.0	fixation	poldrack-single-stim	486	1357669	0.0-21.0-0.0	beast_fmri_test	311	1357291,/	t	<div class = centerbox2><div class = fixation>+</div></div>	none	500.0	test	n/a	n/a	n/a	n/a	n/a	n/a	n/a	n/a	n/a	n/a	n/a	n/a	n/a	n/a	n/a	n/a	n/a	n/a	fixation
236722.47051783465	2750	n/a	1719	71	2750	866.529482165	stim	stop-signal	487	1360421	0.0-21.0-1.0	beast_fmri_test	311	1357971,/,1358651,/,1359330,/,1360010,/,1360688,/	t,t,t,t,t	<img class = center src='/static/experiments/beast_fmri_test/images/D.png'></img>	89,71	2750.0	test	<img class = center src='/static/experiments/beast_fmri_test/images/redD.png'></img>	go	-1.0	1.0	0.0	go	temp-non-target	D	89,Middle Finger	71,Index Finger	1250.0	1300.0	1500.0	1450.0	0.0	n/a	n/a	n/a	go_stim
239472.47051783465	866.52948216542575	n/a	1719	71	2750	866.529482165	stim	stop-signal	487	1360421	0.0-21.0-1.0	beast_fmri_test	311	1357971,/,1358651,/,1359330,/,1360010,/,1360688,/	t,t,t,t,t	<img class = center src='/static/experiments/beast_fmri_test/images/D.png'></img>	89,71	2750.0	test	<img class = center src='/static/experiments/beast_fmri_test/images/redD.png'></img>	go	-1.0	1.0	0.0	go	temp-non-target	D	89,Middle Finger	71,Index Finger	1250.0	1300.0	1500.0	1450.0	0.0	n/a	n/a	n/a	ITI
241764	500	n/a	-1	-1	500	0.0	fixation	poldrack-single-stim	488	1361846	0.0-21.1-0.1	beast_fmri_test	311	1361370,/	t	<div class = centerbox2><div class = fixation>+</div></div>	none	500.0	test	n/a	n/a	n/a	n/a	n/a	n/a	n/a	n/a	n/a	n/a	n/a	n/a	n/a	n/a	n/a	n/a	n/a	n/a	fixation
239970.09429815202	1300.0	n/a	713	71	2750	1793.90570185	stim	stop-signal	489	1364596	0.0-21.1-1.1	beast_fmri_test	311	1362049,/,1362728,/,1363406,/,1364086,/,1364767,/,1365449,/,1366126,/	t,t,t,t,t,t,t	<img class = center src='/static/experiments/beast_fmri_test/images/T.png'></img>	89,71	2750.0	test	<img class = center src='/static/experiments/beast_fmri_test/images/redT.png'></img>	stop	1450.0	1.0	1.0	stop	non-target	T	89,Middle Finger	71,Index Finger	1250.0	1300.0	1500.0	1450.0	0.0	0.0	1300.0	n/a	go_stim
241420.09429815202	1450.0	n/a	713	71	2750	1793.90570185	stim	stop-signal	489	1364596	0.0-21.1-1.1	beast_fmri_test	311	1362049,/,1362728,/,1363406,/,1364086,/,1364767,/,1365449,/,1366126,/	t,t,t,t,t,t,t	<img class = center src='/static/experiments/beast_fmri_test/images/T.png'></img>	89,71	2750.0	test	<img class = center src='/static/experiments/beast_fmri_test/images/redT.png'></img>	stop	1450.0	1.0	1.0	stop	non-target	T	89,Middle Finger	71,Index Finger	1250.0	1300.0	1500.0	1450.0	0.0	0.0	1300.0	n/a	stop_stim
242720.09429815202	1793.9057018479223	n/a	713	71	2750	1793.90570185	stim	stop-signal	489	1364596	0.0-21.1-1.1	beast_fmri_test	311	1362049,/,1362728,/,1363406,/,1364086,/,1364767,/,1365449,/,1366126,/	t,t,t,t,t,t,t	<img class = center src='/static/experiments/beast_fmri_test/images/T.png'></img>	89,71	2750.0	test	<img class = center src='/static/experiments/beast_fmri_test/images/redT.png'></img>	stop	1450.0	1.0	1.0	stop	non-target	T	89,Middle Finger	71,Index Finger	1250.0	1300.0	1500.0	1450.0	0.0	0.0	1300.0	n/a	ITI
246862	500	n/a	-1	-1	500	0.0	fixation	poldrack-single-stim	490	1366944	0.0-21.2-0.2	beast_fmri_test	311	1366807,/	t	<div class = centerbox2><div class = fixation>+</div></div>	none	500.0	test	n/a	n/a	n/a	n/a	n/a	n/a	n/a	n/a	n/a	n/a	n/a	n/a	n/a	n/a	n/a	n/a	n/a	n/a	fixation
245639.02980677364	2750	n/a	608	71	2750	1224.97019323	stim	stop-signal	491	1369696	0.0-21.2-1.2	beast_fmri_test	311	1367487,/,1368166,/,1368846,/,1369526,/,1370205,/,1370885,/	t,t,t,t,t,t	<img class = center src='/static/experiments/beast_fmri_test/images/B.png'></img>	89,71	2750.0	test	<img class = center src='/static/experiments/beast_fmri_test/images/redB.png'></img>	go	1500.0	1.0	2.0	go	non-target	B	89,Middle Finger	71,Index Finger	1250.0	1250.0	1500.0	1500.0	1.0	n/a	1250.0	1.0	go_stim
248389.02980677364	1224.9701932262885	n/a	608	71	2750	1224.97019323	stim	stop-signal	491	1369696	0.0-21.2-1.2	beast_fmri_test	311	1367487,/,1368166,/,1368846,/,1369526,/,1370205,/,1370885,/	t,t,t,t,t,t	<img class = center src='/static/experiments/beast_fmri_test/images/B.png'></img>	89,71	2750.0	test	<img class = center src='/static/experiments/beast_fmri_test/images/redB.png'></img>	go	1500.0	1.0	2.0	go	non-target	B	89,Middle Finger	71,Index Finger	1250.0	1250.0	1500.0	1500.0	1.0	n/a	1250.0	1.0	ITI
251391	500	n/a	-1	-1	500	0.0	fixation	poldrack-single-stim	492	1371473	0.0-21.3-0.3	beast_fmri_test	311	n/a	n/a	<div class = centerbox2><div class = fixation>+</div></div>	none	500.0	test	n/a	n/a	n/a	n/a	n/a	n/a	n/a	n/a	n/a	n/a	n/a	n/a	n/a	n/a	n/a	n/a	n/a	n/a	fixation
248087.70002160058	2750	n/a	997	71	2750	3304.2999784	stim	stop-signal	493	1374224	0.0-21.3-1.3	beast_fmri_test	311	1371565,/,1372245,/,1372925,/,1373604,/,1374283,/,1374963,/,1375642,/,1376322,/,1377002,/	t,t,t,t,t,t,t,t,t	<img class = center src='/static/experiments/beast_fmri_test/images/D.png'></img>	89,71	2750.0	test	<img class = center src='/static/experiments/beast_fmri_test/images/redD.png'></img>	go	1500.0	1.0	3.0	go	non-target	D	89,Middle Finger	71,Index Finger	1250.0	1250.0	1500.0	1500.0	1.0	n/a	1250.0	1.0	go_stim
250837.70002160058	3304.299978399325	n/a	997	71	2750	3304.2999784	stim	stop-signal	493	1374224	0.0-21.3-1.3	beast_fmri_test	311	1371565,/,1372245,/,1372925,/,1373604,/,1374283,/,1374963,/,1375642,/,1376322,/,1377002,/	t,t,t,t,t,t,t,t,t	<img class = center src='/static/experiments/beast_fmri_test/images/D.png'></img>	89,71	2750.0	test	<img class = center src='/static/experiments/beast_fmri_test/images/redD.png'></img>	go	1500.0	1.0	3.0	go	non-target	D	89,Middle Finger	71,Index Finger	1250.0	1250.0	1500.0	1500.0	1.0	n/a	1250.0	1.0	ITI
258004	500	n/a	-1	-1	500	0.0	fixation	poldrack-single-stim	494	1378086	0.0-21.4-0.4	beast_fmri_test	311	1377682,/	t	<div class = centerbox2><div class = fixation>+</div></div>	none	500.0	test	n/a	n/a	n/a	n/a	n/a	n/a	n/a	n/a	n/a	n/a	n/a	n/a	n/a	n/a	n/a	n/a	n/a	n/a	fixation
255974.77624825714	2750	n/a	697	89	2750	2032.22375174	stim	stop-signal	495	1380839	0.0-21.4-1.4	beast_fmri_test	311	1378362,/,1379041,/,1379720,/,1380400,/,1381079,/,1381760,/,1382439,/	t,t,t,t,t,t,t	<img class = center src='/static/experiments/beast_fmri_test/images/D.png'></img>	89,71	2750.0	test	<img class = center src='/static/experiments/beast_fmri_test/images/redD.png'></img>	go	1500.0	1.0	4.0	go	target	D	89,Middle Finger	71,Index Finger	1250.0	1250.0	1500.0	1500.0	1.0	n/a	1250.0	1.0	go_stim
258724.77624825714	2032.2237517429587	n/a	697	89	2750	2032.22375174	stim	stop-signal	495	1380839	0.0-21.4-1.4	beast_fmri_test	311	1378362,/,1379041,/,1379720,/,1380400,/,1381079,/,1381760,/,1382439,/	t,t,t,t,t,t,t	<img class = center src='/static/experiments/beast_fmri_test/images/D.png'></img>	89,71	2750.0	test	<img class = center src='/static/experiments/beast_fmri_test/images/redD.png'></img>	go	1500.0	1.0	4.0	go	target	D	89,Middle Finger	71,Index Finger	1250.0	1250.0	1500.0	1500.0	1.0	n/a	1250.0	1.0	ITI
263342	500	n/a	-1	-1	500	0.0	fixation	poldrack-single-stim	496	1383424	0.0-21.5-0.5	beast_fmri_test	311	1383119,/	t	<div class = centerbox2><div class = fixation>+</div></div>	none	500.0	test	n/a	n/a	n/a	n/a	n/a	n/a	n/a	n/a	n/a	n/a	n/a	n/a	n/a	n/a	n/a	n/a	n/a	n/a	fixation
262996.90394473472	1250.0	n/a	519	89	2750	348.096055265	stim	stop-signal	497	1386177	0.0-21.5-1.5	beast_fmri_test	311	1383799,/,1384478,/,1385158,/,1385837,/,1386517,/	t,t,t,t,t	<img class = center src='/static/experiments/beast_fmri_test/images/D.png'></img>	89,71	2750.0	test	<img class = center src='/static/experiments/beast_fmri_test/images/redD.png'></img>	stop	1500.0	1.0	5.0	stop	target	D	89,Middle Finger	71,Index Finger	1250.0	1250.0	1500.0	1500.0	0.0	0.0	1250.0	n/a	go_stim
264496.90394473472	1500.0	n/a	519	89	2750	348.096055265	stim	stop-signal	497	1386177	0.0-21.5-1.5	beast_fmri_test	311	1383799,/,1384478,/,1385158,/,1385837,/,1386517,/	t,t,t,t,t	<img class = center src='/static/experiments/beast_fmri_test/images/D.png'></img>	89,71	2750.0	test	<img class = center src='/static/experiments/beast_fmri_test/images/redD.png'></img>	stop	1500.0	1.0	5.0	stop	target	D	89,Middle Finger	71,Index Finger	1250.0	1250.0	1500.0	1500.0	0.0	0.0	1250.0	n/a	stop_stim
265746.90394473472	348.09605526531374	n/a	519	89	2750	348.096055265	stim	stop-signal	497	1386177	0.0-21.5-1.5	beast_fmri_test	311	1383799,/,1384478,/,1385158,/,1385837,/,1386517,/	t,t,t,t,t	<img class = center src='/static/experiments/beast_fmri_test/images/D.png'></img>	89,71	2750.0	test	<img class = center src='/static/experiments/beast_fmri_test/images/redD.png'></img>	stop	1500.0	1.0	5.0	stop	target	D	89,Middle Finger	71,Index Finger	1250.0	1250.0	1500.0	1500.0	0.0	0.0	1250.0	n/a	ITI
267000	500	n/a	-1	-1	500	0.0	fixation	poldrack-single-stim	498	1387082	0.0-21.6-0.6	beast_fmri_test	311	n/a	n/a	<div class = centerbox2><div class = fixation>+</div></div>	none	500.0	test	n/a	n/a	n/a	n/a	n/a	n/a	n/a	n/a	n/a	n/a	n/a	n/a	n/a	n/a	n/a	n/a	n/a	n/a	fixation
266488.01029330422	2750	n/a	818	71	2750	513.989706696	stim	stop-signal	499	1389834	0.0-21.6-1.6	beast_fmri_test	311	1387197,/,1387877,/,1388556,/,1389235,/,1389916,/	t,t,t,t,t	<img class = center src='/static/experiments/beast_fmri_test/images/B.png'></img>	89,71	2750.0	test	<img class = center src='/static/experiments/beast_fmri_test/images/redB.png'></img>	go	1500.0	1.0	6.0	go	non-target	B	89,Middle Finger	71,Index Finger	1200.0	1250.0	1500.0	1500.0	1.0	n/a	1250.0	1.0	go_stim
269238.01029330422	513.9897066957393	n/a	818	71	2750	513.989706696	stim	stop-signal	499	1389834	0.0-21.6-1.6	beast_fmri_test	311	1387197,/,1387877,/,1388556,/,1389235,/,1389916,/	t,t,t,t,t	<img class = center src='/static/experiments/beast_fmri_test/images/B.png'></img>	89,71	2750.0	test	<img class = center src='/static/experiments/beast_fmri_test/images/redB.png'></img>	go	1500.0	1.0	6.0	go	non-target	B	89,Middle Finger	71,Index Finger	1200.0	1250.0	1500.0	1500.0	1.0	n/a	1250.0	1.0	ITI
270826	500	n/a	-1	-1	500	0.0	fixation	poldrack-single-stim	500	1390908	0.0-21.7-0.7	beast_fmri_test	311	1390597,/	t	<div class = centerbox2><div class = fixation>+</div></div>	none	500.0	test	n/a	n/a	n/a	n/a	n/a	n/a	n/a	n/a	n/a	n/a	n/a	n/a	n/a	n/a	n/a	n/a	n/a	n/a	fixation
270670.66525423992	1250.0	n/a	899	71	2750	158.33474576	stim	stop-signal	501	1393661	0.0-21.7-1.7	beast_fmri_test	311	1391275,/,1391955,/,1392634,/,1393315,/	t,t,t,t	<img class = center src='/static/experiments/beast_fmri_test/images/T.png'></img>	89,71	2750.0	test	<img class = center src='/static/experiments/beast_fmri_test/images/redT.png'></img>	stop	1500.0	1.0	7.0	stop	non-target	T	89,Middle Finger	71,Index Finger	1200.0	1250.0	1500.0	1500.0	0.0	0.0	1250.0	n/a	go_stim
272170.66525423992	1500.0	n/a	899	71	2750	158.33474576	stim	stop-signal	501	1393661	0.0-21.7-1.7	beast_fmri_test	311	1391275,/,1391955,/,1392634,/,1393315,/	t,t,t,t	<img class = center src='/static/experiments/beast_fmri_test/images/T.png'></img>	89,71	2750.0	test	<img class = center src='/static/experiments/beast_fmri_test/images/redT.png'></img>	stop	1500.0	1.0	7.0	stop	non-target	T	89,Middle Finger	71,Index Finger	1200.0	1250.0	1500.0	1500.0	0.0	0.0	1250.0	n/a	stop_stim
273420.66525423992	158.33474576017906	n/a	899	71	2750	158.33474576	stim	stop-signal	501	1393661	0.0-21.7-1.7	beast_fmri_test	311	1391275,/,1391955,/,1392634,/,1393315,/	t,t,t,t	<img class = center src='/static/experiments/beast_fmri_test/images/T.png'></img>	89,71	2750.0	test	<img class = center src='/static/experiments/beast_fmri_test/images/redT.png'></img>	stop	1500.0	1.0	7.0	stop	non-target	T	89,Middle Finger	71,Index Finger	1200.0	1250.0	1500.0	1500.0	0.0	0.0	1250.0	n/a	ITI
274296	500	n/a	-1	-1	500	0.0	fixation	poldrack-single-stim	502	1394378	0.0-21.8-0.8	beast_fmri_test	311	1393994,/	t	<div class = centerbox2><div class = fixation>+</div></div>	none	500.0	test	n/a	n/a	n/a	n/a	n/a	n/a	n/a	n/a	n/a	n/a	n/a	n/a	n/a	n/a	n/a	n/a	n/a	n/a	fixation
273018.77804006054	2750	n/a	1390	71	2750	1280.22195994	stim	stop-signal	503	1397131	0.0-21.8-1.8	beast_fmri_test	311	1394674,/,1395354,/,1396034,/,1396713,/,1397393,/,1398073,/	t,t,t,t,t,t	<img class = center src='/static/experiments/beast_fmri_test/images/D.png'></img>	89,71	2750.0	test	<img class = center src='/static/experiments/beast_fmri_test/images/redD.png'></img>	go	1550.0	1.0	8.0	go	non-target	D	89,Middle Finger	71,Index Finger	1200.0	1200.0	1500.0	1550.0	1.0	n/a	1200.0	1.0	go_stim
275768.77804006054	1280.2219599395255	n/a	1390	71	2750	1280.22195994	stim	stop-signal	503	1397131	0.0-21.8-1.8	beast_fmri_test	311	1394674,/,1395354,/,1396034,/,1396713,/,1397393,/,1398073,/	t,t,t,t,t,t	<img class = center src='/static/experiments/beast_fmri_test/images/D.png'></img>	89,71	2750.0	test	<img class = center src='/static/experiments/beast_fmri_test/images/redD.png'></img>	go	1550.0	1.0	8.0	go	non-target	D	89,Middle Finger	71,Index Finger	1200.0	1200.0	1500.0	1550.0	1.0	n/a	1200.0	1.0	ITI
278894	500	n/a	-1	-1	500	0.0	fixation	poldrack-single-stim	504	1398976	0.0-21.9-0.9	beast_fmri_test	311	1398753,/	t	<div class = centerbox2><div class = fixation>+</div></div>	none	500.0	test	n/a	n/a	n/a	n/a	n/a	n/a	n/a	n/a	n/a	n/a	n/a	n/a	n/a	n/a	n/a	n/a	n/a	n/a	fixation
278863.94966534758	1200.0	n/a	2423	71	2750	32.0503346525	stim	stop-signal	505	1401728	0.0-21.9-1.9	beast_fmri_test	311	1399432,/,1400111,/,1400791,/,1401471,/	t,t,t,t	<img class = center src='/static/experiments/beast_fmri_test/images/P.png'></img>	89,71	2750.0	test	<img class = center src='/static/experiments/beast_fmri_test/images/redP.png'></img>	stop	1550.0	1.0	9.0	stop	non-target	P	89,Middle Finger	71,Index Finger	1200.0	1200.0	1500.0	1550.0	0.0	0.0	1200.0	n/a	go_stim
280413.94966534758	1550.0	n/a	2423	71	2750	32.0503346525	stim	stop-signal	505	1401728	0.0-21.9-1.9	beast_fmri_test	311	1399432,/,1400111,/,1400791,/,1401471,/	t,t,t,t	<img class = center src='/static/experiments/beast_fmri_test/images/P.png'></img>	89,71	2750.0	test	<img class = center src='/static/experiments/beast_fmri_test/images/redP.png'></img>	stop	1550.0	1.0	9.0	stop	non-target	P	89,Middle Finger	71,Index Finger	1200.0	1200.0	1500.0	1550.0	0.0	0.0	1200.0	n/a	stop_stim
281613.94966534758	32.050334652523127	n/a	2423	71	2750	32.0503346525	stim	stop-signal	505	1401728	0.0-21.9-1.9	beast_fmri_test	311	1399432,/,1400111,/,1400791,/,1401471,/	t,t,t,t	<img class = center src='/static/experiments/beast_fmri_test/images/P.png'></img>	89,71	2750.0	test	<img class = center src='/static/experiments/beast_fmri_test/images/redP.png'></img>	stop	1550.0	1.0	9.0	stop	non-target	P	89,Middle Finger	71,Index Finger	1200.0	1200.0	1500.0	1550.0	0.0	0.0	1200.0	n/a	ITI
282233	500	n/a	-1	-1	500	0.0	fixation	poldrack-single-stim	506	1402315	0.0-21.10-0.10	beast_fmri_test	311	1402151,/	t	<div class = centerbox2><div class = fixation>+</div></div>	none	500.0	test	n/a	n/a	n/a	n/a	n/a	n/a	n/a	n/a	n/a	n/a	n/a	n/a	n/a	n/a	n/a	n/a	n/a	n/a	fixation
282137.88305110368	2750	n/a	2081	71	2750	98.1169488964	stim	stop-signal	507	1405068	0.0-21.10-1.10	beast_fmri_test	311	1402831,/,1403509,/,1404190,/,1404868,/	t,t,t,t	<img class = center src='/static/experiments/beast_fmri_test/images/V.png'></img>	89,71	2750.0	test	<img class = center src='/static/experiments/beast_fmri_test/images/redV.png'></img>	go	1600.0	1.0	10.0	go	non-target	V	89,Middle Finger	71,Index Finger	1200.0	1150.0	1500.0	1600.0	1.0	n/a	1150.0	1.0	go_stim
284887.88305110368	98.116948896353051	n/a	2081	71	2750	98.1169488964	stim	stop-signal	507	1405068	0.0-21.10-1.10	beast_fmri_test	311	1402831,/,1403509,/,1404190,/,1404868,/	t,t,t,t	<img class = center src='/static/experiments/beast_fmri_test/images/V.png'></img>	89,71	2750.0	test	<img class = center src='/static/experiments/beast_fmri_test/images/redV.png'></img>	go	1600.0	1.0	10.0	go	non-target	V	89,Middle Finger	71,Index Finger	1200.0	1150.0	1500.0	1600.0	1.0	n/a	1150.0	1.0	ITI
285646	500	n/a	-1	-1	500	0.0	fixation	poldrack-single-stim	508	1405728	0.0-21.11-0.11	beast_fmri_test	311	1405549,/	t	<div class = centerbox2><div class = fixation>+</div></div>	none	500.0	test	n/a	n/a	n/a	n/a	n/a	n/a	n/a	n/a	n/a	n/a	n/a	n/a	n/a	n/a	n/a	n/a	n/a	n/a	fixation
280648.0	1150.0	n/a	-1	-1	2750	5000.0	stim	stop-signal	509	1408480	0.0-21.11-1.11	beast_fmri_test	311	1406228,/,1406907,/,1407589,/,1408267,/,1408947,/,1409626,/,1410306,/,1410986,/,1411665,/,1412345,/,1413025,/	t,t,t,t,t,t,t,t,t,t,t	<img class = center src='/static/experiments/beast_fmri_test/images/T.png'></img>	89,71	2750.0	test	<img class = center src='/static/experiments/beast_fmri_test/images/redT.png'></img>	stop	1600.0	1.0	11.0	stop	non-target	T	89,Middle Finger	71,Index Finger	1200.0	1150.0	1500.0	1600.0	0.0	1.0	1150.0	n/a	go_stim
282248.0	1600.0	n/a	-1	-1	2750	5000.0	stim	stop-signal	509	1408480	0.0-21.11-1.11	beast_fmri_test	311	1406228,/,1406907,/,1407589,/,1408267,/,1408947,/,1409626,/,1410306,/,1410986,/,1411665,/,1412345,/,1413025,/	t,t,t,t,t,t,t,t,t,t,t	<img class = center src='/static/experiments/beast_fmri_test/images/T.png'></img>	89,71	2750.0	test	<img class = center src='/static/experiments/beast_fmri_test/images/redT.png'></img>	stop	1600.0	1.0	11.0	stop	non-target	T	89,Middle Finger	71,Index Finger	1200.0	1150.0	1500.0	1600.0	0.0	1.0	1150.0	n/a	stop_stim
283398.0	5000.0	n/a	-1	-1	2750	5000.0	stim	stop-signal	509	1408480	0.0-21.11-1.11	beast_fmri_test	311	1406228,/,1406907,/,1407589,/,1408267,/,1408947,/,1409626,/,1410306,/,1410986,/,1411665,/,1412345,/,1413025,/	t,t,t,t,t,t,t,t,t,t,t	<img class = center src='/static/experiments/beast_fmri_test/images/T.png'></img>	89,71	2750.0	test	<img class = center src='/static/experiments/beast_fmri_test/images/redT.png'></img>	stop	1600.0	1.0	11.0	stop	non-target	T	89,Middle Finger	71,Index Finger	1200.0	1150.0	1500.0	1600.0	0.0	1.0	1150.0	n/a	ITI
293953	500	n/a	-1	-1	500	0.0	fixation	poldrack-single-stim	510	1414035	0.0-21.12-0.12	beast_fmri_test	311	1413705,/	t	<div class = centerbox2><div class = fixation>+</div></div>	none	500.0	test	n/a	n/a	n/a	n/a	n/a	n/a	n/a	n/a	n/a	n/a	n/a	n/a	n/a	n/a	n/a	n/a	n/a	n/a	fixation
288980.20250722533	1200.0	n/a	1623	71	2750	4973.79749277	stim	stop-signal	511	1416786	0.0-21.12-1.12	beast_fmri_test	311	1414384,/,1415064,/,1415744,/,1416423,/,1417103,/,1417783,/,1418462,/,1419141,/,1419822,/,1420501,/,1421182,/	t,t,t,t,t,t,t,t,t,t,t	<img class = center src='/static/experiments/beast_fmri_test/images/T.png'></img>	89,71	2750.0	test	<img class = center src='/static/experiments/beast_fmri_test/images/redT.png'></img>	stop	1550.0	1.0	12.0	stop	target	T	89,Middle Finger	71,Index Finger	1200.0	1200.0	1550.0	1600.0	0.0	0.0	1200.0	n/a	go_stim
290530.20250722533	1550.0	n/a	1623	71	2750	4973.79749277	stim	stop-signal	511	1416786	0.0-21.12-1.12	beast_fmri_test	311	1414384,/,1415064,/,1415744,/,1416423,/,1417103,/,1417783,/,1418462,/,1419141,/,1419822,/,1420501,/,1421182,/	t,t,t,t,t,t,t,t,t,t,t	<img class = center src='/static/experiments/beast_fmri_test/images/T.png'></img>	89,71	2750.0	test	<img class = center src='/static/experiments/beast_fmri_test/images/redT.png'></img>	stop	1550.0	1.0	12.0	stop	target	T	89,Middle Finger	71,Index Finger	1200.0	1200.0	1550.0	1600.0	0.0	0.0	1200.0	n/a	stop_stim
291730.20250722533	4973.7974927746609	n/a	1623	71	2750	4973.79749277	stim	stop-signal	511	1416786	0.0-21.12-1.12	beast_fmri_test	311	1414384,/,1415064,/,1415744,/,1416423,/,1417103,/,1417783,/,1418462,/,1419141,/,1419822,/,1420501,/,1421182,/	t,t,t,t,t,t,t,t,t,t,t	<img class = center src='/static/experiments/beast_fmri_test/images/T.png'></img>	89,71	2750.0	test	<img class = center src='/static/experiments/beast_fmri_test/images/redT.png'></img>	stop	1550.0	1.0	12.0	stop	target	T	89,Middle Finger	71,Index Finger	1200.0	1200.0	1550.0	1600.0	0.0	0.0	1200.0	n/a	ITI
302230	500	n/a	-1	-1	500	0.0	fixation	poldrack-single-stim	512	1422312	0.0-21.13-0.13	beast_fmri_test	311	1421860,/	t	<div class = centerbox2><div class = fixation>+</div></div>	none	500.0	test	n/a	n/a	n/a	n/a	n/a	n/a	n/a	n/a	n/a	n/a	n/a	n/a	n/a	n/a	n/a	n/a	n/a	n/a	fixation
302109.65168076381	1200.0	n/a	1282	71	2750	122.348319236	stim	stop-signal	513	1425064	0.0-21.13-1.13	beast_fmri_test	311	1422541,/,1423221,/,1423900,/,1424580,/	t,t,t,t	<img class = center src='/static/experiments/beast_fmri_test/images/B.png'></img>	89,71	2750.0	test	<img class = center src='/static/experiments/beast_fmri_test/images/redB.png'></img>	stop	1550.0	1.0	13.0	stop	non-target	B	89,Middle Finger	71,Index Finger	1150.0	1200.0	1550.0	1550.0	0.0	0.0	1200.0	n/a	go_stim
303659.65168076381	1550.0	n/a	1282	71	2750	122.348319236	stim	stop-signal	513	1425064	0.0-21.13-1.13	beast_fmri_test	311	1422541,/,1423221,/,1423900,/,1424580,/	t,t,t,t	<img class = center src='/static/experiments/beast_fmri_test/images/B.png'></img>	89,71	2750.0	test	<img class = center src='/static/experiments/beast_fmri_test/images/redB.png'></img>	stop	1550.0	1.0	13.0	stop	non-target	B	89,Middle Finger	71,Index Finger	1150.0	1200.0	1550.0	1550.0	0.0	0.0	1200.0	n/a	stop_stim
304859.65168076381	122.34831923627968	n/a	1282	71	2750	122.348319236	stim	stop-signal	513	1425064	0.0-21.13-1.13	beast_fmri_test	311	1422541,/,1423221,/,1423900,/,1424580,/	t,t,t,t	<img class = center src='/static/experiments/beast_fmri_test/images/B.png'></img>	89,71	2750.0	test	<img class = center src='/static/experiments/beast_fmri_test/images/redB.png'></img>	stop	1550.0	1.0	13.0	stop	non-target	B	89,Middle Finger	71,Index Finger	1150.0	1200.0	1550.0	1550.0	0.0	0.0	1200.0	n/a	ITI
305658	500	n/a	-1	-1	500	0.0	fixation	poldrack-single-stim	514	1425740	0.0-21.14-0.14	beast_fmri_test	311	1425259,/	t	<div class = centerbox2><div class = fixation>+</div></div>	none	500.0	test	n/a	n/a	n/a	n/a	n/a	n/a	n/a	n/a	n/a	n/a	n/a	n/a	n/a	n/a	n/a	n/a	n/a	n/a	fixation
305144.53006081912	2750	n/a	1131	89	2750	514.469939181	stim	stop-signal	515	1428491	0.0-21.14-1.14	beast_fmri_test	311	1425940,/,1426618,/,1427298,/,1427978,/,1428657,/	t,t,t,t,t	<img class = center src='/static/experiments/beast_fmri_test/images/B.png'></img>	89,71	2750.0	test	<img class = center src='/static/experiments/beast_fmri_test/images/redB.png'></img>	go	1600.0	1.0	14.0	go	target	B	89,Middle Finger	71,Index Finger	1150.0	1150.0	1600.0	1550.0	1.0	n/a	1150.0	1.0	go_stim
307894.53006081912	514.46993918099713	n/a	1131	89	2750	514.469939181	stim	stop-signal	515	1428491	0.0-21.14-1.14	beast_fmri_test	311	1425940,/,1426618,/,1427298,/,1427978,/,1428657,/	t,t,t,t,t	<img class = center src='/static/experiments/beast_fmri_test/images/B.png'></img>	89,71	2750.0	test	<img class = center src='/static/experiments/beast_fmri_test/images/redB.png'></img>	go	1600.0	1.0	14.0	go	target	B	89,Middle Finger	71,Index Finger	1150.0	1150.0	1600.0	1550.0	1.0	n/a	1150.0	1.0	ITI
309480	500	n/a	-1	-1	500	0.0	fixation	poldrack-single-stim	516	1429562	0.0-21.15-0.15	beast_fmri_test	311	1429338,/	t	<div class = centerbox2><div class = fixation>+</div></div>	none	500.0	test	n/a	n/a	n/a	n/a	n/a	n/a	n/a	n/a	n/a	n/a	n/a	n/a	n/a	n/a	n/a	n/a	n/a	n/a	fixation
307509.13463795115	2750	n/a	1869	71	2750	1973.86536205	stim	stop-signal	517	1432315	0.0-21.15-1.15	beast_fmri_test	311	1430018,/,1430698,/,1431378,/,1432056,/,1432737,/,1433416,/,1434096,/	t,t,t,t,t,t,t	<img class = center src='/static/experiments/beast_fmri_test/images/D.png'></img>	89,71	2750.0	test	<img class = center src='/static/experiments/beast_fmri_test/images/redD.png'></img>	go	1600.0	1.0	15.0	go	non-target	D	89,Middle Finger	71,Index Finger	1150.0	1150.0	1600.0	1600.0	1.0	n/a	1150.0	1.0	go_stim
310259.13463795115	1973.8653620489267	n/a	1869	71	2750	1973.86536205	stim	stop-signal	517	1432315	0.0-21.15-1.15	beast_fmri_test	311	1430018,/,1430698,/,1431378,/,1432056,/,1432737,/,1433416,/,1434096,/	t,t,t,t,t,t,t	<img class = center src='/static/experiments/beast_fmri_test/images/D.png'></img>	89,71	2750.0	test	<img class = center src='/static/experiments/beast_fmri_test/images/redD.png'></img>	go	1600.0	1.0	15.0	go	non-target	D	89,Middle Finger	71,Index Finger	1150.0	1150.0	1600.0	1600.0	1.0	n/a	1150.0	1.0	ITI
314763	500	n/a	-1	-1	500	0.0	fixation	poldrack-single-stim	518	1434845	0.0-21.16-0.16	beast_fmri_test	311	1434776,/	t	<div class = centerbox2><div class = fixation>+</div></div>	none	500.0	test	n/a	n/a	n/a	n/a	n/a	n/a	n/a	n/a	n/a	n/a	n/a	n/a	n/a	n/a	n/a	n/a	n/a	n/a	fixation
314612.38691584999	2750	n/a	1907	71	2750	152.61308415	stim	stop-signal	519	1437597	0.0-21.16-1.16	beast_fmri_test	311	1435455,/,1436135,/,1436814,/,1437494,/	t,t,t,t	<img class = center src='/static/experiments/beast_fmri_test/images/D.png'></img>	89,71	2750.0	test	<img class = center src='/static/experiments/beast_fmri_test/images/redD.png'></img>	go	1600.0	1.0	16.0	go	target	D	89,Middle Finger	71,Index Finger	1150.0	1150.0	1600.0	1600.0	0.0	n/a	1150.0	0.0	go_stim
317362.38691584999	152.61308414999348	n/a	1907	71	2750	152.61308415	stim	stop-signal	519	1437597	0.0-21.16-1.16	beast_fmri_test	311	1435455,/,1436135,/,1436814,/,1437494,/	t,t,t,t	<img class = center src='/static/experiments/beast_fmri_test/images/D.png'></img>	89,71	2750.0	test	<img class = center src='/static/experiments/beast_fmri_test/images/redD.png'></img>	go	1600.0	1.0	16.0	go	target	D	89,Middle Finger	71,Index Finger	1150.0	1150.0	1600.0	1600.0	0.0	n/a	1150.0	0.0	ITI
318221	500	n/a	-1	-1	500	0.0	fixation	poldrack-single-stim	520	1438303	0.0-21.17-0.17	beast_fmri_test	311	1438173,/	t	<div class = centerbox2><div class = fixation>+</div></div>	none	500.0	test	n/a	n/a	n/a	n/a	n/a	n/a	n/a	n/a	n/a	n/a	n/a	n/a	n/a	n/a	n/a	n/a	n/a	n/a	fixation
315450.44211896299	2750	n/a	946	89	2750	2772.55788104	stim	stop-signal	521	1441055	0.0-21.17-1.17	beast_fmri_test	311	1438854,/,1439534,/,1440213,/,1440893,/,1441571,/,1442252,/,1442932,/,1443611,/	t,t,t,t,t,t,t,t	<img class = center src='/static/experiments/beast_fmri_test/images/D.png'></img>	89,71	2750.0	test	<img class = center src='/static/experiments/beast_fmri_test/images/redD.png'></img>	go	1600.0	1.0	17.0	go	target	D	89,Middle Finger	71,Index Finger	1150.0	1150.0	1600.0	1600.0	1.0	n/a	1150.0	1.0	go_stim
318200.44211896299	2772.5578810369952	n/a	946	89	2750	2772.55788104	stim	stop-signal	521	1441055	0.0-21.17-1.17	beast_fmri_test	311	1438854,/,1439534,/,1440213,/,1440893,/,1441571,/,1442252,/,1442932,/,1443611,/	t,t,t,t,t,t,t,t	<img class = center src='/static/experiments/beast_fmri_test/images/D.png'></img>	89,71	2750.0	test	<img class = center src='/static/experiments/beast_fmri_test/images/redD.png'></img>	go	1600.0	1.0	17.0	go	target	D	89,Middle Finger	71,Index Finger	1150.0	1150.0	1600.0	1600.0	1.0	n/a	1150.0	1.0	ITI
324296	500	n/a	-1	-1	500	0.0	fixation	poldrack-single-stim	522	1444378	0.0-21.18-0.18	beast_fmri_test	311	1444291,/	t	<div class = centerbox2><div class = fixation>+</div></div>	none	500.0	test	n/a	n/a	n/a	n/a	n/a	n/a	n/a	n/a	n/a	n/a	n/a	n/a	n/a	n/a	n/a	n/a	n/a	n/a	fixation
323628.83114641812	2750	n/a	1602	71	2750	669.168853582	stim	stop-signal	523	1447130	0.0-21.18-1.18	beast_fmri_test	311	1444971,/,1445651,/,1446330,/,1447011,/,1447690,/	t,t,t,t,t	<img class = center src='/static/experiments/beast_fmri_test/images/P.png'></img>	89,71	2750.0	test	<img class = center src='/static/experiments/beast_fmri_test/images/redP.png'></img>	go	1600.0	1.0	18.0	go	non-target	P	89,Middle Finger	71,Index Finger	1150.0	1150.0	1600.0	1600.0	1.0	n/a	1150.0	1.0	go_stim
326378.83114641812	669.16885358191416	n/a	1602	71	2750	669.168853582	stim	stop-signal	523	1447130	0.0-21.18-1.18	beast_fmri_test	311	1444971,/,1445651,/,1446330,/,1447011,/,1447690,/	t,t,t,t,t	<img class = center src='/static/experiments/beast_fmri_test/images/P.png'></img>	89,71	2750.0	test	<img class = center src='/static/experiments/beast_fmri_test/images/redP.png'></img>	go	1600.0	1.0	18.0	go	non-target	P	89,Middle Finger	71,Index Finger	1150.0	1150.0	1600.0	1600.0	1.0	n/a	1150.0	1.0	ITI
328274	500	n/a	-1	-1	500	0.0	fixation	poldrack-single-stim	524	1448356	0.0-21.19-0.19	beast_fmri_test	311	n/a	n/a	<div class = centerbox2><div class = fixation>+</div></div>	none	500.0	test	n/a	n/a	n/a	n/a	n/a	n/a	n/a	n/a	n/a	n/a	n/a	n/a	n/a	n/a	n/a	n/a	n/a	n/a	fixation
327984.35889144894	2750	n/a	913	89	2750	290.641108551	stim	stop-signal	525	1451107	0.0-21.19-1.19	beast_fmri_test	311	1448369,/,1449049,/,1449730,/,1450408,/,1451088,/	t,t,t,t,t	<img class = center src='/static/experiments/beast_fmri_test/images/P.png'></img>	89,71	2750.0	test	<img class = center src='/static/experiments/beast_fmri_test/images/redP.png'></img>	go	1600.0	1.0	19.0	go	target	P	89,Middle Finger	71,Index Finger	1150.0	1150.0	1600.0	1600.0	1.0	n/a	1150.0	1.0	go_stim
330734.35889144894	290.64110855116667	n/a	913	89	2750	290.641108551	stim	stop-signal	525	1451107	0.0-21.19-1.19	beast_fmri_test	311	1448369,/,1449049,/,1449730,/,1450408,/,1451088,/	t,t,t,t,t	<img class = center src='/static/experiments/beast_fmri_test/images/P.png'></img>	89,71	2750.0	test	<img class = center src='/static/experiments/beast_fmri_test/images/redP.png'></img>	go	1600.0	1.0	19.0	go	target	P	89,Middle Finger	71,Index Finger	1150.0	1150.0	1600.0	1600.0	1.0	n/a	1150.0	1.0	ITI
331874	500	n/a	-1	-1	500	0.0	fixation	poldrack-single-stim	526	1451956	0.0-21.20-0.20	beast_fmri_test	311	1451769,/	t	<div class = centerbox2><div class = fixation>+</div></div>	none	500.0	test	n/a	n/a	n/a	n/a	n/a	n/a	n/a	n/a	n/a	n/a	n/a	n/a	n/a	n/a	n/a	n/a	n/a	n/a	fixation
331336.02974293847	2750	n/a	1120	71	2750	539.970257061	stim	stop-signal	527	1454708	0.0-21.20-1.20	beast_fmri_test	311	1452447,/,1453127,/,1453808,/,1454487,/,1455165,/	t,t,t,t,t	<img class = center src='/static/experiments/beast_fmri_test/images/B.png'></img>	89,71	2750.0	test	<img class = center src='/static/experiments/beast_fmri_test/images/redB.png'></img>	go	1600.0	1.0	20.0	go	non-target	B	89,Middle Finger	71,Index Finger	1150.0	1150.0	1600.0	1600.0	1.0	n/a	1150.0	1.0	go_stim
