onset	duration	text	rt	key_press	block_duration	timing_post_trial	trial_id	trial_type	trial_index	time_elapsed	internal_node_id	exp_id	subject_id	trigger_times	triggers	stimulus	possible_responses	stim_duration	exp_stage	SS_stimulus	SS_trial_type	SS_duration	load	trial_num	stop_trial_type	adaptive_trial_type	stim	yes_response_key	no_response_key	SSD_target	SSD_non_target	SSTarget	SSNonTarget	go_acc	stop_acc	SS_delay	adaptive_acc	new_trial_type
test	10880	n/a	-1	-1	10880	0.0	practice-no-stop-feedback	poldrack-single-stim	6	73597	0.0-6.0	beast_fmri_test	311	62719,/,63397,/,64076,/,64757,/,65437,/,66115,/,66796,/,67476,/,68155,/,68834,/,69514,/,70194,/,70874,/,71553,/,72233,/,72913,/,73593,/	t,t,t,t,t,t,t,t,t,t,t,t,t,t,t,t,t	"<div class = ""centerbox""><p class = ""block-text"">Your delay is 2 trials.</p><p class = block-text>Please wait for the scanner to start the block</p></div>"	77	10880.0	n/a	n/a	n/a	n/a	n/a	n/a	n/a	n/a	n/a	n/a	n/a	n/a	n/a	n/a	n/a	n/a	n/a	n/a	n/a	start_functional_block
11381	500	n/a	-1	-1	500	0.0	fixation	poldrack-single-stim	7	74100	0.0-7.0-0.0	beast_fmri_test	311	n/a	n/a	<div class = centerbox2><div class = fixation>+</div></div>	none	500.0	test	n/a	n/a	n/a	n/a	n/a	n/a	n/a	n/a	n/a	n/a	n/a	n/a	n/a	n/a	n/a	n/a	n/a	n/a	fixation
7603.5539006711915	temp_go_duration	n/a	1698	71	2750	3782.44609933	stim	stop-signal	8	76855	0.0-7.0-1.0	beast_fmri_test	311	74272,/,74951,/,75632,/,76311,/,76990,/,77669,/,78350,/,79029,/,79709,/,80389,/	t,t,t,t,t,t,t,t,t,t	<img class = center src='/static/experiments/beast_fmri_test/images/P.png'></img>	89,71	2750.0	test	<img class = center src='/static/experiments/beast_fmri_test/images/redP.png'></img>	stop	-1.0	2.0	0.0	stop	temp-non-target	P	89,Middle Finger	71,Index Finger	500.0	500.0	0.0	0.0	0.0	0.0	n/a	n/a	go_stim
temp-non-target	temp_stop_duration	n/a	1698	71	2750	3782.44609933	stim	stop-signal	8	76855	0.0-7.0-1.0	beast_fmri_test	311	74272,/,74951,/,75632,/,76311,/,76990,/,77669,/,78350,/,79029,/,79709,/,80389,/	t,t,t,t,t,t,t,t,t,t	<img class = center src='/static/experiments/beast_fmri_test/images/P.png'></img>	89,71	2750.0	test	<img class = center src='/static/experiments/beast_fmri_test/images/redP.png'></img>	stop	-1.0	2.0	0.0	stop	temp-non-target	P	89,Middle Finger	71,Index Finger	500.0	500.0	0.0	0.0	0.0	0.0	n/a	n/a	stop_stim
10353.553900671192	3782.4460993288067	n/a	1698	71	2750	3782.44609933	stim	stop-signal	8	76855	0.0-7.0-1.0	beast_fmri_test	311	74272,/,74951,/,75632,/,76311,/,76990,/,77669,/,78350,/,79029,/,79709,/,80389,/	t,t,t,t,t,t,t,t,t,t	<img class = center src='/static/experiments/beast_fmri_test/images/P.png'></img>	89,71	2750.0	test	<img class = center src='/static/experiments/beast_fmri_test/images/redP.png'></img>	stop	-1.0	2.0	0.0	stop	temp-non-target	P	89,Middle Finger	71,Index Finger	500.0	500.0	0.0	0.0	0.0	0.0	n/a	n/a	ITI
18428	500	n/a	-1	-1	500	0.0	fixation	poldrack-single-stim	9	81147	0.0-7.1-0.1	beast_fmri_test	311	81069,/	t	<div class = centerbox2><div class = fixation>+</div></div>	none	500.0	test	n/a	n/a	n/a	n/a	n/a	n/a	n/a	n/a	n/a	n/a	n/a	n/a	n/a	n/a	n/a	n/a	n/a	n/a	fixation
17781.873389073022	2750	n/a	947	71	2750	649.126610927	stim	stop-signal	10	83900	0.0-7.1-1.1	beast_fmri_test	311	81748,/,82428,/,83107,/,83787,/,84467,/	t,t,t,t,t	<img class = center src='/static/experiments/beast_fmri_test/images/B.png'></img>	89,71	2750.0	test	<img class = center src='/static/experiments/beast_fmri_test/images/redB.png'></img>	go	-1.0	2.0	1.0	go	temp-non-target	B	89,Middle Finger	71,Index Finger	500.0	500.0	0.0	0.0	0.0	n/a	n/a	n/a	go_stim
20531.873389073022	649.12661092697431	n/a	947	71	2750	649.126610927	stim	stop-signal	10	83900	0.0-7.1-1.1	beast_fmri_test	311	81748,/,82428,/,83107,/,83787,/,84467,/	t,t,t,t,t	<img class = center src='/static/experiments/beast_fmri_test/images/B.png'></img>	89,71	2750.0	test	<img class = center src='/static/experiments/beast_fmri_test/images/redB.png'></img>	go	-1.0	2.0	1.0	go	temp-non-target	B	89,Middle Finger	71,Index Finger	500.0	500.0	0.0	0.0	0.0	n/a	n/a	n/a	ITI
22338	500	n/a	-1	-1	500	0.0	fixation	poldrack-single-stim	11	85057	0.0-7.2-0.2	beast_fmri_test	311	n/a	n/a	<div class = centerbox2><div class = fixation>+</div></div>	none	500.0	test	n/a	n/a	n/a	n/a	n/a	n/a	n/a	n/a	n/a	n/a	n/a	n/a	n/a	n/a	n/a	n/a	n/a	n/a	fixation
20862.278797228151	2750	n/a	908	71	2750	1479.72120277	stim	stop-signal	12	87811	0.0-7.2-1.2	beast_fmri_test	311	85147,/,85826,/,86506,/,87185,/,87864,/,88544,/,89224,/	t,t,t,t,t,t,t	<img class = center src='/static/experiments/beast_fmri_test/images/D.png'></img>	89,71	2750.0	test	<img class = center src='/static/experiments/beast_fmri_test/images/redD.png'></img>	go	2250.0	2.0	2.0	go	non-target	D	89,Middle Finger	71,Index Finger	500.0	500.0	0.0	2250.0	1.0	n/a	500.0	1.0	go_stim
23612.278797228151	1479.7212027718426	n/a	908	71	2750	1479.72120277	stim	stop-signal	12	87811	0.0-7.2-1.2	beast_fmri_test	311	85147,/,85826,/,86506,/,87185,/,87864,/,88544,/,89224,/	t,t,t,t,t,t,t	<img class = center src='/static/experiments/beast_fmri_test/images/D.png'></img>	89,71	2750.0	test	<img class = center src='/static/experiments/beast_fmri_test/images/redD.png'></img>	go	2250.0	2.0	2.0	go	non-target	D	89,Middle Finger	71,Index Finger	500.0	500.0	0.0	2250.0	1.0	n/a	500.0	1.0	ITI
27077	500	n/a	-1	-1	500	0.0	fixation	poldrack-single-stim	13	89796	0.0-7.3-0.3	beast_fmri_test	311	n/a	n/a	<div class = centerbox2><div class = fixation>+</div></div>	none	500.0	test	n/a	n/a	n/a	n/a	n/a	n/a	n/a	n/a	n/a	n/a	n/a	n/a	n/a	n/a	n/a	n/a	n/a	n/a	fixation
26305.331007052519	2750	n/a	807	89	2750	772.668992947	stim	stop-signal	14	92547	0.0-7.3-1.3	beast_fmri_test	311	89904,/,90584,/,91264,/,91943,/,92623,/,93303,/	t,t,t,t,t,t	<img class = center src='/static/experiments/beast_fmri_test/images/B.png'></img>	89,71	2750.0	test	<img class = center src='/static/experiments/beast_fmri_test/images/redB.png'></img>	go	2250.0	2.0	3.0	go	target	B	89,Middle Finger	71,Index Finger	500.0	500.0	2250.0	2250.0	1.0	n/a	500.0	1.0	go_stim
29055.331007052519	772.66899294748441	n/a	807	89	2750	772.668992947	stim	stop-signal	14	92547	0.0-7.3-1.3	beast_fmri_test	311	89904,/,90584,/,91264,/,91943,/,92623,/,93303,/	t,t,t,t,t,t	<img class = center src='/static/experiments/beast_fmri_test/images/B.png'></img>	89,71	2750.0	test	<img class = center src='/static/experiments/beast_fmri_test/images/redB.png'></img>	go	2250.0	2.0	3.0	go	target	B	89,Middle Finger	71,Index Finger	500.0	500.0	2250.0	2250.0	1.0	n/a	500.0	1.0	ITI
31106	500	n/a	-1	-1	500	0.0	fixation	poldrack-single-stim	15	93825	0.0-7.4-0.4	beast_fmri_test	311	n/a	n/a	<div class = centerbox2><div class = fixation>+</div></div>	none	500.0	test	n/a	n/a	n/a	n/a	n/a	n/a	n/a	n/a	n/a	n/a	n/a	n/a	n/a	n/a	n/a	n/a	n/a	n/a	fixation
31000.45963619258	2750	n/a	1027	89	2750	108.540363807	stim	stop-signal	16	96578	0.0-7.4-1.4	beast_fmri_test	311	93981,/,94663,/,95342,/,96022,/	t,t,t,t	<img class = center src='/static/experiments/beast_fmri_test/images/D.png'></img>	89,71	2750.0	test	<img class = center src='/static/experiments/beast_fmri_test/images/redD.png'></img>	go	2250.0	2.0	4.0	go	target	D	89,Middle Finger	71,Index Finger	500.0	500.0	2250.0	2250.0	1.0	n/a	500.0	1.0	go_stim
33750.45963619258	108.54036380742724	n/a	1027	89	2750	108.540363807	stim	stop-signal	16	96578	0.0-7.4-1.4	beast_fmri_test	311	93981,/,94663,/,95342,/,96022,/	t,t,t,t	<img class = center src='/static/experiments/beast_fmri_test/images/D.png'></img>	89,71	2750.0	test	<img class = center src='/static/experiments/beast_fmri_test/images/redD.png'></img>	go	2250.0	2.0	4.0	go	target	D	89,Middle Finger	71,Index Finger	500.0	500.0	2250.0	2250.0	1.0	n/a	500.0	1.0	ITI
34474	500	n/a	-1	-1	500	0.0	fixation	poldrack-single-stim	17	97193	0.0-7.5-0.5	beast_fmri_test	311	96704,/	t	<div class = centerbox2><div class = fixation>+</div></div>	none	500.0	test	n/a	n/a	n/a	n/a	n/a	n/a	n/a	n/a	n/a	n/a	n/a	n/a	n/a	n/a	n/a	n/a	n/a	n/a	fixation
34127.974336791929	500.0	n/a	-1	-1	2750	348.025663208	stim	stop-signal	18	99945	0.0-7.5-1.5	beast_fmri_test	311	97381,/,98060,/,98740,/,99421,/,100100,/	t,t,t,t,t	<img class = center src='/static/experiments/beast_fmri_test/images/D.png'></img>	89,71	2750.0	test	<img class = center src='/static/experiments/beast_fmri_test/images/redD.png'></img>	stop	2250.0	2.0	5.0	stop	non-target	D	89,Middle Finger	71,Index Finger	500.0	500.0	2250.0	2250.0	0.0	1.0	500.0	n/a	go_stim
36377.974336791929	2250.0	n/a	-1	-1	2750	348.025663208	stim	stop-signal	18	99945	0.0-7.5-1.5	beast_fmri_test	311	97381,/,98060,/,98740,/,99421,/,100100,/	t,t,t,t,t	<img class = center src='/static/experiments/beast_fmri_test/images/D.png'></img>	89,71	2750.0	test	<img class = center src='/static/experiments/beast_fmri_test/images/redD.png'></img>	stop	2250.0	2.0	5.0	stop	non-target	D	89,Middle Finger	71,Index Finger	500.0	500.0	2250.0	2250.0	0.0	1.0	500.0	n/a	stop_stim
36877.974336791929	348.02566320806687	n/a	-1	-1	2750	348.025663208	stim	stop-signal	18	99945	0.0-7.5-1.5	beast_fmri_test	311	97381,/,98060,/,98740,/,99421,/,100100,/	t,t,t,t,t	<img class = center src='/static/experiments/beast_fmri_test/images/D.png'></img>	89,71	2750.0	test	<img class = center src='/static/experiments/beast_fmri_test/images/redD.png'></img>	stop	2250.0	2.0	5.0	stop	non-target	D	89,Middle Finger	71,Index Finger	500.0	500.0	2250.0	2250.0	0.0	1.0	500.0	n/a	ITI
38080	500	n/a	-1	-1	500	0.0	fixation	poldrack-single-stim	19	100799	0.0-7.6-0.6	beast_fmri_test	311	100780,/	t	<div class = centerbox2><div class = fixation>+</div></div>	none	500.0	test	n/a	n/a	n/a	n/a	n/a	n/a	n/a	n/a	n/a	n/a	n/a	n/a	n/a	n/a	n/a	n/a	n/a	n/a	fixation
37568.880618951618	2750	n/a	1212	89	2750	514.119381048	stim	stop-signal	20	103552	0.0-7.6-1.6	beast_fmri_test	311	101460,/,102139,/,102818,/,103499,/	t,t,t,t	<img class = center src='/static/experiments/beast_fmri_test/images/D.png'></img>	89,71	2750.0	test	<img class = center src='/static/experiments/beast_fmri_test/images/redD.png'></img>	go	2250.0	2.0	6.0	go	target	D	89,Middle Finger	71,Index Finger	500.0	550.0	2250.0	2250.0	1.0	n/a	500.0	1.0	go_stim
40318.880618951618	514.11938104838816	n/a	1212	89	2750	514.119381048	stim	stop-signal	20	103552	0.0-7.6-1.6	beast_fmri_test	311	101460,/,102139,/,102818,/,103499,/	t,t,t,t	<img class = center src='/static/experiments/beast_fmri_test/images/D.png'></img>	89,71	2750.0	test	<img class = center src='/static/experiments/beast_fmri_test/images/redD.png'></img>	go	2250.0	2.0	6.0	go	target	D	89,Middle Finger	71,Index Finger	500.0	550.0	2250.0	2250.0	1.0	n/a	500.0	1.0	ITI
41854	500	n/a	-1	-1	500	0.0	fixation	poldrack-single-stim	21	104573	0.0-7.7-0.7	beast_fmri_test	311	104178,/	t	<div class = centerbox2><div class = fixation>+</div></div>	none	500.0	test	n/a	n/a	n/a	n/a	n/a	n/a	n/a	n/a	n/a	n/a	n/a	n/a	n/a	n/a	n/a	n/a	n/a	n/a	fixation
40307.503830967384	2750	n/a	647	71	2750	1548.49616903	stim	stop-signal	22	107325	0.0-7.7-1.7	beast_fmri_test	311	104858,/,105537,/,106217,/,106896,/,107576,/,108256,/	t,t,t,t,t,t	<img class = center src='/static/experiments/beast_fmri_test/images/B.png'></img>	89,71	2750.0	test	<img class = center src='/static/experiments/beast_fmri_test/images/redB.png'></img>	go	2200.0	2.0	7.0	go	non-target	B	89,Middle Finger	71,Index Finger	500.0	550.0	2250.0	2200.0	1.0	n/a	550.0	1.0	go_stim
43057.503830967384	1548.4961690326159	n/a	647	71	2750	1548.49616903	stim	stop-signal	22	107325	0.0-7.7-1.7	beast_fmri_test	311	104858,/,105537,/,106217,/,106896,/,107576,/,108256,/	t,t,t,t,t,t	<img class = center src='/static/experiments/beast_fmri_test/images/B.png'></img>	89,71	2750.0	test	<img class = center src='/static/experiments/beast_fmri_test/images/redB.png'></img>	go	2200.0	2.0	7.0	go	non-target	B	89,Middle Finger	71,Index Finger	500.0	550.0	2250.0	2200.0	1.0	n/a	550.0	1.0	ITI
46661	500	n/a	-1	-1	500	0.0	fixation	poldrack-single-stim	23	109380	0.0-7.8-0.8	beast_fmri_test	311	108934,/	t	<div class = centerbox2><div class = fixation>+</div></div>	none	500.0	test	n/a	n/a	n/a	n/a	n/a	n/a	n/a	n/a	n/a	n/a	n/a	n/a	n/a	n/a	n/a	n/a	n/a	n/a	fixation
45117.900636426755	2750	n/a	814	71	2750	1546.09936357	stim	stop-signal	24	112133	0.0-7.8-1.8	beast_fmri_test	311	109616,/,110294,/,110975,/,111653,/,112333,/,113012,/	t,t,t,t,t,t	<img class = center src='/static/experiments/beast_fmri_test/images/B.png'></img>	89,71	2750.0	test	<img class = center src='/static/experiments/beast_fmri_test/images/redB.png'></img>	go	2200.0	2.0	8.0	go	non-target	B	89,Middle Finger	71,Index Finger	500.0	550.0	2250.0	2200.0	1.0	n/a	550.0	1.0	go_stim
47867.900636426755	1546.0993635732391	n/a	814	71	2750	1546.09936357	stim	stop-signal	24	112133	0.0-7.8-1.8	beast_fmri_test	311	109616,/,110294,/,110975,/,111653,/,112333,/,113012,/	t,t,t,t,t,t	<img class = center src='/static/experiments/beast_fmri_test/images/B.png'></img>	89,71	2750.0	test	<img class = center src='/static/experiments/beast_fmri_test/images/redB.png'></img>	go	2200.0	2.0	8.0	go	non-target	B	89,Middle Finger	71,Index Finger	500.0	550.0	2250.0	2200.0	1.0	n/a	550.0	1.0	ITI
51468	500	n/a	-1	-1	500	0.0	fixation	poldrack-single-stim	25	114187	0.0-7.9-0.9	beast_fmri_test	311	113694,/	t	<div class = centerbox2><div class = fixation>+</div></div>	none	500.0	test	n/a	n/a	n/a	n/a	n/a	n/a	n/a	n/a	n/a	n/a	n/a	n/a	n/a	n/a	n/a	n/a	n/a	n/a	fixation
51320.003044551224	500.0	n/a	-1	-1	2750	149.996955449	stim	stop-signal	26	116939	0.0-7.9-1.9	beast_fmri_test	311	114373,/,115053,/,115733,/,116412,/	t,t,t,t	<img class = center src='/static/experiments/beast_fmri_test/images/B.png'></img>	89,71	2750.0	test	<img class = center src='/static/experiments/beast_fmri_test/images/redB.png'></img>	stop	2250.0	2.0	9.0	stop	target	B	89,Middle Finger	71,Index Finger	500.0	550.0	2250.0	2200.0	0.0	1.0	500.0	n/a	go_stim
53570.003044551224	2250.0	n/a	-1	-1	2750	149.996955449	stim	stop-signal	26	116939	0.0-7.9-1.9	beast_fmri_test	311	114373,/,115053,/,115733,/,116412,/	t,t,t,t	<img class = center src='/static/experiments/beast_fmri_test/images/B.png'></img>	89,71	2750.0	test	<img class = center src='/static/experiments/beast_fmri_test/images/redB.png'></img>	stop	2250.0	2.0	9.0	stop	target	B	89,Middle Finger	71,Index Finger	500.0	550.0	2250.0	2200.0	0.0	1.0	500.0	n/a	stop_stim
54070.003044551224	149.99695544877525	n/a	-1	-1	2750	149.996955449	stim	stop-signal	26	116939	0.0-7.9-1.9	beast_fmri_test	311	114373,/,115053,/,115733,/,116412,/	t,t,t,t	<img class = center src='/static/experiments/beast_fmri_test/images/B.png'></img>	89,71	2750.0	test	<img class = center src='/static/experiments/beast_fmri_test/images/redB.png'></img>	stop	2250.0	2.0	9.0	stop	target	B	89,Middle Finger	71,Index Finger	500.0	550.0	2250.0	2200.0	0.0	1.0	500.0	n/a	ITI
54877	500	n/a	-1	-1	500	0.0	fixation	poldrack-single-stim	27	117596	0.0-7.10-0.10	beast_fmri_test	311	117095,/	t	<div class = centerbox2><div class = fixation>+</div></div>	none	500.0	test	n/a	n/a	n/a	n/a	n/a	n/a	n/a	n/a	n/a	n/a	n/a	n/a	n/a	n/a	n/a	n/a	n/a	n/a	fixation
54235.56793109476	550.0	n/a	-1	-1	2750	644.432068905	stim	stop-signal	28	120349	0.0-7.10-1.10	beast_fmri_test	311	117772,/,118451,/,119131,/,119810,/,120490,/	t,t,t,t,t	<img class = center src='/static/experiments/beast_fmri_test/images/B.png'></img>	89,71	2750.0	test	<img class = center src='/static/experiments/beast_fmri_test/images/redB.png'></img>	stop	2200.0	2.0	10.0	stop	target	B	89,Middle Finger	71,Index Finger	550.0	550.0	2200.0	2200.0	0.0	1.0	550.0	n/a	go_stim
56435.56793109476	2200.0	n/a	-1	-1	2750	644.432068905	stim	stop-signal	28	120349	0.0-7.10-1.10	beast_fmri_test	311	117772,/,118451,/,119131,/,119810,/,120490,/	t,t,t,t,t	<img class = center src='/static/experiments/beast_fmri_test/images/B.png'></img>	89,71	2750.0	test	<img class = center src='/static/experiments/beast_fmri_test/images/redB.png'></img>	stop	2200.0	2.0	10.0	stop	target	B	89,Middle Finger	71,Index Finger	550.0	550.0	2200.0	2200.0	0.0	1.0	550.0	n/a	stop_stim
56985.56793109476	644.43206890523561	n/a	-1	-1	2750	644.432068905	stim	stop-signal	28	120349	0.0-7.10-1.10	beast_fmri_test	311	117772,/,118451,/,119131,/,119810,/,120490,/	t,t,t,t,t	<img class = center src='/static/experiments/beast_fmri_test/images/B.png'></img>	89,71	2750.0	test	<img class = center src='/static/experiments/beast_fmri_test/images/redB.png'></img>	stop	2200.0	2.0	10.0	stop	target	B	89,Middle Finger	71,Index Finger	550.0	550.0	2200.0	2200.0	0.0	1.0	550.0	n/a	ITI
58783	500	n/a	-1	-1	500	0.0	fixation	poldrack-single-stim	29	121502	0.0-7.11-0.11	beast_fmri_test	311	121169,/	t	<div class = centerbox2><div class = fixation>+</div></div>	none	500.0	test	n/a	n/a	n/a	n/a	n/a	n/a	n/a	n/a	n/a	n/a	n/a	n/a	n/a	n/a	n/a	n/a	n/a	n/a	fixation
58477.11608928733	550.0	n/a	-1	-1	2750	307.883910713	stim	stop-signal	30	124254	0.0-7.11-1.11	beast_fmri_test	311	121850,/,122528,/,123210,/,123889,/	t,t,t,t	<img class = center src='/static/experiments/beast_fmri_test/images/P.png'></img>	89,71	2750.0	test	<img class = center src='/static/experiments/beast_fmri_test/images/redP.png'></img>	stop	2200.0	2.0	11.0	stop	non-target	P	89,Middle Finger	71,Index Finger	600.0	550.0	2200.0	2200.0	0.0	1.0	550.0	n/a	go_stim
60677.11608928733	2200.0	n/a	-1	-1	2750	307.883910713	stim	stop-signal	30	124254	0.0-7.11-1.11	beast_fmri_test	311	121850,/,122528,/,123210,/,123889,/	t,t,t,t	<img class = center src='/static/experiments/beast_fmri_test/images/P.png'></img>	89,71	2750.0	test	<img class = center src='/static/experiments/beast_fmri_test/images/redP.png'></img>	stop	2200.0	2.0	11.0	stop	non-target	P	89,Middle Finger	71,Index Finger	600.0	550.0	2200.0	2200.0	0.0	1.0	550.0	n/a	stop_stim
61227.11608928733	307.88391071266983	n/a	-1	-1	2750	307.883910713	stim	stop-signal	30	124254	0.0-7.11-1.11	beast_fmri_test	311	121850,/,122528,/,123210,/,123889,/	t,t,t,t	<img class = center src='/static/experiments/beast_fmri_test/images/P.png'></img>	89,71	2750.0	test	<img class = center src='/static/experiments/beast_fmri_test/images/redP.png'></img>	stop	2200.0	2.0	11.0	stop	non-target	P	89,Middle Finger	71,Index Finger	600.0	550.0	2200.0	2200.0	0.0	1.0	550.0	n/a	ITI
62352	500	n/a	-1	-1	500	0.0	fixation	poldrack-single-stim	31	125071	0.0-7.12-0.12	beast_fmri_test	311	124570,/	t	<div class = centerbox2><div class = fixation>+</div></div>	none	500.0	test	n/a	n/a	n/a	n/a	n/a	n/a	n/a	n/a	n/a	n/a	n/a	n/a	n/a	n/a	n/a	n/a	n/a	n/a	fixation
62217.456987151352	600.0	n/a	-1	-1	2750	135.543012849	stim	stop-signal	32	127822	0.0-7.12-1.12	beast_fmri_test	311	125249,/,125928,/,126608,/,127288,/	t,t,t,t	<img class = center src='/static/experiments/beast_fmri_test/images/P.png'></img>	89,71	2750.0	test	<img class = center src='/static/experiments/beast_fmri_test/images/redP.png'></img>	stop	2150.0	2.0	12.0	stop	non-target	P	89,Middle Finger	71,Index Finger	600.0	600.0	2200.0	2150.0	0.0	1.0	600.0	n/a	go_stim
64367.456987151352	2150.0	n/a	-1	-1	2750	135.543012849	stim	stop-signal	32	127822	0.0-7.12-1.12	beast_fmri_test	311	125249,/,125928,/,126608,/,127288,/	t,t,t,t	<img class = center src='/static/experiments/beast_fmri_test/images/P.png'></img>	89,71	2750.0	test	<img class = center src='/static/experiments/beast_fmri_test/images/redP.png'></img>	stop	2150.0	2.0	12.0	stop	non-target	P	89,Middle Finger	71,Index Finger	600.0	600.0	2200.0	2150.0	0.0	1.0	600.0	n/a	stop_stim
64967.456987151352	135.54301284864599	n/a	-1	-1	2750	135.543012849	stim	stop-signal	32	127822	0.0-7.12-1.12	beast_fmri_test	311	125249,/,125928,/,126608,/,127288,/	t,t,t,t	<img class = center src='/static/experiments/beast_fmri_test/images/P.png'></img>	89,71	2750.0	test	<img class = center src='/static/experiments/beast_fmri_test/images/redP.png'></img>	stop	2150.0	2.0	12.0	stop	non-target	P	89,Middle Finger	71,Index Finger	600.0	600.0	2200.0	2150.0	0.0	1.0	600.0	n/a	ITI
65750	500	n/a	-1	-1	500	0.0	fixation	poldrack-single-stim	33	128469	0.0-7.13-0.13	beast_fmri_test	311	127967,/	t	<div class = centerbox2><div class = fixation>+</div></div>	none	500.0	test	n/a	n/a	n/a	n/a	n/a	n/a	n/a	n/a	n/a	n/a	n/a	n/a	n/a	n/a	n/a	n/a	n/a	n/a	fixation
65401.485131035908	2750	n/a	768	71	2750	349.514868964	stim	stop-signal	34	131220	0.0-7.13-1.13	beast_fmri_test	311	128648,/,129326,/,130006,/,130684,/,131364,/	t,t,t,t,t	<img class = center src='/static/experiments/beast_fmri_test/images/B.png'></img>	89,71	2750.0	test	<img class = center src='/static/experiments/beast_fmri_test/images/redB.png'></img>	go	2100.0	2.0	13.0	go	non-target	B	89,Middle Finger	71,Index Finger	600.0	650.0	2200.0	2100.0	1.0	n/a	650.0	1.0	go_stim
68151.485131035908	349.51486896409762	n/a	768	71	2750	349.514868964	stim	stop-signal	34	131220	0.0-7.13-1.13	beast_fmri_test	311	128648,/,129326,/,130006,/,130684,/,131364,/	t,t,t,t,t	<img class = center src='/static/experiments/beast_fmri_test/images/B.png'></img>	89,71	2750.0	test	<img class = center src='/static/experiments/beast_fmri_test/images/redB.png'></img>	go	2100.0	2.0	13.0	go	non-target	B	89,Middle Finger	71,Index Finger	600.0	650.0	2200.0	2100.0	1.0	n/a	650.0	1.0	ITI
69360	500	n/a	-1	-1	500	0.0	fixation	poldrack-single-stim	35	132079	0.0-7.14-0.14	beast_fmri_test	311	132045,/	t	<div class = centerbox2><div class = fixation>+</div></div>	none	500.0	test	n/a	n/a	n/a	n/a	n/a	n/a	n/a	n/a	n/a	n/a	n/a	n/a	n/a	n/a	n/a	n/a	n/a	n/a	fixation
65571.403587750698	2750	n/a	1072	71	2750	3790.59641225	stim	stop-signal	36	134831	0.0-7.14-1.14	beast_fmri_test	311	132725,/,133404,/,134084,/,134762,/,135442,/,136124,/,136804,/,137482,/,138162,/	t,t,t,t,t,t,t,t,t	<img class = center src='/static/experiments/beast_fmri_test/images/D.png'></img>	89,71	2750.0	test	<img class = center src='/static/experiments/beast_fmri_test/images/redD.png'></img>	go	2100.0	2.0	14.0	go	non-target	D	89,Middle Finger	71,Index Finger	600.0	650.0	2200.0	2100.0	1.0	n/a	650.0	1.0	go_stim
68321.403587750698	3790.5964122492969	n/a	1072	71	2750	3790.59641225	stim	stop-signal	36	134831	0.0-7.14-1.14	beast_fmri_test	311	132725,/,133404,/,134084,/,134762,/,135442,/,136124,/,136804,/,137482,/,138162,/	t,t,t,t,t,t,t,t,t	<img class = center src='/static/experiments/beast_fmri_test/images/D.png'></img>	89,71	2750.0	test	<img class = center src='/static/experiments/beast_fmri_test/images/redD.png'></img>	go	2100.0	2.0	14.0	go	non-target	D	89,Middle Finger	71,Index Finger	600.0	650.0	2200.0	2100.0	1.0	n/a	650.0	1.0	ITI
76411	500	n/a	-1	-1	500	0.0	fixation	poldrack-single-stim	37	139130	0.0-7.15-0.15	beast_fmri_test	311	138841,/	t	<div class = centerbox2><div class = fixation>+</div></div>	none	500.0	test	n/a	n/a	n/a	n/a	n/a	n/a	n/a	n/a	n/a	n/a	n/a	n/a	n/a	n/a	n/a	n/a	n/a	n/a	fixation
74396.454758721287	2750	n/a	1079	71	2750	2016.54524128	stim	stop-signal	38	141882	0.0-7.15-1.15	beast_fmri_test	311	139520,/,140201,/,140879,/,141561,/,142240,/,142919,/,143599,/	t,t,t,t,t,t,t	<img class = center src='/static/experiments/beast_fmri_test/images/P.png'></img>	89,71	2750.0	test	<img class = center src='/static/experiments/beast_fmri_test/images/redP.png'></img>	go	2100.0	2.0	15.0	go	non-target	P	89,Middle Finger	71,Index Finger	600.0	650.0	2200.0	2100.0	1.0	n/a	650.0	1.0	go_stim
77146.454758721287	2016.5452412787215	n/a	1079	71	2750	2016.54524128	stim	stop-signal	38	141882	0.0-7.15-1.15	beast_fmri_test	311	139520,/,140201,/,140879,/,141561,/,142240,/,142919,/,143599,/	t,t,t,t,t,t,t	<img class = center src='/static/experiments/beast_fmri_test/images/P.png'></img>	89,71	2750.0	test	<img class = center src='/static/experiments/beast_fmri_test/images/redP.png'></img>	go	2100.0	2.0	15.0	go	non-target	P	89,Middle Finger	71,Index Finger	600.0	650.0	2200.0	2100.0	1.0	n/a	650.0	1.0	ITI
81689	500	n/a	-1	-1	500	0.0	fixation	poldrack-single-stim	39	144408	0.0-7.16-0.16	beast_fmri_test	311	144279,/	t	<div class = centerbox2><div class = fixation>+</div></div>	none	500.0	test	n/a	n/a	n/a	n/a	n/a	n/a	n/a	n/a	n/a	n/a	n/a	n/a	n/a	n/a	n/a	n/a	n/a	n/a	fixation
80995.428676952986	2750	n/a	1211	71	2750	696.571323047	stim	stop-signal	40	147161	0.0-7.16-1.16	beast_fmri_test	311	144957,/,145638,/,146318,/,146997,/,147678,/	t,t,t,t,t	<img class = center src='/static/experiments/beast_fmri_test/images/T.png'></img>	89,71	2750.0	test	<img class = center src='/static/experiments/beast_fmri_test/images/redT.png'></img>	go	2100.0	2.0	16.0	go	non-target	T	89,Middle Finger	71,Index Finger	600.0	650.0	2200.0	2100.0	1.0	n/a	650.0	1.0	go_stim
83745.428676952986	696.57132304701099	n/a	1211	71	2750	696.571323047	stim	stop-signal	40	147161	0.0-7.16-1.16	beast_fmri_test	311	144957,/,145638,/,146318,/,146997,/,147678,/	t,t,t,t,t	<img class = center src='/static/experiments/beast_fmri_test/images/T.png'></img>	89,71	2750.0	test	<img class = center src='/static/experiments/beast_fmri_test/images/redT.png'></img>	go	2100.0	2.0	16.0	go	non-target	T	89,Middle Finger	71,Index Finger	600.0	650.0	2200.0	2100.0	1.0	n/a	650.0	1.0	ITI
85645	500	n/a	-1	-1	500	0.0	fixation	poldrack-single-stim	41	148364	0.0-7.17-0.17	beast_fmri_test	311	148357,/	t	<div class = centerbox2><div class = fixation>+</div></div>	none	500.0	test	n/a	n/a	n/a	n/a	n/a	n/a	n/a	n/a	n/a	n/a	n/a	n/a	n/a	n/a	n/a	n/a	n/a	n/a	fixation
85508.917831273488	2750	n/a	782	71	2750	139.082168727	stim	stop-signal	42	151117	0.0-7.17-1.17	beast_fmri_test	311	149037,/,149717,/,150396,/,151076,/	t,t,t,t	<img class = center src='/static/experiments/beast_fmri_test/images/V.png'></img>	89,71	2750.0	test	<img class = center src='/static/experiments/beast_fmri_test/images/redV.png'></img>	go	2100.0	2.0	17.0	go	non-target	V	89,Middle Finger	71,Index Finger	600.0	650.0	2200.0	2100.0	1.0	n/a	650.0	1.0	go_stim
88258.917831273488	139.08216872650851	n/a	782	71	2750	139.082168727	stim	stop-signal	42	151117	0.0-7.17-1.17	beast_fmri_test	311	149037,/,149717,/,150396,/,151076,/	t,t,t,t	<img class = center src='/static/experiments/beast_fmri_test/images/V.png'></img>	89,71	2750.0	test	<img class = center src='/static/experiments/beast_fmri_test/images/redV.png'></img>	go	2100.0	2.0	17.0	go	non-target	V	89,Middle Finger	71,Index Finger	600.0	650.0	2200.0	2100.0	1.0	n/a	650.0	1.0	ITI
89048	500	n/a	-1	-1	500	0.0	fixation	poldrack-single-stim	43	151767	0.0-7.18-0.18	beast_fmri_test	311	151756,/	t	<div class = centerbox2><div class = fixation>+</div></div>	none	500.0	test	n/a	n/a	n/a	n/a	n/a	n/a	n/a	n/a	n/a	n/a	n/a	n/a	n/a	n/a	n/a	n/a	n/a	n/a	fixation
87981.551488286204	2750	n/a	1262	71	2750	1067.44851171	stim	stop-signal	44	154518	0.0-7.18-1.18	beast_fmri_test	311	152436,/,153115,/,153795,/,154475,/,155155,/	t,t,t,t,t	<img class = center src='/static/experiments/beast_fmri_test/images/D.png'></img>	89,71	2750.0	test	<img class = center src='/static/experiments/beast_fmri_test/images/redD.png'></img>	go	2100.0	2.0	18.0	go	non-target	D	89,Middle Finger	71,Index Finger	600.0	650.0	2200.0	2100.0	1.0	n/a	650.0	1.0	go_stim
90731.551488286204	1067.4485117137867	n/a	1262	71	2750	1067.44851171	stim	stop-signal	44	154518	0.0-7.18-1.18	beast_fmri_test	311	152436,/,153115,/,153795,/,154475,/,155155,/	t,t,t,t,t	<img class = center src='/static/experiments/beast_fmri_test/images/D.png'></img>	89,71	2750.0	test	<img class = center src='/static/experiments/beast_fmri_test/images/redD.png'></img>	go	2100.0	2.0	18.0	go	non-target	D	89,Middle Finger	71,Index Finger	600.0	650.0	2200.0	2100.0	1.0	n/a	650.0	1.0	ITI
93377	500	n/a	-1	-1	500	0.0	fixation	poldrack-single-stim	45	156096	0.0-7.19-0.19	beast_fmri_test	311	155834,/	t	<div class = centerbox2><div class = fixation>+</div></div>	none	500.0	test	n/a	n/a	n/a	n/a	n/a	n/a	n/a	n/a	n/a	n/a	n/a	n/a	n/a	n/a	n/a	n/a	n/a	n/a	fixation
92525.896472030756	650.0	n/a	-1	-1	2750	853.103527969	stim	stop-signal	46	158848	0.0-7.19-1.19	beast_fmri_test	311	156513,/,157194,/,157873,/,158553,/,159232,/	t,t,t,t,t	<img class = center src='/static/experiments/beast_fmri_test/images/P.png'></img>	89,71	2750.0	test	<img class = center src='/static/experiments/beast_fmri_test/images/redP.png'></img>	stop	2100.0	2.0	19.0	stop	non-target	P	89,Middle Finger	71,Index Finger	600.0	650.0	2200.0	2100.0	0.0	1.0	650.0	n/a	go_stim
94625.896472030756	2100.0	n/a	-1	-1	2750	853.103527969	stim	stop-signal	46	158848	0.0-7.19-1.19	beast_fmri_test	311	156513,/,157194,/,157873,/,158553,/,159232,/	t,t,t,t,t	<img class = center src='/static/experiments/beast_fmri_test/images/P.png'></img>	89,71	2750.0	test	<img class = center src='/static/experiments/beast_fmri_test/images/redP.png'></img>	stop	2100.0	2.0	19.0	stop	non-target	P	89,Middle Finger	71,Index Finger	600.0	650.0	2200.0	2100.0	0.0	1.0	650.0	n/a	stop_stim
95275.896472030756	853.10352796923121	n/a	-1	-1	2750	853.103527969	stim	stop-signal	46	158848	0.0-7.19-1.19	beast_fmri_test	311	156513,/,157194,/,157873,/,158553,/,159232,/	t,t,t,t,t	<img class = center src='/static/experiments/beast_fmri_test/images/P.png'></img>	89,71	2750.0	test	<img class = center src='/static/experiments/beast_fmri_test/images/redP.png'></img>	stop	2100.0	2.0	19.0	stop	non-target	P	89,Middle Finger	71,Index Finger	600.0	650.0	2200.0	2100.0	0.0	1.0	650.0	n/a	ITI
97494	500	n/a	-1	-1	500	0.0	fixation	poldrack-single-stim	47	160213	0.0-7.20-0.20	beast_fmri_test	311	159912,/	t	<div class = centerbox2><div class = fixation>+</div></div>	none	500.0	test	n/a	n/a	n/a	n/a	n/a	n/a	n/a	n/a	n/a	n/a	n/a	n/a	n/a	n/a	n/a	n/a	n/a	n/a	fixation
96857.447291869845	2750	n/a	1094	71	2750	638.55270813	stim	stop-signal	48	162965	0.0-7.20-1.20	beast_fmri_test	311	160592,/,161272,/,161951,/,162630,/,163310,/	t,t,t,t,t	<img class = center src='/static/experiments/beast_fmri_test/images/V.png'></img>	89,71	2750.0	test	<img class = center src='/static/experiments/beast_fmri_test/images/redV.png'></img>	go	2050.0	2.0	20.0	go	non-target	V	89,Middle Finger	71,Index Finger	600.0	700.0	2200.0	2050.0	1.0	n/a	700.0	1.0	go_stim
99607.447291869845	638.55270813015227	n/a	1094	71	2750	638.55270813	stim	stop-signal	48	162965	0.0-7.20-1.20	beast_fmri_test	311	160592,/,161272,/,161951,/,162630,/,163310,/	t,t,t,t,t	<img class = center src='/static/experiments/beast_fmri_test/images/V.png'></img>	89,71	2750.0	test	<img class = center src='/static/experiments/beast_fmri_test/images/redV.png'></img>	go	2050.0	2.0	20.0	go	non-target	V	89,Middle Finger	71,Index Finger	600.0	700.0	2200.0	2050.0	1.0	n/a	700.0	1.0	ITI
101395	500	n/a	-1	-1	500	0.0	fixation	poldrack-single-stim	49	164114	0.0-7.21-0.21	beast_fmri_test	311	163989,/	t	<div class = centerbox2><div class = fixation>+</div></div>	none	500.0	test	n/a	n/a	n/a	n/a	n/a	n/a	n/a	n/a	n/a	n/a	n/a	n/a	n/a	n/a	n/a	n/a	n/a	n/a	fixation
100200.38716727358	2750	n/a	1034	71	2750	1196.61283273	stim	stop-signal	50	166866	0.0-7.21-1.21	beast_fmri_test	311	164670,/,165349,/,166028,/,166709,/,167388,/	t,t,t,t,t	<img class = center src='/static/experiments/beast_fmri_test/images/T.png'></img>	89,71	2750.0	test	<img class = center src='/static/experiments/beast_fmri_test/images/redT.png'></img>	go	2050.0	2.0	21.0	go	non-target	T	89,Middle Finger	71,Index Finger	600.0	700.0	2200.0	2050.0	1.0	n/a	700.0	1.0	go_stim
102950.38716727358	1196.6128327264087	n/a	1034	71	2750	1196.61283273	stim	stop-signal	50	166866	0.0-7.21-1.21	beast_fmri_test	311	164670,/,165349,/,166028,/,166709,/,167388,/	t,t,t,t,t	<img class = center src='/static/experiments/beast_fmri_test/images/T.png'></img>	89,71	2750.0	test	<img class = center src='/static/experiments/beast_fmri_test/images/redT.png'></img>	go	2050.0	2.0	21.0	go	non-target	T	89,Middle Finger	71,Index Finger	600.0	700.0	2200.0	2050.0	1.0	n/a	700.0	1.0	ITI
105854	500	n/a	-1	-1	500	0.0	fixation	poldrack-single-stim	51	168573	0.0-7.22-0.22	beast_fmri_test	311	168071,/	t	<div class = centerbox2><div class = fixation>+</div></div>	none	500.0	test	n/a	n/a	n/a	n/a	n/a	n/a	n/a	n/a	n/a	n/a	n/a	n/a	n/a	n/a	n/a	n/a	n/a	n/a	fixation
104020.98415548695	2750	n/a	758	89	2750	1834.01584451	stim	stop-signal	52	171324	0.0-7.22-1.22	beast_fmri_test	311	168748,/,169428,/,170107,/,170786,/,171467,/,172147,/,172826,/	t,t,t,t,t,t,t	<img class = center src='/static/experiments/beast_fmri_test/images/V.png'></img>	89,71	2750.0	test	<img class = center src='/static/experiments/beast_fmri_test/images/redV.png'></img>	go	2150.0	2.0	22.0	go	target	V	89,Middle Finger	71,Index Finger	600.0	700.0	2150.0	2050.0	1.0	n/a	600.0	1.0	go_stim
106770.98415548695	1834.015844513046	n/a	758	89	2750	1834.01584451	stim	stop-signal	52	171324	0.0-7.22-1.22	beast_fmri_test	311	168748,/,169428,/,170107,/,170786,/,171467,/,172147,/,172826,/	t,t,t,t,t,t,t	<img class = center src='/static/experiments/beast_fmri_test/images/V.png'></img>	89,71	2750.0	test	<img class = center src='/static/experiments/beast_fmri_test/images/redV.png'></img>	go	2150.0	2.0	22.0	go	target	V	89,Middle Finger	71,Index Finger	600.0	700.0	2150.0	2050.0	1.0	n/a	600.0	1.0	ITI
110952	500	n/a	-1	-1	500	0.0	fixation	poldrack-single-stim	53	173671	0.0-7.23-0.23	beast_fmri_test	311	173506,/	t	<div class = centerbox2><div class = fixation>+</div></div>	none	500.0	test	n/a	n/a	n/a	n/a	n/a	n/a	n/a	n/a	n/a	n/a	n/a	n/a	n/a	n/a	n/a	n/a	n/a	n/a	fixation
110350.27743268796	600.0	n/a	779	89	2750	602.722567312	stim	stop-signal	54	176422	0.0-7.23-1.23	beast_fmri_test	311	174184,/,174865,/,175544,/,176225,/,176904,/	t,t,t,t,t	<img class = center src='/static/experiments/beast_fmri_test/images/T.png'></img>	89,71	2750.0	test	<img class = center src='/static/experiments/beast_fmri_test/images/redT.png'></img>	stop	2150.0	2.0	23.0	stop	target	T	89,Middle Finger	71,Index Finger	600.0	700.0	2150.0	2050.0	0.0	0.0	600.0	n/a	go_stim
112500.27743268796	2150.0	n/a	779	89	2750	602.722567312	stim	stop-signal	54	176422	0.0-7.23-1.23	beast_fmri_test	311	174184,/,174865,/,175544,/,176225,/,176904,/	t,t,t,t,t	<img class = center src='/static/experiments/beast_fmri_test/images/T.png'></img>	89,71	2750.0	test	<img class = center src='/static/experiments/beast_fmri_test/images/redT.png'></img>	stop	2150.0	2.0	23.0	stop	target	T	89,Middle Finger	71,Index Finger	600.0	700.0	2150.0	2050.0	0.0	0.0	600.0	n/a	stop_stim
113100.27743268796	602.72256731204868	n/a	779	89	2750	602.722567312	stim	stop-signal	54	176422	0.0-7.23-1.23	beast_fmri_test	311	174184,/,174865,/,175544,/,176225,/,176904,/	t,t,t,t,t	<img class = center src='/static/experiments/beast_fmri_test/images/T.png'></img>	89,71	2750.0	test	<img class = center src='/static/experiments/beast_fmri_test/images/redT.png'></img>	stop	2150.0	2.0	23.0	stop	target	T	89,Middle Finger	71,Index Finger	600.0	700.0	2150.0	2050.0	0.0	0.0	600.0	n/a	ITI
114817	500	n/a	-1	-1	500	0.0	fixation	poldrack-single-stim	55	177536	0.0-7.24-0.24	beast_fmri_test	311	n/a	n/a	<div class = centerbox2><div class = fixation>+</div></div>	none	500.0	test	n/a	n/a	n/a	n/a	n/a	n/a	n/a	n/a	n/a	n/a	n/a	n/a	n/a	n/a	n/a	n/a	n/a	n/a	fixation
114234.9208901393	700.0	n/a	-1	-1	2750	584.079109861	stim	stop-signal	56	180288	0.0-7.24-1.24	beast_fmri_test	311	177584,/,178266,/,178943,/,179623,/,180302,/	t,t,t,t,t	<img class = center src='/static/experiments/beast_fmri_test/images/P.png'></img>	89,71	2750.0	test	<img class = center src='/static/experiments/beast_fmri_test/images/redP.png'></img>	stop	2050.0	2.0	24.0	stop	non-target	P	89,Middle Finger	71,Index Finger	550.0	700.0	2150.0	2050.0	0.0	1.0	700.0	n/a	go_stim
116284.9208901393	2050.0	n/a	-1	-1	2750	584.079109861	stim	stop-signal	56	180288	0.0-7.24-1.24	beast_fmri_test	311	177584,/,178266,/,178943,/,179623,/,180302,/	t,t,t,t,t	<img class = center src='/static/experiments/beast_fmri_test/images/P.png'></img>	89,71	2750.0	test	<img class = center src='/static/experiments/beast_fmri_test/images/redP.png'></img>	stop	2050.0	2.0	24.0	stop	non-target	P	89,Middle Finger	71,Index Finger	550.0	700.0	2150.0	2050.0	0.0	1.0	700.0	n/a	stop_stim
116984.9208901393	584.07910986069805	n/a	-1	-1	2750	584.079109861	stim	stop-signal	56	180288	0.0-7.24-1.24	beast_fmri_test	311	177584,/,178266,/,178943,/,179623,/,180302,/	t,t,t,t,t	<img class = center src='/static/experiments/beast_fmri_test/images/P.png'></img>	89,71	2750.0	test	<img class = center src='/static/experiments/beast_fmri_test/images/redP.png'></img>	stop	2050.0	2.0	24.0	stop	non-target	P	89,Middle Finger	71,Index Finger	550.0	700.0	2150.0	2050.0	0.0	1.0	700.0	n/a	ITI
118665	500	n/a	-1	-1	500	0.0	fixation	poldrack-single-stim	57	181384	0.0-7.25-0.25	beast_fmri_test	311	180982,/	t	<div class = centerbox2><div class = fixation>+</div></div>	none	500.0	test	n/a	n/a	n/a	n/a	n/a	n/a	n/a	n/a	n/a	n/a	n/a	n/a	n/a	n/a	n/a	n/a	n/a	n/a	fixation
118584.25936596715	2750	n/a	1167	71	2750	83.7406340328	stim	stop-signal	58	184137	0.0-7.25-1.25	beast_fmri_test	311	181662,/,182342,/,183022,/,183702,/	t,t,t,t	<img class = center src='/static/experiments/beast_fmri_test/images/D.png'></img>	89,71	2750.0	test	<img class = center src='/static/experiments/beast_fmri_test/images/redD.png'></img>	go	2000.0	2.0	25.0	go	non-target	D	89,Middle Finger	71,Index Finger	550.0	750.0	2150.0	2000.0	1.0	n/a	750.0	1.0	go_stim
121334.25936596715	83.740634032842792	n/a	1167	71	2750	83.7406340328	stim	stop-signal	58	184137	0.0-7.25-1.25	beast_fmri_test	311	181662,/,182342,/,183022,/,183702,/	t,t,t,t	<img class = center src='/static/experiments/beast_fmri_test/images/D.png'></img>	89,71	2750.0	test	<img class = center src='/static/experiments/beast_fmri_test/images/redD.png'></img>	go	2000.0	2.0	25.0	go	non-target	D	89,Middle Finger	71,Index Finger	550.0	750.0	2150.0	2000.0	1.0	n/a	750.0	1.0	ITI
122014	500	n/a	-1	-1	500	0.0	fixation	poldrack-single-stim	59	184733	0.0-7.26-0.26	beast_fmri_test	311	184382,/	t	<div class = centerbox2><div class = fixation>+</div></div>	none	500.0	test	n/a	n/a	n/a	n/a	n/a	n/a	n/a	n/a	n/a	n/a	n/a	n/a	n/a	n/a	n/a	n/a	n/a	n/a	fixation
120229.74604234096	750.0	n/a	-1	-1	2750	1788.25395766	stim	stop-signal	60	187487	0.0-7.26-1.26	beast_fmri_test	311	185061,/,185741,/,186421,/,187100,/,187779,/,188460,/,189139,/	t,t,t,t,t,t,t	<img class = center src='/static/experiments/beast_fmri_test/images/T.png'></img>	89,71	2750.0	test	<img class = center src='/static/experiments/beast_fmri_test/images/redT.png'></img>	stop	2000.0	2.0	26.0	stop	non-target	T	89,Middle Finger	71,Index Finger	550.0	750.0	2150.0	2000.0	0.0	1.0	750.0	n/a	go_stim
122229.74604234096	2000.0	n/a	-1	-1	2750	1788.25395766	stim	stop-signal	60	187487	0.0-7.26-1.26	beast_fmri_test	311	185061,/,185741,/,186421,/,187100,/,187779,/,188460,/,189139,/	t,t,t,t,t,t,t	<img class = center src='/static/experiments/beast_fmri_test/images/T.png'></img>	89,71	2750.0	test	<img class = center src='/static/experiments/beast_fmri_test/images/redT.png'></img>	stop	2000.0	2.0	26.0	stop	non-target	T	89,Middle Finger	71,Index Finger	550.0	750.0	2150.0	2000.0	0.0	1.0	750.0	n/a	stop_stim
122979.74604234096	1788.2539576590414	n/a	-1	-1	2750	1788.25395766	stim	stop-signal	60	187487	0.0-7.26-1.26	beast_fmri_test	311	185061,/,185741,/,186421,/,187100,/,187779,/,188460,/,189139,/	t,t,t,t,t,t,t	<img class = center src='/static/experiments/beast_fmri_test/images/T.png'></img>	89,71	2750.0	test	<img class = center src='/static/experiments/beast_fmri_test/images/redT.png'></img>	stop	2000.0	2.0	26.0	stop	non-target	T	89,Middle Finger	71,Index Finger	550.0	750.0	2150.0	2000.0	0.0	1.0	750.0	n/a	ITI
127069	500	n/a	-1	-1	500	0.0	fixation	poldrack-single-stim	61	189788	0.0-7.27-0.27	beast_fmri_test	311	n/a	n/a	<div class = centerbox2><div class = fixation>+</div></div>	none	500.0	test	n/a	n/a	n/a	n/a	n/a	n/a	n/a	n/a	n/a	n/a	n/a	n/a	n/a	n/a	n/a	n/a	n/a	n/a	fixation
126650.39758788969	2750	n/a	1140	89	2750	419.60241211	stim	stop-signal	62	192539	0.0-7.27-1.27	beast_fmri_test	311	189818,/,190499,/,191178,/,191857,/,192537,/	t,t,t,t,t	<img class = center src='/static/experiments/beast_fmri_test/images/T.png'></img>	89,71	2750.0	test	<img class = center src='/static/experiments/beast_fmri_test/images/redT.png'></img>	go	1950.0	2.0	27.0	go	non-target	T	89,Middle Finger	71,Index Finger	550.0	800.0	2150.0	1950.0	0.0	n/a	800.0	0.0	go_stim
129400.39758788969	419.60241211029984	n/a	1140	89	2750	419.60241211	stim	stop-signal	62	192539	0.0-7.27-1.27	beast_fmri_test	311	189818,/,190499,/,191178,/,191857,/,192537,/	t,t,t,t,t	<img class = center src='/static/experiments/beast_fmri_test/images/T.png'></img>	89,71	2750.0	test	<img class = center src='/static/experiments/beast_fmri_test/images/redT.png'></img>	go	1950.0	2.0	27.0	go	non-target	T	89,Middle Finger	71,Index Finger	550.0	800.0	2150.0	1950.0	0.0	n/a	800.0	0.0	ITI
130751	500	n/a	-1	-1	500	0.0	fixation	poldrack-single-stim	63	193470	0.0-7.28-0.28	beast_fmri_test	311	193216,/	t	<div class = centerbox2><div class = fixation>+</div></div>	none	500.0	test	n/a	n/a	n/a	n/a	n/a	n/a	n/a	n/a	n/a	n/a	n/a	n/a	n/a	n/a	n/a	n/a	n/a	n/a	fixation
128496.64154896175	2750	n/a	1133	71	2750	2256.35845104	stim	stop-signal	64	196222	0.0-7.28-1.28	beast_fmri_test	311	193897,/,194577,/,195256,/,195936,/,196616,/,197295,/,197975,/	t,t,t,t,t,t,t	<img class = center src='/static/experiments/beast_fmri_test/images/V.png'></img>	89,71	2750.0	test	<img class = center src='/static/experiments/beast_fmri_test/images/redV.png'></img>	go	1950.0	2.0	28.0	go	non-target	V	89,Middle Finger	71,Index Finger	550.0	800.0	2150.0	1950.0	1.0	n/a	800.0	1.0	go_stim
131246.64154896175	2256.3584510382552	n/a	1133	71	2750	2256.35845104	stim	stop-signal	64	196222	0.0-7.28-1.28	beast_fmri_test	311	193897,/,194577,/,195256,/,195936,/,196616,/,197295,/,197975,/	t,t,t,t,t,t,t	<img class = center src='/static/experiments/beast_fmri_test/images/V.png'></img>	89,71	2750.0	test	<img class = center src='/static/experiments/beast_fmri_test/images/redV.png'></img>	go	1950.0	2.0	28.0	go	non-target	V	89,Middle Finger	71,Index Finger	550.0	800.0	2150.0	1950.0	1.0	n/a	800.0	1.0	ITI
136271	500	n/a	-1	-1	500	0.0	fixation	poldrack-single-stim	65	198990	0.0-7.29-0.29	beast_fmri_test	311	198654,/	t	<div class = centerbox2><div class = fixation>+</div></div>	none	500.0	test	n/a	n/a	n/a	n/a	n/a	n/a	n/a	n/a	n/a	n/a	n/a	n/a	n/a	n/a	n/a	n/a	n/a	n/a	fixation
134779.97500964964	550.0	n/a	-1	-1	2750	1492.02499035	stim	stop-signal	66	201741	0.0-7.29-1.29	beast_fmri_test	311	199335,/,200014,/,200694,/,201373,/,202052,/,202732,/	t,t,t,t,t,t	<img class = center src='/static/experiments/beast_fmri_test/images/T.png'></img>	89,71	2750.0	test	<img class = center src='/static/experiments/beast_fmri_test/images/redT.png'></img>	stop	2200.0	2.0	29.0	stop	target	T	89,Middle Finger	71,Index Finger	550.0	800.0	2200.0	1950.0	0.0	1.0	550.0	n/a	go_stim
136979.97500964964	2200.0	n/a	-1	-1	2750	1492.02499035	stim	stop-signal	66	201741	0.0-7.29-1.29	beast_fmri_test	311	199335,/,200014,/,200694,/,201373,/,202052,/,202732,/	t,t,t,t,t,t	<img class = center src='/static/experiments/beast_fmri_test/images/T.png'></img>	89,71	2750.0	test	<img class = center src='/static/experiments/beast_fmri_test/images/redT.png'></img>	stop	2200.0	2.0	29.0	stop	target	T	89,Middle Finger	71,Index Finger	550.0	800.0	2200.0	1950.0	0.0	1.0	550.0	n/a	stop_stim
137529.97500964964	1492.0249903503554	n/a	-1	-1	2750	1492.02499035	stim	stop-signal	66	201741	0.0-7.29-1.29	beast_fmri_test	311	199335,/,200014,/,200694,/,201373,/,202052,/,202732,/	t,t,t,t,t,t	<img class = center src='/static/experiments/beast_fmri_test/images/T.png'></img>	89,71	2750.0	test	<img class = center src='/static/experiments/beast_fmri_test/images/redT.png'></img>	stop	2200.0	2.0	29.0	stop	target	T	89,Middle Finger	71,Index Finger	550.0	800.0	2200.0	1950.0	0.0	1.0	550.0	n/a	ITI
141027	500	n/a	-1	-1	500	0.0	fixation	poldrack-single-stim	67	203746	0.0-7.30-0.30	beast_fmri_test	311	203412,/	t	<div class = centerbox2><div class = fixation>+</div></div>	none	500.0	test	n/a	n/a	n/a	n/a	n/a	n/a	n/a	n/a	n/a	n/a	n/a	n/a	n/a	n/a	n/a	n/a	n/a	n/a	fixation
139594.18798009533	2750	n/a	1278	71	2750	1434.8120199	stim	stop-signal	68	206498	0.0-7.30-1.30	beast_fmri_test	311	204092,/,204771,/,205451,/,206130,/,206811,/,207489,/	t,t,t,t,t,t	<img class = center src='/static/experiments/beast_fmri_test/images/V.png'></img>	89,71	2750.0	test	<img class = center src='/static/experiments/beast_fmri_test/images/redV.png'></img>	go	2150.0	2.0	30.0	go	target	V	89,Middle Finger	71,Index Finger	600.0	800.0	2150.0	1950.0	0.0	n/a	600.0	0.0	go_stim
142344.18798009533	1434.8120199046555	n/a	1278	71	2750	1434.8120199	stim	stop-signal	68	206498	0.0-7.30-1.30	beast_fmri_test	311	204092,/,204771,/,205451,/,206130,/,206811,/,207489,/	t,t,t,t,t,t	<img class = center src='/static/experiments/beast_fmri_test/images/V.png'></img>	89,71	2750.0	test	<img class = center src='/static/experiments/beast_fmri_test/images/redV.png'></img>	go	2150.0	2.0	30.0	go	target	V	89,Middle Finger	71,Index Finger	600.0	800.0	2150.0	1950.0	0.0	n/a	600.0	0.0	ITI
145727	500	n/a	-1	-1	500	0.0	fixation	poldrack-single-stim	69	208446	0.0-7.31-0.31	beast_fmri_test	311	208169,/	t	<div class = centerbox2><div class = fixation>+</div></div>	none	500.0	test	n/a	n/a	n/a	n/a	n/a	n/a	n/a	n/a	n/a	n/a	n/a	n/a	n/a	n/a	n/a	n/a	n/a	n/a	fixation
143740.15421942351	2750	n/a	890	71	2750	1988.84578058	stim	stop-signal	70	211198	0.0-7.31-1.31	beast_fmri_test	311	208850,/,209530,/,210209,/,210889,/,211569,/,212249,/,212929,/	t,t,t,t,t,t,t	<img class = center src='/static/experiments/beast_fmri_test/images/P.png'></img>	89,71	2750.0	test	<img class = center src='/static/experiments/beast_fmri_test/images/redP.png'></img>	go	1950.0	2.0	31.0	go	non-target	P	89,Middle Finger	71,Index Finger	600.0	800.0	2150.0	1950.0	1.0	n/a	800.0	1.0	go_stim
146490.15421942351	1988.8457805764829	n/a	890	71	2750	1988.84578058	stim	stop-signal	70	211198	0.0-7.31-1.31	beast_fmri_test	311	208850,/,209530,/,210209,/,210889,/,211569,/,212249,/,212929,/	t,t,t,t,t,t,t	<img class = center src='/static/experiments/beast_fmri_test/images/P.png'></img>	89,71	2750.0	test	<img class = center src='/static/experiments/beast_fmri_test/images/redP.png'></img>	go	1950.0	2.0	31.0	go	non-target	P	89,Middle Finger	71,Index Finger	600.0	800.0	2150.0	1950.0	1.0	n/a	800.0	1.0	ITI
150980	500	n/a	-1	-1	500	0.0	fixation	poldrack-single-stim	71	213699	0.0-7.32-0.32	beast_fmri_test	311	213608,/	t	<div class = centerbox2><div class = fixation>+</div></div>	none	500.0	test	n/a	n/a	n/a	n/a	n/a	n/a	n/a	n/a	n/a	n/a	n/a	n/a	n/a	n/a	n/a	n/a	n/a	n/a	fixation
149633.03798808201	2750	n/a	1187	89	2750	1347.96201192	stim	stop-signal	72	216450	0.0-7.32-1.32	beast_fmri_test	311	214288,/,214967,/,215647,/,216327,/,217006,/,217686,/	t,t,t,t,t,t	<img class = center src='/static/experiments/beast_fmri_test/images/V.png'></img>	89,71	2750.0	test	<img class = center src='/static/experiments/beast_fmri_test/images/redV.png'></img>	go	2150.0	2.0	32.0	go	target	V	89,Middle Finger	71,Index Finger	600.0	800.0	2150.0	1950.0	1.0	n/a	600.0	1.0	go_stim
152383.03798808201	1347.9620119179895	n/a	1187	89	2750	1347.96201192	stim	stop-signal	72	216450	0.0-7.32-1.32	beast_fmri_test	311	214288,/,214967,/,215647,/,216327,/,217006,/,217686,/	t,t,t,t,t,t	<img class = center src='/static/experiments/beast_fmri_test/images/V.png'></img>	89,71	2750.0	test	<img class = center src='/static/experiments/beast_fmri_test/images/redV.png'></img>	go	2150.0	2.0	32.0	go	target	V	89,Middle Finger	71,Index Finger	600.0	800.0	2150.0	1950.0	1.0	n/a	600.0	1.0	ITI
155593	500	n/a	-1	-1	500	0.0	fixation	poldrack-single-stim	73	218312	0.0-7.33-0.33	beast_fmri_test	311	n/a	n/a	<div class = centerbox2><div class = fixation>+</div></div>	none	500.0	test	n/a	n/a	n/a	n/a	n/a	n/a	n/a	n/a	n/a	n/a	n/a	n/a	n/a	n/a	n/a	n/a	n/a	n/a	fixation
155541.1370222402	2750	n/a	1232	71	2750	54.8629777598	stim	stop-signal	74	221065	0.0-7.33-1.33	beast_fmri_test	311	218366,/,219045,/,219725,/,220404,/,221084,/	t,t,t,t,t	<img class = center src='/static/experiments/beast_fmri_test/images/D.png'></img>	89,71	2750.0	test	<img class = center src='/static/experiments/beast_fmri_test/images/redD.png'></img>	go	1950.0	2.0	33.0	go	non-target	D	89,Middle Finger	71,Index Finger	600.0	800.0	2150.0	1950.0	1.0	n/a	800.0	1.0	go_stim
158291.1370222402	54.862977759801943	n/a	1232	71	2750	54.8629777598	stim	stop-signal	74	221065	0.0-7.33-1.33	beast_fmri_test	311	218366,/,219045,/,219725,/,220404,/,221084,/	t,t,t,t,t	<img class = center src='/static/experiments/beast_fmri_test/images/D.png'></img>	89,71	2750.0	test	<img class = center src='/static/experiments/beast_fmri_test/images/redD.png'></img>	go	1950.0	2.0	33.0	go	non-target	D	89,Middle Finger	71,Index Finger	600.0	800.0	2150.0	1950.0	1.0	n/a	800.0	1.0	ITI
158913	500	n/a	-1	-1	500	0.0	fixation	poldrack-single-stim	75	221632	0.0-7.34-0.34	beast_fmri_test	311	n/a	n/a	<div class = centerbox2><div class = fixation>+</div></div>	none	500.0	test	n/a	n/a	n/a	n/a	n/a	n/a	n/a	n/a	n/a	n/a	n/a	n/a	n/a	n/a	n/a	n/a	n/a	n/a	fixation
157778.11656134494	800.0	n/a	1020	71	2750	1136.88343866	stim	stop-signal	76	224384	0.0-7.34-1.34	beast_fmri_test	311	221763,/,222444,/,223123,/,223803,/,224482,/,225162,/	t,t,t,t,t,t	<img class = center src='/static/experiments/beast_fmri_test/images/D.png'></img>	89,71	2750.0	test	<img class = center src='/static/experiments/beast_fmri_test/images/redD.png'></img>	stop	1950.0	2.0	34.0	stop	non-target	D	89,Middle Finger	71,Index Finger	600.0	800.0	2150.0	1950.0	0.0	0.0	800.0	n/a	go_stim
159728.11656134494	1950.0	n/a	1020	71	2750	1136.88343866	stim	stop-signal	76	224384	0.0-7.34-1.34	beast_fmri_test	311	221763,/,222444,/,223123,/,223803,/,224482,/,225162,/	t,t,t,t,t,t	<img class = center src='/static/experiments/beast_fmri_test/images/D.png'></img>	89,71	2750.0	test	<img class = center src='/static/experiments/beast_fmri_test/images/redD.png'></img>	stop	1950.0	2.0	34.0	stop	non-target	D	89,Middle Finger	71,Index Finger	600.0	800.0	2150.0	1950.0	0.0	0.0	800.0	n/a	stop_stim
160528.11656134494	1136.8834386550448	n/a	1020	71	2750	1136.88343866	stim	stop-signal	76	224384	0.0-7.34-1.34	beast_fmri_test	311	221763,/,222444,/,223123,/,223803,/,224482,/,225162,/	t,t,t,t,t,t	<img class = center src='/static/experiments/beast_fmri_test/images/D.png'></img>	89,71	2750.0	test	<img class = center src='/static/experiments/beast_fmri_test/images/redD.png'></img>	stop	1950.0	2.0	34.0	stop	non-target	D	89,Middle Finger	71,Index Finger	600.0	800.0	2150.0	1950.0	0.0	0.0	800.0	n/a	ITI
163314	500	n/a	-1	-1	500	0.0	fixation	poldrack-single-stim	77	226033	0.0-7.35-0.35	beast_fmri_test	311	225842,/	t	<div class = centerbox2><div class = fixation>+</div></div>	none	500.0	test	n/a	n/a	n/a	n/a	n/a	n/a	n/a	n/a	n/a	n/a	n/a	n/a	n/a	n/a	n/a	n/a	n/a	n/a	fixation
162704.51747162387	750.0	n/a	-1	-1	2750	611.482528376	stim	stop-signal	78	228785	0.0-7.35-1.35	beast_fmri_test	311	226522,/,227202,/,227881,/,228561,/,229240,/	t,t,t,t,t	<img class = center src='/static/experiments/beast_fmri_test/images/V.png'></img>	89,71	2750.0	test	<img class = center src='/static/experiments/beast_fmri_test/images/redV.png'></img>	stop	2000.0	2.0	35.0	stop	non-target	V	89,Middle Finger	71,Index Finger	600.0	750.0	2150.0	2000.0	0.0	1.0	750.0	n/a	go_stim
164704.51747162387	2000.0	n/a	-1	-1	2750	611.482528376	stim	stop-signal	78	228785	0.0-7.35-1.35	beast_fmri_test	311	226522,/,227202,/,227881,/,228561,/,229240,/	t,t,t,t,t	<img class = center src='/static/experiments/beast_fmri_test/images/V.png'></img>	89,71	2750.0	test	<img class = center src='/static/experiments/beast_fmri_test/images/redV.png'></img>	stop	2000.0	2.0	35.0	stop	non-target	V	89,Middle Finger	71,Index Finger	600.0	750.0	2150.0	2000.0	0.0	1.0	750.0	n/a	stop_stim
165454.51747162387	611.48252837613825	n/a	-1	-1	2750	611.482528376	stim	stop-signal	78	228785	0.0-7.35-1.35	beast_fmri_test	311	226522,/,227202,/,227881,/,228561,/,229240,/	t,t,t,t,t	<img class = center src='/static/experiments/beast_fmri_test/images/V.png'></img>	89,71	2750.0	test	<img class = center src='/static/experiments/beast_fmri_test/images/redV.png'></img>	stop	2000.0	2.0	35.0	stop	non-target	V	89,Middle Finger	71,Index Finger	600.0	750.0	2150.0	2000.0	0.0	1.0	750.0	n/a	ITI
167192	500	n/a	-1	-1	500	0.0	fixation	poldrack-single-stim	79	229911	0.0-7.36-0.36	beast_fmri_test	311	n/a	n/a	<div class = centerbox2><div class = fixation>+</div></div>	none	500.0	test	n/a	n/a	n/a	n/a	n/a	n/a	n/a	n/a	n/a	n/a	n/a	n/a	n/a	n/a	n/a	n/a	n/a	n/a	fixation
165296.02291659979	2750	n/a	1267	71	2750	1895.9770834	stim	stop-signal	80	232661	0.0-7.36-1.36	beast_fmri_test	311	229919,/,230600,/,231279,/,231959,/,232638,/,233316,/,233998,/	t,t,t,t,t,t,t	<img class = center src='/static/experiments/beast_fmri_test/images/D.png'></img>	89,71	2750.0	test	<img class = center src='/static/experiments/beast_fmri_test/images/redD.png'></img>	go	2150.0	2.0	36.0	go	target	D	89,Middle Finger	71,Index Finger	600.0	800.0	2150.0	2000.0	0.0	n/a	600.0	0.0	go_stim
168046.02291659979	1895.977083400224	n/a	1267	71	2750	1895.9770834	stim	stop-signal	80	232661	0.0-7.36-1.36	beast_fmri_test	311	229919,/,230600,/,231279,/,231959,/,232638,/,233316,/,233998,/	t,t,t,t,t,t,t	<img class = center src='/static/experiments/beast_fmri_test/images/D.png'></img>	89,71	2750.0	test	<img class = center src='/static/experiments/beast_fmri_test/images/redD.png'></img>	go	2150.0	2.0	36.0	go	target	D	89,Middle Finger	71,Index Finger	600.0	800.0	2150.0	2000.0	0.0	n/a	600.0	0.0	ITI
172350	500	n/a	-1	-1	500	0.0	fixation	poldrack-single-stim	81	235069	0.0-7.37-0.37	beast_fmri_test	311	234677,/	t	<div class = centerbox2><div class = fixation>+</div></div>	none	500.0	test	n/a	n/a	n/a	n/a	n/a	n/a	n/a	n/a	n/a	n/a	n/a	n/a	n/a	n/a	n/a	n/a	n/a	n/a	fixation
172176.51237741992	2750	n/a	1710	71	2750	175.48762258	stim	stop-signal	82	237821	0.0-7.37-1.37	beast_fmri_test	311	235358,/,236037,/,236717,/,237397,/	t,t,t,t	<img class = center src='/static/experiments/beast_fmri_test/images/D.png'></img>	89,71	2750.0	test	<img class = center src='/static/experiments/beast_fmri_test/images/redD.png'></img>	go	1950.0	2.0	37.0	go	non-target	D	89,Middle Finger	71,Index Finger	600.0	800.0	2150.0	1950.0	1.0	n/a	800.0	1.0	go_stim
174926.51237741992	175.48762258009015	n/a	1710	71	2750	175.48762258	stim	stop-signal	82	237821	0.0-7.37-1.37	beast_fmri_test	311	235358,/,236037,/,236717,/,237397,/	t,t,t,t	<img class = center src='/static/experiments/beast_fmri_test/images/D.png'></img>	89,71	2750.0	test	<img class = center src='/static/experiments/beast_fmri_test/images/redD.png'></img>	go	1950.0	2.0	37.0	go	non-target	D	89,Middle Finger	71,Index Finger	600.0	800.0	2150.0	1950.0	1.0	n/a	800.0	1.0	ITI
175791	500	n/a	-1	-1	500	0.0	fixation	poldrack-single-stim	83	238510	0.0-7.38-0.38	beast_fmri_test	311	238076,/	t	<div class = centerbox2><div class = fixation>+</div></div>	none	500.0	test	n/a	n/a	n/a	n/a	n/a	n/a	n/a	n/a	n/a	n/a	n/a	n/a	n/a	n/a	n/a	n/a	n/a	n/a	fixation
173275.88630947276	800.0	n/a	856	71	2750	2516.11369053	stim	stop-signal	84	241261	0.0-7.38-1.38	beast_fmri_test	311	238756,/,239435,/,240116,/,240794,/,241475,/,242155,/,242834,/,243514,/	t,t,t,t,t,t,t,t	<img class = center src='/static/experiments/beast_fmri_test/images/T.png'></img>	89,71	2750.0	test	<img class = center src='/static/experiments/beast_fmri_test/images/redT.png'></img>	stop	1950.0	2.0	38.0	stop	non-target	T	89,Middle Finger	71,Index Finger	600.0	800.0	2150.0	1950.0	0.0	0.0	800.0	n/a	go_stim
175225.88630947276	1950.0	n/a	856	71	2750	2516.11369053	stim	stop-signal	84	241261	0.0-7.38-1.38	beast_fmri_test	311	238756,/,239435,/,240116,/,240794,/,241475,/,242155,/,242834,/,243514,/	t,t,t,t,t,t,t,t	<img class = center src='/static/experiments/beast_fmri_test/images/T.png'></img>	89,71	2750.0	test	<img class = center src='/static/experiments/beast_fmri_test/images/redT.png'></img>	stop	1950.0	2.0	38.0	stop	non-target	T	89,Middle Finger	71,Index Finger	600.0	800.0	2150.0	1950.0	0.0	0.0	800.0	n/a	stop_stim
176025.88630947276	2516.1136905272569	n/a	856	71	2750	2516.11369053	stim	stop-signal	84	241261	0.0-7.38-1.38	beast_fmri_test	311	238756,/,239435,/,240116,/,240794,/,241475,/,242155,/,242834,/,243514,/	t,t,t,t,t,t,t,t	<img class = center src='/static/experiments/beast_fmri_test/images/T.png'></img>	89,71	2750.0	test	<img class = center src='/static/experiments/beast_fmri_test/images/redT.png'></img>	stop	1950.0	2.0	38.0	stop	non-target	T	89,Middle Finger	71,Index Finger	600.0	800.0	2150.0	1950.0	0.0	0.0	800.0	n/a	ITI
181572	500	n/a	-1	-1	500	0.0	fixation	poldrack-single-stim	85	244291	0.0-7.39-0.39	beast_fmri_test	311	244194,/	t	<div class = centerbox2><div class = fixation>+</div></div>	none	500.0	test	n/a	n/a	n/a	n/a	n/a	n/a	n/a	n/a	n/a	n/a	n/a	n/a	n/a	n/a	n/a	n/a	n/a	n/a	fixation
180779.2953684309	600.0	n/a	-1	-1	2750	793.704631569	stim	stop-signal	86	247042	0.0-7.39-1.39	beast_fmri_test	311	244874,/,245554,/,246233,/,246912,/,247592,/	t,t,t,t,t	<img class = center src='/static/experiments/beast_fmri_test/images/D.png'></img>	89,71	2750.0	test	<img class = center src='/static/experiments/beast_fmri_test/images/redD.png'></img>	stop	2150.0	2.0	39.0	stop	target	D	89,Middle Finger	71,Index Finger	600.0	750.0	2150.0	1950.0	0.0	1.0	600.0	n/a	go_stim
182929.2953684309	2150.0	n/a	-1	-1	2750	793.704631569	stim	stop-signal	86	247042	0.0-7.39-1.39	beast_fmri_test	311	244874,/,245554,/,246233,/,246912,/,247592,/	t,t,t,t,t	<img class = center src='/static/experiments/beast_fmri_test/images/D.png'></img>	89,71	2750.0	test	<img class = center src='/static/experiments/beast_fmri_test/images/redD.png'></img>	stop	2150.0	2.0	39.0	stop	target	D	89,Middle Finger	71,Index Finger	600.0	750.0	2150.0	1950.0	0.0	1.0	600.0	n/a	stop_stim
183529.2953684309	793.70463156910694	n/a	-1	-1	2750	793.704631569	stim	stop-signal	86	247042	0.0-7.39-1.39	beast_fmri_test	311	244874,/,245554,/,246233,/,246912,/,247592,/	t,t,t,t,t	<img class = center src='/static/experiments/beast_fmri_test/images/D.png'></img>	89,71	2750.0	test	<img class = center src='/static/experiments/beast_fmri_test/images/redD.png'></img>	stop	2150.0	2.0	39.0	stop	target	D	89,Middle Finger	71,Index Finger	600.0	750.0	2150.0	1950.0	0.0	1.0	600.0	n/a	ITI
185631	500	n/a	-1	-1	500	0.0	fixation	poldrack-single-stim	87	248350	0.0-7.40-0.40	beast_fmri_test	311	248272,/	t	<div class = centerbox2><div class = fixation>+</div></div>	none	500.0	test	n/a	n/a	n/a	n/a	n/a	n/a	n/a	n/a	n/a	n/a	n/a	n/a	n/a	n/a	n/a	n/a	n/a	n/a	fixation
182133.70391601598	750.0	n/a	-1	-1	2750	3499.29608398	stim	stop-signal	88	251102	0.0-7.40-1.40	beast_fmri_test	311	248952,/,249632,/,250311,/,250991,/,251670,/,252349,/,253029,/,253709,/,254389,/	t,t,t,t,t,t,t,t,t	<img class = center src='/static/experiments/beast_fmri_test/images/B.png'></img>	89,71	2750.0	test	<img class = center src='/static/experiments/beast_fmri_test/images/redB.png'></img>	stop	2000.0	2.0	40.0	stop	non-target	B	89,Middle Finger	71,Index Finger	650.0	750.0	2150.0	2000.0	0.0	1.0	750.0	n/a	go_stim
184133.70391601598	2000.0	n/a	-1	-1	2750	3499.29608398	stim	stop-signal	88	251102	0.0-7.40-1.40	beast_fmri_test	311	248952,/,249632,/,250311,/,250991,/,251670,/,252349,/,253029,/,253709,/,254389,/	t,t,t,t,t,t,t,t,t	<img class = center src='/static/experiments/beast_fmri_test/images/B.png'></img>	89,71	2750.0	test	<img class = center src='/static/experiments/beast_fmri_test/images/redB.png'></img>	stop	2000.0	2.0	40.0	stop	non-target	B	89,Middle Finger	71,Index Finger	650.0	750.0	2150.0	2000.0	0.0	1.0	750.0	n/a	stop_stim
184883.70391601598	3499.2960839840098	n/a	-1	-1	2750	3499.29608398	stim	stop-signal	88	251102	0.0-7.40-1.40	beast_fmri_test	311	248952,/,249632,/,250311,/,250991,/,251670,/,252349,/,253029,/,253709,/,254389,/	t,t,t,t,t,t,t,t,t	<img class = center src='/static/experiments/beast_fmri_test/images/B.png'></img>	89,71	2750.0	test	<img class = center src='/static/experiments/beast_fmri_test/images/redB.png'></img>	stop	2000.0	2.0	40.0	stop	non-target	B	89,Middle Finger	71,Index Finger	650.0	750.0	2150.0	2000.0	0.0	1.0	750.0	n/a	ITI
192396	500	n/a	-1	-1	500	0.0	fixation	poldrack-single-stim	89	255115	0.0-7.41-0.41	beast_fmri_test	311	255068,/	t	<div class = centerbox2><div class = fixation>+</div></div>	none	500.0	test	n/a	n/a	n/a	n/a	n/a	n/a	n/a	n/a	n/a	n/a	n/a	n/a	n/a	n/a	n/a	n/a	n/a	n/a	fixation
192265.11446116513	2750	n/a	1012	89	2750	131.885538835	stim	stop-signal	90	257866	0.0-7.41-1.41	beast_fmri_test	311	255748,/,256427,/,257107,/,257786,/	t,t,t,t	<img class = center src='/static/experiments/beast_fmri_test/images/D.png'></img>	89,71	2750.0	test	<img class = center src='/static/experiments/beast_fmri_test/images/redD.png'></img>	go	2100.0	2.0	41.0	go	target	D	89,Middle Finger	71,Index Finger	650.0	800.0	2100.0	2000.0	1.0	n/a	650.0	1.0	go_stim
195015.11446116513	131.88553883488527	n/a	1012	89	2750	131.885538835	stim	stop-signal	90	257866	0.0-7.41-1.41	beast_fmri_test	311	255748,/,256427,/,257107,/,257786,/	t,t,t,t	<img class = center src='/static/experiments/beast_fmri_test/images/D.png'></img>	89,71	2750.0	test	<img class = center src='/static/experiments/beast_fmri_test/images/redD.png'></img>	go	2100.0	2.0	41.0	go	target	D	89,Middle Finger	71,Index Finger	650.0	800.0	2100.0	2000.0	1.0	n/a	650.0	1.0	ITI
195795	500	n/a	-1	-1	500	0.0	fixation	poldrack-single-stim	91	258514	0.0-7.42-0.42	beast_fmri_test	311	258466,/	t	<div class = centerbox2><div class = fixation>+</div></div>	none	500.0	test	n/a	n/a	n/a	n/a	n/a	n/a	n/a	n/a	n/a	n/a	n/a	n/a	n/a	n/a	n/a	n/a	n/a	n/a	fixation
193669.11242843885	2750	n/a	1212	89	2750	2126.88757156	stim	stop-signal	92	261265	0.0-7.42-1.42	beast_fmri_test	311	259145,/,259826,/,260506,/,261185,/,261865,/,262544,/,263224,/	t,t,t,t,t,t,t	<img class = center src='/static/experiments/beast_fmri_test/images/B.png'></img>	89,71	2750.0	test	<img class = center src='/static/experiments/beast_fmri_test/images/redB.png'></img>	go	2100.0	2.0	42.0	go	target	B	89,Middle Finger	71,Index Finger	650.0	800.0	2100.0	2000.0	1.0	n/a	650.0	1.0	go_stim
196419.11242843885	2126.8875715611643	n/a	1212	89	2750	2126.88757156	stim	stop-signal	92	261265	0.0-7.42-1.42	beast_fmri_test	311	259145,/,259826,/,260506,/,261185,/,261865,/,262544,/,263224,/	t,t,t,t,t,t,t	<img class = center src='/static/experiments/beast_fmri_test/images/B.png'></img>	89,71	2750.0	test	<img class = center src='/static/experiments/beast_fmri_test/images/redB.png'></img>	go	2100.0	2.0	42.0	go	target	B	89,Middle Finger	71,Index Finger	650.0	800.0	2100.0	2000.0	1.0	n/a	650.0	1.0	ITI
201186	500	n/a	-1	-1	500	0.0	fixation	poldrack-single-stim	93	263905	0.0-7.43-0.43	beast_fmri_test	311	263904,/	t	<div class = centerbox2><div class = fixation>+</div></div>	none	500.0	test	n/a	n/a	n/a	n/a	n/a	n/a	n/a	n/a	n/a	n/a	n/a	n/a	n/a	n/a	n/a	n/a	n/a	n/a	fixation
200221.44442044711	2750	n/a	889	71	2750	966.555579553	stim	stop-signal	94	266657	0.0-7.43-1.43	beast_fmri_test	311	264584,/,265265,/,265944,/,266623,/,267303,/	t,t,t,t,t	<img class = center src='/static/experiments/beast_fmri_test/images/V.png'></img>	89,71	2750.0	test	<img class = center src='/static/experiments/beast_fmri_test/images/redV.png'></img>	go	1950.0	2.0	43.0	go	non-target	V	89,Middle Finger	71,Index Finger	650.0	800.0	2100.0	1950.0	1.0	n/a	800.0	1.0	go_stim
202971.44442044711	966.55557955291965	n/a	889	71	2750	966.555579553	stim	stop-signal	94	266657	0.0-7.43-1.43	beast_fmri_test	311	264584,/,265265,/,265944,/,266623,/,267303,/	t,t,t,t,t	<img class = center src='/static/experiments/beast_fmri_test/images/V.png'></img>	89,71	2750.0	test	<img class = center src='/static/experiments/beast_fmri_test/images/redV.png'></img>	go	1950.0	2.0	43.0	go	non-target	V	89,Middle Finger	71,Index Finger	650.0	800.0	2100.0	1950.0	1.0	n/a	800.0	1.0	ITI
205416	500	n/a	-1	-1	500	0.0	fixation	poldrack-single-stim	95	268135	0.0-7.44-0.44	beast_fmri_test	311	267983,/	t	<div class = centerbox2><div class = fixation>+</div></div>	none	500.0	test	n/a	n/a	n/a	n/a	n/a	n/a	n/a	n/a	n/a	n/a	n/a	n/a	n/a	n/a	n/a	n/a	n/a	n/a	fixation
204424.99340962368	2750	n/a	1174	71	2750	993.006590376	stim	stop-signal	96	270887	0.0-7.44-1.44	beast_fmri_test	311	268664,/,269343,/,270022,/,270701,/,271381,/	t,t,t,t,t	<img class = center src='/static/experiments/beast_fmri_test/images/V.png'></img>	89,71	2750.0	test	<img class = center src='/static/experiments/beast_fmri_test/images/redV.png'></img>	go	1950.0	2.0	44.0	go	non-target	V	89,Middle Finger	71,Index Finger	650.0	800.0	2100.0	1950.0	1.0	n/a	800.0	1.0	go_stim
207174.99340962368	993.00659037630339	n/a	1174	71	2750	993.006590376	stim	stop-signal	96	270887	0.0-7.44-1.44	beast_fmri_test	311	268664,/,269343,/,270022,/,270701,/,271381,/	t,t,t,t,t	<img class = center src='/static/experiments/beast_fmri_test/images/V.png'></img>	89,71	2750.0	test	<img class = center src='/static/experiments/beast_fmri_test/images/redV.png'></img>	go	1950.0	2.0	44.0	go	non-target	V	89,Middle Finger	71,Index Finger	650.0	800.0	2100.0	1950.0	1.0	n/a	800.0	1.0	ITI
209677	500	n/a	-1	-1	500	0.0	fixation	poldrack-single-stim	97	272396	0.0-7.45-0.45	beast_fmri_test	311	272059,/	t	<div class = centerbox2><div class = fixation>+</div></div>	none	500.0	test	n/a	n/a	n/a	n/a	n/a	n/a	n/a	n/a	n/a	n/a	n/a	n/a	n/a	n/a	n/a	n/a	n/a	n/a	fixation
207887.41761510988	2750	n/a	1206	71	2750	1792.58238489	stim	stop-signal	98	275149	0.0-7.45-1.45	beast_fmri_test	311	272741,/,273420,/,274100,/,274778,/,275458,/,276138,/,276818,/	t,t,t,t,t,t,t	<img class = center src='/static/experiments/beast_fmri_test/images/B.png'></img>	89,71	2750.0	test	<img class = center src='/static/experiments/beast_fmri_test/images/redB.png'></img>	go	1950.0	2.0	45.0	go	non-target	B	89,Middle Finger	71,Index Finger	650.0	800.0	2100.0	1950.0	1.0	n/a	800.0	1.0	go_stim
210637.41761510988	1792.5823848901409	n/a	1206	71	2750	1792.58238489	stim	stop-signal	98	275149	0.0-7.45-1.45	beast_fmri_test	311	272741,/,273420,/,274100,/,274778,/,275458,/,276138,/,276818,/	t,t,t,t,t,t,t	<img class = center src='/static/experiments/beast_fmri_test/images/B.png'></img>	89,71	2750.0	test	<img class = center src='/static/experiments/beast_fmri_test/images/redB.png'></img>	go	1950.0	2.0	45.0	go	non-target	B	89,Middle Finger	71,Index Finger	650.0	800.0	2100.0	1950.0	1.0	n/a	800.0	1.0	ITI
214734	500	n/a	-1	-1	500	0.0	fixation	poldrack-single-stim	99	277453	0.0-7.46-0.46	beast_fmri_test	311	n/a	n/a	<div class = centerbox2><div class = fixation>+</div></div>	none	500.0	test	n/a	n/a	n/a	n/a	n/a	n/a	n/a	n/a	n/a	n/a	n/a	n/a	n/a	n/a	n/a	n/a	n/a	n/a	fixation
213938.79039449821	2750	n/a	1304	89	2750	797.209605502	stim	stop-signal	100	280205	0.0-7.46-1.46	beast_fmri_test	311	277497,/,278178,/,278858,/,279537,/,280215,/,280896,/	t,t,t,t,t,t	<img class = center src='/static/experiments/beast_fmri_test/images/V.png'></img>	89,71	2750.0	test	<img class = center src='/static/experiments/beast_fmri_test/images/redV.png'></img>	go	2100.0	2.0	46.0	go	target	V	89,Middle Finger	71,Index Finger	650.0	800.0	2100.0	1950.0	1.0	n/a	650.0	1.0	go_stim
216688.79039449821	797.20960550181303	n/a	1304	89	2750	797.209605502	stim	stop-signal	100	280205	0.0-7.46-1.46	beast_fmri_test	311	277497,/,278178,/,278858,/,279537,/,280215,/,280896,/	t,t,t,t,t,t	<img class = center src='/static/experiments/beast_fmri_test/images/V.png'></img>	89,71	2750.0	test	<img class = center src='/static/experiments/beast_fmri_test/images/redV.png'></img>	go	2100.0	2.0	46.0	go	target	V	89,Middle Finger	71,Index Finger	650.0	800.0	2100.0	1950.0	1.0	n/a	650.0	1.0	ITI
233293	15000	n/a	-1	-1	15000	0.0	practice-no-stop-feedback	poldrack-single-stim	101	296012	0.0-8.0	beast_fmri_test	311	281576,/,282256,/,282935,/,283616,/,284295,/,284975,/,285654,/,286334,/,287014,/,287693,/,288373,/,289052,/,289732,/,290411,/,291091,/,291771,/,292451,/,293131,/,293810,/,294491,/,295170,/,295850,/	t,t,t,t,t,t,t,t,t,t,t,t,t,t,t,t,t,t,t,t,t,t	"<div class = ""centerbox""><p class = ""block-text"">Your delay is 2 trials.</p><p class = block-text>Please wait for the scanner to start the block</p></div>"	77	15000.0	n/a	n/a	n/a	n/a	n/a	n/a	n/a	n/a	n/a	n/a	n/a	n/a	n/a	n/a	n/a	n/a	n/a	n/a	n/a	practice-no-stop-feedback
233797	500	n/a	-1	-1	500	0.0	fixation	poldrack-single-stim	102	296516	0.0-9.0-0.0	beast_fmri_test	311	n/a	n/a	<div class = centerbox2><div class = fixation>+</div></div>	none	500.0	test	n/a	n/a	n/a	n/a	n/a	n/a	n/a	n/a	n/a	n/a	n/a	n/a	n/a	n/a	n/a	n/a	n/a	n/a	fixation
233395.56908835436	temp_go_duration	n/a	887	71	2750	403.430911646	stim	stop-signal	103	299268	0.0-9.0-1.0	beast_fmri_test	311	296534,/,297210,/,297889,/,298569,/,299248,/	t,t,t,t,t	<img class = center src='/static/experiments/beast_fmri_test/images/B.png'></img>	89,71	2750.0	test	<img class = center src='/static/experiments/beast_fmri_test/images/redB.png'></img>	stop	-1.0	2.0	0.0	stop	temp-non-target	B	89,Middle Finger	71,Index Finger	650.0	800.0	2100.0	1950.0	0.0	0.0	n/a	n/a	go_stim
temp-non-target	temp_stop_duration	n/a	887	71	2750	403.430911646	stim	stop-signal	103	299268	0.0-9.0-1.0	beast_fmri_test	311	296534,/,297210,/,297889,/,298569,/,299248,/	t,t,t,t,t	<img class = center src='/static/experiments/beast_fmri_test/images/B.png'></img>	89,71	2750.0	test	<img class = center src='/static/experiments/beast_fmri_test/images/redB.png'></img>	stop	-1.0	2.0	0.0	stop	temp-non-target	B	89,Middle Finger	71,Index Finger	650.0	800.0	2100.0	1950.0	0.0	0.0	n/a	n/a	stop_stim
236145.56908835436	403.43091164561616	n/a	887	71	2750	403.430911646	stim	stop-signal	103	299268	0.0-9.0-1.0	beast_fmri_test	311	296534,/,297210,/,297889,/,298569,/,299248,/	t,t,t,t,t	<img class = center src='/static/experiments/beast_fmri_test/images/B.png'></img>	89,71	2750.0	test	<img class = center src='/static/experiments/beast_fmri_test/images/redB.png'></img>	stop	-1.0	2.0	0.0	stop	temp-non-target	B	89,Middle Finger	71,Index Finger	650.0	800.0	2100.0	1950.0	0.0	0.0	n/a	n/a	ITI
237467	500	n/a	-1	-1	500	0.0	fixation	poldrack-single-stim	104	300186	0.0-9.1-0.1	beast_fmri_test	311	299928,/	t	<div class = centerbox2><div class = fixation>+</div></div>	none	500.0	test	n/a	n/a	n/a	n/a	n/a	n/a	n/a	n/a	n/a	n/a	n/a	n/a	n/a	n/a	n/a	n/a	n/a	n/a	fixation
234796.70399512345	2750	n/a	861	71	2750	2671.29600488	stim	stop-signal	105	302937	0.0-9.1-1.1	beast_fmri_test	311	300607,/,301287,/,301967,/,302646,/,303325,/,304005,/,304684,/,305365,/	t,t,t,t,t,t,t,t	<img class = center src='/static/experiments/beast_fmri_test/images/B.png'></img>	89,71	2750.0	test	<img class = center src='/static/experiments/beast_fmri_test/images/redB.png'></img>	go	-1.0	2.0	1.0	go	temp-non-target	B	89,Middle Finger	71,Index Finger	650.0	800.0	2100.0	1950.0	0.0	n/a	n/a	n/a	go_stim
237546.70399512345	2671.2960048765658	n/a	861	71	2750	2671.29600488	stim	stop-signal	105	302937	0.0-9.1-1.1	beast_fmri_test	311	300607,/,301287,/,301967,/,302646,/,303325,/,304005,/,304684,/,305365,/	t,t,t,t,t,t,t,t	<img class = center src='/static/experiments/beast_fmri_test/images/B.png'></img>	89,71	2750.0	test	<img class = center src='/static/experiments/beast_fmri_test/images/redB.png'></img>	go	-1.0	2.0	1.0	go	temp-non-target	B	89,Middle Finger	71,Index Finger	650.0	800.0	2100.0	1950.0	0.0	n/a	n/a	n/a	ITI
243405	500	n/a	-1	-1	500	0.0	fixation	poldrack-single-stim	106	306124	0.0-9.2-0.2	beast_fmri_test	311	306044,/	t	<div class = centerbox2><div class = fixation>+</div></div>	none	500.0	test	n/a	n/a	n/a	n/a	n/a	n/a	n/a	n/a	n/a	n/a	n/a	n/a	n/a	n/a	n/a	n/a	n/a	n/a	fixation
243350.0586204257	2750	n/a	966	71	2750	56.9413795743	stim	stop-signal	107	308876	0.0-9.2-1.2	beast_fmri_test	311	306723,/,307404,/,308084,/,308763,/	t,t,t,t	<img class = center src='/static/experiments/beast_fmri_test/images/T.png'></img>	89,71	2750.0	test	<img class = center src='/static/experiments/beast_fmri_test/images/redT.png'></img>	go	1950.0	2.0	2.0	go	non-target	T	89,Middle Finger	71,Index Finger	650.0	800.0	2100.0	1950.0	1.0	n/a	800.0	1.0	go_stim
246100.0586204257	56.94137957427494	n/a	966	71	2750	56.9413795743	stim	stop-signal	107	308876	0.0-9.2-1.2	beast_fmri_test	311	306723,/,307404,/,308084,/,308763,/	t,t,t,t	<img class = center src='/static/experiments/beast_fmri_test/images/T.png'></img>	89,71	2750.0	test	<img class = center src='/static/experiments/beast_fmri_test/images/redT.png'></img>	go	1950.0	2.0	2.0	go	non-target	T	89,Middle Finger	71,Index Finger	650.0	800.0	2100.0	1950.0	1.0	n/a	800.0	1.0	ITI
246728	500	n/a	-1	-1	500	0.0	fixation	poldrack-single-stim	108	309447	0.0-9.3-0.3	beast_fmri_test	311	309443,/	t	<div class = centerbox2><div class = fixation>+</div></div>	none	500.0	test	n/a	n/a	n/a	n/a	n/a	n/a	n/a	n/a	n/a	n/a	n/a	n/a	n/a	n/a	n/a	n/a	n/a	n/a	fixation
245633.89830681996	800.0	n/a	912	71	2750	1095.10169318	stim	stop-signal	109	312198	0.0-9.3-1.3	beast_fmri_test	311	310123,/,310802,/,311482,/,312162,/,312840,/	t,t,t,t,t	<img class = center src='/static/experiments/beast_fmri_test/images/P.png'></img>	89,71	2750.0	test	<img class = center src='/static/experiments/beast_fmri_test/images/redP.png'></img>	stop	1950.0	2.0	3.0	stop	non-target	P	89,Middle Finger	71,Index Finger	650.0	800.0	2100.0	1950.0	0.0	0.0	800.0	n/a	go_stim
247583.89830681996	1950.0	n/a	912	71	2750	1095.10169318	stim	stop-signal	109	312198	0.0-9.3-1.3	beast_fmri_test	311	310123,/,310802,/,311482,/,312162,/,312840,/	t,t,t,t,t	<img class = center src='/static/experiments/beast_fmri_test/images/P.png'></img>	89,71	2750.0	test	<img class = center src='/static/experiments/beast_fmri_test/images/redP.png'></img>	stop	1950.0	2.0	3.0	stop	non-target	P	89,Middle Finger	71,Index Finger	650.0	800.0	2100.0	1950.0	0.0	0.0	800.0	n/a	stop_stim
248383.89830681996	1095.1016931800118	n/a	912	71	2750	1095.10169318	stim	stop-signal	109	312198	0.0-9.3-1.3	beast_fmri_test	311	310123,/,310802,/,311482,/,312162,/,312840,/	t,t,t,t,t	<img class = center src='/static/experiments/beast_fmri_test/images/P.png'></img>	89,71	2750.0	test	<img class = center src='/static/experiments/beast_fmri_test/images/redP.png'></img>	stop	1950.0	2.0	3.0	stop	non-target	P	89,Middle Finger	71,Index Finger	650.0	800.0	2100.0	1950.0	0.0	0.0	800.0	n/a	ITI
251091	500	n/a	-1	-1	500	0.0	fixation	poldrack-single-stim	110	313810	0.0-9.4-0.4	beast_fmri_test	311	313521,/	t	<div class = centerbox2><div class = fixation>+</div></div>	none	500.0	test	n/a	n/a	n/a	n/a	n/a	n/a	n/a	n/a	n/a	n/a	n/a	n/a	n/a	n/a	n/a	n/a	n/a	n/a	fixation
251023.25329073478	2750	n/a	1272	71	2750	70.7467092652	stim	stop-signal	111	316563	0.0-9.4-1.4	beast_fmri_test	311	314201,/,314879,/,315559,/,316239,/	t,t,t,t	<img class = center src='/static/experiments/beast_fmri_test/images/P.png'></img>	89,71	2750.0	test	<img class = center src='/static/experiments/beast_fmri_test/images/redP.png'></img>	go	2000.0	2.0	4.0	go	non-target	P	89,Middle Finger	71,Index Finger	650.0	750.0	2100.0	2000.0	1.0	n/a	750.0	1.0	go_stim
253773.25329073478	70.746709265202014	n/a	1272	71	2750	70.7467092652	stim	stop-signal	111	316563	0.0-9.4-1.4	beast_fmri_test	311	314201,/,314879,/,315559,/,316239,/	t,t,t,t	<img class = center src='/static/experiments/beast_fmri_test/images/P.png'></img>	89,71	2750.0	test	<img class = center src='/static/experiments/beast_fmri_test/images/redP.png'></img>	go	2000.0	2.0	4.0	go	non-target	P	89,Middle Finger	71,Index Finger	650.0	750.0	2100.0	2000.0	1.0	n/a	750.0	1.0	ITI
254430	500	n/a	-1	-1	500	0.0	fixation	poldrack-single-stim	112	317149	0.0-9.5-0.5	beast_fmri_test	311	316920,/	t	<div class = centerbox2><div class = fixation>+</div></div>	none	500.0	test	n/a	n/a	n/a	n/a	n/a	n/a	n/a	n/a	n/a	n/a	n/a	n/a	n/a	n/a	n/a	n/a	n/a	n/a	fixation
254242.90419427061	750.0	n/a	-1	-1	2750	189.095805729	stim	stop-signal	113	319901	0.0-9.5-1.5	beast_fmri_test	311	317599,/,318278,/,318958,/,319638,/	t,t,t,t	<img class = center src='/static/experiments/beast_fmri_test/images/B.png'></img>	89,71	2750.0	test	<img class = center src='/static/experiments/beast_fmri_test/images/redB.png'></img>	stop	2000.0	2.0	5.0	stop	non-target	B	89,Middle Finger	71,Index Finger	650.0	750.0	2100.0	2000.0	0.0	1.0	750.0	n/a	go_stim
256242.90419427061	2000.0	n/a	-1	-1	2750	189.095805729	stim	stop-signal	113	319901	0.0-9.5-1.5	beast_fmri_test	311	317599,/,318278,/,318958,/,319638,/	t,t,t,t	<img class = center src='/static/experiments/beast_fmri_test/images/B.png'></img>	89,71	2750.0	test	<img class = center src='/static/experiments/beast_fmri_test/images/redB.png'></img>	stop	2000.0	2.0	5.0	stop	non-target	B	89,Middle Finger	71,Index Finger	650.0	750.0	2100.0	2000.0	0.0	1.0	750.0	n/a	stop_stim
256992.90419427061	189.09580572938145	n/a	-1	-1	2750	189.095805729	stim	stop-signal	113	319901	0.0-9.5-1.5	beast_fmri_test	311	317599,/,318278,/,318958,/,319638,/	t,t,t,t	<img class = center src='/static/experiments/beast_fmri_test/images/B.png'></img>	89,71	2750.0	test	<img class = center src='/static/experiments/beast_fmri_test/images/redB.png'></img>	stop	2000.0	2.0	5.0	stop	non-target	B	89,Middle Finger	71,Index Finger	650.0	750.0	2100.0	2000.0	0.0	1.0	750.0	n/a	ITI
257890	500	n/a	-1	-1	500	0.0	fixation	poldrack-single-stim	114	320609	0.0-9.6-0.6	beast_fmri_test	311	320318,/	t	<div class = centerbox2><div class = fixation>+</div></div>	none	500.0	test	n/a	n/a	n/a	n/a	n/a	n/a	n/a	n/a	n/a	n/a	n/a	n/a	n/a	n/a	n/a	n/a	n/a	n/a	fixation
257167.33772529877	2750	n/a	1041	89	2750	724.662274701	stim	stop-signal	115	323361	0.0-9.6-1.6	beast_fmri_test	311	320998,/,321677,/,322357,/,323036,/,323717,/	t,t,t,t,t	<img class = center src='/static/experiments/beast_fmri_test/images/P.png'></img>	89,71	2750.0	test	<img class = center src='/static/experiments/beast_fmri_test/images/redP.png'></img>	go	2100.0	2.0	6.0	go	target	P	89,Middle Finger	71,Index Finger	650.0	800.0	2100.0	2000.0	1.0	n/a	650.0	1.0	go_stim
259917.33772529877	724.66227470120793	n/a	1041	89	2750	724.662274701	stim	stop-signal	115	323361	0.0-9.6-1.6	beast_fmri_test	311	320998,/,321677,/,322357,/,323036,/,323717,/	t,t,t,t,t	<img class = center src='/static/experiments/beast_fmri_test/images/P.png'></img>	89,71	2750.0	test	<img class = center src='/static/experiments/beast_fmri_test/images/redP.png'></img>	go	2100.0	2.0	6.0	go	target	P	89,Middle Finger	71,Index Finger	650.0	800.0	2100.0	2000.0	1.0	n/a	650.0	1.0	ITI
261883	500	n/a	-1	-1	500	0.0	fixation	poldrack-single-stim	116	324602	0.0-9.7-0.7	beast_fmri_test	311	324397,/	t	<div class = centerbox2><div class = fixation>+</div></div>	none	500.0	test	n/a	n/a	n/a	n/a	n/a	n/a	n/a	n/a	n/a	n/a	n/a	n/a	n/a	n/a	n/a	n/a	n/a	n/a	fixation
257505.48133906181	2750	n/a	1227	89	2750	4379.51866094	stim	stop-signal	117	327354	0.0-9.7-1.7	beast_fmri_test	311	325077,/,325755,/,326436,/,327115,/,327795,/,328475,/,329155,/,329834,/,330513,/,331193,/	t,t,t,t,t,t,t,t,t,t	<img class = center src='/static/experiments/beast_fmri_test/images/V.png'></img>	89,71	2750.0	test	<img class = center src='/static/experiments/beast_fmri_test/images/redV.png'></img>	go	1950.0	2.0	7.0	go	non-target	V	89,Middle Finger	71,Index Finger	650.0	800.0	2100.0	1950.0	0.0	n/a	800.0	0.0	go_stim
260255.48133906181	4379.518660938179	n/a	1227	89	2750	4379.51866094	stim	stop-signal	117	327354	0.0-9.7-1.7	beast_fmri_test	311	325077,/,325755,/,326436,/,327115,/,327795,/,328475,/,329155,/,329834,/,330513,/,331193,/	t,t,t,t,t,t,t,t,t,t	<img class = center src='/static/experiments/beast_fmri_test/images/V.png'></img>	89,71	2750.0	test	<img class = center src='/static/experiments/beast_fmri_test/images/redV.png'></img>	go	1950.0	2.0	7.0	go	non-target	V	89,Middle Finger	71,Index Finger	650.0	800.0	2100.0	1950.0	0.0	n/a	800.0	0.0	ITI
269531	500	n/a	-1	-1	500	0.0	fixation	poldrack-single-stim	118	332250	0.0-9.8-0.8	beast_fmri_test	311	331873,/	t	<div class = centerbox2><div class = fixation>+</div></div>	none	500.0	test	n/a	n/a	n/a	n/a	n/a	n/a	n/a	n/a	n/a	n/a	n/a	n/a	n/a	n/a	n/a	n/a	n/a	n/a	fixation
268841.01758218691	2750	n/a	974	71	2750	690.982417813	stim	stop-signal	119	335001	0.0-9.8-1.8	beast_fmri_test	311	332553,/,333231,/,333912,/,334591,/,335271,/	t,t,t,t,t	<img class = center src='/static/experiments/beast_fmri_test/images/T.png'></img>	89,71	2750.0	test	<img class = center src='/static/experiments/beast_fmri_test/images/redT.png'></img>	go	1950.0	2.0	8.0	go	non-target	T	89,Middle Finger	71,Index Finger	650.0	800.0	2100.0	1950.0	1.0	n/a	800.0	1.0	go_stim
271591.01758218691	690.98241781309798	n/a	974	71	2750	690.982417813	stim	stop-signal	119	335001	0.0-9.8-1.8	beast_fmri_test	311	332553,/,333231,/,333912,/,334591,/,335271,/	t,t,t,t,t	<img class = center src='/static/experiments/beast_fmri_test/images/T.png'></img>	89,71	2750.0	test	<img class = center src='/static/experiments/beast_fmri_test/images/redT.png'></img>	go	1950.0	2.0	8.0	go	non-target	T	89,Middle Finger	71,Index Finger	650.0	800.0	2100.0	1950.0	1.0	n/a	800.0	1.0	ITI
273490	500	n/a	-1	-1	500	0.0	fixation	poldrack-single-stim	120	336209	0.0-9.9-0.9	beast_fmri_test	311	335951,/	t	<div class = centerbox2><div class = fixation>+</div></div>	none	500.0	test	n/a	n/a	n/a	n/a	n/a	n/a	n/a	n/a	n/a	n/a	n/a	n/a	n/a	n/a	n/a	n/a	n/a	n/a	fixation
270678.19417789642	2750	n/a	990	71	2750	2813.8058221	stim	stop-signal	121	338961	0.0-9.9-1.9	beast_fmri_test	311	336631,/,337310,/,337990,/,338668,/,339349,/,340029,/,340708,/,341389,/	t,t,t,t,t,t,t,t	<img class = center src='/static/experiments/beast_fmri_test/images/T.png'></img>	89,71	2750.0	test	<img class = center src='/static/experiments/beast_fmri_test/images/redT.png'></img>	go	1950.0	2.0	9.0	go	non-target	T	89,Middle Finger	71,Index Finger	650.0	800.0	2100.0	1950.0	1.0	n/a	800.0	1.0	go_stim
273428.19417789642	2813.8058221035963	n/a	990	71	2750	2813.8058221	stim	stop-signal	121	338961	0.0-9.9-1.9	beast_fmri_test	311	336631,/,337310,/,337990,/,338668,/,339349,/,340029,/,340708,/,341389,/	t,t,t,t,t,t,t,t	<img class = center src='/static/experiments/beast_fmri_test/images/T.png'></img>	89,71	2750.0	test	<img class = center src='/static/experiments/beast_fmri_test/images/redT.png'></img>	go	1950.0	2.0	9.0	go	non-target	T	89,Middle Finger	71,Index Finger	650.0	800.0	2100.0	1950.0	1.0	n/a	800.0	1.0	ITI
279572	500	n/a	-1	-1	500	0.0	fixation	poldrack-single-stim	122	342291	0.0-9.10-0.10	beast_fmri_test	311	342068,/	t	<div class = centerbox2><div class = fixation>+</div></div>	none	500.0	test	n/a	n/a	n/a	n/a	n/a	n/a	n/a	n/a	n/a	n/a	n/a	n/a	n/a	n/a	n/a	n/a	n/a	n/a	fixation
278807.19524469652	2750	n/a	861	71	2750	766.804755303	stim	stop-signal	123	345043	0.0-9.10-1.10	beast_fmri_test	311	342747,/,343428,/,344107,/,344786,/,345466,/	t,t,t,t,t	<img class = center src='/static/experiments/beast_fmri_test/images/V.png'></img>	89,71	2750.0	test	<img class = center src='/static/experiments/beast_fmri_test/images/redV.png'></img>	go	1950.0	2.0	10.0	go	non-target	V	89,Middle Finger	71,Index Finger	650.0	800.0	2100.0	1950.0	1.0	n/a	800.0	1.0	go_stim
281557.19524469652	766.80475530349872	n/a	861	71	2750	766.804755303	stim	stop-signal	123	345043	0.0-9.10-1.10	beast_fmri_test	311	342747,/,343428,/,344107,/,344786,/,345466,/	t,t,t,t,t	<img class = center src='/static/experiments/beast_fmri_test/images/V.png'></img>	89,71	2750.0	test	<img class = center src='/static/experiments/beast_fmri_test/images/redV.png'></img>	go	1950.0	2.0	10.0	go	non-target	V	89,Middle Finger	71,Index Finger	650.0	800.0	2100.0	1950.0	1.0	n/a	800.0	1.0	ITI
283608	500	n/a	-1	-1	500	0.0	fixation	poldrack-single-stim	124	346327	0.0-9.11-0.11	beast_fmri_test	311	346146,/	t	<div class = centerbox2><div class = fixation>+</div></div>	none	500.0	test	n/a	n/a	n/a	n/a	n/a	n/a	n/a	n/a	n/a	n/a	n/a	n/a	n/a	n/a	n/a	n/a	n/a	n/a	fixation
283202.65203112719	800.0	n/a	-1	-1	2750	407.347968873	stim	stop-signal	125	349079	0.0-9.11-1.11	beast_fmri_test	311	346825,/,347505,/,348185,/,348865,/	t,t,t,t	<img class = center src='/static/experiments/beast_fmri_test/images/D.png'></img>	89,71	2750.0	test	<img class = center src='/static/experiments/beast_fmri_test/images/redD.png'></img>	stop	1950.0	2.0	11.0	stop	non-target	D	89,Middle Finger	71,Index Finger	650.0	800.0	2100.0	1950.0	0.0	1.0	800.0	n/a	go_stim
285152.65203112719	1950.0	n/a	-1	-1	2750	407.347968873	stim	stop-signal	125	349079	0.0-9.11-1.11	beast_fmri_test	311	346825,/,347505,/,348185,/,348865,/	t,t,t,t	<img class = center src='/static/experiments/beast_fmri_test/images/D.png'></img>	89,71	2750.0	test	<img class = center src='/static/experiments/beast_fmri_test/images/redD.png'></img>	stop	1950.0	2.0	11.0	stop	non-target	D	89,Middle Finger	71,Index Finger	650.0	800.0	2100.0	1950.0	0.0	1.0	800.0	n/a	stop_stim
285952.65203112719	407.34796887283812	n/a	-1	-1	2750	407.347968873	stim	stop-signal	125	349079	0.0-9.11-1.11	beast_fmri_test	311	346825,/,347505,/,348185,/,348865,/	t,t,t,t	<img class = center src='/static/experiments/beast_fmri_test/images/D.png'></img>	89,71	2750.0	test	<img class = center src='/static/experiments/beast_fmri_test/images/redD.png'></img>	stop	1950.0	2.0	11.0	stop	non-target	D	89,Middle Finger	71,Index Finger	650.0	800.0	2100.0	1950.0	0.0	1.0	800.0	n/a	ITI
287286	500	n/a	-1	-1	500	0.0	fixation	poldrack-single-stim	126	350005	0.0-9.12-0.12	beast_fmri_test	311	349545,/	t	<div class = centerbox2><div class = fixation>+</div></div>	none	500.0	test	n/a	n/a	n/a	n/a	n/a	n/a	n/a	n/a	n/a	n/a	n/a	n/a	n/a	n/a	n/a	n/a	n/a	n/a	fixation
285491.78924720595	2750	n/a	1123	71	2750	1795.21075279	stim	stop-signal	127	352756	0.0-9.12-1.12	beast_fmri_test	311	350225,/,350903,/,351583,/,352264,/,352943,/,353624,/,354303,/	t,t,t,t,t,t,t	<img class = center src='/static/experiments/beast_fmri_test/images/D.png'></img>	89,71	2750.0	test	<img class = center src='/static/experiments/beast_fmri_test/images/redD.png'></img>	go	1900.0	2.0	12.0	go	non-target	D	89,Middle Finger	71,Index Finger	650.0	850.0	2100.0	1900.0	1.0	n/a	850.0	1.0	go_stim
288241.78924720595	1795.2107527940423	n/a	1123	71	2750	1795.21075279	stim	stop-signal	127	352756	0.0-9.12-1.12	beast_fmri_test	311	350225,/,350903,/,351583,/,352264,/,352943,/,353624,/,354303,/	t,t,t,t,t,t,t	<img class = center src='/static/experiments/beast_fmri_test/images/D.png'></img>	89,71	2750.0	test	<img class = center src='/static/experiments/beast_fmri_test/images/redD.png'></img>	go	1900.0	2.0	12.0	go	non-target	D	89,Middle Finger	71,Index Finger	650.0	850.0	2100.0	1900.0	1.0	n/a	850.0	1.0	ITI
292352	500	n/a	-1	-1	500	0.0	fixation	poldrack-single-stim	128	355071	0.0-9.13-0.13	beast_fmri_test	311	354983,/	t	<div class = centerbox2><div class = fixation>+</div></div>	none	500.0	test	n/a	n/a	n/a	n/a	n/a	n/a	n/a	n/a	n/a	n/a	n/a	n/a	n/a	n/a	n/a	n/a	n/a	n/a	fixation
292256.88358902972	2750	n/a	1067	71	2750	97.1164109703	stim	stop-signal	129	357823	0.0-9.13-1.13	beast_fmri_test	311	355662,/,356342,/,357022,/,357701,/	t,t,t,t	<img class = center src='/static/experiments/beast_fmri_test/images/T.png'></img>	89,71	2750.0	test	<img class = center src='/static/experiments/beast_fmri_test/images/redT.png'></img>	go	1900.0	2.0	13.0	go	non-target	T	89,Middle Finger	71,Index Finger	650.0	850.0	2100.0	1900.0	1.0	n/a	850.0	1.0	go_stim
295006.88358902972	97.116410970297437	n/a	1067	71	2750	97.1164109703	stim	stop-signal	129	357823	0.0-9.13-1.13	beast_fmri_test	311	355662,/,356342,/,357022,/,357701,/	t,t,t,t	<img class = center src='/static/experiments/beast_fmri_test/images/T.png'></img>	89,71	2750.0	test	<img class = center src='/static/experiments/beast_fmri_test/images/redT.png'></img>	go	1900.0	2.0	13.0	go	non-target	T	89,Middle Finger	71,Index Finger	650.0	850.0	2100.0	1900.0	1.0	n/a	850.0	1.0	ITI
295723	500	n/a	-1	-1	500	0.0	fixation	poldrack-single-stim	130	358442	0.0-9.14-0.14	beast_fmri_test	311	358382,/	t	<div class = centerbox2><div class = fixation>+</div></div>	none	500.0	test	n/a	n/a	n/a	n/a	n/a	n/a	n/a	n/a	n/a	n/a	n/a	n/a	n/a	n/a	n/a	n/a	n/a	n/a	fixation
295353.53706250776	2750	n/a	1295	71	2750	371.462937492	stim	stop-signal	131	361194	0.0-9.14-1.14	beast_fmri_test	311	359061,/,359741,/,360419,/,361099,/	t,t,t,t	<img class = center src='/static/experiments/beast_fmri_test/images/V.png'></img>	89,71	2750.0	test	<img class = center src='/static/experiments/beast_fmri_test/images/redV.png'></img>	go	1900.0	2.0	14.0	go	non-target	V	89,Middle Finger	71,Index Finger	650.0	850.0	2100.0	1900.0	1.0	n/a	850.0	1.0	go_stim
298103.53706250776	371.46293749222212	n/a	1295	71	2750	371.462937492	stim	stop-signal	131	361194	0.0-9.14-1.14	beast_fmri_test	311	359061,/,359741,/,360419,/,361099,/	t,t,t,t	<img class = center src='/static/experiments/beast_fmri_test/images/V.png'></img>	89,71	2750.0	test	<img class = center src='/static/experiments/beast_fmri_test/images/redV.png'></img>	go	1900.0	2.0	14.0	go	non-target	V	89,Middle Finger	71,Index Finger	650.0	850.0	2100.0	1900.0	1.0	n/a	850.0	1.0	ITI
299367	500	n/a	-1	-1	500	0.0	fixation	poldrack-single-stim	132	362086	0.0-9.15-0.15	beast_fmri_test	311	361779,/	t	<div class = centerbox2><div class = fixation>+</div></div>	none	500.0	test	n/a	n/a	n/a	n/a	n/a	n/a	n/a	n/a	n/a	n/a	n/a	n/a	n/a	n/a	n/a	n/a	n/a	n/a	fixation
298896.11282646208	2750	n/a	1250	71	2750	475.887173538	stim	stop-signal	133	364841	0.0-9.15-1.15	beast_fmri_test	311	362459,/,363139,/,363818,/,364498,/,365177,/	t,t,t,t,t	<img class = center src='/static/experiments/beast_fmri_test/images/B.png'></img>	89,71	2750.0	test	<img class = center src='/static/experiments/beast_fmri_test/images/redB.png'></img>	go	1900.0	2.0	15.0	go	non-target	B	89,Middle Finger	71,Index Finger	650.0	850.0	2100.0	1900.0	1.0	n/a	850.0	1.0	go_stim
301646.11282646208	475.88717353791765	n/a	1250	71	2750	475.887173538	stim	stop-signal	133	364841	0.0-9.15-1.15	beast_fmri_test	311	362459,/,363139,/,363818,/,364498,/,365177,/	t,t,t,t,t	<img class = center src='/static/experiments/beast_fmri_test/images/B.png'></img>	89,71	2750.0	test	<img class = center src='/static/experiments/beast_fmri_test/images/redB.png'></img>	go	1900.0	2.0	15.0	go	non-target	B	89,Middle Finger	71,Index Finger	650.0	850.0	2100.0	1900.0	1.0	n/a	850.0	1.0	ITI
303121	500	n/a	-1	-1	500	0.0	fixation	poldrack-single-stim	134	365840	0.0-9.16-0.16	beast_fmri_test	311	n/a	n/a	<div class = centerbox2><div class = fixation>+</div></div>	none	500.0	test	n/a	n/a	n/a	n/a	n/a	n/a	n/a	n/a	n/a	n/a	n/a	n/a	n/a	n/a	n/a	n/a	n/a	n/a	fixation
302639.33529043576	2750	n/a	1081	89	2750	483.664709564	stim	stop-signal	135	368592	0.0-9.16-1.16	beast_fmri_test	311	365857,/,366537,/,367215,/,367896,/,368575,/	t,t,t,t,t	<img class = center src='/static/experiments/beast_fmri_test/images/V.png'></img>	89,71	2750.0	test	<img class = center src='/static/experiments/beast_fmri_test/images/redV.png'></img>	go	2100.0	2.0	16.0	go	target	V	89,Middle Finger	71,Index Finger	650.0	850.0	2100.0	1900.0	1.0	n/a	650.0	1.0	go_stim
305389.33529043576	483.66470956423439	n/a	1081	89	2750	483.664709564	stim	stop-signal	135	368592	0.0-9.16-1.16	beast_fmri_test	311	365857,/,366537,/,367215,/,367896,/,368575,/	t,t,t,t,t	<img class = center src='/static/experiments/beast_fmri_test/images/V.png'></img>	89,71	2750.0	test	<img class = center src='/static/experiments/beast_fmri_test/images/redV.png'></img>	go	2100.0	2.0	16.0	go	target	V	89,Middle Finger	71,Index Finger	650.0	850.0	2100.0	1900.0	1.0	n/a	650.0	1.0	ITI
306878	500	n/a	-1	-1	500	0.0	fixation	poldrack-single-stim	136	369597	0.0-9.17-0.17	beast_fmri_test	311	369256,/	t	<div class = centerbox2><div class = fixation>+</div></div>	none	500.0	test	n/a	n/a	n/a	n/a	n/a	n/a	n/a	n/a	n/a	n/a	n/a	n/a	n/a	n/a	n/a	n/a	n/a	n/a	fixation
306869.56822410593	2750	n/a	844	71	2750	11.4317758941	stim	stop-signal	137	372350	0.0-9.17-1.17	beast_fmri_test	311	369935,/,370615,/,371294,/,371974,/	t,t,t,t	<img class = center src='/static/experiments/beast_fmri_test/images/T.png'></img>	89,71	2750.0	test	<img class = center src='/static/experiments/beast_fmri_test/images/redT.png'></img>	go	1900.0	2.0	17.0	go	non-target	T	89,Middle Finger	71,Index Finger	650.0	850.0	2100.0	1900.0	1.0	n/a	850.0	1.0	go_stim
309619.56822410593	11.431775894102991	n/a	844	71	2750	11.4317758941	stim	stop-signal	137	372350	0.0-9.17-1.17	beast_fmri_test	311	369935,/,370615,/,371294,/,371974,/	t,t,t,t	<img class = center src='/static/experiments/beast_fmri_test/images/T.png'></img>	89,71	2750.0	test	<img class = center src='/static/experiments/beast_fmri_test/images/redT.png'></img>	go	1900.0	2.0	17.0	go	non-target	T	89,Middle Finger	71,Index Finger	650.0	850.0	2100.0	1900.0	1.0	n/a	850.0	1.0	ITI
310160	500	n/a	-1	-1	500	0.0	fixation	poldrack-single-stim	138	372879	0.0-9.18-0.18	beast_fmri_test	311	372654,/	t	<div class = centerbox2><div class = fixation>+</div></div>	none	500.0	test	n/a	n/a	n/a	n/a	n/a	n/a	n/a	n/a	n/a	n/a	n/a	n/a	n/a	n/a	n/a	n/a	n/a	n/a	fixation
308963.77824232465	2750	n/a	1449	71	2750	1198.22175768	stim	stop-signal	139	375631	0.0-9.18-1.18	beast_fmri_test	311	373333,/,374013,/,374691,/,375372,/,376051,/,376732,/	t,t,t,t,t,t	<img class = center src='/static/experiments/beast_fmri_test/images/V.png'></img>	89,71	2750.0	test	<img class = center src='/static/experiments/beast_fmri_test/images/redV.png'></img>	go	2100.0	2.0	18.0	go	target	V	89,Middle Finger	71,Index Finger	650.0	850.0	2100.0	1900.0	0.0	n/a	650.0	0.0	go_stim
311713.77824232465	1198.2217576753246	n/a	1449	71	2750	1198.22175768	stim	stop-signal	139	375631	0.0-9.18-1.18	beast_fmri_test	311	373333,/,374013,/,374691,/,375372,/,376051,/,376732,/	t,t,t,t,t,t	<img class = center src='/static/experiments/beast_fmri_test/images/V.png'></img>	89,71	2750.0	test	<img class = center src='/static/experiments/beast_fmri_test/images/redV.png'></img>	go	2100.0	2.0	18.0	go	target	V	89,Middle Finger	71,Index Finger	650.0	850.0	2100.0	1900.0	0.0	n/a	650.0	0.0	ITI
314631	500	n/a	-1	-1	500	0.0	fixation	poldrack-single-stim	140	377350	0.0-9.19-0.19	beast_fmri_test	311	n/a	n/a	<div class = centerbox2><div class = fixation>+</div></div>	none	500.0	test	n/a	n/a	n/a	n/a	n/a	n/a	n/a	n/a	n/a	n/a	n/a	n/a	n/a	n/a	n/a	n/a	n/a	n/a	fixation
313753.82606495009	2750	n/a	1713	71	2750	879.17393505	stim	stop-signal	141	380102	0.0-9.19-1.19	beast_fmri_test	311	377412,/,378091,/,378771,/,379451,/,380129,/,380811,/	t,t,t,t,t,t	<img class = center src='/static/experiments/beast_fmri_test/images/T.png'></img>	89,71	2750.0	test	<img class = center src='/static/experiments/beast_fmri_test/images/redT.png'></img>	go	2100.0	2.0	19.0	go	target	T	89,Middle Finger	71,Index Finger	650.0	850.0	2100.0	1900.0	0.0	n/a	650.0	0.0	go_stim
316503.82606495009	879.17393504990719	n/a	1713	71	2750	879.17393505	stim	stop-signal	141	380102	0.0-9.19-1.19	beast_fmri_test	311	377412,/,378091,/,378771,/,379451,/,380129,/,380811,/	t,t,t,t,t,t	<img class = center src='/static/experiments/beast_fmri_test/images/T.png'></img>	89,71	2750.0	test	<img class = center src='/static/experiments/beast_fmri_test/images/redT.png'></img>	go	2100.0	2.0	19.0	go	target	T	89,Middle Finger	71,Index Finger	650.0	850.0	2100.0	1900.0	0.0	n/a	650.0	0.0	ITI
318783	500	n/a	-1	-1	500	0.0	fixation	poldrack-single-stim	142	381502	0.0-9.20-0.20	beast_fmri_test	311	381490,/	t	<div class = centerbox2><div class = fixation>+</div></div>	none	500.0	test	n/a	n/a	n/a	n/a	n/a	n/a	n/a	n/a	n/a	n/a	n/a	n/a	n/a	n/a	n/a	n/a	n/a	n/a	fixation
318295.42995957227	2750	n/a	885	89	2750	489.570040428	stim	stop-signal	143	384254	0.0-9.20-1.20	beast_fmri_test	311	382170,/,382849,/,383529,/,384209,/	t,t,t,t	<img class = center src='/static/experiments/beast_fmri_test/images/V.png'></img>	89,71	2750.0	test	<img class = center src='/static/experiments/beast_fmri_test/images/redV.png'></img>	go	2100.0	2.0	20.0	go	target	V	89,Middle Finger	71,Index Finger	650.0	850.0	2100.0	1900.0	1.0	n/a	650.0	1.0	go_stim
321045.42995957227	489.57004042774287	n/a	885	89	2750	489.570040428	stim	stop-signal	143	384254	0.0-9.20-1.20	beast_fmri_test	311	382170,/,382849,/,383529,/,384209,/	t,t,t,t	<img class = center src='/static/experiments/beast_fmri_test/images/V.png'></img>	89,71	2750.0	test	<img class = center src='/static/experiments/beast_fmri_test/images/redV.png'></img>	go	2100.0	2.0	20.0	go	target	V	89,Middle Finger	71,Index Finger	650.0	850.0	2100.0	1900.0	1.0	n/a	650.0	1.0	ITI
322546	500	n/a	-1	-1	500	0.0	fixation	poldrack-single-stim	144	385265	0.0-9.21-0.21	beast_fmri_test	311	384888,/	t	<div class = centerbox2><div class = fixation>+</div></div>	none	500.0	test	n/a	n/a	n/a	n/a	n/a	n/a	n/a	n/a	n/a	n/a	n/a	n/a	n/a	n/a	n/a	n/a	n/a	n/a	fixation
322525.45144471404	850.0	n/a	-1	-1	2750	23.548555286	stim	stop-signal	145	388018	0.0-9.21-1.21	beast_fmri_test	311	385569,/,386248,/,386928,/,387607,/	t,t,t,t	<img class = center src='/static/experiments/beast_fmri_test/images/V.png'></img>	89,71	2750.0	test	<img class = center src='/static/experiments/beast_fmri_test/images/redV.png'></img>	stop	1900.0	2.0	21.0	stop	non-target	V	89,Middle Finger	71,Index Finger	650.0	850.0	2100.0	1900.0	0.0	1.0	850.0	n/a	go_stim
324425.45144471404	1900.0	n/a	-1	-1	2750	23.548555286	stim	stop-signal	145	388018	0.0-9.21-1.21	beast_fmri_test	311	385569,/,386248,/,386928,/,387607,/	t,t,t,t	<img class = center src='/static/experiments/beast_fmri_test/images/V.png'></img>	89,71	2750.0	test	<img class = center src='/static/experiments/beast_fmri_test/images/redV.png'></img>	stop	1900.0	2.0	21.0	stop	non-target	V	89,Middle Finger	71,Index Finger	650.0	850.0	2100.0	1900.0	0.0	1.0	850.0	n/a	stop_stim
325275.45144471404	23.54855528598948	n/a	-1	-1	2750	23.548555286	stim	stop-signal	145	388018	0.0-9.21-1.21	beast_fmri_test	311	385569,/,386248,/,386928,/,387607,/	t,t,t,t	<img class = center src='/static/experiments/beast_fmri_test/images/V.png'></img>	89,71	2750.0	test	<img class = center src='/static/experiments/beast_fmri_test/images/redV.png'></img>	stop	1900.0	2.0	21.0	stop	non-target	V	89,Middle Finger	71,Index Finger	650.0	850.0	2100.0	1900.0	0.0	1.0	850.0	n/a	ITI
325842	500	n/a	-1	-1	500	0.0	fixation	poldrack-single-stim	146	388561	0.0-9.22-0.22	beast_fmri_test	311	388286,/	t	<div class = centerbox2><div class = fixation>+</div></div>	none	500.0	test	n/a	n/a	n/a	n/a	n/a	n/a	n/a	n/a	n/a	n/a	n/a	n/a	n/a	n/a	n/a	n/a	n/a	n/a	fixation
325509.32523753395	2750	n/a	1007	71	2750	333.674762466	stim	stop-signal	147	391312	0.0-9.22-1.22	beast_fmri_test	311	388966,/,389646,/,390326,/,391006,/	t,t,t,t	<img class = center src='/static/experiments/beast_fmri_test/images/B.png'></img>	89,71	2750.0	test	<img class = center src='/static/experiments/beast_fmri_test/images/redB.png'></img>	go	1850.0	2.0	22.0	go	non-target	B	89,Middle Finger	71,Index Finger	650.0	900.0	2100.0	1850.0	1.0	n/a	900.0	1.0	go_stim
328259.32523753395	333.67476246606969	n/a	1007	71	2750	333.674762466	stim	stop-signal	147	391312	0.0-9.22-1.22	beast_fmri_test	311	388966,/,389646,/,390326,/,391006,/	t,t,t,t	<img class = center src='/static/experiments/beast_fmri_test/images/B.png'></img>	89,71	2750.0	test	<img class = center src='/static/experiments/beast_fmri_test/images/redB.png'></img>	go	1850.0	2.0	22.0	go	non-target	B	89,Middle Finger	71,Index Finger	650.0	900.0	2100.0	1850.0	1.0	n/a	900.0	1.0	ITI
329448	500	n/a	-1	-1	500	0.0	fixation	poldrack-single-stim	148	392167	0.0-9.23-0.23	beast_fmri_test	311	391686,/	t	<div class = centerbox2><div class = fixation>+</div></div>	none	500.0	test	n/a	n/a	n/a	n/a	n/a	n/a	n/a	n/a	n/a	n/a	n/a	n/a	n/a	n/a	n/a	n/a	n/a	n/a	fixation
328892.59710404108	2750	n/a	866	89	2750	556.402895959	stim	stop-signal	149	394918	0.0-9.23-1.23	beast_fmri_test	311	392365,/,393043,/,393724,/,394403,/,395084,/	t,t,t,t,t	<img class = center src='/static/experiments/beast_fmri_test/images/V.png'></img>	89,71	2750.0	test	<img class = center src='/static/experiments/beast_fmri_test/images/redV.png'></img>	go	2100.0	2.0	23.0	go	target	V	89,Middle Finger	71,Index Finger	650.0	900.0	2100.0	1850.0	1.0	n/a	650.0	1.0	go_stim
331642.59710404108	556.40289595893864	n/a	866	89	2750	556.402895959	stim	stop-signal	149	394918	0.0-9.23-1.23	beast_fmri_test	311	392365,/,393043,/,393724,/,394403,/,395084,/	t,t,t,t,t	<img class = center src='/static/experiments/beast_fmri_test/images/V.png'></img>	89,71	2750.0	test	<img class = center src='/static/experiments/beast_fmri_test/images/redV.png'></img>	go	2100.0	2.0	23.0	go	target	V	89,Middle Finger	71,Index Finger	650.0	900.0	2100.0	1850.0	1.0	n/a	650.0	1.0	ITI
