onset	duration	text	rt	key_press	block_duration	timing_post_trial	trial_id	trial_type	trial_index	time_elapsed	internal_node_id	exp_id	subject_id	trigger_times	triggers	stimulus	possible_responses	stim_duration	exp_stage	SS_stimulus	SS_trial_type	SS_duration	load	trial_num	stop_trial_type	adaptive_trial_type	stim	yes_response_key	no_response_key	SSD_target	SSD_non_target	SSTarget	SSNonTarget	go_acc	stop_acc	SS_delay	adaptive_acc	new_trial_type
test	10880	n/a	-1	-1	10880	0.0	practice-no-stop-feedback	poldrack-single-stim	580	1641081	0.0-24.0	beast_fmri_test	311	1630204,/,1630883,/,1631562,/,1632242,/,1632921,/,1633601,/,1634281,/,1634961,/,1635641,/,1636320,/,1637000,/,1637679,/,1638359,/,1639038,/,1639718,/,1640398,/,1641077,/	t,t,t,t,t,t,t,t,t,t,t,t,t,t,t,t,t	"<div class = ""centerbox""><p class = ""block-text"">Your delay is 2 trials.</p><p class = block-text>Please wait for the scanner to start the block</p></div>"	77	10880.0	n/a	n/a	n/a	n/a	n/a	n/a	n/a	n/a	n/a	n/a	n/a	n/a	n/a	n/a	n/a	n/a	n/a	n/a	n/a	start_functional_block
11380	500	n/a	-1	-1	500	0.0	fixation	poldrack-single-stim	581	1641584	0.0-25.0-0.0	beast_fmri_test	311	n/a	n/a	<div class = centerbox2><div class = fixation>+</div></div>	none	500.0	test	n/a	n/a	n/a	n/a	n/a	n/a	n/a	n/a	n/a	n/a	n/a	n/a	n/a	n/a	n/a	n/a	n/a	n/a	fixation
11025.417600721354	2750	n/a	1306	71	2750	357.582399279	stim	stop-signal	582	1644337	0.0-25.0-1.0	beast_fmri_test	311	1641758,/,1642437,/,1643116,/,1643797,/,1644476,/	t,t,t,t,t	<img class = center src='/static/experiments/beast_fmri_test/images/B.png'></img>	89,71	2750.0	test	<img class = center src='/static/experiments/beast_fmri_test/images/redB.png'></img>	go	-1.0	2.0	0.0	go	temp-non-target	B	89,Middle Finger	71,Index Finger	1200.0	1000.0	1600.0	1700.0	0.0	n/a	n/a	n/a	go_stim
13775.417600721354	357.5823992786618	n/a	1306	71	2750	357.582399279	stim	stop-signal	582	1644337	0.0-25.0-1.0	beast_fmri_test	311	1641758,/,1642437,/,1643116,/,1643797,/,1644476,/	t,t,t,t,t	<img class = center src='/static/experiments/beast_fmri_test/images/B.png'></img>	89,71	2750.0	test	<img class = center src='/static/experiments/beast_fmri_test/images/redB.png'></img>	go	-1.0	2.0	0.0	go	temp-non-target	B	89,Middle Finger	71,Index Finger	1200.0	1000.0	1600.0	1700.0	0.0	n/a	n/a	n/a	ITI
15051	500	n/a	-1	-1	500	0.0	fixation	poldrack-single-stim	583	1645255	0.0-25.1-0.1	beast_fmri_test	311	1645156,/	t	<div class = centerbox2><div class = fixation>+</div></div>	none	500.0	test	n/a	n/a	n/a	n/a	n/a	n/a	n/a	n/a	n/a	n/a	n/a	n/a	n/a	n/a	n/a	n/a	n/a	n/a	fixation
14880.563656594139	2750	n/a	911	89	2750	172.436343406	stim	stop-signal	584	1648007	0.0-25.1-1.1	beast_fmri_test	311	1645835,/,1646515,/,1647194,/,1647875,/	t,t,t,t	<img class = center src='/static/experiments/beast_fmri_test/images/B.png'></img>	89,71	2750.0	test	<img class = center src='/static/experiments/beast_fmri_test/images/redB.png'></img>	go	-1.0	2.0	1.0	go	temp-non-target	B	89,Middle Finger	71,Index Finger	1200.0	1000.0	1600.0	1700.0	0.0	n/a	n/a	n/a	go_stim
17630.563656594139	172.43634340587914	n/a	911	89	2750	172.436343406	stim	stop-signal	584	1648007	0.0-25.1-1.1	beast_fmri_test	311	1645835,/,1646515,/,1647194,/,1647875,/	t,t,t,t	<img class = center src='/static/experiments/beast_fmri_test/images/B.png'></img>	89,71	2750.0	test	<img class = center src='/static/experiments/beast_fmri_test/images/redB.png'></img>	go	-1.0	2.0	1.0	go	temp-non-target	B	89,Middle Finger	71,Index Finger	1200.0	1000.0	1600.0	1700.0	0.0	n/a	n/a	n/a	ITI
18540	500	n/a	-1	-1	500	0.0	fixation	poldrack-single-stim	585	1648744	0.0-25.2-0.2	beast_fmri_test	311	1648554,/	t	<div class = centerbox2><div class = fixation>+</div></div>	none	500.0	test	n/a	n/a	n/a	n/a	n/a	n/a	n/a	n/a	n/a	n/a	n/a	n/a	n/a	n/a	n/a	n/a	n/a	n/a	fixation
18025.846207545372	2750	n/a	825	71	2750	516.153792455	stim	stop-signal	586	1651496	0.0-25.2-1.2	beast_fmri_test	311	1649233,/,1649913,/,1650593,/,1651273,/,1651953,/	t,t,t,t,t	<img class = center src='/static/experiments/beast_fmri_test/images/P.png'></img>	89,71	2750.0	test	<img class = center src='/static/experiments/beast_fmri_test/images/redP.png'></img>	go	1750.0	2.0	2.0	go	non-target	P	89,Middle Finger	71,Index Finger	1200.0	1000.0	1600.0	1750.0	1.0	n/a	1000.0	1.0	go_stim
20775.846207545372	516.15379245453789	n/a	825	71	2750	516.153792455	stim	stop-signal	586	1651496	0.0-25.2-1.2	beast_fmri_test	311	1649233,/,1649913,/,1650593,/,1651273,/,1651953,/	t,t,t,t,t	<img class = center src='/static/experiments/beast_fmri_test/images/P.png'></img>	89,71	2750.0	test	<img class = center src='/static/experiments/beast_fmri_test/images/redP.png'></img>	go	1750.0	2.0	2.0	go	non-target	P	89,Middle Finger	71,Index Finger	1200.0	1000.0	1600.0	1750.0	1.0	n/a	1000.0	1.0	ITI
22370	500	n/a	-1	-1	500	0.0	fixation	poldrack-single-stim	587	1652574	0.0-25.3-0.3	beast_fmri_test	311	n/a	n/a	<div class = centerbox2><div class = fixation>+</div></div>	none	500.0	test	n/a	n/a	n/a	n/a	n/a	n/a	n/a	n/a	n/a	n/a	n/a	n/a	n/a	n/a	n/a	n/a	n/a	n/a	fixation
21405.989887414966	2750	n/a	786	89	2750	966.010112585	stim	stop-signal	588	1655326	0.0-25.3-1.3	beast_fmri_test	311	1652633,/,1653312,/,1653991,/,1654671,/,1655350,/,1656030,/	t,t,t,t,t,t	<img class = center src='/static/experiments/beast_fmri_test/images/B.png'></img>	89,71	2750.0	test	<img class = center src='/static/experiments/beast_fmri_test/images/redB.png'></img>	go	1550.0	2.0	3.0	go	target	B	89,Middle Finger	71,Index Finger	1200.0	1000.0	1550.0	1750.0	1.0	n/a	1200.0	1.0	go_stim
24155.989887414966	966.01011258501796	n/a	786	89	2750	966.010112585	stim	stop-signal	588	1655326	0.0-25.3-1.3	beast_fmri_test	311	1652633,/,1653312,/,1653991,/,1654671,/,1655350,/,1656030,/	t,t,t,t,t,t	<img class = center src='/static/experiments/beast_fmri_test/images/B.png'></img>	89,71	2750.0	test	<img class = center src='/static/experiments/beast_fmri_test/images/redB.png'></img>	go	1550.0	2.0	3.0	go	target	B	89,Middle Finger	71,Index Finger	1200.0	1000.0	1550.0	1750.0	1.0	n/a	1200.0	1.0	ITI
26660	500	n/a	-1	-1	500	0.0	fixation	poldrack-single-stim	589	1656864	0.0-25.4-0.4	beast_fmri_test	311	1656712,/	t	<div class = centerbox2><div class = fixation>+</div></div>	none	500.0	test	n/a	n/a	n/a	n/a	n/a	n/a	n/a	n/a	n/a	n/a	n/a	n/a	n/a	n/a	n/a	n/a	n/a	n/a	fixation
26176.022768769413	2750	n/a	1290	71	2750	485.977231231	stim	stop-signal	590	1659616	0.0-25.4-1.4	beast_fmri_test	311	1657389,/,1658070,/,1658751,/,1659429,/	t,t,t,t	<img class = center src='/static/experiments/beast_fmri_test/images/V.png'></img>	89,71	2750.0	test	<img class = center src='/static/experiments/beast_fmri_test/images/redV.png'></img>	go	1750.0	2.0	4.0	go	non-target	V	89,Middle Finger	71,Index Finger	1200.0	1000.0	1550.0	1750.0	1.0	n/a	1000.0	1.0	go_stim
28926.022768769413	485.97723123050309	n/a	1290	71	2750	485.977231231	stim	stop-signal	590	1659616	0.0-25.4-1.4	beast_fmri_test	311	1657389,/,1658070,/,1658751,/,1659429,/	t,t,t,t	<img class = center src='/static/experiments/beast_fmri_test/images/V.png'></img>	89,71	2750.0	test	<img class = center src='/static/experiments/beast_fmri_test/images/redV.png'></img>	go	1750.0	2.0	4.0	go	non-target	V	89,Middle Finger	71,Index Finger	1200.0	1000.0	1550.0	1750.0	1.0	n/a	1000.0	1.0	ITI
30459	500	n/a	-1	-1	500	0.0	fixation	poldrack-single-stim	591	1660663	0.0-25.5-0.5	beast_fmri_test	311	1660161,/	t	<div class = centerbox2><div class = fixation>+</div></div>	none	500.0	test	n/a	n/a	n/a	n/a	n/a	n/a	n/a	n/a	n/a	n/a	n/a	n/a	n/a	n/a	n/a	n/a	n/a	n/a	fixation
30320.854239727138	1000.0	n/a	902	71	2750	140.145760273	stim	stop-signal	592	1663415	0.0-25.5-1.5	beast_fmri_test	311	1660789,/,1661468,/,1662148,/,1662828,/,1663508,/	t,t,t,t,t	<img class = center src='/static/experiments/beast_fmri_test/images/T.png'></img>	89,71	2750.0	test	<img class = center src='/static/experiments/beast_fmri_test/images/redT.png'></img>	stop	1750.0	2.0	5.0	stop	non-target	T	89,Middle Finger	71,Index Finger	1200.0	1000.0	1550.0	1750.0	0.0	0.0	1000.0	n/a	go_stim
32070.854239727138	1750.0	n/a	902	71	2750	140.145760273	stim	stop-signal	592	1663415	0.0-25.5-1.5	beast_fmri_test	311	1660789,/,1661468,/,1662148,/,1662828,/,1663508,/	t,t,t,t,t	<img class = center src='/static/experiments/beast_fmri_test/images/T.png'></img>	89,71	2750.0	test	<img class = center src='/static/experiments/beast_fmri_test/images/redT.png'></img>	stop	1750.0	2.0	5.0	stop	non-target	T	89,Middle Finger	71,Index Finger	1200.0	1000.0	1550.0	1750.0	0.0	0.0	1000.0	n/a	stop_stim
33070.854239727138	140.14576027294552	n/a	902	71	2750	140.145760273	stim	stop-signal	592	1663415	0.0-25.5-1.5	beast_fmri_test	311	1660789,/,1661468,/,1662148,/,1662828,/,1663508,/	t,t,t,t,t	<img class = center src='/static/experiments/beast_fmri_test/images/T.png'></img>	89,71	2750.0	test	<img class = center src='/static/experiments/beast_fmri_test/images/redT.png'></img>	stop	1750.0	2.0	5.0	stop	non-target	T	89,Middle Finger	71,Index Finger	1200.0	1000.0	1550.0	1750.0	0.0	0.0	1000.0	n/a	ITI
33918	500	n/a	-1	-1	500	0.0	fixation	poldrack-single-stim	593	1664122	0.0-25.6-0.6	beast_fmri_test	311	n/a	n/a	<div class = centerbox2><div class = fixation>+</div></div>	none	500.0	test	n/a	n/a	n/a	n/a	n/a	n/a	n/a	n/a	n/a	n/a	n/a	n/a	n/a	n/a	n/a	n/a	n/a	n/a	fixation
32508.314870106988	2750	n/a	1404	71	2750	1412.68512989	stim	stop-signal	594	1666875	0.0-25.6-1.6	beast_fmri_test	311	1664186,/,1664867,/,1665546,/,1666226,/,1666904,/,1667585,/,1668265,/	t,t,t,t,t,t,t	<img class = center src='/static/experiments/beast_fmri_test/images/V.png'></img>	89,71	2750.0	test	<img class = center src='/static/experiments/beast_fmri_test/images/redV.png'></img>	go	1550.0	2.0	6.0	go	target	V	89,Middle Finger	71,Index Finger	1200.0	950.0	1550.0	1750.0	0.0	n/a	1200.0	0.0	go_stim
35258.314870106988	1412.6851298930494	n/a	1404	71	2750	1412.68512989	stim	stop-signal	594	1666875	0.0-25.6-1.6	beast_fmri_test	311	1664186,/,1664867,/,1665546,/,1666226,/,1666904,/,1667585,/,1668265,/	t,t,t,t,t,t,t	<img class = center src='/static/experiments/beast_fmri_test/images/V.png'></img>	89,71	2750.0	test	<img class = center src='/static/experiments/beast_fmri_test/images/redV.png'></img>	go	1550.0	2.0	6.0	go	target	V	89,Middle Finger	71,Index Finger	1200.0	950.0	1550.0	1750.0	0.0	n/a	1200.0	0.0	ITI
38647	500	n/a	-1	-1	500	0.0	fixation	poldrack-single-stim	595	1668851	0.0-25.7-0.7	beast_fmri_test	311	n/a	n/a	<div class = centerbox2><div class = fixation>+</div></div>	none	500.0	test	n/a	n/a	n/a	n/a	n/a	n/a	n/a	n/a	n/a	n/a	n/a	n/a	n/a	n/a	n/a	n/a	n/a	n/a	fixation
36595.006469693268	2750	n/a	1442	71	2750	2054.99353031	stim	stop-signal	596	1671604	0.0-25.7-1.7	beast_fmri_test	311	1668945,/,1669625,/,1670303,/,1670984,/,1671663,/,1672343,/,1673023,/	t,t,t,t,t,t,t	<img class = center src='/static/experiments/beast_fmri_test/images/V.png'></img>	89,71	2750.0	test	<img class = center src='/static/experiments/beast_fmri_test/images/redV.png'></img>	go	1800.0	2.0	7.0	go	non-target	V	89,Middle Finger	71,Index Finger	1200.0	950.0	1550.0	1800.0	1.0	n/a	950.0	1.0	go_stim
39345.006469693268	2054.993530306806	n/a	1442	71	2750	2054.99353031	stim	stop-signal	596	1671604	0.0-25.7-1.7	beast_fmri_test	311	1668945,/,1669625,/,1670303,/,1670984,/,1671663,/,1672343,/,1673023,/	t,t,t,t,t,t,t	<img class = center src='/static/experiments/beast_fmri_test/images/V.png'></img>	89,71	2750.0	test	<img class = center src='/static/experiments/beast_fmri_test/images/redV.png'></img>	go	1800.0	2.0	7.0	go	non-target	V	89,Middle Finger	71,Index Finger	1200.0	950.0	1550.0	1800.0	1.0	n/a	950.0	1.0	ITI
44020	500	n/a	-1	-1	500	0.0	fixation	poldrack-single-stim	597	1674224	0.0-25.8-0.8	beast_fmri_test	311	1673722,/	t	<div class = centerbox2><div class = fixation>+</div></div>	none	500.0	test	n/a	n/a	n/a	n/a	n/a	n/a	n/a	n/a	n/a	n/a	n/a	n/a	n/a	n/a	n/a	n/a	n/a	n/a	fixation
43994.136799533153	950.0	n/a	-1	-1	2750	28.8632004668	stim	stop-signal	598	1676977	0.0-25.8-1.8	beast_fmri_test	311	1674382,/,1675061,/,1675742,/,1676421,/	t,t,t,t	<img class = center src='/static/experiments/beast_fmri_test/images/B.png'></img>	89,71	2750.0	test	<img class = center src='/static/experiments/beast_fmri_test/images/redB.png'></img>	stop	1800.0	2.0	8.0	stop	non-target	B	89,Middle Finger	71,Index Finger	1200.0	950.0	1550.0	1800.0	0.0	1.0	950.0	n/a	go_stim
45794.136799533153	1800.0	n/a	-1	-1	2750	28.8632004668	stim	stop-signal	598	1676977	0.0-25.8-1.8	beast_fmri_test	311	1674382,/,1675061,/,1675742,/,1676421,/	t,t,t,t	<img class = center src='/static/experiments/beast_fmri_test/images/B.png'></img>	89,71	2750.0	test	<img class = center src='/static/experiments/beast_fmri_test/images/redB.png'></img>	stop	1800.0	2.0	8.0	stop	non-target	B	89,Middle Finger	71,Index Finger	1200.0	950.0	1550.0	1800.0	0.0	1.0	950.0	n/a	stop_stim
46744.136799533153	28.86320046677773	n/a	-1	-1	2750	28.8632004668	stim	stop-signal	598	1676977	0.0-25.8-1.8	beast_fmri_test	311	1674382,/,1675061,/,1675742,/,1676421,/	t,t,t,t	<img class = center src='/static/experiments/beast_fmri_test/images/B.png'></img>	89,71	2750.0	test	<img class = center src='/static/experiments/beast_fmri_test/images/redB.png'></img>	stop	1800.0	2.0	8.0	stop	non-target	B	89,Middle Finger	71,Index Finger	1200.0	950.0	1550.0	1800.0	0.0	1.0	950.0	n/a	ITI
47365	500	n/a	-1	-1	500	0.0	fixation	poldrack-single-stim	599	1677569	0.0-25.9-0.9	beast_fmri_test	311	1677101,/	t	<div class = centerbox2><div class = fixation>+</div></div>	none	500.0	test	n/a	n/a	n/a	n/a	n/a	n/a	n/a	n/a	n/a	n/a	n/a	n/a	n/a	n/a	n/a	n/a	n/a	n/a	fixation
43334.320786451455	2750	n/a	1381	71	2750	4032.67921355	stim	stop-signal	600	1680321	0.0-25.9-1.9	beast_fmri_test	311	1677781,/,1678462,/,1679142,/,1679821,/,1680500,/,1681180,/,1681860,/,1682539,/,1683219,/,1683897,/	t,t,t,t,t,t,t,t,t,t	<img class = center src='/static/experiments/beast_fmri_test/images/V.png'></img>	89,71	2750.0	test	<img class = center src='/static/experiments/beast_fmri_test/images/redV.png'></img>	go	1550.0	2.0	9.0	go	target	V	89,Middle Finger	71,Index Finger	1200.0	1000.0	1550.0	1800.0	0.0	n/a	1200.0	0.0	go_stim
46084.320786451455	4032.6792135486439	n/a	1381	71	2750	4032.67921355	stim	stop-signal	600	1680321	0.0-25.9-1.9	beast_fmri_test	311	1677781,/,1678462,/,1679142,/,1679821,/,1680500,/,1681180,/,1681860,/,1682539,/,1683219,/,1683897,/	t,t,t,t,t,t,t,t,t,t	<img class = center src='/static/experiments/beast_fmri_test/images/V.png'></img>	89,71	2750.0	test	<img class = center src='/static/experiments/beast_fmri_test/images/redV.png'></img>	go	1550.0	2.0	9.0	go	target	V	89,Middle Finger	71,Index Finger	1200.0	1000.0	1550.0	1800.0	0.0	n/a	1200.0	0.0	ITI
54715	500	n/a	-1	-1	500	0.0	fixation	poldrack-single-stim	601	1684919	0.0-25.10-0.10	beast_fmri_test	311	1684577,/	t	<div class = centerbox2><div class = fixation>+</div></div>	none	500.0	test	n/a	n/a	n/a	n/a	n/a	n/a	n/a	n/a	n/a	n/a	n/a	n/a	n/a	n/a	n/a	n/a	n/a	n/a	fixation
54691.181877500145	1000.0	n/a	974	71	2750	25.8181225	stim	stop-signal	602	1687671	0.0-25.10-1.10	beast_fmri_test	311	1685257,/,1685936,/,1686618,/,1687296,/	t,t,t,t	<img class = center src='/static/experiments/beast_fmri_test/images/D.png'></img>	89,71	2750.0	test	<img class = center src='/static/experiments/beast_fmri_test/images/redD.png'></img>	stop	1750.0	2.0	10.0	stop	non-target	D	89,Middle Finger	71,Index Finger	1200.0	1000.0	1550.0	1750.0	0.0	0.0	1000.0	n/a	go_stim
56441.181877500145	1750.0	n/a	974	71	2750	25.8181225	stim	stop-signal	602	1687671	0.0-25.10-1.10	beast_fmri_test	311	1685257,/,1685936,/,1686618,/,1687296,/	t,t,t,t	<img class = center src='/static/experiments/beast_fmri_test/images/D.png'></img>	89,71	2750.0	test	<img class = center src='/static/experiments/beast_fmri_test/images/redD.png'></img>	stop	1750.0	2.0	10.0	stop	non-target	D	89,Middle Finger	71,Index Finger	1200.0	1000.0	1550.0	1750.0	0.0	0.0	1000.0	n/a	stop_stim
57441.181877500145	25.818122499966808	n/a	974	71	2750	25.8181225	stim	stop-signal	602	1687671	0.0-25.10-1.10	beast_fmri_test	311	1685257,/,1685936,/,1686618,/,1687296,/	t,t,t,t	<img class = center src='/static/experiments/beast_fmri_test/images/D.png'></img>	89,71	2750.0	test	<img class = center src='/static/experiments/beast_fmri_test/images/redD.png'></img>	stop	1750.0	2.0	10.0	stop	non-target	D	89,Middle Finger	71,Index Finger	1200.0	1000.0	1550.0	1750.0	0.0	0.0	1000.0	n/a	ITI
58057	500	n/a	-1	-1	500	0.0	fixation	poldrack-single-stim	603	1688261	0.0-25.11-0.11	beast_fmri_test	311	1687976,/	t	<div class = centerbox2><div class = fixation>+</div></div>	none	500.0	test	n/a	n/a	n/a	n/a	n/a	n/a	n/a	n/a	n/a	n/a	n/a	n/a	n/a	n/a	n/a	n/a	n/a	n/a	fixation
56290.756139125675	2750	n/a	1840	89	2750	1768.24386087	stim	stop-signal	604	1691013	0.0-25.11-1.11	beast_fmri_test	311	1688655,/,1689336,/,1690015,/,1690696,/,1691375,/,1692054,/,1692734,/	t,t,t,t,t,t,t	<img class = center src='/static/experiments/beast_fmri_test/images/B.png'></img>	89,71	2750.0	test	<img class = center src='/static/experiments/beast_fmri_test/images/redB.png'></img>	go	1800.0	2.0	11.0	go	non-target	B	89,Middle Finger	71,Index Finger	1200.0	950.0	1550.0	1800.0	0.0	n/a	950.0	0.0	go_stim
59040.756139125675	1768.2438608744094	n/a	1840	89	2750	1768.24386087	stim	stop-signal	604	1691013	0.0-25.11-1.11	beast_fmri_test	311	1688655,/,1689336,/,1690015,/,1690696,/,1691375,/,1692054,/,1692734,/	t,t,t,t,t,t,t	<img class = center src='/static/experiments/beast_fmri_test/images/B.png'></img>	89,71	2750.0	test	<img class = center src='/static/experiments/beast_fmri_test/images/redB.png'></img>	go	1800.0	2.0	11.0	go	non-target	B	89,Middle Finger	71,Index Finger	1200.0	950.0	1550.0	1800.0	0.0	n/a	950.0	0.0	ITI
63144	500	n/a	-1	-1	500	0.0	fixation	poldrack-single-stim	605	1693348	0.0-25.12-0.12	beast_fmri_test	311	n/a	n/a	<div class = centerbox2><div class = fixation>+</div></div>	none	500.0	test	n/a	n/a	n/a	n/a	n/a	n/a	n/a	n/a	n/a	n/a	n/a	n/a	n/a	n/a	n/a	n/a	n/a	n/a	fixation
62368.486288731685	950.0	n/a	-1	-1	2750	777.513711268	stim	stop-signal	606	1696100	0.0-25.12-1.12	beast_fmri_test	311	1693413,/,1694093,/,1694773,/,1695453,/,1696131,/,1696812,/	t,t,t,t,t,t	<img class = center src='/static/experiments/beast_fmri_test/images/V.png'></img>	89,71	2750.0	test	<img class = center src='/static/experiments/beast_fmri_test/images/redV.png'></img>	stop	1800.0	2.0	12.0	stop	non-target	V	89,Middle Finger	71,Index Finger	1200.0	950.0	1550.0	1800.0	0.0	1.0	950.0	n/a	go_stim
64168.486288731685	1800.0	n/a	-1	-1	2750	777.513711268	stim	stop-signal	606	1696100	0.0-25.12-1.12	beast_fmri_test	311	1693413,/,1694093,/,1694773,/,1695453,/,1696131,/,1696812,/	t,t,t,t,t,t	<img class = center src='/static/experiments/beast_fmri_test/images/V.png'></img>	89,71	2750.0	test	<img class = center src='/static/experiments/beast_fmri_test/images/redV.png'></img>	stop	1800.0	2.0	12.0	stop	non-target	V	89,Middle Finger	71,Index Finger	1200.0	950.0	1550.0	1800.0	0.0	1.0	950.0	n/a	stop_stim
65118.486288731685	777.51371126834761	n/a	-1	-1	2750	777.513711268	stim	stop-signal	606	1696100	0.0-25.12-1.12	beast_fmri_test	311	1693413,/,1694093,/,1694773,/,1695453,/,1696131,/,1696812,/	t,t,t,t,t,t	<img class = center src='/static/experiments/beast_fmri_test/images/V.png'></img>	89,71	2750.0	test	<img class = center src='/static/experiments/beast_fmri_test/images/redV.png'></img>	stop	1800.0	2.0	12.0	stop	non-target	V	89,Middle Finger	71,Index Finger	1200.0	950.0	1550.0	1800.0	0.0	1.0	950.0	n/a	ITI
67240	500	n/a	-1	-1	500	0.0	fixation	poldrack-single-stim	607	1697444	0.0-25.13-0.13	beast_fmri_test	311	n/a	n/a	<div class = centerbox2><div class = fixation>+</div></div>	none	500.0	test	n/a	n/a	n/a	n/a	n/a	n/a	n/a	n/a	n/a	n/a	n/a	n/a	n/a	n/a	n/a	n/a	n/a	n/a	fixation
67083.92555268947	2750	n/a	1057	71	2750	159.074447311	stim	stop-signal	608	1700197	0.0-25.13-1.13	beast_fmri_test	311	1697492,/,1698172,/,1698851,/,1699530,/,1700209,/	t,t,t,t,t	<img class = center src='/static/experiments/beast_fmri_test/images/D.png'></img>	89,71	2750.0	test	<img class = center src='/static/experiments/beast_fmri_test/images/redD.png'></img>	go	1750.0	2.0	13.0	go	non-target	D	89,Middle Finger	71,Index Finger	1200.0	1000.0	1550.0	1750.0	1.0	n/a	1000.0	1.0	go_stim
69833.92555268947	159.0744473106158	n/a	1057	71	2750	159.074447311	stim	stop-signal	608	1700197	0.0-25.13-1.13	beast_fmri_test	311	1697492,/,1698172,/,1698851,/,1699530,/,1700209,/	t,t,t,t,t	<img class = center src='/static/experiments/beast_fmri_test/images/D.png'></img>	89,71	2750.0	test	<img class = center src='/static/experiments/beast_fmri_test/images/redD.png'></img>	go	1750.0	2.0	13.0	go	non-target	D	89,Middle Finger	71,Index Finger	1200.0	1000.0	1550.0	1750.0	1.0	n/a	1000.0	1.0	ITI
70716	500	n/a	-1	-1	500	0.0	fixation	poldrack-single-stim	609	1700920	0.0-25.14-0.14	beast_fmri_test	311	1700890,/	t	<div class = centerbox2><div class = fixation>+</div></div>	none	500.0	test	n/a	n/a	n/a	n/a	n/a	n/a	n/a	n/a	n/a	n/a	n/a	n/a	n/a	n/a	n/a	n/a	n/a	n/a	fixation
69517.820464369608	2750	n/a	1740	89	2750	1200.17953563	stim	stop-signal	610	1703672	0.0-25.14-1.14	beast_fmri_test	311	1701570,/,1702249,/,1702929,/,1703609,/,1704288,/	t,t,t,t,t	<img class = center src='/static/experiments/beast_fmri_test/images/V.png'></img>	89,71	2750.0	test	<img class = center src='/static/experiments/beast_fmri_test/images/redV.png'></img>	go	1550.0	2.0	14.0	go	target	V	89,Middle Finger	71,Index Finger	1200.0	1000.0	1550.0	1750.0	1.0	n/a	1200.0	1.0	go_stim
72267.820464369608	1200.1795356304665	n/a	1740	89	2750	1200.17953563	stim	stop-signal	610	1703672	0.0-25.14-1.14	beast_fmri_test	311	1701570,/,1702249,/,1702929,/,1703609,/,1704288,/	t,t,t,t,t	<img class = center src='/static/experiments/beast_fmri_test/images/V.png'></img>	89,71	2750.0	test	<img class = center src='/static/experiments/beast_fmri_test/images/redV.png'></img>	go	1550.0	2.0	14.0	go	target	V	89,Middle Finger	71,Index Finger	1200.0	1000.0	1550.0	1750.0	1.0	n/a	1200.0	1.0	ITI
75236	500	n/a	-1	-1	500	0.0	fixation	poldrack-single-stim	611	1705440	0.0-25.15-0.15	beast_fmri_test	311	1704967,/	t	<div class = centerbox2><div class = fixation>+</div></div>	none	500.0	test	n/a	n/a	n/a	n/a	n/a	n/a	n/a	n/a	n/a	n/a	n/a	n/a	n/a	n/a	n/a	n/a	n/a	n/a	fixation
73024.860846593743	2750	n/a	1785	71	2750	2211.13915341	stim	stop-signal	612	1708190	0.0-25.15-1.15	beast_fmri_test	311	1705648,/,1706328,/,1707006,/,1707688,/,1708367,/,1709047,/,1709727,/	t,t,t,t,t,t,t	<img class = center src='/static/experiments/beast_fmri_test/images/B.png'></img>	89,71	2750.0	test	<img class = center src='/static/experiments/beast_fmri_test/images/redB.png'></img>	go	1750.0	2.0	15.0	go	non-target	B	89,Middle Finger	71,Index Finger	1200.0	1000.0	1550.0	1750.0	1.0	n/a	1000.0	1.0	go_stim
75774.860846593743	2211.1391534063032	n/a	1785	71	2750	2211.13915341	stim	stop-signal	612	1708190	0.0-25.15-1.15	beast_fmri_test	311	1705648,/,1706328,/,1707006,/,1707688,/,1708367,/,1709047,/,1709727,/	t,t,t,t,t,t,t	<img class = center src='/static/experiments/beast_fmri_test/images/B.png'></img>	89,71	2750.0	test	<img class = center src='/static/experiments/beast_fmri_test/images/redB.png'></img>	go	1750.0	2.0	15.0	go	non-target	B	89,Middle Finger	71,Index Finger	1200.0	1000.0	1550.0	1750.0	1.0	n/a	1000.0	1.0	ITI
80774	500	n/a	-1	-1	500	0.0	fixation	poldrack-single-stim	613	1710978	0.0-25.16-0.16	beast_fmri_test	311	1710477,/	t	<div class = centerbox2><div class = fixation>+</div></div>	none	500.0	test	n/a	n/a	n/a	n/a	n/a	n/a	n/a	n/a	n/a	n/a	n/a	n/a	n/a	n/a	n/a	n/a	n/a	n/a	fixation
79988.478362854803	2750	n/a	1679	71	2750	788.521637145	stim	stop-signal	614	1713731	0.0-25.16-1.16	beast_fmri_test	311	1711087,/,1711767,/,1712445,/,1713125,/,1713804,/,1714484,/	t,t,t,t,t,t	<img class = center src='/static/experiments/beast_fmri_test/images/T.png'></img>	89,71	2750.0	test	<img class = center src='/static/experiments/beast_fmri_test/images/redT.png'></img>	go	1750.0	2.0	16.0	go	non-target	T	89,Middle Finger	71,Index Finger	1200.0	1000.0	1550.0	1750.0	1.0	n/a	1000.0	1.0	go_stim
82738.478362854803	788.52163714523772	n/a	1679	71	2750	788.521637145	stim	stop-signal	614	1713731	0.0-25.16-1.16	beast_fmri_test	311	1711087,/,1711767,/,1712445,/,1713125,/,1713804,/,1714484,/	t,t,t,t,t,t	<img class = center src='/static/experiments/beast_fmri_test/images/T.png'></img>	89,71	2750.0	test	<img class = center src='/static/experiments/beast_fmri_test/images/redT.png'></img>	go	1750.0	2.0	16.0	go	non-target	T	89,Middle Finger	71,Index Finger	1200.0	1000.0	1550.0	1750.0	1.0	n/a	1000.0	1.0	ITI
84875	500	n/a	-1	-1	500	0.0	fixation	poldrack-single-stim	615	1715079	0.0-25.17-0.17	beast_fmri_test	311	n/a	n/a	<div class = centerbox2><div class = fixation>+</div></div>	none	500.0	test	n/a	n/a	n/a	n/a	n/a	n/a	n/a	n/a	n/a	n/a	n/a	n/a	n/a	n/a	n/a	n/a	n/a	n/a	fixation
82530.081856693607	2750	n/a	1684	71	2750	2347.91814331	stim	stop-signal	616	1717832	0.0-25.17-1.17	beast_fmri_test	311	1715163,/,1715843,/,1716524,/,1717203,/,1717883,/,1718563,/,1719242,/,1719922,/	t,t,t,t,t,t,t,t	<img class = center src='/static/experiments/beast_fmri_test/images/B.png'></img>	89,71	2750.0	test	<img class = center src='/static/experiments/beast_fmri_test/images/redB.png'></img>	go	1550.0	2.0	17.0	go	target	B	89,Middle Finger	71,Index Finger	1200.0	1000.0	1550.0	1750.0	0.0	n/a	1200.0	0.0	go_stim
85280.081856693607	2347.918143306475	n/a	1684	71	2750	2347.91814331	stim	stop-signal	616	1717832	0.0-25.17-1.17	beast_fmri_test	311	1715163,/,1715843,/,1716524,/,1717203,/,1717883,/,1718563,/,1719242,/,1719922,/	t,t,t,t,t,t,t,t	<img class = center src='/static/experiments/beast_fmri_test/images/B.png'></img>	89,71	2750.0	test	<img class = center src='/static/experiments/beast_fmri_test/images/redB.png'></img>	go	1550.0	2.0	17.0	go	target	B	89,Middle Finger	71,Index Finger	1200.0	1000.0	1550.0	1750.0	0.0	n/a	1200.0	0.0	ITI
90544	500	n/a	-1	-1	500	0.0	fixation	poldrack-single-stim	617	1720748	0.0-25.18-0.18	beast_fmri_test	311	1720602,/	t	<div class = centerbox2><div class = fixation>+</div></div>	none	500.0	test	n/a	n/a	n/a	n/a	n/a	n/a	n/a	n/a	n/a	n/a	n/a	n/a	n/a	n/a	n/a	n/a	n/a	n/a	fixation
89932.642915512901	2750	n/a	1333	71	2750	613.357084487	stim	stop-signal	618	1723500	0.0-25.18-1.18	beast_fmri_test	311	1721281,/,1721960,/,1722640,/,1723320,/,1724000,/	t,t,t,t,t	<img class = center src='/static/experiments/beast_fmri_test/images/P.png'></img>	89,71	2750.0	test	<img class = center src='/static/experiments/beast_fmri_test/images/redP.png'></img>	go	1750.0	2.0	18.0	go	non-target	P	89,Middle Finger	71,Index Finger	1200.0	1000.0	1550.0	1750.0	1.0	n/a	1000.0	1.0	go_stim
92682.642915512901	613.35708448708237	n/a	1333	71	2750	613.357084487	stim	stop-signal	618	1723500	0.0-25.18-1.18	beast_fmri_test	311	1721281,/,1721960,/,1722640,/,1723320,/,1724000,/	t,t,t,t,t	<img class = center src='/static/experiments/beast_fmri_test/images/P.png'></img>	89,71	2750.0	test	<img class = center src='/static/experiments/beast_fmri_test/images/redP.png'></img>	go	1750.0	2.0	18.0	go	non-target	P	89,Middle Finger	71,Index Finger	1200.0	1000.0	1550.0	1750.0	1.0	n/a	1000.0	1.0	ITI
94475	500	n/a	-1	-1	500	0.0	fixation	poldrack-single-stim	619	1724679	0.0-25.19-0.19	beast_fmri_test	311	n/a	n/a	<div class = centerbox2><div class = fixation>+</div></div>	none	500.0	test	n/a	n/a	n/a	n/a	n/a	n/a	n/a	n/a	n/a	n/a	n/a	n/a	n/a	n/a	n/a	n/a	n/a	n/a	fixation
94030.24214951531	1200.0	n/a	1445	89	2750	447.757850485	stim	stop-signal	620	1727432	0.0-25.19-1.19	beast_fmri_test	311	1724682,/,1725359,/,1726039,/,1726718,/,1727398,/	t,t,t,t,t	<img class = center src='/static/experiments/beast_fmri_test/images/B.png'></img>	89,71	2750.0	test	<img class = center src='/static/experiments/beast_fmri_test/images/redB.png'></img>	stop	1550.0	2.0	19.0	stop	target	B	89,Middle Finger	71,Index Finger	1200.0	1000.0	1550.0	1750.0	0.0	0.0	1200.0	n/a	go_stim
95580.24214951531	1550.0	n/a	1445	89	2750	447.757850485	stim	stop-signal	620	1727432	0.0-25.19-1.19	beast_fmri_test	311	1724682,/,1725359,/,1726039,/,1726718,/,1727398,/	t,t,t,t,t	<img class = center src='/static/experiments/beast_fmri_test/images/B.png'></img>	89,71	2750.0	test	<img class = center src='/static/experiments/beast_fmri_test/images/redB.png'></img>	stop	1550.0	2.0	19.0	stop	target	B	89,Middle Finger	71,Index Finger	1200.0	1000.0	1550.0	1750.0	0.0	0.0	1200.0	n/a	stop_stim
96780.24214951531	447.7578504847973	n/a	1445	89	2750	447.757850485	stim	stop-signal	620	1727432	0.0-25.19-1.19	beast_fmri_test	311	1724682,/,1725359,/,1726039,/,1726718,/,1727398,/	t,t,t,t,t	<img class = center src='/static/experiments/beast_fmri_test/images/B.png'></img>	89,71	2750.0	test	<img class = center src='/static/experiments/beast_fmri_test/images/redB.png'></img>	stop	1550.0	2.0	19.0	stop	target	B	89,Middle Finger	71,Index Finger	1200.0	1000.0	1550.0	1750.0	0.0	0.0	1200.0	n/a	ITI
98244	500	n/a	-1	-1	500	0.0	fixation	poldrack-single-stim	621	1728448	0.0-25.20-0.20	beast_fmri_test	311	1728076,/	t	<div class = centerbox2><div class = fixation>+</div></div>	none	500.0	test	n/a	n/a	n/a	n/a	n/a	n/a	n/a	n/a	n/a	n/a	n/a	n/a	n/a	n/a	n/a	n/a	n/a	n/a	fixation
97709.392815257423	2750	n/a	1578	71	2750	536.607184742	stim	stop-signal	622	1731200	0.0-25.20-1.20	beast_fmri_test	311	1728758,/,1729438,/,1730117,/,1730797,/,1731476,/	t,t,t,t,t	<img class = center src='/static/experiments/beast_fmri_test/images/B.png'></img>	89,71	2750.0	test	<img class = center src='/static/experiments/beast_fmri_test/images/redB.png'></img>	go	1750.0	2.0	20.0	go	non-target	B	89,Middle Finger	71,Index Finger	1150.0	1000.0	1550.0	1750.0	1.0	n/a	1000.0	1.0	go_stim
100459.39281525742	536.60718474249347	n/a	1578	71	2750	536.607184742	stim	stop-signal	622	1731200	0.0-25.20-1.20	beast_fmri_test	311	1728758,/,1729438,/,1730117,/,1730797,/,1731476,/	t,t,t,t,t	<img class = center src='/static/experiments/beast_fmri_test/images/B.png'></img>	89,71	2750.0	test	<img class = center src='/static/experiments/beast_fmri_test/images/redB.png'></img>	go	1750.0	2.0	20.0	go	non-target	B	89,Middle Finger	71,Index Finger	1150.0	1000.0	1550.0	1750.0	1.0	n/a	1000.0	1.0	ITI
102097	500	n/a	-1	-1	500	0.0	fixation	poldrack-single-stim	623	1732301	0.0-25.21-0.21	beast_fmri_test	311	1732155,/	t	<div class = centerbox2><div class = fixation>+</div></div>	none	500.0	test	n/a	n/a	n/a	n/a	n/a	n/a	n/a	n/a	n/a	n/a	n/a	n/a	n/a	n/a	n/a	n/a	n/a	n/a	fixation
101107.79958857596	1000.0	n/a	-1	-1	2750	991.200411424	stim	stop-signal	624	1735053	0.0-25.21-1.21	beast_fmri_test	311	1732835,/,1733516,/,1734195,/,1734875,/,1735554,/	t,t,t,t,t	<img class = center src='/static/experiments/beast_fmri_test/images/D.png'></img>	89,71	2750.0	test	<img class = center src='/static/experiments/beast_fmri_test/images/redD.png'></img>	stop	1750.0	2.0	21.0	stop	non-target	D	89,Middle Finger	71,Index Finger	1150.0	1000.0	1550.0	1750.0	0.0	1.0	1000.0	n/a	go_stim
102857.79958857596	1750.0	n/a	-1	-1	2750	991.200411424	stim	stop-signal	624	1735053	0.0-25.21-1.21	beast_fmri_test	311	1732835,/,1733516,/,1734195,/,1734875,/,1735554,/	t,t,t,t,t	<img class = center src='/static/experiments/beast_fmri_test/images/D.png'></img>	89,71	2750.0	test	<img class = center src='/static/experiments/beast_fmri_test/images/redD.png'></img>	stop	1750.0	2.0	21.0	stop	non-target	D	89,Middle Finger	71,Index Finger	1150.0	1000.0	1550.0	1750.0	0.0	1.0	1000.0	n/a	stop_stim
103857.79958857596	991.20041142402761	n/a	-1	-1	2750	991.200411424	stim	stop-signal	624	1735053	0.0-25.21-1.21	beast_fmri_test	311	1732835,/,1733516,/,1734195,/,1734875,/,1735554,/	t,t,t,t,t	<img class = center src='/static/experiments/beast_fmri_test/images/D.png'></img>	89,71	2750.0	test	<img class = center src='/static/experiments/beast_fmri_test/images/redD.png'></img>	stop	1750.0	2.0	21.0	stop	non-target	D	89,Middle Finger	71,Index Finger	1150.0	1000.0	1550.0	1750.0	0.0	1.0	1000.0	n/a	ITI
106408	500	n/a	-1	-1	500	0.0	fixation	poldrack-single-stim	625	1736612	0.0-25.22-0.22	beast_fmri_test	311	1736234,/	t	<div class = centerbox2><div class = fixation>+</div></div>	none	500.0	test	n/a	n/a	n/a	n/a	n/a	n/a	n/a	n/a	n/a	n/a	n/a	n/a	n/a	n/a	n/a	n/a	n/a	n/a	fixation
105744.28824719461	2750	n/a	1985	71	2750	665.711752805	stim	stop-signal	626	1739364	0.0-25.22-1.22	beast_fmri_test	311	1736915,/,1737595,/,1738274,/,1738954,/,1739634,/	t,t,t,t,t	<img class = center src='/static/experiments/beast_fmri_test/images/B.png'></img>	89,71	2750.0	test	<img class = center src='/static/experiments/beast_fmri_test/images/redB.png'></img>	go	1600.0	2.0	22.0	go	target	B	89,Middle Finger	71,Index Finger	1150.0	1050.0	1600.0	1750.0	0.0	n/a	1150.0	0.0	go_stim
108494.28824719461	665.71175280532032	n/a	1985	71	2750	665.711752805	stim	stop-signal	626	1739364	0.0-25.22-1.22	beast_fmri_test	311	1736915,/,1737595,/,1738274,/,1738954,/,1739634,/	t,t,t,t,t	<img class = center src='/static/experiments/beast_fmri_test/images/B.png'></img>	89,71	2750.0	test	<img class = center src='/static/experiments/beast_fmri_test/images/redB.png'></img>	go	1600.0	2.0	22.0	go	target	B	89,Middle Finger	71,Index Finger	1150.0	1050.0	1600.0	1750.0	0.0	n/a	1150.0	0.0	ITI
110394	500	n/a	-1	-1	500	0.0	fixation	poldrack-single-stim	627	1740598	0.0-25.23-0.23	beast_fmri_test	311	1740313,/	t	<div class = centerbox2><div class = fixation>+</div></div>	none	500.0	test	n/a	n/a	n/a	n/a	n/a	n/a	n/a	n/a	n/a	n/a	n/a	n/a	n/a	n/a	n/a	n/a	n/a	n/a	fixation
110086.05809804332	2750	n/a	1116	89	2750	310.941901957	stim	stop-signal	628	1743351	0.0-25.23-1.23	beast_fmri_test	311	1740992,/,1741672,/,1742352,/,1743032,/	t,t,t,t	<img class = center src='/static/experiments/beast_fmri_test/images/D.png'></img>	89,71	2750.0	test	<img class = center src='/static/experiments/beast_fmri_test/images/redD.png'></img>	go	1600.0	2.0	23.0	go	target	D	89,Middle Finger	71,Index Finger	1150.0	1050.0	1600.0	1750.0	1.0	n/a	1150.0	1.0	go_stim
112836.05809804332	310.94190195661105	n/a	1116	89	2750	310.941901957	stim	stop-signal	628	1743351	0.0-25.23-1.23	beast_fmri_test	311	1740992,/,1741672,/,1742352,/,1743032,/	t,t,t,t	<img class = center src='/static/experiments/beast_fmri_test/images/D.png'></img>	89,71	2750.0	test	<img class = center src='/static/experiments/beast_fmri_test/images/redD.png'></img>	go	1600.0	2.0	23.0	go	target	D	89,Middle Finger	71,Index Finger	1150.0	1050.0	1600.0	1750.0	1.0	n/a	1150.0	1.0	ITI
114026	500	n/a	-1	-1	500	0.0	fixation	poldrack-single-stim	629	1744230	0.0-25.24-0.24	beast_fmri_test	311	1743728,/	t	<div class = centerbox2><div class = fixation>+</div></div>	none	500.0	test	n/a	n/a	n/a	n/a	n/a	n/a	n/a	n/a	n/a	n/a	n/a	n/a	n/a	n/a	n/a	n/a	n/a	n/a	fixation
113304.86181905726	1150.0	n/a	1122	89	2750	723.138180943	stim	stop-signal	630	1746982	0.0-25.24-1.24	beast_fmri_test	311	1744391,/,1745070,/,1745750,/,1746429,/,1747108,/	t,t,t,t,t	<img class = center src='/static/experiments/beast_fmri_test/images/B.png'></img>	89,71	2750.0	test	<img class = center src='/static/experiments/beast_fmri_test/images/redB.png'></img>	stop	1600.0	2.0	24.0	stop	target	B	89,Middle Finger	71,Index Finger	1150.0	1050.0	1600.0	1750.0	0.0	0.0	1150.0	n/a	go_stim
114904.86181905726	1600.0	n/a	1122	89	2750	723.138180943	stim	stop-signal	630	1746982	0.0-25.24-1.24	beast_fmri_test	311	1744391,/,1745070,/,1745750,/,1746429,/,1747108,/	t,t,t,t,t	<img class = center src='/static/experiments/beast_fmri_test/images/B.png'></img>	89,71	2750.0	test	<img class = center src='/static/experiments/beast_fmri_test/images/redB.png'></img>	stop	1600.0	2.0	24.0	stop	target	B	89,Middle Finger	71,Index Finger	1150.0	1050.0	1600.0	1750.0	0.0	0.0	1150.0	n/a	stop_stim
116054.86181905726	723.138180942708	n/a	1122	89	2750	723.138180943	stim	stop-signal	630	1746982	0.0-25.24-1.24	beast_fmri_test	311	1744391,/,1745070,/,1745750,/,1746429,/,1747108,/	t,t,t,t,t	<img class = center src='/static/experiments/beast_fmri_test/images/B.png'></img>	89,71	2750.0	test	<img class = center src='/static/experiments/beast_fmri_test/images/redB.png'></img>	stop	1600.0	2.0	24.0	stop	target	B	89,Middle Finger	71,Index Finger	1150.0	1050.0	1600.0	1750.0	0.0	0.0	1150.0	n/a	ITI
118070	500	n/a	-1	-1	500	0.0	fixation	poldrack-single-stim	631	1748274	0.0-25.25-0.25	beast_fmri_test	311	1747789,/	t	<div class = centerbox2><div class = fixation>+</div></div>	none	500.0	test	n/a	n/a	n/a	n/a	n/a	n/a	n/a	n/a	n/a	n/a	n/a	n/a	n/a	n/a	n/a	n/a	n/a	n/a	fixation
117095.17375858058	2750	n/a	1337	71	2750	976.826241419	stim	stop-signal	632	1751026	0.0-25.25-1.25	beast_fmri_test	311	1748468,/,1749148,/,1749828,/,1750508,/,1751187,/,1751868,/	t,t,t,t,t,t	<img class = center src='/static/experiments/beast_fmri_test/images/B.png'></img>	89,71	2750.0	test	<img class = center src='/static/experiments/beast_fmri_test/images/redB.png'></img>	go	1700.0	2.0	25.0	go	non-target	B	89,Middle Finger	71,Index Finger	1100.0	1050.0	1600.0	1700.0	1.0	n/a	1050.0	1.0	go_stim
119845.17375858058	976.82624141948168	n/a	1337	71	2750	976.826241419	stim	stop-signal	632	1751026	0.0-25.25-1.25	beast_fmri_test	311	1748468,/,1749148,/,1749828,/,1750508,/,1751187,/,1751868,/	t,t,t,t,t,t	<img class = center src='/static/experiments/beast_fmri_test/images/B.png'></img>	89,71	2750.0	test	<img class = center src='/static/experiments/beast_fmri_test/images/redB.png'></img>	go	1700.0	2.0	25.0	go	non-target	B	89,Middle Finger	71,Index Finger	1100.0	1050.0	1600.0	1700.0	1.0	n/a	1050.0	1.0	ITI
122361	500	n/a	-1	-1	500	0.0	fixation	poldrack-single-stim	633	1752565	0.0-25.26-0.26	beast_fmri_test	311	1752547,/	t	<div class = centerbox2><div class = fixation>+</div></div>	none	500.0	test	n/a	n/a	n/a	n/a	n/a	n/a	n/a	n/a	n/a	n/a	n/a	n/a	n/a	n/a	n/a	n/a	n/a	n/a	fixation
121396.34897265886	1100.0	n/a	1255	89	2750	966.651027341	stim	stop-signal	634	1755317	0.0-25.26-1.26	beast_fmri_test	311	1753227,/,1753906,/,1754586,/,1755265,/,1755945,/	t,t,t,t,t	<img class = center src='/static/experiments/beast_fmri_test/images/B.png'></img>	89,71	2750.0	test	<img class = center src='/static/experiments/beast_fmri_test/images/redB.png'></img>	stop	1650.0	2.0	26.0	stop	target	B	89,Middle Finger	71,Index Finger	1100.0	1050.0	1650.0	1700.0	0.0	0.0	1100.0	n/a	go_stim
123046.34897265886	1650.0	n/a	1255	89	2750	966.651027341	stim	stop-signal	634	1755317	0.0-25.26-1.26	beast_fmri_test	311	1753227,/,1753906,/,1754586,/,1755265,/,1755945,/	t,t,t,t,t	<img class = center src='/static/experiments/beast_fmri_test/images/B.png'></img>	89,71	2750.0	test	<img class = center src='/static/experiments/beast_fmri_test/images/redB.png'></img>	stop	1650.0	2.0	26.0	stop	target	B	89,Middle Finger	71,Index Finger	1100.0	1050.0	1650.0	1700.0	0.0	0.0	1100.0	n/a	stop_stim
124146.34897265886	966.65102734105437	n/a	1255	89	2750	966.651027341	stim	stop-signal	634	1755317	0.0-25.26-1.26	beast_fmri_test	311	1753227,/,1753906,/,1754586,/,1755265,/,1755945,/	t,t,t,t,t	<img class = center src='/static/experiments/beast_fmri_test/images/B.png'></img>	89,71	2750.0	test	<img class = center src='/static/experiments/beast_fmri_test/images/redB.png'></img>	stop	1650.0	2.0	26.0	stop	target	B	89,Middle Finger	71,Index Finger	1100.0	1050.0	1650.0	1700.0	0.0	0.0	1100.0	n/a	ITI
126657	500	n/a	-1	-1	500	0.0	fixation	poldrack-single-stim	635	1756861	0.0-25.27-0.27	beast_fmri_test	311	1756626,/	t	<div class = centerbox2><div class = fixation>+</div></div>	none	500.0	test	n/a	n/a	n/a	n/a	n/a	n/a	n/a	n/a	n/a	n/a	n/a	n/a	n/a	n/a	n/a	n/a	n/a	n/a	fixation
125744.45631170622	2750	n/a	1362	89	2750	915.543688294	stim	stop-signal	636	1759614	0.0-25.27-1.27	beast_fmri_test	311	1757305,/,1757983,/,1758664,/,1759343,/,1760023,/	t,t,t,t,t	<img class = center src='/static/experiments/beast_fmri_test/images/D.png'></img>	89,71	2750.0	test	<img class = center src='/static/experiments/beast_fmri_test/images/redD.png'></img>	go	1700.0	2.0	27.0	go	non-target	D	89,Middle Finger	71,Index Finger	1050.0	1050.0	1650.0	1700.0	0.0	n/a	1050.0	0.0	go_stim
128494.45631170622	915.54368829376006	n/a	1362	89	2750	915.543688294	stim	stop-signal	636	1759614	0.0-25.27-1.27	beast_fmri_test	311	1757305,/,1757983,/,1758664,/,1759343,/,1760023,/	t,t,t,t,t	<img class = center src='/static/experiments/beast_fmri_test/images/D.png'></img>	89,71	2750.0	test	<img class = center src='/static/experiments/beast_fmri_test/images/redD.png'></img>	go	1700.0	2.0	27.0	go	non-target	D	89,Middle Finger	71,Index Finger	1050.0	1050.0	1650.0	1700.0	0.0	n/a	1050.0	0.0	ITI
130899	500	n/a	-1	-1	500	0.0	fixation	poldrack-single-stim	637	1761103	0.0-25.28-0.28	beast_fmri_test	311	1760702,/	t	<div class = centerbox2><div class = fixation>+</div></div>	none	500.0	test	n/a	n/a	n/a	n/a	n/a	n/a	n/a	n/a	n/a	n/a	n/a	n/a	n/a	n/a	n/a	n/a	n/a	n/a	fixation
130467.14503115905	2750	n/a	1386	71	2750	434.854968841	stim	stop-signal	638	1763856	0.0-25.28-1.28	beast_fmri_test	311	1761381,/,1762061,/,1762742,/,1763421,/,1764099,/	t,t,t,t,t	<img class = center src='/static/experiments/beast_fmri_test/images/V.png'></img>	89,71	2750.0	test	<img class = center src='/static/experiments/beast_fmri_test/images/redV.png'></img>	go	1700.0	2.0	28.0	go	non-target	V	89,Middle Finger	71,Index Finger	1050.0	1050.0	1650.0	1700.0	1.0	n/a	1050.0	1.0	go_stim
133217.14503115905	434.85496884102895	n/a	1386	71	2750	434.854968841	stim	stop-signal	638	1763856	0.0-25.28-1.28	beast_fmri_test	311	1761381,/,1762061,/,1762742,/,1763421,/,1764099,/	t,t,t,t,t	<img class = center src='/static/experiments/beast_fmri_test/images/V.png'></img>	89,71	2750.0	test	<img class = center src='/static/experiments/beast_fmri_test/images/redV.png'></img>	go	1700.0	2.0	28.0	go	non-target	V	89,Middle Finger	71,Index Finger	1050.0	1050.0	1650.0	1700.0	1.0	n/a	1050.0	1.0	ITI
134649	500	n/a	-1	-1	500	0.0	fixation	poldrack-single-stim	639	1764853	0.0-25.29-0.29	beast_fmri_test	311	1764782,/	t	<div class = centerbox2><div class = fixation>+</div></div>	none	500.0	test	n/a	n/a	n/a	n/a	n/a	n/a	n/a	n/a	n/a	n/a	n/a	n/a	n/a	n/a	n/a	n/a	n/a	n/a	fixation
132439.96957738162	2750	n/a	1842	71	2750	2210.03042262	stim	stop-signal	640	1767604	0.0-25.29-1.29	beast_fmri_test	311	1765462,/,1766141,/,1766821,/,1767500,/,1768180,/,1768859,/,1769538,/	t,t,t,t,t,t,t	<img class = center src='/static/experiments/beast_fmri_test/images/T.png'></img>	89,71	2750.0	test	<img class = center src='/static/experiments/beast_fmri_test/images/redT.png'></img>	go	1700.0	2.0	29.0	go	non-target	T	89,Middle Finger	71,Index Finger	1050.0	1050.0	1650.0	1700.0	1.0	n/a	1050.0	1.0	go_stim
135189.96957738162	2210.0304226184767	n/a	1842	71	2750	2210.03042262	stim	stop-signal	640	1767604	0.0-25.29-1.29	beast_fmri_test	311	1765462,/,1766141,/,1766821,/,1767500,/,1768180,/,1768859,/,1769538,/	t,t,t,t,t,t,t	<img class = center src='/static/experiments/beast_fmri_test/images/T.png'></img>	89,71	2750.0	test	<img class = center src='/static/experiments/beast_fmri_test/images/redT.png'></img>	go	1700.0	2.0	29.0	go	non-target	T	89,Middle Finger	71,Index Finger	1050.0	1050.0	1650.0	1700.0	1.0	n/a	1050.0	1.0	ITI
140184	500	n/a	-1	-1	500	0.0	fixation	poldrack-single-stim	641	1770388	0.0-25.30-0.30	beast_fmri_test	311	1770220,/	t	<div class = centerbox2><div class = fixation>+</div></div>	none	500.0	test	n/a	n/a	n/a	n/a	n/a	n/a	n/a	n/a	n/a	n/a	n/a	n/a	n/a	n/a	n/a	n/a	n/a	n/a	fixation
137182.58949203789	2750	n/a	941	89	2750	3002.41050796	stim	stop-signal	642	1773139	0.0-25.30-1.30	beast_fmri_test	311	1770898,/,1771579,/,1772258,/,1772938,/,1773617,/,1774297,/,1774977,/,1775657,/	t,t,t,t,t,t,t,t	<img class = center src='/static/experiments/beast_fmri_test/images/V.png'></img>	89,71	2750.0	test	<img class = center src='/static/experiments/beast_fmri_test/images/redV.png'></img>	go	1700.0	2.0	30.0	go	target	V	89,Middle Finger	71,Index Finger	1050.0	1050.0	1700.0	1700.0	1.0	n/a	1050.0	1.0	go_stim
139932.58949203789	3002.410507962104	n/a	941	89	2750	3002.41050796	stim	stop-signal	642	1773139	0.0-25.30-1.30	beast_fmri_test	311	1770898,/,1771579,/,1772258,/,1772938,/,1773617,/,1774297,/,1774977,/,1775657,/	t,t,t,t,t,t,t,t	<img class = center src='/static/experiments/beast_fmri_test/images/V.png'></img>	89,71	2750.0	test	<img class = center src='/static/experiments/beast_fmri_test/images/redV.png'></img>	go	1700.0	2.0	30.0	go	target	V	89,Middle Finger	71,Index Finger	1050.0	1050.0	1700.0	1700.0	1.0	n/a	1050.0	1.0	ITI
146514	500	n/a	-1	-1	500	0.0	fixation	poldrack-single-stim	643	1776718	0.0-25.31-0.31	beast_fmri_test	311	1776335,/	t	<div class = centerbox2><div class = fixation>+</div></div>	none	500.0	test	n/a	n/a	n/a	n/a	n/a	n/a	n/a	n/a	n/a	n/a	n/a	n/a	n/a	n/a	n/a	n/a	n/a	n/a	fixation
145158.42159106699	2750	n/a	906	71	2750	1356.57840893	stim	stop-signal	644	1779469	0.0-25.31-1.31	beast_fmri_test	311	1777016,/,1777694,/,1778374,/,1779054,/,1779734,/,1780414,/	t,t,t,t,t,t	<img class = center src='/static/experiments/beast_fmri_test/images/T.png'></img>	89,71	2750.0	test	<img class = center src='/static/experiments/beast_fmri_test/images/redT.png'></img>	go	1700.0	2.0	31.0	go	target	T	89,Middle Finger	71,Index Finger	1050.0	1050.0	1700.0	1700.0	0.0	n/a	1050.0	0.0	go_stim
147908.42159106699	1356.5784089331094	n/a	906	71	2750	1356.57840893	stim	stop-signal	644	1779469	0.0-25.31-1.31	beast_fmri_test	311	1777016,/,1777694,/,1778374,/,1779054,/,1779734,/,1780414,/	t,t,t,t,t,t	<img class = center src='/static/experiments/beast_fmri_test/images/T.png'></img>	89,71	2750.0	test	<img class = center src='/static/experiments/beast_fmri_test/images/redT.png'></img>	go	1700.0	2.0	31.0	go	target	T	89,Middle Finger	71,Index Finger	1050.0	1050.0	1700.0	1700.0	0.0	n/a	1050.0	0.0	ITI
151197	500	n/a	-1	-1	500	0.0	fixation	poldrack-single-stim	645	1781401	0.0-25.32-0.32	beast_fmri_test	311	1781094,/	t	<div class = centerbox2><div class = fixation>+</div></div>	none	500.0	test	n/a	n/a	n/a	n/a	n/a	n/a	n/a	n/a	n/a	n/a	n/a	n/a	n/a	n/a	n/a	n/a	n/a	n/a	fixation
150833.21064055013	2750	n/a	1604	71	2750	363.78935945	stim	stop-signal	646	1784151	0.0-25.32-1.32	beast_fmri_test	311	1781773,/,1782453,/,1783132,/,1783812,/,1784492,/	t,t,t,t,t	<img class = center src='/static/experiments/beast_fmri_test/images/B.png'></img>	89,71	2750.0	test	<img class = center src='/static/experiments/beast_fmri_test/images/redB.png'></img>	go	1700.0	2.0	32.0	go	non-target	B	89,Middle Finger	71,Index Finger	1050.0	1050.0	1700.0	1700.0	1.0	n/a	1050.0	1.0	go_stim
153583.21064055013	363.7893594498172	n/a	1604	71	2750	363.78935945	stim	stop-signal	646	1784151	0.0-25.32-1.32	beast_fmri_test	311	1781773,/,1782453,/,1783132,/,1783812,/,1784492,/	t,t,t,t,t	<img class = center src='/static/experiments/beast_fmri_test/images/B.png'></img>	89,71	2750.0	test	<img class = center src='/static/experiments/beast_fmri_test/images/redB.png'></img>	go	1700.0	2.0	32.0	go	non-target	B	89,Middle Finger	71,Index Finger	1050.0	1050.0	1700.0	1700.0	1.0	n/a	1050.0	1.0	ITI
154889	500	n/a	-1	-1	500	0.0	fixation	poldrack-single-stim	647	1785093	0.0-25.33-0.33	beast_fmri_test	311	n/a	n/a	<div class = centerbox2><div class = fixation>+</div></div>	none	500.0	test	n/a	n/a	n/a	n/a	n/a	n/a	n/a	n/a	n/a	n/a	n/a	n/a	n/a	n/a	n/a	n/a	n/a	n/a	fixation
154730.4179680394	1050.0	n/a	-1	-1	2750	161.582031961	stim	stop-signal	648	1787846	0.0-25.33-1.33	beast_fmri_test	311	1785171,/,1785852,/,1786531,/,1787211,/,1787890,/	t,t,t,t,t	<img class = center src='/static/experiments/beast_fmri_test/images/V.png'></img>	89,71	2750.0	test	<img class = center src='/static/experiments/beast_fmri_test/images/redV.png'></img>	stop	1700.0	2.0	33.0	stop	non-target	V	89,Middle Finger	71,Index Finger	1050.0	1050.0	1700.0	1700.0	0.0	1.0	1050.0	n/a	go_stim
156430.4179680394	1700.0	n/a	-1	-1	2750	161.582031961	stim	stop-signal	648	1787846	0.0-25.33-1.33	beast_fmri_test	311	1785171,/,1785852,/,1786531,/,1787211,/,1787890,/	t,t,t,t,t	<img class = center src='/static/experiments/beast_fmri_test/images/V.png'></img>	89,71	2750.0	test	<img class = center src='/static/experiments/beast_fmri_test/images/redV.png'></img>	stop	1700.0	2.0	33.0	stop	non-target	V	89,Middle Finger	71,Index Finger	1050.0	1050.0	1700.0	1700.0	0.0	1.0	1050.0	n/a	stop_stim
157480.4179680394	161.58203196061987	n/a	-1	-1	2750	161.582031961	stim	stop-signal	648	1787846	0.0-25.33-1.33	beast_fmri_test	311	1785171,/,1785852,/,1786531,/,1787211,/,1787890,/	t,t,t,t,t	<img class = center src='/static/experiments/beast_fmri_test/images/V.png'></img>	89,71	2750.0	test	<img class = center src='/static/experiments/beast_fmri_test/images/redV.png'></img>	stop	1700.0	2.0	33.0	stop	non-target	V	89,Middle Finger	71,Index Finger	1050.0	1050.0	1700.0	1700.0	0.0	1.0	1050.0	n/a	ITI
158378	500	n/a	-1	-1	500	0.0	fixation	poldrack-single-stim	649	1788582	0.0-25.34-0.34	beast_fmri_test	311	1788570,/	t	<div class = centerbox2><div class = fixation>+</div></div>	none	500.0	test	n/a	n/a	n/a	n/a	n/a	n/a	n/a	n/a	n/a	n/a	n/a	n/a	n/a	n/a	n/a	n/a	n/a	n/a	fixation
157927.06904378929	1100.0	n/a	-1	-1	2750	453.930956211	stim	stop-signal	650	1791335	0.0-25.34-1.34	beast_fmri_test	311	1789250,/,1789930,/,1790610,/,1791289,/	t,t,t,t	<img class = center src='/static/experiments/beast_fmri_test/images/D.png'></img>	89,71	2750.0	test	<img class = center src='/static/experiments/beast_fmri_test/images/redD.png'></img>	stop	1650.0	2.0	34.0	stop	non-target	D	89,Middle Finger	71,Index Finger	1050.0	1100.0	1700.0	1650.0	0.0	1.0	1100.0	n/a	go_stim
159577.06904378929	1650.0	n/a	-1	-1	2750	453.930956211	stim	stop-signal	650	1791335	0.0-25.34-1.34	beast_fmri_test	311	1789250,/,1789930,/,1790610,/,1791289,/	t,t,t,t	<img class = center src='/static/experiments/beast_fmri_test/images/D.png'></img>	89,71	2750.0	test	<img class = center src='/static/experiments/beast_fmri_test/images/redD.png'></img>	stop	1650.0	2.0	34.0	stop	non-target	D	89,Middle Finger	71,Index Finger	1050.0	1100.0	1700.0	1650.0	0.0	1.0	1100.0	n/a	stop_stim
160677.06904378929	453.93095621060564	n/a	-1	-1	2750	453.930956211	stim	stop-signal	650	1791335	0.0-25.34-1.34	beast_fmri_test	311	1789250,/,1789930,/,1790610,/,1791289,/	t,t,t,t	<img class = center src='/static/experiments/beast_fmri_test/images/D.png'></img>	89,71	2750.0	test	<img class = center src='/static/experiments/beast_fmri_test/images/redD.png'></img>	stop	1650.0	2.0	34.0	stop	non-target	D	89,Middle Finger	71,Index Finger	1050.0	1100.0	1700.0	1650.0	0.0	1.0	1100.0	n/a	ITI
162160	500	n/a	-1	-1	500	0.0	fixation	poldrack-single-stim	651	1792364	0.0-25.35-0.35	beast_fmri_test	311	1791969,/	t	<div class = centerbox2><div class = fixation>+</div></div>	none	500.0	test	n/a	n/a	n/a	n/a	n/a	n/a	n/a	n/a	n/a	n/a	n/a	n/a	n/a	n/a	n/a	n/a	n/a	n/a	fixation
162038.39069811651	2750	n/a	1901	71	2750	123.609301883	stim	stop-signal	652	1795116	0.0-25.35-1.35	beast_fmri_test	311	1792649,/,1793328,/,1794007,/,1794688,/	t,t,t,t	<img class = center src='/static/experiments/beast_fmri_test/images/B.png'></img>	89,71	2750.0	test	<img class = center src='/static/experiments/beast_fmri_test/images/redB.png'></img>	go	1600.0	2.0	35.0	go	non-target	B	89,Middle Finger	71,Index Finger	1050.0	1150.0	1700.0	1600.0	1.0	n/a	1150.0	1.0	go_stim
164788.39069811651	123.60930188338106	n/a	1901	71	2750	123.609301883	stim	stop-signal	652	1795116	0.0-25.35-1.35	beast_fmri_test	311	1792649,/,1793328,/,1794007,/,1794688,/	t,t,t,t	<img class = center src='/static/experiments/beast_fmri_test/images/B.png'></img>	89,71	2750.0	test	<img class = center src='/static/experiments/beast_fmri_test/images/redB.png'></img>	go	1600.0	2.0	35.0	go	non-target	B	89,Middle Finger	71,Index Finger	1050.0	1150.0	1700.0	1600.0	1.0	n/a	1150.0	1.0	ITI
165604	500	n/a	-1	-1	500	0.0	fixation	poldrack-single-stim	653	1795808	0.0-25.36-0.36	beast_fmri_test	311	1795367,/	t	<div class = centerbox2><div class = fixation>+</div></div>	none	500.0	test	n/a	n/a	n/a	n/a	n/a	n/a	n/a	n/a	n/a	n/a	n/a	n/a	n/a	n/a	n/a	n/a	n/a	n/a	fixation
164338.67704272969	2750	n/a	2193	71	2750	1267.32295727	stim	stop-signal	654	1798560	0.0-25.36-1.36	beast_fmri_test	311	1796048,/,1796727,/,1797407,/,1798086,/,1798767,/,1799446,/	t,t,t,t,t,t	<img class = center src='/static/experiments/beast_fmri_test/images/V.png'></img>	89,71	2750.0	test	<img class = center src='/static/experiments/beast_fmri_test/images/redV.png'></img>	go	1600.0	2.0	36.0	go	non-target	V	89,Middle Finger	71,Index Finger	1050.0	1150.0	1700.0	1600.0	1.0	n/a	1150.0	1.0	go_stim
167088.67704272969	1267.3229572702535	n/a	2193	71	2750	1267.32295727	stim	stop-signal	654	1798560	0.0-25.36-1.36	beast_fmri_test	311	1796048,/,1796727,/,1797407,/,1798086,/,1798767,/,1799446,/	t,t,t,t,t,t	<img class = center src='/static/experiments/beast_fmri_test/images/V.png'></img>	89,71	2750.0	test	<img class = center src='/static/experiments/beast_fmri_test/images/redV.png'></img>	go	1600.0	2.0	36.0	go	non-target	V	89,Middle Finger	71,Index Finger	1050.0	1150.0	1700.0	1600.0	1.0	n/a	1150.0	1.0	ITI
170197	500	n/a	-1	-1	500	0.0	fixation	poldrack-single-stim	655	1800401	0.0-25.37-0.37	beast_fmri_test	311	1800126,/	t	<div class = centerbox2><div class = fixation>+</div></div>	none	500.0	test	n/a	n/a	n/a	n/a	n/a	n/a	n/a	n/a	n/a	n/a	n/a	n/a	n/a	n/a	n/a	n/a	n/a	n/a	fixation
168924.97830575262	1150.0	n/a	969	71	2750	1275.02169425	stim	stop-signal	656	1803154	0.0-25.37-1.37	beast_fmri_test	311	1800806,/,1801485,/,1802163,/,1802844,/,1803524,/,1804204,/	t,t,t,t,t,t	<img class = center src='/static/experiments/beast_fmri_test/images/T.png'></img>	89,71	2750.0	test	<img class = center src='/static/experiments/beast_fmri_test/images/redT.png'></img>	stop	1600.0	2.0	37.0	stop	non-target	T	89,Middle Finger	71,Index Finger	1050.0	1150.0	1700.0	1600.0	0.0	0.0	1150.0	n/a	go_stim
170524.97830575262	1600.0	n/a	969	71	2750	1275.02169425	stim	stop-signal	656	1803154	0.0-25.37-1.37	beast_fmri_test	311	1800806,/,1801485,/,1802163,/,1802844,/,1803524,/,1804204,/	t,t,t,t,t,t	<img class = center src='/static/experiments/beast_fmri_test/images/T.png'></img>	89,71	2750.0	test	<img class = center src='/static/experiments/beast_fmri_test/images/redT.png'></img>	stop	1600.0	2.0	37.0	stop	non-target	T	89,Middle Finger	71,Index Finger	1050.0	1150.0	1700.0	1600.0	0.0	0.0	1150.0	n/a	stop_stim
171674.97830575262	1275.0216942472855	n/a	969	71	2750	1275.02169425	stim	stop-signal	656	1803154	0.0-25.37-1.37	beast_fmri_test	311	1800806,/,1801485,/,1802163,/,1802844,/,1803524,/,1804204,/	t,t,t,t,t,t	<img class = center src='/static/experiments/beast_fmri_test/images/T.png'></img>	89,71	2750.0	test	<img class = center src='/static/experiments/beast_fmri_test/images/redT.png'></img>	stop	1600.0	2.0	37.0	stop	non-target	T	89,Middle Finger	71,Index Finger	1050.0	1150.0	1700.0	1600.0	0.0	0.0	1150.0	n/a	ITI
174806	500	n/a	-1	-1	500	0.0	fixation	poldrack-single-stim	657	1805010	0.0-25.38-0.38	beast_fmri_test	311	1804884,/	t	<div class = centerbox2><div class = fixation>+</div></div>	none	500.0	test	n/a	n/a	n/a	n/a	n/a	n/a	n/a	n/a	n/a	n/a	n/a	n/a	n/a	n/a	n/a	n/a	n/a	n/a	fixation
170826.0059237862	1100.0	n/a	1096	71	2750	3982.99407621	stim	stop-signal	658	1807763	0.0-25.38-1.38	beast_fmri_test	311	1805563,/,1806242,/,1806922,/,1807602,/,1808280,/,1808960,/,1809641,/,1810320,/,1811000,/,1811680,/	t,t,t,t,t,t,t,t,t,t	<img class = center src='/static/experiments/beast_fmri_test/images/P.png'></img>	89,71	2750.0	test	<img class = center src='/static/experiments/beast_fmri_test/images/redP.png'></img>	stop	1650.0	2.0	38.0	stop	non-target	P	89,Middle Finger	71,Index Finger	1050.0	1100.0	1700.0	1650.0	0.0	0.0	1100.0	n/a	go_stim
172476.0059237862	1650.0	n/a	1096	71	2750	3982.99407621	stim	stop-signal	658	1807763	0.0-25.38-1.38	beast_fmri_test	311	1805563,/,1806242,/,1806922,/,1807602,/,1808280,/,1808960,/,1809641,/,1810320,/,1811000,/,1811680,/	t,t,t,t,t,t,t,t,t,t	<img class = center src='/static/experiments/beast_fmri_test/images/P.png'></img>	89,71	2750.0	test	<img class = center src='/static/experiments/beast_fmri_test/images/redP.png'></img>	stop	1650.0	2.0	38.0	stop	non-target	P	89,Middle Finger	71,Index Finger	1050.0	1100.0	1700.0	1650.0	0.0	0.0	1100.0	n/a	stop_stim
173576.0059237862	3982.9940762137862	n/a	1096	71	2750	3982.99407621	stim	stop-signal	658	1807763	0.0-25.38-1.38	beast_fmri_test	311	1805563,/,1806242,/,1806922,/,1807602,/,1808280,/,1808960,/,1809641,/,1810320,/,1811000,/,1811680,/	t,t,t,t,t,t,t,t,t,t	<img class = center src='/static/experiments/beast_fmri_test/images/P.png'></img>	89,71	2750.0	test	<img class = center src='/static/experiments/beast_fmri_test/images/redP.png'></img>	stop	1650.0	2.0	38.0	stop	non-target	P	89,Middle Finger	71,Index Finger	1050.0	1100.0	1700.0	1650.0	0.0	0.0	1100.0	n/a	ITI
182112	500	n/a	-1	-1	500	0.0	fixation	poldrack-single-stim	659	1812316	0.0-25.39-0.39	beast_fmri_test	311	n/a	n/a	<div class = centerbox2><div class = fixation>+</div></div>	none	500.0	test	n/a	n/a	n/a	n/a	n/a	n/a	n/a	n/a	n/a	n/a	n/a	n/a	n/a	n/a	n/a	n/a	n/a	n/a	fixation
181733.80304577993	1050.0	n/a	-1	-1	2750	380.19695422	stim	stop-signal	660	1815068	0.0-25.39-1.39	beast_fmri_test	311	1812358,/,1813039,/,1813719,/,1814399,/,1815080,/	t,t,t,t,t	<img class = center src='/static/experiments/beast_fmri_test/images/T.png'></img>	89,71	2750.0	test	<img class = center src='/static/experiments/beast_fmri_test/images/redT.png'></img>	stop	1700.0	2.0	39.0	stop	target	T	89,Middle Finger	71,Index Finger	1050.0	1050.0	1700.0	1650.0	0.0	1.0	1050.0	n/a	go_stim
183433.80304577993	1700.0	n/a	-1	-1	2750	380.19695422	stim	stop-signal	660	1815068	0.0-25.39-1.39	beast_fmri_test	311	1812358,/,1813039,/,1813719,/,1814399,/,1815080,/	t,t,t,t,t	<img class = center src='/static/experiments/beast_fmri_test/images/T.png'></img>	89,71	2750.0	test	<img class = center src='/static/experiments/beast_fmri_test/images/redT.png'></img>	stop	1700.0	2.0	39.0	stop	target	T	89,Middle Finger	71,Index Finger	1050.0	1050.0	1700.0	1650.0	0.0	1.0	1050.0	n/a	stop_stim
184483.80304577993	380.19695422014536	n/a	-1	-1	2750	380.19695422	stim	stop-signal	660	1815068	0.0-25.39-1.39	beast_fmri_test	311	1812358,/,1813039,/,1813719,/,1814399,/,1815080,/	t,t,t,t,t	<img class = center src='/static/experiments/beast_fmri_test/images/T.png'></img>	89,71	2750.0	test	<img class = center src='/static/experiments/beast_fmri_test/images/redT.png'></img>	stop	1700.0	2.0	39.0	stop	target	T	89,Middle Finger	71,Index Finger	1050.0	1050.0	1700.0	1650.0	0.0	1.0	1050.0	n/a	ITI
185822	500	n/a	-1	-1	500	0.0	fixation	poldrack-single-stim	661	1816026	0.0-25.40-0.40	beast_fmri_test	311	1815759,/	t	<div class = centerbox2><div class = fixation>+</div></div>	none	500.0	test	n/a	n/a	n/a	n/a	n/a	n/a	n/a	n/a	n/a	n/a	n/a	n/a	n/a	n/a	n/a	n/a	n/a	n/a	fixation
185251.19945884706	2750	n/a	1729	71	2750	573.800541153	stim	stop-signal	662	1818779	0.0-25.40-1.40	beast_fmri_test	311	1816437,/,1817117,/,1817796,/,1818477,/,1819157,/	t,t,t,t,t	<img class = center src='/static/experiments/beast_fmri_test/images/B.png'></img>	89,71	2750.0	test	<img class = center src='/static/experiments/beast_fmri_test/images/redB.png'></img>	go	1700.0	2.0	40.0	go	non-target	B	89,Middle Finger	71,Index Finger	1100.0	1050.0	1700.0	1700.0	1.0	n/a	1050.0	1.0	go_stim
188001.19945884706	573.80054115296628	n/a	1729	71	2750	573.800541153	stim	stop-signal	662	1818779	0.0-25.40-1.40	beast_fmri_test	311	1816437,/,1817117,/,1817796,/,1818477,/,1819157,/	t,t,t,t,t	<img class = center src='/static/experiments/beast_fmri_test/images/B.png'></img>	89,71	2750.0	test	<img class = center src='/static/experiments/beast_fmri_test/images/redB.png'></img>	go	1700.0	2.0	40.0	go	non-target	B	89,Middle Finger	71,Index Finger	1100.0	1050.0	1700.0	1700.0	1.0	n/a	1050.0	1.0	ITI
189714	500	n/a	-1	-1	500	0.0	fixation	poldrack-single-stim	663	1819918	0.0-25.41-0.41	beast_fmri_test	311	1819836,/	t	<div class = centerbox2><div class = fixation>+</div></div>	none	500.0	test	n/a	n/a	n/a	n/a	n/a	n/a	n/a	n/a	n/a	n/a	n/a	n/a	n/a	n/a	n/a	n/a	n/a	n/a	fixation
189162.50046114298	2750	n/a	1571	71	2750	554.499538857	stim	stop-signal	664	1822671	0.0-25.41-1.41	beast_fmri_test	311	1820516,/,1821196,/,1821875,/,1822556,/	t,t,t,t	<img class = center src='/static/experiments/beast_fmri_test/images/B.png'></img>	89,71	2750.0	test	<img class = center src='/static/experiments/beast_fmri_test/images/redB.png'></img>	go	1700.0	2.0	41.0	go	non-target	B	89,Middle Finger	71,Index Finger	1100.0	1050.0	1700.0	1700.0	1.0	n/a	1050.0	1.0	go_stim
191912.50046114298	554.49953885710818	n/a	1571	71	2750	554.499538857	stim	stop-signal	664	1822671	0.0-25.41-1.41	beast_fmri_test	311	1820516,/,1821196,/,1821875,/,1822556,/	t,t,t,t	<img class = center src='/static/experiments/beast_fmri_test/images/B.png'></img>	89,71	2750.0	test	<img class = center src='/static/experiments/beast_fmri_test/images/redB.png'></img>	go	1700.0	2.0	41.0	go	non-target	B	89,Middle Finger	71,Index Finger	1100.0	1050.0	1700.0	1700.0	1.0	n/a	1050.0	1.0	ITI
193591	500	n/a	-1	-1	500	0.0	fixation	poldrack-single-stim	665	1823795	0.0-25.42-0.42	beast_fmri_test	311	1823293,/	t	<div class = centerbox2><div class = fixation>+</div></div>	none	500.0	test	n/a	n/a	n/a	n/a	n/a	n/a	n/a	n/a	n/a	n/a	n/a	n/a	n/a	n/a	n/a	n/a	n/a	n/a	fixation
193391.42186588072	2750	n/a	1614	71	2750	201.578134119	stim	stop-signal	666	1826547	0.0-25.42-1.42	beast_fmri_test	311	1823915,/,1824595,/,1825274,/,1825953,/,1826634,/	t,t,t,t,t	<img class = center src='/static/experiments/beast_fmri_test/images/T.png'></img>	89,71	2750.0	test	<img class = center src='/static/experiments/beast_fmri_test/images/redT.png'></img>	go	1700.0	2.0	42.0	go	non-target	T	89,Middle Finger	71,Index Finger	1100.0	1050.0	1700.0	1700.0	1.0	n/a	1050.0	1.0	go_stim
196141.42186588072	201.57813411923118	n/a	1614	71	2750	201.578134119	stim	stop-signal	666	1826547	0.0-25.42-1.42	beast_fmri_test	311	1823915,/,1824595,/,1825274,/,1825953,/,1826634,/	t,t,t,t,t	<img class = center src='/static/experiments/beast_fmri_test/images/T.png'></img>	89,71	2750.0	test	<img class = center src='/static/experiments/beast_fmri_test/images/redT.png'></img>	go	1700.0	2.0	42.0	go	non-target	T	89,Middle Finger	71,Index Finger	1100.0	1050.0	1700.0	1700.0	1.0	n/a	1050.0	1.0	ITI
197114	500	n/a	-1	-1	500	0.0	fixation	poldrack-single-stim	667	1827318	0.0-25.43-0.43	beast_fmri_test	311	1827313,/	t	<div class = centerbox2><div class = fixation>+</div></div>	none	500.0	test	n/a	n/a	n/a	n/a	n/a	n/a	n/a	n/a	n/a	n/a	n/a	n/a	n/a	n/a	n/a	n/a	n/a	n/a	fixation
196862.11627279548	1050.0	n/a	-1	-1	2750	252.883727205	stim	stop-signal	668	1830069	0.0-25.43-1.43	beast_fmri_test	311	1827993,/,1828673,/,1829352,/,1830031,/	t,t,t,t	<img class = center src='/static/experiments/beast_fmri_test/images/V.png'></img>	89,71	2750.0	test	<img class = center src='/static/experiments/beast_fmri_test/images/redV.png'></img>	stop	1700.0	2.0	43.0	stop	non-target	V	89,Middle Finger	71,Index Finger	1100.0	1050.0	1700.0	1700.0	0.0	1.0	1050.0	n/a	go_stim
198562.11627279548	1700.0	n/a	-1	-1	2750	252.883727205	stim	stop-signal	668	1830069	0.0-25.43-1.43	beast_fmri_test	311	1827993,/,1828673,/,1829352,/,1830031,/	t,t,t,t	<img class = center src='/static/experiments/beast_fmri_test/images/V.png'></img>	89,71	2750.0	test	<img class = center src='/static/experiments/beast_fmri_test/images/redV.png'></img>	stop	1700.0	2.0	43.0	stop	non-target	V	89,Middle Finger	71,Index Finger	1100.0	1050.0	1700.0	1700.0	0.0	1.0	1050.0	n/a	stop_stim
199612.11627279548	252.88372720461447	n/a	-1	-1	2750	252.883727205	stim	stop-signal	668	1830069	0.0-25.43-1.43	beast_fmri_test	311	1827993,/,1828673,/,1829352,/,1830031,/	t,t,t,t	<img class = center src='/static/experiments/beast_fmri_test/images/V.png'></img>	89,71	2750.0	test	<img class = center src='/static/experiments/beast_fmri_test/images/redV.png'></img>	stop	1700.0	2.0	43.0	stop	non-target	V	89,Middle Finger	71,Index Finger	1100.0	1050.0	1700.0	1700.0	0.0	1.0	1050.0	n/a	ITI
200686	500	n/a	-1	-1	500	0.0	fixation	poldrack-single-stim	669	1830890	0.0-25.44-0.44	beast_fmri_test	311	1830711,/	t	<div class = centerbox2><div class = fixation>+</div></div>	none	500.0	test	n/a	n/a	n/a	n/a	n/a	n/a	n/a	n/a	n/a	n/a	n/a	n/a	n/a	n/a	n/a	n/a	n/a	n/a	fixation
199577.67481480027	1100.0	n/a	-1	-1	2750	1110.3251852	stim	stop-signal	670	1833642	0.0-25.44-1.44	beast_fmri_test	311	1831391,/,1832071,/,1832751,/,1833430,/,1834110,/	t,t,t,t,t	<img class = center src='/static/experiments/beast_fmri_test/images/T.png'></img>	89,71	2750.0	test	<img class = center src='/static/experiments/beast_fmri_test/images/redT.png'></img>	stop	1650.0	2.0	44.0	stop	target	T	89,Middle Finger	71,Index Finger	1100.0	1100.0	1650.0	1700.0	0.0	1.0	1100.0	n/a	go_stim
201227.67481480027	1650.0	n/a	-1	-1	2750	1110.3251852	stim	stop-signal	670	1833642	0.0-25.44-1.44	beast_fmri_test	311	1831391,/,1832071,/,1832751,/,1833430,/,1834110,/	t,t,t,t,t	<img class = center src='/static/experiments/beast_fmri_test/images/T.png'></img>	89,71	2750.0	test	<img class = center src='/static/experiments/beast_fmri_test/images/redT.png'></img>	stop	1650.0	2.0	44.0	stop	target	T	89,Middle Finger	71,Index Finger	1100.0	1100.0	1650.0	1700.0	0.0	1.0	1100.0	n/a	stop_stim
202327.67481480027	1110.325185199709	n/a	-1	-1	2750	1110.3251852	stim	stop-signal	670	1833642	0.0-25.44-1.44	beast_fmri_test	311	1831391,/,1832071,/,1832751,/,1833430,/,1834110,/	t,t,t,t,t	<img class = center src='/static/experiments/beast_fmri_test/images/T.png'></img>	89,71	2750.0	test	<img class = center src='/static/experiments/beast_fmri_test/images/redT.png'></img>	stop	1650.0	2.0	44.0	stop	target	T	89,Middle Finger	71,Index Finger	1100.0	1100.0	1650.0	1700.0	0.0	1.0	1100.0	n/a	ITI
205116	500	n/a	-1	-1	500	0.0	fixation	poldrack-single-stim	671	1835320	0.0-25.45-0.45	beast_fmri_test	311	1834818,/	t	<div class = centerbox2><div class = fixation>+</div></div>	none	500.0	test	n/a	n/a	n/a	n/a	n/a	n/a	n/a	n/a	n/a	n/a	n/a	n/a	n/a	n/a	n/a	n/a	n/a	n/a	fixation
205083.81709419796	2750	n/a	1246	89	2750	33.1829058021	stim	stop-signal	672	1838071	0.0-25.45-1.45	beast_fmri_test	311	1835469,/,1836149,/,1836829,/,1837509,/	t,t,t,t	<img class = center src='/static/experiments/beast_fmri_test/images/V.png'></img>	89,71	2750.0	test	<img class = center src='/static/experiments/beast_fmri_test/images/redV.png'></img>	go	1600.0	2.0	45.0	go	target	V	89,Middle Finger	71,Index Finger	1150.0	1100.0	1600.0	1700.0	1.0	n/a	1150.0	1.0	go_stim
207833.81709419796	33.182905802119755	n/a	1246	89	2750	33.1829058021	stim	stop-signal	672	1838071	0.0-25.45-1.45	beast_fmri_test	311	1835469,/,1836149,/,1836829,/,1837509,/	t,t,t,t	<img class = center src='/static/experiments/beast_fmri_test/images/V.png'></img>	89,71	2750.0	test	<img class = center src='/static/experiments/beast_fmri_test/images/redV.png'></img>	go	1600.0	2.0	45.0	go	target	V	89,Middle Finger	71,Index Finger	1150.0	1100.0	1600.0	1700.0	1.0	n/a	1150.0	1.0	ITI
208481	500	n/a	-1	-1	500	0.0	fixation	poldrack-single-stim	673	1838685	0.0-25.46-0.46	beast_fmri_test	311	1838189,/	t	<div class = centerbox2><div class = fixation>+</div></div>	none	500.0	test	n/a	n/a	n/a	n/a	n/a	n/a	n/a	n/a	n/a	n/a	n/a	n/a	n/a	n/a	n/a	n/a	n/a	n/a	fixation
205119.81166875944	2750	n/a	1498	71	2750	3362.18833124	stim	stop-signal	674	1841436	0.0-25.46-1.46	beast_fmri_test	311	1838868,/,1839547,/,1840225,/,1840907,/,1841586,/,1842266,/,1842945,/,1843625,/,1844304,/	t,t,t,t,t,t,t,t,t	<img class = center src='/static/experiments/beast_fmri_test/images/B.png'></img>	89,71	2750.0	test	<img class = center src='/static/experiments/beast_fmri_test/images/redB.png'></img>	go	1650.0	2.0	46.0	go	non-target	B	89,Middle Finger	71,Index Finger	1150.0	1100.0	1600.0	1650.0	1.0	n/a	1100.0	1.0	go_stim
207869.81166875944	3362.1883312406035	n/a	1498	71	2750	3362.18833124	stim	stop-signal	674	1841436	0.0-25.46-1.46	beast_fmri_test	311	1838868,/,1839547,/,1840225,/,1840907,/,1841586,/,1842266,/,1842945,/,1843625,/,1844304,/	t,t,t,t,t,t,t,t,t	<img class = center src='/static/experiments/beast_fmri_test/images/B.png'></img>	89,71	2750.0	test	<img class = center src='/static/experiments/beast_fmri_test/images/redB.png'></img>	go	1650.0	2.0	46.0	go	non-target	B	89,Middle Finger	71,Index Finger	1150.0	1100.0	1600.0	1650.0	1.0	n/a	1100.0	1.0	ITI
229662	15000	n/a	-1	-1	15000	0.0	practice-no-stop-feedback	poldrack-single-stim	675	1859866	0.0-26.0	beast_fmri_test	311	1844984,/,1845665,/,1846343,/,1847022,/,1847703,/,1848383,/,1849062,/,1849743,/,1850423,/,1851102,/,1851782,/,1852463,/,1853141,/,1853822,/,1854502,/,1855181,/,1855861,/,1856540,/,1857220,/,1857899,/,1858578,/,1859258,/	t,t,t,t,t,t,t,t,t,t,t,t,t,t,t,t,t,t,t,t,t,t	"<div class = ""centerbox""><p class = ""block-text"">Your delay is 1 trials.</p><p class = block-text>Please wait for the scanner to start the block</p></div>"	77	15000.0	n/a	n/a	n/a	n/a	n/a	n/a	n/a	n/a	n/a	n/a	n/a	n/a	n/a	n/a	n/a	n/a	n/a	n/a	n/a	practice-no-stop-feedback
230164	500	n/a	-1	-1	500	0.0	fixation	poldrack-single-stim	676	1860368	0.0-27.0-0.0	beast_fmri_test	311	1859939,/	t	<div class = centerbox2><div class = fixation>+</div></div>	none	500.0	test	n/a	n/a	n/a	n/a	n/a	n/a	n/a	n/a	n/a	n/a	n/a	n/a	n/a	n/a	n/a	n/a	n/a	n/a	fixation
228810.887718749	temp_go_duration	n/a	1125	71	2750	1354.11228125	stim	stop-signal	677	1863119	0.0-27.0-1.0	beast_fmri_test	311	1860618,/,1861298,/,1861977,/,1862656,/,1863336,/,1864016,/	t,t,t,t,t,t	<img class = center src='/static/experiments/beast_fmri_test/images/V.png'></img>	89,71	2750.0	test	<img class = center src='/static/experiments/beast_fmri_test/images/redV.png'></img>	stop	-1.0	1.0	0.0	stop	temp-non-target	V	89,Middle Finger	71,Index Finger	1150.0	1100.0	1600.0	1650.0	0.0	0.0	n/a	n/a	go_stim
temp-non-target	temp_stop_duration	n/a	1125	71	2750	1354.11228125	stim	stop-signal	677	1863119	0.0-27.0-1.0	beast_fmri_test	311	1860618,/,1861298,/,1861977,/,1862656,/,1863336,/,1864016,/	t,t,t,t,t,t	<img class = center src='/static/experiments/beast_fmri_test/images/V.png'></img>	89,71	2750.0	test	<img class = center src='/static/experiments/beast_fmri_test/images/redV.png'></img>	stop	-1.0	1.0	0.0	stop	temp-non-target	V	89,Middle Finger	71,Index Finger	1150.0	1100.0	1600.0	1650.0	0.0	0.0	n/a	n/a	stop_stim
231560.887718749	1354.112281251043	n/a	1125	71	2750	1354.11228125	stim	stop-signal	677	1863119	0.0-27.0-1.0	beast_fmri_test	311	1860618,/,1861298,/,1861977,/,1862656,/,1863336,/,1864016,/	t,t,t,t,t,t	<img class = center src='/static/experiments/beast_fmri_test/images/V.png'></img>	89,71	2750.0	test	<img class = center src='/static/experiments/beast_fmri_test/images/redV.png'></img>	stop	-1.0	1.0	0.0	stop	temp-non-target	V	89,Middle Finger	71,Index Finger	1150.0	1100.0	1600.0	1650.0	0.0	0.0	n/a	n/a	ITI
234838	500	n/a	-1	-1	500	0.0	fixation	poldrack-single-stim	678	1865042	0.0-27.1-0.1	beast_fmri_test	311	1864696,/	t	<div class = centerbox2><div class = fixation>+</div></div>	none	500.0	test	n/a	n/a	n/a	n/a	n/a	n/a	n/a	n/a	n/a	n/a	n/a	n/a	n/a	n/a	n/a	n/a	n/a	n/a	fixation
234717.67445835052	2750	n/a	760	71	2750	122.32554165	stim	stop-signal	679	1867794	0.0-27.1-1.1	beast_fmri_test	311	1865376,/,1866055,/,1866735,/,1867414,/	t,t,t,t	<img class = center src='/static/experiments/beast_fmri_test/images/T.png'></img>	89,71	2750.0	test	<img class = center src='/static/experiments/beast_fmri_test/images/redT.png'></img>	go	1650.0	1.0	1.0	go	non-target	T	89,Middle Finger	71,Index Finger	1150.0	1100.0	1600.0	1650.0	1.0	n/a	1100.0	1.0	go_stim
237467.67445835052	122.32554164955201	n/a	760	71	2750	122.32554165	stim	stop-signal	679	1867794	0.0-27.1-1.1	beast_fmri_test	311	1865376,/,1866055,/,1866735,/,1867414,/	t,t,t,t	<img class = center src='/static/experiments/beast_fmri_test/images/T.png'></img>	89,71	2750.0	test	<img class = center src='/static/experiments/beast_fmri_test/images/redT.png'></img>	go	1650.0	1.0	1.0	go	non-target	T	89,Middle Finger	71,Index Finger	1150.0	1100.0	1600.0	1650.0	1.0	n/a	1100.0	1.0	ITI
238288	500	n/a	-1	-1	500	0.0	fixation	poldrack-single-stim	680	1868492	0.0-27.2-0.2	beast_fmri_test	311	1868094,/	t	<div class = centerbox2><div class = fixation>+</div></div>	none	500.0	test	n/a	n/a	n/a	n/a	n/a	n/a	n/a	n/a	n/a	n/a	n/a	n/a	n/a	n/a	n/a	n/a	n/a	n/a	fixation
236622.94941058196	2750	n/a	784	89	2750	1666.05058942	stim	stop-signal	681	1871243	0.0-27.2-1.2	beast_fmri_test	311	1868774,/,1869454,/,1870133,/,1870813,/,1871493,/,1872172,/,1872852,/	t,t,t,t,t,t,t	<img class = center src='/static/experiments/beast_fmri_test/images/T.png'></img>	89,71	2750.0	test	<img class = center src='/static/experiments/beast_fmri_test/images/redT.png'></img>	go	1600.0	1.0	2.0	go	target	T	89,Middle Finger	71,Index Finger	1150.0	1100.0	1600.0	1650.0	1.0	n/a	1150.0	1.0	go_stim
239372.94941058196	1666.050589418129	n/a	784	89	2750	1666.05058942	stim	stop-signal	681	1871243	0.0-27.2-1.2	beast_fmri_test	311	1868774,/,1869454,/,1870133,/,1870813,/,1871493,/,1872172,/,1872852,/	t,t,t,t,t,t,t	<img class = center src='/static/experiments/beast_fmri_test/images/T.png'></img>	89,71	2750.0	test	<img class = center src='/static/experiments/beast_fmri_test/images/redT.png'></img>	go	1600.0	1.0	2.0	go	target	T	89,Middle Finger	71,Index Finger	1150.0	1100.0	1600.0	1650.0	1.0	n/a	1150.0	1.0	ITI
243281	500	n/a	-1	-1	500	0.0	fixation	poldrack-single-stim	682	1873485	0.0-27.3-0.3	beast_fmri_test	311	n/a	n/a	<div class = centerbox2><div class = fixation>+</div></div>	none	500.0	test	n/a	n/a	n/a	n/a	n/a	n/a	n/a	n/a	n/a	n/a	n/a	n/a	n/a	n/a	n/a	n/a	n/a	n/a	fixation
240589.04472541343	1100.0	n/a	811	71	2750	2693.95527459	stim	stop-signal	683	1876237	0.0-27.3-1.3	beast_fmri_test	311	1873531,/,1874211,/,1874891,/,1875571,/,1876250,/,1876930,/,1877609,/,1878289,/	t,t,t,t,t,t,t,t	<img class = center src='/static/experiments/beast_fmri_test/images/B.png'></img>	89,71	2750.0	test	<img class = center src='/static/experiments/beast_fmri_test/images/redB.png'></img>	stop	1650.0	1.0	3.0	stop	non-target	B	89,Middle Finger	71,Index Finger	1150.0	1100.0	1600.0	1650.0	0.0	0.0	1100.0	n/a	go_stim
242239.04472541343	1650.0	n/a	811	71	2750	2693.95527459	stim	stop-signal	683	1876237	0.0-27.3-1.3	beast_fmri_test	311	1873531,/,1874211,/,1874891,/,1875571,/,1876250,/,1876930,/,1877609,/,1878289,/	t,t,t,t,t,t,t,t	<img class = center src='/static/experiments/beast_fmri_test/images/B.png'></img>	89,71	2750.0	test	<img class = center src='/static/experiments/beast_fmri_test/images/redB.png'></img>	stop	1650.0	1.0	3.0	stop	non-target	B	89,Middle Finger	71,Index Finger	1150.0	1100.0	1600.0	1650.0	0.0	0.0	1100.0	n/a	stop_stim
243339.04472541343	2693.9552745865194	n/a	811	71	2750	2693.95527459	stim	stop-signal	683	1876237	0.0-27.3-1.3	beast_fmri_test	311	1873531,/,1874211,/,1874891,/,1875571,/,1876250,/,1876930,/,1877609,/,1878289,/	t,t,t,t,t,t,t,t	<img class = center src='/static/experiments/beast_fmri_test/images/B.png'></img>	89,71	2750.0	test	<img class = center src='/static/experiments/beast_fmri_test/images/redB.png'></img>	stop	1650.0	1.0	3.0	stop	non-target	B	89,Middle Finger	71,Index Finger	1150.0	1100.0	1600.0	1650.0	0.0	0.0	1100.0	n/a	ITI
249309	500	n/a	-1	-1	500	0.0	fixation	poldrack-single-stim	684	1879513	0.0-27.4-0.4	beast_fmri_test	311	1879011,/	t	<div class = centerbox2><div class = fixation>+</div></div>	none	500.0	test	n/a	n/a	n/a	n/a	n/a	n/a	n/a	n/a	n/a	n/a	n/a	n/a	n/a	n/a	n/a	n/a	n/a	n/a	fixation
247658.95944892731	2750	n/a	865	89	2750	1653.04055107	stim	stop-signal	685	1882266	0.0-27.4-1.4	beast_fmri_test	311	1879650,/,1880329,/,1881008,/,1881688,/,1882368,/,1883048,/,1883728,/	t,t,t,t,t,t,t	<img class = center src='/static/experiments/beast_fmri_test/images/B.png'></img>	89,71	2750.0	test	<img class = center src='/static/experiments/beast_fmri_test/images/redB.png'></img>	go	1600.0	1.0	4.0	go	target	B	89,Middle Finger	71,Index Finger	1150.0	1050.0	1600.0	1650.0	1.0	n/a	1150.0	1.0	go_stim
250408.95944892731	1653.0405510726214	n/a	865	89	2750	1653.04055107	stim	stop-signal	685	1882266	0.0-27.4-1.4	beast_fmri_test	311	1879650,/,1880329,/,1881008,/,1881688,/,1882368,/,1883048,/,1883728,/	t,t,t,t,t,t,t	<img class = center src='/static/experiments/beast_fmri_test/images/B.png'></img>	89,71	2750.0	test	<img class = center src='/static/experiments/beast_fmri_test/images/redB.png'></img>	go	1600.0	1.0	4.0	go	target	B	89,Middle Finger	71,Index Finger	1150.0	1050.0	1600.0	1650.0	1.0	n/a	1150.0	1.0	ITI
254295	500	n/a	-1	-1	500	0.0	fixation	poldrack-single-stim	686	1884499	0.0-27.5-0.5	beast_fmri_test	311	1884408,/	t	<div class = centerbox2><div class = fixation>+</div></div>	none	500.0	test	n/a	n/a	n/a	n/a	n/a	n/a	n/a	n/a	n/a	n/a	n/a	n/a	n/a	n/a	n/a	n/a	n/a	n/a	fixation
254189.13825132838	1150.0	n/a	825	89	2750	106.861748672	stim	stop-signal	687	1887250	0.0-27.5-1.5	beast_fmri_test	311	1885087,/,1885767,/,1886446,/,1887125,/	t,t,t,t	<img class = center src='/static/experiments/beast_fmri_test/images/B.png'></img>	89,71	2750.0	test	<img class = center src='/static/experiments/beast_fmri_test/images/redB.png'></img>	stop	1600.0	1.0	5.0	stop	target	B	89,Middle Finger	71,Index Finger	1150.0	1050.0	1600.0	1650.0	0.0	0.0	1150.0	n/a	go_stim
255789.13825132838	1600.0	n/a	825	89	2750	106.861748672	stim	stop-signal	687	1887250	0.0-27.5-1.5	beast_fmri_test	311	1885087,/,1885767,/,1886446,/,1887125,/	t,t,t,t	<img class = center src='/static/experiments/beast_fmri_test/images/B.png'></img>	89,71	2750.0	test	<img class = center src='/static/experiments/beast_fmri_test/images/redB.png'></img>	stop	1600.0	1.0	5.0	stop	target	B	89,Middle Finger	71,Index Finger	1150.0	1050.0	1600.0	1650.0	0.0	0.0	1150.0	n/a	stop_stim
256939.13825132838	106.86174867151381	n/a	825	89	2750	106.861748672	stim	stop-signal	687	1887250	0.0-27.5-1.5	beast_fmri_test	311	1885087,/,1885767,/,1886446,/,1887125,/	t,t,t,t	<img class = center src='/static/experiments/beast_fmri_test/images/B.png'></img>	89,71	2750.0	test	<img class = center src='/static/experiments/beast_fmri_test/images/redB.png'></img>	stop	1600.0	1.0	5.0	stop	target	B	89,Middle Finger	71,Index Finger	1150.0	1050.0	1600.0	1650.0	0.0	0.0	1150.0	n/a	ITI
257724	500	n/a	-1	-1	500	0.0	fixation	poldrack-single-stim	688	1887928	0.0-27.6-0.6	beast_fmri_test	311	1887805,/	t	<div class = centerbox2><div class = fixation>+</div></div>	none	500.0	test	n/a	n/a	n/a	n/a	n/a	n/a	n/a	n/a	n/a	n/a	n/a	n/a	n/a	n/a	n/a	n/a	n/a	n/a	fixation
256105.65522455121	2750	n/a	1322	71	2750	1621.34477545	stim	stop-signal	689	1890681	0.0-27.6-1.6	beast_fmri_test	311	1888485,/,1889164,/,1889844,/,1890524,/,1891203,/,1891883,/	t,t,t,t,t,t	<img class = center src='/static/experiments/beast_fmri_test/images/V.png'></img>	89,71	2750.0	test	<img class = center src='/static/experiments/beast_fmri_test/images/redV.png'></img>	go	1700.0	1.0	6.0	go	non-target	V	89,Middle Finger	71,Index Finger	1100.0	1050.0	1600.0	1700.0	1.0	n/a	1050.0	1.0	go_stim
258855.65522455121	1621.3447754488586	n/a	1322	71	2750	1621.34477545	stim	stop-signal	689	1890681	0.0-27.6-1.6	beast_fmri_test	311	1888485,/,1889164,/,1889844,/,1890524,/,1891203,/,1891883,/	t,t,t,t,t,t	<img class = center src='/static/experiments/beast_fmri_test/images/V.png'></img>	89,71	2750.0	test	<img class = center src='/static/experiments/beast_fmri_test/images/redV.png'></img>	go	1700.0	1.0	6.0	go	non-target	V	89,Middle Finger	71,Index Finger	1100.0	1050.0	1600.0	1700.0	1.0	n/a	1050.0	1.0	ITI
262667	500	n/a	-1	-1	500	0.0	fixation	poldrack-single-stim	690	1892871	0.0-27.7-0.7	beast_fmri_test	311	1892564,/	t	<div class = centerbox2><div class = fixation>+</div></div>	none	500.0	test	n/a	n/a	n/a	n/a	n/a	n/a	n/a	n/a	n/a	n/a	n/a	n/a	n/a	n/a	n/a	n/a	n/a	n/a	fixation
261818.9537569494	1100.0	n/a	1164	89	2750	849.046243051	stim	stop-signal	691	1895622	0.0-27.7-1.7	beast_fmri_test	311	1893243,/,1893923,/,1894602,/,1895282,/,1895960,/	t,t,t,t,t	<img class = center src='/static/experiments/beast_fmri_test/images/V.png'></img>	89,71	2750.0	test	<img class = center src='/static/experiments/beast_fmri_test/images/redV.png'></img>	stop	1650.0	1.0	7.0	stop	target	V	89,Middle Finger	71,Index Finger	1100.0	1050.0	1650.0	1700.0	0.0	0.0	1100.0	n/a	go_stim
263468.9537569494	1650.0	n/a	1164	89	2750	849.046243051	stim	stop-signal	691	1895622	0.0-27.7-1.7	beast_fmri_test	311	1893243,/,1893923,/,1894602,/,1895282,/,1895960,/	t,t,t,t,t	<img class = center src='/static/experiments/beast_fmri_test/images/V.png'></img>	89,71	2750.0	test	<img class = center src='/static/experiments/beast_fmri_test/images/redV.png'></img>	stop	1650.0	1.0	7.0	stop	target	V	89,Middle Finger	71,Index Finger	1100.0	1050.0	1650.0	1700.0	0.0	0.0	1100.0	n/a	stop_stim
264568.9537569494	849.04624305070968	n/a	1164	89	2750	849.046243051	stim	stop-signal	691	1895622	0.0-27.7-1.7	beast_fmri_test	311	1893243,/,1893923,/,1894602,/,1895282,/,1895960,/	t,t,t,t,t	<img class = center src='/static/experiments/beast_fmri_test/images/V.png'></img>	89,71	2750.0	test	<img class = center src='/static/experiments/beast_fmri_test/images/redV.png'></img>	stop	1650.0	1.0	7.0	stop	target	V	89,Middle Finger	71,Index Finger	1100.0	1050.0	1650.0	1700.0	0.0	0.0	1100.0	n/a	ITI
266834	500	n/a	-1	-1	500	0.0	fixation	poldrack-single-stim	692	1897038	0.0-27.8-0.8	beast_fmri_test	311	1896641,/	t	<div class = centerbox2><div class = fixation>+</div></div>	none	500.0	test	n/a	n/a	n/a	n/a	n/a	n/a	n/a	n/a	n/a	n/a	n/a	n/a	n/a	n/a	n/a	n/a	n/a	n/a	fixation
266102.57556357328	2750	n/a	1474	89	2750	732.424436427	stim	stop-signal	693	1899789	0.0-27.8-1.8	beast_fmri_test	311	1897321,/,1898000,/,1898681,/,1899360,/,1900039,/	t,t,t,t,t	<img class = center src='/static/experiments/beast_fmri_test/images/V.png'></img>	89,71	2750.0	test	<img class = center src='/static/experiments/beast_fmri_test/images/redV.png'></img>	go	1700.0	1.0	8.0	go	target	V	89,Middle Finger	71,Index Finger	1050.0	1050.0	1700.0	1700.0	1.0	n/a	1050.0	1.0	go_stim
268852.57556357328	732.42443642678131	n/a	1474	89	2750	732.424436427	stim	stop-signal	693	1899789	0.0-27.8-1.8	beast_fmri_test	311	1897321,/,1898000,/,1898681,/,1899360,/,1900039,/	t,t,t,t,t	<img class = center src='/static/experiments/beast_fmri_test/images/V.png'></img>	89,71	2750.0	test	<img class = center src='/static/experiments/beast_fmri_test/images/redV.png'></img>	go	1700.0	1.0	8.0	go	target	V	89,Middle Finger	71,Index Finger	1050.0	1050.0	1700.0	1700.0	1.0	n/a	1050.0	1.0	ITI
270888	500	n/a	-1	-1	500	0.0	fixation	poldrack-single-stim	694	1901092	0.0-27.9-0.9	beast_fmri_test	311	1900719,/	t	<div class = centerbox2><div class = fixation>+</div></div>	none	500.0	test	n/a	n/a	n/a	n/a	n/a	n/a	n/a	n/a	n/a	n/a	n/a	n/a	n/a	n/a	n/a	n/a	n/a	n/a	fixation
270452.41212748899	2750	n/a	1940	89	2750	436.587872511	stim	stop-signal	695	1903843	0.0-27.9-1.9	beast_fmri_test	311	1901399,/,1902079,/,1902758,/,1903438,/,1904117,/	t,t,t,t,t	<img class = center src='/static/experiments/beast_fmri_test/images/V.png'></img>	89,71	2750.0	test	<img class = center src='/static/experiments/beast_fmri_test/images/redV.png'></img>	go	1700.0	1.0	9.0	go	target	V	89,Middle Finger	71,Index Finger	1050.0	1050.0	1700.0	1700.0	1.0	n/a	1050.0	1.0	go_stim
273202.41212748899	436.58787251095168	n/a	1940	89	2750	436.587872511	stim	stop-signal	695	1903843	0.0-27.9-1.9	beast_fmri_test	311	1901399,/,1902079,/,1902758,/,1903438,/,1904117,/	t,t,t,t,t	<img class = center src='/static/experiments/beast_fmri_test/images/V.png'></img>	89,71	2750.0	test	<img class = center src='/static/experiments/beast_fmri_test/images/redV.png'></img>	go	1700.0	1.0	9.0	go	target	V	89,Middle Finger	71,Index Finger	1050.0	1050.0	1700.0	1700.0	1.0	n/a	1050.0	1.0	ITI
274646	500	n/a	-1	-1	500	0.0	fixation	poldrack-single-stim	696	1904850	0.0-27.10-0.10	beast_fmri_test	311	1904798,/	t	<div class = centerbox2><div class = fixation>+</div></div>	none	500.0	test	n/a	n/a	n/a	n/a	n/a	n/a	n/a	n/a	n/a	n/a	n/a	n/a	n/a	n/a	n/a	n/a	n/a	n/a	fixation
274082.36631306959	1050.0	n/a	2179	89	2750	564.63368693	stim	stop-signal	697	1907601	0.0-27.10-1.10	beast_fmri_test	311	1905477,/,1906156,/,1906837,/,1907516,/	t,t,t,t	<img class = center src='/static/experiments/beast_fmri_test/images/V.png'></img>	89,71	2750.0	test	<img class = center src='/static/experiments/beast_fmri_test/images/redV.png'></img>	stop	1700.0	1.0	10.0	stop	target	V	89,Middle Finger	71,Index Finger	1050.0	1050.0	1700.0	1700.0	0.0	0.0	1050.0	n/a	go_stim
275782.36631306959	1700.0	n/a	2179	89	2750	564.63368693	stim	stop-signal	697	1907601	0.0-27.10-1.10	beast_fmri_test	311	1905477,/,1906156,/,1906837,/,1907516,/	t,t,t,t	<img class = center src='/static/experiments/beast_fmri_test/images/V.png'></img>	89,71	2750.0	test	<img class = center src='/static/experiments/beast_fmri_test/images/redV.png'></img>	stop	1700.0	1.0	10.0	stop	target	V	89,Middle Finger	71,Index Finger	1050.0	1050.0	1700.0	1700.0	0.0	0.0	1050.0	n/a	stop_stim
276832.36631306959	564.63368693030623	n/a	2179	89	2750	564.63368693	stim	stop-signal	697	1907601	0.0-27.10-1.10	beast_fmri_test	311	1905477,/,1906156,/,1906837,/,1907516,/	t,t,t,t	<img class = center src='/static/experiments/beast_fmri_test/images/V.png'></img>	89,71	2750.0	test	<img class = center src='/static/experiments/beast_fmri_test/images/redV.png'></img>	stop	1700.0	1.0	10.0	stop	target	V	89,Middle Finger	71,Index Finger	1050.0	1050.0	1700.0	1700.0	0.0	0.0	1050.0	n/a	ITI
278536	500	n/a	-1	-1	500	0.0	fixation	poldrack-single-stim	698	1908740	0.0-27.11-0.11	beast_fmri_test	311	1908238,/	t	<div class = centerbox2><div class = fixation>+</div></div>	none	500.0	test	n/a	n/a	n/a	n/a	n/a	n/a	n/a	n/a	n/a	n/a	n/a	n/a	n/a	n/a	n/a	n/a	n/a	n/a	fixation
276351.72092800681	1050.0	n/a	-1	-1	2750	2185.27907199	stim	stop-signal	699	1911491	0.0-27.11-1.11	beast_fmri_test	311	1908874,/,1909556,/,1910235,/,1910916,/,1911595,/,1912275,/,1912954,/,1913633,/	t,t,t,t,t,t,t,t	<img class = center src='/static/experiments/beast_fmri_test/images/B.png'></img>	89,71	2750.0	test	<img class = center src='/static/experiments/beast_fmri_test/images/redB.png'></img>	stop	1700.0	1.0	11.0	stop	non-target	B	89,Middle Finger	71,Index Finger	1000.0	1050.0	1700.0	1700.0	0.0	1.0	1050.0	n/a	go_stim
278051.72092800681	1700.0	n/a	-1	-1	2750	2185.27907199	stim	stop-signal	699	1911491	0.0-27.11-1.11	beast_fmri_test	311	1908874,/,1909556,/,1910235,/,1910916,/,1911595,/,1912275,/,1912954,/,1913633,/	t,t,t,t,t,t,t,t	<img class = center src='/static/experiments/beast_fmri_test/images/B.png'></img>	89,71	2750.0	test	<img class = center src='/static/experiments/beast_fmri_test/images/redB.png'></img>	stop	1700.0	1.0	11.0	stop	non-target	B	89,Middle Finger	71,Index Finger	1000.0	1050.0	1700.0	1700.0	0.0	1.0	1050.0	n/a	stop_stim
279101.72092800681	2185.2790719931245	n/a	-1	-1	2750	2185.27907199	stim	stop-signal	699	1911491	0.0-27.11-1.11	beast_fmri_test	311	1908874,/,1909556,/,1910235,/,1910916,/,1911595,/,1912275,/,1912954,/,1913633,/	t,t,t,t,t,t,t,t	<img class = center src='/static/experiments/beast_fmri_test/images/B.png'></img>	89,71	2750.0	test	<img class = center src='/static/experiments/beast_fmri_test/images/redB.png'></img>	stop	1700.0	1.0	11.0	stop	non-target	B	89,Middle Finger	71,Index Finger	1000.0	1050.0	1700.0	1700.0	0.0	1.0	1050.0	n/a	ITI
284047	500	n/a	-1	-1	500	0.0	fixation	poldrack-single-stim	700	1914251	0.0-27.12-0.12	beast_fmri_test	311	n/a	n/a	<div class = centerbox2><div class = fixation>+</div></div>	none	500.0	test	n/a	n/a	n/a	n/a	n/a	n/a	n/a	n/a	n/a	n/a	n/a	n/a	n/a	n/a	n/a	n/a	n/a	n/a	fixation
282592.79985219659	2750	n/a	1674	71	2750	1456.2001478	stim	stop-signal	701	1917003	0.0-27.12-1.12	beast_fmri_test	311	1914313,/,1914993,/,1915672,/,1916353,/,1917031,/,1917712,/,1918392,/	t,t,t,t,t,t,t	<img class = center src='/static/experiments/beast_fmri_test/images/V.png'></img>	89,71	2750.0	test	<img class = center src='/static/experiments/beast_fmri_test/images/redV.png'></img>	go	1650.0	1.0	12.0	go	non-target	V	89,Middle Finger	71,Index Finger	1000.0	1100.0	1700.0	1650.0	1.0	n/a	1100.0	1.0	go_stim
285342.79985219659	1456.2001478033576	n/a	1674	71	2750	1456.2001478	stim	stop-signal	701	1917003	0.0-27.12-1.12	beast_fmri_test	311	1914313,/,1914993,/,1915672,/,1916353,/,1917031,/,1917712,/,1918392,/	t,t,t,t,t,t,t	<img class = center src='/static/experiments/beast_fmri_test/images/V.png'></img>	89,71	2750.0	test	<img class = center src='/static/experiments/beast_fmri_test/images/redV.png'></img>	go	1650.0	1.0	12.0	go	non-target	V	89,Middle Finger	71,Index Finger	1000.0	1100.0	1700.0	1650.0	1.0	n/a	1100.0	1.0	ITI
288824	500	n/a	-1	-1	500	0.0	fixation	poldrack-single-stim	702	1919028	0.0-27.13-0.13	beast_fmri_test	311	n/a	n/a	<div class = centerbox2><div class = fixation>+</div></div>	none	500.0	test	n/a	n/a	n/a	n/a	n/a	n/a	n/a	n/a	n/a	n/a	n/a	n/a	n/a	n/a	n/a	n/a	n/a	n/a	fixation
285926.33279567375	2750	n/a	1797	71	2750	2899.66720433	stim	stop-signal	703	1921780	0.0-27.13-1.13	beast_fmri_test	311	1919071,/,1919751,/,1920430,/,1921110,/,1921790,/,1922469,/,1923150,/,1923829,/,1924509,/	t,t,t,t,t,t,t,t,t	<img class = center src='/static/experiments/beast_fmri_test/images/P.png'></img>	89,71	2750.0	test	<img class = center src='/static/experiments/beast_fmri_test/images/redP.png'></img>	go	1650.0	1.0	13.0	go	non-target	P	89,Middle Finger	71,Index Finger	1000.0	1100.0	1700.0	1650.0	1.0	n/a	1100.0	1.0	go_stim
288676.33279567375	2899.6672043262365	n/a	1797	71	2750	2899.66720433	stim	stop-signal	703	1921780	0.0-27.13-1.13	beast_fmri_test	311	1919071,/,1919751,/,1920430,/,1921110,/,1921790,/,1922469,/,1923150,/,1923829,/,1924509,/	t,t,t,t,t,t,t,t,t	<img class = center src='/static/experiments/beast_fmri_test/images/P.png'></img>	89,71	2750.0	test	<img class = center src='/static/experiments/beast_fmri_test/images/redP.png'></img>	go	1650.0	1.0	13.0	go	non-target	P	89,Middle Finger	71,Index Finger	1000.0	1100.0	1700.0	1650.0	1.0	n/a	1100.0	1.0	ITI
295056	500	n/a	-1	-1	500	0.0	fixation	poldrack-single-stim	704	1925260	0.0-27.14-0.14	beast_fmri_test	311	1925189,/	t	<div class = centerbox2><div class = fixation>+</div></div>	none	500.0	test	n/a	n/a	n/a	n/a	n/a	n/a	n/a	n/a	n/a	n/a	n/a	n/a	n/a	n/a	n/a	n/a	n/a	n/a	fixation
293996.15504407347	2750	n/a	1126	71	2750	1062.84495593	stim	stop-signal	705	1928013	0.0-27.14-1.14	beast_fmri_test	311	1925868,/,1926548,/,1927227,/,1927907,/,1928586,/	t,t,t,t,t	<img class = center src='/static/experiments/beast_fmri_test/images/B.png'></img>	89,71	2750.0	test	<img class = center src='/static/experiments/beast_fmri_test/images/redB.png'></img>	go	1650.0	1.0	14.0	go	non-target	B	89,Middle Finger	71,Index Finger	1000.0	1100.0	1700.0	1650.0	1.0	n/a	1100.0	1.0	go_stim
296746.15504407347	1062.8449559265487	n/a	1126	71	2750	1062.84495593	stim	stop-signal	705	1928013	0.0-27.14-1.14	beast_fmri_test	311	1925868,/,1926548,/,1927227,/,1927907,/,1928586,/	t,t,t,t,t	<img class = center src='/static/experiments/beast_fmri_test/images/B.png'></img>	89,71	2750.0	test	<img class = center src='/static/experiments/beast_fmri_test/images/redB.png'></img>	go	1650.0	1.0	14.0	go	non-target	B	89,Middle Finger	71,Index Finger	1000.0	1100.0	1700.0	1650.0	1.0	n/a	1100.0	1.0	ITI
299445	500	n/a	-1	-1	500	0.0	fixation	poldrack-single-stim	706	1929649	0.0-27.15-0.15	beast_fmri_test	311	1929266,/	t	<div class = centerbox2><div class = fixation>+</div></div>	none	500.0	test	n/a	n/a	n/a	n/a	n/a	n/a	n/a	n/a	n/a	n/a	n/a	n/a	n/a	n/a	n/a	n/a	n/a	n/a	fixation
299125.4841951686	1000.0	n/a	1111	89	2750	322.515804831	stim	stop-signal	707	1932402	0.0-27.15-1.15	beast_fmri_test	311	1929945,/,1930627,/,1931305,/,1931985,/,1932665,/	t,t,t,t,t	<img class = center src='/static/experiments/beast_fmri_test/images/B.png'></img>	89,71	2750.0	test	<img class = center src='/static/experiments/beast_fmri_test/images/redB.png'></img>	stop	1750.0	1.0	15.0	stop	target	B	89,Middle Finger	71,Index Finger	1000.0	1100.0	1750.0	1650.0	0.0	0.0	1000.0	n/a	go_stim
300875.4841951686	1750.0	n/a	1111	89	2750	322.515804831	stim	stop-signal	707	1932402	0.0-27.15-1.15	beast_fmri_test	311	1929945,/,1930627,/,1931305,/,1931985,/,1932665,/	t,t,t,t,t	<img class = center src='/static/experiments/beast_fmri_test/images/B.png'></img>	89,71	2750.0	test	<img class = center src='/static/experiments/beast_fmri_test/images/redB.png'></img>	stop	1750.0	1.0	15.0	stop	target	B	89,Middle Finger	71,Index Finger	1000.0	1100.0	1750.0	1650.0	0.0	0.0	1000.0	n/a	stop_stim
301875.4841951686	322.51580483142288	n/a	1111	89	2750	322.515804831	stim	stop-signal	707	1932402	0.0-27.15-1.15	beast_fmri_test	311	1929945,/,1930627,/,1931305,/,1931985,/,1932665,/	t,t,t,t,t	<img class = center src='/static/experiments/beast_fmri_test/images/B.png'></img>	89,71	2750.0	test	<img class = center src='/static/experiments/beast_fmri_test/images/redB.png'></img>	stop	1750.0	1.0	15.0	stop	target	B	89,Middle Finger	71,Index Finger	1000.0	1100.0	1750.0	1650.0	0.0	0.0	1000.0	n/a	ITI
303098	500	n/a	-1	-1	500	0.0	fixation	poldrack-single-stim	708	1933302	0.0-27.16-0.16	beast_fmri_test	311	n/a	n/a	<div class = centerbox2><div class = fixation>+</div></div>	none	500.0	test	n/a	n/a	n/a	n/a	n/a	n/a	n/a	n/a	n/a	n/a	n/a	n/a	n/a	n/a	n/a	n/a	n/a	n/a	fixation
303015.66251767217	2750	n/a	1601	71	2750	85.3374823278	stim	stop-signal	709	1936055	0.0-27.16-1.16	beast_fmri_test	311	1933343,/,1934024,/,1934703,/,1935383,/,1936064,/	t,t,t,t,t	<img class = center src='/static/experiments/beast_fmri_test/images/D.png'></img>	89,71	2750.0	test	<img class = center src='/static/experiments/beast_fmri_test/images/redD.png'></img>	go	1650.0	1.0	16.0	go	non-target	D	89,Middle Finger	71,Index Finger	950.0	1100.0	1750.0	1650.0	1.0	n/a	1100.0	1.0	go_stim
305765.66251767217	85.3374823278142	n/a	1601	71	2750	85.3374823278	stim	stop-signal	709	1936055	0.0-27.16-1.16	beast_fmri_test	311	1933343,/,1934024,/,1934703,/,1935383,/,1936064,/	t,t,t,t,t	<img class = center src='/static/experiments/beast_fmri_test/images/D.png'></img>	89,71	2750.0	test	<img class = center src='/static/experiments/beast_fmri_test/images/redD.png'></img>	go	1650.0	1.0	16.0	go	non-target	D	89,Middle Finger	71,Index Finger	950.0	1100.0	1750.0	1650.0	1.0	n/a	1100.0	1.0	ITI
306529	500	n/a	-1	-1	500	0.0	fixation	poldrack-single-stim	710	1936733	0.0-27.17-0.17	beast_fmri_test	311	n/a	n/a	<div class = centerbox2><div class = fixation>+</div></div>	none	500.0	test	n/a	n/a	n/a	n/a	n/a	n/a	n/a	n/a	n/a	n/a	n/a	n/a	n/a	n/a	n/a	n/a	n/a	n/a	fixation
304116.48797010398	2750	n/a	1282	71	2750	2412.5120299	stim	stop-signal	711	1939483	0.0-27.17-1.17	beast_fmri_test	311	1936744,/,1937422,/,1938102,/,1938782,/,1939463,/,1940142,/,1940822,/,1941501,/	t,t,t,t,t,t,t,t	<img class = center src='/static/experiments/beast_fmri_test/images/V.png'></img>	89,71	2750.0	test	<img class = center src='/static/experiments/beast_fmri_test/images/redV.png'></img>	go	1650.0	1.0	17.0	go	non-target	V	89,Middle Finger	71,Index Finger	950.0	1100.0	1750.0	1650.0	1.0	n/a	1100.0	1.0	go_stim
306866.48797010398	2412.5120298961183	n/a	1282	71	2750	2412.5120299	stim	stop-signal	711	1939483	0.0-27.17-1.17	beast_fmri_test	311	1936744,/,1937422,/,1938102,/,1938782,/,1939463,/,1940142,/,1940822,/,1941501,/	t,t,t,t,t,t,t,t	<img class = center src='/static/experiments/beast_fmri_test/images/V.png'></img>	89,71	2750.0	test	<img class = center src='/static/experiments/beast_fmri_test/images/redV.png'></img>	go	1650.0	1.0	17.0	go	non-target	V	89,Middle Finger	71,Index Finger	950.0	1100.0	1750.0	1650.0	1.0	n/a	1100.0	1.0	ITI
312271	500	n/a	-1	-1	500	0.0	fixation	poldrack-single-stim	712	1942475	0.0-27.18-0.18	beast_fmri_test	311	1942181,/	t	<div class = centerbox2><div class = fixation>+</div></div>	none	500.0	test	n/a	n/a	n/a	n/a	n/a	n/a	n/a	n/a	n/a	n/a	n/a	n/a	n/a	n/a	n/a	n/a	n/a	n/a	fixation
310991.06157707702	2750	n/a	2086	71	2750	1280.93842292	stim	stop-signal	713	1945226	0.0-27.18-1.18	beast_fmri_test	311	1942860,/,1943540,/,1944218,/,1944899,/,1945578,/,1946258,/	t,t,t,t,t,t	<img class = center src='/static/experiments/beast_fmri_test/images/V.png'></img>	89,71	2750.0	test	<img class = center src='/static/experiments/beast_fmri_test/images/redV.png'></img>	go	1800.0	1.0	18.0	go	target	V	89,Middle Finger	71,Index Finger	950.0	1100.0	1800.0	1650.0	0.0	n/a	950.0	0.0	go_stim
313741.06157707702	1280.9384229229952	n/a	2086	71	2750	1280.93842292	stim	stop-signal	713	1945226	0.0-27.18-1.18	beast_fmri_test	311	1942860,/,1943540,/,1944218,/,1944899,/,1945578,/,1946258,/	t,t,t,t,t,t	<img class = center src='/static/experiments/beast_fmri_test/images/V.png'></img>	89,71	2750.0	test	<img class = center src='/static/experiments/beast_fmri_test/images/redV.png'></img>	go	1800.0	1.0	18.0	go	target	V	89,Middle Finger	71,Index Finger	950.0	1100.0	1800.0	1650.0	0.0	n/a	950.0	0.0	ITI
316902	500	n/a	-1	-1	500	0.0	fixation	poldrack-single-stim	714	1947106	0.0-27.19-0.19	beast_fmri_test	311	1946937,/	t	<div class = centerbox2><div class = fixation>+</div></div>	none	500.0	test	n/a	n/a	n/a	n/a	n/a	n/a	n/a	n/a	n/a	n/a	n/a	n/a	n/a	n/a	n/a	n/a	n/a	n/a	fixation
316669.77375714248	2750	n/a	1402	71	2750	232.226242857	stim	stop-signal	715	1949856	0.0-27.19-1.19	beast_fmri_test	311	1947617,/,1948296,/,1948976,/,1949657,/	t,t,t,t	<img class = center src='/static/experiments/beast_fmri_test/images/P.png'></img>	89,71	2750.0	test	<img class = center src='/static/experiments/beast_fmri_test/images/redP.png'></img>	go	1650.0	1.0	19.0	go	non-target	P	89,Middle Finger	71,Index Finger	950.0	1100.0	1800.0	1650.0	1.0	n/a	1100.0	1.0	go_stim
319419.77375714248	232.22624285741486	n/a	1402	71	2750	232.226242857	stim	stop-signal	715	1949856	0.0-27.19-1.19	beast_fmri_test	311	1947617,/,1948296,/,1948976,/,1949657,/	t,t,t,t	<img class = center src='/static/experiments/beast_fmri_test/images/P.png'></img>	89,71	2750.0	test	<img class = center src='/static/experiments/beast_fmri_test/images/redP.png'></img>	go	1650.0	1.0	19.0	go	non-target	P	89,Middle Finger	71,Index Finger	950.0	1100.0	1800.0	1650.0	1.0	n/a	1100.0	1.0	ITI
320464	500	n/a	-1	-1	500	0.0	fixation	poldrack-single-stim	716	1950668	0.0-27.20-0.20	beast_fmri_test	311	1950337,/	t	<div class = centerbox2><div class = fixation>+</div></div>	none	500.0	test	n/a	n/a	n/a	n/a	n/a	n/a	n/a	n/a	n/a	n/a	n/a	n/a	n/a	n/a	n/a	n/a	n/a	n/a	fixation
319372.50640458218	2750	n/a	2020	71	2750	1092.49359542	stim	stop-signal	717	1953419	0.0-27.20-1.20	beast_fmri_test	311	1951015,/,1951695,/,1952376,/,1953054,/,1953736,/,1954415,/	t,t,t,t,t,t	<img class = center src='/static/experiments/beast_fmri_test/images/B.png'></img>	89,71	2750.0	test	<img class = center src='/static/experiments/beast_fmri_test/images/redB.png'></img>	go	1650.0	1.0	20.0	go	non-target	B	89,Middle Finger	71,Index Finger	950.0	1100.0	1800.0	1650.0	1.0	n/a	1100.0	1.0	go_stim
322122.50640458218	1092.493595417837	n/a	2020	71	2750	1092.49359542	stim	stop-signal	717	1953419	0.0-27.20-1.20	beast_fmri_test	311	1951015,/,1951695,/,1952376,/,1953054,/,1953736,/,1954415,/	t,t,t,t,t,t	<img class = center src='/static/experiments/beast_fmri_test/images/B.png'></img>	89,71	2750.0	test	<img class = center src='/static/experiments/beast_fmri_test/images/redB.png'></img>	go	1650.0	1.0	20.0	go	non-target	B	89,Middle Finger	71,Index Finger	950.0	1100.0	1800.0	1650.0	1.0	n/a	1100.0	1.0	ITI
324892	500	n/a	-1	-1	500	0.0	fixation	poldrack-single-stim	718	1955096	0.0-27.21-0.21	beast_fmri_test	311	1955093,/	t	<div class = centerbox2><div class = fixation>+</div></div>	none	500.0	test	n/a	n/a	n/a	n/a	n/a	n/a	n/a	n/a	n/a	n/a	n/a	n/a	n/a	n/a	n/a	n/a	n/a	n/a	fixation
324782.87606159551	2750	n/a	1510	71	2750	111.123938405	stim	stop-signal	719	1957848	0.0-27.21-1.21	beast_fmri_test	311	1955774,/,1956453,/,1957132,/,1957812,/	t,t,t,t	<img class = center src='/static/experiments/beast_fmri_test/images/B.png'></img>	89,71	2750.0	test	<img class = center src='/static/experiments/beast_fmri_test/images/redB.png'></img>	go	1800.0	1.0	21.0	go	target	B	89,Middle Finger	71,Index Finger	950.0	1100.0	1800.0	1650.0	0.0	n/a	950.0	0.0	go_stim
