onset	duration	text	rt	key_press	block_duration	timing_post_trial	trial_id	trial_type	trial_index	time_elapsed	internal_node_id	exp_id	subject_id	trigger_times	triggers	stimulus	possible_responses	stim_duration	exp_stage	SS_stimulus	SS_trial_type	SS_duration	load	trial_num	stop_trial_type	adaptive_trial_type	stim	yes_response_key	no_response_key	SSD_target	SSD_non_target	SSTarget	SSNonTarget	go_acc	SS_delay	adaptive_acc	stop_acc	new_trial_type
test	10880.0	n/a	-1	-1	10880	0.0	practice-no-stop-feedback	poldrack-single-stim	6	93611	0.0-6.0	beast_fmri_test	358	82735,/,83413,/,84092,/,84771,/,85452,/,86131,/,86810,/,87490,/,88171,/,88849,/,89530,/,90208,/,90889,/,91568,/,92249,/,92928,/,93608,/	t,t,t,t,t,t,t,t,t,t,t,t,t,t,t,t,t	"<div class = ""centerbox""><p class = ""block-text"">Your delay is 2 trials.</p><p class = block-text>Please wait for the scanner to start the block</p></div>"	77	10880.0	n/a	n/a	n/a	n/a	n/a	n/a	n/a	n/a	n/a	n/a	n/a	n/a	n/a	n/a	n/a	n/a	n/a	n/a	n/a	start_functional_block
11380	500.0	n/a	-1	-1	500	0.0	fixation	poldrack-single-stim	7	94115	0.0-7.0-0.0	beast_fmri_test	358	n/a	n/a	<div class = centerbox2><div class = fixation>+</div></div>	none	500.0	test	n/a	n/a	n/a	n/a	n/a	n/a	n/a	n/a	n/a	n/a	n/a	n/a	n/a	n/a	n/a	n/a	n/a	n/a	fixation
9628.1636393226072	2750.0	n/a	1605	89	2750	1756.83636068	stim	stop-signal	8	96870	0.0-7.0-1.0	beast_fmri_test	358	94289,/,94968,/,95648,/,96326,/,97006,/,97685,/,98365,/	t,t,t,t,t,t,t	<img class = center src='/static/experiments/beast_fmri_test/images/P.png'></img>	71,89	2750.0	test	<img class = center src='/static/experiments/beast_fmri_test/images/redP.png'></img>	go	-1.0	2.0	0.0	go	temp-non-target	P	71,Index Finger	89,Middle Finger	500.0	500.0	0.0	0.0	0.0	n/a	n/a	n/a	go_stim
12378.163639322607	1756.83636068	n/a	1605	89	2750	1756.83636068	stim	stop-signal	8	96870	0.0-7.0-1.0	beast_fmri_test	358	94289,/,94968,/,95648,/,96326,/,97006,/,97685,/,98365,/	t,t,t,t,t,t,t	<img class = center src='/static/experiments/beast_fmri_test/images/P.png'></img>	71,89	2750.0	test	<img class = center src='/static/experiments/beast_fmri_test/images/redP.png'></img>	go	-1.0	2.0	0.0	go	temp-non-target	P	71,Index Finger	89,Middle Finger	500.0	500.0	0.0	0.0	0.0	n/a	n/a	n/a	ITI
16399	500.0	n/a	-1	-1	500	0.0	fixation	poldrack-single-stim	9	99134	0.0-7.1-0.1	beast_fmri_test	358	99045,/	t	<div class = centerbox2><div class = fixation>+</div></div>	none	500.0	test	n/a	n/a	n/a	n/a	n/a	n/a	n/a	n/a	n/a	n/a	n/a	n/a	n/a	n/a	n/a	n/a	n/a	n/a	fixation
15800.856623332176	2750.0	n/a	645	89	2750	602.143376668	stim	stop-signal	10	101888	0.0-7.1-1.1	beast_fmri_test	358	99726,/,100404,/,101085,/,101764,/,102444,/	t,t,t,t,t	<img class = center src='/static/experiments/beast_fmri_test/images/T.png'></img>	71,89	2750.0	test	<img class = center src='/static/experiments/beast_fmri_test/images/redT.png'></img>	go	-1.0	2.0	1.0	go	temp-non-target	T	71,Index Finger	89,Middle Finger	500.0	500.0	0.0	0.0	0.0	n/a	n/a	n/a	go_stim
18550.856623332176	602.143376668	n/a	645	89	2750	602.143376668	stim	stop-signal	10	101888	0.0-7.1-1.1	beast_fmri_test	358	99726,/,100404,/,101085,/,101764,/,102444,/	t,t,t,t,t	<img class = center src='/static/experiments/beast_fmri_test/images/T.png'></img>	71,89	2750.0	test	<img class = center src='/static/experiments/beast_fmri_test/images/redT.png'></img>	go	-1.0	2.0	1.0	go	temp-non-target	T	71,Index Finger	89,Middle Finger	500.0	500.0	0.0	0.0	0.0	n/a	n/a	n/a	ITI
20260	500.0	n/a	-1	-1	500	0.0	fixation	poldrack-single-stim	11	102995	0.0-7.2-0.2	beast_fmri_test	358	n/a	n/a	<div class = centerbox2><div class = fixation>+</div></div>	none	500.0	test	n/a	n/a	n/a	n/a	n/a	n/a	n/a	n/a	n/a	n/a	n/a	n/a	n/a	n/a	n/a	n/a	n/a	n/a	fixation
15893.747457070713	2750.0	n/a	595	89	2750	4369.25254293	stim	stop-signal	12	105748	0.0-7.2-1.2	beast_fmri_test	358	103124,/,103804,/,104483,/,105163,/,105842,/,106521,/,107202,/,107880,/,108564,/,109240,/,109920,/	t,t,t,t,t,t,t,t,t,t,t	<img class = center src='/static/experiments/beast_fmri_test/images/T.png'></img>	71,89	2750.0	test	<img class = center src='/static/experiments/beast_fmri_test/images/redT.png'></img>	go	2250.0	2.0	2.0	go	non-target	T	71,Index Finger	89,Middle Finger	500.0	500.0	0.0	2250.0	1.0	500.0	1.0	n/a	go_stim
18643.747457070713	4369.25254293	n/a	595	89	2750	4369.25254293	stim	stop-signal	12	105748	0.0-7.2-1.2	beast_fmri_test	358	103124,/,103804,/,104483,/,105163,/,105842,/,106521,/,107202,/,107880,/,108564,/,109240,/,109920,/	t,t,t,t,t,t,t,t,t,t,t	<img class = center src='/static/experiments/beast_fmri_test/images/T.png'></img>	71,89	2750.0	test	<img class = center src='/static/experiments/beast_fmri_test/images/redT.png'></img>	go	2250.0	2.0	2.0	go	non-target	T	71,Index Finger	89,Middle Finger	500.0	500.0	0.0	2250.0	1.0	500.0	1.0	n/a	ITI
27887	500.0	n/a	-1	-1	500	0.0	fixation	poldrack-single-stim	13	110622	0.0-7.3-0.3	beast_fmri_test	358	110601,/	t	<div class = centerbox2><div class = fixation>+</div></div>	none	500.0	test	n/a	n/a	n/a	n/a	n/a	n/a	n/a	n/a	n/a	n/a	n/a	n/a	n/a	n/a	n/a	n/a	n/a	n/a	fixation
26706.716484233024	500.0	n/a	600	71	2750	1181.28351577	stim	stop-signal	14	113373	0.0-7.3-1.3	beast_fmri_test	358	111280,/,111959,/,112639,/,113319,/,113998,/	t,t,t,t,t	<img class = center src='/static/experiments/beast_fmri_test/images/T.png'></img>	71,89	2750.0	test	<img class = center src='/static/experiments/beast_fmri_test/images/redT.png'></img>	stop	2250.0	2.0	3.0	stop	target	T	71,Index Finger	89,Middle Finger	500.0	500.0	2250.0	2250.0	0.0	500.0	n/a	0.0	go_stim
28956.716484233024	2250.0	n/a	600	71	2750	1181.28351577	stim	stop-signal	14	113373	0.0-7.3-1.3	beast_fmri_test	358	111280,/,111959,/,112639,/,113319,/,113998,/	t,t,t,t,t	<img class = center src='/static/experiments/beast_fmri_test/images/T.png'></img>	71,89	2750.0	test	<img class = center src='/static/experiments/beast_fmri_test/images/redT.png'></img>	stop	2250.0	2.0	3.0	stop	target	T	71,Index Finger	89,Middle Finger	500.0	500.0	2250.0	2250.0	0.0	500.0	n/a	0.0	stop_stim
29456.716484233024	1181.28351577	n/a	600	71	2750	1181.28351577	stim	stop-signal	14	113373	0.0-7.3-1.3	beast_fmri_test	358	111280,/,111959,/,112639,/,113319,/,113998,/	t,t,t,t,t	<img class = center src='/static/experiments/beast_fmri_test/images/T.png'></img>	71,89	2750.0	test	<img class = center src='/static/experiments/beast_fmri_test/images/redT.png'></img>	stop	2250.0	2.0	3.0	stop	target	T	71,Index Finger	89,Middle Finger	500.0	500.0	2250.0	2250.0	0.0	500.0	n/a	0.0	ITI
32324	500.0	n/a	-1	-1	500	0.0	fixation	poldrack-single-stim	15	115059	0.0-7.4-0.4	beast_fmri_test	358	114678,/	t	<div class = centerbox2><div class = fixation>+</div></div>	none	500.0	test	n/a	n/a	n/a	n/a	n/a	n/a	n/a	n/a	n/a	n/a	n/a	n/a	n/a	n/a	n/a	n/a	n/a	n/a	fixation
31036.36959441127	500.0	n/a	785	89	2750	1288.63040559	stim	stop-signal	16	117810	0.0-7.4-1.4	beast_fmri_test	358	115358,/,116037,/,116716,/,117396,/,118075,/,118754,/	t,t,t,t,t,t	<img class = center src='/static/experiments/beast_fmri_test/images/P.png'></img>	71,89	2750.0	test	<img class = center src='/static/experiments/beast_fmri_test/images/redP.png'></img>	stop	2250.0	2.0	4.0	stop	non-target	P	71,Index Finger	89,Middle Finger	450.0	500.0	2250.0	2250.0	0.0	500.0	n/a	0.0	go_stim
33286.36959441127	2250.0	n/a	785	89	2750	1288.63040559	stim	stop-signal	16	117810	0.0-7.4-1.4	beast_fmri_test	358	115358,/,116037,/,116716,/,117396,/,118075,/,118754,/	t,t,t,t,t,t	<img class = center src='/static/experiments/beast_fmri_test/images/P.png'></img>	71,89	2750.0	test	<img class = center src='/static/experiments/beast_fmri_test/images/redP.png'></img>	stop	2250.0	2.0	4.0	stop	non-target	P	71,Index Finger	89,Middle Finger	450.0	500.0	2250.0	2250.0	0.0	500.0	n/a	0.0	stop_stim
33786.36959441127	1288.63040559	n/a	785	89	2750	1288.63040559	stim	stop-signal	16	117810	0.0-7.4-1.4	beast_fmri_test	358	115358,/,116037,/,116716,/,117396,/,118075,/,118754,/	t,t,t,t,t,t	<img class = center src='/static/experiments/beast_fmri_test/images/P.png'></img>	71,89	2750.0	test	<img class = center src='/static/experiments/beast_fmri_test/images/redP.png'></img>	stop	2250.0	2.0	4.0	stop	non-target	P	71,Index Finger	89,Middle Finger	450.0	500.0	2250.0	2250.0	0.0	500.0	n/a	0.0	ITI
36870	500.0	n/a	-1	-1	500	0.0	fixation	poldrack-single-stim	17	119605	0.0-7.5-0.5	beast_fmri_test	358	119435,/	t	<div class = centerbox2><div class = fixation>+</div></div>	none	500.0	test	n/a	n/a	n/a	n/a	n/a	n/a	n/a	n/a	n/a	n/a	n/a	n/a	n/a	n/a	n/a	n/a	n/a	n/a	fixation
36801.168212146818	2750.0	n/a	545	71	2750	70.8317878532	stim	stop-signal	18	122357	0.0-7.5-1.5	beast_fmri_test	358	120116,/,120796,/,121474,/,122155,/	t,t,t,t	<img class = center src='/static/experiments/beast_fmri_test/images/T.png'></img>	71,89	2750.0	test	<img class = center src='/static/experiments/beast_fmri_test/images/redT.png'></img>	go	2300.0	2.0	5.0	go	target	T	71,Index Finger	89,Middle Finger	450.0	450.0	2300.0	2250.0	1.0	450.0	1.0	n/a	go_stim
39551.168212146818	70.8317878532	n/a	545	71	2750	70.8317878532	stim	stop-signal	18	122357	0.0-7.5-1.5	beast_fmri_test	358	120116,/,120796,/,121474,/,122155,/	t,t,t,t	<img class = center src='/static/experiments/beast_fmri_test/images/T.png'></img>	71,89	2750.0	test	<img class = center src='/static/experiments/beast_fmri_test/images/redT.png'></img>	go	2300.0	2.0	5.0	go	target	T	71,Index Finger	89,Middle Finger	450.0	450.0	2300.0	2250.0	1.0	450.0	1.0	n/a	ITI
40199	500.0	n/a	-1	-1	500	0.0	fixation	poldrack-single-stim	19	122934	0.0-7.6-0.6	beast_fmri_test	358	122835,/	t	<div class = centerbox2><div class = fixation>+</div></div>	none	500.0	test	n/a	n/a	n/a	n/a	n/a	n/a	n/a	n/a	n/a	n/a	n/a	n/a	n/a	n/a	n/a	n/a	n/a	n/a	fixation
39460.481562163812	450.0	n/a	-1	-1	2750	739.518437836	stim	stop-signal	20	125685	0.0-7.6-1.6	beast_fmri_test	358	123513,/,124195,/,124874,/,125553,/,126233,/	t,t,t,t,t	<img class = center src='/static/experiments/beast_fmri_test/images/V.png'></img>	71,89	2750.0	test	<img class = center src='/static/experiments/beast_fmri_test/images/redV.png'></img>	stop	2300.0	2.0	6.0	stop	non-target	V	71,Index Finger	89,Middle Finger	450.0	450.0	2300.0	2300.0	0.0	450.0	n/a	1.0	go_stim
41760.481562163812	2300.0	n/a	-1	-1	2750	739.518437836	stim	stop-signal	20	125685	0.0-7.6-1.6	beast_fmri_test	358	123513,/,124195,/,124874,/,125553,/,126233,/	t,t,t,t,t	<img class = center src='/static/experiments/beast_fmri_test/images/V.png'></img>	71,89	2750.0	test	<img class = center src='/static/experiments/beast_fmri_test/images/redV.png'></img>	stop	2300.0	2.0	6.0	stop	non-target	V	71,Index Finger	89,Middle Finger	450.0	450.0	2300.0	2300.0	0.0	450.0	n/a	1.0	stop_stim
42210.481562163812	739.518437836	n/a	-1	-1	2750	739.518437836	stim	stop-signal	20	125685	0.0-7.6-1.6	beast_fmri_test	358	123513,/,124195,/,124874,/,125553,/,126233,/	t,t,t,t,t	<img class = center src='/static/experiments/beast_fmri_test/images/V.png'></img>	71,89	2750.0	test	<img class = center src='/static/experiments/beast_fmri_test/images/redV.png'></img>	stop	2300.0	2.0	6.0	stop	non-target	V	71,Index Finger	89,Middle Finger	450.0	450.0	2300.0	2300.0	0.0	450.0	n/a	1.0	ITI
44197	500.0	n/a	-1	-1	500	0.0	fixation	poldrack-single-stim	21	126932	0.0-7.7-0.7	beast_fmri_test	358	126912,/	t	<div class = centerbox2><div class = fixation>+</div></div>	none	500.0	test	n/a	n/a	n/a	n/a	n/a	n/a	n/a	n/a	n/a	n/a	n/a	n/a	n/a	n/a	n/a	n/a	n/a	n/a	fixation
43410.361647770231	2750.0	n/a	512	71	2750	788.63835223	stim	stop-signal	22	129684	0.0-7.7-1.7	beast_fmri_test	358	127593,/,128272,/,128952,/,129632,/,130312,/	t,t,t,t,t	<img class = center src='/static/experiments/beast_fmri_test/images/T.png'></img>	71,89	2750.0	test	<img class = center src='/static/experiments/beast_fmri_test/images/redT.png'></img>	go	2300.0	2.0	7.0	go	target	T	71,Index Finger	89,Middle Finger	450.0	500.0	2300.0	2300.0	1.0	450.0	1.0	n/a	go_stim
46160.361647770231	788.63835223	n/a	512	71	2750	788.63835223	stim	stop-signal	22	129684	0.0-7.7-1.7	beast_fmri_test	358	127593,/,128272,/,128952,/,129632,/,130312,/	t,t,t,t,t	<img class = center src='/static/experiments/beast_fmri_test/images/T.png'></img>	71,89	2750.0	test	<img class = center src='/static/experiments/beast_fmri_test/images/redT.png'></img>	go	2300.0	2.0	7.0	go	target	T	71,Index Finger	89,Middle Finger	450.0	500.0	2300.0	2300.0	1.0	450.0	1.0	n/a	ITI
48246	500.0	n/a	-1	-1	500	0.0	fixation	poldrack-single-stim	23	130981	0.0-7.8-0.8	beast_fmri_test	358	n/a	n/a	<div class = centerbox2><div class = fixation>+</div></div>	none	500.0	test	n/a	n/a	n/a	n/a	n/a	n/a	n/a	n/a	n/a	n/a	n/a	n/a	n/a	n/a	n/a	n/a	n/a	n/a	fixation
46828.031033123611	2750.0	n/a	736	89	2750	1417.96896688	stim	stop-signal	24	133731	0.0-7.8-1.8	beast_fmri_test	358	130990,/,131670,/,132351,/,133029,/,133710,/,134388,/,135068,/	t,t,t,t,t,t,t	<img class = center src='/static/experiments/beast_fmri_test/images/P.png'></img>	71,89	2750.0	test	<img class = center src='/static/experiments/beast_fmri_test/images/redP.png'></img>	go	2250.0	2.0	8.0	go	non-target	P	71,Index Finger	89,Middle Finger	450.0	500.0	2300.0	2250.0	1.0	500.0	1.0	n/a	go_stim
49578.031033123611	1417.96896688	n/a	736	89	2750	1417.96896688	stim	stop-signal	24	133731	0.0-7.8-1.8	beast_fmri_test	358	130990,/,131670,/,132351,/,133029,/,133710,/,134388,/,135068,/	t,t,t,t,t,t,t	<img class = center src='/static/experiments/beast_fmri_test/images/P.png'></img>	71,89	2750.0	test	<img class = center src='/static/experiments/beast_fmri_test/images/redP.png'></img>	go	2250.0	2.0	8.0	go	non-target	P	71,Index Finger	89,Middle Finger	450.0	500.0	2300.0	2250.0	1.0	500.0	1.0	n/a	ITI
52921	500.0	n/a	-1	-1	500	0.0	fixation	poldrack-single-stim	25	135656	0.0-7.9-0.9	beast_fmri_test	358	n/a	n/a	<div class = centerbox2><div class = fixation>+</div></div>	none	500.0	test	n/a	n/a	n/a	n/a	n/a	n/a	n/a	n/a	n/a	n/a	n/a	n/a	n/a	n/a	n/a	n/a	n/a	n/a	fixation
52285.771670309419	500.0	n/a	743	71	2750	636.228329691	stim	stop-signal	26	138407	0.0-7.9-1.9	beast_fmri_test	358	135747,/,136428,/,137108,/,137788,/,138467,/	t,t,t,t,t	<img class = center src='/static/experiments/beast_fmri_test/images/V.png'></img>	71,89	2750.0	test	<img class = center src='/static/experiments/beast_fmri_test/images/redV.png'></img>	stop	2250.0	2.0	9.0	stop	non-target	V	71,Index Finger	89,Middle Finger	450.0	500.0	2300.0	2250.0	0.0	500.0	n/a	0.0	go_stim
54535.771670309419	2250.0	n/a	743	71	2750	636.228329691	stim	stop-signal	26	138407	0.0-7.9-1.9	beast_fmri_test	358	135747,/,136428,/,137108,/,137788,/,138467,/	t,t,t,t,t	<img class = center src='/static/experiments/beast_fmri_test/images/V.png'></img>	71,89	2750.0	test	<img class = center src='/static/experiments/beast_fmri_test/images/redV.png'></img>	stop	2250.0	2.0	9.0	stop	non-target	V	71,Index Finger	89,Middle Finger	450.0	500.0	2300.0	2250.0	0.0	500.0	n/a	0.0	stop_stim
55035.771670309419	636.228329691	n/a	743	71	2750	636.228329691	stim	stop-signal	26	138407	0.0-7.9-1.9	beast_fmri_test	358	135747,/,136428,/,137108,/,137788,/,138467,/	t,t,t,t,t	<img class = center src='/static/experiments/beast_fmri_test/images/V.png'></img>	71,89	2750.0	test	<img class = center src='/static/experiments/beast_fmri_test/images/redV.png'></img>	stop	2250.0	2.0	9.0	stop	non-target	V	71,Index Finger	89,Middle Finger	450.0	500.0	2300.0	2250.0	0.0	500.0	n/a	0.0	ITI
56816	500.0	n/a	-1	-1	500	0.0	fixation	poldrack-single-stim	27	139551	0.0-7.10-0.10	beast_fmri_test	358	139147,/	t	<div class = centerbox2><div class = fixation>+</div></div>	none	500.0	test	n/a	n/a	n/a	n/a	n/a	n/a	n/a	n/a	n/a	n/a	n/a	n/a	n/a	n/a	n/a	n/a	n/a	n/a	fixation
55504.836273780122	2750.0	n/a	879	89	2750	1312.16372622	stim	stop-signal	28	142302	0.0-7.10-1.10	beast_fmri_test	358	139826,/,140506,/,141186,/,141864,/,142545,/,143224,/	t,t,t,t,t,t	<img class = center src='/static/experiments/beast_fmri_test/images/T.png'></img>	71,89	2750.0	test	<img class = center src='/static/experiments/beast_fmri_test/images/redT.png'></img>	go	2300.0	2.0	10.0	go	non-target	T	71,Index Finger	89,Middle Finger	450.0	450.0	2300.0	2300.0	1.0	450.0	1.0	n/a	go_stim
58254.836273780122	1312.16372622	n/a	879	89	2750	1312.16372622	stim	stop-signal	28	142302	0.0-7.10-1.10	beast_fmri_test	358	139826,/,140506,/,141186,/,141864,/,142545,/,143224,/	t,t,t,t,t,t	<img class = center src='/static/experiments/beast_fmri_test/images/T.png'></img>	71,89	2750.0	test	<img class = center src='/static/experiments/beast_fmri_test/images/redT.png'></img>	go	2300.0	2.0	10.0	go	non-target	T	71,Index Finger	89,Middle Finger	450.0	450.0	2300.0	2300.0	1.0	450.0	1.0	n/a	ITI
61386	500.0	n/a	-1	-1	500	0.0	fixation	poldrack-single-stim	29	144121	0.0-7.11-0.11	beast_fmri_test	358	143905,/	t	<div class = centerbox2><div class = fixation>+</div></div>	none	500.0	test	n/a	n/a	n/a	n/a	n/a	n/a	n/a	n/a	n/a	n/a	n/a	n/a	n/a	n/a	n/a	n/a	n/a	n/a	fixation
60368.982973885519	2750.0	n/a	805	89	2750	1018.01702611	stim	stop-signal	30	146872	0.0-7.11-1.11	beast_fmri_test	358	144583,/,145264,/,145943,/,146624,/,147303,/	t,t,t,t,t	<img class = center src='/static/experiments/beast_fmri_test/images/B.png'></img>	71,89	2750.0	test	<img class = center src='/static/experiments/beast_fmri_test/images/redB.png'></img>	go	2300.0	2.0	11.0	go	non-target	B	71,Index Finger	89,Middle Finger	450.0	450.0	2300.0	2300.0	1.0	450.0	1.0	n/a	go_stim
63118.982973885519	1018.01702611	n/a	805	89	2750	1018.01702611	stim	stop-signal	30	146872	0.0-7.11-1.11	beast_fmri_test	358	144583,/,145264,/,145943,/,146624,/,147303,/	t,t,t,t,t	<img class = center src='/static/experiments/beast_fmri_test/images/B.png'></img>	71,89	2750.0	test	<img class = center src='/static/experiments/beast_fmri_test/images/redB.png'></img>	go	2300.0	2.0	11.0	go	non-target	B	71,Index Finger	89,Middle Finger	450.0	450.0	2300.0	2300.0	1.0	450.0	1.0	n/a	ITI
65663	500.0	n/a	-1	-1	500	0.0	fixation	poldrack-single-stim	31	148398	0.0-7.12-0.12	beast_fmri_test	358	147983,/	t	<div class = centerbox2><div class = fixation>+</div></div>	none	500.0	test	n/a	n/a	n/a	n/a	n/a	n/a	n/a	n/a	n/a	n/a	n/a	n/a	n/a	n/a	n/a	n/a	n/a	n/a	fixation
65217.372735274403	2750.0	n/a	543	89	2750	446.627264726	stim	stop-signal	32	151149	0.0-7.12-1.12	beast_fmri_test	358	148663,/,149341,/,150021,/,150700,/,151381,/	t,t,t,t,t	<img class = center src='/static/experiments/beast_fmri_test/images/D.png'></img>	71,89	2750.0	test	<img class = center src='/static/experiments/beast_fmri_test/images/redD.png'></img>	go	2300.0	2.0	12.0	go	non-target	D	71,Index Finger	89,Middle Finger	450.0	450.0	2300.0	2300.0	1.0	450.0	1.0	n/a	go_stim
67967.372735274403	446.627264726	n/a	543	89	2750	446.627264726	stim	stop-signal	32	151149	0.0-7.12-1.12	beast_fmri_test	358	148663,/,149341,/,150021,/,150700,/,151381,/	t,t,t,t,t	<img class = center src='/static/experiments/beast_fmri_test/images/D.png'></img>	71,89	2750.0	test	<img class = center src='/static/experiments/beast_fmri_test/images/redD.png'></img>	go	2300.0	2.0	12.0	go	non-target	D	71,Index Finger	89,Middle Finger	450.0	450.0	2300.0	2300.0	1.0	450.0	1.0	n/a	ITI
69372	500.0	n/a	-1	-1	500	0.0	fixation	poldrack-single-stim	33	152107	0.0-7.13-0.13	beast_fmri_test	358	152061,/	t	<div class = centerbox2><div class = fixation>+</div></div>	none	500.0	test	n/a	n/a	n/a	n/a	n/a	n/a	n/a	n/a	n/a	n/a	n/a	n/a	n/a	n/a	n/a	n/a	n/a	n/a	fixation
68248.618518245843	2750.0	n/a	1045	89	2750	1124.38148175	stim	stop-signal	34	154858	0.0-7.13-1.13	beast_fmri_test	358	152741,/,153420,/,154100,/,154779,/,155459,/	t,t,t,t,t	<img class = center src='/static/experiments/beast_fmri_test/images/V.png'></img>	71,89	2750.0	test	<img class = center src='/static/experiments/beast_fmri_test/images/redV.png'></img>	go	2300.0	2.0	13.0	go	non-target	V	71,Index Finger	89,Middle Finger	450.0	450.0	2300.0	2300.0	1.0	450.0	1.0	n/a	go_stim
70998.618518245843	1124.38148175	n/a	1045	89	2750	1124.38148175	stim	stop-signal	34	154858	0.0-7.13-1.13	beast_fmri_test	358	152741,/,153420,/,154100,/,154779,/,155459,/	t,t,t,t,t	<img class = center src='/static/experiments/beast_fmri_test/images/V.png'></img>	71,89	2750.0	test	<img class = center src='/static/experiments/beast_fmri_test/images/redV.png'></img>	go	2300.0	2.0	13.0	go	non-target	V	71,Index Finger	89,Middle Finger	450.0	450.0	2300.0	2300.0	1.0	450.0	1.0	n/a	ITI
73754	500.0	n/a	-1	-1	500	0.0	fixation	poldrack-single-stim	35	156489	0.0-7.14-0.14	beast_fmri_test	358	156140,/	t	<div class = centerbox2><div class = fixation>+</div></div>	none	500.0	test	n/a	n/a	n/a	n/a	n/a	n/a	n/a	n/a	n/a	n/a	n/a	n/a	n/a	n/a	n/a	n/a	n/a	n/a	fixation
73195.581036276097	450.0	n/a	773	89	2750	559.418963724	stim	stop-signal	36	159240	0.0-7.14-1.14	beast_fmri_test	358	156819,/,157498,/,158179,/,158859,/,159537,/	t,t,t,t,t	<img class = center src='/static/experiments/beast_fmri_test/images/P.png'></img>	71,89	2750.0	test	<img class = center src='/static/experiments/beast_fmri_test/images/redP.png'></img>	stop	2300.0	2.0	14.0	stop	non-target	P	71,Index Finger	89,Middle Finger	450.0	450.0	2300.0	2300.0	0.0	450.0	n/a	0.0	go_stim
75495.581036276097	2300.0	n/a	773	89	2750	559.418963724	stim	stop-signal	36	159240	0.0-7.14-1.14	beast_fmri_test	358	156819,/,157498,/,158179,/,158859,/,159537,/	t,t,t,t,t	<img class = center src='/static/experiments/beast_fmri_test/images/P.png'></img>	71,89	2750.0	test	<img class = center src='/static/experiments/beast_fmri_test/images/redP.png'></img>	stop	2300.0	2.0	14.0	stop	non-target	P	71,Index Finger	89,Middle Finger	450.0	450.0	2300.0	2300.0	0.0	450.0	n/a	0.0	stop_stim
75945.581036276097	559.418963724	n/a	773	89	2750	559.418963724	stim	stop-signal	36	159240	0.0-7.14-1.14	beast_fmri_test	358	156819,/,157498,/,158179,/,158859,/,159537,/	t,t,t,t,t	<img class = center src='/static/experiments/beast_fmri_test/images/P.png'></img>	71,89	2750.0	test	<img class = center src='/static/experiments/beast_fmri_test/images/redP.png'></img>	stop	2300.0	2.0	14.0	stop	non-target	P	71,Index Finger	89,Middle Finger	450.0	450.0	2300.0	2300.0	0.0	450.0	n/a	0.0	ITI
77572	500.0	n/a	-1	-1	500	0.0	fixation	poldrack-single-stim	37	160307	0.0-7.15-0.15	beast_fmri_test	358	160218,/	t	<div class = centerbox2><div class = fixation>+</div></div>	none	500.0	test	n/a	n/a	n/a	n/a	n/a	n/a	n/a	n/a	n/a	n/a	n/a	n/a	n/a	n/a	n/a	n/a	n/a	n/a	fixation
73340.448625378049	2750.0	n/a	705	71	2750	4233.55137462	stim	stop-signal	38	163059	0.0-7.15-1.15	beast_fmri_test	358	160896,/,161577,/,162256,/,162936,/,163615,/,164295,/,164975,/,165655,/,166335,/,167014,/	t,t,t,t,t,t,t,t,t,t	<img class = center src='/static/experiments/beast_fmri_test/images/V.png'></img>	71,89	2750.0	test	<img class = center src='/static/experiments/beast_fmri_test/images/redV.png'></img>	go	2300.0	2.0	15.0	go	target	V	71,Index Finger	89,Middle Finger	450.0	400.0	2300.0	2300.0	1.0	450.0	1.0	n/a	go_stim
76090.448625378049	4233.55137462	n/a	705	71	2750	4233.55137462	stim	stop-signal	38	163059	0.0-7.15-1.15	beast_fmri_test	358	160896,/,161577,/,162256,/,162936,/,163615,/,164295,/,164975,/,165655,/,166335,/,167014,/	t,t,t,t,t,t,t,t,t,t	<img class = center src='/static/experiments/beast_fmri_test/images/V.png'></img>	71,89	2750.0	test	<img class = center src='/static/experiments/beast_fmri_test/images/redV.png'></img>	go	2300.0	2.0	15.0	go	target	V	71,Index Finger	89,Middle Finger	450.0	400.0	2300.0	2300.0	1.0	450.0	1.0	n/a	ITI
85065	500.0	n/a	-1	-1	500	0.0	fixation	poldrack-single-stim	39	167800	0.0-7.16-0.16	beast_fmri_test	358	167694,/	t	<div class = centerbox2><div class = fixation>+</div></div>	none	500.0	test	n/a	n/a	n/a	n/a	n/a	n/a	n/a	n/a	n/a	n/a	n/a	n/a	n/a	n/a	n/a	n/a	n/a	n/a	fixation
84409.082363822788	2750.0	n/a	855	71	2750	658.917636177	stim	stop-signal	40	170553	0.0-7.16-1.16	beast_fmri_test	358	168372,/,169053,/,169733,/,170413,/,171091,/	t,t,t,t,t	<img class = center src='/static/experiments/beast_fmri_test/images/P.png'></img>	71,89	2750.0	test	<img class = center src='/static/experiments/beast_fmri_test/images/redP.png'></img>	go	2300.0	2.0	16.0	go	target	P	71,Index Finger	89,Middle Finger	450.0	400.0	2300.0	2300.0	1.0	450.0	1.0	n/a	go_stim
87159.082363822788	658.917636177	n/a	855	71	2750	658.917636177	stim	stop-signal	40	170553	0.0-7.16-1.16	beast_fmri_test	358	168372,/,169053,/,169733,/,170413,/,171091,/	t,t,t,t,t	<img class = center src='/static/experiments/beast_fmri_test/images/P.png'></img>	71,89	2750.0	test	<img class = center src='/static/experiments/beast_fmri_test/images/redP.png'></img>	go	2300.0	2.0	16.0	go	target	P	71,Index Finger	89,Middle Finger	450.0	400.0	2300.0	2300.0	1.0	450.0	1.0	n/a	ITI
88984	500.0	n/a	-1	-1	500	0.0	fixation	poldrack-single-stim	41	171719	0.0-7.17-0.17	beast_fmri_test	358	n/a	n/a	<div class = centerbox2><div class = fixation>+</div></div>	none	500.0	test	n/a	n/a	n/a	n/a	n/a	n/a	n/a	n/a	n/a	n/a	n/a	n/a	n/a	n/a	n/a	n/a	n/a	n/a	fixation
88873.079412436375	2750.0	n/a	1314	89	2750	112.920587564	stim	stop-signal	42	174471	0.0-7.17-1.17	beast_fmri_test	358	171770,/,172451,/,173131,/,173809,/,174489,/	t,t,t,t,t	<img class = center src='/static/experiments/beast_fmri_test/images/P.png'></img>	71,89	2750.0	test	<img class = center src='/static/experiments/beast_fmri_test/images/redP.png'></img>	go	2350.0	2.0	17.0	go	non-target	P	71,Index Finger	89,Middle Finger	450.0	400.0	2300.0	2350.0	1.0	400.0	1.0	n/a	go_stim
91623.079412436375	112.920587564	n/a	1314	89	2750	112.920587564	stim	stop-signal	42	174471	0.0-7.17-1.17	beast_fmri_test	358	171770,/,172451,/,173131,/,173809,/,174489,/	t,t,t,t,t	<img class = center src='/static/experiments/beast_fmri_test/images/P.png'></img>	71,89	2750.0	test	<img class = center src='/static/experiments/beast_fmri_test/images/redP.png'></img>	go	2350.0	2.0	17.0	go	non-target	P	71,Index Finger	89,Middle Finger	450.0	400.0	2300.0	2350.0	1.0	400.0	1.0	n/a	ITI
92355	500.0	n/a	-1	-1	500	0.0	fixation	poldrack-single-stim	43	175090	0.0-7.18-0.18	beast_fmri_test	358	n/a	n/a	<div class = centerbox2><div class = fixation>+</div></div>	none	500.0	test	n/a	n/a	n/a	n/a	n/a	n/a	n/a	n/a	n/a	n/a	n/a	n/a	n/a	n/a	n/a	n/a	n/a	n/a	fixation
92266.416486126167	400.0	n/a	-1	-1	2750	90.5835138738	stim	stop-signal	44	177842	0.0-7.18-1.18	beast_fmri_test	358	175170,/,175850,/,176530,/,177208,/,177888,/	t,t,t,t,t	<img class = center src='/static/experiments/beast_fmri_test/images/T.png'></img>	71,89	2750.0	test	<img class = center src='/static/experiments/beast_fmri_test/images/redT.png'></img>	stop	2350.0	2.0	18.0	stop	non-target	T	71,Index Finger	89,Middle Finger	450.0	400.0	2300.0	2350.0	0.0	400.0	n/a	1.0	go_stim
94616.416486126167	2350.0	n/a	-1	-1	2750	90.5835138738	stim	stop-signal	44	177842	0.0-7.18-1.18	beast_fmri_test	358	175170,/,175850,/,176530,/,177208,/,177888,/	t,t,t,t,t	<img class = center src='/static/experiments/beast_fmri_test/images/T.png'></img>	71,89	2750.0	test	<img class = center src='/static/experiments/beast_fmri_test/images/redT.png'></img>	stop	2350.0	2.0	18.0	stop	non-target	T	71,Index Finger	89,Middle Finger	450.0	400.0	2300.0	2350.0	0.0	400.0	n/a	1.0	stop_stim
95016.416486126167	90.5835138738	n/a	-1	-1	2750	90.5835138738	stim	stop-signal	44	177842	0.0-7.18-1.18	beast_fmri_test	358	175170,/,175850,/,176530,/,177208,/,177888,/	t,t,t,t,t	<img class = center src='/static/experiments/beast_fmri_test/images/T.png'></img>	71,89	2750.0	test	<img class = center src='/static/experiments/beast_fmri_test/images/redT.png'></img>	stop	2350.0	2.0	18.0	stop	non-target	T	71,Index Finger	89,Middle Finger	450.0	400.0	2300.0	2350.0	0.0	400.0	n/a	1.0	ITI
95708	500.0	n/a	-1	-1	500	0.0	fixation	poldrack-single-stim	45	178443	0.0-7.19-0.19	beast_fmri_test	358	n/a	n/a	<div class = centerbox2><div class = fixation>+</div></div>	none	500.0	test	n/a	n/a	n/a	n/a	n/a	n/a	n/a	n/a	n/a	n/a	n/a	n/a	n/a	n/a	n/a	n/a	n/a	n/a	fixation
95518.94853706524	450.0	n/a	637	89	2750	190.051462935	stim	stop-signal	46	181194	0.0-7.19-1.19	beast_fmri_test	358	178570,/,179249,/,179927,/,180609,/,181287,/	t,t,t,t,t	<img class = center src='/static/experiments/beast_fmri_test/images/B.png'></img>	71,89	2750.0	test	<img class = center src='/static/experiments/beast_fmri_test/images/redB.png'></img>	stop	2300.0	2.0	19.0	stop	non-target	B	71,Index Finger	89,Middle Finger	450.0	450.0	2300.0	2300.0	0.0	450.0	n/a	0.0	go_stim
97818.94853706524	2300.0	n/a	637	89	2750	190.051462935	stim	stop-signal	46	181194	0.0-7.19-1.19	beast_fmri_test	358	178570,/,179249,/,179927,/,180609,/,181287,/	t,t,t,t,t	<img class = center src='/static/experiments/beast_fmri_test/images/B.png'></img>	71,89	2750.0	test	<img class = center src='/static/experiments/beast_fmri_test/images/redB.png'></img>	stop	2300.0	2.0	19.0	stop	non-target	B	71,Index Finger	89,Middle Finger	450.0	450.0	2300.0	2300.0	0.0	450.0	n/a	0.0	stop_stim
98268.94853706524	190.051462935	n/a	637	89	2750	190.051462935	stim	stop-signal	46	181194	0.0-7.19-1.19	beast_fmri_test	358	178570,/,179249,/,179927,/,180609,/,181287,/	t,t,t,t,t	<img class = center src='/static/experiments/beast_fmri_test/images/B.png'></img>	71,89	2750.0	test	<img class = center src='/static/experiments/beast_fmri_test/images/redB.png'></img>	stop	2300.0	2.0	19.0	stop	non-target	B	71,Index Finger	89,Middle Finger	450.0	450.0	2300.0	2300.0	0.0	450.0	n/a	0.0	ITI
99161	500.0	n/a	-1	-1	500	0.0	fixation	poldrack-single-stim	47	181896	0.0-7.20-0.20	beast_fmri_test	358	n/a	n/a	<div class = centerbox2><div class = fixation>+</div></div>	none	500.0	test	n/a	n/a	n/a	n/a	n/a	n/a	n/a	n/a	n/a	n/a	n/a	n/a	n/a	n/a	n/a	n/a	n/a	n/a	fixation
97915.088004931895	400.0	n/a	-1	-1	2750	1247.91199507	stim	stop-signal	48	184648	0.0-7.20-1.20	beast_fmri_test	358	181967,/,182646,/,183326,/,184005,/,184685,/,185365,/	t,t,t,t,t,t	<img class = center src='/static/experiments/beast_fmri_test/images/D.png'></img>	71,89	2750.0	test	<img class = center src='/static/experiments/beast_fmri_test/images/redD.png'></img>	stop	2350.0	2.0	20.0	stop	non-target	D	71,Index Finger	89,Middle Finger	450.0	400.0	2300.0	2350.0	0.0	400.0	n/a	1.0	go_stim
100265.08800493189	2350.0	n/a	-1	-1	2750	1247.91199507	stim	stop-signal	48	184648	0.0-7.20-1.20	beast_fmri_test	358	181967,/,182646,/,183326,/,184005,/,184685,/,185365,/	t,t,t,t,t,t	<img class = center src='/static/experiments/beast_fmri_test/images/D.png'></img>	71,89	2750.0	test	<img class = center src='/static/experiments/beast_fmri_test/images/redD.png'></img>	stop	2350.0	2.0	20.0	stop	non-target	D	71,Index Finger	89,Middle Finger	450.0	400.0	2300.0	2350.0	0.0	400.0	n/a	1.0	stop_stim
100665.08800493189	1247.91199507	n/a	-1	-1	2750	1247.91199507	stim	stop-signal	48	184648	0.0-7.20-1.20	beast_fmri_test	358	181967,/,182646,/,183326,/,184005,/,184685,/,185365,/	t,t,t,t,t,t	<img class = center src='/static/experiments/beast_fmri_test/images/D.png'></img>	71,89	2750.0	test	<img class = center src='/static/experiments/beast_fmri_test/images/redD.png'></img>	stop	2350.0	2.0	20.0	stop	non-target	D	71,Index Finger	89,Middle Finger	450.0	400.0	2300.0	2350.0	0.0	400.0	n/a	1.0	ITI
103669	500.0	n/a	-1	-1	500	0.0	fixation	poldrack-single-stim	49	186404	0.0-7.21-0.21	beast_fmri_test	358	186047,/	t	<div class = centerbox2><div class = fixation>+</div></div>	none	500.0	test	n/a	n/a	n/a	n/a	n/a	n/a	n/a	n/a	n/a	n/a	n/a	n/a	n/a	n/a	n/a	n/a	n/a	n/a	fixation
103617.43772517057	450.0	n/a	-1	-1	2750	52.5622748294	stim	stop-signal	50	189155	0.0-7.21-1.21	beast_fmri_test	358	186724,/,187405,/,188084,/,188763,/	t,t,t,t	<img class = center src='/static/experiments/beast_fmri_test/images/D.png'></img>	71,89	2750.0	test	<img class = center src='/static/experiments/beast_fmri_test/images/redD.png'></img>	stop	2300.0	2.0	21.0	stop	non-target	D	71,Index Finger	89,Middle Finger	450.0	450.0	2300.0	2300.0	0.0	450.0	n/a	1.0	go_stim
105917.43772517057	2300.0	n/a	-1	-1	2750	52.5622748294	stim	stop-signal	50	189155	0.0-7.21-1.21	beast_fmri_test	358	186724,/,187405,/,188084,/,188763,/	t,t,t,t	<img class = center src='/static/experiments/beast_fmri_test/images/D.png'></img>	71,89	2750.0	test	<img class = center src='/static/experiments/beast_fmri_test/images/redD.png'></img>	stop	2300.0	2.0	21.0	stop	non-target	D	71,Index Finger	89,Middle Finger	450.0	450.0	2300.0	2300.0	0.0	450.0	n/a	1.0	stop_stim
106367.43772517057	52.5622748294	n/a	-1	-1	2750	52.5622748294	stim	stop-signal	50	189155	0.0-7.21-1.21	beast_fmri_test	358	186724,/,187405,/,188084,/,188763,/	t,t,t,t	<img class = center src='/static/experiments/beast_fmri_test/images/D.png'></img>	71,89	2750.0	test	<img class = center src='/static/experiments/beast_fmri_test/images/redD.png'></img>	stop	2300.0	2.0	21.0	stop	non-target	D	71,Index Finger	89,Middle Finger	450.0	450.0	2300.0	2300.0	0.0	450.0	n/a	1.0	ITI
106982	500.0	n/a	-1	-1	500	0.0	fixation	poldrack-single-stim	51	189717	0.0-7.22-0.22	beast_fmri_test	358	189445,/	t	<div class = centerbox2><div class = fixation>+</div></div>	none	500.0	test	n/a	n/a	n/a	n/a	n/a	n/a	n/a	n/a	n/a	n/a	n/a	n/a	n/a	n/a	n/a	n/a	n/a	n/a	fixation
106781.27532329995	450.0	n/a	-1	-1	2750	202.7246767	stim	stop-signal	52	192469	0.0-7.22-1.22	beast_fmri_test	358	190124,/,190803,/,191482,/,192162,/	t,t,t,t	<img class = center src='/static/experiments/beast_fmri_test/images/D.png'></img>	71,89	2750.0	test	<img class = center src='/static/experiments/beast_fmri_test/images/redD.png'></img>	stop	2300.0	2.0	22.0	stop	target	D	71,Index Finger	89,Middle Finger	450.0	500.0	2300.0	2300.0	0.0	450.0	n/a	1.0	go_stim
109081.27532329995	2300.0	n/a	-1	-1	2750	202.7246767	stim	stop-signal	52	192469	0.0-7.22-1.22	beast_fmri_test	358	190124,/,190803,/,191482,/,192162,/	t,t,t,t	<img class = center src='/static/experiments/beast_fmri_test/images/D.png'></img>	71,89	2750.0	test	<img class = center src='/static/experiments/beast_fmri_test/images/redD.png'></img>	stop	2300.0	2.0	22.0	stop	target	D	71,Index Finger	89,Middle Finger	450.0	500.0	2300.0	2300.0	0.0	450.0	n/a	1.0	stop_stim
109531.27532329995	202.7246767	n/a	-1	-1	2750	202.7246767	stim	stop-signal	52	192469	0.0-7.22-1.22	beast_fmri_test	358	190124,/,190803,/,191482,/,192162,/	t,t,t,t	<img class = center src='/static/experiments/beast_fmri_test/images/D.png'></img>	71,89	2750.0	test	<img class = center src='/static/experiments/beast_fmri_test/images/redD.png'></img>	stop	2300.0	2.0	22.0	stop	target	D	71,Index Finger	89,Middle Finger	450.0	500.0	2300.0	2300.0	0.0	450.0	n/a	1.0	ITI
110447	500.0	n/a	-1	-1	500	0.0	fixation	poldrack-single-stim	53	193182	0.0-7.23-0.23	beast_fmri_test	358	192841,/	t	<div class = centerbox2><div class = fixation>+</div></div>	none	500.0	test	n/a	n/a	n/a	n/a	n/a	n/a	n/a	n/a	n/a	n/a	n/a	n/a	n/a	n/a	n/a	n/a	n/a	n/a	fixation
110114.48470717951	2750.0	n/a	1326	71	2750	333.51529282	stim	stop-signal	54	195933	0.0-7.23-1.23	beast_fmri_test	358	193523,/,194202,/,194880,/,195561,/,196239,/	t,t,t,t,t	<img class = center src='/static/experiments/beast_fmri_test/images/D.png'></img>	71,89	2750.0	test	<img class = center src='/static/experiments/beast_fmri_test/images/redD.png'></img>	go	2250.0	2.0	23.0	go	target	D	71,Index Finger	89,Middle Finger	500.0	500.0	2250.0	2300.0	1.0	500.0	1.0	n/a	go_stim
112864.48470717951	333.51529282	n/a	1326	71	2750	333.51529282	stim	stop-signal	54	195933	0.0-7.23-1.23	beast_fmri_test	358	193523,/,194202,/,194880,/,195561,/,196239,/	t,t,t,t,t	<img class = center src='/static/experiments/beast_fmri_test/images/D.png'></img>	71,89	2750.0	test	<img class = center src='/static/experiments/beast_fmri_test/images/redD.png'></img>	go	2250.0	2.0	23.0	go	target	D	71,Index Finger	89,Middle Finger	500.0	500.0	2250.0	2300.0	1.0	500.0	1.0	n/a	ITI
114043	500.0	n/a	-1	-1	500	0.0	fixation	poldrack-single-stim	55	196778	0.0-7.24-0.24	beast_fmri_test	358	n/a	n/a	<div class = centerbox2><div class = fixation>+</div></div>	none	500.0	test	n/a	n/a	n/a	n/a	n/a	n/a	n/a	n/a	n/a	n/a	n/a	n/a	n/a	n/a	n/a	n/a	n/a	n/a	fixation
113461.51779287751	2750.0	n/a	1329	89	2750	582.482207122	stim	stop-signal	56	199529	0.0-7.24-1.24	beast_fmri_test	358	196919,/,197599,/,198280,/,198958,/,199639,/	t,t,t,t,t	<img class = center src='/static/experiments/beast_fmri_test/images/P.png'></img>	71,89	2750.0	test	<img class = center src='/static/experiments/beast_fmri_test/images/redP.png'></img>	go	2250.0	2.0	24.0	go	non-target	P	71,Index Finger	89,Middle Finger	500.0	500.0	2250.0	2250.0	1.0	500.0	1.0	n/a	go_stim
116211.51779287751	582.482207122	n/a	1329	89	2750	582.482207122	stim	stop-signal	56	199529	0.0-7.24-1.24	beast_fmri_test	358	196919,/,197599,/,198280,/,198958,/,199639,/	t,t,t,t,t	<img class = center src='/static/experiments/beast_fmri_test/images/P.png'></img>	71,89	2750.0	test	<img class = center src='/static/experiments/beast_fmri_test/images/redP.png'></img>	go	2250.0	2.0	24.0	go	non-target	P	71,Index Finger	89,Middle Finger	500.0	500.0	2250.0	2250.0	1.0	500.0	1.0	n/a	ITI
117884	500.0	n/a	-1	-1	500	0.0	fixation	poldrack-single-stim	57	200619	0.0-7.25-0.25	beast_fmri_test	358	200318,/	t	<div class = centerbox2><div class = fixation>+</div></div>	none	500.0	test	n/a	n/a	n/a	n/a	n/a	n/a	n/a	n/a	n/a	n/a	n/a	n/a	n/a	n/a	n/a	n/a	n/a	n/a	fixation
117739.73308995055	2750.0	n/a	796	89	2750	145.266910049	stim	stop-signal	58	203370	0.0-7.25-1.25	beast_fmri_test	358	200998,/,201677,/,202358,/,203037,/	t,t,t,t	<img class = center src='/static/experiments/beast_fmri_test/images/V.png'></img>	71,89	2750.0	test	<img class = center src='/static/experiments/beast_fmri_test/images/redV.png'></img>	go	2250.0	2.0	25.0	go	non-target	V	71,Index Finger	89,Middle Finger	500.0	500.0	2250.0	2250.0	1.0	500.0	1.0	n/a	go_stim
120489.73308995055	145.266910049	n/a	796	89	2750	145.266910049	stim	stop-signal	58	203370	0.0-7.25-1.25	beast_fmri_test	358	200998,/,201677,/,202358,/,203037,/	t,t,t,t	<img class = center src='/static/experiments/beast_fmri_test/images/V.png'></img>	71,89	2750.0	test	<img class = center src='/static/experiments/beast_fmri_test/images/redV.png'></img>	go	2250.0	2.0	25.0	go	non-target	V	71,Index Finger	89,Middle Finger	500.0	500.0	2250.0	2250.0	1.0	500.0	1.0	n/a	ITI
121289	500.0	n/a	-1	-1	500	0.0	fixation	poldrack-single-stim	59	204024	0.0-7.26-0.26	beast_fmri_test	358	203717,/	t	<div class = centerbox2><div class = fixation>+</div></div>	none	500.0	test	n/a	n/a	n/a	n/a	n/a	n/a	n/a	n/a	n/a	n/a	n/a	n/a	n/a	n/a	n/a	n/a	n/a	n/a	fixation
121124.56677409171	500.0	n/a	640	89	2750	166.433225908	stim	stop-signal	60	206776	0.0-7.26-1.26	beast_fmri_test	358	204397,/,205075,/,205755,/,206435,/	t,t,t,t	<img class = center src='/static/experiments/beast_fmri_test/images/T.png'></img>	71,89	2750.0	test	<img class = center src='/static/experiments/beast_fmri_test/images/redT.png'></img>	stop	2250.0	2.0	26.0	stop	non-target	T	71,Index Finger	89,Middle Finger	500.0	500.0	2250.0	2250.0	0.0	500.0	n/a	0.0	go_stim
123374.56677409171	2250.0	n/a	640	89	2750	166.433225908	stim	stop-signal	60	206776	0.0-7.26-1.26	beast_fmri_test	358	204397,/,205075,/,205755,/,206435,/	t,t,t,t	<img class = center src='/static/experiments/beast_fmri_test/images/T.png'></img>	71,89	2750.0	test	<img class = center src='/static/experiments/beast_fmri_test/images/redT.png'></img>	stop	2250.0	2.0	26.0	stop	non-target	T	71,Index Finger	89,Middle Finger	500.0	500.0	2250.0	2250.0	0.0	500.0	n/a	0.0	stop_stim
123874.56677409171	166.433225908	n/a	640	89	2750	166.433225908	stim	stop-signal	60	206776	0.0-7.26-1.26	beast_fmri_test	358	204397,/,205075,/,205755,/,206435,/	t,t,t,t	<img class = center src='/static/experiments/beast_fmri_test/images/T.png'></img>	71,89	2750.0	test	<img class = center src='/static/experiments/beast_fmri_test/images/redT.png'></img>	stop	2250.0	2.0	26.0	stop	non-target	T	71,Index Finger	89,Middle Finger	500.0	500.0	2250.0	2250.0	0.0	500.0	n/a	0.0	ITI
124718	500.0	n/a	-1	-1	500	0.0	fixation	poldrack-single-stim	61	207453	0.0-7.27-0.27	beast_fmri_test	358	207115,/	t	<div class = centerbox2><div class = fixation>+</div></div>	none	500.0	test	n/a	n/a	n/a	n/a	n/a	n/a	n/a	n/a	n/a	n/a	n/a	n/a	n/a	n/a	n/a	n/a	n/a	n/a	fixation
123416.79511064963	2750.0	n/a	1310	89	2750	1302.20488935	stim	stop-signal	62	210204	0.0-7.27-1.27	beast_fmri_test	358	207795,/,208475,/,209154,/,209835,/,210513,/,211194,/	t,t,t,t,t,t	<img class = center src='/static/experiments/beast_fmri_test/images/T.png'></img>	71,89	2750.0	test	<img class = center src='/static/experiments/beast_fmri_test/images/redT.png'></img>	go	2300.0	2.0	27.0	go	non-target	T	71,Index Finger	89,Middle Finger	500.0	450.0	2250.0	2300.0	1.0	450.0	1.0	n/a	go_stim
126166.79511064963	1302.20488935	n/a	1310	89	2750	1302.20488935	stim	stop-signal	62	210204	0.0-7.27-1.27	beast_fmri_test	358	207795,/,208475,/,209154,/,209835,/,210513,/,211194,/	t,t,t,t,t,t	<img class = center src='/static/experiments/beast_fmri_test/images/T.png'></img>	71,89	2750.0	test	<img class = center src='/static/experiments/beast_fmri_test/images/redT.png'></img>	go	2300.0	2.0	27.0	go	non-target	T	71,Index Finger	89,Middle Finger	500.0	450.0	2250.0	2300.0	1.0	450.0	1.0	n/a	ITI
129282	500.0	n/a	-1	-1	500	0.0	fixation	poldrack-single-stim	63	212017	0.0-7.28-0.28	beast_fmri_test	358	211873,/	t	<div class = centerbox2><div class = fixation>+</div></div>	none	500.0	test	n/a	n/a	n/a	n/a	n/a	n/a	n/a	n/a	n/a	n/a	n/a	n/a	n/a	n/a	n/a	n/a	n/a	n/a	fixation
128117.0904420219	2750.0	n/a	1115	89	2750	1166.90955798	stim	stop-signal	64	214769	0.0-7.28-1.28	beast_fmri_test	358	212554,/,213232,/,213913,/,214593,/,215272,/	t,t,t,t,t	<img class = center src='/static/experiments/beast_fmri_test/images/V.png'></img>	71,89	2750.0	test	<img class = center src='/static/experiments/beast_fmri_test/images/redV.png'></img>	go	2300.0	2.0	28.0	go	non-target	V	71,Index Finger	89,Middle Finger	500.0	450.0	2250.0	2300.0	1.0	450.0	1.0	n/a	go_stim
130867.0904420219	1166.90955798	n/a	1115	89	2750	1166.90955798	stim	stop-signal	64	214769	0.0-7.28-1.28	beast_fmri_test	358	212554,/,213232,/,213913,/,214593,/,215272,/	t,t,t,t,t	<img class = center src='/static/experiments/beast_fmri_test/images/V.png'></img>	71,89	2750.0	test	<img class = center src='/static/experiments/beast_fmri_test/images/redV.png'></img>	go	2300.0	2.0	28.0	go	non-target	V	71,Index Finger	89,Middle Finger	500.0	450.0	2250.0	2300.0	1.0	450.0	1.0	n/a	ITI
133712	500.0	n/a	-1	-1	500	0.0	fixation	poldrack-single-stim	65	216447	0.0-7.29-0.29	beast_fmri_test	358	215951,/	t	<div class = centerbox2><div class = fixation>+</div></div>	none	500.0	test	n/a	n/a	n/a	n/a	n/a	n/a	n/a	n/a	n/a	n/a	n/a	n/a	n/a	n/a	n/a	n/a	n/a	n/a	fixation
132992.61763123583	2750.0	n/a	1035	89	2750	720.382368764	stim	stop-signal	66	219198	0.0-7.29-1.29	beast_fmri_test	358	216632,/,217311,/,217990,/,218670,/,219350,/	t,t,t,t,t	<img class = center src='/static/experiments/beast_fmri_test/images/V.png'></img>	71,89	2750.0	test	<img class = center src='/static/experiments/beast_fmri_test/images/redV.png'></img>	go	2300.0	2.0	29.0	go	non-target	V	71,Index Finger	89,Middle Finger	500.0	450.0	2250.0	2300.0	1.0	450.0	1.0	n/a	go_stim
135742.61763123583	720.382368764	n/a	1035	89	2750	720.382368764	stim	stop-signal	66	219198	0.0-7.29-1.29	beast_fmri_test	358	216632,/,217311,/,217990,/,218670,/,219350,/	t,t,t,t,t	<img class = center src='/static/experiments/beast_fmri_test/images/V.png'></img>	71,89	2750.0	test	<img class = center src='/static/experiments/beast_fmri_test/images/redV.png'></img>	go	2300.0	2.0	29.0	go	non-target	V	71,Index Finger	89,Middle Finger	500.0	450.0	2250.0	2300.0	1.0	450.0	1.0	n/a	ITI
137692	500.0	n/a	-1	-1	500	0.0	fixation	poldrack-single-stim	67	220427	0.0-7.30-0.30	beast_fmri_test	358	220028,/	t	<div class = centerbox2><div class = fixation>+</div></div>	none	500.0	test	n/a	n/a	n/a	n/a	n/a	n/a	n/a	n/a	n/a	n/a	n/a	n/a	n/a	n/a	n/a	n/a	n/a	n/a	fixation
137303.81677521646	2750.0	n/a	815	71	2750	391.183224784	stim	stop-signal	68	223180	0.0-7.30-1.30	beast_fmri_test	358	220708,/,221389,/,222067,/,222749,/,223427,/	t,t,t,t,t	<img class = center src='/static/experiments/beast_fmri_test/images/V.png'></img>	71,89	2750.0	test	<img class = center src='/static/experiments/beast_fmri_test/images/redV.png'></img>	go	2250.0	2.0	30.0	go	target	V	71,Index Finger	89,Middle Finger	500.0	450.0	2250.0	2300.0	1.0	500.0	1.0	n/a	go_stim
140053.81677521646	391.183224784	n/a	815	71	2750	391.183224784	stim	stop-signal	68	223180	0.0-7.30-1.30	beast_fmri_test	358	220708,/,221389,/,222067,/,222749,/,223427,/	t,t,t,t,t	<img class = center src='/static/experiments/beast_fmri_test/images/V.png'></img>	71,89	2750.0	test	<img class = center src='/static/experiments/beast_fmri_test/images/redV.png'></img>	go	2250.0	2.0	30.0	go	target	V	71,Index Finger	89,Middle Finger	500.0	450.0	2250.0	2300.0	1.0	500.0	1.0	n/a	ITI
141347	500.0	n/a	-1	-1	500	0.0	fixation	poldrack-single-stim	69	224082	0.0-7.31-0.31	beast_fmri_test	358	n/a	n/a	<div class = centerbox2><div class = fixation>+</div></div>	none	500.0	test	n/a	n/a	n/a	n/a	n/a	n/a	n/a	n/a	n/a	n/a	n/a	n/a	n/a	n/a	n/a	n/a	n/a	n/a	fixation
137607.66559730287	2750.0	n/a	1132	89	2750	3740.3344027	stim	stop-signal	70	226833	0.0-7.31-1.31	beast_fmri_test	358	224107,/,224786,/,225467,/,226147,/,226826,/,227507,/,228185,/,228864,/,229544,/,230225,/	t,t,t,t,t,t,t,t,t,t	<img class = center src='/static/experiments/beast_fmri_test/images/P.png'></img>	71,89	2750.0	test	<img class = center src='/static/experiments/beast_fmri_test/images/redP.png'></img>	go	2300.0	2.0	31.0	go	non-target	P	71,Index Finger	89,Middle Finger	500.0	450.0	2250.0	2300.0	1.0	450.0	1.0	n/a	go_stim
140357.66559730287	3740.3344027	n/a	1132	89	2750	3740.3344027	stim	stop-signal	70	226833	0.0-7.31-1.31	beast_fmri_test	358	224107,/,224786,/,225467,/,226147,/,226826,/,227507,/,228185,/,228864,/,229544,/,230225,/	t,t,t,t,t,t,t,t,t,t	<img class = center src='/static/experiments/beast_fmri_test/images/P.png'></img>	71,89	2750.0	test	<img class = center src='/static/experiments/beast_fmri_test/images/redP.png'></img>	go	2300.0	2.0	31.0	go	non-target	P	71,Index Finger	89,Middle Finger	500.0	450.0	2250.0	2300.0	1.0	450.0	1.0	n/a	ITI
148349	500.0	n/a	-1	-1	500	0.0	fixation	poldrack-single-stim	71	231084	0.0-7.32-0.32	beast_fmri_test	358	230903,/	t	<div class = centerbox2><div class = fixation>+</div></div>	none	500.0	test	n/a	n/a	n/a	n/a	n/a	n/a	n/a	n/a	n/a	n/a	n/a	n/a	n/a	n/a	n/a	n/a	n/a	n/a	fixation
147314.7186595329	500.0	n/a	625	71	2750	1035.28134047	stim	stop-signal	72	233835	0.0-7.32-1.32	beast_fmri_test	358	231585,/,232263,/,232943,/,233622,/,234303,/	t,t,t,t,t	<img class = center src='/static/experiments/beast_fmri_test/images/V.png'></img>	71,89	2750.0	test	<img class = center src='/static/experiments/beast_fmri_test/images/redV.png'></img>	stop	2250.0	2.0	32.0	stop	target	V	71,Index Finger	89,Middle Finger	500.0	450.0	2250.0	2300.0	0.0	500.0	n/a	0.0	go_stim
149564.7186595329	2250.0	n/a	625	71	2750	1035.28134047	stim	stop-signal	72	233835	0.0-7.32-1.32	beast_fmri_test	358	231585,/,232263,/,232943,/,233622,/,234303,/	t,t,t,t,t	<img class = center src='/static/experiments/beast_fmri_test/images/V.png'></img>	71,89	2750.0	test	<img class = center src='/static/experiments/beast_fmri_test/images/redV.png'></img>	stop	2250.0	2.0	32.0	stop	target	V	71,Index Finger	89,Middle Finger	500.0	450.0	2250.0	2300.0	0.0	500.0	n/a	0.0	stop_stim
150064.7186595329	1035.28134047	n/a	625	71	2750	1035.28134047	stim	stop-signal	72	233835	0.0-7.32-1.32	beast_fmri_test	358	231585,/,232263,/,232943,/,233622,/,234303,/	t,t,t,t,t	<img class = center src='/static/experiments/beast_fmri_test/images/V.png'></img>	71,89	2750.0	test	<img class = center src='/static/experiments/beast_fmri_test/images/redV.png'></img>	stop	2250.0	2.0	32.0	stop	target	V	71,Index Finger	89,Middle Finger	500.0	450.0	2250.0	2300.0	0.0	500.0	n/a	0.0	ITI
152648	500.0	n/a	-1	-1	500	0.0	fixation	poldrack-single-stim	73	235383	0.0-7.33-0.33	beast_fmri_test	358	234982,/	t	<div class = centerbox2><div class = fixation>+</div></div>	none	500.0	test	n/a	n/a	n/a	n/a	n/a	n/a	n/a	n/a	n/a	n/a	n/a	n/a	n/a	n/a	n/a	n/a	n/a	n/a	fixation
150929.29378016642	2750.0	n/a	1464	89	2750	1720.70621983	stim	stop-signal	74	238135	0.0-7.33-1.33	beast_fmri_test	358	235662,/,236342,/,237022,/,237701,/,238382,/,239061,/,239741,/	t,t,t,t,t,t,t	<img class = center src='/static/experiments/beast_fmri_test/images/T.png'></img>	71,89	2750.0	test	<img class = center src='/static/experiments/beast_fmri_test/images/redT.png'></img>	go	2300.0	2.0	33.0	go	non-target	T	71,Index Finger	89,Middle Finger	450.0	450.0	2250.0	2300.0	1.0	450.0	1.0	n/a	go_stim
153679.29378016642	1720.70621983	n/a	1464	89	2750	1720.70621983	stim	stop-signal	74	238135	0.0-7.33-1.33	beast_fmri_test	358	235662,/,236342,/,237022,/,237701,/,238382,/,239061,/,239741,/	t,t,t,t,t,t,t	<img class = center src='/static/experiments/beast_fmri_test/images/T.png'></img>	71,89	2750.0	test	<img class = center src='/static/experiments/beast_fmri_test/images/redT.png'></img>	go	2300.0	2.0	33.0	go	non-target	T	71,Index Finger	89,Middle Finger	450.0	450.0	2250.0	2300.0	1.0	450.0	1.0	n/a	ITI
157632	500.0	n/a	-1	-1	500	0.0	fixation	poldrack-single-stim	75	240367	0.0-7.34-0.34	beast_fmri_test	358	n/a	n/a	<div class = centerbox2><div class = fixation>+</div></div>	none	500.0	test	n/a	n/a	n/a	n/a	n/a	n/a	n/a	n/a	n/a	n/a	n/a	n/a	n/a	n/a	n/a	n/a	n/a	n/a	fixation
156668.19701628087	2750.0	n/a	969	89	2750	965.802983719	stim	stop-signal	76	243119	0.0-7.34-1.34	beast_fmri_test	358	240421,/,241101,/,241780,/,242460,/,243140,/,243817,/	t,t,t,t,t,t	<img class = center src='/static/experiments/beast_fmri_test/images/D.png'></img>	71,89	2750.0	test	<img class = center src='/static/experiments/beast_fmri_test/images/redD.png'></img>	go	2300.0	2.0	34.0	go	non-target	D	71,Index Finger	89,Middle Finger	450.0	450.0	2250.0	2300.0	1.0	450.0	1.0	n/a	go_stim
159418.19701628087	965.802983719	n/a	969	89	2750	965.802983719	stim	stop-signal	76	243119	0.0-7.34-1.34	beast_fmri_test	358	240421,/,241101,/,241780,/,242460,/,243140,/,243817,/	t,t,t,t,t,t	<img class = center src='/static/experiments/beast_fmri_test/images/D.png'></img>	71,89	2750.0	test	<img class = center src='/static/experiments/beast_fmri_test/images/redD.png'></img>	go	2300.0	2.0	34.0	go	non-target	D	71,Index Finger	89,Middle Finger	450.0	450.0	2250.0	2300.0	1.0	450.0	1.0	n/a	ITI
161863	500.0	n/a	-1	-1	500	0.0	fixation	poldrack-single-stim	77	244598	0.0-7.35-0.35	beast_fmri_test	358	244499,/	t	<div class = centerbox2><div class = fixation>+</div></div>	none	500.0	test	n/a	n/a	n/a	n/a	n/a	n/a	n/a	n/a	n/a	n/a	n/a	n/a	n/a	n/a	n/a	n/a	n/a	n/a	fixation
159363.32137533405	2750.0	n/a	722	89	2750	2500.67862467	stim	stop-signal	78	247349	0.0-7.35-1.35	beast_fmri_test	358	245177,/,245858,/,246537,/,247218,/,247897,/,248577,/,249256,/	t,t,t,t,t,t,t	<img class = center src='/static/experiments/beast_fmri_test/images/B.png'></img>	71,89	2750.0	test	<img class = center src='/static/experiments/beast_fmri_test/images/redB.png'></img>	go	2300.0	2.0	35.0	go	non-target	B	71,Index Finger	89,Middle Finger	450.0	450.0	2250.0	2300.0	1.0	450.0	1.0	n/a	go_stim
162113.32137533405	2500.67862467	n/a	722	89	2750	2500.67862467	stim	stop-signal	78	247349	0.0-7.35-1.35	beast_fmri_test	358	245177,/,245858,/,246537,/,247218,/,247897,/,248577,/,249256,/	t,t,t,t,t,t,t	<img class = center src='/static/experiments/beast_fmri_test/images/B.png'></img>	71,89	2750.0	test	<img class = center src='/static/experiments/beast_fmri_test/images/redB.png'></img>	go	2300.0	2.0	35.0	go	non-target	B	71,Index Finger	89,Middle Finger	450.0	450.0	2250.0	2300.0	1.0	450.0	1.0	n/a	ITI
167625	500.0	n/a	-1	-1	500	0.0	fixation	poldrack-single-stim	79	250360	0.0-7.36-0.36	beast_fmri_test	358	249936,/	t	<div class = centerbox2><div class = fixation>+</div></div>	none	500.0	test	n/a	n/a	n/a	n/a	n/a	n/a	n/a	n/a	n/a	n/a	n/a	n/a	n/a	n/a	n/a	n/a	n/a	n/a	fixation
167551.81933003225	2750.0	n/a	811	71	2750	74.1806699677	stim	stop-signal	80	253111	0.0-7.36-1.36	beast_fmri_test	358	250616,/,251294,/,251975,/,252654,/	t,t,t,t	<img class = center src='/static/experiments/beast_fmri_test/images/D.png'></img>	71,89	2750.0	test	<img class = center src='/static/experiments/beast_fmri_test/images/redD.png'></img>	go	2300.0	2.0	36.0	go	target	D	71,Index Finger	89,Middle Finger	450.0	450.0	2300.0	2300.0	1.0	450.0	1.0	n/a	go_stim
170301.81933003225	74.1806699677	n/a	811	71	2750	74.1806699677	stim	stop-signal	80	253111	0.0-7.36-1.36	beast_fmri_test	358	250616,/,251294,/,251975,/,252654,/	t,t,t,t	<img class = center src='/static/experiments/beast_fmri_test/images/D.png'></img>	71,89	2750.0	test	<img class = center src='/static/experiments/beast_fmri_test/images/redD.png'></img>	go	2300.0	2.0	36.0	go	target	D	71,Index Finger	89,Middle Finger	450.0	450.0	2300.0	2300.0	1.0	450.0	1.0	n/a	ITI
170967	500.0	n/a	-1	-1	500	0.0	fixation	poldrack-single-stim	81	253702	0.0-7.37-0.37	beast_fmri_test	358	253334,/	t	<div class = centerbox2><div class = fixation>+</div></div>	none	500.0	test	n/a	n/a	n/a	n/a	n/a	n/a	n/a	n/a	n/a	n/a	n/a	n/a	n/a	n/a	n/a	n/a	n/a	n/a	fixation
170289.43655054623	2750.0	n/a	798	89	2750	679.563449454	stim	stop-signal	82	256454	0.0-7.37-1.37	beast_fmri_test	358	254012,/,254694,/,255373,/,256053,/,256731,/	t,t,t,t,t	<img class = center src='/static/experiments/beast_fmri_test/images/P.png'></img>	71,89	2750.0	test	<img class = center src='/static/experiments/beast_fmri_test/images/redP.png'></img>	go	2300.0	2.0	37.0	go	non-target	P	71,Index Finger	89,Middle Finger	450.0	450.0	2300.0	2300.0	1.0	450.0	1.0	n/a	go_stim
173039.43655054623	679.563449454	n/a	798	89	2750	679.563449454	stim	stop-signal	82	256454	0.0-7.37-1.37	beast_fmri_test	358	254012,/,254694,/,255373,/,256053,/,256731,/	t,t,t,t,t	<img class = center src='/static/experiments/beast_fmri_test/images/P.png'></img>	71,89	2750.0	test	<img class = center src='/static/experiments/beast_fmri_test/images/redP.png'></img>	go	2300.0	2.0	37.0	go	non-target	P	71,Index Finger	89,Middle Finger	450.0	450.0	2300.0	2300.0	1.0	450.0	1.0	n/a	ITI
174913	500.0	n/a	-1	-1	500	0.0	fixation	poldrack-single-stim	83	257648	0.0-7.38-0.38	beast_fmri_test	358	257411,/	t	<div class = centerbox2><div class = fixation>+</div></div>	none	500.0	test	n/a	n/a	n/a	n/a	n/a	n/a	n/a	n/a	n/a	n/a	n/a	n/a	n/a	n/a	n/a	n/a	n/a	n/a	fixation
174181.15158587383	450.0	n/a	-1	-1	2750	733.848414126	stim	stop-signal	84	260400	0.0-7.38-1.38	beast_fmri_test	358	258092,/,258770,/,259452,/,260131,/,260810,/	t,t,t,t,t	<img class = center src='/static/experiments/beast_fmri_test/images/D.png'></img>	71,89	2750.0	test	<img class = center src='/static/experiments/beast_fmri_test/images/redD.png'></img>	stop	2300.0	2.0	38.0	stop	target	D	71,Index Finger	89,Middle Finger	450.0	450.0	2300.0	2300.0	0.0	450.0	n/a	1.0	go_stim
176481.15158587383	2300.0	n/a	-1	-1	2750	733.848414126	stim	stop-signal	84	260400	0.0-7.38-1.38	beast_fmri_test	358	258092,/,258770,/,259452,/,260131,/,260810,/	t,t,t,t,t	<img class = center src='/static/experiments/beast_fmri_test/images/D.png'></img>	71,89	2750.0	test	<img class = center src='/static/experiments/beast_fmri_test/images/redD.png'></img>	stop	2300.0	2.0	38.0	stop	target	D	71,Index Finger	89,Middle Finger	450.0	450.0	2300.0	2300.0	0.0	450.0	n/a	1.0	stop_stim
176931.15158587383	733.848414126	n/a	-1	-1	2750	733.848414126	stim	stop-signal	84	260400	0.0-7.38-1.38	beast_fmri_test	358	258092,/,258770,/,259452,/,260131,/,260810,/	t,t,t,t,t	<img class = center src='/static/experiments/beast_fmri_test/images/D.png'></img>	71,89	2750.0	test	<img class = center src='/static/experiments/beast_fmri_test/images/redD.png'></img>	stop	2300.0	2.0	38.0	stop	target	D	71,Index Finger	89,Middle Finger	450.0	450.0	2300.0	2300.0	0.0	450.0	n/a	1.0	ITI
178911	500.0	n/a	-1	-1	500	0.0	fixation	poldrack-single-stim	85	261646	0.0-7.39-0.39	beast_fmri_test	358	261489,/	t	<div class = centerbox2><div class = fixation>+</div></div>	none	500.0	test	n/a	n/a	n/a	n/a	n/a	n/a	n/a	n/a	n/a	n/a	n/a	n/a	n/a	n/a	n/a	n/a	n/a	n/a	fixation
178418.46900638734	450.0	n/a	-1	-1	2750	494.530993613	stim	stop-signal	86	264398	0.0-7.39-1.39	beast_fmri_test	358	262170,/,262849,/,263529,/,264209,/,264890,/	t,t,t,t,t	<img class = center src='/static/experiments/beast_fmri_test/images/B.png'></img>	71,89	2750.0	test	<img class = center src='/static/experiments/beast_fmri_test/images/redB.png'></img>	stop	2300.0	2.0	39.0	stop	non-target	B	71,Index Finger	89,Middle Finger	500.0	450.0	2300.0	2300.0	0.0	450.0	n/a	1.0	go_stim
180718.46900638734	2300.0	n/a	-1	-1	2750	494.530993613	stim	stop-signal	86	264398	0.0-7.39-1.39	beast_fmri_test	358	262170,/,262849,/,263529,/,264209,/,264890,/	t,t,t,t,t	<img class = center src='/static/experiments/beast_fmri_test/images/B.png'></img>	71,89	2750.0	test	<img class = center src='/static/experiments/beast_fmri_test/images/redB.png'></img>	stop	2300.0	2.0	39.0	stop	non-target	B	71,Index Finger	89,Middle Finger	500.0	450.0	2300.0	2300.0	0.0	450.0	n/a	1.0	stop_stim
181168.46900638734	494.530993613	n/a	-1	-1	2750	494.530993613	stim	stop-signal	86	264398	0.0-7.39-1.39	beast_fmri_test	358	262170,/,262849,/,263529,/,264209,/,264890,/	t,t,t,t,t	<img class = center src='/static/experiments/beast_fmri_test/images/B.png'></img>	71,89	2750.0	test	<img class = center src='/static/experiments/beast_fmri_test/images/redB.png'></img>	stop	2300.0	2.0	39.0	stop	non-target	B	71,Index Finger	89,Middle Finger	500.0	450.0	2300.0	2300.0	0.0	450.0	n/a	1.0	ITI
182672	500.0	n/a	-1	-1	500	0.0	fixation	poldrack-single-stim	87	265407	0.0-7.40-0.40	beast_fmri_test	358	n/a	n/a	<div class = centerbox2><div class = fixation>+</div></div>	none	500.0	test	n/a	n/a	n/a	n/a	n/a	n/a	n/a	n/a	n/a	n/a	n/a	n/a	n/a	n/a	n/a	n/a	n/a	n/a	fixation
179665.66603835643	2750.0	n/a	1175	89	2750	3007.33396164	stim	stop-signal	88	268158	0.0-7.40-1.40	beast_fmri_test	358	265569,/,266249,/,266928,/,267608,/,268287,/,268966,/,269647,/,270327,/,271006,/	t,t,t,t,t,t,t,t,t	<img class = center src='/static/experiments/beast_fmri_test/images/T.png'></img>	71,89	2750.0	test	<img class = center src='/static/experiments/beast_fmri_test/images/redT.png'></img>	go	2250.0	2.0	40.0	go	non-target	T	71,Index Finger	89,Middle Finger	500.0	500.0	2300.0	2250.0	1.0	500.0	1.0	n/a	go_stim
182415.66603835643	3007.33396164	n/a	1175	89	2750	3007.33396164	stim	stop-signal	88	268158	0.0-7.40-1.40	beast_fmri_test	358	265569,/,266249,/,266928,/,267608,/,268287,/,268966,/,269647,/,270327,/,271006,/	t,t,t,t,t,t,t,t,t	<img class = center src='/static/experiments/beast_fmri_test/images/T.png'></img>	71,89	2750.0	test	<img class = center src='/static/experiments/beast_fmri_test/images/redT.png'></img>	go	2250.0	2.0	40.0	go	non-target	T	71,Index Finger	89,Middle Finger	500.0	500.0	2300.0	2250.0	1.0	500.0	1.0	n/a	ITI
188942	500.0	n/a	-1	-1	500	0.0	fixation	poldrack-single-stim	89	271677	0.0-7.41-0.41	beast_fmri_test	358	n/a	n/a	<div class = centerbox2><div class = fixation>+</div></div>	none	500.0	test	n/a	n/a	n/a	n/a	n/a	n/a	n/a	n/a	n/a	n/a	n/a	n/a	n/a	n/a	n/a	n/a	n/a	n/a	fixation
187728.7922836027	2750.0	n/a	410	71	2750	1213.2077164	stim	stop-signal	90	274427	0.0-7.41-1.41	beast_fmri_test	358	271685,/,272366,/,273044,/,273725,/,274404,/,275084,/	t,t,t,t,t,t	<img class = center src='/static/experiments/beast_fmri_test/images/B.png'></img>	71,89	2750.0	test	<img class = center src='/static/experiments/beast_fmri_test/images/redB.png'></img>	go	2250.0	2.0	41.0	go	target	B	71,Index Finger	89,Middle Finger	500.0	500.0	2250.0	2250.0	1.0	500.0	1.0	n/a	go_stim
190478.7922836027	1213.2077164	n/a	410	71	2750	1213.2077164	stim	stop-signal	90	274427	0.0-7.41-1.41	beast_fmri_test	358	271685,/,272366,/,273044,/,273725,/,274404,/,275084,/	t,t,t,t,t,t	<img class = center src='/static/experiments/beast_fmri_test/images/B.png'></img>	71,89	2750.0	test	<img class = center src='/static/experiments/beast_fmri_test/images/redB.png'></img>	go	2250.0	2.0	41.0	go	target	B	71,Index Finger	89,Middle Finger	500.0	500.0	2250.0	2250.0	1.0	500.0	1.0	n/a	ITI
193421	500.0	n/a	-1	-1	500	0.0	fixation	poldrack-single-stim	91	276156	0.0-7.42-0.42	beast_fmri_test	358	275763,/	t	<div class = centerbox2><div class = fixation>+</div></div>	none	500.0	test	n/a	n/a	n/a	n/a	n/a	n/a	n/a	n/a	n/a	n/a	n/a	n/a	n/a	n/a	n/a	n/a	n/a	n/a	fixation
192121.36874466273	500.0	n/a	593	71	2750	1299.63125534	stim	stop-signal	92	278906	0.0-7.42-1.42	beast_fmri_test	358	276444,/,277123,/,277803,/,278482,/,279162,/,279841,/	t,t,t,t,t,t	<img class = center src='/static/experiments/beast_fmri_test/images/T.png'></img>	71,89	2750.0	test	<img class = center src='/static/experiments/beast_fmri_test/images/redT.png'></img>	stop	2250.0	2.0	42.0	stop	target	T	71,Index Finger	89,Middle Finger	500.0	500.0	2250.0	2250.0	0.0	500.0	n/a	0.0	go_stim
194371.36874466273	2250.0	n/a	593	71	2750	1299.63125534	stim	stop-signal	92	278906	0.0-7.42-1.42	beast_fmri_test	358	276444,/,277123,/,277803,/,278482,/,279162,/,279841,/	t,t,t,t,t,t	<img class = center src='/static/experiments/beast_fmri_test/images/T.png'></img>	71,89	2750.0	test	<img class = center src='/static/experiments/beast_fmri_test/images/redT.png'></img>	stop	2250.0	2.0	42.0	stop	target	T	71,Index Finger	89,Middle Finger	500.0	500.0	2250.0	2250.0	0.0	500.0	n/a	0.0	stop_stim
194871.36874466273	1299.63125534	n/a	593	71	2750	1299.63125534	stim	stop-signal	92	278906	0.0-7.42-1.42	beast_fmri_test	358	276444,/,277123,/,277803,/,278482,/,279162,/,279841,/	t,t,t,t,t,t	<img class = center src='/static/experiments/beast_fmri_test/images/T.png'></img>	71,89	2750.0	test	<img class = center src='/static/experiments/beast_fmri_test/images/redT.png'></img>	stop	2250.0	2.0	42.0	stop	target	T	71,Index Finger	89,Middle Finger	500.0	500.0	2250.0	2250.0	0.0	500.0	n/a	0.0	ITI
197986	500.0	n/a	-1	-1	500	0.0	fixation	poldrack-single-stim	93	280721	0.0-7.43-0.43	beast_fmri_test	358	280522,/	t	<div class = centerbox2><div class = fixation>+</div></div>	none	500.0	test	n/a	n/a	n/a	n/a	n/a	n/a	n/a	n/a	n/a	n/a	n/a	n/a	n/a	n/a	n/a	n/a	n/a	n/a	fixation
197442.12199870474	2750.0	n/a	1215	71	2750	546.878001295	stim	stop-signal	94	283474	0.0-7.43-1.43	beast_fmri_test	358	281200,/,281881,/,282560,/,283241,/,283919,/	t,t,t,t,t	<img class = center src='/static/experiments/beast_fmri_test/images/B.png'></img>	71,89	2750.0	test	<img class = center src='/static/experiments/beast_fmri_test/images/redB.png'></img>	go	2300.0	2.0	43.0	go	target	B	71,Index Finger	89,Middle Finger	450.0	500.0	2300.0	2250.0	1.0	450.0	1.0	n/a	go_stim
200192.12199870474	546.878001295	n/a	1215	71	2750	546.878001295	stim	stop-signal	94	283474	0.0-7.43-1.43	beast_fmri_test	358	281200,/,281881,/,282560,/,283241,/,283919,/	t,t,t,t,t	<img class = center src='/static/experiments/beast_fmri_test/images/B.png'></img>	71,89	2750.0	test	<img class = center src='/static/experiments/beast_fmri_test/images/redB.png'></img>	go	2300.0	2.0	43.0	go	target	B	71,Index Finger	89,Middle Finger	450.0	500.0	2300.0	2250.0	1.0	450.0	1.0	n/a	ITI
201802	500.0	n/a	-1	-1	500	0.0	fixation	poldrack-single-stim	95	284537	0.0-7.44-0.44	beast_fmri_test	358	n/a	n/a	<div class = centerbox2><div class = fixation>+</div></div>	none	500.0	test	n/a	n/a	n/a	n/a	n/a	n/a	n/a	n/a	n/a	n/a	n/a	n/a	n/a	n/a	n/a	n/a	n/a	n/a	fixation
201361.11873508961	2750.0	n/a	1072	89	2750	441.88126491	stim	stop-signal	96	287288	0.0-7.44-1.44	beast_fmri_test	358	284599,/,285278,/,285959,/,286639,/,287317,/	t,t,t,t,t	<img class = center src='/static/experiments/beast_fmri_test/images/P.png'></img>	71,89	2750.0	test	<img class = center src='/static/experiments/beast_fmri_test/images/redP.png'></img>	go	2250.0	2.0	44.0	go	non-target	P	71,Index Finger	89,Middle Finger	450.0	500.0	2300.0	2250.0	1.0	500.0	1.0	n/a	go_stim
204111.11873508961	441.88126491	n/a	1072	89	2750	441.88126491	stim	stop-signal	96	287288	0.0-7.44-1.44	beast_fmri_test	358	284599,/,285278,/,285959,/,286639,/,287317,/	t,t,t,t,t	<img class = center src='/static/experiments/beast_fmri_test/images/P.png'></img>	71,89	2750.0	test	<img class = center src='/static/experiments/beast_fmri_test/images/redP.png'></img>	go	2250.0	2.0	44.0	go	non-target	P	71,Index Finger	89,Middle Finger	450.0	500.0	2300.0	2250.0	1.0	500.0	1.0	n/a	ITI
205510	500.0	n/a	-1	-1	500	0.0	fixation	poldrack-single-stim	97	288245	0.0-7.45-0.45	beast_fmri_test	358	287999,/	t	<div class = centerbox2><div class = fixation>+</div></div>	none	500.0	test	n/a	n/a	n/a	n/a	n/a	n/a	n/a	n/a	n/a	n/a	n/a	n/a	n/a	n/a	n/a	n/a	n/a	n/a	fixation
204974.87365299917	2750.0	n/a	1073	89	2750	537.126347001	stim	stop-signal	98	290997	0.0-7.45-1.45	beast_fmri_test	358	288677,/,289358,/,290038,/,290717,/,291396,/	t,t,t,t,t	<img class = center src='/static/experiments/beast_fmri_test/images/D.png'></img>	71,89	2750.0	test	<img class = center src='/static/experiments/beast_fmri_test/images/redD.png'></img>	go	2250.0	2.0	45.0	go	non-target	D	71,Index Finger	89,Middle Finger	450.0	500.0	2300.0	2250.0	1.0	500.0	1.0	n/a	go_stim
207724.87365299917	537.126347001	n/a	1073	89	2750	537.126347001	stim	stop-signal	98	290997	0.0-7.45-1.45	beast_fmri_test	358	288677,/,289358,/,290038,/,290717,/,291396,/	t,t,t,t,t	<img class = center src='/static/experiments/beast_fmri_test/images/D.png'></img>	71,89	2750.0	test	<img class = center src='/static/experiments/beast_fmri_test/images/redD.png'></img>	go	2250.0	2.0	45.0	go	non-target	D	71,Index Finger	89,Middle Finger	450.0	500.0	2300.0	2250.0	1.0	500.0	1.0	n/a	ITI
209314	500.0	n/a	-1	-1	500	0.0	fixation	poldrack-single-stim	99	292049	0.0-7.46-0.46	beast_fmri_test	358	n/a	n/a	<div class = centerbox2><div class = fixation>+</div></div>	none	500.0	test	n/a	n/a	n/a	n/a	n/a	n/a	n/a	n/a	n/a	n/a	n/a	n/a	n/a	n/a	n/a	n/a	n/a	n/a	fixation
206012.66758630495	2750.0	n/a	815	71	2750	3301.3324137	stim	stop-signal	100	294799	0.0-7.46-1.46	beast_fmri_test	358	292077,/,292756,/,293437,/,294115,/,294796,/,295475,/,296155,/,296835,/,297515,/	t,t,t,t,t,t,t,t,t	<img class = center src='/static/experiments/beast_fmri_test/images/P.png'></img>	71,89	2750.0	test	<img class = center src='/static/experiments/beast_fmri_test/images/redP.png'></img>	go	2300.0	2.0	46.0	go	target	P	71,Index Finger	89,Middle Finger	450.0	500.0	2300.0	2250.0	1.0	450.0	1.0	n/a	go_stim
208762.66758630495	3301.3324137	n/a	815	71	2750	3301.3324137	stim	stop-signal	100	294799	0.0-7.46-1.46	beast_fmri_test	358	292077,/,292756,/,293437,/,294115,/,294796,/,295475,/,296155,/,296835,/,297515,/	t,t,t,t,t,t,t,t,t	<img class = center src='/static/experiments/beast_fmri_test/images/P.png'></img>	71,89	2750.0	test	<img class = center src='/static/experiments/beast_fmri_test/images/redP.png'></img>	go	2300.0	2.0	46.0	go	target	P	71,Index Finger	89,Middle Finger	450.0	500.0	2300.0	2250.0	1.0	450.0	1.0	n/a	ITI
230374	15000.0	n/a	-1	-1	15000	0.0	practice-no-stop-feedback	poldrack-single-stim	101	313109	0.0-8.0	beast_fmri_test	358	298195,/,298874,/,299554,/,300233,/,300913,/,301593,/,302273,/,302951,/,303631,/,304310,/,304991,/,305669,/,306351,/,307029,/,307710,/,308390,/,309069,/,309748,/,310427,/,311107,/,311787,/,312468,/	t,t,t,t,t,t,t,t,t,t,t,t,t,t,t,t,t,t,t,t,t,t	"<div class = ""centerbox""><p class = ""block-text"">Your delay is 3 trials.</p><p class = block-text>Please wait for the scanner to start the block</p></div>"	77	15000.0	n/a	n/a	n/a	n/a	n/a	n/a	n/a	n/a	n/a	n/a	n/a	n/a	n/a	n/a	n/a	n/a	n/a	n/a	n/a	practice-no-stop-feedback
230878	500.0	n/a	-1	-1	500	0.0	fixation	poldrack-single-stim	102	313613	0.0-9.0-0.0	beast_fmri_test	358	313146,/	t	<div class = centerbox2><div class = fixation>+</div></div>	none	500.0	test	n/a	n/a	n/a	n/a	n/a	n/a	n/a	n/a	n/a	n/a	n/a	n/a	n/a	n/a	n/a	n/a	n/a	n/a	fixation
230561.7269977844	2750.0	n/a	1382	89	2750	318.273002216	stim	stop-signal	103	316365	0.0-9.0-1.0	beast_fmri_test	358	313826,/,314505,/,315186,/,315865,/,316546,/	t,t,t,t,t	<img class = center src='/static/experiments/beast_fmri_test/images/T.png'></img>	71,89	2750.0	test	<img class = center src='/static/experiments/beast_fmri_test/images/redT.png'></img>	go	-1.0	3.0	0.0	go	temp-non-target	T	71,Index Finger	89,Middle Finger	450.0	500.0	2300.0	2250.0	0.0	n/a	n/a	n/a	go_stim
233311.7269977844	318.273002216	n/a	1382	89	2750	318.273002216	stim	stop-signal	103	316365	0.0-9.0-1.0	beast_fmri_test	358	313826,/,314505,/,315186,/,315865,/,316546,/	t,t,t,t,t	<img class = center src='/static/experiments/beast_fmri_test/images/T.png'></img>	71,89	2750.0	test	<img class = center src='/static/experiments/beast_fmri_test/images/redT.png'></img>	go	-1.0	3.0	0.0	go	temp-non-target	T	71,Index Finger	89,Middle Finger	450.0	500.0	2300.0	2250.0	0.0	n/a	n/a	n/a	ITI
234464	500.0	n/a	-1	-1	500	0.0	fixation	poldrack-single-stim	104	317199	0.0-9.1-0.1	beast_fmri_test	358	n/a	n/a	<div class = centerbox2><div class = fixation>+</div></div>	none	500.0	test	n/a	n/a	n/a	n/a	n/a	n/a	n/a	n/a	n/a	n/a	n/a	n/a	n/a	n/a	n/a	n/a	n/a	n/a	fixation
233610.42649374163	2750.0	n/a	896	89	2750	855.573506258	stim	stop-signal	105	319951	0.0-9.1-1.1	beast_fmri_test	358	317225,/,317904,/,318584,/,319263,/,319945,/,320622,/	t,t,t,t,t,t	<img class = center src='/static/experiments/beast_fmri_test/images/D.png'></img>	71,89	2750.0	test	<img class = center src='/static/experiments/beast_fmri_test/images/redD.png'></img>	go	-1.0	3.0	1.0	go	temp-non-target	D	71,Index Finger	89,Middle Finger	450.0	500.0	2300.0	2250.0	0.0	n/a	n/a	n/a	go_stim
236360.42649374163	855.573506258	n/a	896	89	2750	855.573506258	stim	stop-signal	105	319951	0.0-9.1-1.1	beast_fmri_test	358	317225,/,317904,/,318584,/,319263,/,319945,/,320622,/	t,t,t,t,t,t	<img class = center src='/static/experiments/beast_fmri_test/images/D.png'></img>	71,89	2750.0	test	<img class = center src='/static/experiments/beast_fmri_test/images/redD.png'></img>	go	-1.0	3.0	1.0	go	temp-non-target	D	71,Index Finger	89,Middle Finger	450.0	500.0	2300.0	2250.0	0.0	n/a	n/a	n/a	ITI
238586	500.0	n/a	-1	-1	500	0.0	fixation	poldrack-single-stim	106	321321	0.0-9.2-0.2	beast_fmri_test	358	321303,/	t	<div class = centerbox2><div class = fixation>+</div></div>	none	500.0	test	n/a	n/a	n/a	n/a	n/a	n/a	n/a	n/a	n/a	n/a	n/a	n/a	n/a	n/a	n/a	n/a	n/a	n/a	fixation
237332.3383859719	2750.0	n/a	648	89	2750	1254.66161403	stim	stop-signal	107	324072	0.0-9.2-1.2	beast_fmri_test	358	321982,/,322662,/,323342,/,324023,/,324702,/	t,t,t,t,t	<img class = center src='/static/experiments/beast_fmri_test/images/B.png'></img>	71,89	2750.0	test	<img class = center src='/static/experiments/beast_fmri_test/images/redB.png'></img>	go	-1.0	3.0	2.0	go	temp-non-target	B	71,Index Finger	89,Middle Finger	450.0	500.0	2300.0	2250.0	0.0	n/a	n/a	n/a	go_stim
240082.3383859719	1254.66161403	n/a	648	89	2750	1254.66161403	stim	stop-signal	107	324072	0.0-9.2-1.2	beast_fmri_test	358	321982,/,322662,/,323342,/,324023,/,324702,/	t,t,t,t,t	<img class = center src='/static/experiments/beast_fmri_test/images/B.png'></img>	71,89	2750.0	test	<img class = center src='/static/experiments/beast_fmri_test/images/redB.png'></img>	go	-1.0	3.0	2.0	go	temp-non-target	B	71,Index Finger	89,Middle Finger	450.0	500.0	2300.0	2250.0	0.0	n/a	n/a	n/a	ITI
243109	500.0	n/a	-1	-1	500	0.0	fixation	poldrack-single-stim	108	325844	0.0-9.3-0.3	beast_fmri_test	358	325381,/	t	<div class = centerbox2><div class = fixation>+</div></div>	none	500.0	test	n/a	n/a	n/a	n/a	n/a	n/a	n/a	n/a	n/a	n/a	n/a	n/a	n/a	n/a	n/a	n/a	n/a	n/a	fixation
242517.17110650649	2750.0	n/a	681	89	2750	593.828893494	stim	stop-signal	109	328596	0.0-9.3-1.3	beast_fmri_test	358	326062,/,326740,/,327421,/,328099,/,328780,/	t,t,t,t,t	<img class = center src='/static/experiments/beast_fmri_test/images/P.png'></img>	71,89	2750.0	test	<img class = center src='/static/experiments/beast_fmri_test/images/redP.png'></img>	go	2250.0	3.0	3.0	go	non-target	P	71,Index Finger	89,Middle Finger	450.0	500.0	2300.0	2250.0	1.0	500.0	1.0	n/a	go_stim
245267.17110650649	593.828893494	n/a	681	89	2750	593.828893494	stim	stop-signal	109	328596	0.0-9.3-1.3	beast_fmri_test	358	326062,/,326740,/,327421,/,328099,/,328780,/	t,t,t,t,t	<img class = center src='/static/experiments/beast_fmri_test/images/P.png'></img>	71,89	2750.0	test	<img class = center src='/static/experiments/beast_fmri_test/images/redP.png'></img>	go	2250.0	3.0	3.0	go	non-target	P	71,Index Finger	89,Middle Finger	450.0	500.0	2300.0	2250.0	1.0	500.0	1.0	n/a	ITI
246973	500.0	n/a	-1	-1	500	0.0	fixation	poldrack-single-stim	110	329708	0.0-9.4-0.4	beast_fmri_test	358	329459,/	t	<div class = centerbox2><div class = fixation>+</div></div>	none	500.0	test	n/a	n/a	n/a	n/a	n/a	n/a	n/a	n/a	n/a	n/a	n/a	n/a	n/a	n/a	n/a	n/a	n/a	n/a	fixation
246413.61506969453	2750.0	n/a	1039	89	2750	561.384930305	stim	stop-signal	111	332460	0.0-9.4-1.4	beast_fmri_test	358	330139,/,330818,/,331499,/,332177,/,332857,/	t,t,t,t,t	<img class = center src='/static/experiments/beast_fmri_test/images/B.png'></img>	71,89	2750.0	test	<img class = center src='/static/experiments/beast_fmri_test/images/redB.png'></img>	go	2250.0	3.0	4.0	go	non-target	B	71,Index Finger	89,Middle Finger	450.0	500.0	2300.0	2250.0	1.0	500.0	1.0	n/a	go_stim
249163.61506969453	561.384930305	n/a	1039	89	2750	561.384930305	stim	stop-signal	111	332460	0.0-9.4-1.4	beast_fmri_test	358	330139,/,330818,/,331499,/,332177,/,332857,/	t,t,t,t,t	<img class = center src='/static/experiments/beast_fmri_test/images/B.png'></img>	71,89	2750.0	test	<img class = center src='/static/experiments/beast_fmri_test/images/redB.png'></img>	go	2250.0	3.0	4.0	go	non-target	B	71,Index Finger	89,Middle Finger	450.0	500.0	2300.0	2250.0	1.0	500.0	1.0	n/a	ITI
250802	500.0	n/a	-1	-1	500	0.0	fixation	poldrack-single-stim	112	333537	0.0-9.5-0.5	beast_fmri_test	358	333537,/	t	<div class = centerbox2><div class = fixation>+</div></div>	none	500.0	test	n/a	n/a	n/a	n/a	n/a	n/a	n/a	n/a	n/a	n/a	n/a	n/a	n/a	n/a	n/a	n/a	n/a	n/a	fixation
250090.27548728394	450.0	n/a	566	71	2750	713.724512716	stim	stop-signal	113	336289	0.0-9.5-1.5	beast_fmri_test	358	334218,/,334896,/,335577,/,336256,/,336936,/	t,t,t,t,t	<img class = center src='/static/experiments/beast_fmri_test/images/B.png'></img>	71,89	2750.0	test	<img class = center src='/static/experiments/beast_fmri_test/images/redB.png'></img>	stop	2300.0	3.0	5.0	stop	target	B	71,Index Finger	89,Middle Finger	450.0	500.0	2300.0	2250.0	0.0	450.0	n/a	0.0	go_stim
252390.27548728394	2300.0	n/a	566	71	2750	713.724512716	stim	stop-signal	113	336289	0.0-9.5-1.5	beast_fmri_test	358	334218,/,334896,/,335577,/,336256,/,336936,/	t,t,t,t,t	<img class = center src='/static/experiments/beast_fmri_test/images/B.png'></img>	71,89	2750.0	test	<img class = center src='/static/experiments/beast_fmri_test/images/redB.png'></img>	stop	2300.0	3.0	5.0	stop	target	B	71,Index Finger	89,Middle Finger	450.0	500.0	2300.0	2250.0	0.0	450.0	n/a	0.0	stop_stim
252840.27548728394	713.724512716	n/a	566	71	2750	713.724512716	stim	stop-signal	113	336289	0.0-9.5-1.5	beast_fmri_test	358	334218,/,334896,/,335577,/,336256,/,336936,/	t,t,t,t,t	<img class = center src='/static/experiments/beast_fmri_test/images/B.png'></img>	71,89	2750.0	test	<img class = center src='/static/experiments/beast_fmri_test/images/redB.png'></img>	stop	2300.0	3.0	5.0	stop	target	B	71,Index Finger	89,Middle Finger	450.0	500.0	2300.0	2250.0	0.0	450.0	n/a	0.0	ITI
254784	500.0	n/a	-1	-1	500	0.0	fixation	poldrack-single-stim	114	337519	0.0-9.6-0.6	beast_fmri_test	358	n/a	n/a	<div class = centerbox2><div class = fixation>+</div></div>	none	500.0	test	n/a	n/a	n/a	n/a	n/a	n/a	n/a	n/a	n/a	n/a	n/a	n/a	n/a	n/a	n/a	n/a	n/a	n/a	fixation
254455.58174534503	2750.0	n/a	1245	71	2750	330.418254655	stim	stop-signal	115	340271	0.0-9.6-1.6	beast_fmri_test	358	337616,/,338296,/,338975,/,339654,/,340335,/	t,t,t,t,t	<img class = center src='/static/experiments/beast_fmri_test/images/D.png'></img>	71,89	2750.0	test	<img class = center src='/static/experiments/beast_fmri_test/images/redD.png'></img>	go	2250.0	3.0	6.0	go	non-target	D	71,Index Finger	89,Middle Finger	400.0	500.0	2300.0	2250.0	0.0	500.0	0.0	n/a	go_stim
257205.58174534503	330.418254655	n/a	1245	71	2750	330.418254655	stim	stop-signal	115	340271	0.0-9.6-1.6	beast_fmri_test	358	337616,/,338296,/,338975,/,339654,/,340335,/	t,t,t,t,t	<img class = center src='/static/experiments/beast_fmri_test/images/D.png'></img>	71,89	2750.0	test	<img class = center src='/static/experiments/beast_fmri_test/images/redD.png'></img>	go	2250.0	3.0	6.0	go	non-target	D	71,Index Finger	89,Middle Finger	400.0	500.0	2300.0	2250.0	0.0	500.0	0.0	n/a	ITI
258385	500.0	n/a	-1	-1	500	0.0	fixation	poldrack-single-stim	116	341120	0.0-9.7-0.7	beast_fmri_test	358	341013,/	t	<div class = centerbox2><div class = fixation>+</div></div>	none	500.0	test	n/a	n/a	n/a	n/a	n/a	n/a	n/a	n/a	n/a	n/a	n/a	n/a	n/a	n/a	n/a	n/a	n/a	n/a	fixation
258016.16895624471	2750.0	n/a	1857	71	2750	369.831043755	stim	stop-signal	117	343871	0.0-9.7-1.7	beast_fmri_test	358	341694,/,342372,/,343053,/,343732,/	t,t,t,t	<img class = center src='/static/experiments/beast_fmri_test/images/B.png'></img>	71,89	2750.0	test	<img class = center src='/static/experiments/beast_fmri_test/images/redB.png'></img>	go	2350.0	3.0	7.0	go	target	B	71,Index Finger	89,Middle Finger	400.0	500.0	2350.0	2250.0	1.0	400.0	1.0	n/a	go_stim
260766.16895624471	369.831043755	n/a	1857	71	2750	369.831043755	stim	stop-signal	117	343871	0.0-9.7-1.7	beast_fmri_test	358	341694,/,342372,/,343053,/,343732,/	t,t,t,t	<img class = center src='/static/experiments/beast_fmri_test/images/B.png'></img>	71,89	2750.0	test	<img class = center src='/static/experiments/beast_fmri_test/images/redB.png'></img>	go	2350.0	3.0	7.0	go	target	B	71,Index Finger	89,Middle Finger	400.0	500.0	2350.0	2250.0	1.0	400.0	1.0	n/a	ITI
262023	500.0	n/a	-1	-1	500	0.0	fixation	poldrack-single-stim	118	344758	0.0-9.8-0.8	beast_fmri_test	358	344413,/	t	<div class = centerbox2><div class = fixation>+</div></div>	none	500.0	test	n/a	n/a	n/a	n/a	n/a	n/a	n/a	n/a	n/a	n/a	n/a	n/a	n/a	n/a	n/a	n/a	n/a	n/a	fixation
262021.53625563945	2750.0	n/a	621	89	2750	4.46374436055	stim	stop-signal	119	347511	0.0-9.8-1.8	beast_fmri_test	358	345093,/,345772,/,346452,/,347132,/	t,t,t,t	<img class = center src='/static/experiments/beast_fmri_test/images/V.png'></img>	71,89	2750.0	test	<img class = center src='/static/experiments/beast_fmri_test/images/redV.png'></img>	go	2250.0	3.0	8.0	go	non-target	V	71,Index Finger	89,Middle Finger	400.0	500.0	2350.0	2250.0	1.0	500.0	1.0	n/a	go_stim
264771.53625563945	4.46374436055	n/a	621	89	2750	4.46374436055	stim	stop-signal	119	347511	0.0-9.8-1.8	beast_fmri_test	358	345093,/,345772,/,346452,/,347132,/	t,t,t,t	<img class = center src='/static/experiments/beast_fmri_test/images/V.png'></img>	71,89	2750.0	test	<img class = center src='/static/experiments/beast_fmri_test/images/redV.png'></img>	go	2250.0	3.0	8.0	go	non-target	V	71,Index Finger	89,Middle Finger	400.0	500.0	2350.0	2250.0	1.0	500.0	1.0	n/a	ITI
265297	500.0	n/a	-1	-1	500	0.0	fixation	poldrack-single-stim	120	348032	0.0-9.9-0.9	beast_fmri_test	358	347812,/	t	<div class = centerbox2><div class = fixation>+</div></div>	none	500.0	test	n/a	n/a	n/a	n/a	n/a	n/a	n/a	n/a	n/a	n/a	n/a	n/a	n/a	n/a	n/a	n/a	n/a	n/a	fixation
262553.30910013465	2750.0	n/a	1431	89	2750	2744.69089987	stim	stop-signal	121	350783	0.0-9.9-1.9	beast_fmri_test	358	348490,/,349170,/,349850,/,350531,/,351209,/,351890,/,352568,/,353249,/	t,t,t,t,t,t,t,t	<img class = center src='/static/experiments/beast_fmri_test/images/T.png'></img>	71,89	2750.0	test	<img class = center src='/static/experiments/beast_fmri_test/images/redT.png'></img>	go	2250.0	3.0	9.0	go	non-target	T	71,Index Finger	89,Middle Finger	400.0	500.0	2350.0	2250.0	1.0	500.0	1.0	n/a	go_stim
265303.30910013465	2744.69089987	n/a	1431	89	2750	2744.69089987	stim	stop-signal	121	350783	0.0-9.9-1.9	beast_fmri_test	358	348490,/,349170,/,349850,/,350531,/,351209,/,351890,/,352568,/,353249,/	t,t,t,t,t,t,t,t	<img class = center src='/static/experiments/beast_fmri_test/images/T.png'></img>	71,89	2750.0	test	<img class = center src='/static/experiments/beast_fmri_test/images/redT.png'></img>	go	2250.0	3.0	9.0	go	non-target	T	71,Index Finger	89,Middle Finger	400.0	500.0	2350.0	2250.0	1.0	500.0	1.0	n/a	ITI
271310	500.0	n/a	-1	-1	500	0.0	fixation	poldrack-single-stim	122	354045	0.0-9.10-0.10	beast_fmri_test	358	353931,/	t	<div class = centerbox2><div class = fixation>+</div></div>	none	500.0	test	n/a	n/a	n/a	n/a	n/a	n/a	n/a	n/a	n/a	n/a	n/a	n/a	n/a	n/a	n/a	n/a	n/a	n/a	fixation
270958.3804374605	2750.0	n/a	1508	71	2750	353.61956254	stim	stop-signal	123	356797	0.0-9.10-1.10	beast_fmri_test	358	354608,/,355287,/,355967,/,356647,/	t,t,t,t	<img class = center src='/static/experiments/beast_fmri_test/images/B.png'></img>	71,89	2750.0	test	<img class = center src='/static/experiments/beast_fmri_test/images/redB.png'></img>	go	2350.0	3.0	10.0	go	target	B	71,Index Finger	89,Middle Finger	400.0	500.0	2350.0	2250.0	1.0	400.0	1.0	n/a	go_stim
273708.3804374605	353.61956254	n/a	1508	71	2750	353.61956254	stim	stop-signal	123	356797	0.0-9.10-1.10	beast_fmri_test	358	354608,/,355287,/,355967,/,356647,/	t,t,t,t	<img class = center src='/static/experiments/beast_fmri_test/images/B.png'></img>	71,89	2750.0	test	<img class = center src='/static/experiments/beast_fmri_test/images/redB.png'></img>	go	2350.0	3.0	10.0	go	target	B	71,Index Finger	89,Middle Finger	400.0	500.0	2350.0	2250.0	1.0	400.0	1.0	n/a	ITI
274934	500.0	n/a	-1	-1	500	0.0	fixation	poldrack-single-stim	124	357669	0.0-9.11-0.11	beast_fmri_test	358	357326,/	t	<div class = centerbox2><div class = fixation>+</div></div>	none	500.0	test	n/a	n/a	n/a	n/a	n/a	n/a	n/a	n/a	n/a	n/a	n/a	n/a	n/a	n/a	n/a	n/a	n/a	n/a	fixation
274200.69920570322	400.0	n/a	-1	-1	2750	736.300794297	stim	stop-signal	125	360422	0.0-9.11-1.11	beast_fmri_test	358	358007,/,358685,/,359366,/,360045,/,360725,/	t,t,t,t,t	<img class = center src='/static/experiments/beast_fmri_test/images/V.png'></img>	71,89	2750.0	test	<img class = center src='/static/experiments/beast_fmri_test/images/redV.png'></img>	stop	2350.0	3.0	11.0	stop	target	V	71,Index Finger	89,Middle Finger	400.0	500.0	2350.0	2250.0	0.0	400.0	n/a	1.0	go_stim
276550.69920570322	2350.0	n/a	-1	-1	2750	736.300794297	stim	stop-signal	125	360422	0.0-9.11-1.11	beast_fmri_test	358	358007,/,358685,/,359366,/,360045,/,360725,/	t,t,t,t,t	<img class = center src='/static/experiments/beast_fmri_test/images/V.png'></img>	71,89	2750.0	test	<img class = center src='/static/experiments/beast_fmri_test/images/redV.png'></img>	stop	2350.0	3.0	11.0	stop	target	V	71,Index Finger	89,Middle Finger	400.0	500.0	2350.0	2250.0	0.0	400.0	n/a	1.0	stop_stim
276950.69920570322	736.300794297	n/a	-1	-1	2750	736.300794297	stim	stop-signal	125	360422	0.0-9.11-1.11	beast_fmri_test	358	358007,/,358685,/,359366,/,360045,/,360725,/	t,t,t,t,t	<img class = center src='/static/experiments/beast_fmri_test/images/V.png'></img>	71,89	2750.0	test	<img class = center src='/static/experiments/beast_fmri_test/images/redV.png'></img>	stop	2350.0	3.0	11.0	stop	target	V	71,Index Finger	89,Middle Finger	400.0	500.0	2350.0	2250.0	0.0	400.0	n/a	1.0	ITI
278941	500.0	n/a	-1	-1	500	0.0	fixation	poldrack-single-stim	126	361676	0.0-9.12-0.12	beast_fmri_test	358	361404,/	t	<div class = centerbox2><div class = fixation>+</div></div>	none	500.0	test	n/a	n/a	n/a	n/a	n/a	n/a	n/a	n/a	n/a	n/a	n/a	n/a	n/a	n/a	n/a	n/a	n/a	n/a	fixation
278105.21530470997	2750.0	n/a	1815	71	2750	837.78469529	stim	stop-signal	127	364428	0.0-9.12-1.12	beast_fmri_test	358	362084,/,362764,/,363445,/,364124,/,364802,/	t,t,t,t,t	<img class = center src='/static/experiments/beast_fmri_test/images/T.png'></img>	71,89	2750.0	test	<img class = center src='/static/experiments/beast_fmri_test/images/redT.png'></img>	go	2300.0	3.0	12.0	go	target	T	71,Index Finger	89,Middle Finger	450.0	500.0	2300.0	2250.0	1.0	450.0	1.0	n/a	go_stim
280855.21530470997	837.78469529	n/a	1815	71	2750	837.78469529	stim	stop-signal	127	364428	0.0-9.12-1.12	beast_fmri_test	358	362084,/,362764,/,363445,/,364124,/,364802,/	t,t,t,t,t	<img class = center src='/static/experiments/beast_fmri_test/images/T.png'></img>	71,89	2750.0	test	<img class = center src='/static/experiments/beast_fmri_test/images/redT.png'></img>	go	2300.0	3.0	12.0	go	target	T	71,Index Finger	89,Middle Finger	450.0	500.0	2300.0	2250.0	1.0	450.0	1.0	n/a	ITI
283047	500.0	n/a	-1	-1	500	0.0	fixation	poldrack-single-stim	128	365782	0.0-9.13-0.13	beast_fmri_test	358	365483,/	t	<div class = centerbox2><div class = fixation>+</div></div>	none	500.0	test	n/a	n/a	n/a	n/a	n/a	n/a	n/a	n/a	n/a	n/a	n/a	n/a	n/a	n/a	n/a	n/a	n/a	n/a	fixation
281224.12598894432	500.0	n/a	-1	-1	2750	1826.87401106	stim	stop-signal	129	368536	0.0-9.13-1.13	beast_fmri_test	358	366163,/,366842,/,367521,/,368202,/,368880,/,369561,/,370239,/	t,t,t,t,t,t,t	<img class = center src='/static/experiments/beast_fmri_test/images/V.png'></img>	71,89	2750.0	test	<img class = center src='/static/experiments/beast_fmri_test/images/redV.png'></img>	stop	2250.0	3.0	13.0	stop	non-target	V	71,Index Finger	89,Middle Finger	450.0	500.0	2300.0	2250.0	0.0	500.0	n/a	1.0	go_stim
283474.12598894432	2250.0	n/a	-1	-1	2750	1826.87401106	stim	stop-signal	129	368536	0.0-9.13-1.13	beast_fmri_test	358	366163,/,366842,/,367521,/,368202,/,368880,/,369561,/,370239,/	t,t,t,t,t,t,t	<img class = center src='/static/experiments/beast_fmri_test/images/V.png'></img>	71,89	2750.0	test	<img class = center src='/static/experiments/beast_fmri_test/images/redV.png'></img>	stop	2250.0	3.0	13.0	stop	non-target	V	71,Index Finger	89,Middle Finger	450.0	500.0	2300.0	2250.0	0.0	500.0	n/a	1.0	stop_stim
283974.12598894432	1826.87401106	n/a	-1	-1	2750	1826.87401106	stim	stop-signal	129	368536	0.0-9.13-1.13	beast_fmri_test	358	366163,/,366842,/,367521,/,368202,/,368880,/,369561,/,370239,/	t,t,t,t,t,t,t	<img class = center src='/static/experiments/beast_fmri_test/images/V.png'></img>	71,89	2750.0	test	<img class = center src='/static/experiments/beast_fmri_test/images/redV.png'></img>	stop	2250.0	3.0	13.0	stop	non-target	V	71,Index Finger	89,Middle Finger	450.0	500.0	2300.0	2250.0	0.0	500.0	n/a	1.0	ITI
288145	500.0	n/a	-1	-1	500	0.0	fixation	poldrack-single-stim	130	370880	0.0-9.14-0.14	beast_fmri_test	358	n/a	n/a	<div class = centerbox2><div class = fixation>+</div></div>	none	500.0	test	n/a	n/a	n/a	n/a	n/a	n/a	n/a	n/a	n/a	n/a	n/a	n/a	n/a	n/a	n/a	n/a	n/a	n/a	fixation
287868.78991241514	550.0	n/a	-1	-1	2750	278.210087585	stim	stop-signal	131	373632	0.0-9.14-1.14	beast_fmri_test	358	370920,/,371600,/,372280,/,372960,/,373640,/	t,t,t,t,t	<img class = center src='/static/experiments/beast_fmri_test/images/D.png'></img>	71,89	2750.0	test	<img class = center src='/static/experiments/beast_fmri_test/images/redD.png'></img>	stop	2200.0	3.0	14.0	stop	non-target	D	71,Index Finger	89,Middle Finger	450.0	550.0	2300.0	2200.0	0.0	550.0	n/a	1.0	go_stim
290068.78991241514	2200.0	n/a	-1	-1	2750	278.210087585	stim	stop-signal	131	373632	0.0-9.14-1.14	beast_fmri_test	358	370920,/,371600,/,372280,/,372960,/,373640,/	t,t,t,t,t	<img class = center src='/static/experiments/beast_fmri_test/images/D.png'></img>	71,89	2750.0	test	<img class = center src='/static/experiments/beast_fmri_test/images/redD.png'></img>	stop	2200.0	3.0	14.0	stop	non-target	D	71,Index Finger	89,Middle Finger	450.0	550.0	2300.0	2200.0	0.0	550.0	n/a	1.0	stop_stim
290618.78991241514	278.210087585	n/a	-1	-1	2750	278.210087585	stim	stop-signal	131	373632	0.0-9.14-1.14	beast_fmri_test	358	370920,/,371600,/,372280,/,372960,/,373640,/	t,t,t,t,t	<img class = center src='/static/experiments/beast_fmri_test/images/D.png'></img>	71,89	2750.0	test	<img class = center src='/static/experiments/beast_fmri_test/images/redD.png'></img>	stop	2200.0	3.0	14.0	stop	non-target	D	71,Index Finger	89,Middle Finger	450.0	550.0	2300.0	2200.0	0.0	550.0	n/a	1.0	ITI
291693	500.0	n/a	-1	-1	500	0.0	fixation	poldrack-single-stim	132	374428	0.0-9.15-0.15	beast_fmri_test	358	374319,/	t	<div class = centerbox2><div class = fixation>+</div></div>	none	500.0	test	n/a	n/a	n/a	n/a	n/a	n/a	n/a	n/a	n/a	n/a	n/a	n/a	n/a	n/a	n/a	n/a	n/a	n/a	fixation
288800.51323612512	600.0	n/a	-1	-1	2750	2894.48676387	stim	stop-signal	133	377180	0.0-9.15-1.15	beast_fmri_test	358	374997,/,375678,/,376357,/,377038,/,377717,/,378397,/,379076,/,379755,/	t,t,t,t,t,t,t,t	<img class = center src='/static/experiments/beast_fmri_test/images/V.png'></img>	71,89	2750.0	test	<img class = center src='/static/experiments/beast_fmri_test/images/redV.png'></img>	stop	2150.0	3.0	15.0	stop	non-target	V	71,Index Finger	89,Middle Finger	450.0	600.0	2300.0	2150.0	0.0	600.0	n/a	1.0	go_stim
290950.51323612512	2150.0	n/a	-1	-1	2750	2894.48676387	stim	stop-signal	133	377180	0.0-9.15-1.15	beast_fmri_test	358	374997,/,375678,/,376357,/,377038,/,377717,/,378397,/,379076,/,379755,/	t,t,t,t,t,t,t,t	<img class = center src='/static/experiments/beast_fmri_test/images/V.png'></img>	71,89	2750.0	test	<img class = center src='/static/experiments/beast_fmri_test/images/redV.png'></img>	stop	2150.0	3.0	15.0	stop	non-target	V	71,Index Finger	89,Middle Finger	450.0	600.0	2300.0	2150.0	0.0	600.0	n/a	1.0	stop_stim
291550.51323612512	2894.48676387	n/a	-1	-1	2750	2894.48676387	stim	stop-signal	133	377180	0.0-9.15-1.15	beast_fmri_test	358	374997,/,375678,/,376357,/,377038,/,377717,/,378397,/,379076,/,379755,/	t,t,t,t,t,t,t,t	<img class = center src='/static/experiments/beast_fmri_test/images/V.png'></img>	71,89	2750.0	test	<img class = center src='/static/experiments/beast_fmri_test/images/redV.png'></img>	stop	2150.0	3.0	15.0	stop	non-target	V	71,Index Finger	89,Middle Finger	450.0	600.0	2300.0	2150.0	0.0	600.0	n/a	1.0	ITI
297857	500.0	n/a	-1	-1	500	0.0	fixation	poldrack-single-stim	134	380592	0.0-9.16-0.16	beast_fmri_test	358	380436,/	t	<div class = centerbox2><div class = fixation>+</div></div>	none	500.0	test	n/a	n/a	n/a	n/a	n/a	n/a	n/a	n/a	n/a	n/a	n/a	n/a	n/a	n/a	n/a	n/a	n/a	n/a	fixation
297578.8802201596	650.0	n/a	-1	-1	2750	281.11977984	stim	stop-signal	135	383345	0.0-9.16-1.16	beast_fmri_test	358	381116,/,381795,/,382476,/,383156,/	t,t,t,t	<img class = center src='/static/experiments/beast_fmri_test/images/B.png'></img>	71,89	2750.0	test	<img class = center src='/static/experiments/beast_fmri_test/images/redB.png'></img>	stop	2100.0	3.0	16.0	stop	non-target	B	71,Index Finger	89,Middle Finger	450.0	650.0	2300.0	2100.0	0.0	650.0	n/a	1.0	go_stim
299678.8802201596	2100.0	n/a	-1	-1	2750	281.11977984	stim	stop-signal	135	383345	0.0-9.16-1.16	beast_fmri_test	358	381116,/,381795,/,382476,/,383156,/	t,t,t,t	<img class = center src='/static/experiments/beast_fmri_test/images/B.png'></img>	71,89	2750.0	test	<img class = center src='/static/experiments/beast_fmri_test/images/redB.png'></img>	stop	2100.0	3.0	16.0	stop	non-target	B	71,Index Finger	89,Middle Finger	450.0	650.0	2300.0	2100.0	0.0	650.0	n/a	1.0	stop_stim
300328.8802201596	281.11977984	n/a	-1	-1	2750	281.11977984	stim	stop-signal	135	383345	0.0-9.16-1.16	beast_fmri_test	358	381116,/,381795,/,382476,/,383156,/	t,t,t,t	<img class = center src='/static/experiments/beast_fmri_test/images/B.png'></img>	71,89	2750.0	test	<img class = center src='/static/experiments/beast_fmri_test/images/redB.png'></img>	stop	2100.0	3.0	16.0	stop	non-target	B	71,Index Finger	89,Middle Finger	450.0	650.0	2300.0	2100.0	0.0	650.0	n/a	1.0	ITI
301411	500.0	n/a	-1	-1	500	0.0	fixation	poldrack-single-stim	136	384146	0.0-9.17-0.17	beast_fmri_test	358	383835,/	t	<div class = centerbox2><div class = fixation>+</div></div>	none	500.0	test	n/a	n/a	n/a	n/a	n/a	n/a	n/a	n/a	n/a	n/a	n/a	n/a	n/a	n/a	n/a	n/a	n/a	n/a	fixation
299967.30174577917	700.0	n/a	-1	-1	2750	1446.69825422	stim	stop-signal	137	386899	0.0-9.17-1.17	beast_fmri_test	358	384515,/,385194,/,385873,/,386553,/,387233,/,387911,/	t,t,t,t,t,t	<img class = center src='/static/experiments/beast_fmri_test/images/B.png'></img>	71,89	2750.0	test	<img class = center src='/static/experiments/beast_fmri_test/images/redB.png'></img>	stop	2050.0	3.0	17.0	stop	non-target	B	71,Index Finger	89,Middle Finger	450.0	700.0	2300.0	2050.0	0.0	700.0	n/a	1.0	go_stim
302017.30174577917	2050.0	n/a	-1	-1	2750	1446.69825422	stim	stop-signal	137	386899	0.0-9.17-1.17	beast_fmri_test	358	384515,/,385194,/,385873,/,386553,/,387233,/,387911,/	t,t,t,t,t,t	<img class = center src='/static/experiments/beast_fmri_test/images/B.png'></img>	71,89	2750.0	test	<img class = center src='/static/experiments/beast_fmri_test/images/redB.png'></img>	stop	2050.0	3.0	17.0	stop	non-target	B	71,Index Finger	89,Middle Finger	450.0	700.0	2300.0	2050.0	0.0	700.0	n/a	1.0	stop_stim
302717.30174577917	1446.69825422	n/a	-1	-1	2750	1446.69825422	stim	stop-signal	137	386899	0.0-9.17-1.17	beast_fmri_test	358	384515,/,385194,/,385873,/,386553,/,387233,/,387911,/	t,t,t,t,t,t	<img class = center src='/static/experiments/beast_fmri_test/images/B.png'></img>	71,89	2750.0	test	<img class = center src='/static/experiments/beast_fmri_test/images/redB.png'></img>	stop	2050.0	3.0	17.0	stop	non-target	B	71,Index Finger	89,Middle Finger	450.0	700.0	2300.0	2050.0	0.0	700.0	n/a	1.0	ITI
306127	500.0	n/a	-1	-1	500	0.0	fixation	poldrack-single-stim	138	388862	0.0-9.18-0.18	beast_fmri_test	358	388593,/	t	<div class = centerbox2><div class = fixation>+</div></div>	none	500.0	test	n/a	n/a	n/a	n/a	n/a	n/a	n/a	n/a	n/a	n/a	n/a	n/a	n/a	n/a	n/a	n/a	n/a	n/a	fixation
306109.84782787185	2750.0	n/a	1295	89	2750	18.1521721282	stim	stop-signal	139	391613	0.0-9.18-1.18	beast_fmri_test	358	389271,/,389952,/,390631,/,391311,/	t,t,t,t	<img class = center src='/static/experiments/beast_fmri_test/images/D.png'></img>	71,89	2750.0	test	<img class = center src='/static/experiments/beast_fmri_test/images/redD.png'></img>	go	2000.0	3.0	18.0	go	non-target	D	71,Index Finger	89,Middle Finger	450.0	750.0	2300.0	2000.0	1.0	750.0	1.0	n/a	go_stim
308859.84782787185	18.1521721282	n/a	1295	89	2750	18.1521721282	stim	stop-signal	139	391613	0.0-9.18-1.18	beast_fmri_test	358	389271,/,389952,/,390631,/,391311,/	t,t,t,t	<img class = center src='/static/experiments/beast_fmri_test/images/D.png'></img>	71,89	2750.0	test	<img class = center src='/static/experiments/beast_fmri_test/images/redD.png'></img>	go	2000.0	3.0	18.0	go	non-target	D	71,Index Finger	89,Middle Finger	450.0	750.0	2300.0	2000.0	1.0	750.0	1.0	n/a	ITI
309413	500.0	n/a	-1	-1	500	0.0	fixation	poldrack-single-stim	140	392148	0.0-9.19-0.19	beast_fmri_test	358	391990,/	t	<div class = centerbox2><div class = fixation>+</div></div>	none	500.0	test	n/a	n/a	n/a	n/a	n/a	n/a	n/a	n/a	n/a	n/a	n/a	n/a	n/a	n/a	n/a	n/a	n/a	n/a	fixation
309296.37419738754	2750.0	n/a	2056	71	2750	117.625802612	stim	stop-signal	141	394899	0.0-9.19-1.19	beast_fmri_test	358	392670,/,393350,/,394030,/,394708,/	t,t,t,t	<img class = center src='/static/experiments/beast_fmri_test/images/T.png'></img>	71,89	2750.0	test	<img class = center src='/static/experiments/beast_fmri_test/images/redT.png'></img>	go	2000.0	3.0	19.0	go	non-target	T	71,Index Finger	89,Middle Finger	450.0	750.0	2300.0	2000.0	0.0	750.0	0.0	n/a	go_stim
312046.37419738754	117.625802612	n/a	2056	71	2750	117.625802612	stim	stop-signal	141	394899	0.0-9.19-1.19	beast_fmri_test	358	392670,/,393350,/,394030,/,394708,/	t,t,t,t	<img class = center src='/static/experiments/beast_fmri_test/images/T.png'></img>	71,89	2750.0	test	<img class = center src='/static/experiments/beast_fmri_test/images/redT.png'></img>	go	2000.0	3.0	19.0	go	non-target	T	71,Index Finger	89,Middle Finger	450.0	750.0	2300.0	2000.0	0.0	750.0	0.0	n/a	ITI
312804	500.0	n/a	-1	-1	500	0.0	fixation	poldrack-single-stim	142	395539	0.0-9.20-0.20	beast_fmri_test	358	395389,/	t	<div class = centerbox2><div class = fixation>+</div></div>	none	500.0	test	n/a	n/a	n/a	n/a	n/a	n/a	n/a	n/a	n/a	n/a	n/a	n/a	n/a	n/a	n/a	n/a	n/a	n/a	fixation
312388.96594253578	2750.0	n/a	1454	71	2750	416.034057464	stim	stop-signal	143	398290	0.0-9.20-1.20	beast_fmri_test	358	396069,/,396749,/,397428,/,398107,/	t,t,t,t	<img class = center src='/static/experiments/beast_fmri_test/images/D.png'></img>	71,89	2750.0	test	<img class = center src='/static/experiments/beast_fmri_test/images/redD.png'></img>	go	2000.0	3.0	20.0	go	non-target	D	71,Index Finger	89,Middle Finger	450.0	750.0	2300.0	2000.0	0.0	750.0	0.0	n/a	go_stim
315138.96594253578	416.034057464	n/a	1454	71	2750	416.034057464	stim	stop-signal	143	398290	0.0-9.20-1.20	beast_fmri_test	358	396069,/,396749,/,397428,/,398107,/	t,t,t,t	<img class = center src='/static/experiments/beast_fmri_test/images/D.png'></img>	71,89	2750.0	test	<img class = center src='/static/experiments/beast_fmri_test/images/redD.png'></img>	go	2000.0	3.0	20.0	go	non-target	D	71,Index Finger	89,Middle Finger	450.0	750.0	2300.0	2000.0	0.0	750.0	0.0	n/a	ITI
316491	500.0	n/a	-1	-1	500	0.0	fixation	poldrack-single-stim	144	399226	0.0-9.21-0.21	beast_fmri_test	358	398786,/	t	<div class = centerbox2><div class = fixation>+</div></div>	none	500.0	test	n/a	n/a	n/a	n/a	n/a	n/a	n/a	n/a	n/a	n/a	n/a	n/a	n/a	n/a	n/a	n/a	n/a	n/a	fixation
316327.10833284381	2750.0	n/a	1868	71	2750	164.891667156	stim	stop-signal	145	401977	0.0-9.21-1.21	beast_fmri_test	358	399466,/,400146,/,400826,/,401506,/	t,t,t,t	<img class = center src='/static/experiments/beast_fmri_test/images/T.png'></img>	71,89	2750.0	test	<img class = center src='/static/experiments/beast_fmri_test/images/redT.png'></img>	go	2000.0	3.0	21.0	go	non-target	T	71,Index Finger	89,Middle Finger	450.0	750.0	2300.0	2000.0	0.0	750.0	0.0	n/a	go_stim
319077.10833284381	164.891667156	n/a	1868	71	2750	164.891667156	stim	stop-signal	145	401977	0.0-9.21-1.21	beast_fmri_test	358	399466,/,400146,/,400826,/,401506,/	t,t,t,t	<img class = center src='/static/experiments/beast_fmri_test/images/T.png'></img>	71,89	2750.0	test	<img class = center src='/static/experiments/beast_fmri_test/images/redT.png'></img>	go	2000.0	3.0	21.0	go	non-target	T	71,Index Finger	89,Middle Finger	450.0	750.0	2300.0	2000.0	0.0	750.0	0.0	n/a	ITI
319928	500.0	n/a	-1	-1	500	0.0	fixation	poldrack-single-stim	146	402663	0.0-9.22-0.22	beast_fmri_test	358	402186,/	t	<div class = centerbox2><div class = fixation>+</div></div>	none	500.0	test	n/a	n/a	n/a	n/a	n/a	n/a	n/a	n/a	n/a	n/a	n/a	n/a	n/a	n/a	n/a	n/a	n/a	n/a	fixation
319360.15822658705	2750.0	n/a	1070	71	2750	568.841773413	stim	stop-signal	147	405414	0.0-9.22-1.22	beast_fmri_test	358	402866,/,403545,/,404225,/,404904,/,405583,/	t,t,t,t,t	<img class = center src='/static/experiments/beast_fmri_test/images/V.png'></img>	71,89	2750.0	test	<img class = center src='/static/experiments/beast_fmri_test/images/redV.png'></img>	go	2000.0	3.0	22.0	go	non-target	V	71,Index Finger	89,Middle Finger	450.0	750.0	2300.0	2000.0	0.0	750.0	0.0	n/a	go_stim
322110.15822658705	568.841773413	n/a	1070	71	2750	568.841773413	stim	stop-signal	147	405414	0.0-9.22-1.22	beast_fmri_test	358	402866,/,403545,/,404225,/,404904,/,405583,/	t,t,t,t,t	<img class = center src='/static/experiments/beast_fmri_test/images/V.png'></img>	71,89	2750.0	test	<img class = center src='/static/experiments/beast_fmri_test/images/redV.png'></img>	go	2000.0	3.0	22.0	go	non-target	V	71,Index Finger	89,Middle Finger	450.0	750.0	2300.0	2000.0	0.0	750.0	0.0	n/a	ITI
323767	500.0	n/a	-1	-1	500	0.0	fixation	poldrack-single-stim	148	406502	0.0-9.23-0.23	beast_fmri_test	358	406264,/	t	<div class = centerbox2><div class = fixation>+</div></div>	none	500.0	test	n/a	n/a	n/a	n/a	n/a	n/a	n/a	n/a	n/a	n/a	n/a	n/a	n/a	n/a	n/a	n/a	n/a	n/a	fixation
322297.52270769764	2750.0	n/a	1153	71	2750	1470.4772923	stim	stop-signal	149	409253	0.0-9.23-1.23	beast_fmri_test	358	406945,/,407624,/,408303,/,408984,/,409662,/,410343,/	t,t,t,t,t,t	<img class = center src='/static/experiments/beast_fmri_test/images/D.png'></img>	71,89	2750.0	test	<img class = center src='/static/experiments/beast_fmri_test/images/redD.png'></img>	go	2300.0	3.0	23.0	go	target	D	71,Index Finger	89,Middle Finger	450.0	750.0	2300.0	2000.0	1.0	450.0	1.0	n/a	go_stim
