onset	duration	text	rt	key_press	block_duration	timing_post_trial	trial_id	trial_type	trial_index	time_elapsed	internal_node_id	exp_id	subject_id	trigger_times	triggers	stimulus	possible_responses	stim_duration	exp_stage	SS_stimulus	SS_trial_type	SS_duration	load	trial_num	stop_trial_type	adaptive_trial_type	stim	yes_response_key	no_response_key	SSD_target	SSD_non_target	SSTarget	SSNonTarget	go_acc	SS_delay	adaptive_acc	stop_acc	new_trial_type
test	10880.0	n/a	-1	-1	10880	0.0	practice-no-stop-feedback	poldrack-single-stim	588	1645498	0.0-24.0	beast_fmri_test	358	1634624,/,1635301,/,1635981,/,1636661,/,1637339,/,1638019,/,1638699,/,1639380,/,1640058,/,1640739,/,1641417,/,1642098,/,1642777,/,1643458,/,1644137,/,1644816,/,1645498,/	t,t,t,t,t,t,t,t,t,t,t,t,t,t,t,t,t	"<div class = ""centerbox""><p class = ""block-text"">Your delay is 2 trials.</p><p class = block-text>Please wait for the scanner to start the block</p></div>"	77	10880.0	n/a	n/a	n/a	n/a	n/a	n/a	n/a	n/a	n/a	n/a	n/a	n/a	n/a	n/a	n/a	n/a	n/a	n/a	n/a	start_functional_block
11377	500.0	n/a	-1	-1	500	0.0	fixation	poldrack-single-stim	589	1646001	0.0-25.0-0.0	beast_fmri_test	358	n/a	n/a	<div class = centerbox2><div class = fixation>+</div></div>	none	500.0	test	n/a	n/a	n/a	n/a	n/a	n/a	n/a	n/a	n/a	n/a	n/a	n/a	n/a	n/a	n/a	n/a	n/a	n/a	fixation
10559.633512921631	2750.0	n/a	1249	89	2750	819.366487078	stim	stop-signal	590	1648753	0.0-25.0-1.0	beast_fmri_test	358	1646176,/,1646856,/,1647535,/,1648216,/,1648895,/	t,t,t,t,t	<img class = center src='/static/experiments/beast_fmri_test/images/T.png'></img>	71,89	2750.0	test	<img class = center src='/static/experiments/beast_fmri_test/images/redT.png'></img>	go	-1.0	2.0	0.0	go	temp-non-target	T	71,Index Finger	89,Middle Finger	500.0	600.0	2250.0	2150.0	0.0	n/a	n/a	n/a	go_stim
13309.633512921631	819.366487078	n/a	1249	89	2750	819.366487078	stim	stop-signal	590	1648753	0.0-25.0-1.0	beast_fmri_test	358	1646176,/,1646856,/,1647535,/,1648216,/,1648895,/	t,t,t,t,t	<img class = center src='/static/experiments/beast_fmri_test/images/T.png'></img>	71,89	2750.0	test	<img class = center src='/static/experiments/beast_fmri_test/images/redT.png'></img>	go	-1.0	2.0	0.0	go	temp-non-target	T	71,Index Finger	89,Middle Finger	500.0	600.0	2250.0	2150.0	0.0	n/a	n/a	n/a	ITI
15513	500.0	n/a	-1	-1	500	0.0	fixation	poldrack-single-stim	591	1650137	0.0-25.1-0.1	beast_fmri_test	358	1649636,/	t	<div class = centerbox2><div class = fixation>+</div></div>	none	500.0	test	n/a	n/a	n/a	n/a	n/a	n/a	n/a	n/a	n/a	n/a	n/a	n/a	n/a	n/a	n/a	n/a	n/a	n/a	fixation
15156.438223220175	2750.0	n/a	940	89	2750	359.56177678	stim	stop-signal	592	1652890	0.0-25.1-1.1	beast_fmri_test	358	1650253,/,1650935,/,1651613,/,1652294,/,1652973,/	t,t,t,t,t	<img class = center src='/static/experiments/beast_fmri_test/images/V.png'></img>	71,89	2750.0	test	<img class = center src='/static/experiments/beast_fmri_test/images/redV.png'></img>	go	-1.0	2.0	1.0	go	temp-non-target	V	71,Index Finger	89,Middle Finger	500.0	600.0	2250.0	2150.0	0.0	n/a	n/a	n/a	go_stim
17906.438223220175	359.56177678	n/a	940	89	2750	359.56177678	stim	stop-signal	592	1652890	0.0-25.1-1.1	beast_fmri_test	358	1650253,/,1650935,/,1651613,/,1652294,/,1652973,/	t,t,t,t,t	<img class = center src='/static/experiments/beast_fmri_test/images/V.png'></img>	71,89	2750.0	test	<img class = center src='/static/experiments/beast_fmri_test/images/redV.png'></img>	go	-1.0	2.0	1.0	go	temp-non-target	V	71,Index Finger	89,Middle Finger	500.0	600.0	2250.0	2150.0	0.0	n/a	n/a	n/a	ITI
19195	500.0	n/a	-1	-1	500	0.0	fixation	poldrack-single-stim	593	1653819	0.0-25.2-0.2	beast_fmri_test	358	1653652,/	t	<div class = centerbox2><div class = fixation>+</div></div>	none	500.0	test	n/a	n/a	n/a	n/a	n/a	n/a	n/a	n/a	n/a	n/a	n/a	n/a	n/a	n/a	n/a	n/a	n/a	n/a	fixation
18295.760742586106	2750.0	n/a	648	89	2750	900.239257414	stim	stop-signal	594	1656570	0.0-25.2-1.2	beast_fmri_test	358	1654333,/,1655012,/,1655693,/,1656371,/,1657052,/	t,t,t,t,t	<img class = center src='/static/experiments/beast_fmri_test/images/D.png'></img>	71,89	2750.0	test	<img class = center src='/static/experiments/beast_fmri_test/images/redD.png'></img>	go	2150.0	2.0	2.0	go	non-target	D	71,Index Finger	89,Middle Finger	500.0	600.0	2250.0	2150.0	1.0	600.0	1.0	n/a	go_stim
21045.760742586106	900.239257414	n/a	648	89	2750	900.239257414	stim	stop-signal	594	1656570	0.0-25.2-1.2	beast_fmri_test	358	1654333,/,1655012,/,1655693,/,1656371,/,1657052,/	t,t,t,t,t	<img class = center src='/static/experiments/beast_fmri_test/images/D.png'></img>	71,89	2750.0	test	<img class = center src='/static/experiments/beast_fmri_test/images/redD.png'></img>	go	2150.0	2.0	2.0	go	non-target	D	71,Index Finger	89,Middle Finger	500.0	600.0	2250.0	2150.0	1.0	600.0	1.0	n/a	ITI
23419	500.0	n/a	-1	-1	500	0.0	fixation	poldrack-single-stim	595	1658043	0.0-25.3-0.3	beast_fmri_test	358	1657732,/	t	<div class = centerbox2><div class = fixation>+</div></div>	none	500.0	test	n/a	n/a	n/a	n/a	n/a	n/a	n/a	n/a	n/a	n/a	n/a	n/a	n/a	n/a	n/a	n/a	n/a	n/a	fixation
22978.708011487965	2750.0	n/a	668	71	2750	443.291988512	stim	stop-signal	596	1660796	0.0-25.3-1.3	beast_fmri_test	358	1658411,/,1659089,/,1659769,/,1660449,/,1661130,/	t,t,t,t,t	<img class = center src='/static/experiments/beast_fmri_test/images/V.png'></img>	71,89	2750.0	test	<img class = center src='/static/experiments/beast_fmri_test/images/redV.png'></img>	go	2250.0	2.0	3.0	go	target	V	71,Index Finger	89,Middle Finger	500.0	600.0	2250.0	2150.0	1.0	500.0	1.0	n/a	go_stim
25728.708011487965	443.291988512	n/a	668	71	2750	443.291988512	stim	stop-signal	596	1660796	0.0-25.3-1.3	beast_fmri_test	358	1658411,/,1659089,/,1659769,/,1660449,/,1661130,/	t,t,t,t,t	<img class = center src='/static/experiments/beast_fmri_test/images/V.png'></img>	71,89	2750.0	test	<img class = center src='/static/experiments/beast_fmri_test/images/redV.png'></img>	go	2250.0	2.0	3.0	go	target	V	71,Index Finger	89,Middle Finger	500.0	600.0	2250.0	2150.0	1.0	500.0	1.0	n/a	ITI
27175	500.0	n/a	-1	-1	500	0.0	fixation	poldrack-single-stim	597	1661799	0.0-25.4-0.4	beast_fmri_test	358	n/a	n/a	<div class = centerbox2><div class = fixation>+</div></div>	none	500.0	test	n/a	n/a	n/a	n/a	n/a	n/a	n/a	n/a	n/a	n/a	n/a	n/a	n/a	n/a	n/a	n/a	n/a	n/a	fixation
26315.471349839587	2750.0	n/a	801	89	2750	860.52865016	stim	stop-signal	598	1664550	0.0-25.4-1.4	beast_fmri_test	358	1661809,/,1662489,/,1663168,/,1663848,/,1664528,/,1665208,/	t,t,t,t,t,t	<img class = center src='/static/experiments/beast_fmri_test/images/T.png'></img>	71,89	2750.0	test	<img class = center src='/static/experiments/beast_fmri_test/images/redT.png'></img>	go	2150.0	2.0	4.0	go	non-target	T	71,Index Finger	89,Middle Finger	500.0	600.0	2250.0	2150.0	1.0	600.0	1.0	n/a	go_stim
29065.471349839587	860.52865016	n/a	801	89	2750	860.52865016	stim	stop-signal	598	1664550	0.0-25.4-1.4	beast_fmri_test	358	1661809,/,1662489,/,1663168,/,1663848,/,1664528,/,1665208,/	t,t,t,t,t,t	<img class = center src='/static/experiments/beast_fmri_test/images/T.png'></img>	71,89	2750.0	test	<img class = center src='/static/experiments/beast_fmri_test/images/redT.png'></img>	go	2150.0	2.0	4.0	go	non-target	T	71,Index Finger	89,Middle Finger	500.0	600.0	2250.0	2150.0	1.0	600.0	1.0	n/a	ITI
31341	500.0	n/a	-1	-1	500	0.0	fixation	poldrack-single-stim	599	1665965	0.0-25.5-0.5	beast_fmri_test	358	1665888,/	t	<div class = centerbox2><div class = fixation>+</div></div>	none	500.0	test	n/a	n/a	n/a	n/a	n/a	n/a	n/a	n/a	n/a	n/a	n/a	n/a	n/a	n/a	n/a	n/a	n/a	n/a	fixation
30796.83675721637	500.0	n/a	636	71	2750	546.163242784	stim	stop-signal	600	1668717	0.0-25.5-1.5	beast_fmri_test	358	1666566,/,1667247,/,1667925,/,1668605,/	t,t,t,t	<img class = center src='/static/experiments/beast_fmri_test/images/V.png'></img>	71,89	2750.0	test	<img class = center src='/static/experiments/beast_fmri_test/images/redV.png'></img>	stop	2250.0	2.0	5.0	stop	target	V	71,Index Finger	89,Middle Finger	500.0	600.0	2250.0	2150.0	0.0	500.0	n/a	0.0	go_stim
33046.83675721637	2250.0	n/a	636	71	2750	546.163242784	stim	stop-signal	600	1668717	0.0-25.5-1.5	beast_fmri_test	358	1666566,/,1667247,/,1667925,/,1668605,/	t,t,t,t	<img class = center src='/static/experiments/beast_fmri_test/images/V.png'></img>	71,89	2750.0	test	<img class = center src='/static/experiments/beast_fmri_test/images/redV.png'></img>	stop	2250.0	2.0	5.0	stop	target	V	71,Index Finger	89,Middle Finger	500.0	600.0	2250.0	2150.0	0.0	500.0	n/a	0.0	stop_stim
33546.83675721637	546.163242784	n/a	636	71	2750	546.163242784	stim	stop-signal	600	1668717	0.0-25.5-1.5	beast_fmri_test	358	1666566,/,1667247,/,1667925,/,1668605,/	t,t,t,t	<img class = center src='/static/experiments/beast_fmri_test/images/V.png'></img>	71,89	2750.0	test	<img class = center src='/static/experiments/beast_fmri_test/images/redV.png'></img>	stop	2250.0	2.0	5.0	stop	target	V	71,Index Finger	89,Middle Finger	500.0	600.0	2250.0	2150.0	0.0	500.0	n/a	0.0	ITI
35209	500.0	n/a	-1	-1	500	0.0	fixation	poldrack-single-stim	601	1669833	0.0-25.6-0.6	beast_fmri_test	358	1669331,/	t	<div class = centerbox2><div class = fixation>+</div></div>	none	500.0	test	n/a	n/a	n/a	n/a	n/a	n/a	n/a	n/a	n/a	n/a	n/a	n/a	n/a	n/a	n/a	n/a	n/a	n/a	fixation
34320.882665384095	2750.0	n/a	654	89	2750	889.117334616	stim	stop-signal	602	1672584	0.0-25.6-1.6	beast_fmri_test	358	1669966,/,1670643,/,1671323,/,1672003,/,1672684,/,1673363,/	t,t,t,t,t,t	<img class = center src='/static/experiments/beast_fmri_test/images/D.png'></img>	71,89	2750.0	test	<img class = center src='/static/experiments/beast_fmri_test/images/redD.png'></img>	go	2150.0	2.0	6.0	go	non-target	D	71,Index Finger	89,Middle Finger	450.0	600.0	2250.0	2150.0	1.0	600.0	1.0	n/a	go_stim
37070.882665384095	889.117334616	n/a	654	89	2750	889.117334616	stim	stop-signal	602	1672584	0.0-25.6-1.6	beast_fmri_test	358	1669966,/,1670643,/,1671323,/,1672003,/,1672684,/,1673363,/	t,t,t,t,t,t	<img class = center src='/static/experiments/beast_fmri_test/images/D.png'></img>	71,89	2750.0	test	<img class = center src='/static/experiments/beast_fmri_test/images/redD.png'></img>	go	2150.0	2.0	6.0	go	non-target	D	71,Index Finger	89,Middle Finger	450.0	600.0	2250.0	2150.0	1.0	600.0	1.0	n/a	ITI
39413	500.0	n/a	-1	-1	500	0.0	fixation	poldrack-single-stim	603	1674037	0.0-25.7-0.7	beast_fmri_test	358	n/a	n/a	<div class = centerbox2><div class = fixation>+</div></div>	none	500.0	test	n/a	n/a	n/a	n/a	n/a	n/a	n/a	n/a	n/a	n/a	n/a	n/a	n/a	n/a	n/a	n/a	n/a	n/a	fixation
38966.658788847271	2750.0	n/a	836	71	2750	448.341211153	stim	stop-signal	604	1676789	0.0-25.7-1.7	beast_fmri_test	358	1674045,/,1674723,/,1675404,/,1676082,/,1676761,/	t,t,t,t,t	<img class = center src='/static/experiments/beast_fmri_test/images/V.png'></img>	71,89	2750.0	test	<img class = center src='/static/experiments/beast_fmri_test/images/redV.png'></img>	go	2300.0	2.0	7.0	go	target	V	71,Index Finger	89,Middle Finger	450.0	600.0	2300.0	2150.0	1.0	450.0	1.0	n/a	go_stim
41716.658788847271	448.341211153	n/a	836	71	2750	448.341211153	stim	stop-signal	604	1676789	0.0-25.7-1.7	beast_fmri_test	358	1674045,/,1674723,/,1675404,/,1676082,/,1676761,/	t,t,t,t,t	<img class = center src='/static/experiments/beast_fmri_test/images/V.png'></img>	71,89	2750.0	test	<img class = center src='/static/experiments/beast_fmri_test/images/redV.png'></img>	go	2300.0	2.0	7.0	go	target	V	71,Index Finger	89,Middle Finger	450.0	600.0	2300.0	2150.0	1.0	450.0	1.0	n/a	ITI
43178	500.0	n/a	-1	-1	500	0.0	fixation	poldrack-single-stim	605	1677802	0.0-25.8-0.8	beast_fmri_test	358	1677443,/	t	<div class = centerbox2><div class = fixation>+</div></div>	none	500.0	test	n/a	n/a	n/a	n/a	n/a	n/a	n/a	n/a	n/a	n/a	n/a	n/a	n/a	n/a	n/a	n/a	n/a	n/a	fixation
42176.548228619155	450.0	n/a	-1	-1	2750	1002.45177138	stim	stop-signal	606	1680553	0.0-25.8-1.8	beast_fmri_test	358	1678121,/,1678802,/,1679481,/,1680161,/,1680840,/,1681520,/	t,t,t,t,t,t	<img class = center src='/static/experiments/beast_fmri_test/images/D.png'></img>	71,89	2750.0	test	<img class = center src='/static/experiments/beast_fmri_test/images/redD.png'></img>	stop	2300.0	2.0	8.0	stop	target	D	71,Index Finger	89,Middle Finger	450.0	600.0	2300.0	2150.0	0.0	450.0	n/a	1.0	go_stim
44476.548228619155	2300.0	n/a	-1	-1	2750	1002.45177138	stim	stop-signal	606	1680553	0.0-25.8-1.8	beast_fmri_test	358	1678121,/,1678802,/,1679481,/,1680161,/,1680840,/,1681520,/	t,t,t,t,t,t	<img class = center src='/static/experiments/beast_fmri_test/images/D.png'></img>	71,89	2750.0	test	<img class = center src='/static/experiments/beast_fmri_test/images/redD.png'></img>	stop	2300.0	2.0	8.0	stop	target	D	71,Index Finger	89,Middle Finger	450.0	600.0	2300.0	2150.0	0.0	450.0	n/a	1.0	stop_stim
44926.548228619155	1002.45177138	n/a	-1	-1	2750	1002.45177138	stim	stop-signal	606	1680553	0.0-25.8-1.8	beast_fmri_test	358	1678121,/,1678802,/,1679481,/,1680161,/,1680840,/,1681520,/	t,t,t,t,t,t	<img class = center src='/static/experiments/beast_fmri_test/images/D.png'></img>	71,89	2750.0	test	<img class = center src='/static/experiments/beast_fmri_test/images/redD.png'></img>	stop	2300.0	2.0	8.0	stop	target	D	71,Index Finger	89,Middle Finger	450.0	600.0	2300.0	2150.0	0.0	450.0	n/a	1.0	ITI
47497	500.0	n/a	-1	-1	500	0.0	fixation	poldrack-single-stim	607	1682121	0.0-25.9-0.9	beast_fmri_test	358	n/a	n/a	<div class = centerbox2><div class = fixation>+</div></div>	none	500.0	test	n/a	n/a	n/a	n/a	n/a	n/a	n/a	n/a	n/a	n/a	n/a	n/a	n/a	n/a	n/a	n/a	n/a	n/a	fixation
46143.175639003515	2750.0	n/a	718	89	2750	1355.824361	stim	stop-signal	608	1684873	0.0-25.9-1.9	beast_fmri_test	358	1682199,/,1682880,/,1683560,/,1684239,/,1684918,/,1685599,/	t,t,t,t,t,t	<img class = center src='/static/experiments/beast_fmri_test/images/T.png'></img>	71,89	2750.0	test	<img class = center src='/static/experiments/beast_fmri_test/images/redT.png'></img>	go	2150.0	2.0	9.0	go	non-target	T	71,Index Finger	89,Middle Finger	500.0	600.0	2300.0	2150.0	1.0	600.0	1.0	n/a	go_stim
48893.175639003515	1355.824361	n/a	718	89	2750	1355.824361	stim	stop-signal	608	1684873	0.0-25.9-1.9	beast_fmri_test	358	1682199,/,1682880,/,1683560,/,1684239,/,1684918,/,1685599,/	t,t,t,t,t,t	<img class = center src='/static/experiments/beast_fmri_test/images/T.png'></img>	71,89	2750.0	test	<img class = center src='/static/experiments/beast_fmri_test/images/redT.png'></img>	go	2150.0	2.0	9.0	go	non-target	T	71,Index Finger	89,Middle Finger	500.0	600.0	2300.0	2150.0	1.0	600.0	1.0	n/a	ITI
52166	500.0	n/a	-1	-1	500	0.0	fixation	poldrack-single-stim	609	1686790	0.0-25.10-0.10	beast_fmri_test	358	1686288,/	t	<div class = centerbox2><div class = fixation>+</div></div>	none	500.0	test	n/a	n/a	n/a	n/a	n/a	n/a	n/a	n/a	n/a	n/a	n/a	n/a	n/a	n/a	n/a	n/a	n/a	n/a	fixation
52067.520222033374	2750.0	n/a	432	71	2750	99.4797779667	stim	stop-signal	610	1689541	0.0-25.10-1.10	beast_fmri_test	358	1686958,/,1687637,/,1688316,/,1688997,/	t,t,t,t	<img class = center src='/static/experiments/beast_fmri_test/images/D.png'></img>	71,89	2750.0	test	<img class = center src='/static/experiments/beast_fmri_test/images/redD.png'></img>	go	2250.0	2.0	10.0	go	target	D	71,Index Finger	89,Middle Finger	500.0	600.0	2250.0	2150.0	1.0	500.0	1.0	n/a	go_stim
54817.520222033374	99.4797779667	n/a	432	71	2750	99.4797779667	stim	stop-signal	610	1689541	0.0-25.10-1.10	beast_fmri_test	358	1686958,/,1687637,/,1688316,/,1688997,/	t,t,t,t	<img class = center src='/static/experiments/beast_fmri_test/images/D.png'></img>	71,89	2750.0	test	<img class = center src='/static/experiments/beast_fmri_test/images/redD.png'></img>	go	2250.0	2.0	10.0	go	target	D	71,Index Finger	89,Middle Finger	500.0	600.0	2250.0	2150.0	1.0	500.0	1.0	n/a	ITI
55580	500.0	n/a	-1	-1	500	0.0	fixation	poldrack-single-stim	611	1690204	0.0-25.11-0.11	beast_fmri_test	358	1689704,/	t	<div class = centerbox2><div class = fixation>+</div></div>	none	500.0	test	n/a	n/a	n/a	n/a	n/a	n/a	n/a	n/a	n/a	n/a	n/a	n/a	n/a	n/a	n/a	n/a	n/a	n/a	fixation
55507.483621837804	2750.0	n/a	782	89	2750	74.5163781621	stim	stop-signal	612	1692956	0.0-25.11-1.11	beast_fmri_test	358	1690356,/,1691035,/,1691715,/,1692395,/	t,t,t,t	<img class = center src='/static/experiments/beast_fmri_test/images/B.png'></img>	71,89	2750.0	test	<img class = center src='/static/experiments/beast_fmri_test/images/redB.png'></img>	go	2150.0	2.0	11.0	go	non-target	B	71,Index Finger	89,Middle Finger	500.0	600.0	2250.0	2150.0	1.0	600.0	1.0	n/a	go_stim
58257.483621837804	74.5163781621	n/a	782	89	2750	74.5163781621	stim	stop-signal	612	1692956	0.0-25.11-1.11	beast_fmri_test	358	1690356,/,1691035,/,1691715,/,1692395,/	t,t,t,t	<img class = center src='/static/experiments/beast_fmri_test/images/B.png'></img>	71,89	2750.0	test	<img class = center src='/static/experiments/beast_fmri_test/images/redB.png'></img>	go	2150.0	2.0	11.0	go	non-target	B	71,Index Finger	89,Middle Finger	500.0	600.0	2250.0	2150.0	1.0	600.0	1.0	n/a	ITI
58977	500.0	n/a	-1	-1	500	0.0	fixation	poldrack-single-stim	613	1693601	0.0-25.12-0.12	beast_fmri_test	358	1693099,/	t	<div class = centerbox2><div class = fixation>+</div></div>	none	500.0	test	n/a	n/a	n/a	n/a	n/a	n/a	n/a	n/a	n/a	n/a	n/a	n/a	n/a	n/a	n/a	n/a	n/a	n/a	fixation
58279.165059510386	500.0	n/a	-1	-1	2750	698.83494049	stim	stop-signal	614	1696352	0.0-25.12-1.12	beast_fmri_test	358	1693755,/,1694433,/,1695113,/,1695793,/,1696473,/	t,t,t,t,t	<img class = center src='/static/experiments/beast_fmri_test/images/D.png'></img>	71,89	2750.0	test	<img class = center src='/static/experiments/beast_fmri_test/images/redD.png'></img>	stop	2250.0	2.0	12.0	stop	target	D	71,Index Finger	89,Middle Finger	500.0	600.0	2250.0	2150.0	0.0	500.0	n/a	1.0	go_stim
60529.165059510386	2250.0	n/a	-1	-1	2750	698.83494049	stim	stop-signal	614	1696352	0.0-25.12-1.12	beast_fmri_test	358	1693755,/,1694433,/,1695113,/,1695793,/,1696473,/	t,t,t,t,t	<img class = center src='/static/experiments/beast_fmri_test/images/D.png'></img>	71,89	2750.0	test	<img class = center src='/static/experiments/beast_fmri_test/images/redD.png'></img>	stop	2250.0	2.0	12.0	stop	target	D	71,Index Finger	89,Middle Finger	500.0	600.0	2250.0	2150.0	0.0	500.0	n/a	1.0	stop_stim
61029.165059510386	698.83494049	n/a	-1	-1	2750	698.83494049	stim	stop-signal	614	1696352	0.0-25.12-1.12	beast_fmri_test	358	1693755,/,1694433,/,1695113,/,1695793,/,1696473,/	t,t,t,t,t	<img class = center src='/static/experiments/beast_fmri_test/images/D.png'></img>	71,89	2750.0	test	<img class = center src='/static/experiments/beast_fmri_test/images/redD.png'></img>	stop	2250.0	2.0	12.0	stop	target	D	71,Index Finger	89,Middle Finger	500.0	600.0	2250.0	2150.0	0.0	500.0	n/a	1.0	ITI
62994	500.0	n/a	-1	-1	500	0.0	fixation	poldrack-single-stim	615	1697618	0.0-25.13-0.13	beast_fmri_test	358	1697151,/	t	<div class = centerbox2><div class = fixation>+</div></div>	none	500.0	test	n/a	n/a	n/a	n/a	n/a	n/a	n/a	n/a	n/a	n/a	n/a	n/a	n/a	n/a	n/a	n/a	n/a	n/a	fixation
62771.048678268213	600.0	n/a	-1	-1	2750	224.951321732	stim	stop-signal	616	1700370	0.0-25.13-1.13	beast_fmri_test	358	1697833,/,1698511,/,1699192,/,1699872,/,1700550,/	t,t,t,t,t	<img class = center src='/static/experiments/beast_fmri_test/images/V.png'></img>	71,89	2750.0	test	<img class = center src='/static/experiments/beast_fmri_test/images/redV.png'></img>	stop	2150.0	2.0	13.0	stop	non-target	V	71,Index Finger	89,Middle Finger	550.0	600.0	2250.0	2150.0	0.0	600.0	n/a	1.0	go_stim
64921.048678268213	2150.0	n/a	-1	-1	2750	224.951321732	stim	stop-signal	616	1700370	0.0-25.13-1.13	beast_fmri_test	358	1697833,/,1698511,/,1699192,/,1699872,/,1700550,/	t,t,t,t,t	<img class = center src='/static/experiments/beast_fmri_test/images/V.png'></img>	71,89	2750.0	test	<img class = center src='/static/experiments/beast_fmri_test/images/redV.png'></img>	stop	2150.0	2.0	13.0	stop	non-target	V	71,Index Finger	89,Middle Finger	550.0	600.0	2250.0	2150.0	0.0	600.0	n/a	1.0	stop_stim
65521.048678268213	224.951321732	n/a	-1	-1	2750	224.951321732	stim	stop-signal	616	1700370	0.0-25.13-1.13	beast_fmri_test	358	1697833,/,1698511,/,1699192,/,1699872,/,1700550,/	t,t,t,t,t	<img class = center src='/static/experiments/beast_fmri_test/images/V.png'></img>	71,89	2750.0	test	<img class = center src='/static/experiments/beast_fmri_test/images/redV.png'></img>	stop	2150.0	2.0	13.0	stop	non-target	V	71,Index Finger	89,Middle Finger	550.0	600.0	2250.0	2150.0	0.0	600.0	n/a	1.0	ITI
66537	500.0	n/a	-1	-1	500	0.0	fixation	poldrack-single-stim	617	1701161	0.0-25.14-0.14	beast_fmri_test	358	n/a	n/a	<div class = centerbox2><div class = fixation>+</div></div>	none	500.0	test	n/a	n/a	n/a	n/a	n/a	n/a	n/a	n/a	n/a	n/a	n/a	n/a	n/a	n/a	n/a	n/a	n/a	n/a	fixation
65428.050073737977	2750.0	n/a	1096	89	2750	1110.94992626	stim	stop-signal	618	1703913	0.0-25.14-1.14	beast_fmri_test	358	1701231,/,1701909,/,1702590,/,1703270,/,1703950,/,1704629,/	t,t,t,t,t,t	<img class = center src='/static/experiments/beast_fmri_test/images/P.png'></img>	71,89	2750.0	test	<img class = center src='/static/experiments/beast_fmri_test/images/redP.png'></img>	go	2100.0	2.0	14.0	go	non-target	P	71,Index Finger	89,Middle Finger	550.0	650.0	2250.0	2100.0	1.0	650.0	1.0	n/a	go_stim
68178.050073737977	1110.94992626	n/a	1096	89	2750	1110.94992626	stim	stop-signal	618	1703913	0.0-25.14-1.14	beast_fmri_test	358	1701231,/,1701909,/,1702590,/,1703270,/,1703950,/,1704629,/	t,t,t,t,t,t	<img class = center src='/static/experiments/beast_fmri_test/images/P.png'></img>	71,89	2750.0	test	<img class = center src='/static/experiments/beast_fmri_test/images/redP.png'></img>	go	2100.0	2.0	14.0	go	non-target	P	71,Index Finger	89,Middle Finger	550.0	650.0	2250.0	2100.0	1.0	650.0	1.0	n/a	ITI
70962	500.0	n/a	-1	-1	500	0.0	fixation	poldrack-single-stim	619	1705586	0.0-25.15-0.15	beast_fmri_test	358	1705308,/	t	<div class = centerbox2><div class = fixation>+</div></div>	none	500.0	test	n/a	n/a	n/a	n/a	n/a	n/a	n/a	n/a	n/a	n/a	n/a	n/a	n/a	n/a	n/a	n/a	n/a	n/a	fixation
68939.903831816046	2750.0	n/a	634	89	2750	2024.09616818	stim	stop-signal	620	1708338	0.0-25.15-1.15	beast_fmri_test	358	1705988,/,1706668,/,1707349,/,1708028,/,1708708,/,1709386,/,1710067,/	t,t,t,t,t,t,t	<img class = center src='/static/experiments/beast_fmri_test/images/B.png'></img>	71,89	2750.0	test	<img class = center src='/static/experiments/beast_fmri_test/images/redB.png'></img>	go	2100.0	2.0	15.0	go	non-target	B	71,Index Finger	89,Middle Finger	550.0	650.0	2250.0	2100.0	1.0	650.0	1.0	n/a	go_stim
71689.903831816046	2024.09616818	n/a	634	89	2750	2024.09616818	stim	stop-signal	620	1708338	0.0-25.15-1.15	beast_fmri_test	358	1705988,/,1706668,/,1707349,/,1708028,/,1708708,/,1709386,/,1710067,/	t,t,t,t,t,t,t	<img class = center src='/static/experiments/beast_fmri_test/images/B.png'></img>	71,89	2750.0	test	<img class = center src='/static/experiments/beast_fmri_test/images/redB.png'></img>	go	2100.0	2.0	15.0	go	non-target	B	71,Index Finger	89,Middle Finger	550.0	650.0	2250.0	2100.0	1.0	650.0	1.0	n/a	ITI
76300	500.0	n/a	-1	-1	500	0.0	fixation	poldrack-single-stim	621	1710924	0.0-25.16-0.16	beast_fmri_test	358	1710747,/	t	<div class = centerbox2><div class = fixation>+</div></div>	none	500.0	test	n/a	n/a	n/a	n/a	n/a	n/a	n/a	n/a	n/a	n/a	n/a	n/a	n/a	n/a	n/a	n/a	n/a	n/a	fixation
76300.487757359864	650.0	n/a	-1	-1	2750	0.512242640241	stim	stop-signal	622	1713675	0.0-25.16-1.16	beast_fmri_test	358	1711426,/,1712105,/,1712787,/,1713464,/	t,t,t,t	<img class = center src='/static/experiments/beast_fmri_test/images/V.png'></img>	71,89	2750.0	test	<img class = center src='/static/experiments/beast_fmri_test/images/redV.png'></img>	stop	2100.0	2.0	16.0	stop	non-target	V	71,Index Finger	89,Middle Finger	550.0	650.0	2250.0	2100.0	0.0	650.0	n/a	1.0	go_stim
78400.487757359864	2100.0	n/a	-1	-1	2750	0.512242640241	stim	stop-signal	622	1713675	0.0-25.16-1.16	beast_fmri_test	358	1711426,/,1712105,/,1712787,/,1713464,/	t,t,t,t	<img class = center src='/static/experiments/beast_fmri_test/images/V.png'></img>	71,89	2750.0	test	<img class = center src='/static/experiments/beast_fmri_test/images/redV.png'></img>	stop	2100.0	2.0	16.0	stop	non-target	V	71,Index Finger	89,Middle Finger	550.0	650.0	2250.0	2100.0	0.0	650.0	n/a	1.0	stop_stim
79050.487757359864	0.512242640241	n/a	-1	-1	2750	0.512242640241	stim	stop-signal	622	1713675	0.0-25.16-1.16	beast_fmri_test	358	1711426,/,1712105,/,1712787,/,1713464,/	t,t,t,t	<img class = center src='/static/experiments/beast_fmri_test/images/V.png'></img>	71,89	2750.0	test	<img class = center src='/static/experiments/beast_fmri_test/images/redV.png'></img>	stop	2100.0	2.0	16.0	stop	non-target	V	71,Index Finger	89,Middle Finger	550.0	650.0	2250.0	2100.0	0.0	650.0	n/a	1.0	ITI
79618	500.0	n/a	-1	-1	500	0.0	fixation	poldrack-single-stim	623	1714242	0.0-25.17-0.17	beast_fmri_test	358	1714146,/	t	<div class = centerbox2><div class = fixation>+</div></div>	none	500.0	test	n/a	n/a	n/a	n/a	n/a	n/a	n/a	n/a	n/a	n/a	n/a	n/a	n/a	n/a	n/a	n/a	n/a	n/a	fixation
79213.188017688459	550.0	n/a	-1	-1	2750	405.811982311	stim	stop-signal	624	1716993	0.0-25.17-1.17	beast_fmri_test	358	1714824,/,1715504,/,1716183,/,1716864,/	t,t,t,t	<img class = center src='/static/experiments/beast_fmri_test/images/B.png'></img>	71,89	2750.0	test	<img class = center src='/static/experiments/beast_fmri_test/images/redB.png'></img>	stop	2200.0	2.0	17.0	stop	target	B	71,Index Finger	89,Middle Finger	550.0	700.0	2200.0	2100.0	0.0	550.0	n/a	1.0	go_stim
81413.188017688459	2200.0	n/a	-1	-1	2750	405.811982311	stim	stop-signal	624	1716993	0.0-25.17-1.17	beast_fmri_test	358	1714824,/,1715504,/,1716183,/,1716864,/	t,t,t,t	<img class = center src='/static/experiments/beast_fmri_test/images/B.png'></img>	71,89	2750.0	test	<img class = center src='/static/experiments/beast_fmri_test/images/redB.png'></img>	stop	2200.0	2.0	17.0	stop	target	B	71,Index Finger	89,Middle Finger	550.0	700.0	2200.0	2100.0	0.0	550.0	n/a	1.0	stop_stim
81963.188017688459	405.811982311	n/a	-1	-1	2750	405.811982311	stim	stop-signal	624	1716993	0.0-25.17-1.17	beast_fmri_test	358	1714824,/,1715504,/,1716183,/,1716864,/	t,t,t,t	<img class = center src='/static/experiments/beast_fmri_test/images/B.png'></img>	71,89	2750.0	test	<img class = center src='/static/experiments/beast_fmri_test/images/redB.png'></img>	stop	2200.0	2.0	17.0	stop	target	B	71,Index Finger	89,Middle Finger	550.0	700.0	2200.0	2100.0	0.0	550.0	n/a	1.0	ITI
83335	500.0	n/a	-1	-1	500	0.0	fixation	poldrack-single-stim	625	1717959	0.0-25.18-0.18	beast_fmri_test	358	1717544,/	t	<div class = centerbox2><div class = fixation>+</div></div>	none	500.0	test	n/a	n/a	n/a	n/a	n/a	n/a	n/a	n/a	n/a	n/a	n/a	n/a	n/a	n/a	n/a	n/a	n/a	n/a	fixation
83301.180935901357	2750.0	n/a	786	71	2750	35.8190640986	stim	stop-signal	626	1720711	0.0-25.18-1.18	beast_fmri_test	358	1718224,/,1718903,/,1719582,/,1720262,/	t,t,t,t	<img class = center src='/static/experiments/beast_fmri_test/images/V.png'></img>	71,89	2750.0	test	<img class = center src='/static/experiments/beast_fmri_test/images/redV.png'></img>	go	2150.0	2.0	18.0	go	target	V	71,Index Finger	89,Middle Finger	600.0	700.0	2150.0	2100.0	1.0	600.0	1.0	n/a	go_stim
86051.180935901357	35.8190640986	n/a	786	71	2750	35.8190640986	stim	stop-signal	626	1720711	0.0-25.18-1.18	beast_fmri_test	358	1718224,/,1718903,/,1719582,/,1720262,/	t,t,t,t	<img class = center src='/static/experiments/beast_fmri_test/images/V.png'></img>	71,89	2750.0	test	<img class = center src='/static/experiments/beast_fmri_test/images/redV.png'></img>	go	2150.0	2.0	18.0	go	target	V	71,Index Finger	89,Middle Finger	600.0	700.0	2150.0	2100.0	1.0	600.0	1.0	n/a	ITI
86679	500.0	n/a	-1	-1	500	0.0	fixation	poldrack-single-stim	627	1721303	0.0-25.19-0.19	beast_fmri_test	358	1720942,/	t	<div class = centerbox2><div class = fixation>+</div></div>	none	500.0	test	n/a	n/a	n/a	n/a	n/a	n/a	n/a	n/a	n/a	n/a	n/a	n/a	n/a	n/a	n/a	n/a	n/a	n/a	fixation
86340.468206859427	700.0	n/a	593	89	2750	340.531793141	stim	stop-signal	628	1724055	0.0-25.19-1.19	beast_fmri_test	358	1721622,/,1722300,/,1722981,/,1723660,/,1724340,/	t,t,t,t,t	<img class = center src='/static/experiments/beast_fmri_test/images/P.png'></img>	71,89	2750.0	test	<img class = center src='/static/experiments/beast_fmri_test/images/redP.png'></img>	stop	2050.0	2.0	19.0	stop	non-target	P	71,Index Finger	89,Middle Finger	600.0	700.0	2150.0	2050.0	0.0	700.0	n/a	0.0	go_stim
88390.468206859427	2050.0	n/a	593	89	2750	340.531793141	stim	stop-signal	628	1724055	0.0-25.19-1.19	beast_fmri_test	358	1721622,/,1722300,/,1722981,/,1723660,/,1724340,/	t,t,t,t,t	<img class = center src='/static/experiments/beast_fmri_test/images/P.png'></img>	71,89	2750.0	test	<img class = center src='/static/experiments/beast_fmri_test/images/redP.png'></img>	stop	2050.0	2.0	19.0	stop	non-target	P	71,Index Finger	89,Middle Finger	600.0	700.0	2150.0	2050.0	0.0	700.0	n/a	0.0	stop_stim
89090.468206859427	340.531793141	n/a	593	89	2750	340.531793141	stim	stop-signal	628	1724055	0.0-25.19-1.19	beast_fmri_test	358	1721622,/,1722300,/,1722981,/,1723660,/,1724340,/	t,t,t,t,t	<img class = center src='/static/experiments/beast_fmri_test/images/P.png'></img>	71,89	2750.0	test	<img class = center src='/static/experiments/beast_fmri_test/images/redP.png'></img>	stop	2050.0	2.0	19.0	stop	non-target	P	71,Index Finger	89,Middle Finger	600.0	700.0	2150.0	2050.0	0.0	700.0	n/a	0.0	ITI
90334	500.0	n/a	-1	-1	500	0.0	fixation	poldrack-single-stim	629	1724958	0.0-25.20-0.20	beast_fmri_test	358	n/a	n/a	<div class = centerbox2><div class = fixation>+</div></div>	none	500.0	test	n/a	n/a	n/a	n/a	n/a	n/a	n/a	n/a	n/a	n/a	n/a	n/a	n/a	n/a	n/a	n/a	n/a	n/a	fixation
89644.68599958159	650.0	n/a	-1	-1	2750	690.314000418	stim	stop-signal	630	1727709	0.0-25.20-1.20	beast_fmri_test	358	1725019,/,1725699,/,1726378,/,1727059,/,1727738,/	t,t,t,t,t	<img class = center src='/static/experiments/beast_fmri_test/images/B.png'></img>	71,89	2750.0	test	<img class = center src='/static/experiments/beast_fmri_test/images/redB.png'></img>	stop	2100.0	2.0	20.0	stop	non-target	B	71,Index Finger	89,Middle Finger	600.0	650.0	2150.0	2100.0	0.0	650.0	n/a	1.0	go_stim
91744.68599958159	2100.0	n/a	-1	-1	2750	690.314000418	stim	stop-signal	630	1727709	0.0-25.20-1.20	beast_fmri_test	358	1725019,/,1725699,/,1726378,/,1727059,/,1727738,/	t,t,t,t,t	<img class = center src='/static/experiments/beast_fmri_test/images/B.png'></img>	71,89	2750.0	test	<img class = center src='/static/experiments/beast_fmri_test/images/redB.png'></img>	stop	2100.0	2.0	20.0	stop	non-target	B	71,Index Finger	89,Middle Finger	600.0	650.0	2150.0	2100.0	0.0	650.0	n/a	1.0	stop_stim
92394.68599958159	690.314000418	n/a	-1	-1	2750	690.314000418	stim	stop-signal	630	1727709	0.0-25.20-1.20	beast_fmri_test	358	1725019,/,1725699,/,1726378,/,1727059,/,1727738,/	t,t,t,t,t	<img class = center src='/static/experiments/beast_fmri_test/images/B.png'></img>	71,89	2750.0	test	<img class = center src='/static/experiments/beast_fmri_test/images/redB.png'></img>	stop	2100.0	2.0	20.0	stop	non-target	B	71,Index Finger	89,Middle Finger	600.0	650.0	2150.0	2100.0	0.0	650.0	n/a	1.0	ITI
94338	500.0	n/a	-1	-1	500	0.0	fixation	poldrack-single-stim	631	1728962	0.0-25.21-0.21	beast_fmri_test	358	1728461,/	t	<div class = centerbox2><div class = fixation>+</div></div>	none	500.0	test	n/a	n/a	n/a	n/a	n/a	n/a	n/a	n/a	n/a	n/a	n/a	n/a	n/a	n/a	n/a	n/a	n/a	n/a	fixation
94170.430444512051	2750.0	n/a	650	89	2750	169.569555488	stim	stop-signal	632	1731714	0.0-25.21-1.21	beast_fmri_test	358	1729097,/,1729777,/,1730456,/,1731137,/,1731816,/	t,t,t,t,t	<img class = center src='/static/experiments/beast_fmri_test/images/D.png'></img>	71,89	2750.0	test	<img class = center src='/static/experiments/beast_fmri_test/images/redD.png'></img>	go	2050.0	2.0	21.0	go	non-target	D	71,Index Finger	89,Middle Finger	600.0	700.0	2150.0	2050.0	1.0	700.0	1.0	n/a	go_stim
96920.430444512051	169.569555488	n/a	650	89	2750	169.569555488	stim	stop-signal	632	1731714	0.0-25.21-1.21	beast_fmri_test	358	1729097,/,1729777,/,1730456,/,1731137,/,1731816,/	t,t,t,t,t	<img class = center src='/static/experiments/beast_fmri_test/images/D.png'></img>	71,89	2750.0	test	<img class = center src='/static/experiments/beast_fmri_test/images/redD.png'></img>	go	2050.0	2.0	21.0	go	non-target	D	71,Index Finger	89,Middle Finger	600.0	700.0	2150.0	2050.0	1.0	700.0	1.0	n/a	ITI
97822	500.0	n/a	-1	-1	500	0.0	fixation	poldrack-single-stim	633	1732446	0.0-25.22-0.22	beast_fmri_test	358	n/a	n/a	<div class = centerbox2><div class = fixation>+</div></div>	none	500.0	test	n/a	n/a	n/a	n/a	n/a	n/a	n/a	n/a	n/a	n/a	n/a	n/a	n/a	n/a	n/a	n/a	n/a	n/a	fixation
97694.868659439264	2750.0	n/a	815	71	2750	128.131340561	stim	stop-signal	634	1735197	0.0-25.22-1.22	beast_fmri_test	358	1732495,/,1733177,/,1733856,/,1734536,/,1735220,/	t,t,t,t,t	<img class = center src='/static/experiments/beast_fmri_test/images/B.png'></img>	71,89	2750.0	test	<img class = center src='/static/experiments/beast_fmri_test/images/redB.png'></img>	go	2150.0	2.0	22.0	go	target	B	71,Index Finger	89,Middle Finger	600.0	700.0	2150.0	2050.0	1.0	600.0	1.0	n/a	go_stim
100444.86865943926	128.131340561	n/a	815	71	2750	128.131340561	stim	stop-signal	634	1735197	0.0-25.22-1.22	beast_fmri_test	358	1732495,/,1733177,/,1733856,/,1734536,/,1735220,/	t,t,t,t,t	<img class = center src='/static/experiments/beast_fmri_test/images/B.png'></img>	71,89	2750.0	test	<img class = center src='/static/experiments/beast_fmri_test/images/redB.png'></img>	go	2150.0	2.0	22.0	go	target	B	71,Index Finger	89,Middle Finger	600.0	700.0	2150.0	2050.0	1.0	600.0	1.0	n/a	ITI
101267	500.0	n/a	-1	-1	500	0.0	fixation	poldrack-single-stim	635	1735891	0.0-25.23-0.23	beast_fmri_test	358	n/a	n/a	<div class = centerbox2><div class = fixation>+</div></div>	none	500.0	test	n/a	n/a	n/a	n/a	n/a	n/a	n/a	n/a	n/a	n/a	n/a	n/a	n/a	n/a	n/a	n/a	n/a	n/a	fixation
101111.2425569538	700.0	n/a	-1	-1	2750	156.757443046	stim	stop-signal	636	1738642	0.0-25.23-1.23	beast_fmri_test	358	1735895,/,1736574,/,1737255,/,1737933,/,1738614,/	t,t,t,t,t	<img class = center src='/static/experiments/beast_fmri_test/images/P.png'></img>	71,89	2750.0	test	<img class = center src='/static/experiments/beast_fmri_test/images/redP.png'></img>	stop	2050.0	2.0	23.0	stop	non-target	P	71,Index Finger	89,Middle Finger	600.0	700.0	2150.0	2050.0	0.0	700.0	n/a	1.0	go_stim
103161.2425569538	2050.0	n/a	-1	-1	2750	156.757443046	stim	stop-signal	636	1738642	0.0-25.23-1.23	beast_fmri_test	358	1735895,/,1736574,/,1737255,/,1737933,/,1738614,/	t,t,t,t,t	<img class = center src='/static/experiments/beast_fmri_test/images/P.png'></img>	71,89	2750.0	test	<img class = center src='/static/experiments/beast_fmri_test/images/redP.png'></img>	stop	2050.0	2.0	23.0	stop	non-target	P	71,Index Finger	89,Middle Finger	600.0	700.0	2150.0	2050.0	0.0	700.0	n/a	1.0	stop_stim
103861.2425569538	156.757443046	n/a	-1	-1	2750	156.757443046	stim	stop-signal	636	1738642	0.0-25.23-1.23	beast_fmri_test	358	1735895,/,1736574,/,1737255,/,1737933,/,1738614,/	t,t,t,t,t	<img class = center src='/static/experiments/beast_fmri_test/images/P.png'></img>	71,89	2750.0	test	<img class = center src='/static/experiments/beast_fmri_test/images/redP.png'></img>	stop	2050.0	2.0	23.0	stop	non-target	P	71,Index Finger	89,Middle Finger	600.0	700.0	2150.0	2050.0	0.0	700.0	n/a	1.0	ITI
104736	500.0	n/a	-1	-1	500	0.0	fixation	poldrack-single-stim	637	1739360	0.0-25.24-0.24	beast_fmri_test	358	1739294,/	t	<div class = centerbox2><div class = fixation>+</div></div>	none	500.0	test	n/a	n/a	n/a	n/a	n/a	n/a	n/a	n/a	n/a	n/a	n/a	n/a	n/a	n/a	n/a	n/a	n/a	n/a	fixation
102724.08821023628	2750.0	n/a	1022	71	2750	2012.91178976	stim	stop-signal	638	1742111	0.0-25.24-1.24	beast_fmri_test	358	1739972,/,1740653,/,1741332,/,1742012,/,1742691,/,1743372,/,1744050,/	t,t,t,t,t,t,t	<img class = center src='/static/experiments/beast_fmri_test/images/B.png'></img>	71,89	2750.0	test	<img class = center src='/static/experiments/beast_fmri_test/images/redB.png'></img>	go	2150.0	2.0	24.0	go	target	B	71,Index Finger	89,Middle Finger	600.0	750.0	2150.0	2050.0	1.0	600.0	1.0	n/a	go_stim
105474.08821023628	2012.91178976	n/a	1022	71	2750	2012.91178976	stim	stop-signal	638	1742111	0.0-25.24-1.24	beast_fmri_test	358	1739972,/,1740653,/,1741332,/,1742012,/,1742691,/,1743372,/,1744050,/	t,t,t,t,t,t,t	<img class = center src='/static/experiments/beast_fmri_test/images/B.png'></img>	71,89	2750.0	test	<img class = center src='/static/experiments/beast_fmri_test/images/redB.png'></img>	go	2150.0	2.0	24.0	go	target	B	71,Index Finger	89,Middle Finger	600.0	750.0	2150.0	2050.0	1.0	600.0	1.0	n/a	ITI
110057	500.0	n/a	-1	-1	500	0.0	fixation	poldrack-single-stim	639	1744681	0.0-25.25-0.25	beast_fmri_test	358	n/a	n/a	<div class = centerbox2><div class = fixation>+</div></div>	none	500.0	test	n/a	n/a	n/a	n/a	n/a	n/a	n/a	n/a	n/a	n/a	n/a	n/a	n/a	n/a	n/a	n/a	n/a	n/a	fixation
109924.03715226543	2750.0	n/a	1326	71	2750	132.962847735	stim	stop-signal	640	1747431	0.0-25.25-1.25	beast_fmri_test	358	1744730,/,1745410,/,1746090,/,1746770,/,1747448,/	t,t,t,t,t	<img class = center src='/static/experiments/beast_fmri_test/images/P.png'></img>	71,89	2750.0	test	<img class = center src='/static/experiments/beast_fmri_test/images/redP.png'></img>	go	2150.0	2.0	25.0	go	target	P	71,Index Finger	89,Middle Finger	600.0	750.0	2150.0	2050.0	1.0	600.0	1.0	n/a	go_stim
112674.03715226543	132.962847735	n/a	1326	71	2750	132.962847735	stim	stop-signal	640	1747431	0.0-25.25-1.25	beast_fmri_test	358	1744730,/,1745410,/,1746090,/,1746770,/,1747448,/	t,t,t,t,t	<img class = center src='/static/experiments/beast_fmri_test/images/P.png'></img>	71,89	2750.0	test	<img class = center src='/static/experiments/beast_fmri_test/images/redP.png'></img>	go	2150.0	2.0	25.0	go	target	P	71,Index Finger	89,Middle Finger	600.0	750.0	2150.0	2050.0	1.0	600.0	1.0	n/a	ITI
113503	500.0	n/a	-1	-1	500	0.0	fixation	poldrack-single-stim	641	1748127	0.0-25.26-0.26	beast_fmri_test	358	n/a	n/a	<div class = centerbox2><div class = fixation>+</div></div>	none	500.0	test	n/a	n/a	n/a	n/a	n/a	n/a	n/a	n/a	n/a	n/a	n/a	n/a	n/a	n/a	n/a	n/a	n/a	n/a	fixation
111451.75943891588	750.0	n/a	-1	-1	2750	2053.24056108	stim	stop-signal	642	1750879	0.0-25.26-1.26	beast_fmri_test	358	1748130,/,1748809,/,1749489,/,1750168,/,1750849,/,1751527,/,1752207,/,1752886,/	t,t,t,t,t,t,t,t	<img class = center src='/static/experiments/beast_fmri_test/images/V.png'></img>	71,89	2750.0	test	<img class = center src='/static/experiments/beast_fmri_test/images/redV.png'></img>	stop	2000.0	2.0	26.0	stop	non-target	V	71,Index Finger	89,Middle Finger	600.0	750.0	2150.0	2000.0	0.0	750.0	n/a	1.0	go_stim
113451.75943891588	2000.0	n/a	-1	-1	2750	2053.24056108	stim	stop-signal	642	1750879	0.0-25.26-1.26	beast_fmri_test	358	1748130,/,1748809,/,1749489,/,1750168,/,1750849,/,1751527,/,1752207,/,1752886,/	t,t,t,t,t,t,t,t	<img class = center src='/static/experiments/beast_fmri_test/images/V.png'></img>	71,89	2750.0	test	<img class = center src='/static/experiments/beast_fmri_test/images/redV.png'></img>	stop	2000.0	2.0	26.0	stop	non-target	V	71,Index Finger	89,Middle Finger	600.0	750.0	2150.0	2000.0	0.0	750.0	n/a	1.0	stop_stim
114201.75943891588	2053.24056108	n/a	-1	-1	2750	2053.24056108	stim	stop-signal	642	1750879	0.0-25.26-1.26	beast_fmri_test	358	1748130,/,1748809,/,1749489,/,1750168,/,1750849,/,1751527,/,1752207,/,1752886,/	t,t,t,t,t,t,t,t	<img class = center src='/static/experiments/beast_fmri_test/images/V.png'></img>	71,89	2750.0	test	<img class = center src='/static/experiments/beast_fmri_test/images/redV.png'></img>	stop	2000.0	2.0	26.0	stop	non-target	V	71,Index Finger	89,Middle Finger	600.0	750.0	2150.0	2000.0	0.0	750.0	n/a	1.0	ITI
118877	500.0	n/a	-1	-1	500	0.0	fixation	poldrack-single-stim	643	1753501	0.0-25.27-0.27	beast_fmri_test	358	n/a	n/a	<div class = centerbox2><div class = fixation>+</div></div>	none	500.0	test	n/a	n/a	n/a	n/a	n/a	n/a	n/a	n/a	n/a	n/a	n/a	n/a	n/a	n/a	n/a	n/a	n/a	n/a	fixation
117368.01507627009	2750.0	n/a	1447	89	2750	1510.98492373	stim	stop-signal	644	1756253	0.0-25.27-1.27	beast_fmri_test	358	1753568,/,1754247,/,1754926,/,1755606,/,1756284,/,1756964,/,1757644,/	t,t,t,t,t,t,t	<img class = center src='/static/experiments/beast_fmri_test/images/D.png'></img>	71,89	2750.0	test	<img class = center src='/static/experiments/beast_fmri_test/images/redD.png'></img>	go	1950.0	2.0	27.0	go	non-target	D	71,Index Finger	89,Middle Finger	600.0	800.0	2150.0	1950.0	1.0	800.0	1.0	n/a	go_stim
120118.01507627009	1510.98492373	n/a	1447	89	2750	1510.98492373	stim	stop-signal	644	1756253	0.0-25.27-1.27	beast_fmri_test	358	1753568,/,1754247,/,1754926,/,1755606,/,1756284,/,1756964,/,1757644,/	t,t,t,t,t,t,t	<img class = center src='/static/experiments/beast_fmri_test/images/D.png'></img>	71,89	2750.0	test	<img class = center src='/static/experiments/beast_fmri_test/images/redD.png'></img>	go	1950.0	2.0	27.0	go	non-target	D	71,Index Finger	89,Middle Finger	600.0	800.0	2150.0	1950.0	1.0	800.0	1.0	n/a	ITI
123712	500.0	n/a	-1	-1	500	0.0	fixation	poldrack-single-stim	645	1758336	0.0-25.28-0.28	beast_fmri_test	358	1758324,/	t	<div class = centerbox2><div class = fixation>+</div></div>	none	500.0	test	n/a	n/a	n/a	n/a	n/a	n/a	n/a	n/a	n/a	n/a	n/a	n/a	n/a	n/a	n/a	n/a	n/a	n/a	fixation
123196.32997232792	2750.0	n/a	1569	89	2750	517.670027672	stim	stop-signal	646	1761088	0.0-25.28-1.28	beast_fmri_test	358	1759002,/,1759684,/,1760363,/,1761043,/	t,t,t,t	<img class = center src='/static/experiments/beast_fmri_test/images/D.png'></img>	71,89	2750.0	test	<img class = center src='/static/experiments/beast_fmri_test/images/redD.png'></img>	go	1950.0	2.0	28.0	go	non-target	D	71,Index Finger	89,Middle Finger	600.0	800.0	2150.0	1950.0	1.0	800.0	1.0	n/a	go_stim
125946.32997232792	517.670027672	n/a	1569	89	2750	517.670027672	stim	stop-signal	646	1761088	0.0-25.28-1.28	beast_fmri_test	358	1759002,/,1759684,/,1760363,/,1761043,/	t,t,t,t	<img class = center src='/static/experiments/beast_fmri_test/images/D.png'></img>	71,89	2750.0	test	<img class = center src='/static/experiments/beast_fmri_test/images/redD.png'></img>	go	1950.0	2.0	28.0	go	non-target	D	71,Index Finger	89,Middle Finger	600.0	800.0	2150.0	1950.0	1.0	800.0	1.0	n/a	ITI
127553	500.0	n/a	-1	-1	500	0.0	fixation	poldrack-single-stim	647	1762177	0.0-25.29-0.29	beast_fmri_test	358	1761722,/	t	<div class = centerbox2><div class = fixation>+</div></div>	none	500.0	test	n/a	n/a	n/a	n/a	n/a	n/a	n/a	n/a	n/a	n/a	n/a	n/a	n/a	n/a	n/a	n/a	n/a	n/a	fixation
127308.91878286423	800.0	n/a	-1	-1	2750	247.081217136	stim	stop-signal	648	1764930	0.0-25.29-1.29	beast_fmri_test	358	1762403,/,1763082,/,1763763,/,1764443,/,1765121,/	t,t,t,t,t	<img class = center src='/static/experiments/beast_fmri_test/images/V.png'></img>	71,89	2750.0	test	<img class = center src='/static/experiments/beast_fmri_test/images/redV.png'></img>	stop	1950.0	2.0	29.0	stop	non-target	V	71,Index Finger	89,Middle Finger	600.0	800.0	2150.0	1950.0	0.0	800.0	n/a	1.0	go_stim
129258.91878286423	1950.0	n/a	-1	-1	2750	247.081217136	stim	stop-signal	648	1764930	0.0-25.29-1.29	beast_fmri_test	358	1762403,/,1763082,/,1763763,/,1764443,/,1765121,/	t,t,t,t,t	<img class = center src='/static/experiments/beast_fmri_test/images/V.png'></img>	71,89	2750.0	test	<img class = center src='/static/experiments/beast_fmri_test/images/redV.png'></img>	stop	1950.0	2.0	29.0	stop	non-target	V	71,Index Finger	89,Middle Finger	600.0	800.0	2150.0	1950.0	0.0	800.0	n/a	1.0	stop_stim
130058.91878286423	247.081217136	n/a	-1	-1	2750	247.081217136	stim	stop-signal	648	1764930	0.0-25.29-1.29	beast_fmri_test	358	1762403,/,1763082,/,1763763,/,1764443,/,1765121,/	t,t,t,t,t	<img class = center src='/static/experiments/beast_fmri_test/images/V.png'></img>	71,89	2750.0	test	<img class = center src='/static/experiments/beast_fmri_test/images/redV.png'></img>	stop	1950.0	2.0	29.0	stop	non-target	V	71,Index Finger	89,Middle Finger	600.0	800.0	2150.0	1950.0	0.0	800.0	n/a	1.0	ITI
131117	500.0	n/a	-1	-1	500	0.0	fixation	poldrack-single-stim	649	1765741	0.0-25.30-0.30	beast_fmri_test	358	n/a	n/a	<div class = centerbox2><div class = fixation>+</div></div>	none	500.0	test	n/a	n/a	n/a	n/a	n/a	n/a	n/a	n/a	n/a	n/a	n/a	n/a	n/a	n/a	n/a	n/a	n/a	n/a	fixation
130552.04874484404	2750.0	n/a	1173	89	2750	565.951255156	stim	stop-signal	650	1768492	0.0-25.30-1.30	beast_fmri_test	358	1765802,/,1766480,/,1767160,/,1767841,/,1768519,/	t,t,t,t,t	<img class = center src='/static/experiments/beast_fmri_test/images/T.png'></img>	71,89	2750.0	test	<img class = center src='/static/experiments/beast_fmri_test/images/redT.png'></img>	go	1900.0	2.0	30.0	go	non-target	T	71,Index Finger	89,Middle Finger	600.0	850.0	2150.0	1900.0	1.0	850.0	1.0	n/a	go_stim
133302.04874484404	565.951255156	n/a	1173	89	2750	565.951255156	stim	stop-signal	650	1768492	0.0-25.30-1.30	beast_fmri_test	358	1765802,/,1766480,/,1767160,/,1767841,/,1768519,/	t,t,t,t,t	<img class = center src='/static/experiments/beast_fmri_test/images/T.png'></img>	71,89	2750.0	test	<img class = center src='/static/experiments/beast_fmri_test/images/redT.png'></img>	go	1900.0	2.0	30.0	go	non-target	T	71,Index Finger	89,Middle Finger	600.0	850.0	2150.0	1900.0	1.0	850.0	1.0	n/a	ITI
135000	500.0	n/a	-1	-1	500	0.0	fixation	poldrack-single-stim	651	1769624	0.0-25.31-0.31	beast_fmri_test	358	1769199,/	t	<div class = centerbox2><div class = fixation>+</div></div>	none	500.0	test	n/a	n/a	n/a	n/a	n/a	n/a	n/a	n/a	n/a	n/a	n/a	n/a	n/a	n/a	n/a	n/a	n/a	n/a	fixation
134800.90223513497	2750.0	n/a	1022	89	2750	200.097764865	stim	stop-signal	652	1772375	0.0-25.31-1.31	beast_fmri_test	358	1769880,/,1770558,/,1771239,/,1771917,/	t,t,t,t	<img class = center src='/static/experiments/beast_fmri_test/images/P.png'></img>	71,89	2750.0	test	<img class = center src='/static/experiments/beast_fmri_test/images/redP.png'></img>	go	1900.0	2.0	31.0	go	non-target	P	71,Index Finger	89,Middle Finger	600.0	850.0	2150.0	1900.0	1.0	850.0	1.0	n/a	go_stim
137550.90223513497	200.097764865	n/a	1022	89	2750	200.097764865	stim	stop-signal	652	1772375	0.0-25.31-1.31	beast_fmri_test	358	1769880,/,1770558,/,1771239,/,1771917,/	t,t,t,t	<img class = center src='/static/experiments/beast_fmri_test/images/P.png'></img>	71,89	2750.0	test	<img class = center src='/static/experiments/beast_fmri_test/images/redP.png'></img>	go	1900.0	2.0	31.0	go	non-target	P	71,Index Finger	89,Middle Finger	600.0	850.0	2150.0	1900.0	1.0	850.0	1.0	n/a	ITI
138526	500.0	n/a	-1	-1	500	0.0	fixation	poldrack-single-stim	653	1773150	0.0-25.32-0.32	beast_fmri_test	358	1772649,/	t	<div class = centerbox2><div class = fixation>+</div></div>	none	500.0	test	n/a	n/a	n/a	n/a	n/a	n/a	n/a	n/a	n/a	n/a	n/a	n/a	n/a	n/a	n/a	n/a	n/a	n/a	fixation
137766.76509083388	2750.0	n/a	952	89	2750	761.234909166	stim	stop-signal	654	1775902	0.0-25.32-1.32	beast_fmri_test	358	1773277,/,1773958,/,1774636,/,1775317,/,1775996,/	t,t,t,t,t	<img class = center src='/static/experiments/beast_fmri_test/images/T.png'></img>	71,89	2750.0	test	<img class = center src='/static/experiments/beast_fmri_test/images/redT.png'></img>	go	2150.0	2.0	32.0	go	target	T	71,Index Finger	89,Middle Finger	600.0	850.0	2150.0	1900.0	0.0	600.0	0.0	n/a	go_stim
140516.76509083388	761.234909166	n/a	952	89	2750	761.234909166	stim	stop-signal	654	1775902	0.0-25.32-1.32	beast_fmri_test	358	1773277,/,1773958,/,1774636,/,1775317,/,1775996,/	t,t,t,t,t	<img class = center src='/static/experiments/beast_fmri_test/images/T.png'></img>	71,89	2750.0	test	<img class = center src='/static/experiments/beast_fmri_test/images/redT.png'></img>	go	2150.0	2.0	32.0	go	target	T	71,Index Finger	89,Middle Finger	600.0	850.0	2150.0	1900.0	0.0	600.0	0.0	n/a	ITI
142607	500.0	n/a	-1	-1	500	0.0	fixation	poldrack-single-stim	655	1777231	0.0-25.33-0.33	beast_fmri_test	358	1776730,/	t	<div class = centerbox2><div class = fixation>+</div></div>	none	500.0	test	n/a	n/a	n/a	n/a	n/a	n/a	n/a	n/a	n/a	n/a	n/a	n/a	n/a	n/a	n/a	n/a	n/a	n/a	fixation
142027.56828949624	2750.0	n/a	692	89	2750	581.431710504	stim	stop-signal	656	1779983	0.0-25.33-1.33	beast_fmri_test	358	1777355,/,1778034,/,1778715,/,1779395,/,1780074,/	t,t,t,t,t	<img class = center src='/static/experiments/beast_fmri_test/images/T.png'></img>	71,89	2750.0	test	<img class = center src='/static/experiments/beast_fmri_test/images/redT.png'></img>	go	1900.0	2.0	33.0	go	non-target	T	71,Index Finger	89,Middle Finger	600.0	850.0	2150.0	1900.0	1.0	850.0	1.0	n/a	go_stim
144777.56828949624	581.431710504	n/a	692	89	2750	581.431710504	stim	stop-signal	656	1779983	0.0-25.33-1.33	beast_fmri_test	358	1777355,/,1778034,/,1778715,/,1779395,/,1780074,/	t,t,t,t,t	<img class = center src='/static/experiments/beast_fmri_test/images/T.png'></img>	71,89	2750.0	test	<img class = center src='/static/experiments/beast_fmri_test/images/redT.png'></img>	go	1900.0	2.0	33.0	go	non-target	T	71,Index Finger	89,Middle Finger	600.0	850.0	2150.0	1900.0	1.0	850.0	1.0	n/a	ITI
146511	500.0	n/a	-1	-1	500	0.0	fixation	poldrack-single-stim	657	1781135	0.0-25.34-0.34	beast_fmri_test	358	1780753,/	t	<div class = centerbox2><div class = fixation>+</div></div>	none	500.0	test	n/a	n/a	n/a	n/a	n/a	n/a	n/a	n/a	n/a	n/a	n/a	n/a	n/a	n/a	n/a	n/a	n/a	n/a	fixation
146444.90262337145	2750.0	n/a	727	89	2750	67.0973766284	stim	stop-signal	658	1783886	0.0-25.34-1.34	beast_fmri_test	358	1781434,/,1782112,/,1782793,/,1783472,/	t,t,t,t	<img class = center src='/static/experiments/beast_fmri_test/images/B.png'></img>	71,89	2750.0	test	<img class = center src='/static/experiments/beast_fmri_test/images/redB.png'></img>	go	1900.0	2.0	34.0	go	non-target	B	71,Index Finger	89,Middle Finger	600.0	850.0	2150.0	1900.0	1.0	850.0	1.0	n/a	go_stim
149194.90262337145	67.0973766284	n/a	727	89	2750	67.0973766284	stim	stop-signal	658	1783886	0.0-25.34-1.34	beast_fmri_test	358	1781434,/,1782112,/,1782793,/,1783472,/	t,t,t,t	<img class = center src='/static/experiments/beast_fmri_test/images/B.png'></img>	71,89	2750.0	test	<img class = center src='/static/experiments/beast_fmri_test/images/redB.png'></img>	go	1900.0	2.0	34.0	go	non-target	B	71,Index Finger	89,Middle Finger	600.0	850.0	2150.0	1900.0	1.0	850.0	1.0	n/a	ITI
149906	500.0	n/a	-1	-1	500	0.0	fixation	poldrack-single-stim	659	1784530	0.0-25.35-0.35	beast_fmri_test	358	1784153,/	t	<div class = centerbox2><div class = fixation>+</div></div>	none	500.0	test	n/a	n/a	n/a	n/a	n/a	n/a	n/a	n/a	n/a	n/a	n/a	n/a	n/a	n/a	n/a	n/a	n/a	n/a	fixation
149482.41342019197	850.0	n/a	689	89	2750	424.586579808	stim	stop-signal	660	1787281	0.0-25.35-1.35	beast_fmri_test	358	1784832,/,1785510,/,1786191,/,1786870,/,1787551,/	t,t,t,t,t	<img class = center src='/static/experiments/beast_fmri_test/images/P.png'></img>	71,89	2750.0	test	<img class = center src='/static/experiments/beast_fmri_test/images/redP.png'></img>	stop	1900.0	2.0	35.0	stop	non-target	P	71,Index Finger	89,Middle Finger	600.0	850.0	2150.0	1900.0	0.0	850.0	n/a	0.0	go_stim
151382.41342019197	1900.0	n/a	689	89	2750	424.586579808	stim	stop-signal	660	1787281	0.0-25.35-1.35	beast_fmri_test	358	1784832,/,1785510,/,1786191,/,1786870,/,1787551,/	t,t,t,t,t	<img class = center src='/static/experiments/beast_fmri_test/images/P.png'></img>	71,89	2750.0	test	<img class = center src='/static/experiments/beast_fmri_test/images/redP.png'></img>	stop	1900.0	2.0	35.0	stop	non-target	P	71,Index Finger	89,Middle Finger	600.0	850.0	2150.0	1900.0	0.0	850.0	n/a	0.0	stop_stim
152232.41342019197	424.586579808	n/a	689	89	2750	424.586579808	stim	stop-signal	660	1787281	0.0-25.35-1.35	beast_fmri_test	358	1784832,/,1785510,/,1786191,/,1786870,/,1787551,/	t,t,t,t,t	<img class = center src='/static/experiments/beast_fmri_test/images/P.png'></img>	71,89	2750.0	test	<img class = center src='/static/experiments/beast_fmri_test/images/redP.png'></img>	stop	1900.0	2.0	35.0	stop	non-target	P	71,Index Finger	89,Middle Finger	600.0	850.0	2150.0	1900.0	0.0	850.0	n/a	0.0	ITI
153653	500.0	n/a	-1	-1	500	0.0	fixation	poldrack-single-stim	661	1788277	0.0-25.36-0.36	beast_fmri_test	358	1788231,/	t	<div class = centerbox2><div class = fixation>+</div></div>	none	500.0	test	n/a	n/a	n/a	n/a	n/a	n/a	n/a	n/a	n/a	n/a	n/a	n/a	n/a	n/a	n/a	n/a	n/a	n/a	fixation
153024.16758881067	600.0	n/a	731	89	2750	629.832411189	stim	stop-signal	662	1791028	0.0-25.36-1.36	beast_fmri_test	358	1788910,/,1789590,/,1790270,/,1790949,/,1791630,/	t,t,t,t,t	<img class = center src='/static/experiments/beast_fmri_test/images/B.png'></img>	71,89	2750.0	test	<img class = center src='/static/experiments/beast_fmri_test/images/redB.png'></img>	stop	2150.0	2.0	36.0	stop	target	B	71,Index Finger	89,Middle Finger	600.0	800.0	2150.0	1900.0	0.0	600.0	n/a	0.0	go_stim
155174.16758881067	2150.0	n/a	731	89	2750	629.832411189	stim	stop-signal	662	1791028	0.0-25.36-1.36	beast_fmri_test	358	1788910,/,1789590,/,1790270,/,1790949,/,1791630,/	t,t,t,t,t	<img class = center src='/static/experiments/beast_fmri_test/images/B.png'></img>	71,89	2750.0	test	<img class = center src='/static/experiments/beast_fmri_test/images/redB.png'></img>	stop	2150.0	2.0	36.0	stop	target	B	71,Index Finger	89,Middle Finger	600.0	800.0	2150.0	1900.0	0.0	600.0	n/a	0.0	stop_stim
155774.16758881067	629.832411189	n/a	731	89	2750	629.832411189	stim	stop-signal	662	1791028	0.0-25.36-1.36	beast_fmri_test	358	1788910,/,1789590,/,1790270,/,1790949,/,1791630,/	t,t,t,t,t	<img class = center src='/static/experiments/beast_fmri_test/images/B.png'></img>	71,89	2750.0	test	<img class = center src='/static/experiments/beast_fmri_test/images/redB.png'></img>	stop	2150.0	2.0	36.0	stop	target	B	71,Index Finger	89,Middle Finger	600.0	800.0	2150.0	1900.0	0.0	600.0	n/a	0.0	ITI
157599	500.0	n/a	-1	-1	500	0.0	fixation	poldrack-single-stim	663	1792223	0.0-25.37-0.37	beast_fmri_test	358	n/a	n/a	<div class = centerbox2><div class = fixation>+</div></div>	none	500.0	test	n/a	n/a	n/a	n/a	n/a	n/a	n/a	n/a	n/a	n/a	n/a	n/a	n/a	n/a	n/a	n/a	n/a	n/a	fixation
155641.02712844848	2750.0	n/a	1567	89	2750	1958.97287155	stim	stop-signal	664	1794974	0.0-25.37-1.37	beast_fmri_test	358	1792309,/,1792989,/,1793668,/,1794348,/,1795027,/,1795707,/,1796387,/	t,t,t,t,t,t,t	<img class = center src='/static/experiments/beast_fmri_test/images/V.png'></img>	71,89	2750.0	test	<img class = center src='/static/experiments/beast_fmri_test/images/redV.png'></img>	go	1950.0	2.0	37.0	go	non-target	V	71,Index Finger	89,Middle Finger	550.0	800.0	2150.0	1950.0	1.0	800.0	1.0	n/a	go_stim
158391.02712844848	1958.97287155	n/a	1567	89	2750	1958.97287155	stim	stop-signal	664	1794974	0.0-25.37-1.37	beast_fmri_test	358	1792309,/,1792989,/,1793668,/,1794348,/,1795027,/,1795707,/,1796387,/	t,t,t,t,t,t,t	<img class = center src='/static/experiments/beast_fmri_test/images/V.png'></img>	71,89	2750.0	test	<img class = center src='/static/experiments/beast_fmri_test/images/redV.png'></img>	go	1950.0	2.0	37.0	go	non-target	V	71,Index Finger	89,Middle Finger	550.0	800.0	2150.0	1950.0	1.0	800.0	1.0	n/a	ITI
162872	500.0	n/a	-1	-1	500	0.0	fixation	poldrack-single-stim	665	1797496	0.0-25.38-0.38	beast_fmri_test	358	1797068,/	t	<div class = centerbox2><div class = fixation>+</div></div>	none	500.0	test	n/a	n/a	n/a	n/a	n/a	n/a	n/a	n/a	n/a	n/a	n/a	n/a	n/a	n/a	n/a	n/a	n/a	n/a	fixation
162658.99587453902	800.0	n/a	-1	-1	2750	214.004125461	stim	stop-signal	666	1800247	0.0-25.38-1.38	beast_fmri_test	358	1797748,/,1798426,/,1799106,/,1799785,/	t,t,t,t	<img class = center src='/static/experiments/beast_fmri_test/images/V.png'></img>	71,89	2750.0	test	<img class = center src='/static/experiments/beast_fmri_test/images/redV.png'></img>	stop	1950.0	2.0	38.0	stop	non-target	V	71,Index Finger	89,Middle Finger	550.0	800.0	2150.0	1950.0	0.0	800.0	n/a	1.0	go_stim
164608.99587453902	1950.0	n/a	-1	-1	2750	214.004125461	stim	stop-signal	666	1800247	0.0-25.38-1.38	beast_fmri_test	358	1797748,/,1798426,/,1799106,/,1799785,/	t,t,t,t	<img class = center src='/static/experiments/beast_fmri_test/images/V.png'></img>	71,89	2750.0	test	<img class = center src='/static/experiments/beast_fmri_test/images/redV.png'></img>	stop	1950.0	2.0	38.0	stop	non-target	V	71,Index Finger	89,Middle Finger	550.0	800.0	2150.0	1950.0	0.0	800.0	n/a	1.0	stop_stim
165408.99587453902	214.004125461	n/a	-1	-1	2750	214.004125461	stim	stop-signal	666	1800247	0.0-25.38-1.38	beast_fmri_test	358	1797748,/,1798426,/,1799106,/,1799785,/	t,t,t,t	<img class = center src='/static/experiments/beast_fmri_test/images/V.png'></img>	71,89	2750.0	test	<img class = center src='/static/experiments/beast_fmri_test/images/redV.png'></img>	stop	1950.0	2.0	38.0	stop	non-target	V	71,Index Finger	89,Middle Finger	550.0	800.0	2150.0	1950.0	0.0	800.0	n/a	1.0	ITI
166400	500.0	n/a	-1	-1	500	0.0	fixation	poldrack-single-stim	667	1801024	0.0-25.39-0.39	beast_fmri_test	358	1800522,/	t	<div class = centerbox2><div class = fixation>+</div></div>	none	500.0	test	n/a	n/a	n/a	n/a	n/a	n/a	n/a	n/a	n/a	n/a	n/a	n/a	n/a	n/a	n/a	n/a	n/a	n/a	fixation
164770.29183814605	2750.0	n/a	1496	89	2750	1631.70816185	stim	stop-signal	668	1803776	0.0-25.39-1.39	beast_fmri_test	358	1801144,/,1801825,/,1802504,/,1803184,/,1803862,/,1804543,/,1805222,/	t,t,t,t,t,t,t	<img class = center src='/static/experiments/beast_fmri_test/images/B.png'></img>	71,89	2750.0	test	<img class = center src='/static/experiments/beast_fmri_test/images/redB.png'></img>	go	1900.0	2.0	39.0	go	non-target	B	71,Index Finger	89,Middle Finger	550.0	850.0	2150.0	1900.0	1.0	850.0	1.0	n/a	go_stim
167520.29183814605	1631.70816185	n/a	1496	89	2750	1631.70816185	stim	stop-signal	668	1803776	0.0-25.39-1.39	beast_fmri_test	358	1801144,/,1801825,/,1802504,/,1803184,/,1803862,/,1804543,/,1805222,/	t,t,t,t,t,t,t	<img class = center src='/static/experiments/beast_fmri_test/images/B.png'></img>	71,89	2750.0	test	<img class = center src='/static/experiments/beast_fmri_test/images/redB.png'></img>	go	1900.0	2.0	39.0	go	non-target	B	71,Index Finger	89,Middle Finger	550.0	850.0	2150.0	1900.0	1.0	850.0	1.0	n/a	ITI
171345	500.0	n/a	-1	-1	500	0.0	fixation	poldrack-single-stim	669	1805969	0.0-25.40-0.40	beast_fmri_test	358	1805903,/	t	<div class = centerbox2><div class = fixation>+</div></div>	none	500.0	test	n/a	n/a	n/a	n/a	n/a	n/a	n/a	n/a	n/a	n/a	n/a	n/a	n/a	n/a	n/a	n/a	n/a	n/a	fixation
170753.24450120679	2750.0	n/a	633	89	2750	593.755498793	stim	stop-signal	670	1808721	0.0-25.40-1.40	beast_fmri_test	358	1806583,/,1807261,/,1807941,/,1808621,/,1809301,/	t,t,t,t,t	<img class = center src='/static/experiments/beast_fmri_test/images/V.png'></img>	71,89	2750.0	test	<img class = center src='/static/experiments/beast_fmri_test/images/redV.png'></img>	go	2200.0	2.0	40.0	go	target	V	71,Index Finger	89,Middle Finger	550.0	850.0	2200.0	1900.0	0.0	550.0	0.0	n/a	go_stim
173503.24450120679	593.755498793	n/a	633	89	2750	593.755498793	stim	stop-signal	670	1808721	0.0-25.40-1.40	beast_fmri_test	358	1806583,/,1807261,/,1807941,/,1808621,/,1809301,/	t,t,t,t,t	<img class = center src='/static/experiments/beast_fmri_test/images/V.png'></img>	71,89	2750.0	test	<img class = center src='/static/experiments/beast_fmri_test/images/redV.png'></img>	go	2200.0	2.0	40.0	go	target	V	71,Index Finger	89,Middle Finger	550.0	850.0	2200.0	1900.0	0.0	550.0	0.0	n/a	ITI
175255	500.0	n/a	-1	-1	500	0.0	fixation	poldrack-single-stim	671	1809879	0.0-25.41-0.41	beast_fmri_test	358	n/a	n/a	<div class = centerbox2><div class = fixation>+</div></div>	none	500.0	test	n/a	n/a	n/a	n/a	n/a	n/a	n/a	n/a	n/a	n/a	n/a	n/a	n/a	n/a	n/a	n/a	n/a	n/a	fixation
172278.65276036924	2750.0	n/a	1288	89	2750	2978.34723963	stim	stop-signal	672	1812631	0.0-25.41-1.41	beast_fmri_test	358	1809980,/,1810661,/,1811338,/,1812020,/,1812698,/,1813379,/,1814057,/,1814738,/,1815417,/	t,t,t,t,t,t,t,t,t	<img class = center src='/static/experiments/beast_fmri_test/images/B.png'></img>	71,89	2750.0	test	<img class = center src='/static/experiments/beast_fmri_test/images/redB.png'></img>	go	2200.0	2.0	41.0	go	target	B	71,Index Finger	89,Middle Finger	550.0	850.0	2200.0	1900.0	0.0	550.0	0.0	n/a	go_stim
175028.65276036924	2978.34723963	n/a	1288	89	2750	2978.34723963	stim	stop-signal	672	1812631	0.0-25.41-1.41	beast_fmri_test	358	1809980,/,1810661,/,1811338,/,1812020,/,1812698,/,1813379,/,1814057,/,1814738,/,1815417,/	t,t,t,t,t,t,t,t,t	<img class = center src='/static/experiments/beast_fmri_test/images/B.png'></img>	71,89	2750.0	test	<img class = center src='/static/experiments/beast_fmri_test/images/redB.png'></img>	go	2200.0	2.0	41.0	go	target	B	71,Index Finger	89,Middle Finger	550.0	850.0	2200.0	1900.0	0.0	550.0	0.0	n/a	ITI
181547	500.0	n/a	-1	-1	500	0.0	fixation	poldrack-single-stim	673	1816171	0.0-25.42-0.42	beast_fmri_test	358	1816098,/	t	<div class = centerbox2><div class = fixation>+</div></div>	none	500.0	test	n/a	n/a	n/a	n/a	n/a	n/a	n/a	n/a	n/a	n/a	n/a	n/a	n/a	n/a	n/a	n/a	n/a	n/a	fixation
181377.13616112573	2750.0	n/a	-1	-1	2750	171.863838874	stim	stop-signal	674	1818923	0.0-25.42-1.42	beast_fmri_test	358	1816777,/,1817457,/,1818137,/,1818816,/	t,t,t,t	<img class = center src='/static/experiments/beast_fmri_test/images/B.png'></img>	71,89	2750.0	test	<img class = center src='/static/experiments/beast_fmri_test/images/redB.png'></img>	go	1900.0	2.0	42.0	go	non-target	B	71,Index Finger	89,Middle Finger	550.0	850.0	2200.0	1900.0	0.0	850.0	0.0	n/a	go_stim
184127.13616112573	171.863838874	n/a	-1	-1	2750	171.863838874	stim	stop-signal	674	1818923	0.0-25.42-1.42	beast_fmri_test	358	1816777,/,1817457,/,1818137,/,1818816,/	t,t,t,t	<img class = center src='/static/experiments/beast_fmri_test/images/B.png'></img>	71,89	2750.0	test	<img class = center src='/static/experiments/beast_fmri_test/images/redB.png'></img>	go	1900.0	2.0	42.0	go	non-target	B	71,Index Finger	89,Middle Finger	550.0	850.0	2200.0	1900.0	0.0	850.0	0.0	n/a	ITI
185035	500.0	n/a	-1	-1	500	0.0	fixation	poldrack-single-stim	675	1819659	0.0-25.43-0.43	beast_fmri_test	358	1819497,/	t	<div class = centerbox2><div class = fixation>+</div></div>	none	500.0	test	n/a	n/a	n/a	n/a	n/a	n/a	n/a	n/a	n/a	n/a	n/a	n/a	n/a	n/a	n/a	n/a	n/a	n/a	fixation
184587.48879188462	2750.0	n/a	1837	89	2750	449.511208115	stim	stop-signal	676	1822411	0.0-25.43-1.43	beast_fmri_test	358	1820175,/,1820857,/,1821536,/,1822216,/	t,t,t,t	<img class = center src='/static/experiments/beast_fmri_test/images/P.png'></img>	71,89	2750.0	test	<img class = center src='/static/experiments/beast_fmri_test/images/redP.png'></img>	go	1900.0	2.0	43.0	go	non-target	P	71,Index Finger	89,Middle Finger	550.0	850.0	2200.0	1900.0	1.0	850.0	1.0	n/a	go_stim
187337.48879188462	449.511208115	n/a	1837	89	2750	449.511208115	stim	stop-signal	676	1822411	0.0-25.43-1.43	beast_fmri_test	358	1820175,/,1820857,/,1821536,/,1822216,/	t,t,t,t	<img class = center src='/static/experiments/beast_fmri_test/images/P.png'></img>	71,89	2750.0	test	<img class = center src='/static/experiments/beast_fmri_test/images/redP.png'></img>	go	1900.0	2.0	43.0	go	non-target	P	71,Index Finger	89,Middle Finger	550.0	850.0	2200.0	1900.0	1.0	850.0	1.0	n/a	ITI
188799	500.0	n/a	-1	-1	500	0.0	fixation	poldrack-single-stim	677	1823423	0.0-25.44-0.44	beast_fmri_test	358	1822922,/	t	<div class = centerbox2><div class = fixation>+</div></div>	none	500.0	test	n/a	n/a	n/a	n/a	n/a	n/a	n/a	n/a	n/a	n/a	n/a	n/a	n/a	n/a	n/a	n/a	n/a	n/a	fixation
187923.98954825359	2750.0	n/a	1004	89	2750	877.010451746	stim	stop-signal	678	1826175	0.0-25.44-1.44	beast_fmri_test	358	1823575,/,1824253,/,1824934,/,1825613,/,1826294,/,1826972,/	t,t,t,t,t,t	<img class = center src='/static/experiments/beast_fmri_test/images/D.png'></img>	71,89	2750.0	test	<img class = center src='/static/experiments/beast_fmri_test/images/redD.png'></img>	go	1900.0	2.0	44.0	go	non-target	D	71,Index Finger	89,Middle Finger	550.0	850.0	2200.0	1900.0	1.0	850.0	1.0	n/a	go_stim
190673.98954825359	877.010451746	n/a	1004	89	2750	877.010451746	stim	stop-signal	678	1826175	0.0-25.44-1.44	beast_fmri_test	358	1823575,/,1824253,/,1824934,/,1825613,/,1826294,/,1826972,/	t,t,t,t,t,t	<img class = center src='/static/experiments/beast_fmri_test/images/D.png'></img>	71,89	2750.0	test	<img class = center src='/static/experiments/beast_fmri_test/images/redD.png'></img>	go	1900.0	2.0	44.0	go	non-target	D	71,Index Finger	89,Middle Finger	550.0	850.0	2200.0	1900.0	1.0	850.0	1.0	n/a	ITI
192997	500.0	n/a	-1	-1	500	0.0	fixation	poldrack-single-stim	679	1827621	0.0-25.45-0.45	beast_fmri_test	358	n/a	n/a	<div class = centerbox2><div class = fixation>+</div></div>	none	500.0	test	n/a	n/a	n/a	n/a	n/a	n/a	n/a	n/a	n/a	n/a	n/a	n/a	n/a	n/a	n/a	n/a	n/a	n/a	fixation
190839.71158617642	2750.0	n/a	1322	89	2750	2158.28841382	stim	stop-signal	680	1830372	0.0-25.45-1.45	beast_fmri_test	358	1827652,/,1828332,/,1829012,/,1829690,/,1830371,/,1831051,/,1831730,/,1832410,/	t,t,t,t,t,t,t,t	<img class = center src='/static/experiments/beast_fmri_test/images/T.png'></img>	71,89	2750.0	test	<img class = center src='/static/experiments/beast_fmri_test/images/redT.png'></img>	go	1900.0	2.0	45.0	go	non-target	T	71,Index Finger	89,Middle Finger	550.0	850.0	2200.0	1900.0	1.0	850.0	1.0	n/a	go_stim
193589.71158617642	2158.28841382	n/a	1322	89	2750	2158.28841382	stim	stop-signal	680	1830372	0.0-25.45-1.45	beast_fmri_test	358	1827652,/,1828332,/,1829012,/,1829690,/,1830371,/,1831051,/,1831730,/,1832410,/	t,t,t,t,t,t,t,t	<img class = center src='/static/experiments/beast_fmri_test/images/T.png'></img>	71,89	2750.0	test	<img class = center src='/static/experiments/beast_fmri_test/images/redT.png'></img>	go	1900.0	2.0	45.0	go	non-target	T	71,Index Finger	89,Middle Finger	550.0	850.0	2200.0	1900.0	1.0	850.0	1.0	n/a	ITI
198467	500.0	n/a	-1	-1	500	0.0	fixation	poldrack-single-stim	681	1833091	0.0-25.46-0.46	beast_fmri_test	358	n/a	n/a	<div class = centerbox2><div class = fixation>+</div></div>	none	500.0	test	n/a	n/a	n/a	n/a	n/a	n/a	n/a	n/a	n/a	n/a	n/a	n/a	n/a	n/a	n/a	n/a	n/a	n/a	fixation
198032.81226434116	850.0	n/a	-1	-1	2750	436.187735659	stim	stop-signal	682	1835843	0.0-25.46-1.46	beast_fmri_test	358	1833093,/,1833770,/,1834448,/,1835128,/,1835809,/	t,t,t,t,t	<img class = center src='/static/experiments/beast_fmri_test/images/P.png'></img>	71,89	2750.0	test	<img class = center src='/static/experiments/beast_fmri_test/images/redP.png'></img>	stop	1900.0	2.0	46.0	stop	non-target	P	71,Index Finger	89,Middle Finger	550.0	850.0	2200.0	1900.0	0.0	850.0	n/a	1.0	go_stim
199932.81226434116	1900.0	n/a	-1	-1	2750	436.187735659	stim	stop-signal	682	1835843	0.0-25.46-1.46	beast_fmri_test	358	1833093,/,1833770,/,1834448,/,1835128,/,1835809,/	t,t,t,t,t	<img class = center src='/static/experiments/beast_fmri_test/images/P.png'></img>	71,89	2750.0	test	<img class = center src='/static/experiments/beast_fmri_test/images/redP.png'></img>	stop	1900.0	2.0	46.0	stop	non-target	P	71,Index Finger	89,Middle Finger	550.0	850.0	2200.0	1900.0	0.0	850.0	n/a	1.0	stop_stim
200782.81226434116	436.187735659	n/a	-1	-1	2750	436.187735659	stim	stop-signal	682	1835843	0.0-25.46-1.46	beast_fmri_test	358	1833093,/,1833770,/,1834448,/,1835128,/,1835809,/	t,t,t,t,t	<img class = center src='/static/experiments/beast_fmri_test/images/P.png'></img>	71,89	2750.0	test	<img class = center src='/static/experiments/beast_fmri_test/images/redP.png'></img>	stop	1900.0	2.0	46.0	stop	non-target	P	71,Index Finger	89,Middle Finger	550.0	850.0	2200.0	1900.0	0.0	850.0	n/a	1.0	ITI
216719	15000.0	n/a	-1	-1	15000	0.0	practice-no-stop-feedback	poldrack-single-stim	683	1851343	0.0-26.0	beast_fmri_test	358	1836488,/,1837168,/,1837848,/,1838527,/,1839207,/,1839887,/,1840567,/,1841246,/,1841925,/,1842605,/,1843284,/,1843965,/,1844644,/,1845323,/,1846004,/,1846682,/,1847364,/,1848041,/,1848724,/,1849403,/,1850083,/,1850761,/	t,t,t,t,t,t,t,t,t,t,t,t,t,t,t,t,t,t,t,t,t,t	"<div class = ""centerbox""><p class = ""block-text"">Your delay is 2 trials.</p><p class = block-text>Please wait for the scanner to start the block</p></div>"	77	15000.0	n/a	n/a	n/a	n/a	n/a	n/a	n/a	n/a	n/a	n/a	n/a	n/a	n/a	n/a	n/a	n/a	n/a	n/a	n/a	practice-no-stop-feedback
217221	500.0	n/a	-1	-1	500	0.0	fixation	poldrack-single-stim	684	1851845	0.0-27.0-0.0	beast_fmri_test	358	1851442,/	t	<div class = centerbox2><div class = fixation>+</div></div>	none	500.0	test	n/a	n/a	n/a	n/a	n/a	n/a	n/a	n/a	n/a	n/a	n/a	n/a	n/a	n/a	n/a	n/a	n/a	n/a	fixation
216624.77269678703	2750.0	n/a	1049	89	2750	597.227303213	stim	stop-signal	685	1854596	0.0-27.0-1.0	beast_fmri_test	358	1852120,/,1852802,/,1853480,/,1854161,/,1854840,/	t,t,t,t,t	<img class = center src='/static/experiments/beast_fmri_test/images/V.png'></img>	71,89	2750.0	test	<img class = center src='/static/experiments/beast_fmri_test/images/redV.png'></img>	go	-1.0	2.0	0.0	go	temp-non-target	V	71,Index Finger	89,Middle Finger	550.0	900.0	2200.0	1900.0	0.0	n/a	n/a	n/a	go_stim
219374.77269678703	597.227303213	n/a	1049	89	2750	597.227303213	stim	stop-signal	685	1854596	0.0-27.0-1.0	beast_fmri_test	358	1852120,/,1852802,/,1853480,/,1854161,/,1854840,/	t,t,t,t,t	<img class = center src='/static/experiments/beast_fmri_test/images/V.png'></img>	71,89	2750.0	test	<img class = center src='/static/experiments/beast_fmri_test/images/redV.png'></img>	go	-1.0	2.0	0.0	go	temp-non-target	V	71,Index Finger	89,Middle Finger	550.0	900.0	2200.0	1900.0	0.0	n/a	n/a	n/a	ITI
221136	500.0	n/a	-1	-1	500	0.0	fixation	poldrack-single-stim	686	1855760	0.0-27.1-0.1	beast_fmri_test	358	1855520,/	t	<div class = centerbox2><div class = fixation>+</div></div>	none	500.0	test	n/a	n/a	n/a	n/a	n/a	n/a	n/a	n/a	n/a	n/a	n/a	n/a	n/a	n/a	n/a	n/a	n/a	n/a	fixation
218878.99926261557	2750.0	n/a	563	89	2750	2258.00073738	stim	stop-signal	687	1858511	0.0-27.1-1.1	beast_fmri_test	358	1856200,/,1856879,/,1857559,/,1858238,/,1858918,/,1859598,/,1860277,/	t,t,t,t,t,t,t	<img class = center src='/static/experiments/beast_fmri_test/images/D.png'></img>	71,89	2750.0	test	<img class = center src='/static/experiments/beast_fmri_test/images/redD.png'></img>	go	-1.0	2.0	1.0	go	temp-non-target	D	71,Index Finger	89,Middle Finger	550.0	900.0	2200.0	1900.0	0.0	n/a	n/a	n/a	go_stim
221628.99926261557	2258.00073738	n/a	563	89	2750	2258.00073738	stim	stop-signal	687	1858511	0.0-27.1-1.1	beast_fmri_test	358	1856200,/,1856879,/,1857559,/,1858238,/,1858918,/,1859598,/,1860277,/	t,t,t,t,t,t,t	<img class = center src='/static/experiments/beast_fmri_test/images/D.png'></img>	71,89	2750.0	test	<img class = center src='/static/experiments/beast_fmri_test/images/redD.png'></img>	go	-1.0	2.0	1.0	go	temp-non-target	D	71,Index Finger	89,Middle Finger	550.0	900.0	2200.0	1900.0	0.0	n/a	n/a	n/a	ITI
226712	500.0	n/a	-1	-1	500	0.0	fixation	poldrack-single-stim	688	1861336	0.0-27.2-0.2	beast_fmri_test	358	1860956,/	t	<div class = centerbox2><div class = fixation>+</div></div>	none	500.0	test	n/a	n/a	n/a	n/a	n/a	n/a	n/a	n/a	n/a	n/a	n/a	n/a	n/a	n/a	n/a	n/a	n/a	n/a	fixation
224367.73736918252	2750.0	n/a	971	89	2750	2345.26263082	stim	stop-signal	689	1864087	0.0-27.2-1.2	beast_fmri_test	358	1861637,/,1862315,/,1862996,/,1863675,/,1864356,/,1865034,/,1865715,/,1866393,/	t,t,t,t,t,t,t,t	<img class = center src='/static/experiments/beast_fmri_test/images/D.png'></img>	71,89	2750.0	test	<img class = center src='/static/experiments/beast_fmri_test/images/redD.png'></img>	go	1850.0	2.0	2.0	go	non-target	D	71,Index Finger	89,Middle Finger	550.0	900.0	2200.0	1850.0	1.0	900.0	1.0	n/a	go_stim
227117.73736918252	2345.26263082	n/a	971	89	2750	2345.26263082	stim	stop-signal	689	1864087	0.0-27.2-1.2	beast_fmri_test	358	1861637,/,1862315,/,1862996,/,1863675,/,1864356,/,1865034,/,1865715,/,1866393,/	t,t,t,t,t,t,t,t	<img class = center src='/static/experiments/beast_fmri_test/images/D.png'></img>	71,89	2750.0	test	<img class = center src='/static/experiments/beast_fmri_test/images/redD.png'></img>	go	1850.0	2.0	2.0	go	non-target	D	71,Index Finger	89,Middle Finger	550.0	900.0	2200.0	1850.0	1.0	900.0	1.0	n/a	ITI
232373	500.0	n/a	-1	-1	500	0.0	fixation	poldrack-single-stim	690	1866997	0.0-27.3-0.3	beast_fmri_test	358	n/a	n/a	<div class = centerbox2><div class = fixation>+</div></div>	none	500.0	test	n/a	n/a	n/a	n/a	n/a	n/a	n/a	n/a	n/a	n/a	n/a	n/a	n/a	n/a	n/a	n/a	n/a	n/a	fixation
231692.53333769646	2750.0	n/a	1780	89	2750	682.466662304	stim	stop-signal	691	1869749	0.0-27.3-1.3	beast_fmri_test	358	1867073,/,1867754,/,1868434,/,1869113,/,1869792,/	t,t,t,t,t	<img class = center src='/static/experiments/beast_fmri_test/images/D.png'></img>	71,89	2750.0	test	<img class = center src='/static/experiments/beast_fmri_test/images/redD.png'></img>	go	2200.0	2.0	3.0	go	target	D	71,Index Finger	89,Middle Finger	550.0	900.0	2200.0	1850.0	0.0	550.0	0.0	n/a	go_stim
234442.53333769646	682.466662304	n/a	1780	89	2750	682.466662304	stim	stop-signal	691	1869749	0.0-27.3-1.3	beast_fmri_test	358	1867073,/,1867754,/,1868434,/,1869113,/,1869792,/	t,t,t,t,t	<img class = center src='/static/experiments/beast_fmri_test/images/D.png'></img>	71,89	2750.0	test	<img class = center src='/static/experiments/beast_fmri_test/images/redD.png'></img>	go	2200.0	2.0	3.0	go	target	D	71,Index Finger	89,Middle Finger	550.0	900.0	2200.0	1850.0	0.0	550.0	0.0	n/a	ITI
236375	500.0	n/a	-1	-1	500	0.0	fixation	poldrack-single-stim	692	1870999	0.0-27.4-0.4	beast_fmri_test	358	1870498,/	t	<div class = centerbox2><div class = fixation>+</div></div>	none	500.0	test	n/a	n/a	n/a	n/a	n/a	n/a	n/a	n/a	n/a	n/a	n/a	n/a	n/a	n/a	n/a	n/a	n/a	n/a	fixation
236286.70506791933	900.0	n/a	709	89	2750	90.2949320807	stim	stop-signal	693	1873751	0.0-27.4-1.4	beast_fmri_test	358	1871151,/,1871832,/,1872511,/,1873191,/	t,t,t,t	<img class = center src='/static/experiments/beast_fmri_test/images/T.png'></img>	71,89	2750.0	test	<img class = center src='/static/experiments/beast_fmri_test/images/redT.png'></img>	stop	1850.0	2.0	4.0	stop	non-target	T	71,Index Finger	89,Middle Finger	550.0	900.0	2200.0	1850.0	0.0	900.0	n/a	0.0	go_stim
238136.70506791933	1850.0	n/a	709	89	2750	90.2949320807	stim	stop-signal	693	1873751	0.0-27.4-1.4	beast_fmri_test	358	1871151,/,1871832,/,1872511,/,1873191,/	t,t,t,t	<img class = center src='/static/experiments/beast_fmri_test/images/T.png'></img>	71,89	2750.0	test	<img class = center src='/static/experiments/beast_fmri_test/images/redT.png'></img>	stop	1850.0	2.0	4.0	stop	non-target	T	71,Index Finger	89,Middle Finger	550.0	900.0	2200.0	1850.0	0.0	900.0	n/a	0.0	stop_stim
239036.70506791933	90.2949320807	n/a	709	89	2750	90.2949320807	stim	stop-signal	693	1873751	0.0-27.4-1.4	beast_fmri_test	358	1871151,/,1871832,/,1872511,/,1873191,/	t,t,t,t	<img class = center src='/static/experiments/beast_fmri_test/images/T.png'></img>	71,89	2750.0	test	<img class = center src='/static/experiments/beast_fmri_test/images/redT.png'></img>	stop	1850.0	2.0	4.0	stop	non-target	T	71,Index Finger	89,Middle Finger	550.0	900.0	2200.0	1850.0	0.0	900.0	n/a	0.0	ITI
239785	500.0	n/a	-1	-1	500	0.0	fixation	poldrack-single-stim	694	1874409	0.0-27.5-0.5	beast_fmri_test	358	1873907,/	t	<div class = centerbox2><div class = fixation>+</div></div>	none	500.0	test	n/a	n/a	n/a	n/a	n/a	n/a	n/a	n/a	n/a	n/a	n/a	n/a	n/a	n/a	n/a	n/a	n/a	n/a	fixation
239551.36247222917	2750.0	n/a	916	89	2750	233.637527771	stim	stop-signal	695	1877159	0.0-27.5-1.5	beast_fmri_test	358	1874551,/,1875230,/,1875911,/,1876589,/,1877269,/	t,t,t,t,t	<img class = center src='/static/experiments/beast_fmri_test/images/B.png'></img>	71,89	2750.0	test	<img class = center src='/static/experiments/beast_fmri_test/images/redB.png'></img>	go	1900.0	2.0	5.0	go	non-target	B	71,Index Finger	89,Middle Finger	550.0	850.0	2200.0	1900.0	1.0	850.0	1.0	n/a	go_stim
242301.36247222917	233.637527771	n/a	916	89	2750	233.637527771	stim	stop-signal	695	1877159	0.0-27.5-1.5	beast_fmri_test	358	1874551,/,1875230,/,1875911,/,1876589,/,1877269,/	t,t,t,t,t	<img class = center src='/static/experiments/beast_fmri_test/images/B.png'></img>	71,89	2750.0	test	<img class = center src='/static/experiments/beast_fmri_test/images/redB.png'></img>	go	1900.0	2.0	5.0	go	non-target	B	71,Index Finger	89,Middle Finger	550.0	850.0	2200.0	1900.0	1.0	850.0	1.0	n/a	ITI
243340	500.0	n/a	-1	-1	500	0.0	fixation	poldrack-single-stim	696	1877964	0.0-27.6-0.6	beast_fmri_test	358	1877950,/	t	<div class = centerbox2><div class = fixation>+</div></div>	none	500.0	test	n/a	n/a	n/a	n/a	n/a	n/a	n/a	n/a	n/a	n/a	n/a	n/a	n/a	n/a	n/a	n/a	n/a	n/a	fixation
242343.89344720705	550.0	n/a	559	71	2750	997.106552793	stim	stop-signal	697	1880715	0.0-27.6-1.6	beast_fmri_test	358	1878630,/,1879308,/,1879988,/,1880669,/,1881347,/	t,t,t,t,t	<img class = center src='/static/experiments/beast_fmri_test/images/T.png'></img>	71,89	2750.0	test	<img class = center src='/static/experiments/beast_fmri_test/images/redT.png'></img>	stop	2200.0	2.0	6.0	stop	target	T	71,Index Finger	89,Middle Finger	550.0	850.0	2200.0	1900.0	0.0	550.0	n/a	0.0	go_stim
244543.89344720705	2200.0	n/a	559	71	2750	997.106552793	stim	stop-signal	697	1880715	0.0-27.6-1.6	beast_fmri_test	358	1878630,/,1879308,/,1879988,/,1880669,/,1881347,/	t,t,t,t,t	<img class = center src='/static/experiments/beast_fmri_test/images/T.png'></img>	71,89	2750.0	test	<img class = center src='/static/experiments/beast_fmri_test/images/redT.png'></img>	stop	2200.0	2.0	6.0	stop	target	T	71,Index Finger	89,Middle Finger	550.0	850.0	2200.0	1900.0	0.0	550.0	n/a	0.0	stop_stim
245093.89344720705	997.106552793	n/a	559	71	2750	997.106552793	stim	stop-signal	697	1880715	0.0-27.6-1.6	beast_fmri_test	358	1878630,/,1879308,/,1879988,/,1880669,/,1881347,/	t,t,t,t,t	<img class = center src='/static/experiments/beast_fmri_test/images/T.png'></img>	71,89	2750.0	test	<img class = center src='/static/experiments/beast_fmri_test/images/redT.png'></img>	stop	2200.0	2.0	6.0	stop	target	T	71,Index Finger	89,Middle Finger	550.0	850.0	2200.0	1900.0	0.0	550.0	n/a	0.0	ITI
247652	500.0	n/a	-1	-1	500	0.0	fixation	poldrack-single-stim	698	1882276	0.0-27.7-0.7	beast_fmri_test	358	1882028,/	t	<div class = centerbox2><div class = fixation>+</div></div>	none	500.0	test	n/a	n/a	n/a	n/a	n/a	n/a	n/a	n/a	n/a	n/a	n/a	n/a	n/a	n/a	n/a	n/a	n/a	n/a	fixation
242654.0	2750.0	n/a	623	89	2750	5000.0	stim	stop-signal	699	1885028	0.0-27.7-1.7	beast_fmri_test	358	1882707,/,1883387,/,1884065,/,1884746,/,1885426,/,1886106,/,1886786,/,1887465,/,1888145,/,1888823,/,1889504,/	t,t,t,t,t,t,t,t,t,t,t	<img class = center src='/static/experiments/beast_fmri_test/images/V.png'></img>	71,89	2750.0	test	<img class = center src='/static/experiments/beast_fmri_test/images/redV.png'></img>	go	1900.0	2.0	7.0	go	non-target	V	71,Index Finger	89,Middle Finger	500.0	850.0	2200.0	1900.0	1.0	850.0	1.0	n/a	go_stim
245404.0	5000.0	n/a	623	89	2750	5000.0	stim	stop-signal	699	1885028	0.0-27.7-1.7	beast_fmri_test	358	1882707,/,1883387,/,1884065,/,1884746,/,1885426,/,1886106,/,1886786,/,1887465,/,1888145,/,1888823,/,1889504,/	t,t,t,t,t,t,t,t,t,t,t	<img class = center src='/static/experiments/beast_fmri_test/images/V.png'></img>	71,89	2750.0	test	<img class = center src='/static/experiments/beast_fmri_test/images/redV.png'></img>	go	1900.0	2.0	7.0	go	non-target	V	71,Index Finger	89,Middle Finger	500.0	850.0	2200.0	1900.0	1.0	850.0	1.0	n/a	ITI
255973	500.0	n/a	-1	-1	500	0.0	fixation	poldrack-single-stim	700	1890597	0.0-27.8-0.8	beast_fmri_test	358	1890184,/	t	<div class = centerbox2><div class = fixation>+</div></div>	none	500.0	test	n/a	n/a	n/a	n/a	n/a	n/a	n/a	n/a	n/a	n/a	n/a	n/a	n/a	n/a	n/a	n/a	n/a	n/a	fixation
254438.88168388978	2750.0	n/a	1153	89	2750	1535.11831611	stim	stop-signal	701	1893348	0.0-27.8-1.8	beast_fmri_test	358	1890864,/,1891542,/,1892223,/,1892901,/,1893582,/,1894260,/	t,t,t,t,t,t	<img class = center src='/static/experiments/beast_fmri_test/images/B.png'></img>	71,89	2750.0	test	<img class = center src='/static/experiments/beast_fmri_test/images/redB.png'></img>	go	1900.0	2.0	8.0	go	non-target	B	71,Index Finger	89,Middle Finger	500.0	850.0	2200.0	1900.0	1.0	850.0	1.0	n/a	go_stim
257188.88168388978	1535.11831611	n/a	1153	89	2750	1535.11831611	stim	stop-signal	701	1893348	0.0-27.8-1.8	beast_fmri_test	358	1890864,/,1891542,/,1892223,/,1892901,/,1893582,/,1894260,/	t,t,t,t,t,t	<img class = center src='/static/experiments/beast_fmri_test/images/B.png'></img>	71,89	2750.0	test	<img class = center src='/static/experiments/beast_fmri_test/images/redB.png'></img>	go	1900.0	2.0	8.0	go	non-target	B	71,Index Finger	89,Middle Finger	500.0	850.0	2200.0	1900.0	1.0	850.0	1.0	n/a	ITI
260824	500.0	n/a	-1	-1	500	0.0	fixation	poldrack-single-stim	702	1895448	0.0-27.9-0.9	beast_fmri_test	358	1894947,/	t	<div class = centerbox2><div class = fixation>+</div></div>	none	500.0	test	n/a	n/a	n/a	n/a	n/a	n/a	n/a	n/a	n/a	n/a	n/a	n/a	n/a	n/a	n/a	n/a	n/a	n/a	fixation
259371.27313343599	500.0	n/a	-1	-1	2750	1454.72686656	stim	stop-signal	703	1898200	0.0-27.9-1.9	beast_fmri_test	358	1895621,/,1896301,/,1896980,/,1897660,/,1898338,/,1899018,/	t,t,t,t,t,t	<img class = center src='/static/experiments/beast_fmri_test/images/V.png'></img>	71,89	2750.0	test	<img class = center src='/static/experiments/beast_fmri_test/images/redV.png'></img>	stop	2250.0	2.0	9.0	stop	target	V	71,Index Finger	89,Middle Finger	500.0	850.0	2250.0	1900.0	0.0	500.0	n/a	1.0	go_stim
261621.27313343599	2250.0	n/a	-1	-1	2750	1454.72686656	stim	stop-signal	703	1898200	0.0-27.9-1.9	beast_fmri_test	358	1895621,/,1896301,/,1896980,/,1897660,/,1898338,/,1899018,/	t,t,t,t,t,t	<img class = center src='/static/experiments/beast_fmri_test/images/V.png'></img>	71,89	2750.0	test	<img class = center src='/static/experiments/beast_fmri_test/images/redV.png'></img>	stop	2250.0	2.0	9.0	stop	target	V	71,Index Finger	89,Middle Finger	500.0	850.0	2250.0	1900.0	0.0	500.0	n/a	1.0	stop_stim
262121.27313343599	1454.72686656	n/a	-1	-1	2750	1454.72686656	stim	stop-signal	703	1898200	0.0-27.9-1.9	beast_fmri_test	358	1895621,/,1896301,/,1896980,/,1897660,/,1898338,/,1899018,/	t,t,t,t,t,t	<img class = center src='/static/experiments/beast_fmri_test/images/V.png'></img>	71,89	2750.0	test	<img class = center src='/static/experiments/beast_fmri_test/images/redV.png'></img>	stop	2250.0	2.0	9.0	stop	target	V	71,Index Finger	89,Middle Finger	500.0	850.0	2250.0	1900.0	0.0	500.0	n/a	1.0	ITI
265598	500.0	n/a	-1	-1	500	0.0	fixation	poldrack-single-stim	704	1900222	0.0-27.10-0.10	beast_fmri_test	358	1899722,/	t	<div class = centerbox2><div class = fixation>+</div></div>	none	500.0	test	n/a	n/a	n/a	n/a	n/a	n/a	n/a	n/a	n/a	n/a	n/a	n/a	n/a	n/a	n/a	n/a	n/a	n/a	fixation
264500.09550994658	2750.0	n/a	996	71	2750	1097.90449005	stim	stop-signal	705	1902972	0.0-27.10-1.10	beast_fmri_test	358	1900377,/,1901058,/,1901737,/,1902417,/,1903096,/,1903778,/	t,t,t,t,t,t	<img class = center src='/static/experiments/beast_fmri_test/images/B.png'></img>	71,89	2750.0	test	<img class = center src='/static/experiments/beast_fmri_test/images/redB.png'></img>	go	2200.0	2.0	10.0	go	target	B	71,Index Finger	89,Middle Finger	550.0	850.0	2200.0	1900.0	1.0	550.0	1.0	n/a	go_stim
267250.09550994658	1097.90449005	n/a	996	71	2750	1097.90449005	stim	stop-signal	705	1902972	0.0-27.10-1.10	beast_fmri_test	358	1900377,/,1901058,/,1901737,/,1902417,/,1903096,/,1903778,/	t,t,t,t,t,t	<img class = center src='/static/experiments/beast_fmri_test/images/B.png'></img>	71,89	2750.0	test	<img class = center src='/static/experiments/beast_fmri_test/images/redB.png'></img>	go	2200.0	2.0	10.0	go	target	B	71,Index Finger	89,Middle Finger	550.0	850.0	2200.0	1900.0	1.0	550.0	1.0	n/a	ITI
270011	500.0	n/a	-1	-1	500	0.0	fixation	poldrack-single-stim	706	1904635	0.0-27.11-0.11	beast_fmri_test	358	1904457,/	t	<div class = centerbox2><div class = fixation>+</div></div>	none	500.0	test	n/a	n/a	n/a	n/a	n/a	n/a	n/a	n/a	n/a	n/a	n/a	n/a	n/a	n/a	n/a	n/a	n/a	n/a	fixation
269686.074347805	2750.0	n/a	1187	89	2750	326.925652195	stim	stop-signal	707	1907387	0.0-27.11-1.11	beast_fmri_test	358	1905137,/,1905816,/,1906497,/,1907175,/	t,t,t,t	<img class = center src='/static/experiments/beast_fmri_test/images/D.png'></img>	71,89	2750.0	test	<img class = center src='/static/experiments/beast_fmri_test/images/redD.png'></img>	go	1900.0	2.0	11.0	go	non-target	D	71,Index Finger	89,Middle Finger	550.0	850.0	2200.0	1900.0	1.0	850.0	1.0	n/a	go_stim
272436.074347805	326.925652195	n/a	1187	89	2750	326.925652195	stim	stop-signal	707	1907387	0.0-27.11-1.11	beast_fmri_test	358	1905137,/,1905816,/,1906497,/,1907175,/	t,t,t,t	<img class = center src='/static/experiments/beast_fmri_test/images/D.png'></img>	71,89	2750.0	test	<img class = center src='/static/experiments/beast_fmri_test/images/redD.png'></img>	go	1900.0	2.0	11.0	go	non-target	D	71,Index Finger	89,Middle Finger	550.0	850.0	2200.0	1900.0	1.0	850.0	1.0	n/a	ITI
273656	500.0	n/a	-1	-1	500	0.0	fixation	poldrack-single-stim	708	1908280	0.0-27.12-0.12	beast_fmri_test	358	1907856,/	t	<div class = centerbox2><div class = fixation>+</div></div>	none	500.0	test	n/a	n/a	n/a	n/a	n/a	n/a	n/a	n/a	n/a	n/a	n/a	n/a	n/a	n/a	n/a	n/a	n/a	n/a	fixation
272821.80991513701	2750.0	n/a	839	89	2750	836.190084863	stim	stop-signal	709	1911032	0.0-27.12-1.12	beast_fmri_test	358	1908535,/,1909215,/,1909895,/,1910575,/,1911254,/	t,t,t,t,t	<img class = center src='/static/experiments/beast_fmri_test/images/V.png'></img>	71,89	2750.0	test	<img class = center src='/static/experiments/beast_fmri_test/images/redV.png'></img>	go	1900.0	2.0	12.0	go	non-target	V	71,Index Finger	89,Middle Finger	550.0	850.0	2200.0	1900.0	1.0	850.0	1.0	n/a	go_stim
275571.80991513701	836.190084863	n/a	839	89	2750	836.190084863	stim	stop-signal	709	1911032	0.0-27.12-1.12	beast_fmri_test	358	1908535,/,1909215,/,1909895,/,1910575,/,1911254,/	t,t,t,t,t	<img class = center src='/static/experiments/beast_fmri_test/images/V.png'></img>	71,89	2750.0	test	<img class = center src='/static/experiments/beast_fmri_test/images/redV.png'></img>	go	1900.0	2.0	12.0	go	non-target	V	71,Index Finger	89,Middle Finger	550.0	850.0	2200.0	1900.0	1.0	850.0	1.0	n/a	ITI
277815	500.0	n/a	-1	-1	500	0.0	fixation	poldrack-single-stim	710	1912439	0.0-27.13-0.13	beast_fmri_test	358	1911937,/	t	<div class = centerbox2><div class = fixation>+</div></div>	none	500.0	test	n/a	n/a	n/a	n/a	n/a	n/a	n/a	n/a	n/a	n/a	n/a	n/a	n/a	n/a	n/a	n/a	n/a	n/a	fixation
276598.3738680277	2750.0	n/a	2204	89	2750	1218.62613197	stim	stop-signal	711	1915191	0.0-27.13-1.13	beast_fmri_test	358	1912614,/,1913292,/,1913973,/,1914651,/,1915332,/,1916011,/	t,t,t,t,t,t	<img class = center src='/static/experiments/beast_fmri_test/images/D.png'></img>	71,89	2750.0	test	<img class = center src='/static/experiments/beast_fmri_test/images/redD.png'></img>	go	2200.0	2.0	13.0	go	target	D	71,Index Finger	89,Middle Finger	550.0	850.0	2200.0	1900.0	0.0	550.0	0.0	n/a	go_stim
279348.3738680277	1218.62613197	n/a	2204	89	2750	1218.62613197	stim	stop-signal	711	1915191	0.0-27.13-1.13	beast_fmri_test	358	1912614,/,1913292,/,1913973,/,1914651,/,1915332,/,1916011,/	t,t,t,t,t,t	<img class = center src='/static/experiments/beast_fmri_test/images/D.png'></img>	71,89	2750.0	test	<img class = center src='/static/experiments/beast_fmri_test/images/redD.png'></img>	go	2200.0	2.0	13.0	go	target	D	71,Index Finger	89,Middle Finger	550.0	850.0	2200.0	1900.0	0.0	550.0	0.0	n/a	ITI
282356	500.0	n/a	-1	-1	500	0.0	fixation	poldrack-single-stim	712	1916980	0.0-27.14-0.14	beast_fmri_test	358	1916692,/	t	<div class = centerbox2><div class = fixation>+</div></div>	none	500.0	test	n/a	n/a	n/a	n/a	n/a	n/a	n/a	n/a	n/a	n/a	n/a	n/a	n/a	n/a	n/a	n/a	n/a	n/a	fixation
282131.86258066702	2750.0	n/a	1287	71	2750	226.137419333	stim	stop-signal	713	1919732	0.0-27.14-1.14	beast_fmri_test	358	1917370,/,1918051,/,1918730,/,1919410,/	t,t,t,t	<img class = center src='/static/experiments/beast_fmri_test/images/D.png'></img>	71,89	2750.0	test	<img class = center src='/static/experiments/beast_fmri_test/images/redD.png'></img>	go	1900.0	2.0	14.0	go	non-target	D	71,Index Finger	89,Middle Finger	550.0	850.0	2200.0	1900.0	0.0	850.0	0.0	n/a	go_stim
284881.86258066702	226.137419333	n/a	1287	71	2750	226.137419333	stim	stop-signal	713	1919732	0.0-27.14-1.14	beast_fmri_test	358	1917370,/,1918051,/,1918730,/,1919410,/	t,t,t,t	<img class = center src='/static/experiments/beast_fmri_test/images/D.png'></img>	71,89	2750.0	test	<img class = center src='/static/experiments/beast_fmri_test/images/redD.png'></img>	go	1900.0	2.0	14.0	go	non-target	D	71,Index Finger	89,Middle Finger	550.0	850.0	2200.0	1900.0	0.0	850.0	0.0	n/a	ITI
285901	500.0	n/a	-1	-1	500	0.0	fixation	poldrack-single-stim	714	1920525	0.0-27.15-0.15	beast_fmri_test	358	1920089,/	t	<div class = centerbox2><div class = fixation>+</div></div>	none	500.0	test	n/a	n/a	n/a	n/a	n/a	n/a	n/a	n/a	n/a	n/a	n/a	n/a	n/a	n/a	n/a	n/a	n/a	n/a	fixation
285673.45900685363	850.0	n/a	1074	89	2750	228.540993146	stim	stop-signal	715	1923276	0.0-27.15-1.15	beast_fmri_test	358	1920770,/,1921449,/,1922128,/,1922808,/,1923487,/	t,t,t,t,t	<img class = center src='/static/experiments/beast_fmri_test/images/P.png'></img>	71,89	2750.0	test	<img class = center src='/static/experiments/beast_fmri_test/images/redP.png'></img>	stop	1900.0	2.0	15.0	stop	non-target	P	71,Index Finger	89,Middle Finger	550.0	850.0	2200.0	1900.0	0.0	850.0	n/a	0.0	go_stim
287573.45900685363	1900.0	n/a	1074	89	2750	228.540993146	stim	stop-signal	715	1923276	0.0-27.15-1.15	beast_fmri_test	358	1920770,/,1921449,/,1922128,/,1922808,/,1923487,/	t,t,t,t,t	<img class = center src='/static/experiments/beast_fmri_test/images/P.png'></img>	71,89	2750.0	test	<img class = center src='/static/experiments/beast_fmri_test/images/redP.png'></img>	stop	1900.0	2.0	15.0	stop	non-target	P	71,Index Finger	89,Middle Finger	550.0	850.0	2200.0	1900.0	0.0	850.0	n/a	0.0	stop_stim
288423.45900685363	228.540993146	n/a	1074	89	2750	228.540993146	stim	stop-signal	715	1923276	0.0-27.15-1.15	beast_fmri_test	358	1920770,/,1921449,/,1922128,/,1922808,/,1923487,/	t,t,t,t,t	<img class = center src='/static/experiments/beast_fmri_test/images/P.png'></img>	71,89	2750.0	test	<img class = center src='/static/experiments/beast_fmri_test/images/redP.png'></img>	stop	1900.0	2.0	15.0	stop	non-target	P	71,Index Finger	89,Middle Finger	550.0	850.0	2200.0	1900.0	0.0	850.0	n/a	0.0	ITI
289448	500.0	n/a	-1	-1	500	0.0	fixation	poldrack-single-stim	716	1924072	0.0-27.16-0.16	beast_fmri_test	358	n/a	n/a	<div class = centerbox2><div class = fixation>+</div></div>	none	500.0	test	n/a	n/a	n/a	n/a	n/a	n/a	n/a	n/a	n/a	n/a	n/a	n/a	n/a	n/a	n/a	n/a	n/a	n/a	fixation
287930.21421995037	800.0	n/a	740	89	2750	1519.78578005	stim	stop-signal	717	1926824	0.0-27.16-1.16	beast_fmri_test	358	1924168,/,1924846,/,1925527,/,1926206,/,1926885,/,1927566,/,1928244,/	t,t,t,t,t,t,t	<img class = center src='/static/experiments/beast_fmri_test/images/B.png'></img>	71,89	2750.0	test	<img class = center src='/static/experiments/beast_fmri_test/images/redB.png'></img>	stop	1950.0	2.0	16.0	stop	non-target	B	71,Index Finger	89,Middle Finger	550.0	800.0	2200.0	1950.0	0.0	800.0	n/a	0.0	go_stim
289880.21421995037	1950.0	n/a	740	89	2750	1519.78578005	stim	stop-signal	717	1926824	0.0-27.16-1.16	beast_fmri_test	358	1924168,/,1924846,/,1925527,/,1926206,/,1926885,/,1927566,/,1928244,/	t,t,t,t,t,t,t	<img class = center src='/static/experiments/beast_fmri_test/images/B.png'></img>	71,89	2750.0	test	<img class = center src='/static/experiments/beast_fmri_test/images/redB.png'></img>	stop	1950.0	2.0	16.0	stop	non-target	B	71,Index Finger	89,Middle Finger	550.0	800.0	2200.0	1950.0	0.0	800.0	n/a	0.0	stop_stim
290680.21421995037	1519.78578005	n/a	740	89	2750	1519.78578005	stim	stop-signal	717	1926824	0.0-27.16-1.16	beast_fmri_test	358	1924168,/,1924846,/,1925527,/,1926206,/,1926885,/,1927566,/,1928244,/	t,t,t,t,t,t,t	<img class = center src='/static/experiments/beast_fmri_test/images/B.png'></img>	71,89	2750.0	test	<img class = center src='/static/experiments/beast_fmri_test/images/redB.png'></img>	stop	1950.0	2.0	16.0	stop	non-target	B	71,Index Finger	89,Middle Finger	550.0	800.0	2200.0	1950.0	0.0	800.0	n/a	0.0	ITI
294285	500.0	n/a	-1	-1	500	0.0	fixation	poldrack-single-stim	718	1928909	0.0-27.17-0.17	beast_fmri_test	358	n/a	n/a	<div class = centerbox2><div class = fixation>+</div></div>	none	500.0	test	n/a	n/a	n/a	n/a	n/a	n/a	n/a	n/a	n/a	n/a	n/a	n/a	n/a	n/a	n/a	n/a	n/a	n/a	fixation
292910.35318021406	750.0	n/a	1079	89	2750	1376.64681979	stim	stop-signal	719	1931661	0.0-27.17-1.17	beast_fmri_test	358	1928925,/,1929606,/,1930285,/,1930963,/,1931644,/,1932324,/,1933004,/	t,t,t,t,t,t,t	<img class = center src='/static/experiments/beast_fmri_test/images/V.png'></img>	71,89	2750.0	test	<img class = center src='/static/experiments/beast_fmri_test/images/redV.png'></img>	stop	2000.0	2.0	17.0	stop	non-target	V	71,Index Finger	89,Middle Finger	550.0	750.0	2200.0	2000.0	0.0	750.0	n/a	0.0	go_stim
294910.35318021406	2000.0	n/a	1079	89	2750	1376.64681979	stim	stop-signal	719	1931661	0.0-27.17-1.17	beast_fmri_test	358	1928925,/,1929606,/,1930285,/,1930963,/,1931644,/,1932324,/,1933004,/	t,t,t,t,t,t,t	<img class = center src='/static/experiments/beast_fmri_test/images/V.png'></img>	71,89	2750.0	test	<img class = center src='/static/experiments/beast_fmri_test/images/redV.png'></img>	stop	2000.0	2.0	17.0	stop	non-target	V	71,Index Finger	89,Middle Finger	550.0	750.0	2200.0	2000.0	0.0	750.0	n/a	0.0	stop_stim
295660.35318021406	1376.64681979	n/a	1079	89	2750	1376.64681979	stim	stop-signal	719	1931661	0.0-27.17-1.17	beast_fmri_test	358	1928925,/,1929606,/,1930285,/,1930963,/,1931644,/,1932324,/,1933004,/	t,t,t,t,t,t,t	<img class = center src='/static/experiments/beast_fmri_test/images/V.png'></img>	71,89	2750.0	test	<img class = center src='/static/experiments/beast_fmri_test/images/redV.png'></img>	stop	2000.0	2.0	17.0	stop	non-target	V	71,Index Finger	89,Middle Finger	550.0	750.0	2200.0	2000.0	0.0	750.0	n/a	0.0	ITI
298992	500.0	n/a	-1	-1	500	0.0	fixation	poldrack-single-stim	720	1933616	0.0-27.18-0.18	beast_fmri_test	358	n/a	n/a	<div class = centerbox2><div class = fixation>+</div></div>	none	500.0	test	n/a	n/a	n/a	n/a	n/a	n/a	n/a	n/a	n/a	n/a	n/a	n/a	n/a	n/a	n/a	n/a	n/a	n/a	fixation
298853.11192736169	700.0	n/a	909	89	2750	140.888072638	stim	stop-signal	721	1936368	0.0-27.18-1.18	beast_fmri_test	358	1933685,/,1934364,/,1935042,/,1935723,/,1936401,/	t,t,t,t,t	<img class = center src='/static/experiments/beast_fmri_test/images/V.png'></img>	71,89	2750.0	test	<img class = center src='/static/experiments/beast_fmri_test/images/redV.png'></img>	stop	2050.0	2.0	18.0	stop	non-target	V	71,Index Finger	89,Middle Finger	550.0	700.0	2200.0	2050.0	0.0	700.0	n/a	0.0	go_stim
300903.11192736169	2050.0	n/a	909	89	2750	140.888072638	stim	stop-signal	721	1936368	0.0-27.18-1.18	beast_fmri_test	358	1933685,/,1934364,/,1935042,/,1935723,/,1936401,/	t,t,t,t,t	<img class = center src='/static/experiments/beast_fmri_test/images/V.png'></img>	71,89	2750.0	test	<img class = center src='/static/experiments/beast_fmri_test/images/redV.png'></img>	stop	2050.0	2.0	18.0	stop	non-target	V	71,Index Finger	89,Middle Finger	550.0	700.0	2200.0	2050.0	0.0	700.0	n/a	0.0	stop_stim
301603.11192736169	140.888072638	n/a	909	89	2750	140.888072638	stim	stop-signal	721	1936368	0.0-27.18-1.18	beast_fmri_test	358	1933685,/,1934364,/,1935042,/,1935723,/,1936401,/	t,t,t,t,t	<img class = center src='/static/experiments/beast_fmri_test/images/V.png'></img>	71,89	2750.0	test	<img class = center src='/static/experiments/beast_fmri_test/images/redV.png'></img>	stop	2050.0	2.0	18.0	stop	non-target	V	71,Index Finger	89,Middle Finger	550.0	700.0	2200.0	2050.0	0.0	700.0	n/a	0.0	ITI
302456	500.0	n/a	-1	-1	500	0.0	fixation	poldrack-single-stim	722	1937080	0.0-27.19-0.19	beast_fmri_test	358	n/a	n/a	<div class = centerbox2><div class = fixation>+</div></div>	none	500.0	test	n/a	n/a	n/a	n/a	n/a	n/a	n/a	n/a	n/a	n/a	n/a	n/a	n/a	n/a	n/a	n/a	n/a	n/a	fixation
301617.66959043103	2750.0	n/a	-1	-1	2750	840.330409569	stim	stop-signal	723	1939832	0.0-27.19-1.19	beast_fmri_test	358	1937083,/,1937762,/,1938441,/,1939122,/,1939800,/,1940480,/	t,t,t,t,t,t	<img class = center src='/static/experiments/beast_fmri_test/images/V.png'></img>	71,89	2750.0	test	<img class = center src='/static/experiments/beast_fmri_test/images/redV.png'></img>	go	2200.0	2.0	19.0	go	target	V	71,Index Finger	89,Middle Finger	550.0	650.0	2200.0	2050.0	0.0	550.0	0.0	n/a	go_stim
304367.66959043103	840.330409569	n/a	-1	-1	2750	840.330409569	stim	stop-signal	723	1939832	0.0-27.19-1.19	beast_fmri_test	358	1937083,/,1937762,/,1938441,/,1939122,/,1939800,/,1940480,/	t,t,t,t,t,t	<img class = center src='/static/experiments/beast_fmri_test/images/V.png'></img>	71,89	2750.0	test	<img class = center src='/static/experiments/beast_fmri_test/images/redV.png'></img>	go	2200.0	2.0	19.0	go	target	V	71,Index Finger	89,Middle Finger	550.0	650.0	2200.0	2050.0	0.0	550.0	0.0	n/a	ITI
306631	500.0	n/a	-1	-1	500	0.0	fixation	poldrack-single-stim	724	1941255	0.0-27.20-0.20	beast_fmri_test	358	1941159,/	t	<div class = centerbox2><div class = fixation>+</div></div>	none	500.0	test	n/a	n/a	n/a	n/a	n/a	n/a	n/a	n/a	n/a	n/a	n/a	n/a	n/a	n/a	n/a	n/a	n/a	n/a	fixation
305564.42779599852	2750.0	n/a	-1	-1	2750	1067.572204	stim	stop-signal	725	1944006	0.0-27.20-1.20	beast_fmri_test	358	1941839,/,1942519,/,1943200,/,1943878,/,1944559,/	t,t,t,t,t	<img class = center src='/static/experiments/beast_fmri_test/images/V.png'></img>	71,89	2750.0	test	<img class = center src='/static/experiments/beast_fmri_test/images/redV.png'></img>	go	2200.0	2.0	20.0	go	target	V	71,Index Finger	89,Middle Finger	550.0	650.0	2200.0	2050.0	0.0	550.0	0.0	n/a	go_stim
308314.42779599852	1067.572204	n/a	-1	-1	2750	1067.572204	stim	stop-signal	725	1944006	0.0-27.20-1.20	beast_fmri_test	358	1941839,/,1942519,/,1943200,/,1943878,/,1944559,/	t,t,t,t,t	<img class = center src='/static/experiments/beast_fmri_test/images/V.png'></img>	71,89	2750.0	test	<img class = center src='/static/experiments/beast_fmri_test/images/redV.png'></img>	go	2200.0	2.0	20.0	go	target	V	71,Index Finger	89,Middle Finger	550.0	650.0	2200.0	2050.0	0.0	550.0	0.0	n/a	ITI
311027	500.0	n/a	-1	-1	500	0.0	fixation	poldrack-single-stim	726	1945651	0.0-27.21-0.21	beast_fmri_test	358	1945238,/	t	<div class = centerbox2><div class = fixation>+</div></div>	none	500.0	test	n/a	n/a	n/a	n/a	n/a	n/a	n/a	n/a	n/a	n/a	n/a	n/a	n/a	n/a	n/a	n/a	n/a	n/a	fixation
309378.8949876267	2750.0	n/a	2232	89	2750	1649.10501237	stim	stop-signal	727	1948402	0.0-27.21-1.21	beast_fmri_test	358	1945918,/,1946598,/,1947277,/,1947957,/,1948637,/,1949317,/,1949996,/	t,t,t,t,t,t,t	<img class = center src='/static/experiments/beast_fmri_test/images/T.png'></img>	71,89	2750.0	test	<img class = center src='/static/experiments/beast_fmri_test/images/redT.png'></img>	go	2100.0	2.0	21.0	go	non-target	T	71,Index Finger	89,Middle Finger	550.0	650.0	2200.0	2100.0	1.0	650.0	1.0	n/a	go_stim
312128.8949876267	1649.10501237	n/a	2232	89	2750	1649.10501237	stim	stop-signal	727	1948402	0.0-27.21-1.21	beast_fmri_test	358	1945918,/,1946598,/,1947277,/,1947957,/,1948637,/,1949317,/,1949996,/	t,t,t,t,t,t,t	<img class = center src='/static/experiments/beast_fmri_test/images/T.png'></img>	71,89	2750.0	test	<img class = center src='/static/experiments/beast_fmri_test/images/redT.png'></img>	go	2100.0	2.0	21.0	go	non-target	T	71,Index Finger	89,Middle Finger	550.0	650.0	2200.0	2100.0	1.0	650.0	1.0	n/a	ITI
315994	500.0	n/a	-1	-1	500	0.0	fixation	poldrack-single-stim	728	1950618	0.0-27.22-0.22	beast_fmri_test	358	n/a	n/a	<div class = centerbox2><div class = fixation>+</div></div>	none	500.0	test	n/a	n/a	n/a	n/a	n/a	n/a	n/a	n/a	n/a	n/a	n/a	n/a	n/a	n/a	n/a	n/a	n/a	n/a	fixation
315767.76380973286	2750.0	n/a	926	71	2750	228.236190267	stim	stop-signal	729	1953370	0.0-27.22-1.22	beast_fmri_test	358	1950676,/,1951354,/,1952035,/,1952714,/,1953393,/	t,t,t,t,t	<img class = center src='/static/experiments/beast_fmri_test/images/V.png'></img>	71,89	2750.0	test	<img class = center src='/static/experiments/beast_fmri_test/images/redV.png'></img>	go	2200.0	2.0	22.0	go	target	V	71,Index Finger	89,Middle Finger	550.0	650.0	2200.0	2100.0	1.0	550.0	1.0	n/a	go_stim
