onset	duration	text	rt	key_press	block_duration	timing_post_trial	trial_id	trial_type	trial_index	time_elapsed	internal_node_id	exp_id	subject_id	trigger_times	triggers	stimulus	possible_responses	stim_duration	exp_stage	SS_stimulus	SS_trial_type	SS_duration	load	trial_num	stop_trial_type	adaptive_trial_type	stim	yes_response_key	no_response_key	SSD_target	SSD_non_target	SSTarget	SSNonTarget	go_acc	SS_delay	adaptive_acc	stop_acc	new_trial_type
test	10880	n/a	-1	-1	10880	0.0	practice-no-stop-feedback	poldrack-single-stim	200	609660	0.0-12.0	beast_fmri_test	358	598784,/,599464,/,600142,/,600823,/,601503,/,602183,/,602862,/,603543,/,604223,/,604902,/,605581,/,606261,/,606941,/,607620,/,608301,/,608979,/,609659,/	t,t,t,t,t,t,t,t,t,t,t,t,t,t,t,t,t	"<div class = ""centerbox""><p class = ""block-text"">Your delay is 2 trials.</p><p class = block-text>Please wait for the scanner to start the block</p></div>"	77	10880.0	n/a	n/a	n/a	n/a	n/a	n/a	n/a	n/a	n/a	n/a	n/a	n/a	n/a	n/a	n/a	n/a	n/a	n/a	n/a	start_functional_block
11379	500	n/a	-1	-1	500	0.0	fixation	poldrack-single-stim	201	610163	0.0-13.0-0.0	beast_fmri_test	358	n/a	n/a	<div class = centerbox2><div class = fixation>+</div></div>	none	500.0	test	n/a	n/a	n/a	n/a	n/a	n/a	n/a	n/a	n/a	n/a	n/a	n/a	n/a	n/a	n/a	n/a	n/a	n/a	fixation
10102.498633285868	2750	n/a	1042	89	2750	1277.50136671	stim	stop-signal	202	612914	0.0-13.0-1.0	beast_fmri_test	358	610338,/,611019,/,611698,/,612379,/,613058,/,613738,/	t,t,t,t,t,t	<img class = center src='/static/experiments/beast_fmri_test/images/B.png'></img>	71,89	2750.0	test	<img class = center src='/static/experiments/beast_fmri_test/images/redB.png'></img>	go	-1.0	2.0	0.0	go	temp-non-target	B	71,Index Finger	89,Middle Finger	600.0	600.0	2150.0	2150.0	0.0	n/a	n/a	n/a	go_stim
12852.498633285868	1277.5013667141741	n/a	1042	89	2750	1277.50136671	stim	stop-signal	202	612914	0.0-13.0-1.0	beast_fmri_test	358	610338,/,611019,/,611698,/,612379,/,613058,/,613738,/	t,t,t,t,t,t	<img class = center src='/static/experiments/beast_fmri_test/images/B.png'></img>	71,89	2750.0	test	<img class = center src='/static/experiments/beast_fmri_test/images/redB.png'></img>	go	-1.0	2.0	0.0	go	temp-non-target	B	71,Index Finger	89,Middle Finger	600.0	600.0	2150.0	2150.0	0.0	n/a	n/a	n/a	ITI
15932	500	n/a	-1	-1	500	0.0	fixation	poldrack-single-stim	203	614716	0.0-13.1-0.1	beast_fmri_test	358	614418,/	t	<div class = centerbox2><div class = fixation>+</div></div>	none	500.0	test	n/a	n/a	n/a	n/a	n/a	n/a	n/a	n/a	n/a	n/a	n/a	n/a	n/a	n/a	n/a	n/a	n/a	n/a	fixation
14583.277094508871	temp_go_duration	n/a	968	89	2750	1348.72290549	stim	stop-signal	204	617466	0.0-13.1-1.1	beast_fmri_test	358	615097,/,615776,/,616455,/,617136,/,617814,/,618495,/	t,t,t,t,t,t	<img class = center src='/static/experiments/beast_fmri_test/images/T.png'></img>	71,89	2750.0	test	<img class = center src='/static/experiments/beast_fmri_test/images/redT.png'></img>	stop	-1.0	2.0	1.0	stop	temp-non-target	T	71,Index Finger	89,Middle Finger	600.0	600.0	2150.0	2150.0	0.0	n/a	n/a	0.0	go_stim
temp-non-target	temp_stop_duration	n/a	968	89	2750	1348.72290549	stim	stop-signal	204	617466	0.0-13.1-1.1	beast_fmri_test	358	615097,/,615776,/,616455,/,617136,/,617814,/,618495,/	t,t,t,t,t,t	<img class = center src='/static/experiments/beast_fmri_test/images/T.png'></img>	71,89	2750.0	test	<img class = center src='/static/experiments/beast_fmri_test/images/redT.png'></img>	stop	-1.0	2.0	1.0	stop	temp-non-target	T	71,Index Finger	89,Middle Finger	600.0	600.0	2150.0	2150.0	0.0	n/a	n/a	0.0	stop_stim
17333.277094508871	1348.7229054911807	n/a	968	89	2750	1348.72290549	stim	stop-signal	204	617466	0.0-13.1-1.1	beast_fmri_test	358	615097,/,615776,/,616455,/,617136,/,617814,/,618495,/	t,t,t,t,t,t	<img class = center src='/static/experiments/beast_fmri_test/images/T.png'></img>	71,89	2750.0	test	<img class = center src='/static/experiments/beast_fmri_test/images/redT.png'></img>	stop	-1.0	2.0	1.0	stop	temp-non-target	T	71,Index Finger	89,Middle Finger	600.0	600.0	2150.0	2150.0	0.0	n/a	n/a	0.0	ITI
20552	500	n/a	-1	-1	500	0.0	fixation	poldrack-single-stim	205	619336	0.0-13.2-0.2	beast_fmri_test	358	619174,/	t	<div class = centerbox2><div class = fixation>+</div></div>	none	500.0	test	n/a	n/a	n/a	n/a	n/a	n/a	n/a	n/a	n/a	n/a	n/a	n/a	n/a	n/a	n/a	n/a	n/a	n/a	fixation
20471.167935134144	600.0	n/a	597	89	2750	82.8320648658	stim	stop-signal	206	622088	0.0-13.2-1.2	beast_fmri_test	358	619855,/,620533,/,621212,/,621893,/	t,t,t,t	<img class = center src='/static/experiments/beast_fmri_test/images/V.png'></img>	71,89	2750.0	test	<img class = center src='/static/experiments/beast_fmri_test/images/redV.png'></img>	stop	2150.0	2.0	2.0	stop	non-target	V	71,Index Finger	89,Middle Finger	600.0	600.0	2150.0	2150.0	0.0	600.0	n/a	0.0	go_stim
22621.167935134144	2150.0	n/a	597	89	2750	82.8320648658	stim	stop-signal	206	622088	0.0-13.2-1.2	beast_fmri_test	358	619855,/,620533,/,621212,/,621893,/	t,t,t,t	<img class = center src='/static/experiments/beast_fmri_test/images/V.png'></img>	71,89	2750.0	test	<img class = center src='/static/experiments/beast_fmri_test/images/redV.png'></img>	stop	2150.0	2.0	2.0	stop	non-target	V	71,Index Finger	89,Middle Finger	600.0	600.0	2150.0	2150.0	0.0	600.0	n/a	0.0	stop_stim
23221.167935134144	82.832064865828954	n/a	597	89	2750	82.8320648658	stim	stop-signal	206	622088	0.0-13.2-1.2	beast_fmri_test	358	619855,/,620533,/,621212,/,621893,/	t,t,t,t	<img class = center src='/static/experiments/beast_fmri_test/images/V.png'></img>	71,89	2750.0	test	<img class = center src='/static/experiments/beast_fmri_test/images/redV.png'></img>	stop	2150.0	2.0	2.0	stop	non-target	V	71,Index Finger	89,Middle Finger	600.0	600.0	2150.0	2150.0	0.0	600.0	n/a	0.0	ITI
23908	500	n/a	-1	-1	500	0.0	fixation	poldrack-single-stim	207	622692	0.0-13.3-0.3	beast_fmri_test	358	622574,/	t	<div class = centerbox2><div class = fixation>+</div></div>	none	500.0	test	n/a	n/a	n/a	n/a	n/a	n/a	n/a	n/a	n/a	n/a	n/a	n/a	n/a	n/a	n/a	n/a	n/a	n/a	fixation
23545.939258357626	600.0	n/a	495	71	2750	363.060741642	stim	stop-signal	208	625443	0.0-13.3-1.3	beast_fmri_test	358	623253,/,623932,/,624612,/,625291,/	t,t,t,t	<img class = center src='/static/experiments/beast_fmri_test/images/T.png'></img>	71,89	2750.0	test	<img class = center src='/static/experiments/beast_fmri_test/images/redT.png'></img>	stop	2150.0	2.0	3.0	stop	target	T	71,Index Finger	89,Middle Finger	600.0	550.0	2150.0	2150.0	0.0	600.0	n/a	0.0	go_stim
25695.939258357626	2150.0	n/a	495	71	2750	363.060741642	stim	stop-signal	208	625443	0.0-13.3-1.3	beast_fmri_test	358	623253,/,623932,/,624612,/,625291,/	t,t,t,t	<img class = center src='/static/experiments/beast_fmri_test/images/T.png'></img>	71,89	2750.0	test	<img class = center src='/static/experiments/beast_fmri_test/images/redT.png'></img>	stop	2150.0	2.0	3.0	stop	target	T	71,Index Finger	89,Middle Finger	600.0	550.0	2150.0	2150.0	0.0	600.0	n/a	0.0	stop_stim
26295.939258357626	363.06074164234741	n/a	495	71	2750	363.060741642	stim	stop-signal	208	625443	0.0-13.3-1.3	beast_fmri_test	358	623253,/,623932,/,624612,/,625291,/	t,t,t,t	<img class = center src='/static/experiments/beast_fmri_test/images/T.png'></img>	71,89	2750.0	test	<img class = center src='/static/experiments/beast_fmri_test/images/redT.png'></img>	stop	2150.0	2.0	3.0	stop	target	T	71,Index Finger	89,Middle Finger	600.0	550.0	2150.0	2150.0	0.0	600.0	n/a	0.0	ITI
27543	500	n/a	-1	-1	500	0.0	fixation	poldrack-single-stim	209	626327	0.0-13.4-0.4	beast_fmri_test	358	625972,/	t	<div class = centerbox2><div class = fixation>+</div></div>	none	500.0	test	n/a	n/a	n/a	n/a	n/a	n/a	n/a	n/a	n/a	n/a	n/a	n/a	n/a	n/a	n/a	n/a	n/a	n/a	fixation
27399.231542773661	2750	n/a	708	71	2750	145.768457226	stim	stop-signal	210	629079	0.0-13.4-1.4	beast_fmri_test	358	626650,/,627332,/,628010,/,628690,/	t,t,t,t	<img class = center src='/static/experiments/beast_fmri_test/images/V.png'></img>	71,89	2750.0	test	<img class = center src='/static/experiments/beast_fmri_test/images/redV.png'></img>	go	2200.0	2.0	4.0	go	target	V	71,Index Finger	89,Middle Finger	550.0	550.0	2200.0	2150.0	1.0	550.0	1.0	n/a	go_stim
30149.231542773661	145.76845722628789	n/a	708	71	2750	145.768457226	stim	stop-signal	210	629079	0.0-13.4-1.4	beast_fmri_test	358	626650,/,627332,/,628010,/,628690,/	t,t,t,t	<img class = center src='/static/experiments/beast_fmri_test/images/V.png'></img>	71,89	2750.0	test	<img class = center src='/static/experiments/beast_fmri_test/images/redV.png'></img>	go	2200.0	2.0	4.0	go	target	V	71,Index Finger	89,Middle Finger	550.0	550.0	2200.0	2150.0	1.0	550.0	1.0	n/a	ITI
30965	500	n/a	-1	-1	500	0.0	fixation	poldrack-single-stim	211	629749	0.0-13.5-0.5	beast_fmri_test	358	629370,/	t	<div class = centerbox2><div class = fixation>+</div></div>	none	500.0	test	n/a	n/a	n/a	n/a	n/a	n/a	n/a	n/a	n/a	n/a	n/a	n/a	n/a	n/a	n/a	n/a	n/a	n/a	fixation
30075.385103052366	2750	n/a	729	71	2750	890.614896948	stim	stop-signal	212	632500	0.0-13.5-1.5	beast_fmri_test	358	630048,/,630729,/,631409,/,632089,/,632768,/	t,t,t,t,t	<img class = center src='/static/experiments/beast_fmri_test/images/T.png'></img>	71,89	2750.0	test	<img class = center src='/static/experiments/beast_fmri_test/images/redT.png'></img>	go	2200.0	2.0	5.0	go	target	T	71,Index Finger	89,Middle Finger	550.0	550.0	2200.0	2150.0	1.0	550.0	1.0	n/a	go_stim
32825.385103052366	890.61489694759825	n/a	729	71	2750	890.614896948	stim	stop-signal	212	632500	0.0-13.5-1.5	beast_fmri_test	358	630048,/,630729,/,631409,/,632089,/,632768,/	t,t,t,t,t	<img class = center src='/static/experiments/beast_fmri_test/images/T.png'></img>	71,89	2750.0	test	<img class = center src='/static/experiments/beast_fmri_test/images/redT.png'></img>	go	2200.0	2.0	5.0	go	target	T	71,Index Finger	89,Middle Finger	550.0	550.0	2200.0	2150.0	1.0	550.0	1.0	n/a	ITI
35128	500	n/a	-1	-1	500	0.0	fixation	poldrack-single-stim	213	633912	0.0-13.6-0.6	beast_fmri_test	358	633448,/	t	<div class = centerbox2><div class = fixation>+</div></div>	none	500.0	test	n/a	n/a	n/a	n/a	n/a	n/a	n/a	n/a	n/a	n/a	n/a	n/a	n/a	n/a	n/a	n/a	n/a	n/a	fixation
34851.394321344793	550.0	n/a	613	71	2750	278.605678655	stim	stop-signal	214	636664	0.0-13.6-1.6	beast_fmri_test	358	634128,/,634808,/,635488,/,636168,/,636847,/	t,t,t,t,t	<img class = center src='/static/experiments/beast_fmri_test/images/V.png'></img>	71,89	2750.0	test	<img class = center src='/static/experiments/beast_fmri_test/images/redV.png'></img>	stop	2200.0	2.0	6.0	stop	target	V	71,Index Finger	89,Middle Finger	550.0	550.0	2200.0	2150.0	0.0	550.0	n/a	0.0	go_stim
37051.394321344793	2200.0	n/a	613	71	2750	278.605678655	stim	stop-signal	214	636664	0.0-13.6-1.6	beast_fmri_test	358	634128,/,634808,/,635488,/,636168,/,636847,/	t,t,t,t,t	<img class = center src='/static/experiments/beast_fmri_test/images/V.png'></img>	71,89	2750.0	test	<img class = center src='/static/experiments/beast_fmri_test/images/redV.png'></img>	stop	2200.0	2.0	6.0	stop	target	V	71,Index Finger	89,Middle Finger	550.0	550.0	2200.0	2150.0	0.0	550.0	n/a	0.0	stop_stim
37601.394321344793	278.60567865519658	n/a	613	71	2750	278.605678655	stim	stop-signal	214	636664	0.0-13.6-1.6	beast_fmri_test	358	634128,/,634808,/,635488,/,636168,/,636847,/	t,t,t,t,t	<img class = center src='/static/experiments/beast_fmri_test/images/V.png'></img>	71,89	2750.0	test	<img class = center src='/static/experiments/beast_fmri_test/images/redV.png'></img>	stop	2200.0	2.0	6.0	stop	target	V	71,Index Finger	89,Middle Finger	550.0	550.0	2200.0	2150.0	0.0	550.0	n/a	0.0	ITI
38686	500	n/a	-1	-1	500	0.0	fixation	poldrack-single-stim	215	637470	0.0-13.7-0.7	beast_fmri_test	358	n/a	n/a	<div class = centerbox2><div class = fixation>+</div></div>	none	500.0	test	n/a	n/a	n/a	n/a	n/a	n/a	n/a	n/a	n/a	n/a	n/a	n/a	n/a	n/a	n/a	n/a	n/a	n/a	fixation
38005.96996406815	550.0	n/a	859	89	2750	681.030035932	stim	stop-signal	216	640221	0.0-13.7-1.7	beast_fmri_test	358	637526,/,638206,/,638886,/,639564,/,640244,/	t,t,t,t,t	<img class = center src='/static/experiments/beast_fmri_test/images/P.png'></img>	71,89	2750.0	test	<img class = center src='/static/experiments/beast_fmri_test/images/redP.png'></img>	stop	2200.0	2.0	7.0	stop	non-target	P	71,Index Finger	89,Middle Finger	500.0	550.0	2200.0	2200.0	0.0	550.0	n/a	0.0	go_stim
40205.96996406815	2200.0	n/a	859	89	2750	681.030035932	stim	stop-signal	216	640221	0.0-13.7-1.7	beast_fmri_test	358	637526,/,638206,/,638886,/,639564,/,640244,/	t,t,t,t,t	<img class = center src='/static/experiments/beast_fmri_test/images/P.png'></img>	71,89	2750.0	test	<img class = center src='/static/experiments/beast_fmri_test/images/redP.png'></img>	stop	2200.0	2.0	7.0	stop	non-target	P	71,Index Finger	89,Middle Finger	500.0	550.0	2200.0	2200.0	0.0	550.0	n/a	0.0	stop_stim
40755.96996406815	681.03003593180927	n/a	859	89	2750	681.030035932	stim	stop-signal	216	640221	0.0-13.7-1.7	beast_fmri_test	358	637526,/,638206,/,638886,/,639564,/,640244,/	t,t,t,t,t	<img class = center src='/static/experiments/beast_fmri_test/images/P.png'></img>	71,89	2750.0	test	<img class = center src='/static/experiments/beast_fmri_test/images/redP.png'></img>	stop	2200.0	2.0	7.0	stop	non-target	P	71,Index Finger	89,Middle Finger	500.0	550.0	2200.0	2200.0	0.0	550.0	n/a	0.0	ITI
42644	500	n/a	-1	-1	500	0.0	fixation	poldrack-single-stim	217	641428	0.0-13.8-0.8	beast_fmri_test	358	640927,/	t	<div class = centerbox2><div class = fixation>+</div></div>	none	500.0	test	n/a	n/a	n/a	n/a	n/a	n/a	n/a	n/a	n/a	n/a	n/a	n/a	n/a	n/a	n/a	n/a	n/a	n/a	fixation
37958.696887429571	2750	n/a	935	71	2750	4687.30311257	stim	stop-signal	218	644180	0.0-13.8-1.8	beast_fmri_test	358	641605,/,642284,/,642964,/,643643,/,644322,/,645003,/,645682,/,646363,/,647041,/,647722,/,648401,/	t,t,t,t,t,t,t,t,t,t,t	<img class = center src='/static/experiments/beast_fmri_test/images/V.png'></img>	71,89	2750.0	test	<img class = center src='/static/experiments/beast_fmri_test/images/redV.png'></img>	go	2250.0	2.0	8.0	go	target	V	71,Index Finger	89,Middle Finger	500.0	500.0	2250.0	2200.0	1.0	500.0	1.0	n/a	go_stim
40708.696887429571	4687.3031125704301	n/a	935	71	2750	4687.30311257	stim	stop-signal	218	644180	0.0-13.8-1.8	beast_fmri_test	358	641605,/,642284,/,642964,/,643643,/,644322,/,645003,/,645682,/,646363,/,647041,/,647722,/,648401,/	t,t,t,t,t,t,t,t,t,t,t	<img class = center src='/static/experiments/beast_fmri_test/images/V.png'></img>	71,89	2750.0	test	<img class = center src='/static/experiments/beast_fmri_test/images/redV.png'></img>	go	2250.0	2.0	8.0	go	target	V	71,Index Finger	89,Middle Finger	500.0	500.0	2250.0	2200.0	1.0	500.0	1.0	n/a	ITI
50607	500	n/a	-1	-1	500	0.0	fixation	poldrack-single-stim	219	649391	0.0-13.9-0.9	beast_fmri_test	358	649082,/	t	<div class = centerbox2><div class = fixation>+</div></div>	none	500.0	test	n/a	n/a	n/a	n/a	n/a	n/a	n/a	n/a	n/a	n/a	n/a	n/a	n/a	n/a	n/a	n/a	n/a	n/a	fixation
47232.437210483593	500.0	n/a	-1	-1	2750	3376.56278952	stim	stop-signal	220	652143	0.0-13.9-1.9	beast_fmri_test	358	649760,/,650442,/,651120,/,651800,/,652479,/,653160,/,653839,/,654519,/,655199,/	t,t,t,t,t,t,t,t,t	<img class = center src='/static/experiments/beast_fmri_test/images/P.png'></img>	71,89	2750.0	test	<img class = center src='/static/experiments/beast_fmri_test/images/redP.png'></img>	stop	2250.0	2.0	9.0	stop	target	P	71,Index Finger	89,Middle Finger	500.0	500.0	2250.0	2200.0	0.0	500.0	n/a	1.0	go_stim
49482.437210483593	2250.0	n/a	-1	-1	2750	3376.56278952	stim	stop-signal	220	652143	0.0-13.9-1.9	beast_fmri_test	358	649760,/,650442,/,651120,/,651800,/,652479,/,653160,/,653839,/,654519,/,655199,/	t,t,t,t,t,t,t,t,t	<img class = center src='/static/experiments/beast_fmri_test/images/P.png'></img>	71,89	2750.0	test	<img class = center src='/static/experiments/beast_fmri_test/images/redP.png'></img>	stop	2250.0	2.0	9.0	stop	target	P	71,Index Finger	89,Middle Finger	500.0	500.0	2250.0	2200.0	0.0	500.0	n/a	1.0	stop_stim
49982.437210483593	3376.5627895163743	n/a	-1	-1	2750	3376.56278952	stim	stop-signal	220	652143	0.0-13.9-1.9	beast_fmri_test	358	649760,/,650442,/,651120,/,651800,/,652479,/,653160,/,653839,/,654519,/,655199,/	t,t,t,t,t,t,t,t,t	<img class = center src='/static/experiments/beast_fmri_test/images/P.png'></img>	71,89	2750.0	test	<img class = center src='/static/experiments/beast_fmri_test/images/redP.png'></img>	stop	2250.0	2.0	9.0	stop	target	P	71,Index Finger	89,Middle Finger	500.0	500.0	2250.0	2200.0	0.0	500.0	n/a	1.0	ITI
57262	500	n/a	-1	-1	500	0.0	fixation	poldrack-single-stim	221	656046	0.0-13.10-0.10	beast_fmri_test	358	655877,/	t	<div class = centerbox2><div class = fixation>+</div></div>	none	500.0	test	n/a	n/a	n/a	n/a	n/a	n/a	n/a	n/a	n/a	n/a	n/a	n/a	n/a	n/a	n/a	n/a	n/a	n/a	fixation
57169.865899130586	2750	n/a	1142	89	2750	92.1341008694	stim	stop-signal	222	658796	0.0-13.10-1.10	beast_fmri_test	358	656558,/,657237,/,657918,/,658595,/	t,t,t,t	<img class = center src='/static/experiments/beast_fmri_test/images/P.png'></img>	71,89	2750.0	test	<img class = center src='/static/experiments/beast_fmri_test/images/redP.png'></img>	go	2250.0	2.0	10.0	go	non-target	P	71,Index Finger	89,Middle Finger	550.0	500.0	2250.0	2250.0	1.0	500.0	1.0	n/a	go_stim
59919.865899130586	92.13410086943415	n/a	1142	89	2750	92.1341008694	stim	stop-signal	222	658796	0.0-13.10-1.10	beast_fmri_test	358	656558,/,657237,/,657918,/,658595,/	t,t,t,t	<img class = center src='/static/experiments/beast_fmri_test/images/P.png'></img>	71,89	2750.0	test	<img class = center src='/static/experiments/beast_fmri_test/images/redP.png'></img>	go	2250.0	2.0	10.0	go	non-target	P	71,Index Finger	89,Middle Finger	550.0	500.0	2250.0	2250.0	1.0	500.0	1.0	n/a	ITI
60629	500	n/a	-1	-1	500	0.0	fixation	poldrack-single-stim	223	659413	0.0-13.11-0.11	beast_fmri_test	358	659277,/	t	<div class = centerbox2><div class = fixation>+</div></div>	none	500.0	test	n/a	n/a	n/a	n/a	n/a	n/a	n/a	n/a	n/a	n/a	n/a	n/a	n/a	n/a	n/a	n/a	n/a	n/a	fixation
59119.655228457763	2750	n/a	1148	89	2750	1512.34477154	stim	stop-signal	224	662166	0.0-13.11-1.11	beast_fmri_test	358	659956,/,660637,/,661315,/,661996,/,662675,/,663356,/	t,t,t,t,t,t	<img class = center src='/static/experiments/beast_fmri_test/images/V.png'></img>	71,89	2750.0	test	<img class = center src='/static/experiments/beast_fmri_test/images/redV.png'></img>	go	2250.0	2.0	11.0	go	non-target	V	71,Index Finger	89,Middle Finger	550.0	500.0	2250.0	2250.0	1.0	500.0	1.0	n/a	go_stim
61869.655228457763	1512.3447715422653	n/a	1148	89	2750	1512.34477154	stim	stop-signal	224	662166	0.0-13.11-1.11	beast_fmri_test	358	659956,/,660637,/,661315,/,661996,/,662675,/,663356,/	t,t,t,t,t,t	<img class = center src='/static/experiments/beast_fmri_test/images/V.png'></img>	71,89	2750.0	test	<img class = center src='/static/experiments/beast_fmri_test/images/redV.png'></img>	go	2250.0	2.0	11.0	go	non-target	V	71,Index Finger	89,Middle Finger	550.0	500.0	2250.0	2250.0	1.0	500.0	1.0	n/a	ITI
65420	500	n/a	-1	-1	500	0.0	fixation	poldrack-single-stim	225	664204	0.0-13.12-0.12	beast_fmri_test	358	664036,/	t	<div class = centerbox2><div class = fixation>+</div></div>	none	500.0	test	n/a	n/a	n/a	n/a	n/a	n/a	n/a	n/a	n/a	n/a	n/a	n/a	n/a	n/a	n/a	n/a	n/a	n/a	fixation
63687.473956686328	2750	n/a	979	89	2750	1733.52604331	stim	stop-signal	226	666955	0.0-13.12-1.12	beast_fmri_test	358	664714,/,665395,/,666074,/,666753,/,667432,/,668113,/	t,t,t,t,t,t	<img class = center src='/static/experiments/beast_fmri_test/images/B.png'></img>	71,89	2750.0	test	<img class = center src='/static/experiments/beast_fmri_test/images/redB.png'></img>	go	2250.0	2.0	12.0	go	non-target	B	71,Index Finger	89,Middle Finger	550.0	500.0	2250.0	2250.0	1.0	500.0	1.0	n/a	go_stim
66437.473956686328	1733.5260433137296	n/a	979	89	2750	1733.52604331	stim	stop-signal	226	666955	0.0-13.12-1.12	beast_fmri_test	358	664714,/,665395,/,666074,/,666753,/,667432,/,668113,/	t,t,t,t,t,t	<img class = center src='/static/experiments/beast_fmri_test/images/B.png'></img>	71,89	2750.0	test	<img class = center src='/static/experiments/beast_fmri_test/images/redB.png'></img>	go	2250.0	2.0	12.0	go	non-target	B	71,Index Finger	89,Middle Finger	550.0	500.0	2250.0	2250.0	1.0	500.0	1.0	n/a	ITI
70432	500	n/a	-1	-1	500	0.0	fixation	poldrack-single-stim	227	669216	0.0-13.13-0.13	beast_fmri_test	358	668792,/	t	<div class = centerbox2><div class = fixation>+</div></div>	none	500.0	test	n/a	n/a	n/a	n/a	n/a	n/a	n/a	n/a	n/a	n/a	n/a	n/a	n/a	n/a	n/a	n/a	n/a	n/a	fixation
68628.657646270702	2750	n/a	1217	71	2750	1803.34235373	stim	stop-signal	228	671966	0.0-13.13-1.13	beast_fmri_test	358	669473,/,670151,/,670831,/,671511,/,672191,/,672871,/,673550,/	t,t,t,t,t,t,t	<img class = center src='/static/experiments/beast_fmri_test/images/V.png'></img>	71,89	2750.0	test	<img class = center src='/static/experiments/beast_fmri_test/images/redV.png'></img>	go	2200.0	2.0	13.0	go	target	V	71,Index Finger	89,Middle Finger	550.0	500.0	2200.0	2250.0	1.0	550.0	1.0	n/a	go_stim
71378.657646270702	1803.3423537293077	n/a	1217	71	2750	1803.34235373	stim	stop-signal	228	671966	0.0-13.13-1.13	beast_fmri_test	358	669473,/,670151,/,670831,/,671511,/,672191,/,672871,/,673550,/	t,t,t,t,t,t,t	<img class = center src='/static/experiments/beast_fmri_test/images/V.png'></img>	71,89	2750.0	test	<img class = center src='/static/experiments/beast_fmri_test/images/redV.png'></img>	go	2200.0	2.0	13.0	go	target	V	71,Index Finger	89,Middle Finger	550.0	500.0	2200.0	2250.0	1.0	550.0	1.0	n/a	ITI
75510	500	n/a	-1	-1	500	0.0	fixation	poldrack-single-stim	229	674294	0.0-13.14-0.14	beast_fmri_test	358	674229,/	t	<div class = centerbox2><div class = fixation>+</div></div>	none	500.0	test	n/a	n/a	n/a	n/a	n/a	n/a	n/a	n/a	n/a	n/a	n/a	n/a	n/a	n/a	n/a	n/a	n/a	n/a	fixation
74699.660229882109	500.0	n/a	-1	-1	2750	810.339770118	stim	stop-signal	230	677044	0.0-13.14-1.14	beast_fmri_test	358	674909,/,675589,/,676268,/,676949,/,677627,/	t,t,t,t,t	<img class = center src='/static/experiments/beast_fmri_test/images/V.png'></img>	71,89	2750.0	test	<img class = center src='/static/experiments/beast_fmri_test/images/redV.png'></img>	stop	2250.0	2.0	14.0	stop	non-target	V	71,Index Finger	89,Middle Finger	550.0	500.0	2200.0	2250.0	0.0	500.0	n/a	1.0	go_stim
76949.660229882109	2250.0	n/a	-1	-1	2750	810.339770118	stim	stop-signal	230	677044	0.0-13.14-1.14	beast_fmri_test	358	674909,/,675589,/,676268,/,676949,/,677627,/	t,t,t,t,t	<img class = center src='/static/experiments/beast_fmri_test/images/V.png'></img>	71,89	2750.0	test	<img class = center src='/static/experiments/beast_fmri_test/images/redV.png'></img>	stop	2250.0	2.0	14.0	stop	non-target	V	71,Index Finger	89,Middle Finger	550.0	500.0	2200.0	2250.0	0.0	500.0	n/a	1.0	stop_stim
77449.660229882109	810.33977011792012	n/a	-1	-1	2750	810.339770118	stim	stop-signal	230	677044	0.0-13.14-1.14	beast_fmri_test	358	674909,/,675589,/,676268,/,676949,/,677627,/	t,t,t,t,t	<img class = center src='/static/experiments/beast_fmri_test/images/V.png'></img>	71,89	2750.0	test	<img class = center src='/static/experiments/beast_fmri_test/images/redV.png'></img>	stop	2250.0	2.0	14.0	stop	non-target	V	71,Index Finger	89,Middle Finger	550.0	500.0	2200.0	2250.0	0.0	500.0	n/a	1.0	ITI
79596	500	n/a	-1	-1	500	0.0	fixation	poldrack-single-stim	231	678380	0.0-13.15-0.15	beast_fmri_test	358	678308,/	t	<div class = centerbox2><div class = fixation>+</div></div>	none	500.0	test	n/a	n/a	n/a	n/a	n/a	n/a	n/a	n/a	n/a	n/a	n/a	n/a	n/a	n/a	n/a	n/a	n/a	n/a	fixation
76243.485399592435	2750	n/a	778	71	2750	3354.51460041	stim	stop-signal	232	681132	0.0-13.15-1.15	beast_fmri_test	358	678987,/,679667,/,680346,/,681027,/,681706,/,682385,/,683065,/,683745,/,684425,/	t,t,t,t,t,t,t,t,t	<img class = center src='/static/experiments/beast_fmri_test/images/V.png'></img>	71,89	2750.0	test	<img class = center src='/static/experiments/beast_fmri_test/images/redV.png'></img>	go	2200.0	2.0	15.0	go	target	V	71,Index Finger	89,Middle Finger	550.0	550.0	2200.0	2250.0	1.0	550.0	1.0	n/a	go_stim
78993.485399592435	3354.5146004075732	n/a	778	71	2750	3354.51460041	stim	stop-signal	232	681132	0.0-13.15-1.15	beast_fmri_test	358	678987,/,679667,/,680346,/,681027,/,681706,/,682385,/,683065,/,683745,/,684425,/	t,t,t,t,t,t,t,t,t	<img class = center src='/static/experiments/beast_fmri_test/images/V.png'></img>	71,89	2750.0	test	<img class = center src='/static/experiments/beast_fmri_test/images/redV.png'></img>	go	2200.0	2.0	15.0	go	target	V	71,Index Finger	89,Middle Finger	550.0	550.0	2200.0	2250.0	1.0	550.0	1.0	n/a	ITI
86227	500	n/a	-1	-1	500	0.0	fixation	poldrack-single-stim	233	685011	0.0-13.16-0.16	beast_fmri_test	358	n/a	n/a	<div class = centerbox2><div class = fixation>+</div></div>	none	500.0	test	n/a	n/a	n/a	n/a	n/a	n/a	n/a	n/a	n/a	n/a	n/a	n/a	n/a	n/a	n/a	n/a	n/a	n/a	fixation
86037.770756258862	2750	n/a	884	89	2750	191.229243741	stim	stop-signal	234	687763	0.0-13.16-1.16	beast_fmri_test	358	685104,/,685784,/,686463,/,687143,/,687823,/	t,t,t,t,t	<img class = center src='/static/experiments/beast_fmri_test/images/T.png'></img>	71,89	2750.0	test	<img class = center src='/static/experiments/beast_fmri_test/images/redT.png'></img>	go	2200.0	2.0	16.0	go	non-target	T	71,Index Finger	89,Middle Finger	550.0	550.0	2200.0	2200.0	1.0	550.0	1.0	n/a	go_stim
88787.770756258862	191.2292437411821	n/a	884	89	2750	191.229243741	stim	stop-signal	234	687763	0.0-13.16-1.16	beast_fmri_test	358	685104,/,685784,/,686463,/,687143,/,687823,/	t,t,t,t,t	<img class = center src='/static/experiments/beast_fmri_test/images/T.png'></img>	71,89	2750.0	test	<img class = center src='/static/experiments/beast_fmri_test/images/redT.png'></img>	go	2200.0	2.0	16.0	go	non-target	T	71,Index Finger	89,Middle Finger	550.0	550.0	2200.0	2200.0	1.0	550.0	1.0	n/a	ITI
89694	500	n/a	-1	-1	500	0.0	fixation	poldrack-single-stim	235	688478	0.0-13.17-0.17	beast_fmri_test	358	n/a	n/a	<div class = centerbox2><div class = fixation>+</div></div>	none	500.0	test	n/a	n/a	n/a	n/a	n/a	n/a	n/a	n/a	n/a	n/a	n/a	n/a	n/a	n/a	n/a	n/a	n/a	n/a	fixation
89605.894830519101	2750	n/a	1467	71	2750	90.1051694808	stim	stop-signal	236	691230	0.0-13.17-1.17	beast_fmri_test	358	688503,/,689183,/,689862,/,690542,/,691222,/	t,t,t,t,t	<img class = center src='/static/experiments/beast_fmri_test/images/V.png'></img>	71,89	2750.0	test	<img class = center src='/static/experiments/beast_fmri_test/images/redV.png'></img>	go	2200.0	2.0	17.0	go	target	V	71,Index Finger	89,Middle Finger	550.0	550.0	2200.0	2200.0	1.0	550.0	1.0	n/a	go_stim
92355.894830519101	90.105169480841937	n/a	1467	71	2750	90.1051694808	stim	stop-signal	236	691230	0.0-13.17-1.17	beast_fmri_test	358	688503,/,689183,/,689862,/,690542,/,691222,/	t,t,t,t,t	<img class = center src='/static/experiments/beast_fmri_test/images/V.png'></img>	71,89	2750.0	test	<img class = center src='/static/experiments/beast_fmri_test/images/redV.png'></img>	go	2200.0	2.0	17.0	go	target	V	71,Index Finger	89,Middle Finger	550.0	550.0	2200.0	2200.0	1.0	550.0	1.0	n/a	ITI
93062	500	n/a	-1	-1	500	0.0	fixation	poldrack-single-stim	237	691846	0.0-13.18-0.18	beast_fmri_test	358	n/a	n/a	<div class = centerbox2><div class = fixation>+</div></div>	none	500.0	test	n/a	n/a	n/a	n/a	n/a	n/a	n/a	n/a	n/a	n/a	n/a	n/a	n/a	n/a	n/a	n/a	n/a	n/a	fixation
89991.528523718356	550.0	n/a	-1	-1	2750	3072.47147628	stim	stop-signal	238	694598	0.0-13.18-1.18	beast_fmri_test	358	691901,/,692582,/,693262,/,693941,/,694619,/,695301,/,695980,/,696659,/,697340,/	t,t,t,t,t,t,t,t,t	<img class = center src='/static/experiments/beast_fmri_test/images/B.png'></img>	71,89	2750.0	test	<img class = center src='/static/experiments/beast_fmri_test/images/redB.png'></img>	stop	2200.0	2.0	18.0	stop	non-target	B	71,Index Finger	89,Middle Finger	550.0	550.0	2200.0	2200.0	0.0	550.0	n/a	1.0	go_stim
92191.528523718356	2200.0	n/a	-1	-1	2750	3072.47147628	stim	stop-signal	238	694598	0.0-13.18-1.18	beast_fmri_test	358	691901,/,692582,/,693262,/,693941,/,694619,/,695301,/,695980,/,696659,/,697340,/	t,t,t,t,t,t,t,t,t	<img class = center src='/static/experiments/beast_fmri_test/images/B.png'></img>	71,89	2750.0	test	<img class = center src='/static/experiments/beast_fmri_test/images/redB.png'></img>	stop	2200.0	2.0	18.0	stop	non-target	B	71,Index Finger	89,Middle Finger	550.0	550.0	2200.0	2200.0	0.0	550.0	n/a	1.0	stop_stim
92741.528523718356	3072.4714762815925	n/a	-1	-1	2750	3072.47147628	stim	stop-signal	238	694598	0.0-13.18-1.18	beast_fmri_test	358	691901,/,692582,/,693262,/,693941,/,694619,/,695301,/,695980,/,696659,/,697340,/	t,t,t,t,t,t,t,t,t	<img class = center src='/static/experiments/beast_fmri_test/images/B.png'></img>	71,89	2750.0	test	<img class = center src='/static/experiments/beast_fmri_test/images/redB.png'></img>	stop	2200.0	2.0	18.0	stop	non-target	B	71,Index Finger	89,Middle Finger	550.0	550.0	2200.0	2200.0	0.0	550.0	n/a	1.0	ITI
99414	500	n/a	-1	-1	500	0.0	fixation	poldrack-single-stim	239	698198	0.0-13.19-0.19	beast_fmri_test	358	698019,/	t	<div class = centerbox2><div class = fixation>+</div></div>	none	500.0	test	n/a	n/a	n/a	n/a	n/a	n/a	n/a	n/a	n/a	n/a	n/a	n/a	n/a	n/a	n/a	n/a	n/a	n/a	fixation
98501.475060758297	600.0	n/a	-1	-1	2750	915.524939242	stim	stop-signal	240	700951	0.0-13.19-1.19	beast_fmri_test	358	698699,/,699378,/,700058,/,700738,/,701418,/	t,t,t,t,t	<img class = center src='/static/experiments/beast_fmri_test/images/P.png'></img>	71,89	2750.0	test	<img class = center src='/static/experiments/beast_fmri_test/images/redP.png'></img>	stop	2150.0	2.0	19.0	stop	non-target	P	71,Index Finger	89,Middle Finger	550.0	600.0	2200.0	2150.0	0.0	600.0	n/a	1.0	go_stim
100651.4750607583	2150.0	n/a	-1	-1	2750	915.524939242	stim	stop-signal	240	700951	0.0-13.19-1.19	beast_fmri_test	358	698699,/,699378,/,700058,/,700738,/,701418,/	t,t,t,t,t	<img class = center src='/static/experiments/beast_fmri_test/images/P.png'></img>	71,89	2750.0	test	<img class = center src='/static/experiments/beast_fmri_test/images/redP.png'></img>	stop	2150.0	2.0	19.0	stop	non-target	P	71,Index Finger	89,Middle Finger	550.0	600.0	2200.0	2150.0	0.0	600.0	n/a	1.0	stop_stim
101251.4750607583	915.52493924175235	n/a	-1	-1	2750	915.524939242	stim	stop-signal	240	700951	0.0-13.19-1.19	beast_fmri_test	358	698699,/,699378,/,700058,/,700738,/,701418,/	t,t,t,t,t	<img class = center src='/static/experiments/beast_fmri_test/images/P.png'></img>	71,89	2750.0	test	<img class = center src='/static/experiments/beast_fmri_test/images/redP.png'></img>	stop	2150.0	2.0	19.0	stop	non-target	P	71,Index Finger	89,Middle Finger	550.0	600.0	2200.0	2150.0	0.0	600.0	n/a	1.0	ITI
103610	500	n/a	-1	-1	500	0.0	fixation	poldrack-single-stim	241	702394	0.0-13.20-0.20	beast_fmri_test	358	702098,/	t	<div class = centerbox2><div class = fixation>+</div></div>	none	500.0	test	n/a	n/a	n/a	n/a	n/a	n/a	n/a	n/a	n/a	n/a	n/a	n/a	n/a	n/a	n/a	n/a	n/a	n/a	fixation
102932.21733838995	650.0	n/a	-1	-1	2750	680.78266161	stim	stop-signal	242	705147	0.0-13.20-1.20	beast_fmri_test	358	702777,/,703457,/,704135,/,704816,/,705494,/	t,t,t,t,t	<img class = center src='/static/experiments/beast_fmri_test/images/T.png'></img>	71,89	2750.0	test	<img class = center src='/static/experiments/beast_fmri_test/images/redT.png'></img>	stop	2100.0	2.0	20.0	stop	non-target	T	71,Index Finger	89,Middle Finger	550.0	650.0	2200.0	2100.0	0.0	650.0	n/a	1.0	go_stim
105032.21733838995	2100.0	n/a	-1	-1	2750	680.78266161	stim	stop-signal	242	705147	0.0-13.20-1.20	beast_fmri_test	358	702777,/,703457,/,704135,/,704816,/,705494,/	t,t,t,t,t	<img class = center src='/static/experiments/beast_fmri_test/images/T.png'></img>	71,89	2750.0	test	<img class = center src='/static/experiments/beast_fmri_test/images/redT.png'></img>	stop	2100.0	2.0	20.0	stop	non-target	T	71,Index Finger	89,Middle Finger	550.0	650.0	2200.0	2100.0	0.0	650.0	n/a	1.0	stop_stim
105682.21733838995	680.78266161001193	n/a	-1	-1	2750	680.78266161	stim	stop-signal	242	705147	0.0-13.20-1.20	beast_fmri_test	358	702777,/,703457,/,704135,/,704816,/,705494,/	t,t,t,t,t	<img class = center src='/static/experiments/beast_fmri_test/images/T.png'></img>	71,89	2750.0	test	<img class = center src='/static/experiments/beast_fmri_test/images/redT.png'></img>	stop	2100.0	2.0	20.0	stop	non-target	T	71,Index Finger	89,Middle Finger	550.0	650.0	2200.0	2100.0	0.0	650.0	n/a	1.0	ITI
107569	500	n/a	-1	-1	500	0.0	fixation	poldrack-single-stim	243	706353	0.0-13.21-0.21	beast_fmri_test	358	706176,/	t	<div class = centerbox2><div class = fixation>+</div></div>	none	500.0	test	n/a	n/a	n/a	n/a	n/a	n/a	n/a	n/a	n/a	n/a	n/a	n/a	n/a	n/a	n/a	n/a	n/a	n/a	fixation
106602.56250447943	2750	n/a	930	89	2750	969.437495521	stim	stop-signal	244	709106	0.0-13.21-1.21	beast_fmri_test	358	706854,/,707534,/,708213,/,708894,/,709572,/	t,t,t,t,t	<img class = center src='/static/experiments/beast_fmri_test/images/V.png'></img>	71,89	2750.0	test	<img class = center src='/static/experiments/beast_fmri_test/images/redV.png'></img>	go	2050.0	2.0	21.0	go	non-target	V	71,Index Finger	89,Middle Finger	550.0	700.0	2200.0	2050.0	1.0	700.0	1.0	n/a	go_stim
109352.56250447943	969.43749552060842	n/a	930	89	2750	969.437495521	stim	stop-signal	244	709106	0.0-13.21-1.21	beast_fmri_test	358	706854,/,707534,/,708213,/,708894,/,709572,/	t,t,t,t,t	<img class = center src='/static/experiments/beast_fmri_test/images/V.png'></img>	71,89	2750.0	test	<img class = center src='/static/experiments/beast_fmri_test/images/redV.png'></img>	go	2050.0	2.0	21.0	go	non-target	V	71,Index Finger	89,Middle Finger	550.0	700.0	2200.0	2050.0	1.0	700.0	1.0	n/a	ITI
111814	500	n/a	-1	-1	500	0.0	fixation	poldrack-single-stim	245	710598	0.0-13.22-0.22	beast_fmri_test	358	710253,/	t	<div class = centerbox2><div class = fixation>+</div></div>	none	500.0	test	n/a	n/a	n/a	n/a	n/a	n/a	n/a	n/a	n/a	n/a	n/a	n/a	n/a	n/a	n/a	n/a	n/a	n/a	fixation
111302.74878306396	2750	n/a	934	71	2750	514.251216936	stim	stop-signal	246	713351	0.0-13.22-1.22	beast_fmri_test	358	710932,/,711612,/,712293,/,712972,/,713650,/	t,t,t,t,t	<img class = center src='/static/experiments/beast_fmri_test/images/T.png'></img>	71,89	2750.0	test	<img class = center src='/static/experiments/beast_fmri_test/images/redT.png'></img>	go	2200.0	2.0	22.0	go	target	T	71,Index Finger	89,Middle Finger	550.0	700.0	2200.0	2050.0	1.0	550.0	1.0	n/a	go_stim
114052.74878306396	514.25121693603205	n/a	934	71	2750	514.251216936	stim	stop-signal	246	713351	0.0-13.22-1.22	beast_fmri_test	358	710932,/,711612,/,712293,/,712972,/,713650,/	t,t,t,t,t	<img class = center src='/static/experiments/beast_fmri_test/images/T.png'></img>	71,89	2750.0	test	<img class = center src='/static/experiments/beast_fmri_test/images/redT.png'></img>	go	2200.0	2.0	22.0	go	target	T	71,Index Finger	89,Middle Finger	550.0	700.0	2200.0	2050.0	1.0	550.0	1.0	n/a	ITI
115607	500	n/a	-1	-1	500	0.0	fixation	poldrack-single-stim	247	714391	0.0-13.23-0.23	beast_fmri_test	358	714331,/	t	<div class = centerbox2><div class = fixation>+</div></div>	none	500.0	test	n/a	n/a	n/a	n/a	n/a	n/a	n/a	n/a	n/a	n/a	n/a	n/a	n/a	n/a	n/a	n/a	n/a	n/a	fixation
114963.37176370458	2750	n/a	634	89	2750	644.628236295	stim	stop-signal	248	717142	0.0-13.23-1.23	beast_fmri_test	358	715011,/,715689,/,716370,/,717050,/,717729,/	t,t,t,t,t	<img class = center src='/static/experiments/beast_fmri_test/images/D.png'></img>	71,89	2750.0	test	<img class = center src='/static/experiments/beast_fmri_test/images/redD.png'></img>	go	2050.0	2.0	23.0	go	non-target	D	71,Index Finger	89,Middle Finger	550.0	700.0	2200.0	2050.0	1.0	700.0	1.0	n/a	go_stim
117713.37176370458	644.62823629546506	n/a	634	89	2750	644.628236295	stim	stop-signal	248	717142	0.0-13.23-1.23	beast_fmri_test	358	715011,/,715689,/,716370,/,717050,/,717729,/	t,t,t,t,t	<img class = center src='/static/experiments/beast_fmri_test/images/D.png'></img>	71,89	2750.0	test	<img class = center src='/static/experiments/beast_fmri_test/images/redD.png'></img>	go	2050.0	2.0	23.0	go	non-target	D	71,Index Finger	89,Middle Finger	550.0	700.0	2200.0	2050.0	1.0	700.0	1.0	n/a	ITI
119528	500	n/a	-1	-1	500	0.0	fixation	poldrack-single-stim	249	718312	0.0-13.24-0.24	beast_fmri_test	358	n/a	n/a	<div class = centerbox2><div class = fixation>+</div></div>	none	500.0	test	n/a	n/a	n/a	n/a	n/a	n/a	n/a	n/a	n/a	n/a	n/a	n/a	n/a	n/a	n/a	n/a	n/a	n/a	fixation
117837.27525941539	550.0	n/a	-1	-1	2750	1691.72474058	stim	stop-signal	250	721063	0.0-13.24-1.24	beast_fmri_test	358	718409,/,719090,/,719768,/,720449,/,721128,/,721809,/,722487,/	t,t,t,t,t,t,t	<img class = center src='/static/experiments/beast_fmri_test/images/T.png'></img>	71,89	2750.0	test	<img class = center src='/static/experiments/beast_fmri_test/images/redT.png'></img>	stop	2200.0	2.0	24.0	stop	target	T	71,Index Finger	89,Middle Finger	550.0	700.0	2200.0	2050.0	0.0	550.0	n/a	1.0	go_stim
120037.27525941539	2200.0	n/a	-1	-1	2750	1691.72474058	stim	stop-signal	250	721063	0.0-13.24-1.24	beast_fmri_test	358	718409,/,719090,/,719768,/,720449,/,721128,/,721809,/,722487,/	t,t,t,t,t,t,t	<img class = center src='/static/experiments/beast_fmri_test/images/T.png'></img>	71,89	2750.0	test	<img class = center src='/static/experiments/beast_fmri_test/images/redT.png'></img>	stop	2200.0	2.0	24.0	stop	target	T	71,Index Finger	89,Middle Finger	550.0	700.0	2200.0	2050.0	0.0	550.0	n/a	1.0	stop_stim
120587.27525941539	1691.7247405846274	n/a	-1	-1	2750	1691.72474058	stim	stop-signal	250	721063	0.0-13.24-1.24	beast_fmri_test	358	718409,/,719090,/,719768,/,720449,/,721128,/,721809,/,722487,/	t,t,t,t,t,t,t	<img class = center src='/static/experiments/beast_fmri_test/images/T.png'></img>	71,89	2750.0	test	<img class = center src='/static/experiments/beast_fmri_test/images/redT.png'></img>	stop	2200.0	2.0	24.0	stop	target	T	71,Index Finger	89,Middle Finger	550.0	700.0	2200.0	2050.0	0.0	550.0	n/a	1.0	ITI
124499	500	n/a	-1	-1	500	0.0	fixation	poldrack-single-stim	251	723283	0.0-13.25-0.25	beast_fmri_test	358	723168,/	t	<div class = centerbox2><div class = fixation>+</div></div>	none	500.0	test	n/a	n/a	n/a	n/a	n/a	n/a	n/a	n/a	n/a	n/a	n/a	n/a	n/a	n/a	n/a	n/a	n/a	n/a	fixation
123120.96009465784	2750	n/a	964	89	2750	1379.03990534	stim	stop-signal	252	726034	0.0-13.25-1.25	beast_fmri_test	358	723847,/,724527,/,725207,/,725886,/,726566,/,727245,/	t,t,t,t,t,t	<img class = center src='/static/experiments/beast_fmri_test/images/V.png'></img>	71,89	2750.0	test	<img class = center src='/static/experiments/beast_fmri_test/images/redV.png'></img>	go	2050.0	2.0	25.0	go	non-target	V	71,Index Finger	89,Middle Finger	600.0	700.0	2200.0	2050.0	1.0	700.0	1.0	n/a	go_stim
125870.96009465784	1379.0399053421095	n/a	964	89	2750	1379.03990534	stim	stop-signal	252	726034	0.0-13.25-1.25	beast_fmri_test	358	723847,/,724527,/,725207,/,725886,/,726566,/,727245,/	t,t,t,t,t,t	<img class = center src='/static/experiments/beast_fmri_test/images/V.png'></img>	71,89	2750.0	test	<img class = center src='/static/experiments/beast_fmri_test/images/redV.png'></img>	go	2050.0	2.0	25.0	go	non-target	V	71,Index Finger	89,Middle Finger	600.0	700.0	2200.0	2050.0	1.0	700.0	1.0	n/a	ITI
129159	500	n/a	-1	-1	500	0.0	fixation	poldrack-single-stim	253	727943	0.0-13.26-0.26	beast_fmri_test	358	727925,/	t	<div class = centerbox2><div class = fixation>+</div></div>	none	500.0	test	n/a	n/a	n/a	n/a	n/a	n/a	n/a	n/a	n/a	n/a	n/a	n/a	n/a	n/a	n/a	n/a	n/a	n/a	fixation
127805.61488450074	2750	n/a	2251	89	2750	1355.3851155	stim	stop-signal	254	730695	0.0-13.26-1.26	beast_fmri_test	358	728604,/,729285,/,729964,/,730644,/,731323,/,732003,/	t,t,t,t,t,t	<img class = center src='/static/experiments/beast_fmri_test/images/T.png'></img>	71,89	2750.0	test	<img class = center src='/static/experiments/beast_fmri_test/images/redT.png'></img>	go	2150.0	2.0	26.0	go	target	T	71,Index Finger	89,Middle Finger	600.0	700.0	2150.0	2050.0	0.0	600.0	0.0	n/a	go_stim
130555.61488450074	1355.3851154992924	n/a	2251	89	2750	1355.3851155	stim	stop-signal	254	730695	0.0-13.26-1.26	beast_fmri_test	358	728604,/,729285,/,729964,/,730644,/,731323,/,732003,/	t,t,t,t,t,t	<img class = center src='/static/experiments/beast_fmri_test/images/T.png'></img>	71,89	2750.0	test	<img class = center src='/static/experiments/beast_fmri_test/images/redT.png'></img>	go	2150.0	2.0	26.0	go	target	T	71,Index Finger	89,Middle Finger	600.0	700.0	2150.0	2050.0	0.0	600.0	0.0	n/a	ITI
133791	500	n/a	-1	-1	500	0.0	fixation	poldrack-single-stim	255	732575	0.0-13.27-0.27	beast_fmri_test	358	n/a	n/a	<div class = centerbox2><div class = fixation>+</div></div>	none	500.0	test	n/a	n/a	n/a	n/a	n/a	n/a	n/a	n/a	n/a	n/a	n/a	n/a	n/a	n/a	n/a	n/a	n/a	n/a	fixation
132624.21966080938	2750	n/a	1975	89	2750	1169.78033919	stim	stop-signal	256	735328	0.0-13.27-1.27	beast_fmri_test	358	732683,/,733363,/,734041,/,734722,/,735401,/,736081,/	t,t,t,t,t,t	<img class = center src='/static/experiments/beast_fmri_test/images/P.png'></img>	71,89	2750.0	test	<img class = center src='/static/experiments/beast_fmri_test/images/redP.png'></img>	go	2050.0	2.0	27.0	go	non-target	P	71,Index Finger	89,Middle Finger	600.0	700.0	2150.0	2050.0	1.0	700.0	1.0	n/a	go_stim
135374.21966080938	1169.7803391906396	n/a	1975	89	2750	1169.78033919	stim	stop-signal	256	735328	0.0-13.27-1.27	beast_fmri_test	358	732683,/,733363,/,734041,/,734722,/,735401,/,736081,/	t,t,t,t,t,t	<img class = center src='/static/experiments/beast_fmri_test/images/P.png'></img>	71,89	2750.0	test	<img class = center src='/static/experiments/beast_fmri_test/images/redP.png'></img>	go	2050.0	2.0	27.0	go	non-target	P	71,Index Finger	89,Middle Finger	600.0	700.0	2150.0	2050.0	1.0	700.0	1.0	n/a	ITI
138237	500	n/a	-1	-1	500	0.0	fixation	poldrack-single-stim	257	737021	0.0-13.28-0.28	beast_fmri_test	358	736761,/	t	<div class = centerbox2><div class = fixation>+</div></div>	none	500.0	test	n/a	n/a	n/a	n/a	n/a	n/a	n/a	n/a	n/a	n/a	n/a	n/a	n/a	n/a	n/a	n/a	n/a	n/a	fixation
137538.34318081487	2750	n/a	845	71	2750	698.656819185	stim	stop-signal	258	739771	0.0-13.28-1.28	beast_fmri_test	358	737439,/,738120,/,738798,/,739479,/,740158,/	t,t,t,t,t	<img class = center src='/static/experiments/beast_fmri_test/images/V.png'></img>	71,89	2750.0	test	<img class = center src='/static/experiments/beast_fmri_test/images/redV.png'></img>	go	2050.0	2.0	28.0	go	non-target	V	71,Index Finger	89,Middle Finger	600.0	700.0	2150.0	2050.0	0.0	700.0	0.0	n/a	go_stim
140288.34318081487	698.65681918518351	n/a	845	71	2750	698.656819185	stim	stop-signal	258	739771	0.0-13.28-1.28	beast_fmri_test	358	737439,/,738120,/,738798,/,739479,/,740158,/	t,t,t,t,t	<img class = center src='/static/experiments/beast_fmri_test/images/V.png'></img>	71,89	2750.0	test	<img class = center src='/static/experiments/beast_fmri_test/images/redV.png'></img>	go	2050.0	2.0	28.0	go	non-target	V	71,Index Finger	89,Middle Finger	600.0	700.0	2150.0	2050.0	0.0	700.0	0.0	n/a	ITI
142210	500	n/a	-1	-1	500	0.0	fixation	poldrack-single-stim	259	740994	0.0-13.29-0.29	beast_fmri_test	358	740839,/	t	<div class = centerbox2><div class = fixation>+</div></div>	none	500.0	test	n/a	n/a	n/a	n/a	n/a	n/a	n/a	n/a	n/a	n/a	n/a	n/a	n/a	n/a	n/a	n/a	n/a	n/a	fixation
142122.2298751577	2750	n/a	1168	89	2750	88.7701248423	stim	stop-signal	260	743745	0.0-13.29-1.29	beast_fmri_test	358	741517,/,742197,/,742878,/,743558,/	t,t,t,t	<img class = center src='/static/experiments/beast_fmri_test/images/D.png'></img>	71,89	2750.0	test	<img class = center src='/static/experiments/beast_fmri_test/images/redD.png'></img>	go	2050.0	2.0	29.0	go	non-target	D	71,Index Finger	89,Middle Finger	600.0	700.0	2150.0	2050.0	1.0	700.0	1.0	n/a	go_stim
144872.2298751577	88.770124842325586	n/a	1168	89	2750	88.7701248423	stim	stop-signal	260	743745	0.0-13.29-1.29	beast_fmri_test	358	741517,/,742197,/,742878,/,743558,/	t,t,t,t	<img class = center src='/static/experiments/beast_fmri_test/images/D.png'></img>	71,89	2750.0	test	<img class = center src='/static/experiments/beast_fmri_test/images/redD.png'></img>	go	2050.0	2.0	29.0	go	non-target	D	71,Index Finger	89,Middle Finger	600.0	700.0	2150.0	2050.0	1.0	700.0	1.0	n/a	ITI
145580	500	n/a	-1	-1	500	0.0	fixation	poldrack-single-stim	261	744364	0.0-13.30-0.30	beast_fmri_test	358	744239,/	t	<div class = centerbox2><div class = fixation>+</div></div>	none	500.0	test	n/a	n/a	n/a	n/a	n/a	n/a	n/a	n/a	n/a	n/a	n/a	n/a	n/a	n/a	n/a	n/a	n/a	n/a	fixation
144894.48599122046	2750	n/a	1077	71	2750	687.51400878	stim	stop-signal	262	747116	0.0-13.30-1.30	beast_fmri_test	358	744917,/,745597,/,746277,/,746956,/,747637,/	t,t,t,t,t	<img class = center src='/static/experiments/beast_fmri_test/images/V.png'></img>	71,89	2750.0	test	<img class = center src='/static/experiments/beast_fmri_test/images/redV.png'></img>	go	2150.0	2.0	30.0	go	target	V	71,Index Finger	89,Middle Finger	600.0	700.0	2150.0	2050.0	1.0	600.0	1.0	n/a	go_stim
147644.48599122046	687.51400877950528	n/a	1077	71	2750	687.51400878	stim	stop-signal	262	747116	0.0-13.30-1.30	beast_fmri_test	358	744917,/,745597,/,746277,/,746956,/,747637,/	t,t,t,t,t	<img class = center src='/static/experiments/beast_fmri_test/images/V.png'></img>	71,89	2750.0	test	<img class = center src='/static/experiments/beast_fmri_test/images/redV.png'></img>	go	2150.0	2.0	30.0	go	target	V	71,Index Finger	89,Middle Finger	600.0	700.0	2150.0	2050.0	1.0	600.0	1.0	n/a	ITI
149546	500	n/a	-1	-1	500	0.0	fixation	poldrack-single-stim	263	748330	0.0-13.31-0.31	beast_fmri_test	358	748316,/	t	<div class = centerbox2><div class = fixation>+</div></div>	none	500.0	test	n/a	n/a	n/a	n/a	n/a	n/a	n/a	n/a	n/a	n/a	n/a	n/a	n/a	n/a	n/a	n/a	n/a	n/a	fixation
146807.54974667903	2750	n/a	1654	71	2750	2739.45025332	stim	stop-signal	264	751081	0.0-13.31-1.31	beast_fmri_test	358	748995,/,749675,/,750354,/,751035,/,751713,/,752394,/,753073,/,753752,/	t,t,t,t,t,t,t,t	<img class = center src='/static/experiments/beast_fmri_test/images/V.png'></img>	71,89	2750.0	test	<img class = center src='/static/experiments/beast_fmri_test/images/redV.png'></img>	go	2050.0	2.0	31.0	go	non-target	V	71,Index Finger	89,Middle Finger	600.0	700.0	2150.0	2050.0	0.0	700.0	0.0	n/a	go_stim
149557.54974667903	2739.4502533209811	n/a	1654	71	2750	2739.45025332	stim	stop-signal	264	751081	0.0-13.31-1.31	beast_fmri_test	358	748995,/,749675,/,750354,/,751035,/,751713,/,752394,/,753073,/,753752,/	t,t,t,t,t,t,t,t	<img class = center src='/static/experiments/beast_fmri_test/images/V.png'></img>	71,89	2750.0	test	<img class = center src='/static/experiments/beast_fmri_test/images/redV.png'></img>	go	2050.0	2.0	31.0	go	non-target	V	71,Index Finger	89,Middle Finger	600.0	700.0	2150.0	2050.0	0.0	700.0	0.0	n/a	ITI
155566	500	n/a	-1	-1	500	0.0	fixation	poldrack-single-stim	265	754350	0.0-13.32-0.32	beast_fmri_test	358	n/a	n/a	<div class = centerbox2><div class = fixation>+</div></div>	none	500.0	test	n/a	n/a	n/a	n/a	n/a	n/a	n/a	n/a	n/a	n/a	n/a	n/a	n/a	n/a	n/a	n/a	n/a	n/a	fixation
154696.73040155135	2750	n/a	954	89	2750	869.269598449	stim	stop-signal	266	757100	0.0-13.32-1.32	beast_fmri_test	358	754433,/,755112,/,755792,/,756472,/,757151,/,757830,/	t,t,t,t,t,t	<img class = center src='/static/experiments/beast_fmri_test/images/P.png'></img>	71,89	2750.0	test	<img class = center src='/static/experiments/beast_fmri_test/images/redP.png'></img>	go	2050.0	2.0	32.0	go	non-target	P	71,Index Finger	89,Middle Finger	600.0	700.0	2150.0	2050.0	1.0	700.0	1.0	n/a	go_stim
157446.73040155135	869.26959844862279	n/a	954	89	2750	869.269598449	stim	stop-signal	266	757100	0.0-13.32-1.32	beast_fmri_test	358	754433,/,755112,/,755792,/,756472,/,757151,/,757830,/	t,t,t,t,t,t	<img class = center src='/static/experiments/beast_fmri_test/images/P.png'></img>	71,89	2750.0	test	<img class = center src='/static/experiments/beast_fmri_test/images/redP.png'></img>	go	2050.0	2.0	32.0	go	non-target	P	71,Index Finger	89,Middle Finger	600.0	700.0	2150.0	2050.0	1.0	700.0	1.0	n/a	ITI
159713	500	n/a	-1	-1	500	0.0	fixation	poldrack-single-stim	267	758497	0.0-13.33-0.33	beast_fmri_test	358	n/a	n/a	<div class = centerbox2><div class = fixation>+</div></div>	none	500.0	test	n/a	n/a	n/a	n/a	n/a	n/a	n/a	n/a	n/a	n/a	n/a	n/a	n/a	n/a	n/a	n/a	n/a	n/a	fixation
159680.26311772573	700.0	n/a	695	89	2750	35.7368822743	stim	stop-signal	268	761250	0.0-13.33-1.33	beast_fmri_test	358	758512,/,759190,/,759871,/,760549,/,761230,/	t,t,t,t,t	<img class = center src='/static/experiments/beast_fmri_test/images/B.png'></img>	71,89	2750.0	test	<img class = center src='/static/experiments/beast_fmri_test/images/redB.png'></img>	stop	2050.0	2.0	33.0	stop	non-target	B	71,Index Finger	89,Middle Finger	600.0	700.0	2150.0	2050.0	0.0	700.0	n/a	0.0	go_stim
161730.26311772573	2050.0	n/a	695	89	2750	35.7368822743	stim	stop-signal	268	761250	0.0-13.33-1.33	beast_fmri_test	358	758512,/,759190,/,759871,/,760549,/,761230,/	t,t,t,t,t	<img class = center src='/static/experiments/beast_fmri_test/images/B.png'></img>	71,89	2750.0	test	<img class = center src='/static/experiments/beast_fmri_test/images/redB.png'></img>	stop	2050.0	2.0	33.0	stop	non-target	B	71,Index Finger	89,Middle Finger	600.0	700.0	2150.0	2050.0	0.0	700.0	n/a	0.0	stop_stim
162430.26311772573	35.736882274251926	n/a	695	89	2750	35.7368822743	stim	stop-signal	268	761250	0.0-13.33-1.33	beast_fmri_test	358	758512,/,759190,/,759871,/,760549,/,761230,/	t,t,t,t,t	<img class = center src='/static/experiments/beast_fmri_test/images/B.png'></img>	71,89	2750.0	test	<img class = center src='/static/experiments/beast_fmri_test/images/redB.png'></img>	stop	2050.0	2.0	33.0	stop	non-target	B	71,Index Finger	89,Middle Finger	600.0	700.0	2150.0	2050.0	0.0	700.0	n/a	0.0	ITI
163028	500	n/a	-1	-1	500	0.0	fixation	poldrack-single-stim	269	761812	0.0-13.34-0.34	beast_fmri_test	358	n/a	n/a	<div class = centerbox2><div class = fixation>+</div></div>	none	500.0	test	n/a	n/a	n/a	n/a	n/a	n/a	n/a	n/a	n/a	n/a	n/a	n/a	n/a	n/a	n/a	n/a	n/a	n/a	fixation
160217.48980511376	650.0	n/a	-1	-1	2750	2812.51019489	stim	stop-signal	270	764564	0.0-13.34-1.34	beast_fmri_test	358	761910,/,762588,/,763270,/,763949,/,764628,/,765308,/,765987,/,766666,/,767348,/	t,t,t,t,t,t,t,t,t	<img class = center src='/static/experiments/beast_fmri_test/images/V.png'></img>	71,89	2750.0	test	<img class = center src='/static/experiments/beast_fmri_test/images/redV.png'></img>	stop	2100.0	2.0	34.0	stop	non-target	V	71,Index Finger	89,Middle Finger	600.0	650.0	2150.0	2100.0	0.0	650.0	n/a	1.0	go_stim
162317.48980511376	2100.0	n/a	-1	-1	2750	2812.51019489	stim	stop-signal	270	764564	0.0-13.34-1.34	beast_fmri_test	358	761910,/,762588,/,763270,/,763949,/,764628,/,765308,/,765987,/,766666,/,767348,/	t,t,t,t,t,t,t,t,t	<img class = center src='/static/experiments/beast_fmri_test/images/V.png'></img>	71,89	2750.0	test	<img class = center src='/static/experiments/beast_fmri_test/images/redV.png'></img>	stop	2100.0	2.0	34.0	stop	non-target	V	71,Index Finger	89,Middle Finger	600.0	650.0	2150.0	2100.0	0.0	650.0	n/a	1.0	stop_stim
162967.48980511376	2812.5101948861889	n/a	-1	-1	2750	2812.51019489	stim	stop-signal	270	764564	0.0-13.34-1.34	beast_fmri_test	358	761910,/,762588,/,763270,/,763949,/,764628,/,765308,/,765987,/,766666,/,767348,/	t,t,t,t,t,t,t,t,t	<img class = center src='/static/experiments/beast_fmri_test/images/V.png'></img>	71,89	2750.0	test	<img class = center src='/static/experiments/beast_fmri_test/images/redV.png'></img>	stop	2100.0	2.0	34.0	stop	non-target	V	71,Index Finger	89,Middle Finger	600.0	650.0	2150.0	2100.0	0.0	650.0	n/a	1.0	ITI
169119	500	n/a	-1	-1	500	0.0	fixation	poldrack-single-stim	271	767903	0.0-13.35-0.35	beast_fmri_test	358	n/a	n/a	<div class = centerbox2><div class = fixation>+</div></div>	none	500.0	test	n/a	n/a	n/a	n/a	n/a	n/a	n/a	n/a	n/a	n/a	n/a	n/a	n/a	n/a	n/a	n/a	n/a	n/a	fixation
168706.4984122006	2750	n/a	1123	89	2750	413.501587799	stim	stop-signal	272	770654	0.0-13.35-1.35	beast_fmri_test	358	768026,/,768707,/,769386,/,770066,/,770745,/	t,t,t,t,t	<img class = center src='/static/experiments/beast_fmri_test/images/T.png'></img>	71,89	2750.0	test	<img class = center src='/static/experiments/beast_fmri_test/images/redT.png'></img>	go	2050.0	2.0	35.0	go	non-target	T	71,Index Finger	89,Middle Finger	600.0	700.0	2150.0	2050.0	1.0	700.0	1.0	n/a	go_stim
171456.4984122006	413.50158779936788	n/a	1123	89	2750	413.501587799	stim	stop-signal	272	770654	0.0-13.35-1.35	beast_fmri_test	358	768026,/,768707,/,769386,/,770066,/,770745,/	t,t,t,t,t	<img class = center src='/static/experiments/beast_fmri_test/images/T.png'></img>	71,89	2750.0	test	<img class = center src='/static/experiments/beast_fmri_test/images/redT.png'></img>	go	2050.0	2.0	35.0	go	non-target	T	71,Index Finger	89,Middle Finger	600.0	700.0	2150.0	2050.0	1.0	700.0	1.0	n/a	ITI
172815	500	n/a	-1	-1	500	0.0	fixation	poldrack-single-stim	273	771599	0.0-13.36-0.36	beast_fmri_test	358	771424,/	t	<div class = centerbox2><div class = fixation>+</div></div>	none	500.0	test	n/a	n/a	n/a	n/a	n/a	n/a	n/a	n/a	n/a	n/a	n/a	n/a	n/a	n/a	n/a	n/a	n/a	n/a	fixation
172446.37552334357	2750	n/a	1003	89	2750	371.624476656	stim	stop-signal	274	774352	0.0-13.36-1.36	beast_fmri_test	358	772105,/,772784,/,773464,/,774144,/	t,t,t,t	<img class = center src='/static/experiments/beast_fmri_test/images/V.png'></img>	71,89	2750.0	test	<img class = center src='/static/experiments/beast_fmri_test/images/redV.png'></img>	go	2150.0	2.0	36.0	go	target	V	71,Index Finger	89,Middle Finger	600.0	700.0	2150.0	2050.0	0.0	600.0	0.0	n/a	go_stim
175196.37552334357	371.62447665648142	n/a	1003	89	2750	371.624476656	stim	stop-signal	274	774352	0.0-13.36-1.36	beast_fmri_test	358	772105,/,772784,/,773464,/,774144,/	t,t,t,t	<img class = center src='/static/experiments/beast_fmri_test/images/V.png'></img>	71,89	2750.0	test	<img class = center src='/static/experiments/beast_fmri_test/images/redV.png'></img>	go	2150.0	2.0	36.0	go	target	V	71,Index Finger	89,Middle Finger	600.0	700.0	2150.0	2050.0	0.0	600.0	0.0	n/a	ITI
176470	500	n/a	-1	-1	500	0.0	fixation	poldrack-single-stim	275	775254	0.0-13.37-0.37	beast_fmri_test	358	774823,/	t	<div class = centerbox2><div class = fixation>+</div></div>	none	500.0	test	n/a	n/a	n/a	n/a	n/a	n/a	n/a	n/a	n/a	n/a	n/a	n/a	n/a	n/a	n/a	n/a	n/a	n/a	fixation
174806.09750957903	700.0	n/a	-1	-1	2750	1665.90249042	stim	stop-signal	276	778006	0.0-13.37-1.37	beast_fmri_test	358	775503,/,776183,/,776862,/,777542,/,778222,/,778902,/,779581,/	t,t,t,t,t,t,t	<img class = center src='/static/experiments/beast_fmri_test/images/P.png'></img>	71,89	2750.0	test	<img class = center src='/static/experiments/beast_fmri_test/images/redP.png'></img>	stop	2050.0	2.0	37.0	stop	non-target	P	71,Index Finger	89,Middle Finger	600.0	700.0	2150.0	2050.0	0.0	700.0	n/a	1.0	go_stim
176856.09750957903	2050.0	n/a	-1	-1	2750	1665.90249042	stim	stop-signal	276	778006	0.0-13.37-1.37	beast_fmri_test	358	775503,/,776183,/,776862,/,777542,/,778222,/,778902,/,779581,/	t,t,t,t,t,t,t	<img class = center src='/static/experiments/beast_fmri_test/images/P.png'></img>	71,89	2750.0	test	<img class = center src='/static/experiments/beast_fmri_test/images/redP.png'></img>	stop	2050.0	2.0	37.0	stop	non-target	P	71,Index Finger	89,Middle Finger	600.0	700.0	2150.0	2050.0	0.0	700.0	n/a	1.0	stop_stim
177556.09750957903	1665.9024904210128	n/a	-1	-1	2750	1665.90249042	stim	stop-signal	276	778006	0.0-13.37-1.37	beast_fmri_test	358	775503,/,776183,/,776862,/,777542,/,778222,/,778902,/,779581,/	t,t,t,t,t,t,t	<img class = center src='/static/experiments/beast_fmri_test/images/P.png'></img>	71,89	2750.0	test	<img class = center src='/static/experiments/beast_fmri_test/images/redP.png'></img>	stop	2050.0	2.0	37.0	stop	non-target	P	71,Index Finger	89,Middle Finger	600.0	700.0	2150.0	2050.0	0.0	700.0	n/a	1.0	ITI
181419	500	n/a	-1	-1	500	0.0	fixation	poldrack-single-stim	277	780203	0.0-13.38-0.38	beast_fmri_test	358	n/a	n/a	<div class = centerbox2><div class = fixation>+</div></div>	none	500.0	test	n/a	n/a	n/a	n/a	n/a	n/a	n/a	n/a	n/a	n/a	n/a	n/a	n/a	n/a	n/a	n/a	n/a	n/a	fixation
180850.74297456304	2750	n/a	1098	89	2750	570.257025437	stim	stop-signal	278	782955	0.0-13.38-1.38	beast_fmri_test	358	780261,/,780942,/,781620,/,782301,/,782979,/	t,t,t,t,t	<img class = center src='/static/experiments/beast_fmri_test/images/D.png'></img>	71,89	2750.0	test	<img class = center src='/static/experiments/beast_fmri_test/images/redD.png'></img>	go	2000.0	2.0	38.0	go	non-target	D	71,Index Finger	89,Middle Finger	600.0	750.0	2150.0	2000.0	1.0	750.0	1.0	n/a	go_stim
183600.74297456304	570.25702543701345	n/a	1098	89	2750	570.257025437	stim	stop-signal	278	782955	0.0-13.38-1.38	beast_fmri_test	358	780261,/,780942,/,781620,/,782301,/,782979,/	t,t,t,t,t	<img class = center src='/static/experiments/beast_fmri_test/images/D.png'></img>	71,89	2750.0	test	<img class = center src='/static/experiments/beast_fmri_test/images/redD.png'></img>	go	2000.0	2.0	38.0	go	non-target	D	71,Index Finger	89,Middle Finger	600.0	750.0	2150.0	2000.0	1.0	750.0	1.0	n/a	ITI
185271	500	n/a	-1	-1	500	0.0	fixation	poldrack-single-stim	279	784055	0.0-13.39-0.39	beast_fmri_test	358	783660,/	t	<div class = centerbox2><div class = fixation>+</div></div>	none	500.0	test	n/a	n/a	n/a	n/a	n/a	n/a	n/a	n/a	n/a	n/a	n/a	n/a	n/a	n/a	n/a	n/a	n/a	n/a	fixation
182197.50493919279	2750	n/a	1033	89	2750	3075.49506081	stim	stop-signal	280	786807	0.0-13.39-1.39	beast_fmri_test	358	784339,/,785020,/,785698,/,786379,/,787058,/,787738,/,788417,/,789097,/,789777,/	t,t,t,t,t,t,t,t,t	<img class = center src='/static/experiments/beast_fmri_test/images/B.png'></img>	71,89	2750.0	test	<img class = center src='/static/experiments/beast_fmri_test/images/redB.png'></img>	go	2000.0	2.0	39.0	go	non-target	B	71,Index Finger	89,Middle Finger	600.0	750.0	2150.0	2000.0	1.0	750.0	1.0	n/a	go_stim
184947.50493919279	3075.4950608072431	n/a	1033	89	2750	3075.49506081	stim	stop-signal	280	786807	0.0-13.39-1.39	beast_fmri_test	358	784339,/,785020,/,785698,/,786379,/,787058,/,787738,/,788417,/,789097,/,789777,/	t,t,t,t,t,t,t,t,t	<img class = center src='/static/experiments/beast_fmri_test/images/B.png'></img>	71,89	2750.0	test	<img class = center src='/static/experiments/beast_fmri_test/images/redB.png'></img>	go	2000.0	2.0	39.0	go	non-target	B	71,Index Finger	89,Middle Finger	600.0	750.0	2150.0	2000.0	1.0	750.0	1.0	n/a	ITI
191631	500	n/a	-1	-1	500	0.0	fixation	poldrack-single-stim	281	790415	0.0-13.40-0.40	beast_fmri_test	358	n/a	n/a	<div class = centerbox2><div class = fixation>+</div></div>	none	500.0	test	n/a	n/a	n/a	n/a	n/a	n/a	n/a	n/a	n/a	n/a	n/a	n/a	n/a	n/a	n/a	n/a	n/a	n/a	fixation
191231.40476256388	2750	n/a	1283	71	2750	401.595237436	stim	stop-signal	282	793167	0.0-13.40-1.40	beast_fmri_test	358	790455,/,791137,/,791815,/,792495,/,793174,/	t,t,t,t,t	<img class = center src='/static/experiments/beast_fmri_test/images/B.png'></img>	71,89	2750.0	test	<img class = center src='/static/experiments/beast_fmri_test/images/redB.png'></img>	go	2000.0	2.0	40.0	go	non-target	B	71,Index Finger	89,Middle Finger	600.0	750.0	2150.0	2000.0	0.0	750.0	0.0	n/a	go_stim
193981.40476256388	401.59523743618018	n/a	1283	71	2750	401.595237436	stim	stop-signal	282	793167	0.0-13.40-1.40	beast_fmri_test	358	790455,/,791137,/,791815,/,792495,/,793174,/	t,t,t,t,t	<img class = center src='/static/experiments/beast_fmri_test/images/B.png'></img>	71,89	2750.0	test	<img class = center src='/static/experiments/beast_fmri_test/images/redB.png'></img>	go	2000.0	2.0	40.0	go	non-target	B	71,Index Finger	89,Middle Finger	600.0	750.0	2150.0	2000.0	0.0	750.0	0.0	n/a	ITI
195317	500	n/a	-1	-1	500	0.0	fixation	poldrack-single-stim	283	794101	0.0-13.41-0.41	beast_fmri_test	358	793855,/	t	<div class = centerbox2><div class = fixation>+</div></div>	none	500.0	test	n/a	n/a	n/a	n/a	n/a	n/a	n/a	n/a	n/a	n/a	n/a	n/a	n/a	n/a	n/a	n/a	n/a	n/a	fixation
194315.88957265171	2750	n/a	1209	89	2750	1002.11042735	stim	stop-signal	284	796852	0.0-13.41-1.41	beast_fmri_test	358	794534,/,795215,/,795893,/,796574,/,797253,/	t,t,t,t,t	<img class = center src='/static/experiments/beast_fmri_test/images/T.png'></img>	71,89	2750.0	test	<img class = center src='/static/experiments/beast_fmri_test/images/redT.png'></img>	go	2000.0	2.0	41.0	go	non-target	T	71,Index Finger	89,Middle Finger	600.0	750.0	2150.0	2000.0	1.0	750.0	1.0	n/a	go_stim
197065.88957265171	1002.110427348284	n/a	1209	89	2750	1002.11042735	stim	stop-signal	284	796852	0.0-13.41-1.41	beast_fmri_test	358	794534,/,795215,/,795893,/,796574,/,797253,/	t,t,t,t,t	<img class = center src='/static/experiments/beast_fmri_test/images/T.png'></img>	71,89	2750.0	test	<img class = center src='/static/experiments/beast_fmri_test/images/redT.png'></img>	go	2000.0	2.0	41.0	go	non-target	T	71,Index Finger	89,Middle Finger	600.0	750.0	2150.0	2000.0	1.0	750.0	1.0	n/a	ITI
199599	500	n/a	-1	-1	500	0.0	fixation	poldrack-single-stim	285	798383	0.0-13.42-0.42	beast_fmri_test	358	797932,/	t	<div class = centerbox2><div class = fixation>+</div></div>	none	500.0	test	n/a	n/a	n/a	n/a	n/a	n/a	n/a	n/a	n/a	n/a	n/a	n/a	n/a	n/a	n/a	n/a	n/a	n/a	fixation
196658.90631406847	2750	n/a	684	89	2750	2940.09368593	stim	stop-signal	286	801133	0.0-13.42-1.42	beast_fmri_test	358	798611,/,799292,/,799971,/,800651,/,801331,/,802011,/,802691,/,803371,/,804051,/	t,t,t,t,t,t,t,t,t	<img class = center src='/static/experiments/beast_fmri_test/images/P.png'></img>	71,89	2750.0	test	<img class = center src='/static/experiments/beast_fmri_test/images/redP.png'></img>	go	2000.0	2.0	42.0	go	non-target	P	71,Index Finger	89,Middle Finger	600.0	750.0	2150.0	2000.0	1.0	750.0	1.0	n/a	go_stim
199408.90631406847	2940.0936859315361	n/a	684	89	2750	2940.09368593	stim	stop-signal	286	801133	0.0-13.42-1.42	beast_fmri_test	358	798611,/,799292,/,799971,/,800651,/,801331,/,802011,/,802691,/,803371,/,804051,/	t,t,t,t,t,t,t,t,t	<img class = center src='/static/experiments/beast_fmri_test/images/P.png'></img>	71,89	2750.0	test	<img class = center src='/static/experiments/beast_fmri_test/images/redP.png'></img>	go	2000.0	2.0	42.0	go	non-target	P	71,Index Finger	89,Middle Finger	600.0	750.0	2150.0	2000.0	1.0	750.0	1.0	n/a	ITI
205816	500	n/a	-1	-1	500	0.0	fixation	poldrack-single-stim	287	804600	0.0-13.43-0.43	beast_fmri_test	358	n/a	n/a	<div class = centerbox2><div class = fixation>+</div></div>	none	500.0	test	n/a	n/a	n/a	n/a	n/a	n/a	n/a	n/a	n/a	n/a	n/a	n/a	n/a	n/a	n/a	n/a	n/a	n/a	fixation
204462.77730141988	600.0	n/a	571	71	2750	1355.22269858	stim	stop-signal	288	807352	0.0-13.43-1.43	beast_fmri_test	358	804730,/,805412,/,806089,/,806769,/,807448,/,808129,/	t,t,t,t,t,t	<img class = center src='/static/experiments/beast_fmri_test/images/T.png'></img>	71,89	2750.0	test	<img class = center src='/static/experiments/beast_fmri_test/images/redT.png'></img>	stop	2150.0	2.0	43.0	stop	target	T	71,Index Finger	89,Middle Finger	600.0	750.0	2150.0	2000.0	0.0	600.0	n/a	0.0	go_stim
206612.77730141988	2150.0	n/a	571	71	2750	1355.22269858	stim	stop-signal	288	807352	0.0-13.43-1.43	beast_fmri_test	358	804730,/,805412,/,806089,/,806769,/,807448,/,808129,/	t,t,t,t,t,t	<img class = center src='/static/experiments/beast_fmri_test/images/T.png'></img>	71,89	2750.0	test	<img class = center src='/static/experiments/beast_fmri_test/images/redT.png'></img>	stop	2150.0	2.0	43.0	stop	target	T	71,Index Finger	89,Middle Finger	600.0	750.0	2150.0	2000.0	0.0	600.0	n/a	0.0	stop_stim
207212.77730141988	1355.2226985801008	n/a	571	71	2750	1355.22269858	stim	stop-signal	288	807352	0.0-13.43-1.43	beast_fmri_test	358	804730,/,805412,/,806089,/,806769,/,807448,/,808129,/	t,t,t,t,t,t	<img class = center src='/static/experiments/beast_fmri_test/images/T.png'></img>	71,89	2750.0	test	<img class = center src='/static/experiments/beast_fmri_test/images/redT.png'></img>	stop	2150.0	2.0	43.0	stop	target	T	71,Index Finger	89,Middle Finger	600.0	750.0	2150.0	2000.0	0.0	600.0	n/a	0.0	ITI
210454	500	n/a	-1	-1	500	0.0	fixation	poldrack-single-stim	289	809238	0.0-13.44-0.44	beast_fmri_test	358	808809,/	t	<div class = centerbox2><div class = fixation>+</div></div>	none	500.0	test	n/a	n/a	n/a	n/a	n/a	n/a	n/a	n/a	n/a	n/a	n/a	n/a	n/a	n/a	n/a	n/a	n/a	n/a	fixation
209746.95450770343	750.0	n/a	807	89	2750	709.045492297	stim	stop-signal	290	811990	0.0-13.44-1.44	beast_fmri_test	358	809488,/,810168,/,810848,/,811527,/,812206,/	t,t,t,t,t	<img class = center src='/static/experiments/beast_fmri_test/images/B.png'></img>	71,89	2750.0	test	<img class = center src='/static/experiments/beast_fmri_test/images/redB.png'></img>	stop	2000.0	2.0	44.0	stop	non-target	B	71,Index Finger	89,Middle Finger	550.0	750.0	2150.0	2000.0	0.0	750.0	n/a	0.0	go_stim
211746.95450770343	2000.0	n/a	807	89	2750	709.045492297	stim	stop-signal	290	811990	0.0-13.44-1.44	beast_fmri_test	358	809488,/,810168,/,810848,/,811527,/,812206,/	t,t,t,t,t	<img class = center src='/static/experiments/beast_fmri_test/images/B.png'></img>	71,89	2750.0	test	<img class = center src='/static/experiments/beast_fmri_test/images/redB.png'></img>	stop	2000.0	2.0	44.0	stop	non-target	B	71,Index Finger	89,Middle Finger	550.0	750.0	2150.0	2000.0	0.0	750.0	n/a	0.0	stop_stim
212496.95450770343	709.04549229656766	n/a	807	89	2750	709.045492297	stim	stop-signal	290	811990	0.0-13.44-1.44	beast_fmri_test	358	809488,/,810168,/,810848,/,811527,/,812206,/	t,t,t,t,t	<img class = center src='/static/experiments/beast_fmri_test/images/B.png'></img>	71,89	2750.0	test	<img class = center src='/static/experiments/beast_fmri_test/images/redB.png'></img>	stop	2000.0	2.0	44.0	stop	non-target	B	71,Index Finger	89,Middle Finger	550.0	750.0	2150.0	2000.0	0.0	750.0	n/a	0.0	ITI
214447	500	n/a	-1	-1	500	0.0	fixation	poldrack-single-stim	291	813231	0.0-13.45-0.45	beast_fmri_test	358	812885,/	t	<div class = centerbox2><div class = fixation>+</div></div>	none	500.0	test	n/a	n/a	n/a	n/a	n/a	n/a	n/a	n/a	n/a	n/a	n/a	n/a	n/a	n/a	n/a	n/a	n/a	n/a	fixation
213836.10928721307	2750	n/a	1092	89	2750	612.890712787	stim	stop-signal	292	815983	0.0-13.45-1.45	beast_fmri_test	358	813565,/,814246,/,814925,/,815605,/,816284,/	t,t,t,t,t	<img class = center src='/static/experiments/beast_fmri_test/images/P.png'></img>	71,89	2750.0	test	<img class = center src='/static/experiments/beast_fmri_test/images/redP.png'></img>	go	2050.0	2.0	45.0	go	non-target	P	71,Index Finger	89,Middle Finger	550.0	700.0	2150.0	2050.0	1.0	700.0	1.0	n/a	go_stim
216586.10928721307	612.89071278692973	n/a	1092	89	2750	612.890712787	stim	stop-signal	292	815983	0.0-13.45-1.45	beast_fmri_test	358	813565,/,814246,/,814925,/,815605,/,816284,/	t,t,t,t,t	<img class = center src='/static/experiments/beast_fmri_test/images/P.png'></img>	71,89	2750.0	test	<img class = center src='/static/experiments/beast_fmri_test/images/redP.png'></img>	go	2050.0	2.0	45.0	go	non-target	P	71,Index Finger	89,Middle Finger	550.0	700.0	2150.0	2050.0	1.0	700.0	1.0	n/a	ITI
218340	500	n/a	-1	-1	500	0.0	fixation	poldrack-single-stim	293	817124	0.0-13.46-0.46	beast_fmri_test	358	816965,/	t	<div class = centerbox2><div class = fixation>+</div></div>	none	500.0	test	n/a	n/a	n/a	n/a	n/a	n/a	n/a	n/a	n/a	n/a	n/a	n/a	n/a	n/a	n/a	n/a	n/a	n/a	fixation
215066.75612566469	2750	n/a	1063	89	2750	3273.24387434	stim	stop-signal	294	819874	0.0-13.46-1.46	beast_fmri_test	358	817644,/,818323,/,819003,/,819682,/,820363,/,821041,/,821722,/,822401,/,823082,/	t,t,t,t,t,t,t,t,t	<img class = center src='/static/experiments/beast_fmri_test/images/T.png'></img>	71,89	2750.0	test	<img class = center src='/static/experiments/beast_fmri_test/images/redT.png'></img>	go	2050.0	2.0	46.0	go	non-target	T	71,Index Finger	89,Middle Finger	550.0	700.0	2150.0	2050.0	1.0	700.0	1.0	n/a	go_stim
217816.75612566469	3273.2438743353027	n/a	1063	89	2750	3273.24387434	stim	stop-signal	294	819874	0.0-13.46-1.46	beast_fmri_test	358	817644,/,818323,/,819003,/,819682,/,820363,/,821041,/,821722,/,822401,/,823082,/	t,t,t,t,t,t,t,t,t	<img class = center src='/static/experiments/beast_fmri_test/images/T.png'></img>	71,89	2750.0	test	<img class = center src='/static/experiments/beast_fmri_test/images/redT.png'></img>	go	2050.0	2.0	46.0	go	non-target	T	71,Index Finger	89,Middle Finger	550.0	700.0	2150.0	2050.0	1.0	700.0	1.0	n/a	ITI
239386	15000	n/a	-1	-1	15000	0.0	practice-no-stop-feedback	poldrack-single-stim	295	838170	0.0-14.0	beast_fmri_test	358	823761,/,824440,/,825120,/,825800,/,826480,/,827158,/,827839,/,828518,/,829199,/,829877,/,830558,/,831238,/,831917,/,832597,/,833278,/,833956,/,834637,/,835317,/,835996,/,836676,/,837355,/,838036,/	t,t,t,t,t,t,t,t,t,t,t,t,t,t,t,t,t,t,t,t,t,t	"<div class = ""centerbox""><p class = ""block-text"">Your delay is 2 trials.</p><p class = block-text>Please wait for the scanner to start the block</p></div>"	77	15000.0	n/a	n/a	n/a	n/a	n/a	n/a	n/a	n/a	n/a	n/a	n/a	n/a	n/a	n/a	n/a	n/a	n/a	n/a	n/a	practice-no-stop-feedback
239889	500	n/a	-1	-1	500	0.0	fixation	poldrack-single-stim	296	838673	0.0-15.0-0.0	beast_fmri_test	358	n/a	n/a	<div class = centerbox2><div class = fixation>+</div></div>	none	500.0	test	n/a	n/a	n/a	n/a	n/a	n/a	n/a	n/a	n/a	n/a	n/a	n/a	n/a	n/a	n/a	n/a	n/a	n/a	fixation
238616.69036346849	2750	n/a	1316	89	2750	1273.30963653	stim	stop-signal	297	841424	0.0-15.0-1.0	beast_fmri_test	358	838713,/,839394,/,840073,/,840753,/,841432,/,842113,/	t,t,t,t,t,t	<img class = center src='/static/experiments/beast_fmri_test/images/P.png'></img>	71,89	2750.0	test	<img class = center src='/static/experiments/beast_fmri_test/images/redP.png'></img>	go	-1.0	2.0	0.0	go	temp-non-target	P	71,Index Finger	89,Middle Finger	550.0	700.0	2150.0	2050.0	0.0	n/a	n/a	n/a	go_stim
241366.69036346849	1273.30963653148	n/a	1316	89	2750	1273.30963653	stim	stop-signal	297	841424	0.0-15.0-1.0	beast_fmri_test	358	838713,/,839394,/,840073,/,840753,/,841432,/,842113,/	t,t,t,t,t,t	<img class = center src='/static/experiments/beast_fmri_test/images/P.png'></img>	71,89	2750.0	test	<img class = center src='/static/experiments/beast_fmri_test/images/redP.png'></img>	go	-1.0	2.0	0.0	go	temp-non-target	P	71,Index Finger	89,Middle Finger	550.0	700.0	2150.0	2050.0	0.0	n/a	n/a	n/a	ITI
244443	500	n/a	-1	-1	500	0.0	fixation	poldrack-single-stim	298	843227	0.0-15.1-0.1	beast_fmri_test	358	842792,/	t	<div class = centerbox2><div class = fixation>+</div></div>	none	500.0	test	n/a	n/a	n/a	n/a	n/a	n/a	n/a	n/a	n/a	n/a	n/a	n/a	n/a	n/a	n/a	n/a	n/a	n/a	fixation
242942.86314945552	2750	n/a	1077	89	2750	1501.13685054	stim	stop-signal	299	845978	0.0-15.1-1.1	beast_fmri_test	358	843472,/,844151,/,844832,/,845511,/,846190,/,846871,/	t,t,t,t,t,t	<img class = center src='/static/experiments/beast_fmri_test/images/T.png'></img>	71,89	2750.0	test	<img class = center src='/static/experiments/beast_fmri_test/images/redT.png'></img>	go	-1.0	2.0	1.0	go	temp-non-target	T	71,Index Finger	89,Middle Finger	550.0	700.0	2150.0	2050.0	0.0	n/a	n/a	n/a	go_stim
245692.86314945552	1501.1368505444545	n/a	1077	89	2750	1501.13685054	stim	stop-signal	299	845978	0.0-15.1-1.1	beast_fmri_test	358	843472,/,844151,/,844832,/,845511,/,846190,/,846871,/	t,t,t,t,t,t	<img class = center src='/static/experiments/beast_fmri_test/images/T.png'></img>	71,89	2750.0	test	<img class = center src='/static/experiments/beast_fmri_test/images/redT.png'></img>	go	-1.0	2.0	1.0	go	temp-non-target	T	71,Index Finger	89,Middle Finger	550.0	700.0	2150.0	2050.0	0.0	n/a	n/a	n/a	ITI
249228	500	n/a	-1	-1	500	0.0	fixation	poldrack-single-stim	300	848012	0.0-15.2-0.2	beast_fmri_test	358	847549,/	t	<div class = centerbox2><div class = fixation>+</div></div>	none	500.0	test	n/a	n/a	n/a	n/a	n/a	n/a	n/a	n/a	n/a	n/a	n/a	n/a	n/a	n/a	n/a	n/a	n/a	n/a	fixation
248997.42922703479	2750	n/a	579	89	2750	232.570772965	stim	stop-signal	301	850764	0.0-15.2-1.2	beast_fmri_test	358	848230,/,848910,/,849589,/,850268,/,850949,/	t,t,t,t,t	<img class = center src='/static/experiments/beast_fmri_test/images/B.png'></img>	71,89	2750.0	test	<img class = center src='/static/experiments/beast_fmri_test/images/redB.png'></img>	go	2050.0	2.0	2.0	go	non-target	B	71,Index Finger	89,Middle Finger	550.0	700.0	2150.0	2050.0	1.0	700.0	1.0	n/a	go_stim
251747.42922703479	232.57077296518816	n/a	579	89	2750	232.570772965	stim	stop-signal	301	850764	0.0-15.2-1.2	beast_fmri_test	358	848230,/,848910,/,849589,/,850268,/,850949,/	t,t,t,t,t	<img class = center src='/static/experiments/beast_fmri_test/images/B.png'></img>	71,89	2750.0	test	<img class = center src='/static/experiments/beast_fmri_test/images/redB.png'></img>	go	2050.0	2.0	2.0	go	non-target	B	71,Index Finger	89,Middle Finger	550.0	700.0	2150.0	2050.0	1.0	700.0	1.0	n/a	ITI
252745	500	n/a	-1	-1	500	0.0	fixation	poldrack-single-stim	302	851529	0.0-15.3-0.3	beast_fmri_test	358	n/a	n/a	<div class = centerbox2><div class = fixation>+</div></div>	none	500.0	test	n/a	n/a	n/a	n/a	n/a	n/a	n/a	n/a	n/a	n/a	n/a	n/a	n/a	n/a	n/a	n/a	n/a	n/a	fixation
252183.31443386979	2750	n/a	504	71	2750	562.68556613	stim	stop-signal	303	854280	0.0-15.3-1.3	beast_fmri_test	358	851627,/,852309,/,852987,/,853667,/,854346,/	t,t,t,t,t	<img class = center src='/static/experiments/beast_fmri_test/images/T.png'></img>	71,89	2750.0	test	<img class = center src='/static/experiments/beast_fmri_test/images/redT.png'></img>	go	2200.0	2.0	3.0	go	target	T	71,Index Finger	89,Middle Finger	550.0	700.0	2200.0	2050.0	1.0	550.0	1.0	n/a	go_stim
254933.31443386979	562.68556613016813	n/a	504	71	2750	562.68556613	stim	stop-signal	303	854280	0.0-15.3-1.3	beast_fmri_test	358	851627,/,852309,/,852987,/,853667,/,854346,/	t,t,t,t,t	<img class = center src='/static/experiments/beast_fmri_test/images/T.png'></img>	71,89	2750.0	test	<img class = center src='/static/experiments/beast_fmri_test/images/redT.png'></img>	go	2200.0	2.0	3.0	go	target	T	71,Index Finger	89,Middle Finger	550.0	700.0	2200.0	2050.0	1.0	550.0	1.0	n/a	ITI
256590	500	n/a	-1	-1	500	0.0	fixation	poldrack-single-stim	304	855374	0.0-15.4-0.4	beast_fmri_test	358	855026,/	t	<div class = centerbox2><div class = fixation>+</div></div>	none	500.0	test	n/a	n/a	n/a	n/a	n/a	n/a	n/a	n/a	n/a	n/a	n/a	n/a	n/a	n/a	n/a	n/a	n/a	n/a	fixation
255853.64053041581	2750	n/a	602	89	2750	738.359469584	stim	stop-signal	305	858126	0.0-15.4-1.4	beast_fmri_test	358	855706,/,856385,/,857066,/,857745,/,858425,/	t,t,t,t,t	<img class = center src='/static/experiments/beast_fmri_test/images/D.png'></img>	71,89	2750.0	test	<img class = center src='/static/experiments/beast_fmri_test/images/redD.png'></img>	go	2050.0	2.0	4.0	go	non-target	D	71,Index Finger	89,Middle Finger	550.0	700.0	2200.0	2050.0	1.0	700.0	1.0	n/a	go_stim
258603.64053041581	738.35946958422824	n/a	602	89	2750	738.359469584	stim	stop-signal	305	858126	0.0-15.4-1.4	beast_fmri_test	358	855706,/,856385,/,857066,/,857745,/,858425,/	t,t,t,t,t	<img class = center src='/static/experiments/beast_fmri_test/images/D.png'></img>	71,89	2750.0	test	<img class = center src='/static/experiments/beast_fmri_test/images/redD.png'></img>	go	2050.0	2.0	4.0	go	non-target	D	71,Index Finger	89,Middle Finger	550.0	700.0	2200.0	2050.0	1.0	700.0	1.0	n/a	ITI
260612	500	n/a	-1	-1	500	0.0	fixation	poldrack-single-stim	306	859396	0.0-15.5-0.5	beast_fmri_test	358	859104,/	t	<div class = centerbox2><div class = fixation>+</div></div>	none	500.0	test	n/a	n/a	n/a	n/a	n/a	n/a	n/a	n/a	n/a	n/a	n/a	n/a	n/a	n/a	n/a	n/a	n/a	n/a	fixation
260563.27049232507	700.0	n/a	503	89	2750	50.7295076749	stim	stop-signal	307	862148	0.0-15.5-1.5	beast_fmri_test	358	859785,/,860463,/,861145,/,861823,/	t,t,t,t	<img class = center src='/static/experiments/beast_fmri_test/images/D.png'></img>	71,89	2750.0	test	<img class = center src='/static/experiments/beast_fmri_test/images/redD.png'></img>	stop	2050.0	2.0	5.0	stop	non-target	D	71,Index Finger	89,Middle Finger	550.0	700.0	2200.0	2050.0	0.0	700.0	n/a	0.0	go_stim
262613.27049232507	2050.0	n/a	503	89	2750	50.7295076749	stim	stop-signal	307	862148	0.0-15.5-1.5	beast_fmri_test	358	859785,/,860463,/,861145,/,861823,/	t,t,t,t	<img class = center src='/static/experiments/beast_fmri_test/images/D.png'></img>	71,89	2750.0	test	<img class = center src='/static/experiments/beast_fmri_test/images/redD.png'></img>	stop	2050.0	2.0	5.0	stop	non-target	D	71,Index Finger	89,Middle Finger	550.0	700.0	2200.0	2050.0	0.0	700.0	n/a	0.0	stop_stim
263313.27049232507	50.729507674881503	n/a	503	89	2750	50.7295076749	stim	stop-signal	307	862148	0.0-15.5-1.5	beast_fmri_test	358	859785,/,860463,/,861145,/,861823,/	t,t,t,t	<img class = center src='/static/experiments/beast_fmri_test/images/D.png'></img>	71,89	2750.0	test	<img class = center src='/static/experiments/beast_fmri_test/images/redD.png'></img>	stop	2050.0	2.0	5.0	stop	non-target	D	71,Index Finger	89,Middle Finger	550.0	700.0	2200.0	2050.0	0.0	700.0	n/a	0.0	ITI
263942	500	n/a	-1	-1	500	0.0	fixation	poldrack-single-stim	308	862726	0.0-15.6-0.6	beast_fmri_test	358	862504,/	t	<div class = centerbox2><div class = fixation>+</div></div>	none	500.0	test	n/a	n/a	n/a	n/a	n/a	n/a	n/a	n/a	n/a	n/a	n/a	n/a	n/a	n/a	n/a	n/a	n/a	n/a	fixation
260220.02714453824	2750	n/a	890	89	2750	3724.97285546	stim	stop-signal	309	865479	0.0-15.6-1.6	beast_fmri_test	358	863184,/,863863,/,864543,/,865221,/,865902,/,866582,/,867262,/,867940,/,868621,/	t,t,t,t,t,t,t,t,t	<img class = center src='/static/experiments/beast_fmri_test/images/V.png'></img>	71,89	2750.0	test	<img class = center src='/static/experiments/beast_fmri_test/images/redV.png'></img>	go	2100.0	2.0	6.0	go	non-target	V	71,Index Finger	89,Middle Finger	550.0	650.0	2200.0	2100.0	1.0	650.0	1.0	n/a	go_stim
262970.02714453824	3724.9728554617182	n/a	890	89	2750	3724.97285546	stim	stop-signal	309	865479	0.0-15.6-1.6	beast_fmri_test	358	863184,/,863863,/,864543,/,865221,/,865902,/,866582,/,867262,/,867940,/,868621,/	t,t,t,t,t,t,t,t,t	<img class = center src='/static/experiments/beast_fmri_test/images/V.png'></img>	71,89	2750.0	test	<img class = center src='/static/experiments/beast_fmri_test/images/redV.png'></img>	go	2100.0	2.0	6.0	go	non-target	V	71,Index Finger	89,Middle Finger	550.0	650.0	2200.0	2100.0	1.0	650.0	1.0	n/a	ITI
270949	500	n/a	-1	-1	500	0.0	fixation	poldrack-single-stim	310	869733	0.0-15.7-0.7	beast_fmri_test	358	869300,/	t	<div class = centerbox2><div class = fixation>+</div></div>	none	500.0	test	n/a	n/a	n/a	n/a	n/a	n/a	n/a	n/a	n/a	n/a	n/a	n/a	n/a	n/a	n/a	n/a	n/a	n/a	fixation
270648.3966724152	2750	n/a	636	71	2750	302.603327585	stim	stop-signal	311	872485	0.0-15.7-1.7	beast_fmri_test	358	869980,/,870659,/,871340,/,872019,/,872699,/	t,t,t,t,t	<img class = center src='/static/experiments/beast_fmri_test/images/D.png'></img>	71,89	2750.0	test	<img class = center src='/static/experiments/beast_fmri_test/images/redD.png'></img>	go	2200.0	2.0	7.0	go	target	D	71,Index Finger	89,Middle Finger	550.0	650.0	2200.0	2100.0	1.0	550.0	1.0	n/a	go_stim
273398.3966724152	302.60332758482241	n/a	636	71	2750	302.603327585	stim	stop-signal	311	872485	0.0-15.7-1.7	beast_fmri_test	358	869980,/,870659,/,871340,/,872019,/,872699,/	t,t,t,t,t	<img class = center src='/static/experiments/beast_fmri_test/images/D.png'></img>	71,89	2750.0	test	<img class = center src='/static/experiments/beast_fmri_test/images/redD.png'></img>	go	2200.0	2.0	7.0	go	target	D	71,Index Finger	89,Middle Finger	550.0	650.0	2200.0	2100.0	1.0	550.0	1.0	n/a	ITI
274535	500	n/a	-1	-1	500	0.0	fixation	poldrack-single-stim	312	873319	0.0-15.8-0.8	beast_fmri_test	358	n/a	n/a	<div class = centerbox2><div class = fixation>+</div></div>	none	500.0	test	n/a	n/a	n/a	n/a	n/a	n/a	n/a	n/a	n/a	n/a	n/a	n/a	n/a	n/a	n/a	n/a	n/a	n/a	fixation
273720.52829508239	2750	n/a	1081	89	2750	816.471704918	stim	stop-signal	313	876071	0.0-15.8-1.8	beast_fmri_test	358	873378,/,874058,/,874738,/,875416,/,876096,/,876776,/	t,t,t,t,t,t	<img class = center src='/static/experiments/beast_fmri_test/images/D.png'></img>	71,89	2750.0	test	<img class = center src='/static/experiments/beast_fmri_test/images/redD.png'></img>	go	2100.0	2.0	8.0	go	non-target	D	71,Index Finger	89,Middle Finger	550.0	650.0	2200.0	2100.0	1.0	650.0	1.0	n/a	go_stim
276470.52829508239	816.47170491766315	n/a	1081	89	2750	816.471704918	stim	stop-signal	313	876071	0.0-15.8-1.8	beast_fmri_test	358	873378,/,874058,/,874738,/,875416,/,876096,/,876776,/	t,t,t,t,t,t	<img class = center src='/static/experiments/beast_fmri_test/images/D.png'></img>	71,89	2750.0	test	<img class = center src='/static/experiments/beast_fmri_test/images/redD.png'></img>	go	2100.0	2.0	8.0	go	non-target	D	71,Index Finger	89,Middle Finger	550.0	650.0	2200.0	2100.0	1.0	650.0	1.0	n/a	ITI
278636	500	n/a	-1	-1	500	0.0	fixation	poldrack-single-stim	314	877420	0.0-15.9-0.9	beast_fmri_test	358	n/a	n/a	<div class = centerbox2><div class = fixation>+</div></div>	none	500.0	test	n/a	n/a	n/a	n/a	n/a	n/a	n/a	n/a	n/a	n/a	n/a	n/a	n/a	n/a	n/a	n/a	n/a	n/a	fixation
275982.09834194533	550.0	n/a	743	71	2750	2655.90165805	stim	stop-signal	315	880172	0.0-15.9-1.9	beast_fmri_test	358	877456,/,878135,/,878815,/,879494,/,880175,/,880855,/,881533,/,882214,/	t,t,t,t,t,t,t,t	<img class = center src='/static/experiments/beast_fmri_test/images/D.png'></img>	71,89	2750.0	test	<img class = center src='/static/experiments/beast_fmri_test/images/redD.png'></img>	stop	2200.0	2.0	9.0	stop	target	D	71,Index Finger	89,Middle Finger	550.0	650.0	2200.0	2100.0	0.0	550.0	n/a	0.0	go_stim
278182.09834194533	2200.0	n/a	743	71	2750	2655.90165805	stim	stop-signal	315	880172	0.0-15.9-1.9	beast_fmri_test	358	877456,/,878135,/,878815,/,879494,/,880175,/,880855,/,881533,/,882214,/	t,t,t,t,t,t,t,t	<img class = center src='/static/experiments/beast_fmri_test/images/D.png'></img>	71,89	2750.0	test	<img class = center src='/static/experiments/beast_fmri_test/images/redD.png'></img>	stop	2200.0	2.0	9.0	stop	target	D	71,Index Finger	89,Middle Finger	550.0	650.0	2200.0	2100.0	0.0	550.0	n/a	0.0	stop_stim
278732.09834194533	2655.901658054669	n/a	743	71	2750	2655.90165805	stim	stop-signal	315	880172	0.0-15.9-1.9	beast_fmri_test	358	877456,/,878135,/,878815,/,879494,/,880175,/,880855,/,881533,/,882214,/	t,t,t,t,t,t,t,t	<img class = center src='/static/experiments/beast_fmri_test/images/D.png'></img>	71,89	2750.0	test	<img class = center src='/static/experiments/beast_fmri_test/images/redD.png'></img>	stop	2200.0	2.0	9.0	stop	target	D	71,Index Finger	89,Middle Finger	550.0	650.0	2200.0	2100.0	0.0	550.0	n/a	0.0	ITI
284577	500	n/a	-1	-1	500	0.0	fixation	poldrack-single-stim	316	883361	0.0-15.10-0.10	beast_fmri_test	358	882893,/	t	<div class = centerbox2><div class = fixation>+</div></div>	none	500.0	test	n/a	n/a	n/a	n/a	n/a	n/a	n/a	n/a	n/a	n/a	n/a	n/a	n/a	n/a	n/a	n/a	n/a	n/a	fixation
282996.61461487634	2750	n/a	757	71	2750	1583.38538512	stim	stop-signal	317	886114	0.0-15.10-1.10	beast_fmri_test	358	883573,/,884252,/,884933,/,885613,/,886293,/,886973,/,887653,/	t,t,t,t,t,t,t	<img class = center src='/static/experiments/beast_fmri_test/images/D.png'></img>	71,89	2750.0	test	<img class = center src='/static/experiments/beast_fmri_test/images/redD.png'></img>	go	2250.0	2.0	10.0	go	target	D	71,Index Finger	89,Middle Finger	500.0	650.0	2250.0	2100.0	1.0	500.0	1.0	n/a	go_stim
285746.61461487634	1583.3853851236609	n/a	757	71	2750	1583.38538512	stim	stop-signal	317	886114	0.0-15.10-1.10	beast_fmri_test	358	883573,/,884252,/,884933,/,885613,/,886293,/,886973,/,887653,/	t,t,t,t,t,t,t	<img class = center src='/static/experiments/beast_fmri_test/images/D.png'></img>	71,89	2750.0	test	<img class = center src='/static/experiments/beast_fmri_test/images/redD.png'></img>	go	2250.0	2.0	10.0	go	target	D	71,Index Finger	89,Middle Finger	500.0	650.0	2250.0	2100.0	1.0	500.0	1.0	n/a	ITI
289448	500	n/a	-1	-1	500	0.0	fixation	poldrack-single-stim	318	888232	0.0-15.11-0.11	beast_fmri_test	358	n/a	n/a	<div class = centerbox2><div class = fixation>+</div></div>	none	500.0	test	n/a	n/a	n/a	n/a	n/a	n/a	n/a	n/a	n/a	n/a	n/a	n/a	n/a	n/a	n/a	n/a	n/a	n/a	fixation
287580.92619751289	2750	n/a	1020	71	2750	1868.07380249	stim	stop-signal	319	890983	0.0-15.11-1.11	beast_fmri_test	358	888332,/,889012,/,889691,/,890371,/,891050,/,891731,/,892409,/	t,t,t,t,t,t,t	<img class = center src='/static/experiments/beast_fmri_test/images/D.png'></img>	71,89	2750.0	test	<img class = center src='/static/experiments/beast_fmri_test/images/redD.png'></img>	go	2250.0	2.0	11.0	go	target	D	71,Index Finger	89,Middle Finger	500.0	650.0	2250.0	2100.0	1.0	500.0	1.0	n/a	go_stim
290330.92619751289	1868.0738024871425	n/a	1020	71	2750	1868.07380249	stim	stop-signal	319	890983	0.0-15.11-1.11	beast_fmri_test	358	888332,/,889012,/,889691,/,890371,/,891050,/,891731,/,892409,/	t,t,t,t,t,t,t	<img class = center src='/static/experiments/beast_fmri_test/images/D.png'></img>	71,89	2750.0	test	<img class = center src='/static/experiments/beast_fmri_test/images/redD.png'></img>	go	2250.0	2.0	11.0	go	target	D	71,Index Finger	89,Middle Finger	500.0	650.0	2250.0	2100.0	1.0	500.0	1.0	n/a	ITI
294599	500	n/a	-1	-1	500	0.0	fixation	poldrack-single-stim	320	893383	0.0-15.12-0.12	beast_fmri_test	358	893089,/	t	<div class = centerbox2><div class = fixation>+</div></div>	none	500.0	test	n/a	n/a	n/a	n/a	n/a	n/a	n/a	n/a	n/a	n/a	n/a	n/a	n/a	n/a	n/a	n/a	n/a	n/a	fixation
294566.32311986294	650.0	n/a	857	89	2750	34.6768801371	stim	stop-signal	321	896135	0.0-15.12-1.12	beast_fmri_test	358	893770,/,894449,/,895128,/,895808,/	t,t,t,t	<img class = center src='/static/experiments/beast_fmri_test/images/V.png'></img>	71,89	2750.0	test	<img class = center src='/static/experiments/beast_fmri_test/images/redV.png'></img>	stop	2100.0	2.0	12.0	stop	non-target	V	71,Index Finger	89,Middle Finger	500.0	650.0	2250.0	2100.0	0.0	650.0	n/a	0.0	go_stim
296666.32311986294	2100.0	n/a	857	89	2750	34.6768801371	stim	stop-signal	321	896135	0.0-15.12-1.12	beast_fmri_test	358	893770,/,894449,/,895128,/,895808,/	t,t,t,t	<img class = center src='/static/experiments/beast_fmri_test/images/V.png'></img>	71,89	2750.0	test	<img class = center src='/static/experiments/beast_fmri_test/images/redV.png'></img>	stop	2100.0	2.0	12.0	stop	non-target	V	71,Index Finger	89,Middle Finger	500.0	650.0	2250.0	2100.0	0.0	650.0	n/a	0.0	stop_stim
297316.32311986294	34.676880137100184	n/a	857	89	2750	34.6768801371	stim	stop-signal	321	896135	0.0-15.12-1.12	beast_fmri_test	358	893770,/,894449,/,895128,/,895808,/	t,t,t,t	<img class = center src='/static/experiments/beast_fmri_test/images/V.png'></img>	71,89	2750.0	test	<img class = center src='/static/experiments/beast_fmri_test/images/redV.png'></img>	stop	2100.0	2.0	12.0	stop	non-target	V	71,Index Finger	89,Middle Finger	500.0	650.0	2250.0	2100.0	0.0	650.0	n/a	0.0	ITI
297920	500	n/a	-1	-1	500	0.0	fixation	poldrack-single-stim	322	896704	0.0-15.13-0.13	beast_fmri_test	358	896488,/	t	<div class = centerbox2><div class = fixation>+</div></div>	none	500.0	test	n/a	n/a	n/a	n/a	n/a	n/a	n/a	n/a	n/a	n/a	n/a	n/a	n/a	n/a	n/a	n/a	n/a	n/a	fixation
297478.94832533912	2750	n/a	1945	89	2750	442.051674661	stim	stop-signal	323	899455	0.0-15.13-1.13	beast_fmri_test	358	897167,/,897848,/,898526,/,899208,/,899886,/	t,t,t,t,t	<img class = center src='/static/experiments/beast_fmri_test/images/B.png'></img>	71,89	2750.0	test	<img class = center src='/static/experiments/beast_fmri_test/images/redB.png'></img>	go	2150.0	2.0	13.0	go	non-target	B	71,Index Finger	89,Middle Finger	500.0	600.0	2250.0	2150.0	1.0	600.0	1.0	n/a	go_stim
300228.94832533912	442.05167466091387	n/a	1945	89	2750	442.051674661	stim	stop-signal	323	899455	0.0-15.13-1.13	beast_fmri_test	358	897167,/,897848,/,898526,/,899208,/,899886,/	t,t,t,t,t	<img class = center src='/static/experiments/beast_fmri_test/images/B.png'></img>	71,89	2750.0	test	<img class = center src='/static/experiments/beast_fmri_test/images/redB.png'></img>	go	2150.0	2.0	13.0	go	non-target	B	71,Index Finger	89,Middle Finger	500.0	600.0	2250.0	2150.0	1.0	600.0	1.0	n/a	ITI
301647	500	n/a	-1	-1	500	0.0	fixation	poldrack-single-stim	324	900431	0.0-15.14-0.14	beast_fmri_test	358	n/a	n/a	<div class = centerbox2><div class = fixation>+</div></div>	none	500.0	test	n/a	n/a	n/a	n/a	n/a	n/a	n/a	n/a	n/a	n/a	n/a	n/a	n/a	n/a	n/a	n/a	n/a	n/a	fixation
300640.38392988953	2750	n/a	1625	89	2750	1008.61607011	stim	stop-signal	325	903183	0.0-15.14-1.14	beast_fmri_test	358	900567,/,901245,/,901926,/,902604,/,903285,/,903964,/	t,t,t,t,t,t	<img class = center src='/static/experiments/beast_fmri_test/images/B.png'></img>	71,89	2750.0	test	<img class = center src='/static/experiments/beast_fmri_test/images/redB.png'></img>	go	2150.0	2.0	14.0	go	non-target	B	71,Index Finger	89,Middle Finger	500.0	600.0	2250.0	2150.0	1.0	600.0	1.0	n/a	go_stim
303390.38392988953	1008.6160701104196	n/a	1625	89	2750	1008.61607011	stim	stop-signal	325	903183	0.0-15.14-1.14	beast_fmri_test	358	900567,/,901245,/,901926,/,902604,/,903285,/,903964,/	t,t,t,t,t,t	<img class = center src='/static/experiments/beast_fmri_test/images/B.png'></img>	71,89	2750.0	test	<img class = center src='/static/experiments/beast_fmri_test/images/redB.png'></img>	go	2150.0	2.0	14.0	go	non-target	B	71,Index Finger	89,Middle Finger	500.0	600.0	2250.0	2150.0	1.0	600.0	1.0	n/a	ITI
305937	500	n/a	-1	-1	500	0.0	fixation	poldrack-single-stim	326	904721	0.0-15.15-0.15	beast_fmri_test	358	904644,/	t	<div class = centerbox2><div class = fixation>+</div></div>	none	500.0	test	n/a	n/a	n/a	n/a	n/a	n/a	n/a	n/a	n/a	n/a	n/a	n/a	n/a	n/a	n/a	n/a	n/a	n/a	fixation
305833.791051451	2750	n/a	1076	71	2750	105.208948549	stim	stop-signal	327	907473	0.0-15.15-1.15	beast_fmri_test	358	905325,/,906004,/,906683,/,907362,/	t,t,t,t	<img class = center src='/static/experiments/beast_fmri_test/images/B.png'></img>	71,89	2750.0	test	<img class = center src='/static/experiments/beast_fmri_test/images/redB.png'></img>	go	2250.0	2.0	15.0	go	target	B	71,Index Finger	89,Middle Finger	500.0	600.0	2250.0	2150.0	1.0	500.0	1.0	n/a	go_stim
308583.791051451	105.20894854904604	n/a	1076	71	2750	105.208948549	stim	stop-signal	327	907473	0.0-15.15-1.15	beast_fmri_test	358	905325,/,906004,/,906683,/,907362,/	t,t,t,t	<img class = center src='/static/experiments/beast_fmri_test/images/B.png'></img>	71,89	2750.0	test	<img class = center src='/static/experiments/beast_fmri_test/images/redB.png'></img>	go	2250.0	2.0	15.0	go	target	B	71,Index Finger	89,Middle Finger	500.0	600.0	2250.0	2150.0	1.0	500.0	1.0	n/a	ITI
309330	500	n/a	-1	-1	500	0.0	fixation	poldrack-single-stim	328	908114	0.0-15.16-0.16	beast_fmri_test	358	908043,/	t	<div class = centerbox2><div class = fixation>+</div></div>	none	500.0	test	n/a	n/a	n/a	n/a	n/a	n/a	n/a	n/a	n/a	n/a	n/a	n/a	n/a	n/a	n/a	n/a	n/a	n/a	fixation
308568.12836012128	2750	n/a	1179	71	2750	762.871639879	stim	stop-signal	329	910865	0.0-15.16-1.16	beast_fmri_test	358	908721,/,909401,/,910081,/,910761,/,911440,/	t,t,t,t,t	<img class = center src='/static/experiments/beast_fmri_test/images/B.png'></img>	71,89	2750.0	test	<img class = center src='/static/experiments/beast_fmri_test/images/redB.png'></img>	go	2250.0	2.0	16.0	go	target	B	71,Index Finger	89,Middle Finger	500.0	600.0	2250.0	2150.0	1.0	500.0	1.0	n/a	go_stim
311318.12836012128	762.87163987872816	n/a	1179	71	2750	762.871639879	stim	stop-signal	329	910865	0.0-15.16-1.16	beast_fmri_test	358	908721,/,909401,/,910081,/,910761,/,911440,/	t,t,t,t,t	<img class = center src='/static/experiments/beast_fmri_test/images/B.png'></img>	71,89	2750.0	test	<img class = center src='/static/experiments/beast_fmri_test/images/redB.png'></img>	go	2250.0	2.0	16.0	go	target	B	71,Index Finger	89,Middle Finger	500.0	600.0	2250.0	2150.0	1.0	500.0	1.0	n/a	ITI
313378	500	n/a	-1	-1	500	0.0	fixation	poldrack-single-stim	330	912162	0.0-15.17-0.17	beast_fmri_test	358	912120,/	t	<div class = centerbox2><div class = fixation>+</div></div>	none	500.0	test	n/a	n/a	n/a	n/a	n/a	n/a	n/a	n/a	n/a	n/a	n/a	n/a	n/a	n/a	n/a	n/a	n/a	n/a	fixation
310671.45901978342	2750	n/a	1567	71	2750	2707.54098022	stim	stop-signal	331	914913	0.0-15.17-1.17	beast_fmri_test	358	912801,/,913479,/,914160,/,914838,/,915519,/,916200,/,916878,/,917558,/	t,t,t,t,t,t,t,t	<img class = center src='/static/experiments/beast_fmri_test/images/B.png'></img>	71,89	2750.0	test	<img class = center src='/static/experiments/beast_fmri_test/images/redB.png'></img>	go	2250.0	2.0	17.0	go	target	B	71,Index Finger	89,Middle Finger	500.0	600.0	2250.0	2150.0	1.0	500.0	1.0	n/a	go_stim
313421.45901978342	2707.54098021657	n/a	1567	71	2750	2707.54098022	stim	stop-signal	331	914913	0.0-15.17-1.17	beast_fmri_test	358	912801,/,913479,/,914160,/,914838,/,915519,/,916200,/,916878,/,917558,/	t,t,t,t,t,t,t,t	<img class = center src='/static/experiments/beast_fmri_test/images/B.png'></img>	71,89	2750.0	test	<img class = center src='/static/experiments/beast_fmri_test/images/redB.png'></img>	go	2250.0	2.0	17.0	go	target	B	71,Index Finger	89,Middle Finger	500.0	600.0	2250.0	2150.0	1.0	500.0	1.0	n/a	ITI
319369	500	n/a	-1	-1	500	0.0	fixation	poldrack-single-stim	332	918153	0.0-15.18-0.18	beast_fmri_test	358	n/a	n/a	<div class = centerbox2><div class = fixation>+</div></div>	none	500.0	test	n/a	n/a	n/a	n/a	n/a	n/a	n/a	n/a	n/a	n/a	n/a	n/a	n/a	n/a	n/a	n/a	n/a	n/a	fixation
317688.73335949925	600.0	n/a	-1	-1	2750	1683.2666405	stim	stop-signal	333	920906	0.0-15.18-1.18	beast_fmri_test	358	918239,/,918917,/,919598,/,920277,/,920956,/,921636,/,922317,/	t,t,t,t,t,t,t	<img class = center src='/static/experiments/beast_fmri_test/images/T.png'></img>	71,89	2750.0	test	<img class = center src='/static/experiments/beast_fmri_test/images/redT.png'></img>	stop	2150.0	2.0	18.0	stop	non-target	T	71,Index Finger	89,Middle Finger	500.0	600.0	2250.0	2150.0	0.0	600.0	n/a	1.0	go_stim
319838.73335949925	2150.0	n/a	-1	-1	2750	1683.2666405	stim	stop-signal	333	920906	0.0-15.18-1.18	beast_fmri_test	358	918239,/,918917,/,919598,/,920277,/,920956,/,921636,/,922317,/	t,t,t,t,t,t,t	<img class = center src='/static/experiments/beast_fmri_test/images/T.png'></img>	71,89	2750.0	test	<img class = center src='/static/experiments/beast_fmri_test/images/redT.png'></img>	stop	2150.0	2.0	18.0	stop	non-target	T	71,Index Finger	89,Middle Finger	500.0	600.0	2250.0	2150.0	0.0	600.0	n/a	1.0	stop_stim
320438.73335949925	1683.2666405006912	n/a	-1	-1	2750	1683.2666405	stim	stop-signal	333	920906	0.0-15.18-1.18	beast_fmri_test	358	918239,/,918917,/,919598,/,920277,/,920956,/,921636,/,922317,/	t,t,t,t,t,t,t	<img class = center src='/static/experiments/beast_fmri_test/images/T.png'></img>	71,89	2750.0	test	<img class = center src='/static/experiments/beast_fmri_test/images/redT.png'></img>	stop	2150.0	2.0	18.0	stop	non-target	T	71,Index Finger	89,Middle Finger	500.0	600.0	2250.0	2150.0	0.0	600.0	n/a	1.0	ITI
324342	500	n/a	-1	-1	500	0.0	fixation	poldrack-single-stim	334	923126	0.0-15.19-0.19	beast_fmri_test	358	922996,/	t	<div class = centerbox2><div class = fixation>+</div></div>	none	500.0	test	n/a	n/a	n/a	n/a	n/a	n/a	n/a	n/a	n/a	n/a	n/a	n/a	n/a	n/a	n/a	n/a	n/a	n/a	fixation
323906.03685701126	2750	n/a	714	89	2750	436.963142989	stim	stop-signal	335	925877	0.0-15.19-1.19	beast_fmri_test	358	923676,/,924355,/,925035,/,925715,/	t,t,t,t	<img class = center src='/static/experiments/beast_fmri_test/images/D.png'></img>	71,89	2750.0	test	<img class = center src='/static/experiments/beast_fmri_test/images/redD.png'></img>	go	2100.0	2.0	19.0	go	non-target	D	71,Index Finger	89,Middle Finger	500.0	650.0	2250.0	2100.0	1.0	650.0	1.0	n/a	go_stim
326656.03685701126	436.96314298876547	n/a	714	89	2750	436.963142989	stim	stop-signal	335	925877	0.0-15.19-1.19	beast_fmri_test	358	923676,/,924355,/,925035,/,925715,/	t,t,t,t	<img class = center src='/static/experiments/beast_fmri_test/images/D.png'></img>	71,89	2750.0	test	<img class = center src='/static/experiments/beast_fmri_test/images/redD.png'></img>	go	2100.0	2.0	19.0	go	non-target	D	71,Index Finger	89,Middle Finger	500.0	650.0	2250.0	2100.0	1.0	650.0	1.0	n/a	ITI
328061	500	n/a	-1	-1	500	0.0	fixation	poldrack-single-stim	336	926845	0.0-15.20-0.20	beast_fmri_test	358	926395,/	t	<div class = centerbox2><div class = fixation>+</div></div>	none	500.0	test	n/a	n/a	n/a	n/a	n/a	n/a	n/a	n/a	n/a	n/a	n/a	n/a	n/a	n/a	n/a	n/a	n/a	n/a	fixation
327658.45801722247	650.0	n/a	599	89	2750	405.541982778	stim	stop-signal	337	929598	0.0-15.20-1.20	beast_fmri_test	358	927075,/,927753,/,928433,/,929112,/,929793,/	t,t,t,t,t	<img class = center src='/static/experiments/beast_fmri_test/images/V.png'></img>	71,89	2750.0	test	<img class = center src='/static/experiments/beast_fmri_test/images/redV.png'></img>	stop	2100.0	2.0	20.0	stop	non-target	V	71,Index Finger	89,Middle Finger	500.0	650.0	2250.0	2100.0	0.0	650.0	n/a	0.0	go_stim
329758.45801722247	2100.0	n/a	599	89	2750	405.541982778	stim	stop-signal	337	929598	0.0-15.20-1.20	beast_fmri_test	358	927075,/,927753,/,928433,/,929112,/,929793,/	t,t,t,t,t	<img class = center src='/static/experiments/beast_fmri_test/images/V.png'></img>	71,89	2750.0	test	<img class = center src='/static/experiments/beast_fmri_test/images/redV.png'></img>	stop	2100.0	2.0	20.0	stop	non-target	V	71,Index Finger	89,Middle Finger	500.0	650.0	2250.0	2100.0	0.0	650.0	n/a	0.0	stop_stim
330408.45801722247	405.54198277750083	n/a	599	89	2750	405.541982778	stim	stop-signal	337	929598	0.0-15.20-1.20	beast_fmri_test	358	927075,/,927753,/,928433,/,929112,/,929793,/	t,t,t,t,t	<img class = center src='/static/experiments/beast_fmri_test/images/V.png'></img>	71,89	2750.0	test	<img class = center src='/static/experiments/beast_fmri_test/images/redV.png'></img>	stop	2100.0	2.0	20.0	stop	non-target	V	71,Index Finger	89,Middle Finger	500.0	650.0	2250.0	2100.0	0.0	650.0	n/a	0.0	ITI
331756	500	n/a	-1	-1	500	0.0	fixation	poldrack-single-stim	338	930540	0.0-15.21-0.21	beast_fmri_test	358	930471,/	t	<div class = centerbox2><div class = fixation>+</div></div>	none	500.0	test	n/a	n/a	n/a	n/a	n/a	n/a	n/a	n/a	n/a	n/a	n/a	n/a	n/a	n/a	n/a	n/a	n/a	n/a	fixation
328383.64572272194	500.0	n/a	-1	-1	2750	3373.35427728	stim	stop-signal	339	933291	0.0-15.21-1.21	beast_fmri_test	358	931153,/,931831,/,932512,/,933191,/,933871,/,934550,/,935229,/,935910,/,936590,/	t,t,t,t,t,t,t,t,t	<img class = center src='/static/experiments/beast_fmri_test/images/D.png'></img>	71,89	2750.0	test	<img class = center src='/static/experiments/beast_fmri_test/images/redD.png'></img>	stop	2250.0	2.0	21.0	stop	target	D	71,Index Finger	89,Middle Finger	500.0	600.0	2250.0	2100.0	0.0	500.0	n/a	1.0	go_stim
330633.64572272194	2250.0	n/a	-1	-1	2750	3373.35427728	stim	stop-signal	339	933291	0.0-15.21-1.21	beast_fmri_test	358	931153,/,931831,/,932512,/,933191,/,933871,/,934550,/,935229,/,935910,/,936590,/	t,t,t,t,t,t,t,t,t	<img class = center src='/static/experiments/beast_fmri_test/images/D.png'></img>	71,89	2750.0	test	<img class = center src='/static/experiments/beast_fmri_test/images/redD.png'></img>	stop	2250.0	2.0	21.0	stop	target	D	71,Index Finger	89,Middle Finger	500.0	600.0	2250.0	2100.0	0.0	500.0	n/a	1.0	stop_stim
331133.64572272194	3373.3542772780479	n/a	-1	-1	2750	3373.35427728	stim	stop-signal	339	933291	0.0-15.21-1.21	beast_fmri_test	358	931153,/,931831,/,932512,/,933191,/,933871,/,934550,/,935229,/,935910,/,936590,/	t,t,t,t,t,t,t,t,t	<img class = center src='/static/experiments/beast_fmri_test/images/D.png'></img>	71,89	2750.0	test	<img class = center src='/static/experiments/beast_fmri_test/images/redD.png'></img>	stop	2250.0	2.0	21.0	stop	target	D	71,Index Finger	89,Middle Finger	500.0	600.0	2250.0	2100.0	0.0	500.0	n/a	1.0	ITI
338414	500	n/a	-1	-1	500	0.0	fixation	poldrack-single-stim	340	937198	0.0-15.22-0.22	beast_fmri_test	358	n/a	n/a	<div class = centerbox2><div class = fixation>+</div></div>	none	500.0	test	n/a	n/a	n/a	n/a	n/a	n/a	n/a	n/a	n/a	n/a	n/a	n/a	n/a	n/a	n/a	n/a	n/a	n/a	fixation
337019.64169492596	600.0	n/a	541	89	2750	1395.35830507	stim	stop-signal	341	939949	0.0-15.22-1.22	beast_fmri_test	358	937269,/,937949,/,938628,/,939307,/,939988,/,940666,/	t,t,t,t,t,t	<img class = center src='/static/experiments/beast_fmri_test/images/D.png'></img>	71,89	2750.0	test	<img class = center src='/static/experiments/beast_fmri_test/images/redD.png'></img>	stop	2150.0	2.0	22.0	stop	non-target	D	71,Index Finger	89,Middle Finger	550.0	600.0	2250.0	2150.0	0.0	600.0	n/a	0.0	go_stim
