onset	duration	"“text"""	rt	key_press	block_duration	timing_post_trial	trial_id	trial_type	trial_index	time_elapsed	internal_node_id	exp_id	subject_id	trigger_times	triggers	stimulus	possible_responses	stim_duration	exp_stage	SS_stimulus	SS_trial_type	SS_duration	load	trial_num	stop_trial_type	adaptive_trial_type	stim	yes_response_key	no_response_key	SSD_target	SSD_non_target	SSTarget	SSNonTarget	go_acc	SS_delay	adaptive_acc	stop_acc	new_trial_type
test	10880.0	n/a	-1	-1	10880	0.0	practice-no-stop-feedback	poldrack-single-stim	6	39687	0.0-6.0	beast_fmri_test	276	28809,/,29487,/,30167,/,30847,/,31526,/,32207,/,32888,/,33568,/,34245,/,34923,/,35601,/,36283,/,36963,/,37643,/,38323,/,39002,/,39683,/	t,t,t,t,t,t,t,t,t,t,t,t,t,t,t,t,t	"<div class = ""centerbox""><p class = ""block-text"">Your delay is 2 trials.</p><p class = block-text>Please wait for the scanner to start the block</p></div>"	77	10880.0	n/a	n/a	n/a	n/a	n/a	n/a	n/a	n/a	n/a	n/a	n/a	n/a	n/a	n/a	n/a	n/a	n/a	n/a	n/a	start_functional_block
11381	500.0	n/a	-1	-1	500	0.0	fixation	poldrack-single-stim	7	40190	0.0-7.0-0.0	beast_fmri_test	276	n/a	n/a	<div class = centerbox2><div class = fixation>+</div></div>	none	500.0	test	n/a	n/a	n/a	n/a	n/a	n/a	n/a	n/a	n/a	n/a	n/a	n/a	n/a	n/a	n/a	n/a	n/a	n/a	fixation
7201.7771041069645	2750.0	n/a	2257	89	2750	4186.22289589	stim	stop-signal	8	42947	0.0-7.0-1.0	beast_fmri_test	276	40364,/,41043,/,41723,/,42403,/,43082,/,43763,/,44439,/,45119,/,45799,/,46479,/	t,t,t,t,t,t,t,t,t,t	<img class = center src='/static/experiments/beast_fmri_test/images/P.png'></img>	71,89	2750.0	test	<img class = center src='/static/experiments/beast_fmri_test/images/redP.png'></img>	go	-1.0	2.0	0.0	go	temp-non-target	P	71,Index Finger	89,Middle Finger	500.0	500.0	0.0	0.0	0.0	n/a	n/a	n/a	go_stim
9951.7771041069645	4186.22289589	n/a	2257	89	2750	4186.22289589	stim	stop-signal	8	42947	0.0-7.0-1.0	beast_fmri_test	276	40364,/,41043,/,41723,/,42403,/,43082,/,43763,/,44439,/,45119,/,45799,/,46479,/	t,t,t,t,t,t,t,t,t,t	<img class = center src='/static/experiments/beast_fmri_test/images/P.png'></img>	71,89	2750.0	test	<img class = center src='/static/experiments/beast_fmri_test/images/redP.png'></img>	go	-1.0	2.0	0.0	go	temp-non-target	P	71,Index Finger	89,Middle Finger	500.0	500.0	0.0	0.0	0.0	n/a	n/a	n/a	ITI
18830	500.0	n/a	-1	-1	500	0.0	fixation	poldrack-single-stim	9	47639	0.0-7.1-0.1	beast_fmri_test	276	47159,/	t	<div class = centerbox2><div class = fixation>+</div></div>	none	500.0	test	n/a	n/a	n/a	n/a	n/a	n/a	n/a	n/a	n/a	n/a	n/a	n/a	n/a	n/a	n/a	n/a	n/a	n/a	fixation
15490.169416782621	2750.0	n/a	863	89	2750	3339.83058322	stim	stop-signal	10	50389	0.0-7.1-1.1	beast_fmri_test	276	47837,/,48517,/,49197,/,49873,/,50552,/,51234,/,51912,/,52594,/,53273,/	t,t,t,t,t,t,t,t,t	<img class = center src='/static/experiments/beast_fmri_test/images/B.png'></img>	71,89	2750.0	test	<img class = center src='/static/experiments/beast_fmri_test/images/redB.png'></img>	go	-1.0	2.0	1.0	go	temp-non-target	B	71,Index Finger	89,Middle Finger	500.0	500.0	0.0	0.0	0.0	n/a	n/a	n/a	go_stim
18240.169416782621	3339.83058322	n/a	863	89	2750	3339.83058322	stim	stop-signal	10	50389	0.0-7.1-1.1	beast_fmri_test	276	47837,/,48517,/,49197,/,49873,/,50552,/,51234,/,51912,/,52594,/,53273,/	t,t,t,t,t,t,t,t,t	<img class = center src='/static/experiments/beast_fmri_test/images/B.png'></img>	71,89	2750.0	test	<img class = center src='/static/experiments/beast_fmri_test/images/redB.png'></img>	go	-1.0	2.0	1.0	go	temp-non-target	B	71,Index Finger	89,Middle Finger	500.0	500.0	0.0	0.0	0.0	n/a	n/a	n/a	ITI
25428	500.0	n/a	-1	-1	500	0.0	fixation	poldrack-single-stim	11	54237	0.0-7.2-0.2	beast_fmri_test	276	53954,/	t	<div class = centerbox2><div class = fixation>+</div></div>	none	500.0	test	n/a	n/a	n/a	n/a	n/a	n/a	n/a	n/a	n/a	n/a	n/a	n/a	n/a	n/a	n/a	n/a	n/a	n/a	fixation
22697.467775505414	2750.0	n/a	819	89	2750	2734.53222449	stim	stop-signal	12	56991	0.0-7.2-1.2	beast_fmri_test	276	54633,/,55314,/,55993,/,56674,/,57354,/,58033,/,58712,/,59394,/	t,t,t,t,t,t,t,t	<img class = center src='/static/experiments/beast_fmri_test/images/T.png'></img>	71,89	2750.0	test	<img class = center src='/static/experiments/beast_fmri_test/images/redT.png'></img>	go	2250.0	2.0	2.0	go	non-target	T	71,Index Finger	89,Middle Finger	500.0	500.0	0.0	2250.0	1.0	500.0	1.0	n/a	go_stim
25447.467775505414	2734.53222449	n/a	819	89	2750	2734.53222449	stim	stop-signal	12	56991	0.0-7.2-1.2	beast_fmri_test	276	54633,/,55314,/,55993,/,56674,/,57354,/,58033,/,58712,/,59394,/	t,t,t,t,t,t,t,t	<img class = center src='/static/experiments/beast_fmri_test/images/T.png'></img>	71,89	2750.0	test	<img class = center src='/static/experiments/beast_fmri_test/images/redT.png'></img>	go	2250.0	2.0	2.0	go	non-target	T	71,Index Finger	89,Middle Finger	500.0	500.0	0.0	2250.0	1.0	500.0	1.0	n/a	ITI
31424	500.0	n/a	-1	-1	500	0.0	fixation	poldrack-single-stim	13	60233	0.0-7.3-0.3	beast_fmri_test	276	60073,/	t	<div class = centerbox2><div class = fixation>+</div></div>	none	500.0	test	n/a	n/a	n/a	n/a	n/a	n/a	n/a	n/a	n/a	n/a	n/a	n/a	n/a	n/a	n/a	n/a	n/a	n/a	fixation
30053.752601363441	500.0	n/a	960	89	2750	1374.24739864	stim	stop-signal	14	62987	0.0-7.3-1.3	beast_fmri_test	276	60753,/,61433,/,62114,/,62793,/,63473,/,64152,/	t,t,t,t,t,t	<img class = center src='/static/experiments/beast_fmri_test/images/D.png'></img>	71,89	2750.0	test	<img class = center src='/static/experiments/beast_fmri_test/images/redD.png'></img>	stop	2250.0	2.0	3.0	stop	non-target	D	71,Index Finger	89,Middle Finger	500.0	500.0	0.0	2250.0	0.0	500.0	n/a	0.0	go_stim
32303.752601363441	2250.0	n/a	960	89	2750	1374.24739864	stim	stop-signal	14	62987	0.0-7.3-1.3	beast_fmri_test	276	60753,/,61433,/,62114,/,62793,/,63473,/,64152,/	t,t,t,t,t,t	<img class = center src='/static/experiments/beast_fmri_test/images/D.png'></img>	71,89	2750.0	test	<img class = center src='/static/experiments/beast_fmri_test/images/redD.png'></img>	stop	2250.0	2.0	3.0	stop	non-target	D	71,Index Finger	89,Middle Finger	500.0	500.0	0.0	2250.0	0.0	500.0	n/a	0.0	stop_stim
32803.752601363441	1374.24739864	n/a	960	89	2750	1374.24739864	stim	stop-signal	14	62987	0.0-7.3-1.3	beast_fmri_test	276	60753,/,61433,/,62114,/,62793,/,63473,/,64152,/	t,t,t,t,t,t	<img class = center src='/static/experiments/beast_fmri_test/images/D.png'></img>	71,89	2750.0	test	<img class = center src='/static/experiments/beast_fmri_test/images/redD.png'></img>	stop	2250.0	2.0	3.0	stop	non-target	D	71,Index Finger	89,Middle Finger	500.0	500.0	0.0	2250.0	0.0	500.0	n/a	0.0	ITI
36055	500.0	n/a	-1	-1	500	0.0	fixation	poldrack-single-stim	15	64864	0.0-7.4-0.4	beast_fmri_test	276	64830,/	t	<div class = centerbox2><div class = fixation>+</div></div>	none	500.0	test	n/a	n/a	n/a	n/a	n/a	n/a	n/a	n/a	n/a	n/a	n/a	n/a	n/a	n/a	n/a	n/a	n/a	n/a	fixation
34029.861861107784	500.0	n/a	-1	-1	2750	2027.13813889	stim	stop-signal	16	67616	0.0-7.4-1.4	beast_fmri_test	276	65509,/,66188,/,66868,/,67548,/,68229,/,68906,/,69585,/	t,t,t,t,t,t,t	<img class = center src='/static/experiments/beast_fmri_test/images/T.png'></img>	71,89	2750.0	test	<img class = center src='/static/experiments/beast_fmri_test/images/redT.png'></img>	stop	2250.0	2.0	4.0	stop	target	T	71,Index Finger	89,Middle Finger	500.0	450.0	2250.0	2250.0	0.0	500.0	n/a	1.0	go_stim
36279.861861107784	2250.0	n/a	-1	-1	2750	2027.13813889	stim	stop-signal	16	67616	0.0-7.4-1.4	beast_fmri_test	276	65509,/,66188,/,66868,/,67548,/,68229,/,68906,/,69585,/	t,t,t,t,t,t,t	<img class = center src='/static/experiments/beast_fmri_test/images/T.png'></img>	71,89	2750.0	test	<img class = center src='/static/experiments/beast_fmri_test/images/redT.png'></img>	stop	2250.0	2.0	4.0	stop	target	T	71,Index Finger	89,Middle Finger	500.0	450.0	2250.0	2250.0	0.0	500.0	n/a	1.0	stop_stim
36779.861861107784	2027.13813889	n/a	-1	-1	2750	2027.13813889	stim	stop-signal	16	67616	0.0-7.4-1.4	beast_fmri_test	276	65509,/,66188,/,66868,/,67548,/,68229,/,68906,/,69585,/	t,t,t,t,t,t,t	<img class = center src='/static/experiments/beast_fmri_test/images/T.png'></img>	71,89	2750.0	test	<img class = center src='/static/experiments/beast_fmri_test/images/redT.png'></img>	stop	2250.0	2.0	4.0	stop	target	T	71,Index Finger	89,Middle Finger	500.0	450.0	2250.0	2250.0	0.0	500.0	n/a	1.0	ITI
41336	500.0	n/a	-1	-1	500	0.0	fixation	poldrack-single-stim	17	70145	0.0-7.5-0.5	beast_fmri_test	276	n/a	n/a	<div class = centerbox2><div class = fixation>+</div></div>	none	500.0	test	n/a	n/a	n/a	n/a	n/a	n/a	n/a	n/a	n/a	n/a	n/a	n/a	n/a	n/a	n/a	n/a	n/a	n/a	fixation
40001.292560880043	2750.0	n/a	1211	89	2750	1338.70743912	stim	stop-signal	18	72899	0.0-7.5-1.5	beast_fmri_test	276	70265,/,70944,/,71624,/,72304,/,72984,/,73665,/	t,t,t,t,t,t	<img class = center src='/static/experiments/beast_fmri_test/images/V.png'></img>	71,89	2750.0	test	<img class = center src='/static/experiments/beast_fmri_test/images/redV.png'></img>	go	2300.0	2.0	5.0	go	non-target	V	71,Index Finger	89,Middle Finger	550.0	450.0	2250.0	2300.0	1.0	450.0	1.0	n/a	go_stim
42751.292560880043	1338.70743912	n/a	1211	89	2750	1338.70743912	stim	stop-signal	18	72899	0.0-7.5-1.5	beast_fmri_test	276	70265,/,70944,/,71624,/,72304,/,72984,/,73665,/	t,t,t,t,t,t	<img class = center src='/static/experiments/beast_fmri_test/images/V.png'></img>	71,89	2750.0	test	<img class = center src='/static/experiments/beast_fmri_test/images/redV.png'></img>	go	2300.0	2.0	5.0	go	non-target	V	71,Index Finger	89,Middle Finger	550.0	450.0	2250.0	2300.0	1.0	450.0	1.0	n/a	ITI
45936	500.0	n/a	-1	-1	500	0.0	fixation	poldrack-single-stim	19	74745	0.0-7.6-0.6	beast_fmri_test	276	74345,/	t	<div class = centerbox2><div class = fixation>+</div></div>	none	500.0	test	n/a	n/a	n/a	n/a	n/a	n/a	n/a	n/a	n/a	n/a	n/a	n/a	n/a	n/a	n/a	n/a	n/a	n/a	fixation
44361.941780684036	2750.0	n/a	1656	89	2750	1578.05821932	stim	stop-signal	20	77499	0.0-7.6-1.6	beast_fmri_test	276	75025,/,75705,/,76384,/,77064,/,77746,/,78425,/	t,t,t,t,t,t	<img class = center src='/static/experiments/beast_fmri_test/images/T.png'></img>	71,89	2750.0	test	<img class = center src='/static/experiments/beast_fmri_test/images/redT.png'></img>	go	2200.0	2.0	6.0	go	target	T	71,Index Finger	89,Middle Finger	550.0	450.0	2200.0	2300.0	0.0	550.0	0.0	n/a	go_stim
47111.941780684036	1578.05821932	n/a	1656	89	2750	1578.05821932	stim	stop-signal	20	77499	0.0-7.6-1.6	beast_fmri_test	276	75025,/,75705,/,76384,/,77064,/,77746,/,78425,/	t,t,t,t,t,t	<img class = center src='/static/experiments/beast_fmri_test/images/T.png'></img>	71,89	2750.0	test	<img class = center src='/static/experiments/beast_fmri_test/images/redT.png'></img>	go	2200.0	2.0	6.0	go	target	T	71,Index Finger	89,Middle Finger	550.0	450.0	2200.0	2300.0	0.0	550.0	0.0	n/a	ITI
50777	500.0	n/a	-1	-1	500	0.0	fixation	poldrack-single-stim	21	79586	0.0-7.7-0.7	beast_fmri_test	276	79105,/	t	<div class = centerbox2><div class = fixation>+</div></div>	none	500.0	test	n/a	n/a	n/a	n/a	n/a	n/a	n/a	n/a	n/a	n/a	n/a	n/a	n/a	n/a	n/a	n/a	n/a	n/a	fixation
50727.909477798457	2750.0	n/a	1250	89	2750	51.0905222015	stim	stop-signal	22	82338	0.0-7.7-1.7	beast_fmri_test	276	79785,/,80466,/,81144,/,81824,/	t,t,t,t	<img class = center src='/static/experiments/beast_fmri_test/images/B.png'></img>	71,89	2750.0	test	<img class = center src='/static/experiments/beast_fmri_test/images/redB.png'></img>	go	2300.0	2.0	7.0	go	non-target	B	71,Index Finger	89,Middle Finger	550.0	450.0	2200.0	2300.0	1.0	450.0	1.0	n/a	go_stim
53477.909477798457	51.0905222015	n/a	1250	89	2750	51.0905222015	stim	stop-signal	22	82338	0.0-7.7-1.7	beast_fmri_test	276	79785,/,80466,/,81144,/,81824,/	t,t,t,t	<img class = center src='/static/experiments/beast_fmri_test/images/B.png'></img>	71,89	2750.0	test	<img class = center src='/static/experiments/beast_fmri_test/images/redB.png'></img>	go	2300.0	2.0	7.0	go	non-target	B	71,Index Finger	89,Middle Finger	550.0	450.0	2200.0	2300.0	1.0	450.0	1.0	n/a	ITI
54089	500.0	n/a	-1	-1	500	0.0	fixation	poldrack-single-stim	23	82898	0.0-7.8-0.8	beast_fmri_test	276	82503,/	t	<div class = centerbox2><div class = fixation>+</div></div>	none	500.0	test	n/a	n/a	n/a	n/a	n/a	n/a	n/a	n/a	n/a	n/a	n/a	n/a	n/a	n/a	n/a	n/a	n/a	n/a	fixation
52935.869989133906	2750.0	n/a	1117	89	2750	1151.13001087	stim	stop-signal	24	85646	0.0-7.8-1.8	beast_fmri_test	276	83185,/,83865,/,84541,/,85218,/,85900,/,86579,/	t,t,t,t,t,t	<img class = center src='/static/experiments/beast_fmri_test/images/D.png'></img>	71,89	2750.0	test	<img class = center src='/static/experiments/beast_fmri_test/images/redD.png'></img>	go	2300.0	2.0	8.0	go	non-target	D	71,Index Finger	89,Middle Finger	550.0	450.0	2200.0	2300.0	1.0	450.0	1.0	n/a	go_stim
55685.869989133906	1151.13001087	n/a	1117	89	2750	1151.13001087	stim	stop-signal	24	85646	0.0-7.8-1.8	beast_fmri_test	276	83185,/,83865,/,84541,/,85218,/,85900,/,86579,/	t,t,t,t,t,t	<img class = center src='/static/experiments/beast_fmri_test/images/D.png'></img>	71,89	2750.0	test	<img class = center src='/static/experiments/beast_fmri_test/images/redD.png'></img>	go	2300.0	2.0	8.0	go	non-target	D	71,Index Finger	89,Middle Finger	550.0	450.0	2200.0	2300.0	1.0	450.0	1.0	n/a	ITI
58499	500.0	n/a	-1	-1	500	0.0	fixation	poldrack-single-stim	25	87308	0.0-7.9-0.9	beast_fmri_test	276	87259,/	t	<div class = centerbox2><div class = fixation>+</div></div>	none	500.0	test	n/a	n/a	n/a	n/a	n/a	n/a	n/a	n/a	n/a	n/a	n/a	n/a	n/a	n/a	n/a	n/a	n/a	n/a	fixation
58455.117932152076	2750.0	n/a	1111	89	2750	46.8820678479	stim	stop-signal	26	90061	0.0-7.9-1.9	beast_fmri_test	276	87940,/,88619,/,89300,/,89979,/	t,t,t,t	<img class = center src='/static/experiments/beast_fmri_test/images/D.png'></img>	71,89	2750.0	test	<img class = center src='/static/experiments/beast_fmri_test/images/redD.png'></img>	go	2300.0	2.0	9.0	go	non-target	D	71,Index Finger	89,Middle Finger	550.0	450.0	2200.0	2300.0	1.0	450.0	1.0	n/a	go_stim
61205.117932152076	46.8820678479	n/a	1111	89	2750	46.8820678479	stim	stop-signal	26	90061	0.0-7.9-1.9	beast_fmri_test	276	87940,/,88619,/,89300,/,89979,/	t,t,t,t	<img class = center src='/static/experiments/beast_fmri_test/images/D.png'></img>	71,89	2750.0	test	<img class = center src='/static/experiments/beast_fmri_test/images/redD.png'></img>	go	2300.0	2.0	9.0	go	non-target	D	71,Index Finger	89,Middle Finger	550.0	450.0	2200.0	2300.0	1.0	450.0	1.0	n/a	ITI
61807	500.0	n/a	-1	-1	500	0.0	fixation	poldrack-single-stim	27	90616	0.0-7.10-0.10	beast_fmri_test	276	n/a	n/a	<div class = centerbox2><div class = fixation>+</div></div>	none	500.0	test	n/a	n/a	n/a	n/a	n/a	n/a	n/a	n/a	n/a	n/a	n/a	n/a	n/a	n/a	n/a	n/a	n/a	n/a	fixation
60445.72767373138	450.0	n/a	-1	-1	2750	1364.27232627	stim	stop-signal	28	93369	0.0-7.10-1.10	beast_fmri_test	276	90660,/,91339,/,92019,/,92700,/,93380,/,94058,/	t,t,t,t,t,t	<img class = center src='/static/experiments/beast_fmri_test/images/B.png'></img>	71,89	2750.0	test	<img class = center src='/static/experiments/beast_fmri_test/images/redB.png'></img>	stop	2300.0	2.0	10.0	stop	non-target	B	71,Index Finger	89,Middle Finger	550.0	450.0	2200.0	2300.0	0.0	450.0	n/a	1.0	go_stim
62745.72767373138	2300.0	n/a	-1	-1	2750	1364.27232627	stim	stop-signal	28	93369	0.0-7.10-1.10	beast_fmri_test	276	90660,/,91339,/,92019,/,92700,/,93380,/,94058,/	t,t,t,t,t,t	<img class = center src='/static/experiments/beast_fmri_test/images/B.png'></img>	71,89	2750.0	test	<img class = center src='/static/experiments/beast_fmri_test/images/redB.png'></img>	stop	2300.0	2.0	10.0	stop	non-target	B	71,Index Finger	89,Middle Finger	550.0	450.0	2200.0	2300.0	0.0	450.0	n/a	1.0	stop_stim
63195.72767373138	1364.27232627	n/a	-1	-1	2750	1364.27232627	stim	stop-signal	28	93369	0.0-7.10-1.10	beast_fmri_test	276	90660,/,91339,/,92019,/,92700,/,93380,/,94058,/	t,t,t,t,t,t	<img class = center src='/static/experiments/beast_fmri_test/images/B.png'></img>	71,89	2750.0	test	<img class = center src='/static/experiments/beast_fmri_test/images/redB.png'></img>	stop	2300.0	2.0	10.0	stop	non-target	B	71,Index Finger	89,Middle Finger	550.0	450.0	2200.0	2300.0	0.0	450.0	n/a	1.0	ITI
66429	500.0	n/a	-1	-1	500	0.0	fixation	poldrack-single-stim	29	95238	0.0-7.11-0.11	beast_fmri_test	276	94737,/	t	<div class = centerbox2><div class = fixation>+</div></div>	none	500.0	test	n/a	n/a	n/a	n/a	n/a	n/a	n/a	n/a	n/a	n/a	n/a	n/a	n/a	n/a	n/a	n/a	n/a	n/a	fixation
66070.909286604816	2750.0	n/a	1250	89	2750	361.090713395	stim	stop-signal	30	97991	0.0-7.11-1.11	beast_fmri_test	276	95415,/,96095,/,96774,/,97454,/,98134,/	t,t,t,t,t	<img class = center src='/static/experiments/beast_fmri_test/images/V.png'></img>	71,89	2750.0	test	<img class = center src='/static/experiments/beast_fmri_test/images/redV.png'></img>	go	2250.0	2.0	11.0	go	non-target	V	71,Index Finger	89,Middle Finger	550.0	500.0	2200.0	2250.0	1.0	500.0	1.0	n/a	go_stim
68820.909286604816	361.090713395	n/a	1250	89	2750	361.090713395	stim	stop-signal	30	97991	0.0-7.11-1.11	beast_fmri_test	276	95415,/,96095,/,96774,/,97454,/,98134,/	t,t,t,t,t	<img class = center src='/static/experiments/beast_fmri_test/images/V.png'></img>	71,89	2750.0	test	<img class = center src='/static/experiments/beast_fmri_test/images/redV.png'></img>	go	2250.0	2.0	11.0	go	non-target	V	71,Index Finger	89,Middle Finger	550.0	500.0	2200.0	2250.0	1.0	500.0	1.0	n/a	ITI
70053	500.0	n/a	-1	-1	500	0.0	fixation	poldrack-single-stim	31	98862	0.0-7.12-0.12	beast_fmri_test	276	98816,/	t	<div class = centerbox2><div class = fixation>+</div></div>	none	500.0	test	n/a	n/a	n/a	n/a	n/a	n/a	n/a	n/a	n/a	n/a	n/a	n/a	n/a	n/a	n/a	n/a	n/a	n/a	fixation
69488.760623395181	550.0	n/a	-1	-1	2750	567.239376605	stim	stop-signal	32	101615	0.0-7.12-1.12	beast_fmri_test	276	99495,/,100175,/,100856,/,101536,/	t,t,t,t	<img class = center src='/static/experiments/beast_fmri_test/images/B.png'></img>	71,89	2750.0	test	<img class = center src='/static/experiments/beast_fmri_test/images/redB.png'></img>	stop	2200.0	2.0	12.0	stop	target	B	71,Index Finger	89,Middle Finger	550.0	500.0	2200.0	2250.0	0.0	550.0	n/a	1.0	go_stim
71688.760623395181	2200.0	n/a	-1	-1	2750	567.239376605	stim	stop-signal	32	101615	0.0-7.12-1.12	beast_fmri_test	276	99495,/,100175,/,100856,/,101536,/	t,t,t,t	<img class = center src='/static/experiments/beast_fmri_test/images/B.png'></img>	71,89	2750.0	test	<img class = center src='/static/experiments/beast_fmri_test/images/redB.png'></img>	stop	2200.0	2.0	12.0	stop	target	B	71,Index Finger	89,Middle Finger	550.0	500.0	2200.0	2250.0	0.0	550.0	n/a	1.0	stop_stim
72238.760623395181	567.239376605	n/a	-1	-1	2750	567.239376605	stim	stop-signal	32	101615	0.0-7.12-1.12	beast_fmri_test	276	99495,/,100175,/,100856,/,101536,/	t,t,t,t	<img class = center src='/static/experiments/beast_fmri_test/images/B.png'></img>	71,89	2750.0	test	<img class = center src='/static/experiments/beast_fmri_test/images/redB.png'></img>	stop	2200.0	2.0	12.0	stop	target	B	71,Index Finger	89,Middle Finger	550.0	500.0	2200.0	2250.0	0.0	550.0	n/a	1.0	ITI
73883	500.0	n/a	-1	-1	500	0.0	fixation	poldrack-single-stim	33	102692	0.0-7.13-0.13	beast_fmri_test	276	102216,/	t	<div class = centerbox2><div class = fixation>+</div></div>	none	500.0	test	n/a	n/a	n/a	n/a	n/a	n/a	n/a	n/a	n/a	n/a	n/a	n/a	n/a	n/a	n/a	n/a	n/a	n/a	fixation
73371.712626449167	600.0	n/a	-1	-1	2750	508.287373551	stim	stop-signal	34	105439	0.0-7.13-1.13	beast_fmri_test	276	102894,/,103576,/,104254,/,104930,/,105609,/	t,t,t,t,t	<img class = center src='/static/experiments/beast_fmri_test/images/V.png'></img>	71,89	2750.0	test	<img class = center src='/static/experiments/beast_fmri_test/images/redV.png'></img>	stop	2150.0	2.0	13.0	stop	target	V	71,Index Finger	89,Middle Finger	600.0	500.0	2150.0	2250.0	0.0	600.0	n/a	1.0	go_stim
75521.712626449167	2150.0	n/a	-1	-1	2750	508.287373551	stim	stop-signal	34	105439	0.0-7.13-1.13	beast_fmri_test	276	102894,/,103576,/,104254,/,104930,/,105609,/	t,t,t,t,t	<img class = center src='/static/experiments/beast_fmri_test/images/V.png'></img>	71,89	2750.0	test	<img class = center src='/static/experiments/beast_fmri_test/images/redV.png'></img>	stop	2150.0	2.0	13.0	stop	target	V	71,Index Finger	89,Middle Finger	600.0	500.0	2150.0	2250.0	0.0	600.0	n/a	1.0	stop_stim
76121.712626449167	508.287373551	n/a	-1	-1	2750	508.287373551	stim	stop-signal	34	105439	0.0-7.13-1.13	beast_fmri_test	276	102894,/,103576,/,104254,/,104930,/,105609,/	t,t,t,t,t	<img class = center src='/static/experiments/beast_fmri_test/images/V.png'></img>	71,89	2750.0	test	<img class = center src='/static/experiments/beast_fmri_test/images/redV.png'></img>	stop	2150.0	2.0	13.0	stop	target	V	71,Index Finger	89,Middle Finger	600.0	500.0	2150.0	2250.0	0.0	600.0	n/a	1.0	ITI
77648	500.0	n/a	-1	-1	500	0.0	fixation	poldrack-single-stim	35	106457	0.0-7.14-0.14	beast_fmri_test	276	106290,/	t	<div class = centerbox2><div class = fixation>+</div></div>	none	500.0	test	n/a	n/a	n/a	n/a	n/a	n/a	n/a	n/a	n/a	n/a	n/a	n/a	n/a	n/a	n/a	n/a	n/a	n/a	fixation
76961.928960905832	2750.0	n/a	1335	89	2750	688.071039094	stim	stop-signal	36	109209	0.0-7.14-1.14	beast_fmri_test	276	106972,/,107651,/,108330,/,109010,/,109690,/	t,t,t,t,t	<img class = center src='/static/experiments/beast_fmri_test/images/B.png'></img>	71,89	2750.0	test	<img class = center src='/static/experiments/beast_fmri_test/images/redB.png'></img>	go	2100.0	2.0	14.0	go	target	B	71,Index Finger	89,Middle Finger	650.0	500.0	2100.0	2250.0	0.0	650.0	0.0	n/a	go_stim
79711.928960905832	688.071039094	n/a	1335	89	2750	688.071039094	stim	stop-signal	36	109209	0.0-7.14-1.14	beast_fmri_test	276	106972,/,107651,/,108330,/,109010,/,109690,/	t,t,t,t,t	<img class = center src='/static/experiments/beast_fmri_test/images/B.png'></img>	71,89	2750.0	test	<img class = center src='/static/experiments/beast_fmri_test/images/redB.png'></img>	go	2100.0	2.0	14.0	go	target	B	71,Index Finger	89,Middle Finger	650.0	500.0	2100.0	2250.0	0.0	650.0	0.0	n/a	ITI
81599	500.0	n/a	-1	-1	500	0.0	fixation	poldrack-single-stim	37	110408	0.0-7.15-0.15	beast_fmri_test	276	110371,/	t	<div class = centerbox2><div class = fixation>+</div></div>	none	500.0	test	n/a	n/a	n/a	n/a	n/a	n/a	n/a	n/a	n/a	n/a	n/a	n/a	n/a	n/a	n/a	n/a	n/a	n/a	fixation
80572.57241286397	2750.0	n/a	1756	89	2750	1029.42758714	stim	stop-signal	38	113161	0.0-7.15-1.15	beast_fmri_test	276	111051,/,111731,/,112409,/,113090,/,113770,/	t,t,t,t,t	<img class = center src='/static/experiments/beast_fmri_test/images/T.png'></img>	71,89	2750.0	test	<img class = center src='/static/experiments/beast_fmri_test/images/redT.png'></img>	go	2250.0	2.0	15.0	go	non-target	T	71,Index Finger	89,Middle Finger	650.0	500.0	2100.0	2250.0	1.0	500.0	1.0	n/a	go_stim
83322.57241286397	1029.42758714	n/a	1756	89	2750	1029.42758714	stim	stop-signal	38	113161	0.0-7.15-1.15	beast_fmri_test	276	111051,/,111731,/,112409,/,113090,/,113770,/	t,t,t,t,t	<img class = center src='/static/experiments/beast_fmri_test/images/T.png'></img>	71,89	2750.0	test	<img class = center src='/static/experiments/beast_fmri_test/images/redT.png'></img>	go	2250.0	2.0	15.0	go	non-target	T	71,Index Finger	89,Middle Finger	650.0	500.0	2100.0	2250.0	1.0	500.0	1.0	n/a	ITI
85890	500.0	n/a	-1	-1	500	0.0	fixation	poldrack-single-stim	39	114699	0.0-7.16-0.16	beast_fmri_test	276	114448,/	t	<div class = centerbox2><div class = fixation>+</div></div>	none	500.0	test	n/a	n/a	n/a	n/a	n/a	n/a	n/a	n/a	n/a	n/a	n/a	n/a	n/a	n/a	n/a	n/a	n/a	n/a	fixation
85526.344884535065	650.0	n/a	-1	-1	2750	364.655115465	stim	stop-signal	40	117450	0.0-7.16-1.16	beast_fmri_test	276	115126,/,115806,/,116484,/,117165,/	t,t,t,t	<img class = center src='/static/experiments/beast_fmri_test/images/B.png'></img>	71,89	2750.0	test	<img class = center src='/static/experiments/beast_fmri_test/images/redB.png'></img>	stop	2100.0	2.0	16.0	stop	target	B	71,Index Finger	89,Middle Finger	650.0	500.0	2100.0	2250.0	0.0	650.0	n/a	1.0	go_stim
87626.344884535065	2100.0	n/a	-1	-1	2750	364.655115465	stim	stop-signal	40	117450	0.0-7.16-1.16	beast_fmri_test	276	115126,/,115806,/,116484,/,117165,/	t,t,t,t	<img class = center src='/static/experiments/beast_fmri_test/images/B.png'></img>	71,89	2750.0	test	<img class = center src='/static/experiments/beast_fmri_test/images/redB.png'></img>	stop	2100.0	2.0	16.0	stop	target	B	71,Index Finger	89,Middle Finger	650.0	500.0	2100.0	2250.0	0.0	650.0	n/a	1.0	stop_stim
88276.344884535065	364.655115465	n/a	-1	-1	2750	364.655115465	stim	stop-signal	40	117450	0.0-7.16-1.16	beast_fmri_test	276	115126,/,115806,/,116484,/,117165,/	t,t,t,t	<img class = center src='/static/experiments/beast_fmri_test/images/B.png'></img>	71,89	2750.0	test	<img class = center src='/static/experiments/beast_fmri_test/images/redB.png'></img>	stop	2100.0	2.0	16.0	stop	target	B	71,Index Finger	89,Middle Finger	650.0	500.0	2100.0	2250.0	0.0	650.0	n/a	1.0	ITI
89516	500.0	n/a	-1	-1	500	0.0	fixation	poldrack-single-stim	41	118325	0.0-7.17-0.17	beast_fmri_test	276	117846,/	t	<div class = centerbox2><div class = fixation>+</div></div>	none	500.0	test	n/a	n/a	n/a	n/a	n/a	n/a	n/a	n/a	n/a	n/a	n/a	n/a	n/a	n/a	n/a	n/a	n/a	n/a	fixation
88716.045545549816	500.0	n/a	-1	-1	2750	802.95445445	stim	stop-signal	42	121078	0.0-7.17-1.17	beast_fmri_test	276	118525,/,119205,/,119885,/,120565,/,121245,/	t,t,t,t,t	<img class = center src='/static/experiments/beast_fmri_test/images/V.png'></img>	71,89	2750.0	test	<img class = center src='/static/experiments/beast_fmri_test/images/redV.png'></img>	stop	2250.0	2.0	17.0	stop	non-target	V	71,Index Finger	89,Middle Finger	700.0	500.0	2100.0	2250.0	0.0	500.0	n/a	1.0	go_stim
90966.045545549816	2250.0	n/a	-1	-1	2750	802.95445445	stim	stop-signal	42	121078	0.0-7.17-1.17	beast_fmri_test	276	118525,/,119205,/,119885,/,120565,/,121245,/	t,t,t,t,t	<img class = center src='/static/experiments/beast_fmri_test/images/V.png'></img>	71,89	2750.0	test	<img class = center src='/static/experiments/beast_fmri_test/images/redV.png'></img>	stop	2250.0	2.0	17.0	stop	non-target	V	71,Index Finger	89,Middle Finger	700.0	500.0	2100.0	2250.0	0.0	500.0	n/a	1.0	stop_stim
91466.045545549816	802.95445445	n/a	-1	-1	2750	802.95445445	stim	stop-signal	42	121078	0.0-7.17-1.17	beast_fmri_test	276	118525,/,119205,/,119885,/,120565,/,121245,/	t,t,t,t,t	<img class = center src='/static/experiments/beast_fmri_test/images/V.png'></img>	71,89	2750.0	test	<img class = center src='/static/experiments/beast_fmri_test/images/redV.png'></img>	stop	2250.0	2.0	17.0	stop	non-target	V	71,Index Finger	89,Middle Finger	700.0	500.0	2100.0	2250.0	0.0	500.0	n/a	1.0	ITI
93581	500.0	n/a	-1	-1	500	0.0	fixation	poldrack-single-stim	43	122390	0.0-7.18-0.18	beast_fmri_test	276	121926,/	t	<div class = centerbox2><div class = fixation>+</div></div>	none	500.0	test	n/a	n/a	n/a	n/a	n/a	n/a	n/a	n/a	n/a	n/a	n/a	n/a	n/a	n/a	n/a	n/a	n/a	n/a	fixation
91093.828722732491	550.0	n/a	-1	-1	2750	2485.17127727	stim	stop-signal	44	125138	0.0-7.18-1.18	beast_fmri_test	276	122606,/,123286,/,123965,/,124642,/,125319,/,126002,/,126681,/,127361,/	t,t,t,t,t,t,t,t	<img class = center src='/static/experiments/beast_fmri_test/images/D.png'></img>	71,89	2750.0	test	<img class = center src='/static/experiments/beast_fmri_test/images/redD.png'></img>	stop	2200.0	2.0	18.0	stop	non-target	D	71,Index Finger	89,Middle Finger	700.0	550.0	2100.0	2200.0	0.0	550.0	n/a	1.0	go_stim
93293.828722732491	2200.0	n/a	-1	-1	2750	2485.17127727	stim	stop-signal	44	125138	0.0-7.18-1.18	beast_fmri_test	276	122606,/,123286,/,123965,/,124642,/,125319,/,126002,/,126681,/,127361,/	t,t,t,t,t,t,t,t	<img class = center src='/static/experiments/beast_fmri_test/images/D.png'></img>	71,89	2750.0	test	<img class = center src='/static/experiments/beast_fmri_test/images/redD.png'></img>	stop	2200.0	2.0	18.0	stop	non-target	D	71,Index Finger	89,Middle Finger	700.0	550.0	2100.0	2200.0	0.0	550.0	n/a	1.0	stop_stim
93843.828722732491	2485.17127727	n/a	-1	-1	2750	2485.17127727	stim	stop-signal	44	125138	0.0-7.18-1.18	beast_fmri_test	276	122606,/,123286,/,123965,/,124642,/,125319,/,126002,/,126681,/,127361,/	t,t,t,t,t,t,t,t	<img class = center src='/static/experiments/beast_fmri_test/images/D.png'></img>	71,89	2750.0	test	<img class = center src='/static/experiments/beast_fmri_test/images/redD.png'></img>	stop	2200.0	2.0	18.0	stop	non-target	D	71,Index Finger	89,Middle Finger	700.0	550.0	2100.0	2200.0	0.0	550.0	n/a	1.0	ITI
99326	500.0	n/a	-1	-1	500	0.0	fixation	poldrack-single-stim	45	128135	0.0-7.19-0.19	beast_fmri_test	276	128041,/	t	<div class = centerbox2><div class = fixation>+</div></div>	none	500.0	test	n/a	n/a	n/a	n/a	n/a	n/a	n/a	n/a	n/a	n/a	n/a	n/a	n/a	n/a	n/a	n/a	n/a	n/a	fixation
95244.359281532539	2750.0	n/a	1261	71	2750	4085.64071847	stim	stop-signal	46	130889	0.0-7.19-1.19	beast_fmri_test	276	128722,/,129400,/,130082,/,130761,/,131441,/,132121,/,132801,/,133481,/,134158,/,134837,/	t,t,t,t,t,t,t,t,t,t	<img class = center src='/static/experiments/beast_fmri_test/images/V.png'></img>	71,89	2750.0	test	<img class = center src='/static/experiments/beast_fmri_test/images/redV.png'></img>	go	2050.0	2.0	19.0	go	target	V	71,Index Finger	89,Middle Finger	700.0	600.0	2050.0	2200.0	1.0	700.0	1.0	n/a	go_stim
97994.359281532539	4085.64071847	n/a	1261	71	2750	4085.64071847	stim	stop-signal	46	130889	0.0-7.19-1.19	beast_fmri_test	276	128722,/,129400,/,130082,/,130761,/,131441,/,132121,/,132801,/,133481,/,134158,/,134837,/	t,t,t,t,t,t,t,t,t,t	<img class = center src='/static/experiments/beast_fmri_test/images/V.png'></img>	71,89	2750.0	test	<img class = center src='/static/experiments/beast_fmri_test/images/redV.png'></img>	go	2050.0	2.0	19.0	go	target	V	71,Index Finger	89,Middle Finger	700.0	600.0	2050.0	2200.0	1.0	700.0	1.0	n/a	ITI
106670	500.0	n/a	-1	-1	500	0.0	fixation	poldrack-single-stim	47	135479	0.0-7.20-0.20	beast_fmri_test	276	n/a	n/a	<div class = centerbox2><div class = fixation>+</div></div>	none	500.0	test	n/a	n/a	n/a	n/a	n/a	n/a	n/a	n/a	n/a	n/a	n/a	n/a	n/a	n/a	n/a	n/a	n/a	n/a	fixation
106056.25679232937	2750.0	n/a	2610	89	2750	617.743207671	stim	stop-signal	48	138233	0.0-7.20-1.20	beast_fmri_test	276	135516,/,136197,/,136876,/,137556,/,138236,/	t,t,t,t,t	<img class = center src='/static/experiments/beast_fmri_test/images/T.png'></img>	71,89	2750.0	test	<img class = center src='/static/experiments/beast_fmri_test/images/redT.png'></img>	go	2150.0	2.0	20.0	go	non-target	T	71,Index Finger	89,Middle Finger	700.0	600.0	2050.0	2150.0	1.0	600.0	1.0	n/a	go_stim
108806.25679232937	617.743207671	n/a	2610	89	2750	617.743207671	stim	stop-signal	48	138233	0.0-7.20-1.20	beast_fmri_test	276	135516,/,136197,/,136876,/,137556,/,138236,/	t,t,t,t,t	<img class = center src='/static/experiments/beast_fmri_test/images/T.png'></img>	71,89	2750.0	test	<img class = center src='/static/experiments/beast_fmri_test/images/redT.png'></img>	go	2150.0	2.0	20.0	go	non-target	T	71,Index Finger	89,Middle Finger	700.0	600.0	2050.0	2150.0	1.0	600.0	1.0	n/a	ITI
110552	500.0	n/a	-1	-1	500	0.0	fixation	poldrack-single-stim	49	139361	0.0-7.21-0.21	beast_fmri_test	276	138916,/	t	<div class = centerbox2><div class = fixation>+</div></div>	none	500.0	test	n/a	n/a	n/a	n/a	n/a	n/a	n/a	n/a	n/a	n/a	n/a	n/a	n/a	n/a	n/a	n/a	n/a	n/a	fixation
108955.56406635122	2750.0	n/a	2225	89	2750	1598.43593365	stim	stop-signal	50	142113	0.0-7.21-1.21	beast_fmri_test	276	139597,/,140276,/,140956,/,141638,/,142316,/,142996,/,143676,/	t,t,t,t,t,t,t	<img class = center src='/static/experiments/beast_fmri_test/images/V.png'></img>	71,89	2750.0	test	<img class = center src='/static/experiments/beast_fmri_test/images/redV.png'></img>	go	2050.0	2.0	21.0	go	target	V	71,Index Finger	89,Middle Finger	700.0	600.0	2050.0	2150.0	0.0	700.0	0.0	n/a	go_stim
111705.56406635122	1598.43593365	n/a	2225	89	2750	1598.43593365	stim	stop-signal	50	142113	0.0-7.21-1.21	beast_fmri_test	276	139597,/,140276,/,140956,/,141638,/,142316,/,142996,/,143676,/	t,t,t,t,t,t,t	<img class = center src='/static/experiments/beast_fmri_test/images/V.png'></img>	71,89	2750.0	test	<img class = center src='/static/experiments/beast_fmri_test/images/redV.png'></img>	go	2050.0	2.0	21.0	go	target	V	71,Index Finger	89,Middle Finger	700.0	600.0	2050.0	2150.0	0.0	700.0	0.0	n/a	ITI
115412	500.0	n/a	-1	-1	500	0.0	fixation	poldrack-single-stim	51	144221	0.0-7.22-0.22	beast_fmri_test	276	n/a	n/a	<div class = centerbox2><div class = fixation>+</div></div>	none	500.0	test	n/a	n/a	n/a	n/a	n/a	n/a	n/a	n/a	n/a	n/a	n/a	n/a	n/a	n/a	n/a	n/a	n/a	n/a	fixation
115396.02605045054	2750.0	n/a	1989	89	2750	14.9739495495	stim	stop-signal	52	146970	0.0-7.22-1.22	beast_fmri_test	276	144354,/,145032,/,145712,/,146391,/	t,t,t,t	<img class = center src='/static/experiments/beast_fmri_test/images/T.png'></img>	71,89	2750.0	test	<img class = center src='/static/experiments/beast_fmri_test/images/redT.png'></img>	go	2050.0	2.0	22.0	go	target	T	71,Index Finger	89,Middle Finger	700.0	600.0	2050.0	2150.0	0.0	700.0	0.0	n/a	go_stim
118146.02605045054	14.9739495495	n/a	1989	89	2750	14.9739495495	stim	stop-signal	52	146970	0.0-7.22-1.22	beast_fmri_test	276	144354,/,145032,/,145712,/,146391,/	t,t,t,t	<img class = center src='/static/experiments/beast_fmri_test/images/T.png'></img>	71,89	2750.0	test	<img class = center src='/static/experiments/beast_fmri_test/images/redT.png'></img>	go	2050.0	2.0	22.0	go	target	T	71,Index Finger	89,Middle Finger	700.0	600.0	2050.0	2150.0	0.0	700.0	0.0	n/a	ITI
118689	500.0	n/a	-1	-1	500	0.0	fixation	poldrack-single-stim	53	147498	0.0-7.23-0.23	beast_fmri_test	276	147076,/	t	<div class = centerbox2><div class = fixation>+</div></div>	none	500.0	test	n/a	n/a	n/a	n/a	n/a	n/a	n/a	n/a	n/a	n/a	n/a	n/a	n/a	n/a	n/a	n/a	n/a	n/a	fixation
118490.57359851431	2750.0	n/a	1481	71	2750	201.426401486	stim	stop-signal	54	150251	0.0-7.23-1.23	beast_fmri_test	276	147752,/,148432,/,149112,/,149791,/	t,t,t,t	<img class = center src='/static/experiments/beast_fmri_test/images/V.png'></img>	71,89	2750.0	test	<img class = center src='/static/experiments/beast_fmri_test/images/redV.png'></img>	go	2050.0	2.0	23.0	go	target	V	71,Index Finger	89,Middle Finger	700.0	600.0	2050.0	2150.0	1.0	700.0	1.0	n/a	go_stim
121240.57359851431	201.426401486	n/a	1481	71	2750	201.426401486	stim	stop-signal	54	150251	0.0-7.23-1.23	beast_fmri_test	276	147752,/,148432,/,149112,/,149791,/	t,t,t,t	<img class = center src='/static/experiments/beast_fmri_test/images/V.png'></img>	71,89	2750.0	test	<img class = center src='/static/experiments/beast_fmri_test/images/redV.png'></img>	go	2050.0	2.0	23.0	go	target	V	71,Index Finger	89,Middle Finger	700.0	600.0	2050.0	2150.0	1.0	700.0	1.0	n/a	ITI
122152	500.0	n/a	-1	-1	500	0.0	fixation	poldrack-single-stim	55	150961	0.0-7.24-0.24	beast_fmri_test	276	150470,/	t	<div class = centerbox2><div class = fixation>+</div></div>	none	500.0	test	n/a	n/a	n/a	n/a	n/a	n/a	n/a	n/a	n/a	n/a	n/a	n/a	n/a	n/a	n/a	n/a	n/a	n/a	fixation
121706.79719861527	600.0	n/a	-1	-1	2750	444.202801385	stim	stop-signal	56	153710	0.0-7.24-1.24	beast_fmri_test	276	151148,/,151827,/,152508,/,153188,/,153867,/	t,t,t,t,t	<img class = center src='/static/experiments/beast_fmri_test/images/V.png'></img>	71,89	2750.0	test	<img class = center src='/static/experiments/beast_fmri_test/images/redV.png'></img>	stop	2150.0	2.0	24.0	stop	non-target	V	71,Index Finger	89,Middle Finger	700.0	600.0	2050.0	2150.0	0.0	600.0	n/a	1.0	go_stim
123856.79719861527	2150.0	n/a	-1	-1	2750	444.202801385	stim	stop-signal	56	153710	0.0-7.24-1.24	beast_fmri_test	276	151148,/,151827,/,152508,/,153188,/,153867,/	t,t,t,t,t	<img class = center src='/static/experiments/beast_fmri_test/images/V.png'></img>	71,89	2750.0	test	<img class = center src='/static/experiments/beast_fmri_test/images/redV.png'></img>	stop	2150.0	2.0	24.0	stop	non-target	V	71,Index Finger	89,Middle Finger	700.0	600.0	2050.0	2150.0	0.0	600.0	n/a	1.0	stop_stim
124456.79719861527	444.202801385	n/a	-1	-1	2750	444.202801385	stim	stop-signal	56	153710	0.0-7.24-1.24	beast_fmri_test	276	151148,/,151827,/,152508,/,153188,/,153867,/	t,t,t,t,t	<img class = center src='/static/experiments/beast_fmri_test/images/V.png'></img>	71,89	2750.0	test	<img class = center src='/static/experiments/beast_fmri_test/images/redV.png'></img>	stop	2150.0	2.0	24.0	stop	non-target	V	71,Index Finger	89,Middle Finger	700.0	600.0	2050.0	2150.0	0.0	600.0	n/a	1.0	ITI
125857	500.0	n/a	-1	-1	500	0.0	fixation	poldrack-single-stim	57	154666	0.0-7.25-0.25	beast_fmri_test	276	154548,/	t	<div class = centerbox2><div class = fixation>+</div></div>	none	500.0	test	n/a	n/a	n/a	n/a	n/a	n/a	n/a	n/a	n/a	n/a	n/a	n/a	n/a	n/a	n/a	n/a	n/a	n/a	fixation
123981.68632379654	2750.0	n/a	1383	89	2750	1879.3136762	stim	stop-signal	58	157420	0.0-7.25-1.25	beast_fmri_test	276	155228,/,155908,/,156587,/,157267,/,157946,/,158627,/	t,t,t,t,t,t	<img class = center src='/static/experiments/beast_fmri_test/images/P.png'></img>	71,89	2750.0	test	<img class = center src='/static/experiments/beast_fmri_test/images/redP.png'></img>	go	2100.0	2.0	25.0	go	non-target	P	71,Index Finger	89,Middle Finger	700.0	650.0	2050.0	2100.0	1.0	650.0	1.0	n/a	go_stim
126731.68632379654	1879.3136762	n/a	1383	89	2750	1879.3136762	stim	stop-signal	58	157420	0.0-7.25-1.25	beast_fmri_test	276	155228,/,155908,/,156587,/,157267,/,157946,/,158627,/	t,t,t,t,t,t	<img class = center src='/static/experiments/beast_fmri_test/images/P.png'></img>	71,89	2750.0	test	<img class = center src='/static/experiments/beast_fmri_test/images/redP.png'></img>	go	2100.0	2.0	25.0	go	non-target	P	71,Index Finger	89,Middle Finger	700.0	650.0	2050.0	2100.0	1.0	650.0	1.0	n/a	ITI
131003	500.0	n/a	-1	-1	500	0.0	fixation	poldrack-single-stim	59	159812	0.0-7.26-0.26	beast_fmri_test	276	159311,/	t	<div class = centerbox2><div class = fixation>+</div></div>	none	500.0	test	n/a	n/a	n/a	n/a	n/a	n/a	n/a	n/a	n/a	n/a	n/a	n/a	n/a	n/a	n/a	n/a	n/a	n/a	fixation
130794.25439941374	2750.0	n/a	2583	89	2750	211.745600586	stim	stop-signal	60	162565	0.0-7.26-1.26	beast_fmri_test	276	159987,/,160667,/,161348,/,162027,/,162708,/	t,t,t,t,t	<img class = center src='/static/experiments/beast_fmri_test/images/B.png'></img>	71,89	2750.0	test	<img class = center src='/static/experiments/beast_fmri_test/images/redB.png'></img>	go	2100.0	2.0	26.0	go	non-target	B	71,Index Finger	89,Middle Finger	700.0	650.0	2050.0	2100.0	1.0	650.0	1.0	n/a	go_stim
133544.25439941374	211.745600586	n/a	2583	89	2750	211.745600586	stim	stop-signal	60	162565	0.0-7.26-1.26	beast_fmri_test	276	159987,/,160667,/,161348,/,162027,/,162708,/	t,t,t,t,t	<img class = center src='/static/experiments/beast_fmri_test/images/B.png'></img>	71,89	2750.0	test	<img class = center src='/static/experiments/beast_fmri_test/images/redB.png'></img>	go	2100.0	2.0	26.0	go	non-target	B	71,Index Finger	89,Middle Finger	700.0	650.0	2050.0	2100.0	1.0	650.0	1.0	n/a	ITI
134480	500.0	n/a	-1	-1	500	0.0	fixation	poldrack-single-stim	61	163289	0.0-7.27-0.27	beast_fmri_test	276	n/a	n/a	<div class = centerbox2><div class = fixation>+</div></div>	none	500.0	test	n/a	n/a	n/a	n/a	n/a	n/a	n/a	n/a	n/a	n/a	n/a	n/a	n/a	n/a	n/a	n/a	n/a	n/a	fixation
133210.73495436221	2750.0	n/a	1673	89	2750	1266.26504564	stim	stop-signal	62	166036	0.0-7.27-1.27	beast_fmri_test	276	163389,/,164066,/,164744,/,165423,/,166103,/,166783,/	t,t,t,t,t,t	<img class = center src='/static/experiments/beast_fmri_test/images/B.png'></img>	71,89	2750.0	test	<img class = center src='/static/experiments/beast_fmri_test/images/redB.png'></img>	go	2100.0	2.0	27.0	go	non-target	B	71,Index Finger	89,Middle Finger	700.0	650.0	2050.0	2100.0	1.0	650.0	1.0	n/a	go_stim
135960.73495436221	1266.26504564	n/a	1673	89	2750	1266.26504564	stim	stop-signal	62	166036	0.0-7.27-1.27	beast_fmri_test	276	163389,/,164066,/,164744,/,165423,/,166103,/,166783,/	t,t,t,t,t,t	<img class = center src='/static/experiments/beast_fmri_test/images/B.png'></img>	71,89	2750.0	test	<img class = center src='/static/experiments/beast_fmri_test/images/redB.png'></img>	go	2100.0	2.0	27.0	go	non-target	B	71,Index Finger	89,Middle Finger	700.0	650.0	2050.0	2100.0	1.0	650.0	1.0	n/a	ITI
139007	500.0	n/a	-1	-1	500	0.0	fixation	poldrack-single-stim	63	167816	0.0-7.28-0.28	beast_fmri_test	276	167463,/	t	<div class = centerbox2><div class = fixation>+</div></div>	none	500.0	test	n/a	n/a	n/a	n/a	n/a	n/a	n/a	n/a	n/a	n/a	n/a	n/a	n/a	n/a	n/a	n/a	n/a	n/a	fixation
137681.69493450696	2750.0	n/a	1252	71	2750	1329.30506549	stim	stop-signal	64	170570	0.0-7.28-1.28	beast_fmri_test	276	168143,/,168822,/,169502,/,170182,/,170862,/,171542,/	t,t,t,t,t,t	<img class = center src='/static/experiments/beast_fmri_test/images/B.png'></img>	71,89	2750.0	test	<img class = center src='/static/experiments/beast_fmri_test/images/redB.png'></img>	go	2050.0	2.0	28.0	go	target	B	71,Index Finger	89,Middle Finger	700.0	650.0	2050.0	2100.0	1.0	700.0	1.0	n/a	go_stim
140431.69493450696	1329.30506549	n/a	1252	71	2750	1329.30506549	stim	stop-signal	64	170570	0.0-7.28-1.28	beast_fmri_test	276	168143,/,168822,/,169502,/,170182,/,170862,/,171542,/	t,t,t,t,t,t	<img class = center src='/static/experiments/beast_fmri_test/images/B.png'></img>	71,89	2750.0	test	<img class = center src='/static/experiments/beast_fmri_test/images/redB.png'></img>	go	2050.0	2.0	28.0	go	target	B	71,Index Finger	89,Middle Finger	700.0	650.0	2050.0	2100.0	1.0	700.0	1.0	n/a	ITI
143601	500.0	n/a	-1	-1	500	0.0	fixation	poldrack-single-stim	65	172410	0.0-7.29-0.29	beast_fmri_test	276	172223,/	t	<div class = centerbox2><div class = fixation>+</div></div>	none	500.0	test	n/a	n/a	n/a	n/a	n/a	n/a	n/a	n/a	n/a	n/a	n/a	n/a	n/a	n/a	n/a	n/a	n/a	n/a	fixation
142819.65016623039	650.0	n/a	-1	-1	2750	780.34983377	stim	stop-signal	66	175159	0.0-7.29-1.29	beast_fmri_test	276	172903,/,173583,/,174261,/,174938,/,175618,/	t,t,t,t,t	<img class = center src='/static/experiments/beast_fmri_test/images/D.png'></img>	71,89	2750.0	test	<img class = center src='/static/experiments/beast_fmri_test/images/redD.png'></img>	stop	2100.0	2.0	29.0	stop	non-target	D	71,Index Finger	89,Middle Finger	700.0	650.0	2050.0	2100.0	0.0	650.0	n/a	1.0	go_stim
144919.65016623039	2100.0	n/a	-1	-1	2750	780.34983377	stim	stop-signal	66	175159	0.0-7.29-1.29	beast_fmri_test	276	172903,/,173583,/,174261,/,174938,/,175618,/	t,t,t,t,t	<img class = center src='/static/experiments/beast_fmri_test/images/D.png'></img>	71,89	2750.0	test	<img class = center src='/static/experiments/beast_fmri_test/images/redD.png'></img>	stop	2100.0	2.0	29.0	stop	non-target	D	71,Index Finger	89,Middle Finger	700.0	650.0	2050.0	2100.0	0.0	650.0	n/a	1.0	stop_stim
145569.65016623039	780.34983377	n/a	-1	-1	2750	780.34983377	stim	stop-signal	66	175159	0.0-7.29-1.29	beast_fmri_test	276	172903,/,173583,/,174261,/,174938,/,175618,/	t,t,t,t,t	<img class = center src='/static/experiments/beast_fmri_test/images/D.png'></img>	71,89	2750.0	test	<img class = center src='/static/experiments/beast_fmri_test/images/redD.png'></img>	stop	2100.0	2.0	29.0	stop	non-target	D	71,Index Finger	89,Middle Finger	700.0	650.0	2050.0	2100.0	0.0	650.0	n/a	1.0	ITI
147646	500.0	n/a	-1	-1	500	0.0	fixation	poldrack-single-stim	67	176455	0.0-7.30-0.30	beast_fmri_test	276	176299,/	t	<div class = centerbox2><div class = fixation>+</div></div>	none	500.0	test	n/a	n/a	n/a	n/a	n/a	n/a	n/a	n/a	n/a	n/a	n/a	n/a	n/a	n/a	n/a	n/a	n/a	n/a	fixation
145047.07026968931	2750.0	n/a	1697	89	2750	2601.92973031	stim	stop-signal	68	179208	0.0-7.30-1.30	beast_fmri_test	276	176978,/,177658,/,178338,/,179018,/,179698,/,180379,/,181057,/,181738,/	t,t,t,t,t,t,t,t	<img class = center src='/static/experiments/beast_fmri_test/images/P.png'></img>	71,89	2750.0	test	<img class = center src='/static/experiments/beast_fmri_test/images/redP.png'></img>	go	2050.0	2.0	30.0	go	non-target	P	71,Index Finger	89,Middle Finger	700.0	700.0	2050.0	2050.0	1.0	700.0	1.0	n/a	go_stim
147797.07026968931	2601.92973031	n/a	1697	89	2750	2601.92973031	stim	stop-signal	68	179208	0.0-7.30-1.30	beast_fmri_test	276	176978,/,177658,/,178338,/,179018,/,179698,/,180379,/,181057,/,181738,/	t,t,t,t,t,t,t,t	<img class = center src='/static/experiments/beast_fmri_test/images/P.png'></img>	71,89	2750.0	test	<img class = center src='/static/experiments/beast_fmri_test/images/redP.png'></img>	go	2050.0	2.0	30.0	go	non-target	P	71,Index Finger	89,Middle Finger	700.0	700.0	2050.0	2050.0	1.0	700.0	1.0	n/a	ITI
153511	500.0	n/a	-1	-1	500	0.0	fixation	poldrack-single-stim	69	182320	0.0-7.31-0.31	beast_fmri_test	276	n/a	n/a	<div class = centerbox2><div class = fixation>+</div></div>	none	500.0	test	n/a	n/a	n/a	n/a	n/a	n/a	n/a	n/a	n/a	n/a	n/a	n/a	n/a	n/a	n/a	n/a	n/a	n/a	fixation
153265.81683363629	700.0	n/a	-1	-1	2750	243.183166364	stim	stop-signal	70	185068	0.0-7.31-1.31	beast_fmri_test	276	182418,/,183099,/,183778,/,184455,/,185133,/	t,t,t,t,t	<img class = center src='/static/experiments/beast_fmri_test/images/V.png'></img>	71,89	2750.0	test	<img class = center src='/static/experiments/beast_fmri_test/images/redV.png'></img>	stop	2050.0	2.0	31.0	stop	non-target	V	71,Index Finger	89,Middle Finger	700.0	700.0	2050.0	2050.0	0.0	700.0	n/a	1.0	go_stim
155315.81683363629	2050.0	n/a	-1	-1	2750	243.183166364	stim	stop-signal	70	185068	0.0-7.31-1.31	beast_fmri_test	276	182418,/,183099,/,183778,/,184455,/,185133,/	t,t,t,t,t	<img class = center src='/static/experiments/beast_fmri_test/images/V.png'></img>	71,89	2750.0	test	<img class = center src='/static/experiments/beast_fmri_test/images/redV.png'></img>	stop	2050.0	2.0	31.0	stop	non-target	V	71,Index Finger	89,Middle Finger	700.0	700.0	2050.0	2050.0	0.0	700.0	n/a	1.0	stop_stim
156015.81683363629	243.183166364	n/a	-1	-1	2750	243.183166364	stim	stop-signal	70	185068	0.0-7.31-1.31	beast_fmri_test	276	182418,/,183099,/,183778,/,184455,/,185133,/	t,t,t,t,t	<img class = center src='/static/experiments/beast_fmri_test/images/V.png'></img>	71,89	2750.0	test	<img class = center src='/static/experiments/beast_fmri_test/images/redV.png'></img>	stop	2050.0	2.0	31.0	stop	non-target	V	71,Index Finger	89,Middle Finger	700.0	700.0	2050.0	2050.0	0.0	700.0	n/a	1.0	ITI
157018	500.0	n/a	-1	-1	500	0.0	fixation	poldrack-single-stim	71	185827	0.0-7.32-0.32	beast_fmri_test	276	185812,/	t	<div class = centerbox2><div class = fixation>+</div></div>	none	500.0	test	n/a	n/a	n/a	n/a	n/a	n/a	n/a	n/a	n/a	n/a	n/a	n/a	n/a	n/a	n/a	n/a	n/a	n/a	fixation
156646.18950181661	2750.0	n/a	1320	89	2750	373.810498183	stim	stop-signal	72	188579	0.0-7.32-1.32	beast_fmri_test	276	186494,/,187174,/,187854,/,188534,/	t,t,t,t	<img class = center src='/static/experiments/beast_fmri_test/images/T.png'></img>	71,89	2750.0	test	<img class = center src='/static/experiments/beast_fmri_test/images/redT.png'></img>	go	2000.0	2.0	32.0	go	non-target	T	71,Index Finger	89,Middle Finger	700.0	750.0	2050.0	2000.0	1.0	750.0	1.0	n/a	go_stim
159396.18950181661	373.810498183	n/a	1320	89	2750	373.810498183	stim	stop-signal	72	188579	0.0-7.32-1.32	beast_fmri_test	276	186494,/,187174,/,187854,/,188534,/	t,t,t,t	<img class = center src='/static/experiments/beast_fmri_test/images/T.png'></img>	71,89	2750.0	test	<img class = center src='/static/experiments/beast_fmri_test/images/redT.png'></img>	go	2000.0	2.0	32.0	go	non-target	T	71,Index Finger	89,Middle Finger	700.0	750.0	2050.0	2000.0	1.0	750.0	1.0	n/a	ITI
160657	500.0	n/a	-1	-1	500	0.0	fixation	poldrack-single-stim	73	189466	0.0-7.33-0.33	beast_fmri_test	276	189214,/	t	<div class = centerbox2><div class = fixation>+</div></div>	none	500.0	test	n/a	n/a	n/a	n/a	n/a	n/a	n/a	n/a	n/a	n/a	n/a	n/a	n/a	n/a	n/a	n/a	n/a	n/a	fixation
160647.55917727668	750.0	n/a	-1	-1	2750	11.4408227233	stim	stop-signal	74	192218	0.0-7.33-1.33	beast_fmri_test	276	189894,/,190574,/,191252,/,191933,/	t,t,t,t	<img class = center src='/static/experiments/beast_fmri_test/images/D.png'></img>	71,89	2750.0	test	<img class = center src='/static/experiments/beast_fmri_test/images/redD.png'></img>	stop	2000.0	2.0	33.0	stop	non-target	D	71,Index Finger	89,Middle Finger	700.0	750.0	2050.0	2000.0	0.0	750.0	n/a	1.0	go_stim
162647.55917727668	2000.0	n/a	-1	-1	2750	11.4408227233	stim	stop-signal	74	192218	0.0-7.33-1.33	beast_fmri_test	276	189894,/,190574,/,191252,/,191933,/	t,t,t,t	<img class = center src='/static/experiments/beast_fmri_test/images/D.png'></img>	71,89	2750.0	test	<img class = center src='/static/experiments/beast_fmri_test/images/redD.png'></img>	stop	2000.0	2.0	33.0	stop	non-target	D	71,Index Finger	89,Middle Finger	700.0	750.0	2050.0	2000.0	0.0	750.0	n/a	1.0	stop_stim
163397.55917727668	11.4408227233	n/a	-1	-1	2750	11.4408227233	stim	stop-signal	74	192218	0.0-7.33-1.33	beast_fmri_test	276	189894,/,190574,/,191252,/,191933,/	t,t,t,t	<img class = center src='/static/experiments/beast_fmri_test/images/D.png'></img>	71,89	2750.0	test	<img class = center src='/static/experiments/beast_fmri_test/images/redD.png'></img>	stop	2000.0	2.0	33.0	stop	non-target	D	71,Index Finger	89,Middle Finger	700.0	750.0	2050.0	2000.0	0.0	750.0	n/a	1.0	ITI
163932	500.0	n/a	-1	-1	500	0.0	fixation	poldrack-single-stim	75	192741	0.0-7.34-0.34	beast_fmri_test	276	192614,/	t	<div class = centerbox2><div class = fixation>+</div></div>	none	500.0	test	n/a	n/a	n/a	n/a	n/a	n/a	n/a	n/a	n/a	n/a	n/a	n/a	n/a	n/a	n/a	n/a	n/a	n/a	fixation
163849.59388051857	2750.0	n/a	1596	71	2750	80.4061194814	stim	stop-signal	76	195489	0.0-7.34-1.34	beast_fmri_test	276	193294,/,193972,/,194650,/,195328,/	t,t,t,t	<img class = center src='/static/experiments/beast_fmri_test/images/T.png'></img>	71,89	2750.0	test	<img class = center src='/static/experiments/beast_fmri_test/images/redT.png'></img>	go	2050.0	2.0	34.0	go	target	T	71,Index Finger	89,Middle Finger	700.0	800.0	2050.0	2000.0	1.0	700.0	1.0	n/a	go_stim
166599.59388051857	80.4061194814	n/a	1596	71	2750	80.4061194814	stim	stop-signal	76	195489	0.0-7.34-1.34	beast_fmri_test	276	193294,/,193972,/,194650,/,195328,/	t,t,t,t	<img class = center src='/static/experiments/beast_fmri_test/images/T.png'></img>	71,89	2750.0	test	<img class = center src='/static/experiments/beast_fmri_test/images/redT.png'></img>	go	2050.0	2.0	34.0	go	target	T	71,Index Finger	89,Middle Finger	700.0	800.0	2050.0	2000.0	1.0	700.0	1.0	n/a	ITI
167273	500.0	n/a	-1	-1	500	0.0	fixation	poldrack-single-stim	77	196082	0.0-7.35-0.35	beast_fmri_test	276	196009,/	t	<div class = centerbox2><div class = fixation>+</div></div>	none	500.0	test	n/a	n/a	n/a	n/a	n/a	n/a	n/a	n/a	n/a	n/a	n/a	n/a	n/a	n/a	n/a	n/a	n/a	n/a	fixation
164806.58597808413	2750.0	n/a	1619	71	2750	2468.41402192	stim	stop-signal	78	198834	0.0-7.35-1.35	beast_fmri_test	276	196688,/,197369,/,198049,/,198727,/,199404,/,200084,/,200764,/	t,t,t,t,t,t,t	<img class = center src='/static/experiments/beast_fmri_test/images/D.png'></img>	71,89	2750.0	test	<img class = center src='/static/experiments/beast_fmri_test/images/redD.png'></img>	go	2050.0	2.0	35.0	go	target	D	71,Index Finger	89,Middle Finger	700.0	800.0	2050.0	2000.0	1.0	700.0	1.0	n/a	go_stim
167556.58597808413	2468.41402192	n/a	1619	71	2750	2468.41402192	stim	stop-signal	78	198834	0.0-7.35-1.35	beast_fmri_test	276	196688,/,197369,/,198049,/,198727,/,199404,/,200084,/,200764,/	t,t,t,t,t,t,t	<img class = center src='/static/experiments/beast_fmri_test/images/D.png'></img>	71,89	2750.0	test	<img class = center src='/static/experiments/beast_fmri_test/images/redD.png'></img>	go	2050.0	2.0	35.0	go	target	D	71,Index Finger	89,Middle Finger	700.0	800.0	2050.0	2000.0	1.0	700.0	1.0	n/a	ITI
173006	500.0	n/a	-1	-1	500	0.0	fixation	poldrack-single-stim	79	201815	0.0-7.36-0.36	beast_fmri_test	276	201444,/	t	<div class = centerbox2><div class = fixation>+</div></div>	none	500.0	test	n/a	n/a	n/a	n/a	n/a	n/a	n/a	n/a	n/a	n/a	n/a	n/a	n/a	n/a	n/a	n/a	n/a	n/a	fixation
172652.60269822413	2750.0	n/a	1606	89	2750	355.397301776	stim	stop-signal	80	204567	0.0-7.36-1.36	beast_fmri_test	276	202124,/,202804,/,203483,/,204164,/,204842,/	t,t,t,t,t	<img class = center src='/static/experiments/beast_fmri_test/images/V.png'></img>	71,89	2750.0	test	<img class = center src='/static/experiments/beast_fmri_test/images/redV.png'></img>	go	1950.0	2.0	36.0	go	non-target	V	71,Index Finger	89,Middle Finger	700.0	800.0	2050.0	1950.0	1.0	800.0	1.0	n/a	go_stim
175402.60269822413	355.397301776	n/a	1606	89	2750	355.397301776	stim	stop-signal	80	204567	0.0-7.36-1.36	beast_fmri_test	276	202124,/,202804,/,203483,/,204164,/,204842,/	t,t,t,t,t	<img class = center src='/static/experiments/beast_fmri_test/images/V.png'></img>	71,89	2750.0	test	<img class = center src='/static/experiments/beast_fmri_test/images/redV.png'></img>	go	1950.0	2.0	36.0	go	non-target	V	71,Index Finger	89,Middle Finger	700.0	800.0	2050.0	1950.0	1.0	800.0	1.0	n/a	ITI
176629	500.0	n/a	-1	-1	500	0.0	fixation	poldrack-single-stim	81	205438	0.0-7.37-0.37	beast_fmri_test	276	n/a	n/a	<div class = centerbox2><div class = fixation>+</div></div>	none	500.0	test	n/a	n/a	n/a	n/a	n/a	n/a	n/a	n/a	n/a	n/a	n/a	n/a	n/a	n/a	n/a	n/a	n/a	n/a	fixation
176086.44566052067	800.0	n/a	-1	-1	2750	545.554339479	stim	stop-signal	82	208191	0.0-7.37-1.37	beast_fmri_test	276	205523,/,206204,/,206884,/,207563,/,208243,/	t,t,t,t,t	<img class = center src='/static/experiments/beast_fmri_test/images/B.png'></img>	71,89	2750.0	test	<img class = center src='/static/experiments/beast_fmri_test/images/redB.png'></img>	stop	1950.0	2.0	37.0	stop	non-target	B	71,Index Finger	89,Middle Finger	700.0	800.0	2050.0	1950.0	0.0	800.0	n/a	1.0	go_stim
178036.44566052067	1950.0	n/a	-1	-1	2750	545.554339479	stim	stop-signal	82	208191	0.0-7.37-1.37	beast_fmri_test	276	205523,/,206204,/,206884,/,207563,/,208243,/	t,t,t,t,t	<img class = center src='/static/experiments/beast_fmri_test/images/B.png'></img>	71,89	2750.0	test	<img class = center src='/static/experiments/beast_fmri_test/images/redB.png'></img>	stop	1950.0	2.0	37.0	stop	non-target	B	71,Index Finger	89,Middle Finger	700.0	800.0	2050.0	1950.0	0.0	800.0	n/a	1.0	stop_stim
178836.44566052067	545.554339479	n/a	-1	-1	2750	545.554339479	stim	stop-signal	82	208191	0.0-7.37-1.37	beast_fmri_test	276	205523,/,206204,/,206884,/,207563,/,208243,/	t,t,t,t,t	<img class = center src='/static/experiments/beast_fmri_test/images/B.png'></img>	71,89	2750.0	test	<img class = center src='/static/experiments/beast_fmri_test/images/redB.png'></img>	stop	1950.0	2.0	37.0	stop	non-target	B	71,Index Finger	89,Middle Finger	700.0	800.0	2050.0	1950.0	0.0	800.0	n/a	1.0	ITI
180443	500.0	n/a	-1	-1	500	0.0	fixation	poldrack-single-stim	83	209252	0.0-7.38-0.38	beast_fmri_test	276	208924,/	t	<div class = centerbox2><div class = fixation>+</div></div>	none	500.0	test	n/a	n/a	n/a	n/a	n/a	n/a	n/a	n/a	n/a	n/a	n/a	n/a	n/a	n/a	n/a	n/a	n/a	n/a	fixation
180326.07976948557	2750.0	n/a	2181	71	2750	118.920230514	stim	stop-signal	84	212004	0.0-7.38-1.38	beast_fmri_test	276	209605,/,210284,/,210964,/,211645,/	t,t,t,t	<img class = center src='/static/experiments/beast_fmri_test/images/D.png'></img>	71,89	2750.0	test	<img class = center src='/static/experiments/beast_fmri_test/images/redD.png'></img>	go	1900.0	2.0	38.0	go	non-target	D	71,Index Finger	89,Middle Finger	700.0	850.0	2050.0	1900.0	0.0	850.0	0.0	n/a	go_stim
183076.07976948557	118.920230514	n/a	2181	71	2750	118.920230514	stim	stop-signal	84	212004	0.0-7.38-1.38	beast_fmri_test	276	209605,/,210284,/,210964,/,211645,/	t,t,t,t	<img class = center src='/static/experiments/beast_fmri_test/images/D.png'></img>	71,89	2750.0	test	<img class = center src='/static/experiments/beast_fmri_test/images/redD.png'></img>	go	1900.0	2.0	38.0	go	non-target	D	71,Index Finger	89,Middle Finger	700.0	850.0	2050.0	1900.0	0.0	850.0	0.0	n/a	ITI
183828	500.0	n/a	-1	-1	500	0.0	fixation	poldrack-single-stim	85	212637	0.0-7.39-0.39	beast_fmri_test	276	212324,/	t	<div class = centerbox2><div class = fixation>+</div></div>	none	500.0	test	n/a	n/a	n/a	n/a	n/a	n/a	n/a	n/a	n/a	n/a	n/a	n/a	n/a	n/a	n/a	n/a	n/a	n/a	fixation
183259.83249705809	2750.0	n/a	2098	89	2750	566.167502942	stim	stop-signal	86	215385	0.0-7.39-1.39	beast_fmri_test	276	213004,/,213684,/,214362,/,215040,/,215720,/	t,t,t,t,t	<img class = center src='/static/experiments/beast_fmri_test/images/D.png'></img>	71,89	2750.0	test	<img class = center src='/static/experiments/beast_fmri_test/images/redD.png'></img>	go	1900.0	2.0	39.0	go	non-target	D	71,Index Finger	89,Middle Finger	700.0	850.0	2050.0	1900.0	1.0	850.0	1.0	n/a	go_stim
186009.83249705809	566.167502942	n/a	2098	89	2750	566.167502942	stim	stop-signal	86	215385	0.0-7.39-1.39	beast_fmri_test	276	213004,/,213684,/,214362,/,215040,/,215720,/	t,t,t,t,t	<img class = center src='/static/experiments/beast_fmri_test/images/D.png'></img>	71,89	2750.0	test	<img class = center src='/static/experiments/beast_fmri_test/images/redD.png'></img>	go	1900.0	2.0	39.0	go	non-target	D	71,Index Finger	89,Middle Finger	700.0	850.0	2050.0	1900.0	1.0	850.0	1.0	n/a	ITI
187659	500.0	n/a	-1	-1	500	0.0	fixation	poldrack-single-stim	87	216468	0.0-7.40-0.40	beast_fmri_test	276	216400,/	t	<div class = centerbox2><div class = fixation>+</div></div>	none	500.0	test	n/a	n/a	n/a	n/a	n/a	n/a	n/a	n/a	n/a	n/a	n/a	n/a	n/a	n/a	n/a	n/a	n/a	n/a	fixation
187127.6561443556	700.0	n/a	1086	71	2750	532.343855644	stim	stop-signal	88	219219	0.0-7.40-1.40	beast_fmri_test	276	217079,/,217760,/,218440,/,219120,/	t,t,t,t	<img class = center src='/static/experiments/beast_fmri_test/images/D.png'></img>	71,89	2750.0	test	<img class = center src='/static/experiments/beast_fmri_test/images/redD.png'></img>	stop	2050.0	2.0	40.0	stop	target	D	71,Index Finger	89,Middle Finger	700.0	850.0	2050.0	1900.0	0.0	700.0	n/a	0.0	go_stim
189177.6561443556	2050.0	n/a	1086	71	2750	532.343855644	stim	stop-signal	88	219219	0.0-7.40-1.40	beast_fmri_test	276	217079,/,217760,/,218440,/,219120,/	t,t,t,t	<img class = center src='/static/experiments/beast_fmri_test/images/D.png'></img>	71,89	2750.0	test	<img class = center src='/static/experiments/beast_fmri_test/images/redD.png'></img>	stop	2050.0	2.0	40.0	stop	target	D	71,Index Finger	89,Middle Finger	700.0	850.0	2050.0	1900.0	0.0	700.0	n/a	0.0	stop_stim
189877.6561443556	532.343855644	n/a	1086	71	2750	532.343855644	stim	stop-signal	88	219219	0.0-7.40-1.40	beast_fmri_test	276	217079,/,217760,/,218440,/,219120,/	t,t,t,t	<img class = center src='/static/experiments/beast_fmri_test/images/D.png'></img>	71,89	2750.0	test	<img class = center src='/static/experiments/beast_fmri_test/images/redD.png'></img>	stop	2050.0	2.0	40.0	stop	target	D	71,Index Finger	89,Middle Finger	700.0	850.0	2050.0	1900.0	0.0	700.0	n/a	0.0	ITI
191460	500.0	n/a	-1	-1	500	0.0	fixation	poldrack-single-stim	89	220269	0.0-7.41-0.41	beast_fmri_test	276	219804,/	t	<div class = centerbox2><div class = fixation>+</div></div>	none	500.0	test	n/a	n/a	n/a	n/a	n/a	n/a	n/a	n/a	n/a	n/a	n/a	n/a	n/a	n/a	n/a	n/a	n/a	n/a	fixation
190667.26552723497	850.0	n/a	2493	89	2750	795.734472765	stim	stop-signal	90	223022	0.0-7.41-1.41	beast_fmri_test	276	220480,/,221159,/,221840,/,222520,/,223201,/	t,t,t,t,t	<img class = center src='/static/experiments/beast_fmri_test/images/V.png'></img>	71,89	2750.0	test	<img class = center src='/static/experiments/beast_fmri_test/images/redV.png'></img>	stop	1900.0	2.0	41.0	stop	non-target	V	71,Index Finger	89,Middle Finger	650.0	850.0	2050.0	1900.0	0.0	850.0	n/a	0.0	go_stim
192567.26552723497	1900.0	n/a	2493	89	2750	795.734472765	stim	stop-signal	90	223022	0.0-7.41-1.41	beast_fmri_test	276	220480,/,221159,/,221840,/,222520,/,223201,/	t,t,t,t,t	<img class = center src='/static/experiments/beast_fmri_test/images/V.png'></img>	71,89	2750.0	test	<img class = center src='/static/experiments/beast_fmri_test/images/redV.png'></img>	stop	1900.0	2.0	41.0	stop	non-target	V	71,Index Finger	89,Middle Finger	650.0	850.0	2050.0	1900.0	0.0	850.0	n/a	0.0	stop_stim
193417.26552723497	795.734472765	n/a	2493	89	2750	795.734472765	stim	stop-signal	90	223022	0.0-7.41-1.41	beast_fmri_test	276	220480,/,221159,/,221840,/,222520,/,223201,/	t,t,t,t,t	<img class = center src='/static/experiments/beast_fmri_test/images/V.png'></img>	71,89	2750.0	test	<img class = center src='/static/experiments/beast_fmri_test/images/redV.png'></img>	stop	1900.0	2.0	41.0	stop	non-target	V	71,Index Finger	89,Middle Finger	650.0	850.0	2050.0	1900.0	0.0	850.0	n/a	0.0	ITI
195522	500.0	n/a	-1	-1	500	0.0	fixation	poldrack-single-stim	91	224331	0.0-7.42-0.42	beast_fmri_test	276	223878,/	t	<div class = centerbox2><div class = fixation>+</div></div>	none	500.0	test	n/a	n/a	n/a	n/a	n/a	n/a	n/a	n/a	n/a	n/a	n/a	n/a	n/a	n/a	n/a	n/a	n/a	n/a	fixation
195032.38454336749	2750.0	n/a	-1	-1	2750	491.615456633	stim	stop-signal	92	227083	0.0-7.42-1.42	beast_fmri_test	276	224556,/,225235,/,225916,/,226595,/,227274,/	t,t,t,t,t	<img class = center src='/static/experiments/beast_fmri_test/images/B.png'></img>	71,89	2750.0	test	<img class = center src='/static/experiments/beast_fmri_test/images/redB.png'></img>	go	1950.0	2.0	42.0	go	non-target	B	71,Index Finger	89,Middle Finger	650.0	800.0	2050.0	1950.0	0.0	800.0	0.0	n/a	go_stim
197782.38454336749	491.615456633	n/a	-1	-1	2750	491.615456633	stim	stop-signal	92	227083	0.0-7.42-1.42	beast_fmri_test	276	224556,/,225235,/,225916,/,226595,/,227274,/	t,t,t,t,t	<img class = center src='/static/experiments/beast_fmri_test/images/B.png'></img>	71,89	2750.0	test	<img class = center src='/static/experiments/beast_fmri_test/images/redB.png'></img>	go	1950.0	2.0	42.0	go	non-target	B	71,Index Finger	89,Middle Finger	650.0	800.0	2050.0	1950.0	0.0	800.0	0.0	n/a	ITI
199283	500.0	n/a	-1	-1	500	0.0	fixation	poldrack-single-stim	93	228092	0.0-7.43-0.43	beast_fmri_test	276	227956,/	t	<div class = centerbox2><div class = fixation>+</div></div>	none	500.0	test	n/a	n/a	n/a	n/a	n/a	n/a	n/a	n/a	n/a	n/a	n/a	n/a	n/a	n/a	n/a	n/a	n/a	n/a	fixation
198381.0062792727	2750.0	n/a	1880	71	2750	905.993720727	stim	stop-signal	94	230846	0.0-7.43-1.43	beast_fmri_test	276	228635,/,229315,/,229994,/,230676,/,231355,/	t,t,t,t,t	<img class = center src='/static/experiments/beast_fmri_test/images/T.png'></img>	71,89	2750.0	test	<img class = center src='/static/experiments/beast_fmri_test/images/redT.png'></img>	go	1950.0	2.0	43.0	go	non-target	T	71,Index Finger	89,Middle Finger	650.0	800.0	2050.0	1950.0	0.0	800.0	0.0	n/a	go_stim
201131.0062792727	905.993720727	n/a	1880	71	2750	905.993720727	stim	stop-signal	94	230846	0.0-7.43-1.43	beast_fmri_test	276	228635,/,229315,/,229994,/,230676,/,231355,/	t,t,t,t,t	<img class = center src='/static/experiments/beast_fmri_test/images/T.png'></img>	71,89	2750.0	test	<img class = center src='/static/experiments/beast_fmri_test/images/redT.png'></img>	go	1950.0	2.0	43.0	go	non-target	T	71,Index Finger	89,Middle Finger	650.0	800.0	2050.0	1950.0	0.0	800.0	0.0	n/a	ITI
203456	500.0	n/a	-1	-1	500	0.0	fixation	poldrack-single-stim	95	232265	0.0-7.44-0.44	beast_fmri_test	276	232035,/	t	<div class = centerbox2><div class = fixation>+</div></div>	none	500.0	test	n/a	n/a	n/a	n/a	n/a	n/a	n/a	n/a	n/a	n/a	n/a	n/a	n/a	n/a	n/a	n/a	n/a	n/a	fixation
203111.2881740205	2750.0	n/a	2732	89	2750	342.71182598	stim	stop-signal	96	235013	0.0-7.44-1.44	beast_fmri_test	276	232714,/,233394,/,234072,/,234752,/	t,t,t,t	<img class = center src='/static/experiments/beast_fmri_test/images/D.png'></img>	71,89	2750.0	test	<img class = center src='/static/experiments/beast_fmri_test/images/redD.png'></img>	go	1950.0	2.0	44.0	go	non-target	D	71,Index Finger	89,Middle Finger	650.0	800.0	2050.0	1950.0	1.0	800.0	1.0	n/a	go_stim
205861.2881740205	342.71182598	n/a	2732	89	2750	342.71182598	stim	stop-signal	96	235013	0.0-7.44-1.44	beast_fmri_test	276	232714,/,233394,/,234072,/,234752,/	t,t,t,t	<img class = center src='/static/experiments/beast_fmri_test/images/D.png'></img>	71,89	2750.0	test	<img class = center src='/static/experiments/beast_fmri_test/images/redD.png'></img>	go	1950.0	2.0	44.0	go	non-target	D	71,Index Finger	89,Middle Finger	650.0	800.0	2050.0	1950.0	1.0	800.0	1.0	n/a	ITI
207063	500.0	n/a	-1	-1	500	0.0	fixation	poldrack-single-stim	97	235872	0.0-7.45-0.45	beast_fmri_test	276	235430,/	t	<div class = centerbox2><div class = fixation>+</div></div>	none	500.0	test	n/a	n/a	n/a	n/a	n/a	n/a	n/a	n/a	n/a	n/a	n/a	n/a	n/a	n/a	n/a	n/a	n/a	n/a	fixation
205832.818480174	2750.0	n/a	2342	89	2750	1233.18151983	stim	stop-signal	98	238625	0.0-7.45-1.45	beast_fmri_test	276	236110,/,236791,/,237471,/,238151,/,238831,/,239511,/	t,t,t,t,t,t	<img class = center src='/static/experiments/beast_fmri_test/images/V.png'></img>	71,89	2750.0	test	<img class = center src='/static/experiments/beast_fmri_test/images/redV.png'></img>	go	1950.0	2.0	45.0	go	non-target	V	71,Index Finger	89,Middle Finger	650.0	800.0	2050.0	1950.0	1.0	800.0	1.0	n/a	go_stim
208582.818480174	1233.18151983	n/a	2342	89	2750	1233.18151983	stim	stop-signal	98	238625	0.0-7.45-1.45	beast_fmri_test	276	236110,/,236791,/,237471,/,238151,/,238831,/,239511,/	t,t,t,t,t,t	<img class = center src='/static/experiments/beast_fmri_test/images/V.png'></img>	71,89	2750.0	test	<img class = center src='/static/experiments/beast_fmri_test/images/redV.png'></img>	go	1950.0	2.0	45.0	go	non-target	V	71,Index Finger	89,Middle Finger	650.0	800.0	2050.0	1950.0	1.0	800.0	1.0	n/a	ITI
211565	500.0	n/a	-1	-1	500	0.0	fixation	poldrack-single-stim	99	240374	0.0-7.46-0.46	beast_fmri_test	276	240191,/	t	<div class = centerbox2><div class = fixation>+</div></div>	none	500.0	test	n/a	n/a	n/a	n/a	n/a	n/a	n/a	n/a	n/a	n/a	n/a	n/a	n/a	n/a	n/a	n/a	n/a	n/a	fixation
210068.24043019052	2750.0	n/a	1233	71	2750	1498.75956981	stim	stop-signal	100	243126	0.0-7.46-1.46	beast_fmri_test	276	240871,/,241551,/,242230,/,242910,/,243591,/,244268,/	t,t,t,t,t,t	<img class = center src='/static/experiments/beast_fmri_test/images/D.png'></img>	71,89	2750.0	test	<img class = center src='/static/experiments/beast_fmri_test/images/redD.png'></img>	go	2100.0	2.0	46.0	go	target	D	71,Index Finger	89,Middle Finger	650.0	800.0	2100.0	1950.0	1.0	650.0	1.0	n/a	go_stim
212818.24043019052	1498.75956981	n/a	1233	71	2750	1498.75956981	stim	stop-signal	100	243126	0.0-7.46-1.46	beast_fmri_test	276	240871,/,241551,/,242230,/,242910,/,243591,/,244268,/	t,t,t,t,t,t	<img class = center src='/static/experiments/beast_fmri_test/images/D.png'></img>	71,89	2750.0	test	<img class = center src='/static/experiments/beast_fmri_test/images/redD.png'></img>	go	2100.0	2.0	46.0	go	target	D	71,Index Finger	89,Middle Finger	650.0	800.0	2100.0	1950.0	1.0	650.0	1.0	n/a	ITI
230824	15000.0	n/a	-1	-1	15000	0.0	practice-no-stop-feedback	poldrack-single-stim	101	259633	0.0-8.0	beast_fmri_test	276	244946,/,245626,/,246305,/,246985,/,247666,/,248346,/,249025,/,249706,/,250386,/,251066,/,251746,/,252426,/,253107,/,253785,/,254461,/,255141,/,255821,/,256500,/,257181,/,257861,/,258541,/,259220,/	t,t,t,t,t,t,t,t,t,t,t,t,t,t,t,t,t,t,t,t,t,t	"<div class = ""centerbox""><p class = ""block-text"">Your delay is 1 trials.</p><p class = block-text>Please wait for the scanner to start the block</p></div>"	77	15000.0	n/a	n/a	n/a	n/a	n/a	n/a	n/a	n/a	n/a	n/a	n/a	n/a	n/a	n/a	n/a	n/a	n/a	n/a	n/a	practice-no-stop-feedback
231328	500.0	n/a	-1	-1	500	0.0	fixation	poldrack-single-stim	102	260137	0.0-9.0-0.0	beast_fmri_test	276	259900,/	t	<div class = centerbox2><div class = fixation>+</div></div>	none	500.0	test	n/a	n/a	n/a	n/a	n/a	n/a	n/a	n/a	n/a	n/a	n/a	n/a	n/a	n/a	n/a	n/a	n/a	n/a	fixation
230195.07657366426	2750.0	n/a	1569	89	2750	1135.92342634	stim	stop-signal	103	262890	0.0-9.0-1.0	beast_fmri_test	276	260580,/,261260,/,261941,/,262621,/,263301,/,263980,/	t,t,t,t,t,t	<img class = center src='/static/experiments/beast_fmri_test/images/P.png'></img>	71,89	2750.0	test	<img class = center src='/static/experiments/beast_fmri_test/images/redP.png'></img>	go	-1.0	1.0	0.0	go	temp-non-target	P	71,Index Finger	89,Middle Finger	650.0	800.0	2100.0	1950.0	0.0	n/a	n/a	n/a	go_stim
232945.07657366426	1135.92342634	n/a	1569	89	2750	1135.92342634	stim	stop-signal	103	262890	0.0-9.0-1.0	beast_fmri_test	276	260580,/,261260,/,261941,/,262621,/,263301,/,263980,/	t,t,t,t,t,t	<img class = center src='/static/experiments/beast_fmri_test/images/P.png'></img>	71,89	2750.0	test	<img class = center src='/static/experiments/beast_fmri_test/images/redP.png'></img>	go	-1.0	1.0	0.0	go	temp-non-target	P	71,Index Finger	89,Middle Finger	650.0	800.0	2100.0	1950.0	0.0	n/a	n/a	n/a	ITI
235733	500.0	n/a	-1	-1	500	0.0	fixation	poldrack-single-stim	104	264542	0.0-9.1-0.1	beast_fmri_test	276	n/a	n/a	<div class = centerbox2><div class = fixation>+</div></div>	none	500.0	test	n/a	n/a	n/a	n/a	n/a	n/a	n/a	n/a	n/a	n/a	n/a	n/a	n/a	n/a	n/a	n/a	n/a	n/a	fixation
234940.33113048394	800.0	n/a	-1	-1	2750	795.668869516	stim	stop-signal	105	267295	0.0-9.1-1.1	beast_fmri_test	276	264662,/,265342,/,266022,/,266702,/,267382,/,268062,/	t,t,t,t,t,t	<img class = center src='/static/experiments/beast_fmri_test/images/T.png'></img>	71,89	2750.0	test	<img class = center src='/static/experiments/beast_fmri_test/images/redT.png'></img>	stop	1950.0	1.0	1.0	stop	non-target	T	71,Index Finger	89,Middle Finger	650.0	800.0	2100.0	1950.0	0.0	800.0	n/a	1.0	go_stim
236890.33113048394	1950.0	n/a	-1	-1	2750	795.668869516	stim	stop-signal	105	267295	0.0-9.1-1.1	beast_fmri_test	276	264662,/,265342,/,266022,/,266702,/,267382,/,268062,/	t,t,t,t,t,t	<img class = center src='/static/experiments/beast_fmri_test/images/T.png'></img>	71,89	2750.0	test	<img class = center src='/static/experiments/beast_fmri_test/images/redT.png'></img>	stop	1950.0	1.0	1.0	stop	non-target	T	71,Index Finger	89,Middle Finger	650.0	800.0	2100.0	1950.0	0.0	800.0	n/a	1.0	stop_stim
237690.33113048394	795.668869516	n/a	-1	-1	2750	795.668869516	stim	stop-signal	105	267295	0.0-9.1-1.1	beast_fmri_test	276	264662,/,265342,/,266022,/,266702,/,267382,/,268062,/	t,t,t,t,t,t	<img class = center src='/static/experiments/beast_fmri_test/images/T.png'></img>	71,89	2750.0	test	<img class = center src='/static/experiments/beast_fmri_test/images/redT.png'></img>	stop	1950.0	1.0	1.0	stop	non-target	T	71,Index Finger	89,Middle Finger	650.0	800.0	2100.0	1950.0	0.0	800.0	n/a	1.0	ITI
239798	500.0	n/a	-1	-1	500	0.0	fixation	poldrack-single-stim	106	268607	0.0-9.2-0.2	beast_fmri_test	276	n/a	n/a	<div class = centerbox2><div class = fixation>+</div></div>	none	500.0	test	n/a	n/a	n/a	n/a	n/a	n/a	n/a	n/a	n/a	n/a	n/a	n/a	n/a	n/a	n/a	n/a	n/a	n/a	fixation
239608.05376747908	2750.0	n/a	1334	89	2750	193.946232521	stim	stop-signal	107	271361	0.0-9.2-1.2	beast_fmri_test	276	268756,/,269422,/,270101,/,270781,/,271462,/	t,t,t,t,t	<img class = center src='/static/experiments/beast_fmri_test/images/D.png'></img>	71,89	2750.0	test	<img class = center src='/static/experiments/beast_fmri_test/images/redD.png'></img>	go	1900.0	1.0	2.0	go	non-target	D	71,Index Finger	89,Middle Finger	650.0	850.0	2100.0	1900.0	1.0	850.0	1.0	n/a	go_stim
242358.05376747908	193.946232521	n/a	1334	89	2750	193.946232521	stim	stop-signal	107	271361	0.0-9.2-1.2	beast_fmri_test	276	268756,/,269422,/,270101,/,270781,/,271462,/	t,t,t,t,t	<img class = center src='/static/experiments/beast_fmri_test/images/D.png'></img>	71,89	2750.0	test	<img class = center src='/static/experiments/beast_fmri_test/images/redD.png'></img>	go	1900.0	1.0	2.0	go	non-target	D	71,Index Finger	89,Middle Finger	650.0	850.0	2100.0	1900.0	1.0	850.0	1.0	n/a	ITI
243261	500.0	n/a	-1	-1	500	0.0	fixation	poldrack-single-stim	108	272070	0.0-9.3-0.3	beast_fmri_test	276	n/a	n/a	<div class = centerbox2><div class = fixation>+</div></div>	none	500.0	test	n/a	n/a	n/a	n/a	n/a	n/a	n/a	n/a	n/a	n/a	n/a	n/a	n/a	n/a	n/a	n/a	n/a	n/a	fixation
243088.69391420612	2750.0	n/a	1064	89	2750	170.306085794	stim	stop-signal	109	274818	0.0-9.3-1.3	beast_fmri_test	276	272142,/,272822,/,273502,/,274179,/,274857,/	t,t,t,t,t	<img class = center src='/static/experiments/beast_fmri_test/images/V.png'></img>	71,89	2750.0	test	<img class = center src='/static/experiments/beast_fmri_test/images/redV.png'></img>	go	1900.0	1.0	3.0	go	non-target	V	71,Index Finger	89,Middle Finger	650.0	850.0	2100.0	1900.0	1.0	850.0	1.0	n/a	go_stim
245838.69391420612	170.306085794	n/a	1064	89	2750	170.306085794	stim	stop-signal	109	274818	0.0-9.3-1.3	beast_fmri_test	276	272142,/,272822,/,273502,/,274179,/,274857,/	t,t,t,t,t	<img class = center src='/static/experiments/beast_fmri_test/images/V.png'></img>	71,89	2750.0	test	<img class = center src='/static/experiments/beast_fmri_test/images/redV.png'></img>	go	1900.0	1.0	3.0	go	non-target	V	71,Index Finger	89,Middle Finger	650.0	850.0	2100.0	1900.0	1.0	850.0	1.0	n/a	ITI
246697	500.0	n/a	-1	-1	500	0.0	fixation	poldrack-single-stim	110	275506	0.0-9.4-0.4	beast_fmri_test	276	n/a	n/a	<div class = centerbox2><div class = fixation>+</div></div>	none	500.0	test	n/a	n/a	n/a	n/a	n/a	n/a	n/a	n/a	n/a	n/a	n/a	n/a	n/a	n/a	n/a	n/a	n/a	n/a	fixation
246240.78383097216	2750.0	n/a	927	71	2750	460.216169028	stim	stop-signal	111	278260	0.0-9.4-1.4	beast_fmri_test	276	275536,/,276217,/,276897,/,277577,/,278258,/	t,t,t,t,t	<img class = center src='/static/experiments/beast_fmri_test/images/V.png'></img>	71,89	2750.0	test	<img class = center src='/static/experiments/beast_fmri_test/images/redV.png'></img>	go	2100.0	1.0	4.0	go	target	V	71,Index Finger	89,Middle Finger	650.0	850.0	2100.0	1900.0	1.0	650.0	1.0	n/a	go_stim
248990.78383097216	460.216169028	n/a	927	71	2750	460.216169028	stim	stop-signal	111	278260	0.0-9.4-1.4	beast_fmri_test	276	275536,/,276217,/,276897,/,277577,/,278258,/	t,t,t,t,t	<img class = center src='/static/experiments/beast_fmri_test/images/V.png'></img>	71,89	2750.0	test	<img class = center src='/static/experiments/beast_fmri_test/images/redV.png'></img>	go	2100.0	1.0	4.0	go	target	V	71,Index Finger	89,Middle Finger	650.0	850.0	2100.0	1900.0	1.0	650.0	1.0	n/a	ITI
250427	500.0	n/a	-1	-1	500	0.0	fixation	poldrack-single-stim	112	279236	0.0-9.5-0.5	beast_fmri_test	276	278937,/	t	<div class = centerbox2><div class = fixation>+</div></div>	none	500.0	test	n/a	n/a	n/a	n/a	n/a	n/a	n/a	n/a	n/a	n/a	n/a	n/a	n/a	n/a	n/a	n/a	n/a	n/a	fixation
248320.82122093881	850.0	n/a	-1	-1	2750	2109.17877906	stim	stop-signal	113	281989	0.0-9.5-1.5	beast_fmri_test	276	279617,/,280297,/,280978,/,281657,/,282337,/,283016,/,283696,/	t,t,t,t,t,t,t	<img class = center src='/static/experiments/beast_fmri_test/images/D.png'></img>	71,89	2750.0	test	<img class = center src='/static/experiments/beast_fmri_test/images/redD.png'></img>	stop	1900.0	1.0	5.0	stop	non-target	D	71,Index Finger	89,Middle Finger	650.0	850.0	2100.0	1900.0	0.0	850.0	n/a	1.0	go_stim
250220.82122093881	1900.0	n/a	-1	-1	2750	2109.17877906	stim	stop-signal	113	281989	0.0-9.5-1.5	beast_fmri_test	276	279617,/,280297,/,280978,/,281657,/,282337,/,283016,/,283696,/	t,t,t,t,t,t,t	<img class = center src='/static/experiments/beast_fmri_test/images/D.png'></img>	71,89	2750.0	test	<img class = center src='/static/experiments/beast_fmri_test/images/redD.png'></img>	stop	1900.0	1.0	5.0	stop	non-target	D	71,Index Finger	89,Middle Finger	650.0	850.0	2100.0	1900.0	0.0	850.0	n/a	1.0	stop_stim
251070.82122093881	2109.17877906	n/a	-1	-1	2750	2109.17877906	stim	stop-signal	113	281989	0.0-9.5-1.5	beast_fmri_test	276	279617,/,280297,/,280978,/,281657,/,282337,/,283016,/,283696,/	t,t,t,t,t,t,t	<img class = center src='/static/experiments/beast_fmri_test/images/D.png'></img>	71,89	2750.0	test	<img class = center src='/static/experiments/beast_fmri_test/images/redD.png'></img>	stop	1900.0	1.0	5.0	stop	non-target	D	71,Index Finger	89,Middle Finger	650.0	850.0	2100.0	1900.0	0.0	850.0	n/a	1.0	ITI
255803	500.0	n/a	-1	-1	500	0.0	fixation	poldrack-single-stim	114	284612	0.0-9.6-0.6	beast_fmri_test	276	284373,/	t	<div class = centerbox2><div class = fixation>+</div></div>	none	500.0	test	n/a	n/a	n/a	n/a	n/a	n/a	n/a	n/a	n/a	n/a	n/a	n/a	n/a	n/a	n/a	n/a	n/a	n/a	fixation
255304.55248438788	2750.0	n/a	1648	71	2750	500.447515612	stim	stop-signal	115	287364	0.0-9.6-1.6	beast_fmri_test	276	285051,/,285732,/,286411,/,287091,/,287771,/	t,t,t,t,t	<img class = center src='/static/experiments/beast_fmri_test/images/D.png'></img>	71,89	2750.0	test	<img class = center src='/static/experiments/beast_fmri_test/images/redD.png'></img>	go	2100.0	1.0	6.0	go	target	D	71,Index Finger	89,Middle Finger	650.0	900.0	2100.0	1900.0	1.0	650.0	1.0	n/a	go_stim
258054.55248438788	500.447515612	n/a	1648	71	2750	500.447515612	stim	stop-signal	115	287364	0.0-9.6-1.6	beast_fmri_test	276	285051,/,285732,/,286411,/,287091,/,287771,/	t,t,t,t,t	<img class = center src='/static/experiments/beast_fmri_test/images/D.png'></img>	71,89	2750.0	test	<img class = center src='/static/experiments/beast_fmri_test/images/redD.png'></img>	go	2100.0	1.0	6.0	go	target	D	71,Index Finger	89,Middle Finger	650.0	900.0	2100.0	1900.0	1.0	650.0	1.0	n/a	ITI
259572	500.0	n/a	-1	-1	500	0.0	fixation	poldrack-single-stim	116	288381	0.0-9.7-0.7	beast_fmri_test	276	n/a	n/a	<div class = centerbox2><div class = fixation>+</div></div>	none	500.0	test	n/a	n/a	n/a	n/a	n/a	n/a	n/a	n/a	n/a	n/a	n/a	n/a	n/a	n/a	n/a	n/a	n/a	n/a	fixation
259168.31798487518	2750.0	n/a	1882	71	2750	406.682015125	stim	stop-signal	117	291134	0.0-9.7-1.7	beast_fmri_test	276	288452,/,289132,/,289812,/,290492,/,291171,/	t,t,t,t,t	<img class = center src='/static/experiments/beast_fmri_test/images/D.png'></img>	71,89	2750.0	test	<img class = center src='/static/experiments/beast_fmri_test/images/redD.png'></img>	go	2100.0	1.0	7.0	go	target	D	71,Index Finger	89,Middle Finger	650.0	900.0	2100.0	1900.0	1.0	650.0	1.0	n/a	go_stim
261918.31798487518	406.682015125	n/a	1882	71	2750	406.682015125	stim	stop-signal	117	291134	0.0-9.7-1.7	beast_fmri_test	276	288452,/,289132,/,289812,/,290492,/,291171,/	t,t,t,t,t	<img class = center src='/static/experiments/beast_fmri_test/images/D.png'></img>	71,89	2750.0	test	<img class = center src='/static/experiments/beast_fmri_test/images/redD.png'></img>	go	2100.0	1.0	7.0	go	target	D	71,Index Finger	89,Middle Finger	650.0	900.0	2100.0	1900.0	1.0	650.0	1.0	n/a	ITI
263250	500.0	n/a	-1	-1	500	0.0	fixation	poldrack-single-stim	118	292059	0.0-9.8-0.8	beast_fmri_test	276	291852,/	t	<div class = centerbox2><div class = fixation>+</div></div>	none	500.0	test	n/a	n/a	n/a	n/a	n/a	n/a	n/a	n/a	n/a	n/a	n/a	n/a	n/a	n/a	n/a	n/a	n/a	n/a	fixation
262337.26294387138	2750.0	n/a	1521	89	2750	910.737056129	stim	stop-signal	119	294807	0.0-9.8-1.8	beast_fmri_test	276	292532,/,293214,/,293891,/,294569,/,295247,/	t,t,t,t,t	<img class = center src='/static/experiments/beast_fmri_test/images/D.png'></img>	71,89	2750.0	test	<img class = center src='/static/experiments/beast_fmri_test/images/redD.png'></img>	go	2100.0	1.0	8.0	go	target	D	71,Index Finger	89,Middle Finger	650.0	900.0	2100.0	1900.0	0.0	650.0	0.0	n/a	go_stim
265087.26294387138	910.737056129	n/a	1521	89	2750	910.737056129	stim	stop-signal	119	294807	0.0-9.8-1.8	beast_fmri_test	276	292532,/,293214,/,293891,/,294569,/,295247,/	t,t,t,t,t	<img class = center src='/static/experiments/beast_fmri_test/images/D.png'></img>	71,89	2750.0	test	<img class = center src='/static/experiments/beast_fmri_test/images/redD.png'></img>	go	2100.0	1.0	8.0	go	target	D	71,Index Finger	89,Middle Finger	650.0	900.0	2100.0	1900.0	0.0	650.0	0.0	n/a	ITI
267425	500.0	n/a	-1	-1	500	0.0	fixation	poldrack-single-stim	120	296234	0.0-9.9-0.9	beast_fmri_test	276	295928,/	t	<div class = centerbox2><div class = fixation>+</div></div>	none	500.0	test	n/a	n/a	n/a	n/a	n/a	n/a	n/a	n/a	n/a	n/a	n/a	n/a	n/a	n/a	n/a	n/a	n/a	n/a	fixation
266753.98483553447	2750.0	n/a	2248	89	2750	673.015164466	stim	stop-signal	121	298986	0.0-9.9-1.9	beast_fmri_test	276	296608,/,297288,/,297968,/,298648,/,299327,/	t,t,t,t,t	<img class = center src='/static/experiments/beast_fmri_test/images/B.png'></img>	71,89	2750.0	test	<img class = center src='/static/experiments/beast_fmri_test/images/redB.png'></img>	go	1850.0	1.0	9.0	go	non-target	B	71,Index Finger	89,Middle Finger	650.0	900.0	2100.0	1850.0	1.0	900.0	1.0	n/a	go_stim
269503.98483553447	673.015164466	n/a	2248	89	2750	673.015164466	stim	stop-signal	121	298986	0.0-9.9-1.9	beast_fmri_test	276	296608,/,297288,/,297968,/,298648,/,299327,/	t,t,t,t,t	<img class = center src='/static/experiments/beast_fmri_test/images/B.png'></img>	71,89	2750.0	test	<img class = center src='/static/experiments/beast_fmri_test/images/redB.png'></img>	go	1850.0	1.0	9.0	go	non-target	B	71,Index Finger	89,Middle Finger	650.0	900.0	2100.0	1850.0	1.0	900.0	1.0	n/a	ITI
271362	500.0	n/a	-1	-1	500	0.0	fixation	poldrack-single-stim	122	300171	0.0-9.10-0.10	beast_fmri_test	276	300004,/	t	<div class = centerbox2><div class = fixation>+</div></div>	none	500.0	test	n/a	n/a	n/a	n/a	n/a	n/a	n/a	n/a	n/a	n/a	n/a	n/a	n/a	n/a	n/a	n/a	n/a	n/a	fixation
271224.86719673953	900.0	n/a	-1	-1	2750	140.13280326	stim	stop-signal	123	302924	0.0-9.10-1.10	beast_fmri_test	276	300683,/,301362,/,302043,/,302722,/	t,t,t,t	<img class = center src='/static/experiments/beast_fmri_test/images/V.png'></img>	71,89	2750.0	test	<img class = center src='/static/experiments/beast_fmri_test/images/redV.png'></img>	stop	1850.0	1.0	10.0	stop	non-target	V	71,Index Finger	89,Middle Finger	650.0	900.0	2100.0	1850.0	0.0	900.0	n/a	1.0	go_stim
273074.86719673953	1850.0	n/a	-1	-1	2750	140.13280326	stim	stop-signal	123	302924	0.0-9.10-1.10	beast_fmri_test	276	300683,/,301362,/,302043,/,302722,/	t,t,t,t	<img class = center src='/static/experiments/beast_fmri_test/images/V.png'></img>	71,89	2750.0	test	<img class = center src='/static/experiments/beast_fmri_test/images/redV.png'></img>	stop	1850.0	1.0	10.0	stop	non-target	V	71,Index Finger	89,Middle Finger	650.0	900.0	2100.0	1850.0	0.0	900.0	n/a	1.0	stop_stim
273974.86719673953	140.13280326	n/a	-1	-1	2750	140.13280326	stim	stop-signal	123	302924	0.0-9.10-1.10	beast_fmri_test	276	300683,/,301362,/,302043,/,302722,/	t,t,t,t	<img class = center src='/static/experiments/beast_fmri_test/images/V.png'></img>	71,89	2750.0	test	<img class = center src='/static/experiments/beast_fmri_test/images/redV.png'></img>	stop	1850.0	1.0	10.0	stop	non-target	V	71,Index Finger	89,Middle Finger	650.0	900.0	2100.0	1850.0	0.0	900.0	n/a	1.0	ITI
274770	500.0	n/a	-1	-1	500	0.0	fixation	poldrack-single-stim	124	303579	0.0-9.11-0.11	beast_fmri_test	276	303403,/	t	<div class = centerbox2><div class = fixation>+</div></div>	none	500.0	test	n/a	n/a	n/a	n/a	n/a	n/a	n/a	n/a	n/a	n/a	n/a	n/a	n/a	n/a	n/a	n/a	n/a	n/a	fixation
273915.24749016442	950.0	n/a	1188	89	2750	857.752509836	stim	stop-signal	125	306332	0.0-9.11-1.11	beast_fmri_test	276	304083,/,304764,/,305442,/,306123,/,306802,/	t,t,t,t,t	<img class = center src='/static/experiments/beast_fmri_test/images/P.png'></img>	71,89	2750.0	test	<img class = center src='/static/experiments/beast_fmri_test/images/redP.png'></img>	stop	1800.0	1.0	11.0	stop	non-target	P	71,Index Finger	89,Middle Finger	650.0	950.0	2100.0	1800.0	0.0	950.0	n/a	0.0	go_stim
275715.24749016442	1800.0	n/a	1188	89	2750	857.752509836	stim	stop-signal	125	306332	0.0-9.11-1.11	beast_fmri_test	276	304083,/,304764,/,305442,/,306123,/,306802,/	t,t,t,t,t	<img class = center src='/static/experiments/beast_fmri_test/images/P.png'></img>	71,89	2750.0	test	<img class = center src='/static/experiments/beast_fmri_test/images/redP.png'></img>	stop	1800.0	1.0	11.0	stop	non-target	P	71,Index Finger	89,Middle Finger	650.0	950.0	2100.0	1800.0	0.0	950.0	n/a	0.0	stop_stim
276665.24749016442	857.752509836	n/a	1188	89	2750	857.752509836	stim	stop-signal	125	306332	0.0-9.11-1.11	beast_fmri_test	276	304083,/,304764,/,305442,/,306123,/,306802,/	t,t,t,t,t	<img class = center src='/static/experiments/beast_fmri_test/images/P.png'></img>	71,89	2750.0	test	<img class = center src='/static/experiments/beast_fmri_test/images/redP.png'></img>	stop	1800.0	1.0	11.0	stop	non-target	P	71,Index Finger	89,Middle Finger	650.0	950.0	2100.0	1800.0	0.0	950.0	n/a	0.0	ITI
278899	500.0	n/a	-1	-1	500	0.0	fixation	poldrack-single-stim	126	307708	0.0-9.12-0.12	beast_fmri_test	276	307483,/	t	<div class = centerbox2><div class = fixation>+</div></div>	none	500.0	test	n/a	n/a	n/a	n/a	n/a	n/a	n/a	n/a	n/a	n/a	n/a	n/a	n/a	n/a	n/a	n/a	n/a	n/a	fixation
278495.31792682974	2750.0	n/a	1486	89	2750	406.68207317	stim	stop-signal	127	310461	0.0-9.12-1.12	beast_fmri_test	276	308163,/,308844,/,309523,/,310203,/	t,t,t,t	<img class = center src='/static/experiments/beast_fmri_test/images/P.png'></img>	71,89	2750.0	test	<img class = center src='/static/experiments/beast_fmri_test/images/redP.png'></img>	go	2100.0	1.0	12.0	go	target	P	71,Index Finger	89,Middle Finger	650.0	900.0	2100.0	1800.0	0.0	650.0	0.0	n/a	go_stim
281245.31792682974	406.68207317	n/a	1486	89	2750	406.68207317	stim	stop-signal	127	310461	0.0-9.12-1.12	beast_fmri_test	276	308163,/,308844,/,309523,/,310203,/	t,t,t,t	<img class = center src='/static/experiments/beast_fmri_test/images/P.png'></img>	71,89	2750.0	test	<img class = center src='/static/experiments/beast_fmri_test/images/redP.png'></img>	go	2100.0	1.0	12.0	go	target	P	71,Index Finger	89,Middle Finger	650.0	900.0	2100.0	1800.0	0.0	650.0	0.0	n/a	ITI
282576	500.0	n/a	-1	-1	500	0.0	fixation	poldrack-single-stim	128	311385	0.0-9.13-0.13	beast_fmri_test	276	310883,/	t	<div class = centerbox2><div class = fixation>+</div></div>	none	500.0	test	n/a	n/a	n/a	n/a	n/a	n/a	n/a	n/a	n/a	n/a	n/a	n/a	n/a	n/a	n/a	n/a	n/a	n/a	fixation
282300.55562927254	900.0	n/a	-1	-1	2750	275.444370727	stim	stop-signal	129	314135	0.0-9.13-1.13	beast_fmri_test	276	311563,/,312242,/,312923,/,313603,/,314280,/	t,t,t,t,t	<img class = center src='/static/experiments/beast_fmri_test/images/V.png'></img>	71,89	2750.0	test	<img class = center src='/static/experiments/beast_fmri_test/images/redV.png'></img>	stop	1850.0	1.0	13.0	stop	non-target	V	71,Index Finger	89,Middle Finger	650.0	900.0	2100.0	1850.0	0.0	900.0	n/a	1.0	go_stim
284150.55562927254	1850.0	n/a	-1	-1	2750	275.444370727	stim	stop-signal	129	314135	0.0-9.13-1.13	beast_fmri_test	276	311563,/,312242,/,312923,/,313603,/,314280,/	t,t,t,t,t	<img class = center src='/static/experiments/beast_fmri_test/images/V.png'></img>	71,89	2750.0	test	<img class = center src='/static/experiments/beast_fmri_test/images/redV.png'></img>	stop	1850.0	1.0	13.0	stop	non-target	V	71,Index Finger	89,Middle Finger	650.0	900.0	2100.0	1850.0	0.0	900.0	n/a	1.0	stop_stim
285050.55562927254	275.444370727	n/a	-1	-1	2750	275.444370727	stim	stop-signal	129	314135	0.0-9.13-1.13	beast_fmri_test	276	311563,/,312242,/,312923,/,313603,/,314280,/	t,t,t,t,t	<img class = center src='/static/experiments/beast_fmri_test/images/V.png'></img>	71,89	2750.0	test	<img class = center src='/static/experiments/beast_fmri_test/images/redV.png'></img>	stop	1850.0	1.0	13.0	stop	non-target	V	71,Index Finger	89,Middle Finger	650.0	900.0	2100.0	1850.0	0.0	900.0	n/a	1.0	ITI
286117	500.0	n/a	-1	-1	500	0.0	fixation	poldrack-single-stim	130	314926	0.0-9.14-0.14	beast_fmri_test	276	n/a	n/a	<div class = centerbox2><div class = fixation>+</div></div>	none	500.0	test	n/a	n/a	n/a	n/a	n/a	n/a	n/a	n/a	n/a	n/a	n/a	n/a	n/a	n/a	n/a	n/a	n/a	n/a	fixation
285990.18296731065	2750.0	n/a	1139	89	2750	129.817032689	stim	stop-signal	131	317679	0.0-9.14-1.14	beast_fmri_test	276	314957,/,315638,/,316318,/,316997,/,317678,/	t,t,t,t,t	<img class = center src='/static/experiments/beast_fmri_test/images/B.png'></img>	71,89	2750.0	test	<img class = center src='/static/experiments/beast_fmri_test/images/redB.png'></img>	go	1800.0	1.0	14.0	go	non-target	B	71,Index Finger	89,Middle Finger	650.0	950.0	2100.0	1800.0	1.0	950.0	1.0	n/a	go_stim
288740.18296731065	129.817032689	n/a	1139	89	2750	129.817032689	stim	stop-signal	131	317679	0.0-9.14-1.14	beast_fmri_test	276	314957,/,315638,/,316318,/,316997,/,317678,/	t,t,t,t,t	<img class = center src='/static/experiments/beast_fmri_test/images/B.png'></img>	71,89	2750.0	test	<img class = center src='/static/experiments/beast_fmri_test/images/redB.png'></img>	go	1800.0	1.0	14.0	go	non-target	B	71,Index Finger	89,Middle Finger	650.0	950.0	2100.0	1800.0	1.0	950.0	1.0	n/a	ITI
289516	500.0	n/a	-1	-1	500	0.0	fixation	poldrack-single-stim	132	318325	0.0-9.15-0.15	beast_fmri_test	276	n/a	n/a	<div class = centerbox2><div class = fixation>+</div></div>	none	500.0	test	n/a	n/a	n/a	n/a	n/a	n/a	n/a	n/a	n/a	n/a	n/a	n/a	n/a	n/a	n/a	n/a	n/a	n/a	fixation
289368.64452828665	650.0	n/a	869	71	2750	149.355471713	stim	stop-signal	133	321077	0.0-9.15-1.15	beast_fmri_test	276	318358,/,319038,/,319720,/,320398,/,321080,/	t,t,t,t,t	<img class = center src='/static/experiments/beast_fmri_test/images/B.png'></img>	71,89	2750.0	test	<img class = center src='/static/experiments/beast_fmri_test/images/redB.png'></img>	stop	2100.0	1.0	15.0	stop	target	B	71,Index Finger	89,Middle Finger	650.0	950.0	2100.0	1800.0	0.0	650.0	n/a	0.0	go_stim
291468.64452828665	2100.0	n/a	869	71	2750	149.355471713	stim	stop-signal	133	321077	0.0-9.15-1.15	beast_fmri_test	276	318358,/,319038,/,319720,/,320398,/,321080,/	t,t,t,t,t	<img class = center src='/static/experiments/beast_fmri_test/images/B.png'></img>	71,89	2750.0	test	<img class = center src='/static/experiments/beast_fmri_test/images/redB.png'></img>	stop	2100.0	1.0	15.0	stop	target	B	71,Index Finger	89,Middle Finger	650.0	950.0	2100.0	1800.0	0.0	650.0	n/a	0.0	stop_stim
292118.64452828665	149.355471713	n/a	869	71	2750	149.355471713	stim	stop-signal	133	321077	0.0-9.15-1.15	beast_fmri_test	276	318358,/,319038,/,319720,/,320398,/,321080,/	t,t,t,t,t	<img class = center src='/static/experiments/beast_fmri_test/images/B.png'></img>	71,89	2750.0	test	<img class = center src='/static/experiments/beast_fmri_test/images/redB.png'></img>	stop	2100.0	1.0	15.0	stop	target	B	71,Index Finger	89,Middle Finger	650.0	950.0	2100.0	1800.0	0.0	650.0	n/a	0.0	ITI
292940	500.0	n/a	-1	-1	500	0.0	fixation	poldrack-single-stim	134	321749	0.0-9.16-0.16	beast_fmri_test	276	n/a	n/a	<div class = centerbox2><div class = fixation>+</div></div>	none	500.0	test	n/a	n/a	n/a	n/a	n/a	n/a	n/a	n/a	n/a	n/a	n/a	n/a	n/a	n/a	n/a	n/a	n/a	n/a	fixation
292704.0955397216	2750.0	n/a	1790	89	2750	236.904460278	stim	stop-signal	135	324500	0.0-9.16-1.16	beast_fmri_test	276	321760,/,322439,/,323119,/,323799,/,324478,/	t,t,t,t,t	<img class = center src='/static/experiments/beast_fmri_test/images/D.png'></img>	71,89	2750.0	test	<img class = center src='/static/experiments/beast_fmri_test/images/redD.png'></img>	go	1800.0	1.0	16.0	go	non-target	D	71,Index Finger	89,Middle Finger	600.0	950.0	2100.0	1800.0	1.0	950.0	1.0	n/a	go_stim
295454.0955397216	236.904460278	n/a	1790	89	2750	236.904460278	stim	stop-signal	135	324500	0.0-9.16-1.16	beast_fmri_test	276	321760,/,322439,/,323119,/,323799,/,324478,/	t,t,t,t,t	<img class = center src='/static/experiments/beast_fmri_test/images/D.png'></img>	71,89	2750.0	test	<img class = center src='/static/experiments/beast_fmri_test/images/redD.png'></img>	go	1800.0	1.0	16.0	go	non-target	D	71,Index Finger	89,Middle Finger	600.0	950.0	2100.0	1800.0	1.0	950.0	1.0	n/a	ITI
296446	500.0	n/a	-1	-1	500	0.0	fixation	poldrack-single-stim	136	325255	0.0-9.17-0.17	beast_fmri_test	276	325158,/	t	<div class = centerbox2><div class = fixation>+</div></div>	none	500.0	test	n/a	n/a	n/a	n/a	n/a	n/a	n/a	n/a	n/a	n/a	n/a	n/a	n/a	n/a	n/a	n/a	n/a	n/a	fixation
293515.2415503423	2750.0	n/a	2399	89	2750	2934.75844966	stim	stop-signal	137	328009	0.0-9.17-1.17	beast_fmri_test	276	325839,/,326519,/,327199,/,327879,/,328559,/,329239,/,329918,/,330598,/	t,t,t,t,t,t,t,t	<img class = center src='/static/experiments/beast_fmri_test/images/T.png'></img>	71,89	2750.0	test	<img class = center src='/static/experiments/beast_fmri_test/images/redT.png'></img>	go	1800.0	1.0	17.0	go	non-target	T	71,Index Finger	89,Middle Finger	600.0	950.0	2100.0	1800.0	1.0	950.0	1.0	n/a	go_stim
296265.2415503423	2934.75844966	n/a	2399	89	2750	2934.75844966	stim	stop-signal	137	328009	0.0-9.17-1.17	beast_fmri_test	276	325839,/,326519,/,327199,/,327879,/,328559,/,329239,/,329918,/,330598,/	t,t,t,t,t,t,t,t	<img class = center src='/static/experiments/beast_fmri_test/images/T.png'></img>	71,89	2750.0	test	<img class = center src='/static/experiments/beast_fmri_test/images/redT.png'></img>	go	1800.0	1.0	17.0	go	non-target	T	71,Index Finger	89,Middle Finger	600.0	950.0	2100.0	1800.0	1.0	950.0	1.0	n/a	ITI
302652	500.0	n/a	-1	-1	500	0.0	fixation	poldrack-single-stim	138	331461	0.0-9.18-0.18	beast_fmri_test	276	331278,/	t	<div class = centerbox2><div class = fixation>+</div></div>	none	500.0	test	n/a	n/a	n/a	n/a	n/a	n/a	n/a	n/a	n/a	n/a	n/a	n/a	n/a	n/a	n/a	n/a	n/a	n/a	fixation
301136.00224238267	600.0	n/a	-1	-1	2750	1516.99775762	stim	stop-signal	139	334212	0.0-9.18-1.18	beast_fmri_test	276	331959,/,332639,/,333319,/,333998,/,334674,/,335354,/	t,t,t,t,t,t	<img class = center src='/static/experiments/beast_fmri_test/images/T.png'></img>	71,89	2750.0	test	<img class = center src='/static/experiments/beast_fmri_test/images/redT.png'></img>	stop	2150.0	1.0	18.0	stop	target	T	71,Index Finger	89,Middle Finger	600.0	950.0	2150.0	1800.0	0.0	600.0	n/a	1.0	go_stim
303286.00224238267	2150.0	n/a	-1	-1	2750	1516.99775762	stim	stop-signal	139	334212	0.0-9.18-1.18	beast_fmri_test	276	331959,/,332639,/,333319,/,333998,/,334674,/,335354,/	t,t,t,t,t,t	<img class = center src='/static/experiments/beast_fmri_test/images/T.png'></img>	71,89	2750.0	test	<img class = center src='/static/experiments/beast_fmri_test/images/redT.png'></img>	stop	2150.0	1.0	18.0	stop	target	T	71,Index Finger	89,Middle Finger	600.0	950.0	2150.0	1800.0	0.0	600.0	n/a	1.0	stop_stim
303886.00224238267	1516.99775762	n/a	-1	-1	2750	1516.99775762	stim	stop-signal	139	334212	0.0-9.18-1.18	beast_fmri_test	276	331959,/,332639,/,333319,/,333998,/,334674,/,335354,/	t,t,t,t,t,t	<img class = center src='/static/experiments/beast_fmri_test/images/T.png'></img>	71,89	2750.0	test	<img class = center src='/static/experiments/beast_fmri_test/images/redT.png'></img>	stop	2150.0	1.0	18.0	stop	target	T	71,Index Finger	89,Middle Finger	600.0	950.0	2150.0	1800.0	0.0	600.0	n/a	1.0	ITI
307435	500.0	n/a	-1	-1	500	0.0	fixation	poldrack-single-stim	140	336244	0.0-9.19-0.19	beast_fmri_test	276	336035,/	t	<div class = centerbox2><div class = fixation>+</div></div>	none	500.0	test	n/a	n/a	n/a	n/a	n/a	n/a	n/a	n/a	n/a	n/a	n/a	n/a	n/a	n/a	n/a	n/a	n/a	n/a	fixation
305410.79222617293	2750.0	n/a	1101	89	2750	2027.20777383	stim	stop-signal	141	338997	0.0-9.19-1.19	beast_fmri_test	276	336715,/,337394,/,338073,/,338754,/,339434,/,340114,/,340794,/	t,t,t,t,t,t,t	<img class = center src='/static/experiments/beast_fmri_test/images/B.png'></img>	71,89	2750.0	test	<img class = center src='/static/experiments/beast_fmri_test/images/redB.png'></img>	go	1800.0	1.0	19.0	go	non-target	B	71,Index Finger	89,Middle Finger	650.0	950.0	2150.0	1800.0	1.0	950.0	1.0	n/a	go_stim
308160.79222617293	2027.20777383	n/a	1101	89	2750	2027.20777383	stim	stop-signal	141	338997	0.0-9.19-1.19	beast_fmri_test	276	336715,/,337394,/,338073,/,338754,/,339434,/,340114,/,340794,/	t,t,t,t,t,t,t	<img class = center src='/static/experiments/beast_fmri_test/images/B.png'></img>	71,89	2750.0	test	<img class = center src='/static/experiments/beast_fmri_test/images/redB.png'></img>	go	1800.0	1.0	19.0	go	non-target	B	71,Index Finger	89,Middle Finger	650.0	950.0	2150.0	1800.0	1.0	950.0	1.0	n/a	ITI
312735	500.0	n/a	-1	-1	500	0.0	fixation	poldrack-single-stim	142	341544	0.0-9.20-0.20	beast_fmri_test	276	341475,/	t	<div class = centerbox2><div class = fixation>+</div></div>	none	500.0	test	n/a	n/a	n/a	n/a	n/a	n/a	n/a	n/a	n/a	n/a	n/a	n/a	n/a	n/a	n/a	n/a	n/a	n/a	fixation
312383.13916416734	2750.0	n/a	903	89	2750	350.860835833	stim	stop-signal	143	344293	0.0-9.20-1.20	beast_fmri_test	276	342154,/,342834,/,343515,/,344191,/	t,t,t,t	<img class = center src='/static/experiments/beast_fmri_test/images/D.png'></img>	71,89	2750.0	test	<img class = center src='/static/experiments/beast_fmri_test/images/redD.png'></img>	go	1800.0	1.0	20.0	go	non-target	D	71,Index Finger	89,Middle Finger	650.0	950.0	2150.0	1800.0	1.0	950.0	1.0	n/a	go_stim
315133.13916416734	350.860835833	n/a	903	89	2750	350.860835833	stim	stop-signal	143	344293	0.0-9.20-1.20	beast_fmri_test	276	342154,/,342834,/,343515,/,344191,/	t,t,t,t	<img class = center src='/static/experiments/beast_fmri_test/images/D.png'></img>	71,89	2750.0	test	<img class = center src='/static/experiments/beast_fmri_test/images/redD.png'></img>	go	1800.0	1.0	20.0	go	non-target	D	71,Index Finger	89,Middle Finger	650.0	950.0	2150.0	1800.0	1.0	950.0	1.0	n/a	ITI
316353	500.0	n/a	-1	-1	500	0.0	fixation	poldrack-single-stim	144	345162	0.0-9.21-0.21	beast_fmri_test	276	344869,/	t	<div class = centerbox2><div class = fixation>+</div></div>	none	500.0	test	n/a	n/a	n/a	n/a	n/a	n/a	n/a	n/a	n/a	n/a	n/a	n/a	n/a	n/a	n/a	n/a	n/a	n/a	fixation
315760.44107745413	650.0	n/a	904	71	2750	594.558922546	stim	stop-signal	145	347914	0.0-9.21-1.21	beast_fmri_test	276	345548,/,346230,/,346909,/,347588,/,348269,/	t,t,t,t,t	<img class = center src='/static/experiments/beast_fmri_test/images/D.png'></img>	71,89	2750.0	test	<img class = center src='/static/experiments/beast_fmri_test/images/redD.png'></img>	stop	2100.0	1.0	21.0	stop	target	D	71,Index Finger	89,Middle Finger	650.0	950.0	2100.0	1800.0	0.0	650.0	n/a	0.0	go_stim
317860.44107745413	2100.0	n/a	904	71	2750	594.558922546	stim	stop-signal	145	347914	0.0-9.21-1.21	beast_fmri_test	276	345548,/,346230,/,346909,/,347588,/,348269,/	t,t,t,t,t	<img class = center src='/static/experiments/beast_fmri_test/images/D.png'></img>	71,89	2750.0	test	<img class = center src='/static/experiments/beast_fmri_test/images/redD.png'></img>	stop	2100.0	1.0	21.0	stop	target	D	71,Index Finger	89,Middle Finger	650.0	950.0	2100.0	1800.0	0.0	650.0	n/a	0.0	stop_stim
318510.44107745413	594.558922546	n/a	904	71	2750	594.558922546	stim	stop-signal	145	347914	0.0-9.21-1.21	beast_fmri_test	276	345548,/,346230,/,346909,/,347588,/,348269,/	t,t,t,t,t	<img class = center src='/static/experiments/beast_fmri_test/images/D.png'></img>	71,89	2750.0	test	<img class = center src='/static/experiments/beast_fmri_test/images/redD.png'></img>	stop	2100.0	1.0	21.0	stop	target	D	71,Index Finger	89,Middle Finger	650.0	950.0	2100.0	1800.0	0.0	650.0	n/a	0.0	ITI
320219	500.0	n/a	-1	-1	500	0.0	fixation	poldrack-single-stim	146	349028	0.0-9.22-0.22	beast_fmri_test	276	348950,/	t	<div class = centerbox2><div class = fixation>+</div></div>	none	500.0	test	n/a	n/a	n/a	n/a	n/a	n/a	n/a	n/a	n/a	n/a	n/a	n/a	n/a	n/a	n/a	n/a	n/a	n/a	fixation
319955.53302983899	950.0	n/a	-1	-1	2750	266.466970161	stim	stop-signal	147	351781	0.0-9.22-1.22	beast_fmri_test	276	349629,/,350311,/,350989,/,351670,/	t,t,t,t	<img class = center src='/static/experiments/beast_fmri_test/images/B.png'></img>	71,89	2750.0	test	<img class = center src='/static/experiments/beast_fmri_test/images/redB.png'></img>	stop	1800.0	1.0	22.0	stop	non-target	B	71,Index Finger	89,Middle Finger	600.0	950.0	2100.0	1800.0	0.0	950.0	n/a	1.0	go_stim
321755.53302983899	1800.0	n/a	-1	-1	2750	266.466970161	stim	stop-signal	147	351781	0.0-9.22-1.22	beast_fmri_test	276	349629,/,350311,/,350989,/,351670,/	t,t,t,t	<img class = center src='/static/experiments/beast_fmri_test/images/B.png'></img>	71,89	2750.0	test	<img class = center src='/static/experiments/beast_fmri_test/images/redB.png'></img>	stop	1800.0	1.0	22.0	stop	non-target	B	71,Index Finger	89,Middle Finger	600.0	950.0	2100.0	1800.0	0.0	950.0	n/a	1.0	stop_stim
322705.53302983899	266.466970161	n/a	-1	-1	2750	266.466970161	stim	stop-signal	147	351781	0.0-9.22-1.22	beast_fmri_test	276	349629,/,350311,/,350989,/,351670,/	t,t,t,t	<img class = center src='/static/experiments/beast_fmri_test/images/B.png'></img>	71,89	2750.0	test	<img class = center src='/static/experiments/beast_fmri_test/images/redB.png'></img>	stop	1800.0	1.0	22.0	stop	non-target	B	71,Index Finger	89,Middle Finger	600.0	950.0	2100.0	1800.0	0.0	950.0	n/a	1.0	ITI
323760	500.0	n/a	-1	-1	500	0.0	fixation	poldrack-single-stim	148	352569	0.0-9.23-0.23	beast_fmri_test	276	352351,/	t	<div class = centerbox2><div class = fixation>+</div></div>	none	500.0	test	n/a	n/a	n/a	n/a	n/a	n/a	n/a	n/a	n/a	n/a	n/a	n/a	n/a	n/a	n/a	n/a	n/a	n/a	fixation
