onset	duration	"“text"""	rt	key_press	block_duration	timing_post_trial	trial_id	trial_type	trial_index	time_elapsed	internal_node_id	exp_id	subject_id	trigger_times	triggers	stimulus	possible_responses	stim_duration	exp_stage	SS_stimulus	SS_trial_type	SS_duration	load	trial_num	stop_trial_type	adaptive_trial_type	stim	yes_response_key	no_response_key	SSD_target	SSD_non_target	SSTarget	SSNonTarget	go_acc	SS_delay	adaptive_acc	stop_acc	new_trial_type
test	10880.0	n/a	-1	-1	10880	0.0	practice-no-stop-feedback	poldrack-single-stim	196	553418	0.0-12.0	beast_fmri_test	276	542541,/,543220,/,543897,/,544575,/,545254,/,545933,/,546615,/,547295,/,547975,/,548654,/,549334,/,550013,/,550695,/,551375,/,552055,/,552734,/,553415,/	t,t,t,t,t,t,t,t,t,t,t,t,t,t,t,t,t	"<div class = ""centerbox""><p class = ""block-text"">Your delay is 1 trials.</p><p class = block-text>Please wait for the scanner to start the block</p></div>"	77	10880.0	n/a	n/a	n/a	n/a	n/a	n/a	n/a	n/a	n/a	n/a	n/a	n/a	n/a	n/a	n/a	n/a	n/a	n/a	n/a	start_functional_block
11378	500.0	n/a	-1	-1	500	0.0	fixation	poldrack-single-stim	197	553919	0.0-13.0-0.0	beast_fmri_test	276	n/a	n/a	<div class = centerbox2><div class = fixation>+</div></div>	none	500.0	test	n/a	n/a	n/a	n/a	n/a	n/a	n/a	n/a	n/a	n/a	n/a	n/a	n/a	n/a	n/a	n/a	n/a	n/a	fixation
11330.681657062843	2750.0	n/a	1137	89	2750	48.3183429372	stim	stop-signal	198	556670	0.0-13.0-1.0	beast_fmri_test	276	554092,/,554769,/,555450,/,556129,/	t,t,t,t	<img class = center src='/static/experiments/beast_fmri_test/images/T.png'></img>	71,89	2750.0	test	<img class = center src='/static/experiments/beast_fmri_test/images/redT.png'></img>	go	-1.0	1.0	0.0	go	temp-non-target	T	71,Index Finger	89,Middle Finger	700.0	1000.0	2050.0	1750.0	0.0	n/a	n/a	n/a	go_stim
14080.681657062843	48.3183429372	n/a	1137	89	2750	48.3183429372	stim	stop-signal	198	556670	0.0-13.0-1.0	beast_fmri_test	276	554092,/,554769,/,555450,/,556129,/	t,t,t,t	<img class = center src='/static/experiments/beast_fmri_test/images/T.png'></img>	71,89	2750.0	test	<img class = center src='/static/experiments/beast_fmri_test/images/redT.png'></img>	go	-1.0	1.0	0.0	go	temp-non-target	T	71,Index Finger	89,Middle Finger	700.0	1000.0	2050.0	1750.0	0.0	n/a	n/a	n/a	ITI
14697	500.0	n/a	-1	-1	500	0.0	fixation	poldrack-single-stim	199	557238	0.0-13.1-0.1	beast_fmri_test	276	556810,/	t	<div class = centerbox2><div class = fixation>+</div></div>	none	500.0	test	n/a	n/a	n/a	n/a	n/a	n/a	n/a	n/a	n/a	n/a	n/a	n/a	n/a	n/a	n/a	n/a	n/a	n/a	fixation
14124.484066972043	2750.0	n/a	1277	71	2750	575.515933028	stim	stop-signal	200	559991	0.0-13.1-1.1	beast_fmri_test	276	557490,/,558170,/,558850,/,559531,/,560210,/	t,t,t,t,t	<img class = center src='/static/experiments/beast_fmri_test/images/T.png'></img>	71,89	2750.0	test	<img class = center src='/static/experiments/beast_fmri_test/images/redT.png'></img>	go	2050.0	1.0	1.0	go	target	T	71,Index Finger	89,Middle Finger	700.0	1000.0	2050.0	1750.0	1.0	700.0	1.0	n/a	go_stim
16874.484066972043	575.515933028	n/a	1277	71	2750	575.515933028	stim	stop-signal	200	559991	0.0-13.1-1.1	beast_fmri_test	276	557490,/,558170,/,558850,/,559531,/,560210,/	t,t,t,t,t	<img class = center src='/static/experiments/beast_fmri_test/images/T.png'></img>	71,89	2750.0	test	<img class = center src='/static/experiments/beast_fmri_test/images/redT.png'></img>	go	2050.0	1.0	1.0	go	target	T	71,Index Finger	89,Middle Finger	700.0	1000.0	2050.0	1750.0	1.0	700.0	1.0	n/a	ITI
18553	500.0	n/a	-1	-1	500	0.0	fixation	poldrack-single-stim	201	561094	0.0-13.2-0.2	beast_fmri_test	276	560891,/	t	<div class = centerbox2><div class = fixation>+</div></div>	none	500.0	test	n/a	n/a	n/a	n/a	n/a	n/a	n/a	n/a	n/a	n/a	n/a	n/a	n/a	n/a	n/a	n/a	n/a	n/a	fixation
18004.462888690177	1000.0	n/a	1248	89	2750	550.53711131	stim	stop-signal	202	563846	0.0-13.2-1.2	beast_fmri_test	276	561570,/,562251,/,562929,/,563609,/,564289,/	t,t,t,t,t	<img class = center src='/static/experiments/beast_fmri_test/images/P.png'></img>	71,89	2750.0	test	<img class = center src='/static/experiments/beast_fmri_test/images/redP.png'></img>	stop	1750.0	1.0	2.0	stop	non-target	P	71,Index Finger	89,Middle Finger	700.0	1000.0	2050.0	1750.0	0.0	1000.0	n/a	0.0	go_stim
19754.462888690177	1750.0	n/a	1248	89	2750	550.53711131	stim	stop-signal	202	563846	0.0-13.2-1.2	beast_fmri_test	276	561570,/,562251,/,562929,/,563609,/,564289,/	t,t,t,t,t	<img class = center src='/static/experiments/beast_fmri_test/images/P.png'></img>	71,89	2750.0	test	<img class = center src='/static/experiments/beast_fmri_test/images/redP.png'></img>	stop	1750.0	1.0	2.0	stop	non-target	P	71,Index Finger	89,Middle Finger	700.0	1000.0	2050.0	1750.0	0.0	1000.0	n/a	0.0	stop_stim
20754.462888690177	550.53711131	n/a	1248	89	2750	550.53711131	stim	stop-signal	202	563846	0.0-13.2-1.2	beast_fmri_test	276	561570,/,562251,/,562929,/,563609,/,564289,/	t,t,t,t,t	<img class = center src='/static/experiments/beast_fmri_test/images/P.png'></img>	71,89	2750.0	test	<img class = center src='/static/experiments/beast_fmri_test/images/redP.png'></img>	stop	1750.0	1.0	2.0	stop	non-target	P	71,Index Finger	89,Middle Finger	700.0	1000.0	2050.0	1750.0	0.0	1000.0	n/a	0.0	ITI
22381	500.0	n/a	-1	-1	500	0.0	fixation	poldrack-single-stim	203	564922	0.0-13.3-0.3	beast_fmri_test	276	n/a	n/a	<div class = centerbox2><div class = fixation>+</div></div>	none	500.0	test	n/a	n/a	n/a	n/a	n/a	n/a	n/a	n/a	n/a	n/a	n/a	n/a	n/a	n/a	n/a	n/a	n/a	n/a	fixation
22117.702058189549	2750.0	n/a	882	71	2750	266.29794181	stim	stop-signal	204	567675	0.0-13.3-1.3	beast_fmri_test	276	564969,/,565651,/,566331,/,567011,/,567689,/	t,t,t,t,t	<img class = center src='/static/experiments/beast_fmri_test/images/P.png'></img>	71,89	2750.0	test	<img class = center src='/static/experiments/beast_fmri_test/images/redP.png'></img>	go	2050.0	1.0	3.0	go	target	P	71,Index Finger	89,Middle Finger	700.0	950.0	2050.0	1750.0	1.0	700.0	1.0	n/a	go_stim
24867.702058189549	266.29794181	n/a	882	71	2750	266.29794181	stim	stop-signal	204	567675	0.0-13.3-1.3	beast_fmri_test	276	564969,/,565651,/,566331,/,567011,/,567689,/	t,t,t,t,t	<img class = center src='/static/experiments/beast_fmri_test/images/P.png'></img>	71,89	2750.0	test	<img class = center src='/static/experiments/beast_fmri_test/images/redP.png'></img>	go	2050.0	1.0	3.0	go	target	P	71,Index Finger	89,Middle Finger	700.0	950.0	2050.0	1750.0	1.0	700.0	1.0	n/a	ITI
25927	500.0	n/a	-1	-1	500	0.0	fixation	poldrack-single-stim	205	568468	0.0-13.4-0.4	beast_fmri_test	276	568369,/	t	<div class = centerbox2><div class = fixation>+</div></div>	none	500.0	test	n/a	n/a	n/a	n/a	n/a	n/a	n/a	n/a	n/a	n/a	n/a	n/a	n/a	n/a	n/a	n/a	n/a	n/a	fixation
25746.829039298231	2750.0	n/a	879	71	2750	184.170960702	stim	stop-signal	206	571222	0.0-13.4-1.4	beast_fmri_test	276	569051,/,569731,/,570411,/,571089,/	t,t,t,t	<img class = center src='/static/experiments/beast_fmri_test/images/P.png'></img>	71,89	2750.0	test	<img class = center src='/static/experiments/beast_fmri_test/images/redP.png'></img>	go	2050.0	1.0	4.0	go	target	P	71,Index Finger	89,Middle Finger	700.0	950.0	2050.0	1750.0	1.0	700.0	1.0	n/a	go_stim
28496.829039298231	184.170960702	n/a	879	71	2750	184.170960702	stim	stop-signal	206	571222	0.0-13.4-1.4	beast_fmri_test	276	569051,/,569731,/,570411,/,571089,/	t,t,t,t	<img class = center src='/static/experiments/beast_fmri_test/images/P.png'></img>	71,89	2750.0	test	<img class = center src='/static/experiments/beast_fmri_test/images/redP.png'></img>	go	2050.0	1.0	4.0	go	target	P	71,Index Finger	89,Middle Finger	700.0	950.0	2050.0	1750.0	1.0	700.0	1.0	n/a	ITI
29386	500.0	n/a	-1	-1	500	0.0	fixation	poldrack-single-stim	207	571927	0.0-13.5-0.5	beast_fmri_test	276	571771,/	t	<div class = centerbox2><div class = fixation>+</div></div>	none	500.0	test	n/a	n/a	n/a	n/a	n/a	n/a	n/a	n/a	n/a	n/a	n/a	n/a	n/a	n/a	n/a	n/a	n/a	n/a	fixation
29167.882759283995	950.0	n/a	1059	89	2750	217.117240716	stim	stop-signal	208	574676	0.0-13.5-1.5	beast_fmri_test	276	572450,/,573130,/,573808,/,574485,/	t,t,t,t	<img class = center src='/static/experiments/beast_fmri_test/images/V.png'></img>	71,89	2750.0	test	<img class = center src='/static/experiments/beast_fmri_test/images/redV.png'></img>	stop	1800.0	1.0	5.0	stop	non-target	V	71,Index Finger	89,Middle Finger	700.0	950.0	2050.0	1800.0	0.0	950.0	n/a	0.0	go_stim
30967.882759283995	1800.0	n/a	1059	89	2750	217.117240716	stim	stop-signal	208	574676	0.0-13.5-1.5	beast_fmri_test	276	572450,/,573130,/,573808,/,574485,/	t,t,t,t	<img class = center src='/static/experiments/beast_fmri_test/images/V.png'></img>	71,89	2750.0	test	<img class = center src='/static/experiments/beast_fmri_test/images/redV.png'></img>	stop	1800.0	1.0	5.0	stop	non-target	V	71,Index Finger	89,Middle Finger	700.0	950.0	2050.0	1800.0	0.0	950.0	n/a	0.0	stop_stim
31917.882759283995	217.117240716	n/a	1059	89	2750	217.117240716	stim	stop-signal	208	574676	0.0-13.5-1.5	beast_fmri_test	276	572450,/,573130,/,573808,/,574485,/	t,t,t,t	<img class = center src='/static/experiments/beast_fmri_test/images/V.png'></img>	71,89	2750.0	test	<img class = center src='/static/experiments/beast_fmri_test/images/redV.png'></img>	stop	1800.0	1.0	5.0	stop	non-target	V	71,Index Finger	89,Middle Finger	700.0	950.0	2050.0	1800.0	0.0	950.0	n/a	0.0	ITI
32877	500.0	n/a	-1	-1	500	0.0	fixation	poldrack-single-stim	209	575418	0.0-13.6-0.6	beast_fmri_test	276	575166,/	t	<div class = centerbox2><div class = fixation>+</div></div>	none	500.0	test	n/a	n/a	n/a	n/a	n/a	n/a	n/a	n/a	n/a	n/a	n/a	n/a	n/a	n/a	n/a	n/a	n/a	n/a	fixation
32191.793888991349	2750.0	n/a	1654	71	2750	687.206111009	stim	stop-signal	210	578170	0.0-13.6-1.6	beast_fmri_test	276	575845,/,576525,/,577206,/,577884,/,578565,/	t,t,t,t,t	<img class = center src='/static/experiments/beast_fmri_test/images/B.png'></img>	71,89	2750.0	test	<img class = center src='/static/experiments/beast_fmri_test/images/redB.png'></img>	go	1850.0	1.0	6.0	go	non-target	B	71,Index Finger	89,Middle Finger	700.0	900.0	2050.0	1850.0	0.0	900.0	0.0	n/a	go_stim
34941.793888991349	687.206111009	n/a	1654	71	2750	687.206111009	stim	stop-signal	210	578170	0.0-13.6-1.6	beast_fmri_test	276	575845,/,576525,/,577206,/,577884,/,578565,/	t,t,t,t,t	<img class = center src='/static/experiments/beast_fmri_test/images/B.png'></img>	71,89	2750.0	test	<img class = center src='/static/experiments/beast_fmri_test/images/redB.png'></img>	go	1850.0	1.0	6.0	go	non-target	B	71,Index Finger	89,Middle Finger	700.0	900.0	2050.0	1850.0	0.0	900.0	0.0	n/a	ITI
36841	500.0	n/a	-1	-1	500	0.0	fixation	poldrack-single-stim	211	579382	0.0-13.7-0.7	beast_fmri_test	276	579246,/	t	<div class = centerbox2><div class = fixation>+</div></div>	none	500.0	test	n/a	n/a	n/a	n/a	n/a	n/a	n/a	n/a	n/a	n/a	n/a	n/a	n/a	n/a	n/a	n/a	n/a	n/a	fixation
36535.686920162756	2750.0	n/a	1246	89	2750	309.313079837	stim	stop-signal	212	582136	0.0-13.7-1.7	beast_fmri_test	276	579926,/,580606,/,581285,/,581965,/	t,t,t,t	<img class = center src='/static/experiments/beast_fmri_test/images/D.png'></img>	71,89	2750.0	test	<img class = center src='/static/experiments/beast_fmri_test/images/redD.png'></img>	go	1850.0	1.0	7.0	go	non-target	D	71,Index Finger	89,Middle Finger	700.0	900.0	2050.0	1850.0	1.0	900.0	1.0	n/a	go_stim
39285.686920162756	309.313079837	n/a	1246	89	2750	309.313079837	stim	stop-signal	212	582136	0.0-13.7-1.7	beast_fmri_test	276	579926,/,580606,/,581285,/,581965,/	t,t,t,t	<img class = center src='/static/experiments/beast_fmri_test/images/D.png'></img>	71,89	2750.0	test	<img class = center src='/static/experiments/beast_fmri_test/images/redD.png'></img>	go	1850.0	1.0	7.0	go	non-target	D	71,Index Finger	89,Middle Finger	700.0	900.0	2050.0	1850.0	1.0	900.0	1.0	n/a	ITI
40427	500.0	n/a	-1	-1	500	0.0	fixation	poldrack-single-stim	213	582968	0.0-13.8-0.8	beast_fmri_test	276	582646,/	t	<div class = centerbox2><div class = fixation>+</div></div>	none	500.0	test	n/a	n/a	n/a	n/a	n/a	n/a	n/a	n/a	n/a	n/a	n/a	n/a	n/a	n/a	n/a	n/a	n/a	n/a	fixation
38798.230836828938	2750.0	n/a	660	89	2750	1626.76916317	stim	stop-signal	214	585716	0.0-13.8-1.8	beast_fmri_test	276	583325,/,584005,/,584681,/,585360,/,586041,/,586721,/	t,t,t,t,t,t	<img class = center src='/static/experiments/beast_fmri_test/images/P.png'></img>	71,89	2750.0	test	<img class = center src='/static/experiments/beast_fmri_test/images/redP.png'></img>	go	1850.0	1.0	8.0	go	non-target	P	71,Index Finger	89,Middle Finger	700.0	900.0	2050.0	1850.0	1.0	900.0	1.0	n/a	go_stim
41548.230836828938	1626.76916317	n/a	660	89	2750	1626.76916317	stim	stop-signal	214	585716	0.0-13.8-1.8	beast_fmri_test	276	583325,/,584005,/,584681,/,585360,/,586041,/,586721,/	t,t,t,t,t,t	<img class = center src='/static/experiments/beast_fmri_test/images/P.png'></img>	71,89	2750.0	test	<img class = center src='/static/experiments/beast_fmri_test/images/redP.png'></img>	go	1850.0	1.0	8.0	go	non-target	P	71,Index Finger	89,Middle Finger	700.0	900.0	2050.0	1850.0	1.0	900.0	1.0	n/a	ITI
45326	500.0	n/a	-1	-1	500	0.0	fixation	poldrack-single-stim	215	587867	0.0-13.9-0.9	beast_fmri_test	276	587400,/	t	<div class = centerbox2><div class = fixation>+</div></div>	none	500.0	test	n/a	n/a	n/a	n/a	n/a	n/a	n/a	n/a	n/a	n/a	n/a	n/a	n/a	n/a	n/a	n/a	n/a	n/a	fixation
45099.172047698521	900.0	n/a	463	89	2750	228.827952301	stim	stop-signal	216	590619	0.0-13.9-1.9	beast_fmri_test	276	588082,/,588762,/,589441,/,590122,/,590801,/	t,t,t,t,t	<img class = center src='/static/experiments/beast_fmri_test/images/T.png'></img>	71,89	2750.0	test	<img class = center src='/static/experiments/beast_fmri_test/images/redT.png'></img>	stop	1850.0	1.0	9.0	stop	non-target	T	71,Index Finger	89,Middle Finger	700.0	900.0	2050.0	1850.0	0.0	900.0	n/a	0.0	go_stim
46949.172047698521	1850.0	n/a	463	89	2750	228.827952301	stim	stop-signal	216	590619	0.0-13.9-1.9	beast_fmri_test	276	588082,/,588762,/,589441,/,590122,/,590801,/	t,t,t,t,t	<img class = center src='/static/experiments/beast_fmri_test/images/T.png'></img>	71,89	2750.0	test	<img class = center src='/static/experiments/beast_fmri_test/images/redT.png'></img>	stop	1850.0	1.0	9.0	stop	non-target	T	71,Index Finger	89,Middle Finger	700.0	900.0	2050.0	1850.0	0.0	900.0	n/a	0.0	stop_stim
47849.172047698521	228.827952301	n/a	463	89	2750	228.827952301	stim	stop-signal	216	590619	0.0-13.9-1.9	beast_fmri_test	276	588082,/,588762,/,589441,/,590122,/,590801,/	t,t,t,t,t	<img class = center src='/static/experiments/beast_fmri_test/images/T.png'></img>	71,89	2750.0	test	<img class = center src='/static/experiments/beast_fmri_test/images/redT.png'></img>	stop	1850.0	1.0	9.0	stop	non-target	T	71,Index Finger	89,Middle Finger	700.0	900.0	2050.0	1850.0	0.0	900.0	n/a	0.0	ITI
48833	500.0	n/a	-1	-1	500	0.0	fixation	poldrack-single-stim	217	591374	0.0-13.10-0.10	beast_fmri_test	276	n/a	n/a	<div class = centerbox2><div class = fixation>+</div></div>	none	500.0	test	n/a	n/a	n/a	n/a	n/a	n/a	n/a	n/a	n/a	n/a	n/a	n/a	n/a	n/a	n/a	n/a	n/a	n/a	fixation
47636.114225467201	2750.0	n/a	668	71	2750	1197.88577453	stim	stop-signal	218	594125	0.0-13.10-1.10	beast_fmri_test	276	591481,/,592161,/,592840,/,593522,/,594199,/,594877,/	t,t,t,t,t,t	<img class = center src='/static/experiments/beast_fmri_test/images/T.png'></img>	71,89	2750.0	test	<img class = center src='/static/experiments/beast_fmri_test/images/redT.png'></img>	go	2050.0	1.0	10.0	go	target	T	71,Index Finger	89,Middle Finger	700.0	850.0	2050.0	1850.0	1.0	700.0	1.0	n/a	go_stim
50386.114225467201	1197.88577453	n/a	668	71	2750	1197.88577453	stim	stop-signal	218	594125	0.0-13.10-1.10	beast_fmri_test	276	591481,/,592161,/,592840,/,593522,/,594199,/,594877,/	t,t,t,t,t,t	<img class = center src='/static/experiments/beast_fmri_test/images/T.png'></img>	71,89	2750.0	test	<img class = center src='/static/experiments/beast_fmri_test/images/redT.png'></img>	go	2050.0	1.0	10.0	go	target	T	71,Index Finger	89,Middle Finger	700.0	850.0	2050.0	1850.0	1.0	700.0	1.0	n/a	ITI
53304	500.0	n/a	-1	-1	500	0.0	fixation	poldrack-single-stim	219	595845	0.0-13.11-0.11	beast_fmri_test	276	595557,/	t	<div class = centerbox2><div class = fixation>+</div></div>	none	500.0	test	n/a	n/a	n/a	n/a	n/a	n/a	n/a	n/a	n/a	n/a	n/a	n/a	n/a	n/a	n/a	n/a	n/a	n/a	fixation
52460.388982963748	2750.0	n/a	1095	89	2750	845.611017036	stim	stop-signal	220	598597	0.0-13.11-1.11	beast_fmri_test	276	596236,/,596915,/,597597,/,598277,/,598956,/	t,t,t,t,t	<img class = center src='/static/experiments/beast_fmri_test/images/B.png'></img>	71,89	2750.0	test	<img class = center src='/static/experiments/beast_fmri_test/images/redB.png'></img>	go	1900.0	1.0	11.0	go	non-target	B	71,Index Finger	89,Middle Finger	700.0	850.0	2050.0	1900.0	1.0	850.0	1.0	n/a	go_stim
55210.388982963748	845.611017036	n/a	1095	89	2750	845.611017036	stim	stop-signal	220	598597	0.0-13.11-1.11	beast_fmri_test	276	596236,/,596915,/,597597,/,598277,/,598956,/	t,t,t,t,t	<img class = center src='/static/experiments/beast_fmri_test/images/B.png'></img>	71,89	2750.0	test	<img class = center src='/static/experiments/beast_fmri_test/images/redB.png'></img>	go	1900.0	1.0	11.0	go	non-target	B	71,Index Finger	89,Middle Finger	700.0	850.0	2050.0	1900.0	1.0	850.0	1.0	n/a	ITI
57428	500.0	n/a	-1	-1	500	0.0	fixation	poldrack-single-stim	221	599969	0.0-13.12-0.12	beast_fmri_test	276	599637,/	t	<div class = centerbox2><div class = fixation>+</div></div>	none	500.0	test	n/a	n/a	n/a	n/a	n/a	n/a	n/a	n/a	n/a	n/a	n/a	n/a	n/a	n/a	n/a	n/a	n/a	n/a	fixation
55823.508594155428	2750.0	n/a	702	89	2750	1607.49140584	stim	stop-signal	222	602722	0.0-13.12-1.12	beast_fmri_test	276	600316,/,600996,/,601675,/,602355,/,603036,/,603715,/	t,t,t,t,t,t	<img class = center src='/static/experiments/beast_fmri_test/images/P.png'></img>	71,89	2750.0	test	<img class = center src='/static/experiments/beast_fmri_test/images/redP.png'></img>	go	1900.0	1.0	12.0	go	non-target	P	71,Index Finger	89,Middle Finger	700.0	850.0	2050.0	1900.0	1.0	850.0	1.0	n/a	go_stim
58573.508594155428	1607.49140584	n/a	702	89	2750	1607.49140584	stim	stop-signal	222	602722	0.0-13.12-1.12	beast_fmri_test	276	600316,/,600996,/,601675,/,602355,/,603036,/,603715,/	t,t,t,t,t,t	<img class = center src='/static/experiments/beast_fmri_test/images/P.png'></img>	71,89	2750.0	test	<img class = center src='/static/experiments/beast_fmri_test/images/redP.png'></img>	go	1900.0	1.0	12.0	go	non-target	P	71,Index Finger	89,Middle Finger	700.0	850.0	2050.0	1900.0	1.0	850.0	1.0	n/a	ITI
62308	500.0	n/a	-1	-1	500	0.0	fixation	poldrack-single-stim	223	604849	0.0-13.13-0.13	beast_fmri_test	276	604392,/	t	<div class = centerbox2><div class = fixation>+</div></div>	none	500.0	test	n/a	n/a	n/a	n/a	n/a	n/a	n/a	n/a	n/a	n/a	n/a	n/a	n/a	n/a	n/a	n/a	n/a	n/a	fixation
62154.14312057069	2750.0	n/a	627	71	2750	156.856879429	stim	stop-signal	224	607602	0.0-13.13-1.13	beast_fmri_test	276	605071,/,605750,/,606431,/,607112,/	t,t,t,t	<img class = center src='/static/experiments/beast_fmri_test/images/P.png'></img>	71,89	2750.0	test	<img class = center src='/static/experiments/beast_fmri_test/images/redP.png'></img>	go	2050.0	1.0	13.0	go	target	P	71,Index Finger	89,Middle Finger	700.0	850.0	2050.0	1900.0	1.0	700.0	1.0	n/a	go_stim
64904.14312057069	156.856879429	n/a	627	71	2750	156.856879429	stim	stop-signal	224	607602	0.0-13.13-1.13	beast_fmri_test	276	605071,/,605750,/,606431,/,607112,/	t,t,t,t	<img class = center src='/static/experiments/beast_fmri_test/images/P.png'></img>	71,89	2750.0	test	<img class = center src='/static/experiments/beast_fmri_test/images/redP.png'></img>	go	2050.0	1.0	13.0	go	target	P	71,Index Finger	89,Middle Finger	700.0	850.0	2050.0	1900.0	1.0	700.0	1.0	n/a	ITI
65744	500.0	n/a	-1	-1	500	0.0	fixation	poldrack-single-stim	225	608285	0.0-13.14-0.14	beast_fmri_test	276	607791,/	t	<div class = centerbox2><div class = fixation>+</div></div>	none	500.0	test	n/a	n/a	n/a	n/a	n/a	n/a	n/a	n/a	n/a	n/a	n/a	n/a	n/a	n/a	n/a	n/a	n/a	n/a	fixation
64627.275660574785	700.0	n/a	1448	71	2750	1118.72433943	stim	stop-signal	226	611037	0.0-13.14-1.14	beast_fmri_test	276	608472,/,609152,/,609831,/,610510,/,611190,/,611872,/	t,t,t,t,t,t	<img class = center src='/static/experiments/beast_fmri_test/images/P.png'></img>	71,89	2750.0	test	<img class = center src='/static/experiments/beast_fmri_test/images/redP.png'></img>	stop	2050.0	1.0	14.0	stop	target	P	71,Index Finger	89,Middle Finger	700.0	850.0	2050.0	1900.0	0.0	700.0	n/a	0.0	go_stim
66677.275660574785	2050.0	n/a	1448	71	2750	1118.72433943	stim	stop-signal	226	611037	0.0-13.14-1.14	beast_fmri_test	276	608472,/,609152,/,609831,/,610510,/,611190,/,611872,/	t,t,t,t,t,t	<img class = center src='/static/experiments/beast_fmri_test/images/P.png'></img>	71,89	2750.0	test	<img class = center src='/static/experiments/beast_fmri_test/images/redP.png'></img>	stop	2050.0	1.0	14.0	stop	target	P	71,Index Finger	89,Middle Finger	700.0	850.0	2050.0	1900.0	0.0	700.0	n/a	0.0	stop_stim
67377.275660574785	1118.72433943	n/a	1448	71	2750	1118.72433943	stim	stop-signal	226	611037	0.0-13.14-1.14	beast_fmri_test	276	608472,/,609152,/,609831,/,610510,/,611190,/,611872,/	t,t,t,t,t,t	<img class = center src='/static/experiments/beast_fmri_test/images/P.png'></img>	71,89	2750.0	test	<img class = center src='/static/experiments/beast_fmri_test/images/redP.png'></img>	stop	2050.0	1.0	14.0	stop	target	P	71,Index Finger	89,Middle Finger	700.0	850.0	2050.0	1900.0	0.0	700.0	n/a	0.0	ITI
70138	500.0	n/a	-1	-1	500	0.0	fixation	poldrack-single-stim	227	612679	0.0-13.15-0.15	beast_fmri_test	276	612551,/	t	<div class = centerbox2><div class = fixation>+</div></div>	none	500.0	test	n/a	n/a	n/a	n/a	n/a	n/a	n/a	n/a	n/a	n/a	n/a	n/a	n/a	n/a	n/a	n/a	n/a	n/a	fixation
69329.37506437581	850.0	n/a	1673	89	2750	805.624935624	stim	stop-signal	228	615426	0.0-13.15-1.15	beast_fmri_test	276	613232,/,613912,/,614588,/,615266,/,615948,/	t,t,t,t,t	<img class = center src='/static/experiments/beast_fmri_test/images/V.png'></img>	71,89	2750.0	test	<img class = center src='/static/experiments/beast_fmri_test/images/redV.png'></img>	stop	1900.0	1.0	15.0	stop	non-target	V	71,Index Finger	89,Middle Finger	650.0	850.0	2050.0	1900.0	0.0	850.0	n/a	0.0	go_stim
71229.37506437581	1900.0	n/a	1673	89	2750	805.624935624	stim	stop-signal	228	615426	0.0-13.15-1.15	beast_fmri_test	276	613232,/,613912,/,614588,/,615266,/,615948,/	t,t,t,t,t	<img class = center src='/static/experiments/beast_fmri_test/images/V.png'></img>	71,89	2750.0	test	<img class = center src='/static/experiments/beast_fmri_test/images/redV.png'></img>	stop	1900.0	1.0	15.0	stop	non-target	V	71,Index Finger	89,Middle Finger	650.0	850.0	2050.0	1900.0	0.0	850.0	n/a	0.0	stop_stim
72079.37506437581	805.624935624	n/a	1673	89	2750	805.624935624	stim	stop-signal	228	615426	0.0-13.15-1.15	beast_fmri_test	276	613232,/,613912,/,614588,/,615266,/,615948,/	t,t,t,t,t	<img class = center src='/static/experiments/beast_fmri_test/images/V.png'></img>	71,89	2750.0	test	<img class = center src='/static/experiments/beast_fmri_test/images/redV.png'></img>	stop	1900.0	1.0	15.0	stop	non-target	V	71,Index Finger	89,Middle Finger	650.0	850.0	2050.0	1900.0	0.0	850.0	n/a	0.0	ITI
74217	500.0	n/a	-1	-1	500	0.0	fixation	poldrack-single-stim	229	616758	0.0-13.16-0.16	beast_fmri_test	276	616628,/	t	<div class = centerbox2><div class = fixation>+</div></div>	none	500.0	test	n/a	n/a	n/a	n/a	n/a	n/a	n/a	n/a	n/a	n/a	n/a	n/a	n/a	n/a	n/a	n/a	n/a	n/a	fixation
71623.047851232463	2750.0	n/a	1103	89	2750	2596.95214877	stim	stop-signal	230	619511	0.0-13.16-1.16	beast_fmri_test	276	617308,/,617987,/,618668,/,619347,/,620027,/,620708,/,621387,/,622068,/	t,t,t,t,t,t,t,t	<img class = center src='/static/experiments/beast_fmri_test/images/V.png'></img>	71,89	2750.0	test	<img class = center src='/static/experiments/beast_fmri_test/images/redV.png'></img>	go	2100.0	1.0	16.0	go	target	V	71,Index Finger	89,Middle Finger	650.0	800.0	2100.0	1900.0	0.0	650.0	0.0	n/a	go_stim
74373.047851232463	2596.95214877	n/a	1103	89	2750	2596.95214877	stim	stop-signal	230	619511	0.0-13.16-1.16	beast_fmri_test	276	617308,/,617987,/,618668,/,619347,/,620027,/,620708,/,621387,/,622068,/	t,t,t,t,t,t,t,t	<img class = center src='/static/experiments/beast_fmri_test/images/V.png'></img>	71,89	2750.0	test	<img class = center src='/static/experiments/beast_fmri_test/images/redV.png'></img>	go	2100.0	1.0	16.0	go	target	V	71,Index Finger	89,Middle Finger	650.0	800.0	2100.0	1900.0	0.0	650.0	0.0	n/a	ITI
80096	500.0	n/a	-1	-1	500	0.0	fixation	poldrack-single-stim	231	622637	0.0-13.17-0.17	beast_fmri_test	276	n/a	n/a	<div class = centerbox2><div class = fixation>+</div></div>	none	500.0	test	n/a	n/a	n/a	n/a	n/a	n/a	n/a	n/a	n/a	n/a	n/a	n/a	n/a	n/a	n/a	n/a	n/a	n/a	fixation
79478.11162906501	800.0	n/a	894	89	2750	620.888370935	stim	stop-signal	232	625390	0.0-13.17-1.17	beast_fmri_test	276	622748,/,623427,/,624107,/,624787,/,625468,/	t,t,t,t,t	<img class = center src='/static/experiments/beast_fmri_test/images/B.png'></img>	71,89	2750.0	test	<img class = center src='/static/experiments/beast_fmri_test/images/redB.png'></img>	stop	1950.0	1.0	17.0	stop	non-target	B	71,Index Finger	89,Middle Finger	650.0	800.0	2100.0	1950.0	0.0	800.0	n/a	0.0	go_stim
81428.11162906501	1950.0	n/a	894	89	2750	620.888370935	stim	stop-signal	232	625390	0.0-13.17-1.17	beast_fmri_test	276	622748,/,623427,/,624107,/,624787,/,625468,/	t,t,t,t,t	<img class = center src='/static/experiments/beast_fmri_test/images/B.png'></img>	71,89	2750.0	test	<img class = center src='/static/experiments/beast_fmri_test/images/redB.png'></img>	stop	1950.0	1.0	17.0	stop	non-target	B	71,Index Finger	89,Middle Finger	650.0	800.0	2100.0	1950.0	0.0	800.0	n/a	0.0	stop_stim
82228.11162906501	620.888370935	n/a	894	89	2750	620.888370935	stim	stop-signal	232	625390	0.0-13.17-1.17	beast_fmri_test	276	622748,/,623427,/,624107,/,624787,/,625468,/	t,t,t,t,t	<img class = center src='/static/experiments/beast_fmri_test/images/B.png'></img>	71,89	2750.0	test	<img class = center src='/static/experiments/beast_fmri_test/images/redB.png'></img>	stop	1950.0	1.0	17.0	stop	non-target	B	71,Index Finger	89,Middle Finger	650.0	800.0	2100.0	1950.0	0.0	800.0	n/a	0.0	ITI
83996	500.0	n/a	-1	-1	500	0.0	fixation	poldrack-single-stim	233	626537	0.0-13.18-0.18	beast_fmri_test	276	626147,/	t	<div class = centerbox2><div class = fixation>+</div></div>	none	500.0	test	n/a	n/a	n/a	n/a	n/a	n/a	n/a	n/a	n/a	n/a	n/a	n/a	n/a	n/a	n/a	n/a	n/a	n/a	fixation
83254.540262594935	2750.0	n/a	508	71	2750	743.459737405	stim	stop-signal	234	629289	0.0-13.18-1.18	beast_fmri_test	276	626828,/,627507,/,628186,/,628867,/,629547,/	t,t,t,t,t	<img class = center src='/static/experiments/beast_fmri_test/images/B.png'></img>	71,89	2750.0	test	<img class = center src='/static/experiments/beast_fmri_test/images/redB.png'></img>	go	2100.0	1.0	18.0	go	target	B	71,Index Finger	89,Middle Finger	650.0	750.0	2100.0	1950.0	1.0	650.0	1.0	n/a	go_stim
86004.540262594935	743.459737405	n/a	508	71	2750	743.459737405	stim	stop-signal	234	629289	0.0-13.18-1.18	beast_fmri_test	276	626828,/,627507,/,628186,/,628867,/,629547,/	t,t,t,t,t	<img class = center src='/static/experiments/beast_fmri_test/images/B.png'></img>	71,89	2750.0	test	<img class = center src='/static/experiments/beast_fmri_test/images/redB.png'></img>	go	2100.0	1.0	18.0	go	target	B	71,Index Finger	89,Middle Finger	650.0	750.0	2100.0	1950.0	1.0	650.0	1.0	n/a	ITI
88020	500.0	n/a	-1	-1	500	0.0	fixation	poldrack-single-stim	235	630561	0.0-13.19-0.19	beast_fmri_test	276	630228,/	t	<div class = centerbox2><div class = fixation>+</div></div>	none	500.0	test	n/a	n/a	n/a	n/a	n/a	n/a	n/a	n/a	n/a	n/a	n/a	n/a	n/a	n/a	n/a	n/a	n/a	n/a	fixation
87750.394221981638	650.0	n/a	849	71	2750	272.605778018	stim	stop-signal	236	633314	0.0-13.19-1.19	beast_fmri_test	276	630907,/,631588,/,632267,/,632948,/	t,t,t,t	<img class = center src='/static/experiments/beast_fmri_test/images/B.png'></img>	71,89	2750.0	test	<img class = center src='/static/experiments/beast_fmri_test/images/redB.png'></img>	stop	2100.0	1.0	19.0	stop	target	B	71,Index Finger	89,Middle Finger	650.0	750.0	2100.0	1950.0	0.0	650.0	n/a	0.0	go_stim
89850.394221981638	2100.0	n/a	849	71	2750	272.605778018	stim	stop-signal	236	633314	0.0-13.19-1.19	beast_fmri_test	276	630907,/,631588,/,632267,/,632948,/	t,t,t,t	<img class = center src='/static/experiments/beast_fmri_test/images/B.png'></img>	71,89	2750.0	test	<img class = center src='/static/experiments/beast_fmri_test/images/redB.png'></img>	stop	2100.0	1.0	19.0	stop	target	B	71,Index Finger	89,Middle Finger	650.0	750.0	2100.0	1950.0	0.0	650.0	n/a	0.0	stop_stim
90500.394221981638	272.605778018	n/a	849	71	2750	272.605778018	stim	stop-signal	236	633314	0.0-13.19-1.19	beast_fmri_test	276	630907,/,631588,/,632267,/,632948,/	t,t,t,t	<img class = center src='/static/experiments/beast_fmri_test/images/B.png'></img>	71,89	2750.0	test	<img class = center src='/static/experiments/beast_fmri_test/images/redB.png'></img>	stop	2100.0	1.0	19.0	stop	target	B	71,Index Finger	89,Middle Finger	650.0	750.0	2100.0	1950.0	0.0	650.0	n/a	0.0	ITI
91572	500.0	n/a	-1	-1	500	0.0	fixation	poldrack-single-stim	237	634113	0.0-13.20-0.20	beast_fmri_test	276	633626,/	t	<div class = centerbox2><div class = fixation>+</div></div>	none	500.0	test	n/a	n/a	n/a	n/a	n/a	n/a	n/a	n/a	n/a	n/a	n/a	n/a	n/a	n/a	n/a	n/a	n/a	n/a	fixation
91352.124581227195	2750.0	n/a	589	89	2750	221.875418773	stim	stop-signal	238	636865	0.0-13.20-1.20	beast_fmri_test	276	634303,/,634982,/,635663,/,636343,/,637023,/	t,t,t,t,t	<img class = center src='/static/experiments/beast_fmri_test/images/T.png'></img>	71,89	2750.0	test	<img class = center src='/static/experiments/beast_fmri_test/images/redT.png'></img>	go	2000.0	1.0	20.0	go	non-target	T	71,Index Finger	89,Middle Finger	600.0	750.0	2100.0	2000.0	1.0	750.0	1.0	n/a	go_stim
94102.124581227195	221.875418773	n/a	589	89	2750	221.875418773	stim	stop-signal	238	636865	0.0-13.20-1.20	beast_fmri_test	276	634303,/,634982,/,635663,/,636343,/,637023,/	t,t,t,t,t	<img class = center src='/static/experiments/beast_fmri_test/images/T.png'></img>	71,89	2750.0	test	<img class = center src='/static/experiments/beast_fmri_test/images/redT.png'></img>	go	2000.0	1.0	20.0	go	non-target	T	71,Index Finger	89,Middle Finger	600.0	750.0	2100.0	2000.0	1.0	750.0	1.0	n/a	ITI
95076	500.0	n/a	-1	-1	500	0.0	fixation	poldrack-single-stim	239	637617	0.0-13.21-0.21	beast_fmri_test	276	n/a	n/a	<div class = centerbox2><div class = fixation>+</div></div>	none	500.0	test	n/a	n/a	n/a	n/a	n/a	n/a	n/a	n/a	n/a	n/a	n/a	n/a	n/a	n/a	n/a	n/a	n/a	n/a	fixation
94824.219047619845	2750.0	n/a	872	71	2750	254.78095238	stim	stop-signal	240	640370	0.0-13.21-1.21	beast_fmri_test	276	637703,/,638382,/,639064,/,639742,/,640423,/	t,t,t,t,t	<img class = center src='/static/experiments/beast_fmri_test/images/P.png'></img>	71,89	2750.0	test	<img class = center src='/static/experiments/beast_fmri_test/images/redP.png'></img>	go	2000.0	1.0	21.0	go	non-target	P	71,Index Finger	89,Middle Finger	600.0	750.0	2100.0	2000.0	0.0	750.0	0.0	n/a	go_stim
97574.219047619845	254.78095238	n/a	872	71	2750	254.78095238	stim	stop-signal	240	640370	0.0-13.21-1.21	beast_fmri_test	276	637703,/,638382,/,639064,/,639742,/,640423,/	t,t,t,t,t	<img class = center src='/static/experiments/beast_fmri_test/images/P.png'></img>	71,89	2750.0	test	<img class = center src='/static/experiments/beast_fmri_test/images/redP.png'></img>	go	2000.0	1.0	21.0	go	non-target	P	71,Index Finger	89,Middle Finger	600.0	750.0	2100.0	2000.0	0.0	750.0	0.0	n/a	ITI
98612	500.0	n/a	-1	-1	500	0.0	fixation	poldrack-single-stim	241	641153	0.0-13.22-0.22	beast_fmri_test	276	641103,/	t	<div class = centerbox2><div class = fixation>+</div></div>	none	500.0	test	n/a	n/a	n/a	n/a	n/a	n/a	n/a	n/a	n/a	n/a	n/a	n/a	n/a	n/a	n/a	n/a	n/a	n/a	fixation
98579.070323352236	2750.0	n/a	842	89	2750	34.9296766478	stim	stop-signal	242	643905	0.0-13.22-1.22	beast_fmri_test	276	641782,/,642462,/,643142,/,643821,/	t,t,t,t	<img class = center src='/static/experiments/beast_fmri_test/images/T.png'></img>	71,89	2750.0	test	<img class = center src='/static/experiments/beast_fmri_test/images/redT.png'></img>	go	2000.0	1.0	22.0	go	non-target	T	71,Index Finger	89,Middle Finger	600.0	750.0	2100.0	2000.0	1.0	750.0	1.0	n/a	go_stim
101329.07032335224	34.9296766478	n/a	842	89	2750	34.9296766478	stim	stop-signal	242	643905	0.0-13.22-1.22	beast_fmri_test	276	641782,/,642462,/,643142,/,643821,/	t,t,t,t	<img class = center src='/static/experiments/beast_fmri_test/images/T.png'></img>	71,89	2750.0	test	<img class = center src='/static/experiments/beast_fmri_test/images/redT.png'></img>	go	2000.0	1.0	22.0	go	non-target	T	71,Index Finger	89,Middle Finger	600.0	750.0	2100.0	2000.0	1.0	750.0	1.0	n/a	ITI
101925	500.0	n/a	-1	-1	500	0.0	fixation	poldrack-single-stim	243	644466	0.0-13.23-0.23	beast_fmri_test	276	n/a	n/a	<div class = centerbox2><div class = fixation>+</div></div>	none	500.0	test	n/a	n/a	n/a	n/a	n/a	n/a	n/a	n/a	n/a	n/a	n/a	n/a	n/a	n/a	n/a	n/a	n/a	n/a	fixation
100502.00969760574	600.0	n/a	1214	71	2750	1423.99030239	stim	stop-signal	244	647217	0.0-13.23-1.23	beast_fmri_test	276	644500,/,645179,/,645859,/,646539,/,647219,/,647897,/,648578,/	t,t,t,t,t,t,t	<img class = center src='/static/experiments/beast_fmri_test/images/T.png'></img>	71,89	2750.0	test	<img class = center src='/static/experiments/beast_fmri_test/images/redT.png'></img>	stop	2150.0	1.0	23.0	stop	target	T	71,Index Finger	89,Middle Finger	600.0	750.0	2150.0	2000.0	0.0	600.0	n/a	0.0	go_stim
102652.00969760574	2150.0	n/a	1214	71	2750	1423.99030239	stim	stop-signal	244	647217	0.0-13.23-1.23	beast_fmri_test	276	644500,/,645179,/,645859,/,646539,/,647219,/,647897,/,648578,/	t,t,t,t,t,t,t	<img class = center src='/static/experiments/beast_fmri_test/images/T.png'></img>	71,89	2750.0	test	<img class = center src='/static/experiments/beast_fmri_test/images/redT.png'></img>	stop	2150.0	1.0	23.0	stop	target	T	71,Index Finger	89,Middle Finger	600.0	750.0	2150.0	2000.0	0.0	600.0	n/a	0.0	stop_stim
103252.00969760574	1423.99030239	n/a	1214	71	2750	1423.99030239	stim	stop-signal	244	647217	0.0-13.23-1.23	beast_fmri_test	276	644500,/,645179,/,645859,/,646539,/,647219,/,647897,/,648578,/	t,t,t,t,t,t,t	<img class = center src='/static/experiments/beast_fmri_test/images/T.png'></img>	71,89	2750.0	test	<img class = center src='/static/experiments/beast_fmri_test/images/redT.png'></img>	stop	2150.0	1.0	23.0	stop	target	T	71,Index Finger	89,Middle Finger	600.0	750.0	2150.0	2000.0	0.0	600.0	n/a	0.0	ITI
106632	500.0	n/a	-1	-1	500	0.0	fixation	poldrack-single-stim	245	649173	0.0-13.24-0.24	beast_fmri_test	276	n/a	n/a	<div class = centerbox2><div class = fixation>+</div></div>	none	500.0	test	n/a	n/a	n/a	n/a	n/a	n/a	n/a	n/a	n/a	n/a	n/a	n/a	n/a	n/a	n/a	n/a	n/a	n/a	fixation
106372.00106806669	2750.0	n/a	559	71	2750	260.998931933	stim	stop-signal	246	651924	0.0-13.24-1.24	beast_fmri_test	276	649258,/,649939,/,650619,/,651299,/,651979,/	t,t,t,t,t	<img class = center src='/static/experiments/beast_fmri_test/images/T.png'></img>	71,89	2750.0	test	<img class = center src='/static/experiments/beast_fmri_test/images/redT.png'></img>	go	2200.0	1.0	24.0	go	target	T	71,Index Finger	89,Middle Finger	550.0	750.0	2200.0	2000.0	1.0	550.0	1.0	n/a	go_stim
109122.00106806669	260.998931933	n/a	559	71	2750	260.998931933	stim	stop-signal	246	651924	0.0-13.24-1.24	beast_fmri_test	276	649258,/,649939,/,650619,/,651299,/,651979,/	t,t,t,t,t	<img class = center src='/static/experiments/beast_fmri_test/images/T.png'></img>	71,89	2750.0	test	<img class = center src='/static/experiments/beast_fmri_test/images/redT.png'></img>	go	2200.0	1.0	24.0	go	target	T	71,Index Finger	89,Middle Finger	550.0	750.0	2200.0	2000.0	1.0	550.0	1.0	n/a	ITI
110173	500.0	n/a	-1	-1	500	0.0	fixation	poldrack-single-stim	247	652714	0.0-13.25-0.25	beast_fmri_test	276	652659,/	t	<div class = centerbox2><div class = fixation>+</div></div>	none	500.0	test	n/a	n/a	n/a	n/a	n/a	n/a	n/a	n/a	n/a	n/a	n/a	n/a	n/a	n/a	n/a	n/a	n/a	n/a	fixation
108770.72752744961	2750.0	n/a	564	89	2750	1400.27247255	stim	stop-signal	248	655462	0.0-13.25-1.25	beast_fmri_test	276	653338,/,654016,/,654694,/,655373,/,656054,/,656733,/	t,t,t,t,t,t	<img class = center src='/static/experiments/beast_fmri_test/images/B.png'></img>	71,89	2750.0	test	<img class = center src='/static/experiments/beast_fmri_test/images/redB.png'></img>	go	2000.0	1.0	25.0	go	non-target	B	71,Index Finger	89,Middle Finger	550.0	750.0	2200.0	2000.0	1.0	750.0	1.0	n/a	go_stim
111520.72752744961	1400.27247255	n/a	564	89	2750	1400.27247255	stim	stop-signal	248	655462	0.0-13.25-1.25	beast_fmri_test	276	653338,/,654016,/,654694,/,655373,/,656054,/,656733,/	t,t,t,t,t,t	<img class = center src='/static/experiments/beast_fmri_test/images/B.png'></img>	71,89	2750.0	test	<img class = center src='/static/experiments/beast_fmri_test/images/redB.png'></img>	go	2000.0	1.0	25.0	go	non-target	B	71,Index Finger	89,Middle Finger	550.0	750.0	2200.0	2000.0	1.0	750.0	1.0	n/a	ITI
114847	500.0	n/a	-1	-1	500	0.0	fixation	poldrack-single-stim	249	657388	0.0-13.26-0.26	beast_fmri_test	276	n/a	n/a	<div class = centerbox2><div class = fixation>+</div></div>	none	500.0	test	n/a	n/a	n/a	n/a	n/a	n/a	n/a	n/a	n/a	n/a	n/a	n/a	n/a	n/a	n/a	n/a	n/a	n/a	fixation
113661.56509722478	2750.0	n/a	581	89	2750	1186.43490278	stim	stop-signal	250	660139	0.0-13.26-1.26	beast_fmri_test	276	657413,/,658093,/,658774,/,659454,/,660133,/,660814,/	t,t,t,t,t,t	<img class = center src='/static/experiments/beast_fmri_test/images/T.png'></img>	71,89	2750.0	test	<img class = center src='/static/experiments/beast_fmri_test/images/redT.png'></img>	go	2000.0	1.0	26.0	go	non-target	T	71,Index Finger	89,Middle Finger	550.0	750.0	2200.0	2000.0	1.0	750.0	1.0	n/a	go_stim
116411.56509722478	1186.43490278	n/a	581	89	2750	1186.43490278	stim	stop-signal	250	660139	0.0-13.26-1.26	beast_fmri_test	276	657413,/,658093,/,658774,/,659454,/,660133,/,660814,/	t,t,t,t,t,t	<img class = center src='/static/experiments/beast_fmri_test/images/T.png'></img>	71,89	2750.0	test	<img class = center src='/static/experiments/beast_fmri_test/images/redT.png'></img>	go	2000.0	1.0	26.0	go	non-target	T	71,Index Finger	89,Middle Finger	550.0	750.0	2200.0	2000.0	1.0	750.0	1.0	n/a	ITI
119313	500.0	n/a	-1	-1	500	0.0	fixation	poldrack-single-stim	251	661854	0.0-13.27-0.27	beast_fmri_test	276	661492,/	t	<div class = centerbox2><div class = fixation>+</div></div>	none	500.0	test	n/a	n/a	n/a	n/a	n/a	n/a	n/a	n/a	n/a	n/a	n/a	n/a	n/a	n/a	n/a	n/a	n/a	n/a	fixation
119020.46758253966	550.0	n/a	395	71	2750	290.53241746	stim	stop-signal	252	664602	0.0-13.27-1.27	beast_fmri_test	276	662174,/,662853,/,663534,/,664211,/,664889,/	t,t,t,t,t	<img class = center src='/static/experiments/beast_fmri_test/images/T.png'></img>	71,89	2750.0	test	<img class = center src='/static/experiments/beast_fmri_test/images/redT.png'></img>	stop	2200.0	1.0	27.0	stop	target	T	71,Index Finger	89,Middle Finger	550.0	750.0	2200.0	2000.0	0.0	550.0	n/a	0.0	go_stim
121220.46758253966	2200.0	n/a	395	71	2750	290.53241746	stim	stop-signal	252	664602	0.0-13.27-1.27	beast_fmri_test	276	662174,/,662853,/,663534,/,664211,/,664889,/	t,t,t,t,t	<img class = center src='/static/experiments/beast_fmri_test/images/T.png'></img>	71,89	2750.0	test	<img class = center src='/static/experiments/beast_fmri_test/images/redT.png'></img>	stop	2200.0	1.0	27.0	stop	target	T	71,Index Finger	89,Middle Finger	550.0	750.0	2200.0	2000.0	0.0	550.0	n/a	0.0	stop_stim
121770.46758253966	290.53241746	n/a	395	71	2750	290.53241746	stim	stop-signal	252	664602	0.0-13.27-1.27	beast_fmri_test	276	662174,/,662853,/,663534,/,664211,/,664889,/	t,t,t,t,t	<img class = center src='/static/experiments/beast_fmri_test/images/T.png'></img>	71,89	2750.0	test	<img class = center src='/static/experiments/beast_fmri_test/images/redT.png'></img>	stop	2200.0	1.0	27.0	stop	target	T	71,Index Finger	89,Middle Finger	550.0	750.0	2200.0	2000.0	0.0	550.0	n/a	0.0	ITI
122879	500.0	n/a	-1	-1	500	0.0	fixation	poldrack-single-stim	253	665420	0.0-13.28-0.28	beast_fmri_test	276	n/a	n/a	<div class = centerbox2><div class = fixation>+</div></div>	none	500.0	test	n/a	n/a	n/a	n/a	n/a	n/a	n/a	n/a	n/a	n/a	n/a	n/a	n/a	n/a	n/a	n/a	n/a	n/a	fixation
120190.07909431716	2750.0	n/a	571	71	2750	2691.92090568	stim	stop-signal	254	668173	0.0-13.28-1.28	beast_fmri_test	276	665569,/,666249,/,666928,/,667608,/,668289,/,668969,/,669649,/,670329,/	t,t,t,t,t,t,t,t	<img class = center src='/static/experiments/beast_fmri_test/images/T.png'></img>	71,89	2750.0	test	<img class = center src='/static/experiments/beast_fmri_test/images/redT.png'></img>	go	2250.0	1.0	28.0	go	target	T	71,Index Finger	89,Middle Finger	500.0	750.0	2250.0	2000.0	1.0	500.0	1.0	n/a	go_stim
122940.07909431716	2691.92090568	n/a	571	71	2750	2691.92090568	stim	stop-signal	254	668173	0.0-13.28-1.28	beast_fmri_test	276	665569,/,666249,/,666928,/,667608,/,668289,/,668969,/,669649,/,670329,/	t,t,t,t,t,t,t,t	<img class = center src='/static/experiments/beast_fmri_test/images/T.png'></img>	71,89	2750.0	test	<img class = center src='/static/experiments/beast_fmri_test/images/redT.png'></img>	go	2250.0	1.0	28.0	go	target	T	71,Index Finger	89,Middle Finger	500.0	750.0	2250.0	2000.0	1.0	500.0	1.0	n/a	ITI
128850	500.0	n/a	-1	-1	500	0.0	fixation	poldrack-single-stim	255	671391	0.0-13.29-0.29	beast_fmri_test	276	671008,/	t	<div class = centerbox2><div class = fixation>+</div></div>	none	500.0	test	n/a	n/a	n/a	n/a	n/a	n/a	n/a	n/a	n/a	n/a	n/a	n/a	n/a	n/a	n/a	n/a	n/a	n/a	fixation
127216.87676163751	2750.0	n/a	622	89	2750	1632.12323836	stim	stop-signal	256	674140	0.0-13.29-1.29	beast_fmri_test	276	671689,/,672369,/,673050,/,673729,/,674406,/,675085,/,675764,/	t,t,t,t,t,t,t	<img class = center src='/static/experiments/beast_fmri_test/images/V.png'></img>	71,89	2750.0	test	<img class = center src='/static/experiments/beast_fmri_test/images/redV.png'></img>	go	2000.0	1.0	29.0	go	non-target	V	71,Index Finger	89,Middle Finger	500.0	750.0	2250.0	2000.0	1.0	750.0	1.0	n/a	go_stim
129966.87676163751	1632.12323836	n/a	622	89	2750	1632.12323836	stim	stop-signal	256	674140	0.0-13.29-1.29	beast_fmri_test	276	671689,/,672369,/,673050,/,673729,/,674406,/,675085,/,675764,/	t,t,t,t,t,t,t	<img class = center src='/static/experiments/beast_fmri_test/images/V.png'></img>	71,89	2750.0	test	<img class = center src='/static/experiments/beast_fmri_test/images/redV.png'></img>	go	2000.0	1.0	29.0	go	non-target	V	71,Index Finger	89,Middle Finger	500.0	750.0	2250.0	2000.0	1.0	750.0	1.0	n/a	ITI
133760	500.0	n/a	-1	-1	500	0.0	fixation	poldrack-single-stim	257	676301	0.0-13.30-0.30	beast_fmri_test	276	n/a	n/a	<div class = centerbox2><div class = fixation>+</div></div>	none	500.0	test	n/a	n/a	n/a	n/a	n/a	n/a	n/a	n/a	n/a	n/a	n/a	n/a	n/a	n/a	n/a	n/a	n/a	n/a	fixation
132707.20536247676	750.0	n/a	522	89	2750	1054.79463752	stim	stop-signal	258	679053	0.0-13.30-1.30	beast_fmri_test	276	676444,/,677125,/,677804,/,678484,/,679165,/,679844,/	t,t,t,t,t,t	<img class = center src='/static/experiments/beast_fmri_test/images/P.png'></img>	71,89	2750.0	test	<img class = center src='/static/experiments/beast_fmri_test/images/redP.png'></img>	stop	2000.0	1.0	30.0	stop	non-target	P	71,Index Finger	89,Middle Finger	500.0	750.0	2250.0	2000.0	0.0	750.0	n/a	0.0	go_stim
134707.20536247676	2000.0	n/a	522	89	2750	1054.79463752	stim	stop-signal	258	679053	0.0-13.30-1.30	beast_fmri_test	276	676444,/,677125,/,677804,/,678484,/,679165,/,679844,/	t,t,t,t,t,t	<img class = center src='/static/experiments/beast_fmri_test/images/P.png'></img>	71,89	2750.0	test	<img class = center src='/static/experiments/beast_fmri_test/images/redP.png'></img>	stop	2000.0	1.0	30.0	stop	non-target	P	71,Index Finger	89,Middle Finger	500.0	750.0	2250.0	2000.0	0.0	750.0	n/a	0.0	stop_stim
135457.20536247676	1054.79463752	n/a	522	89	2750	1054.79463752	stim	stop-signal	258	679053	0.0-13.30-1.30	beast_fmri_test	276	676444,/,677125,/,677804,/,678484,/,679165,/,679844,/	t,t,t,t,t,t	<img class = center src='/static/experiments/beast_fmri_test/images/P.png'></img>	71,89	2750.0	test	<img class = center src='/static/experiments/beast_fmri_test/images/redP.png'></img>	stop	2000.0	1.0	30.0	stop	non-target	P	71,Index Finger	89,Middle Finger	500.0	750.0	2250.0	2000.0	0.0	750.0	n/a	0.0	ITI
138097	500.0	n/a	-1	-1	500	0.0	fixation	poldrack-single-stim	259	680638	0.0-13.31-0.31	beast_fmri_test	276	680524,/	t	<div class = centerbox2><div class = fixation>+</div></div>	none	500.0	test	n/a	n/a	n/a	n/a	n/a	n/a	n/a	n/a	n/a	n/a	n/a	n/a	n/a	n/a	n/a	n/a	n/a	n/a	fixation
137111.76680119953	2750.0	n/a	684	89	2750	987.2331988	stim	stop-signal	260	683390	0.0-13.31-1.31	beast_fmri_test	276	681204,/,681885,/,682565,/,683245,/,683925,/	t,t,t,t,t	<img class = center src='/static/experiments/beast_fmri_test/images/B.png'></img>	71,89	2750.0	test	<img class = center src='/static/experiments/beast_fmri_test/images/redB.png'></img>	go	2050.0	1.0	31.0	go	non-target	B	71,Index Finger	89,Middle Finger	500.0	700.0	2250.0	2050.0	1.0	700.0	1.0	n/a	go_stim
139861.76680119953	987.2331988	n/a	684	89	2750	987.2331988	stim	stop-signal	260	683390	0.0-13.31-1.31	beast_fmri_test	276	681204,/,681885,/,682565,/,683245,/,683925,/	t,t,t,t,t	<img class = center src='/static/experiments/beast_fmri_test/images/B.png'></img>	71,89	2750.0	test	<img class = center src='/static/experiments/beast_fmri_test/images/redB.png'></img>	go	2050.0	1.0	31.0	go	non-target	B	71,Index Finger	89,Middle Finger	500.0	700.0	2250.0	2050.0	1.0	700.0	1.0	n/a	ITI
142368	500.0	n/a	-1	-1	500	0.0	fixation	poldrack-single-stim	261	684909	0.0-13.32-0.32	beast_fmri_test	276	684605,/	t	<div class = centerbox2><div class = fixation>+</div></div>	none	500.0	test	n/a	n/a	n/a	n/a	n/a	n/a	n/a	n/a	n/a	n/a	n/a	n/a	n/a	n/a	n/a	n/a	n/a	n/a	fixation
141163.728288693	700.0	n/a	571	89	2750	1207.27171131	stim	stop-signal	262	687662	0.0-13.32-1.32	beast_fmri_test	276	685285,/,685964,/,686645,/,687325,/,688005,/,688685,/	t,t,t,t,t,t	<img class = center src='/static/experiments/beast_fmri_test/images/P.png'></img>	71,89	2750.0	test	<img class = center src='/static/experiments/beast_fmri_test/images/redP.png'></img>	stop	2050.0	1.0	32.0	stop	non-target	P	71,Index Finger	89,Middle Finger	500.0	700.0	2250.0	2050.0	0.0	700.0	n/a	0.0	go_stim
143213.728288693	2050.0	n/a	571	89	2750	1207.27171131	stim	stop-signal	262	687662	0.0-13.32-1.32	beast_fmri_test	276	685285,/,685964,/,686645,/,687325,/,688005,/,688685,/	t,t,t,t,t,t	<img class = center src='/static/experiments/beast_fmri_test/images/P.png'></img>	71,89	2750.0	test	<img class = center src='/static/experiments/beast_fmri_test/images/redP.png'></img>	stop	2050.0	1.0	32.0	stop	non-target	P	71,Index Finger	89,Middle Finger	500.0	700.0	2250.0	2050.0	0.0	700.0	n/a	0.0	stop_stim
143913.728288693	1207.27171131	n/a	571	89	2750	1207.27171131	stim	stop-signal	262	687662	0.0-13.32-1.32	beast_fmri_test	276	685285,/,685964,/,686645,/,687325,/,688005,/,688685,/	t,t,t,t,t,t	<img class = center src='/static/experiments/beast_fmri_test/images/P.png'></img>	71,89	2750.0	test	<img class = center src='/static/experiments/beast_fmri_test/images/redP.png'></img>	stop	2050.0	1.0	32.0	stop	non-target	P	71,Index Finger	89,Middle Finger	500.0	700.0	2250.0	2050.0	0.0	700.0	n/a	0.0	ITI
146860	500.0	n/a	-1	-1	500	0.0	fixation	poldrack-single-stim	263	689401	0.0-13.33-0.33	beast_fmri_test	276	689365,/	t	<div class = centerbox2><div class = fixation>+</div></div>	none	500.0	test	n/a	n/a	n/a	n/a	n/a	n/a	n/a	n/a	n/a	n/a	n/a	n/a	n/a	n/a	n/a	n/a	n/a	n/a	fixation
145697.9725471118	2750.0	n/a	1419	89	2750	1166.02745289	stim	stop-signal	264	692155	0.0-13.33-1.33	beast_fmri_test	276	690044,/,690724,/,691403,/,692084,/,692765,/	t,t,t,t,t	<img class = center src='/static/experiments/beast_fmri_test/images/B.png'></img>	71,89	2750.0	test	<img class = center src='/static/experiments/beast_fmri_test/images/redB.png'></img>	go	2100.0	1.0	33.0	go	non-target	B	71,Index Finger	89,Middle Finger	500.0	650.0	2250.0	2100.0	1.0	650.0	1.0	n/a	go_stim
148447.9725471118	1166.02745289	n/a	1419	89	2750	1166.02745289	stim	stop-signal	264	692155	0.0-13.33-1.33	beast_fmri_test	276	690044,/,690724,/,691403,/,692084,/,692765,/	t,t,t,t,t	<img class = center src='/static/experiments/beast_fmri_test/images/B.png'></img>	71,89	2750.0	test	<img class = center src='/static/experiments/beast_fmri_test/images/redB.png'></img>	go	2100.0	1.0	33.0	go	non-target	B	71,Index Finger	89,Middle Finger	500.0	650.0	2250.0	2100.0	1.0	650.0	1.0	n/a	ITI
151307	500.0	n/a	-1	-1	500	0.0	fixation	poldrack-single-stim	265	693848	0.0-13.34-0.34	beast_fmri_test	276	693444,/	t	<div class = centerbox2><div class = fixation>+</div></div>	none	500.0	test	n/a	n/a	n/a	n/a	n/a	n/a	n/a	n/a	n/a	n/a	n/a	n/a	n/a	n/a	n/a	n/a	n/a	n/a	fixation
150321.99569655559	2750.0	n/a	887	89	2750	984.004303444	stim	stop-signal	266	696597	0.0-13.34-1.34	beast_fmri_test	276	694123,/,694798,/,695479,/,696158,/,696840,/,697519,/	t,t,t,t,t,t	<img class = center src='/static/experiments/beast_fmri_test/images/P.png'></img>	71,89	2750.0	test	<img class = center src='/static/experiments/beast_fmri_test/images/redP.png'></img>	go	2100.0	1.0	34.0	go	non-target	P	71,Index Finger	89,Middle Finger	500.0	650.0	2250.0	2100.0	1.0	650.0	1.0	n/a	go_stim
153071.99569655559	984.004303444	n/a	887	89	2750	984.004303444	stim	stop-signal	266	696597	0.0-13.34-1.34	beast_fmri_test	276	694123,/,694798,/,695479,/,696158,/,696840,/,697519,/	t,t,t,t,t,t	<img class = center src='/static/experiments/beast_fmri_test/images/P.png'></img>	71,89	2750.0	test	<img class = center src='/static/experiments/beast_fmri_test/images/redP.png'></img>	go	2100.0	1.0	34.0	go	non-target	P	71,Index Finger	89,Middle Finger	500.0	650.0	2250.0	2100.0	1.0	650.0	1.0	n/a	ITI
155571	500.0	n/a	-1	-1	500	0.0	fixation	poldrack-single-stim	267	698112	0.0-13.35-0.35	beast_fmri_test	276	n/a	n/a	<div class = centerbox2><div class = fixation>+</div></div>	none	500.0	test	n/a	n/a	n/a	n/a	n/a	n/a	n/a	n/a	n/a	n/a	n/a	n/a	n/a	n/a	n/a	n/a	n/a	n/a	fixation
153822.11672629649	650.0	n/a	1048	89	2750	1751.8832737	stim	stop-signal	268	700865	0.0-13.35-1.35	beast_fmri_test	276	698199,/,698881,/,699560,/,700241,/,700921,/,701601,/,702281,/	t,t,t,t,t,t,t	<img class = center src='/static/experiments/beast_fmri_test/images/T.png'></img>	71,89	2750.0	test	<img class = center src='/static/experiments/beast_fmri_test/images/redT.png'></img>	stop	2100.0	1.0	35.0	stop	non-target	T	71,Index Finger	89,Middle Finger	500.0	650.0	2250.0	2100.0	0.0	650.0	n/a	0.0	go_stim
155922.11672629649	2100.0	n/a	1048	89	2750	1751.8832737	stim	stop-signal	268	700865	0.0-13.35-1.35	beast_fmri_test	276	698199,/,698881,/,699560,/,700241,/,700921,/,701601,/,702281,/	t,t,t,t,t,t,t	<img class = center src='/static/experiments/beast_fmri_test/images/T.png'></img>	71,89	2750.0	test	<img class = center src='/static/experiments/beast_fmri_test/images/redT.png'></img>	stop	2100.0	1.0	35.0	stop	non-target	T	71,Index Finger	89,Middle Finger	500.0	650.0	2250.0	2100.0	0.0	650.0	n/a	0.0	stop_stim
156572.11672629649	1751.8832737	n/a	1048	89	2750	1751.8832737	stim	stop-signal	268	700865	0.0-13.35-1.35	beast_fmri_test	276	698199,/,698881,/,699560,/,700241,/,700921,/,701601,/,702281,/	t,t,t,t,t,t,t	<img class = center src='/static/experiments/beast_fmri_test/images/T.png'></img>	71,89	2750.0	test	<img class = center src='/static/experiments/beast_fmri_test/images/redT.png'></img>	stop	2100.0	1.0	35.0	stop	non-target	T	71,Index Finger	89,Middle Finger	500.0	650.0	2250.0	2100.0	0.0	650.0	n/a	0.0	ITI
160604	500.0	n/a	-1	-1	500	0.0	fixation	poldrack-single-stim	269	703145	0.0-13.36-0.36	beast_fmri_test	276	702960,/	t	<div class = centerbox2><div class = fixation>+</div></div>	none	500.0	test	n/a	n/a	n/a	n/a	n/a	n/a	n/a	n/a	n/a	n/a	n/a	n/a	n/a	n/a	n/a	n/a	n/a	n/a	fixation
159716.26748066582	2750.0	n/a	1127	89	2750	885.732519334	stim	stop-signal	270	705893	0.0-13.36-1.36	beast_fmri_test	276	703639,/,704316,/,704996,/,705674,/,706356,/	t,t,t,t,t	<img class = center src='/static/experiments/beast_fmri_test/images/P.png'></img>	71,89	2750.0	test	<img class = center src='/static/experiments/beast_fmri_test/images/redP.png'></img>	go	2150.0	1.0	36.0	go	non-target	P	71,Index Finger	89,Middle Finger	500.0	600.0	2250.0	2150.0	1.0	600.0	1.0	n/a	go_stim
162466.26748066582	885.732519334	n/a	1127	89	2750	885.732519334	stim	stop-signal	270	705893	0.0-13.36-1.36	beast_fmri_test	276	703639,/,704316,/,704996,/,705674,/,706356,/	t,t,t,t,t	<img class = center src='/static/experiments/beast_fmri_test/images/P.png'></img>	71,89	2750.0	test	<img class = center src='/static/experiments/beast_fmri_test/images/redP.png'></img>	go	2150.0	1.0	36.0	go	non-target	P	71,Index Finger	89,Middle Finger	500.0	600.0	2250.0	2150.0	1.0	600.0	1.0	n/a	ITI
164767	500.0	n/a	-1	-1	500	0.0	fixation	poldrack-single-stim	271	707308	0.0-13.37-0.37	beast_fmri_test	276	707035,/	t	<div class = centerbox2><div class = fixation>+</div></div>	none	500.0	test	n/a	n/a	n/a	n/a	n/a	n/a	n/a	n/a	n/a	n/a	n/a	n/a	n/a	n/a	n/a	n/a	n/a	n/a	fixation
163312.53767308744	600.0	n/a	808	89	2750	1456.46232691	stim	stop-signal	272	710060	0.0-13.37-1.37	beast_fmri_test	276	707717,/,708395,/,709075,/,709756,/,710436,/,711115,/	t,t,t,t,t,t	<img class = center src='/static/experiments/beast_fmri_test/images/D.png'></img>	71,89	2750.0	test	<img class = center src='/static/experiments/beast_fmri_test/images/redD.png'></img>	stop	2150.0	1.0	37.0	stop	non-target	D	71,Index Finger	89,Middle Finger	500.0	600.0	2250.0	2150.0	0.0	600.0	n/a	0.0	go_stim
165462.53767308744	2150.0	n/a	808	89	2750	1456.46232691	stim	stop-signal	272	710060	0.0-13.37-1.37	beast_fmri_test	276	707717,/,708395,/,709075,/,709756,/,710436,/,711115,/	t,t,t,t,t,t	<img class = center src='/static/experiments/beast_fmri_test/images/D.png'></img>	71,89	2750.0	test	<img class = center src='/static/experiments/beast_fmri_test/images/redD.png'></img>	stop	2150.0	1.0	37.0	stop	non-target	D	71,Index Finger	89,Middle Finger	500.0	600.0	2250.0	2150.0	0.0	600.0	n/a	0.0	stop_stim
166062.53767308744	1456.46232691	n/a	808	89	2750	1456.46232691	stim	stop-signal	272	710060	0.0-13.37-1.37	beast_fmri_test	276	707717,/,708395,/,709075,/,709756,/,710436,/,711115,/	t,t,t,t,t,t	<img class = center src='/static/experiments/beast_fmri_test/images/D.png'></img>	71,89	2750.0	test	<img class = center src='/static/experiments/beast_fmri_test/images/redD.png'></img>	stop	2150.0	1.0	37.0	stop	non-target	D	71,Index Finger	89,Middle Finger	500.0	600.0	2250.0	2150.0	0.0	600.0	n/a	0.0	ITI
169508	500.0	n/a	-1	-1	500	0.0	fixation	poldrack-single-stim	273	712049	0.0-13.38-0.38	beast_fmri_test	276	711795,/	t	<div class = centerbox2><div class = fixation>+</div></div>	none	500.0	test	n/a	n/a	n/a	n/a	n/a	n/a	n/a	n/a	n/a	n/a	n/a	n/a	n/a	n/a	n/a	n/a	n/a	n/a	fixation
166182.21933031757	500.0	n/a	689	89	2750	3323.78066968	stim	stop-signal	274	714797	0.0-13.38-1.38	beast_fmri_test	276	712476,/,713155,/,713833,/,714511,/,715191,/,715871,/,716551,/,717231,/,717911,/	t,t,t,t,t,t,t,t,t	<img class = center src='/static/experiments/beast_fmri_test/images/D.png'></img>	71,89	2750.0	test	<img class = center src='/static/experiments/beast_fmri_test/images/redD.png'></img>	stop	2250.0	1.0	38.0	stop	target	D	71,Index Finger	89,Middle Finger	500.0	550.0	2250.0	2150.0	0.0	500.0	n/a	0.0	go_stim
168432.21933031757	2250.0	n/a	689	89	2750	3323.78066968	stim	stop-signal	274	714797	0.0-13.38-1.38	beast_fmri_test	276	712476,/,713155,/,713833,/,714511,/,715191,/,715871,/,716551,/,717231,/,717911,/	t,t,t,t,t,t,t,t,t	<img class = center src='/static/experiments/beast_fmri_test/images/D.png'></img>	71,89	2750.0	test	<img class = center src='/static/experiments/beast_fmri_test/images/redD.png'></img>	stop	2250.0	1.0	38.0	stop	target	D	71,Index Finger	89,Middle Finger	500.0	550.0	2250.0	2150.0	0.0	500.0	n/a	0.0	stop_stim
168932.21933031757	3323.78066968	n/a	689	89	2750	3323.78066968	stim	stop-signal	274	714797	0.0-13.38-1.38	beast_fmri_test	276	712476,/,713155,/,713833,/,714511,/,715191,/,715871,/,716551,/,717231,/,717911,/	t,t,t,t,t,t,t,t,t	<img class = center src='/static/experiments/beast_fmri_test/images/D.png'></img>	71,89	2750.0	test	<img class = center src='/static/experiments/beast_fmri_test/images/redD.png'></img>	stop	2250.0	1.0	38.0	stop	target	D	71,Index Finger	89,Middle Finger	500.0	550.0	2250.0	2150.0	0.0	500.0	n/a	0.0	ITI
176113	500.0	n/a	-1	-1	500	0.0	fixation	poldrack-single-stim	275	718654	0.0-13.39-0.39	beast_fmri_test	276	718591,/	t	<div class = centerbox2><div class = fixation>+</div></div>	none	500.0	test	n/a	n/a	n/a	n/a	n/a	n/a	n/a	n/a	n/a	n/a	n/a	n/a	n/a	n/a	n/a	n/a	n/a	n/a	fixation
175029.70949661895	2750.0	n/a	577	71	2750	1085.29050338	stim	stop-signal	276	721406	0.0-13.39-1.39	beast_fmri_test	276	719270,/,719951,/,720631,/,721311,/,721991,/	t,t,t,t,t	<img class = center src='/static/experiments/beast_fmri_test/images/D.png'></img>	71,89	2750.0	test	<img class = center src='/static/experiments/beast_fmri_test/images/redD.png'></img>	go	2300.0	1.0	39.0	go	target	D	71,Index Finger	89,Middle Finger	450.0	550.0	2300.0	2150.0	1.0	450.0	1.0	n/a	go_stim
177779.70949661895	1085.29050338	n/a	577	71	2750	1085.29050338	stim	stop-signal	276	721406	0.0-13.39-1.39	beast_fmri_test	276	719270,/,719951,/,720631,/,721311,/,721991,/	t,t,t,t,t	<img class = center src='/static/experiments/beast_fmri_test/images/D.png'></img>	71,89	2750.0	test	<img class = center src='/static/experiments/beast_fmri_test/images/redD.png'></img>	go	2300.0	1.0	39.0	go	target	D	71,Index Finger	89,Middle Finger	450.0	550.0	2300.0	2150.0	1.0	450.0	1.0	n/a	ITI
180482	500.0	n/a	-1	-1	500	0.0	fixation	poldrack-single-stim	277	723023	0.0-13.40-0.40	beast_fmri_test	276	722671,/	t	<div class = centerbox2><div class = fixation>+</div></div>	none	500.0	test	n/a	n/a	n/a	n/a	n/a	n/a	n/a	n/a	n/a	n/a	n/a	n/a	n/a	n/a	n/a	n/a	n/a	n/a	fixation
177882.62548395735	550.0	n/a	504	89	2750	2597.37451604	stim	stop-signal	278	725771	0.0-13.40-1.40	beast_fmri_test	276	723352,/,724030,/,724705,/,725387,/,726067,/,726747,/,727427,/,728106,/	t,t,t,t,t,t,t,t	<img class = center src='/static/experiments/beast_fmri_test/images/V.png'></img>	71,89	2750.0	test	<img class = center src='/static/experiments/beast_fmri_test/images/redV.png'></img>	stop	2200.0	1.0	40.0	stop	non-target	V	71,Index Finger	89,Middle Finger	450.0	550.0	2300.0	2200.0	0.0	550.0	n/a	0.0	go_stim
180082.62548395735	2200.0	n/a	504	89	2750	2597.37451604	stim	stop-signal	278	725771	0.0-13.40-1.40	beast_fmri_test	276	723352,/,724030,/,724705,/,725387,/,726067,/,726747,/,727427,/,728106,/	t,t,t,t,t,t,t,t	<img class = center src='/static/experiments/beast_fmri_test/images/V.png'></img>	71,89	2750.0	test	<img class = center src='/static/experiments/beast_fmri_test/images/redV.png'></img>	stop	2200.0	1.0	40.0	stop	non-target	V	71,Index Finger	89,Middle Finger	450.0	550.0	2300.0	2200.0	0.0	550.0	n/a	0.0	stop_stim
180632.62548395735	2597.37451604	n/a	504	89	2750	2597.37451604	stim	stop-signal	278	725771	0.0-13.40-1.40	beast_fmri_test	276	723352,/,724030,/,724705,/,725387,/,726067,/,726747,/,727427,/,728106,/	t,t,t,t,t,t,t,t	<img class = center src='/static/experiments/beast_fmri_test/images/V.png'></img>	71,89	2750.0	test	<img class = center src='/static/experiments/beast_fmri_test/images/redV.png'></img>	stop	2200.0	1.0	40.0	stop	non-target	V	71,Index Finger	89,Middle Finger	450.0	550.0	2300.0	2200.0	0.0	550.0	n/a	0.0	ITI
186363	500.0	n/a	-1	-1	500	0.0	fixation	poldrack-single-stim	279	728904	0.0-13.41-0.41	beast_fmri_test	276	728786,/	t	<div class = centerbox2><div class = fixation>+</div></div>	none	500.0	test	n/a	n/a	n/a	n/a	n/a	n/a	n/a	n/a	n/a	n/a	n/a	n/a	n/a	n/a	n/a	n/a	n/a	n/a	fixation
185669.28746845876	2750.0	n/a	505	89	2750	695.712531541	stim	stop-signal	280	731656	0.0-13.41-1.41	beast_fmri_test	276	729466,/,730147,/,730827,/,731507,/,732187,/	t,t,t,t,t	<img class = center src='/static/experiments/beast_fmri_test/images/D.png'></img>	71,89	2750.0	test	<img class = center src='/static/experiments/beast_fmri_test/images/redD.png'></img>	go	2250.0	1.0	41.0	go	non-target	D	71,Index Finger	89,Middle Finger	450.0	500.0	2300.0	2250.0	1.0	500.0	1.0	n/a	go_stim
188419.28746845876	695.712531541	n/a	505	89	2750	695.712531541	stim	stop-signal	280	731656	0.0-13.41-1.41	beast_fmri_test	276	729466,/,730147,/,730827,/,731507,/,732187,/	t,t,t,t,t	<img class = center src='/static/experiments/beast_fmri_test/images/D.png'></img>	71,89	2750.0	test	<img class = center src='/static/experiments/beast_fmri_test/images/redD.png'></img>	go	2250.0	1.0	41.0	go	non-target	D	71,Index Finger	89,Middle Finger	450.0	500.0	2300.0	2250.0	1.0	500.0	1.0	n/a	ITI
190345	500.0	n/a	-1	-1	500	0.0	fixation	poldrack-single-stim	281	732886	0.0-13.42-0.42	beast_fmri_test	276	732867,/	t	<div class = centerbox2><div class = fixation>+</div></div>	none	500.0	test	n/a	n/a	n/a	n/a	n/a	n/a	n/a	n/a	n/a	n/a	n/a	n/a	n/a	n/a	n/a	n/a	n/a	n/a	fixation
190279.75024669198	2750.0	n/a	491	89	2750	62.249753308	stim	stop-signal	282	735633	0.0-13.42-1.42	beast_fmri_test	276	733547,/,734223,/,734902,/,735582,/	t,t,t,t	<img class = center src='/static/experiments/beast_fmri_test/images/B.png'></img>	71,89	2750.0	test	<img class = center src='/static/experiments/beast_fmri_test/images/redB.png'></img>	go	2250.0	1.0	42.0	go	non-target	B	71,Index Finger	89,Middle Finger	450.0	500.0	2300.0	2250.0	1.0	500.0	1.0	n/a	go_stim
193029.75024669198	62.249753308	n/a	491	89	2750	62.249753308	stim	stop-signal	282	735633	0.0-13.42-1.42	beast_fmri_test	276	733547,/,734223,/,734902,/,735582,/	t,t,t,t	<img class = center src='/static/experiments/beast_fmri_test/images/B.png'></img>	71,89	2750.0	test	<img class = center src='/static/experiments/beast_fmri_test/images/redB.png'></img>	go	2250.0	1.0	42.0	go	non-target	B	71,Index Finger	89,Middle Finger	450.0	500.0	2300.0	2250.0	1.0	500.0	1.0	n/a	ITI
193685	500.0	n/a	-1	-1	500	0.0	fixation	poldrack-single-stim	283	736226	0.0-13.43-0.43	beast_fmri_test	276	n/a	n/a	<div class = centerbox2><div class = fixation>+</div></div>	none	500.0	test	n/a	n/a	n/a	n/a	n/a	n/a	n/a	n/a	n/a	n/a	n/a	n/a	n/a	n/a	n/a	n/a	n/a	n/a	fixation
192597.22249983635	2750.0	n/a	970	89	2750	1089.77750016	stim	stop-signal	284	738978	0.0-13.43-1.43	beast_fmri_test	276	736260,/,736942,/,737622,/,738301,/,738981,/,739661,/	t,t,t,t,t,t	<img class = center src='/static/experiments/beast_fmri_test/images/D.png'></img>	71,89	2750.0	test	<img class = center src='/static/experiments/beast_fmri_test/images/redD.png'></img>	go	2250.0	1.0	43.0	go	non-target	D	71,Index Finger	89,Middle Finger	450.0	500.0	2300.0	2250.0	1.0	500.0	1.0	n/a	go_stim
195347.22249983635	1089.77750016	n/a	970	89	2750	1089.77750016	stim	stop-signal	284	738978	0.0-13.43-1.43	beast_fmri_test	276	736260,/,736942,/,737622,/,738301,/,738981,/,739661,/	t,t,t,t,t,t	<img class = center src='/static/experiments/beast_fmri_test/images/D.png'></img>	71,89	2750.0	test	<img class = center src='/static/experiments/beast_fmri_test/images/redD.png'></img>	go	2250.0	1.0	43.0	go	non-target	D	71,Index Finger	89,Middle Finger	450.0	500.0	2300.0	2250.0	1.0	500.0	1.0	n/a	ITI
198055	500.0	n/a	-1	-1	500	0.0	fixation	poldrack-single-stim	285	740596	0.0-13.44-0.44	beast_fmri_test	276	740342,/	t	<div class = centerbox2><div class = fixation>+</div></div>	none	500.0	test	n/a	n/a	n/a	n/a	n/a	n/a	n/a	n/a	n/a	n/a	n/a	n/a	n/a	n/a	n/a	n/a	n/a	n/a	fixation
197533.13129489298	2750.0	n/a	755	89	2750	524.868705107	stim	stop-signal	286	743349	0.0-13.44-1.44	beast_fmri_test	276	741021,/,741702,/,742382,/,743061,/,743741,/	t,t,t,t,t	<img class = center src='/static/experiments/beast_fmri_test/images/P.png'></img>	71,89	2750.0	test	<img class = center src='/static/experiments/beast_fmri_test/images/redP.png'></img>	go	2250.0	1.0	44.0	go	non-target	P	71,Index Finger	89,Middle Finger	450.0	500.0	2300.0	2250.0	1.0	500.0	1.0	n/a	go_stim
200283.13129489298	524.868705107	n/a	755	89	2750	524.868705107	stim	stop-signal	286	743349	0.0-13.44-1.44	beast_fmri_test	276	741021,/,741702,/,742382,/,743061,/,743741,/	t,t,t,t,t	<img class = center src='/static/experiments/beast_fmri_test/images/P.png'></img>	71,89	2750.0	test	<img class = center src='/static/experiments/beast_fmri_test/images/redP.png'></img>	go	2250.0	1.0	44.0	go	non-target	P	71,Index Finger	89,Middle Finger	450.0	500.0	2300.0	2250.0	1.0	500.0	1.0	n/a	ITI
201865	500.0	n/a	-1	-1	500	0.0	fixation	poldrack-single-stim	287	744406	0.0-13.45-0.45	beast_fmri_test	276	n/a	n/a	<div class = centerbox2><div class = fixation>+</div></div>	none	500.0	test	n/a	n/a	n/a	n/a	n/a	n/a	n/a	n/a	n/a	n/a	n/a	n/a	n/a	n/a	n/a	n/a	n/a	n/a	fixation
199785.56406078208	2750.0	n/a	807	89	2750	2081.43593922	stim	stop-signal	288	747158	0.0-13.45-1.45	beast_fmri_test	276	744423,/,745102,/,745782,/,746462,/,747142,/,747822,/,748502,/,749182,/	t,t,t,t,t,t,t,t	<img class = center src='/static/experiments/beast_fmri_test/images/B.png'></img>	71,89	2750.0	test	<img class = center src='/static/experiments/beast_fmri_test/images/redB.png'></img>	go	2250.0	1.0	45.0	go	non-target	B	71,Index Finger	89,Middle Finger	450.0	500.0	2300.0	2250.0	1.0	500.0	1.0	n/a	go_stim
202535.56406078208	2081.43593922	n/a	807	89	2750	2081.43593922	stim	stop-signal	288	747158	0.0-13.45-1.45	beast_fmri_test	276	744423,/,745102,/,745782,/,746462,/,747142,/,747822,/,748502,/,749182,/	t,t,t,t,t,t,t,t	<img class = center src='/static/experiments/beast_fmri_test/images/B.png'></img>	71,89	2750.0	test	<img class = center src='/static/experiments/beast_fmri_test/images/redB.png'></img>	go	2250.0	1.0	45.0	go	non-target	B	71,Index Finger	89,Middle Finger	450.0	500.0	2300.0	2250.0	1.0	500.0	1.0	n/a	ITI
221728	15000.0	n/a	-1	-1	15000	0.0	practice-no-stop-feedback	poldrack-single-stim	289	764269	0.0-14.0	beast_fmri_test	276	749862,/,750542,/,751221,/,751901,/,752582,/,753262,/,753940,/,754618,/,755298,/,755978,/,756658,/,757338,/,758017,/,758698,/,759378,/,760057,/,760738,/,761417,/,762098,/,762777,/,763458,/,764134,/	t,t,t,t,t,t,t,t,t,t,t,t,t,t,t,t,t,t,t,t,t,t	"<div class = ""centerbox""><p class = ""block-text"">Your delay is 1 trials.</p><p class = block-text>Please wait for the scanner to start the block</p></div>"	77	15000.0	n/a	n/a	n/a	n/a	n/a	n/a	n/a	n/a	n/a	n/a	n/a	n/a	n/a	n/a	n/a	n/a	n/a	n/a	n/a	practice-no-stop-feedback
222228	500.0	n/a	-1	-1	500	0.0	fixation	poldrack-single-stim	290	764769	0.0-15.0-0.0	beast_fmri_test	276	n/a	n/a	<div class = centerbox2><div class = fixation>+</div></div>	none	500.0	test	n/a	n/a	n/a	n/a	n/a	n/a	n/a	n/a	n/a	n/a	n/a	n/a	n/a	n/a	n/a	n/a	n/a	n/a	fixation
221404.14824861998	2750.0	n/a	726	89	2750	826.85175138	stim	stop-signal	291	767522	0.0-15.0-1.0	beast_fmri_test	276	764811,/,765493,/,766172,/,766853,/,767532,/,768213,/	t,t,t,t,t,t	<img class = center src='/static/experiments/beast_fmri_test/images/T.png'></img>	71,89	2750.0	test	<img class = center src='/static/experiments/beast_fmri_test/images/redT.png'></img>	go	-1.0	1.0	0.0	go	temp-non-target	T	71,Index Finger	89,Middle Finger	450.0	500.0	2300.0	2250.0	0.0	n/a	n/a	n/a	go_stim
224154.14824861998	826.85175138	n/a	726	89	2750	826.85175138	stim	stop-signal	291	767522	0.0-15.0-1.0	beast_fmri_test	276	764811,/,765493,/,766172,/,766853,/,767532,/,768213,/	t,t,t,t,t,t	<img class = center src='/static/experiments/beast_fmri_test/images/T.png'></img>	71,89	2750.0	test	<img class = center src='/static/experiments/beast_fmri_test/images/redT.png'></img>	go	-1.0	1.0	0.0	go	temp-non-target	T	71,Index Finger	89,Middle Finger	450.0	500.0	2300.0	2250.0	0.0	n/a	n/a	n/a	ITI
226340	500.0	n/a	-1	-1	500	0.0	fixation	poldrack-single-stim	292	768881	0.0-15.1-0.1	beast_fmri_test	276	n/a	n/a	<div class = centerbox2><div class = fixation>+</div></div>	none	500.0	test	n/a	n/a	n/a	n/a	n/a	n/a	n/a	n/a	n/a	n/a	n/a	n/a	n/a	n/a	n/a	n/a	n/a	n/a	fixation
225848.22081033583	2750.0	n/a	471	89	2750	493.779189664	stim	stop-signal	293	771633	0.0-15.1-1.1	beast_fmri_test	276	768893,/,769573,/,770252,/,770934,/,771613,/	t,t,t,t,t	<img class = center src='/static/experiments/beast_fmri_test/images/B.png'></img>	71,89	2750.0	test	<img class = center src='/static/experiments/beast_fmri_test/images/redB.png'></img>	go	2250.0	1.0	1.0	go	non-target	B	71,Index Finger	89,Middle Finger	450.0	500.0	2300.0	2250.0	1.0	500.0	1.0	n/a	go_stim
228598.22081033583	493.779189664	n/a	471	89	2750	493.779189664	stim	stop-signal	293	771633	0.0-15.1-1.1	beast_fmri_test	276	768893,/,769573,/,770252,/,770934,/,771613,/	t,t,t,t,t	<img class = center src='/static/experiments/beast_fmri_test/images/B.png'></img>	71,89	2750.0	test	<img class = center src='/static/experiments/beast_fmri_test/images/redB.png'></img>	go	2250.0	1.0	1.0	go	non-target	B	71,Index Finger	89,Middle Finger	450.0	500.0	2300.0	2250.0	1.0	500.0	1.0	n/a	ITI
230121	500.0	n/a	-1	-1	500	0.0	fixation	poldrack-single-stim	294	772662	0.0-15.2-0.2	beast_fmri_test	276	772293,/	t	<div class = centerbox2><div class = fixation>+</div></div>	none	500.0	test	n/a	n/a	n/a	n/a	n/a	n/a	n/a	n/a	n/a	n/a	n/a	n/a	n/a	n/a	n/a	n/a	n/a	n/a	fixation
229913.03513911995	450.0	n/a	754	71	2750	205.96486088	stim	stop-signal	295	775410	0.0-15.2-1.2	beast_fmri_test	276	772973,/,773652,/,774329,/,775008,/	t,t,t,t	<img class = center src='/static/experiments/beast_fmri_test/images/B.png'></img>	71,89	2750.0	test	<img class = center src='/static/experiments/beast_fmri_test/images/redB.png'></img>	stop	2300.0	1.0	2.0	stop	target	B	71,Index Finger	89,Middle Finger	450.0	500.0	2300.0	2250.0	0.0	450.0	n/a	0.0	go_stim
232213.03513911995	2300.0	n/a	754	71	2750	205.96486088	stim	stop-signal	295	775410	0.0-15.2-1.2	beast_fmri_test	276	772973,/,773652,/,774329,/,775008,/	t,t,t,t	<img class = center src='/static/experiments/beast_fmri_test/images/B.png'></img>	71,89	2750.0	test	<img class = center src='/static/experiments/beast_fmri_test/images/redB.png'></img>	stop	2300.0	1.0	2.0	stop	target	B	71,Index Finger	89,Middle Finger	450.0	500.0	2300.0	2250.0	0.0	450.0	n/a	0.0	stop_stim
232663.03513911995	205.96486088	n/a	754	71	2750	205.96486088	stim	stop-signal	295	775410	0.0-15.2-1.2	beast_fmri_test	276	772973,/,773652,/,774329,/,775008,/	t,t,t,t	<img class = center src='/static/experiments/beast_fmri_test/images/B.png'></img>	71,89	2750.0	test	<img class = center src='/static/experiments/beast_fmri_test/images/redB.png'></img>	stop	2300.0	1.0	2.0	stop	target	B	71,Index Finger	89,Middle Finger	450.0	500.0	2300.0	2250.0	0.0	450.0	n/a	0.0	ITI
233608	500.0	n/a	-1	-1	500	0.0	fixation	poldrack-single-stim	296	776149	0.0-15.3-0.3	beast_fmri_test	276	775689,/	t	<div class = centerbox2><div class = fixation>+</div></div>	none	500.0	test	n/a	n/a	n/a	n/a	n/a	n/a	n/a	n/a	n/a	n/a	n/a	n/a	n/a	n/a	n/a	n/a	n/a	n/a	fixation
233520.35800515604	2750.0	n/a	734	89	2750	90.6419948439	stim	stop-signal	297	778902	0.0-15.3-1.3	beast_fmri_test	276	776368,/,777050,/,777728,/,778407,/	t,t,t,t	<img class = center src='/static/experiments/beast_fmri_test/images/P.png'></img>	71,89	2750.0	test	<img class = center src='/static/experiments/beast_fmri_test/images/redP.png'></img>	go	2250.0	1.0	3.0	go	non-target	P	71,Index Finger	89,Middle Finger	400.0	500.0	2300.0	2250.0	1.0	500.0	1.0	n/a	go_stim
236270.35800515604	90.6419948439	n/a	734	89	2750	90.6419948439	stim	stop-signal	297	778902	0.0-15.3-1.3	beast_fmri_test	276	776368,/,777050,/,777728,/,778407,/	t,t,t,t	<img class = center src='/static/experiments/beast_fmri_test/images/P.png'></img>	71,89	2750.0	test	<img class = center src='/static/experiments/beast_fmri_test/images/redP.png'></img>	go	2250.0	1.0	3.0	go	non-target	P	71,Index Finger	89,Middle Finger	400.0	500.0	2300.0	2250.0	1.0	500.0	1.0	n/a	ITI
236985	500.0	n/a	-1	-1	500	0.0	fixation	poldrack-single-stim	298	779526	0.0-15.4-0.4	beast_fmri_test	276	779088,/	t	<div class = centerbox2><div class = fixation>+</div></div>	none	500.0	test	n/a	n/a	n/a	n/a	n/a	n/a	n/a	n/a	n/a	n/a	n/a	n/a	n/a	n/a	n/a	n/a	n/a	n/a	fixation
235934.494397084	2750.0	n/a	717	71	2750	1052.50560292	stim	stop-signal	299	782278	0.0-15.4-1.4	beast_fmri_test	276	779767,/,780448,/,781128,/,781808,/,782488,/,783168,/	t,t,t,t,t,t	<img class = center src='/static/experiments/beast_fmri_test/images/P.png'></img>	71,89	2750.0	test	<img class = center src='/static/experiments/beast_fmri_test/images/redP.png'></img>	go	2350.0	1.0	4.0	go	target	P	71,Index Finger	89,Middle Finger	400.0	500.0	2350.0	2250.0	1.0	400.0	1.0	n/a	go_stim
238684.494397084	1052.50560292	n/a	717	71	2750	1052.50560292	stim	stop-signal	299	782278	0.0-15.4-1.4	beast_fmri_test	276	779767,/,780448,/,781128,/,781808,/,782488,/,783168,/	t,t,t,t,t,t	<img class = center src='/static/experiments/beast_fmri_test/images/P.png'></img>	71,89	2750.0	test	<img class = center src='/static/experiments/beast_fmri_test/images/redP.png'></img>	go	2350.0	1.0	4.0	go	target	P	71,Index Finger	89,Middle Finger	400.0	500.0	2350.0	2250.0	1.0	400.0	1.0	n/a	ITI
241322	500.0	n/a	-1	-1	500	0.0	fixation	poldrack-single-stim	300	783863	0.0-15.5-0.5	beast_fmri_test	276	783847,/	t	<div class = centerbox2><div class = fixation>+</div></div>	none	500.0	test	n/a	n/a	n/a	n/a	n/a	n/a	n/a	n/a	n/a	n/a	n/a	n/a	n/a	n/a	n/a	n/a	n/a	n/a	fixation
241103.01577608055	400.0	n/a	619	71	2750	217.984223919	stim	stop-signal	301	786612	0.0-15.5-1.5	beast_fmri_test	276	784523,/,785204,/,785885,/,786564,/	t,t,t,t	<img class = center src='/static/experiments/beast_fmri_test/images/P.png'></img>	71,89	2750.0	test	<img class = center src='/static/experiments/beast_fmri_test/images/redP.png'></img>	stop	2350.0	1.0	5.0	stop	target	P	71,Index Finger	89,Middle Finger	400.0	500.0	2350.0	2250.0	0.0	400.0	n/a	0.0	go_stim
243453.01577608055	2350.0	n/a	619	71	2750	217.984223919	stim	stop-signal	301	786612	0.0-15.5-1.5	beast_fmri_test	276	784523,/,785204,/,785885,/,786564,/	t,t,t,t	<img class = center src='/static/experiments/beast_fmri_test/images/P.png'></img>	71,89	2750.0	test	<img class = center src='/static/experiments/beast_fmri_test/images/redP.png'></img>	stop	2350.0	1.0	5.0	stop	target	P	71,Index Finger	89,Middle Finger	400.0	500.0	2350.0	2250.0	0.0	400.0	n/a	0.0	stop_stim
243853.01577608055	217.984223919	n/a	619	71	2750	217.984223919	stim	stop-signal	301	786612	0.0-15.5-1.5	beast_fmri_test	276	784523,/,785204,/,785885,/,786564,/	t,t,t,t	<img class = center src='/static/experiments/beast_fmri_test/images/P.png'></img>	71,89	2750.0	test	<img class = center src='/static/experiments/beast_fmri_test/images/redP.png'></img>	stop	2350.0	1.0	5.0	stop	target	P	71,Index Finger	89,Middle Finger	400.0	500.0	2350.0	2250.0	0.0	400.0	n/a	0.0	ITI
244827	500.0	n/a	-1	-1	500	0.0	fixation	poldrack-single-stim	302	787368	0.0-15.6-0.6	beast_fmri_test	276	787245,/	t	<div class = centerbox2><div class = fixation>+</div></div>	none	500.0	test	n/a	n/a	n/a	n/a	n/a	n/a	n/a	n/a	n/a	n/a	n/a	n/a	n/a	n/a	n/a	n/a	n/a	n/a	fixation
244370.36060791486	2750.0	n/a	520	89	2750	458.639392085	stim	stop-signal	303	790120	0.0-15.6-1.6	beast_fmri_test	276	787923,/,788602,/,789283,/,789964,/	t,t,t,t	<img class = center src='/static/experiments/beast_fmri_test/images/V.png'></img>	71,89	2750.0	test	<img class = center src='/static/experiments/beast_fmri_test/images/redV.png'></img>	go	2250.0	1.0	6.0	go	non-target	V	71,Index Finger	89,Middle Finger	350.0	500.0	2350.0	2250.0	1.0	500.0	1.0	n/a	go_stim
247120.36060791486	458.639392085	n/a	520	89	2750	458.639392085	stim	stop-signal	303	790120	0.0-15.6-1.6	beast_fmri_test	276	787923,/,788602,/,789283,/,789964,/	t,t,t,t	<img class = center src='/static/experiments/beast_fmri_test/images/V.png'></img>	71,89	2750.0	test	<img class = center src='/static/experiments/beast_fmri_test/images/redV.png'></img>	go	2250.0	1.0	6.0	go	non-target	V	71,Index Finger	89,Middle Finger	350.0	500.0	2350.0	2250.0	1.0	500.0	1.0	n/a	ITI
248577	500.0	n/a	-1	-1	500	0.0	fixation	poldrack-single-stim	304	791118	0.0-15.7-0.7	beast_fmri_test	276	790643,/	t	<div class = centerbox2><div class = fixation>+</div></div>	none	500.0	test	n/a	n/a	n/a	n/a	n/a	n/a	n/a	n/a	n/a	n/a	n/a	n/a	n/a	n/a	n/a	n/a	n/a	n/a	fixation
248106.14275587304	2750.0	n/a	411	71	2750	472.857244127	stim	stop-signal	305	793870	0.0-15.7-1.7	beast_fmri_test	276	791324,/,792003,/,792683,/,793363,/,794040,/	t,t,t,t,t	<img class = center src='/static/experiments/beast_fmri_test/images/V.png'></img>	71,89	2750.0	test	<img class = center src='/static/experiments/beast_fmri_test/images/redV.png'></img>	go	2400.0	1.0	7.0	go	target	V	71,Index Finger	89,Middle Finger	350.0	500.0	2400.0	2250.0	1.0	350.0	1.0	n/a	go_stim
250856.14275587304	472.857244127	n/a	411	71	2750	472.857244127	stim	stop-signal	305	793870	0.0-15.7-1.7	beast_fmri_test	276	791324,/,792003,/,792683,/,793363,/,794040,/	t,t,t,t,t	<img class = center src='/static/experiments/beast_fmri_test/images/V.png'></img>	71,89	2750.0	test	<img class = center src='/static/experiments/beast_fmri_test/images/redV.png'></img>	go	2400.0	1.0	7.0	go	target	V	71,Index Finger	89,Middle Finger	350.0	500.0	2400.0	2250.0	1.0	350.0	1.0	n/a	ITI
252334	500.0	n/a	-1	-1	500	0.0	fixation	poldrack-single-stim	306	794875	0.0-15.8-0.8	beast_fmri_test	276	794717,/	t	<div class = centerbox2><div class = fixation>+</div></div>	none	500.0	test	n/a	n/a	n/a	n/a	n/a	n/a	n/a	n/a	n/a	n/a	n/a	n/a	n/a	n/a	n/a	n/a	n/a	n/a	fixation
251081.78334891377	500.0	n/a	554	89	2750	1255.21665109	stim	stop-signal	307	797628	0.0-15.8-1.8	beast_fmri_test	276	795398,/,796078,/,796758,/,797438,/,798118,/,798799,/	t,t,t,t,t,t	<img class = center src='/static/experiments/beast_fmri_test/images/D.png'></img>	71,89	2750.0	test	<img class = center src='/static/experiments/beast_fmri_test/images/redD.png'></img>	stop	2250.0	1.0	8.0	stop	non-target	D	71,Index Finger	89,Middle Finger	350.0	500.0	2400.0	2250.0	0.0	500.0	n/a	0.0	go_stim
253331.78334891377	2250.0	n/a	554	89	2750	1255.21665109	stim	stop-signal	307	797628	0.0-15.8-1.8	beast_fmri_test	276	795398,/,796078,/,796758,/,797438,/,798118,/,798799,/	t,t,t,t,t,t	<img class = center src='/static/experiments/beast_fmri_test/images/D.png'></img>	71,89	2750.0	test	<img class = center src='/static/experiments/beast_fmri_test/images/redD.png'></img>	stop	2250.0	1.0	8.0	stop	non-target	D	71,Index Finger	89,Middle Finger	350.0	500.0	2400.0	2250.0	0.0	500.0	n/a	0.0	stop_stim
253831.78334891377	1255.21665109	n/a	554	89	2750	1255.21665109	stim	stop-signal	307	797628	0.0-15.8-1.8	beast_fmri_test	276	795398,/,796078,/,796758,/,797438,/,798118,/,798799,/	t,t,t,t,t,t	<img class = center src='/static/experiments/beast_fmri_test/images/D.png'></img>	71,89	2750.0	test	<img class = center src='/static/experiments/beast_fmri_test/images/redD.png'></img>	stop	2250.0	1.0	8.0	stop	non-target	D	71,Index Finger	89,Middle Finger	350.0	500.0	2400.0	2250.0	0.0	500.0	n/a	0.0	ITI
256877	500.0	n/a	-1	-1	500	0.0	fixation	poldrack-single-stim	308	799418	0.0-15.9-0.9	beast_fmri_test	276	n/a	n/a	<div class = centerbox2><div class = fixation>+</div></div>	none	500.0	test	n/a	n/a	n/a	n/a	n/a	n/a	n/a	n/a	n/a	n/a	n/a	n/a	n/a	n/a	n/a	n/a	n/a	n/a	fixation
256276.97336121078	2750.0	n/a	517	71	2750	602.026638789	stim	stop-signal	309	802170	0.0-15.9-1.9	beast_fmri_test	276	799478,/,800159,/,800839,/,801518,/,802197,/	t,t,t,t,t	<img class = center src='/static/experiments/beast_fmri_test/images/T.png'></img>	71,89	2750.0	test	<img class = center src='/static/experiments/beast_fmri_test/images/redT.png'></img>	go	2300.0	1.0	9.0	go	non-target	T	71,Index Finger	89,Middle Finger	350.0	450.0	2400.0	2300.0	0.0	450.0	0.0	n/a	go_stim
259026.97336121078	602.026638789	n/a	517	71	2750	602.026638789	stim	stop-signal	309	802170	0.0-15.9-1.9	beast_fmri_test	276	799478,/,800159,/,800839,/,801518,/,802197,/	t,t,t,t,t	<img class = center src='/static/experiments/beast_fmri_test/images/T.png'></img>	71,89	2750.0	test	<img class = center src='/static/experiments/beast_fmri_test/images/redT.png'></img>	go	2300.0	1.0	9.0	go	non-target	T	71,Index Finger	89,Middle Finger	350.0	450.0	2400.0	2300.0	0.0	450.0	0.0	n/a	ITI
260768	500.0	n/a	-1	-1	500	0.0	fixation	poldrack-single-stim	310	803309	0.0-15.10-0.10	beast_fmri_test	276	802879,/	t	<div class = centerbox2><div class = fixation>+</div></div>	none	500.0	test	n/a	n/a	n/a	n/a	n/a	n/a	n/a	n/a	n/a	n/a	n/a	n/a	n/a	n/a	n/a	n/a	n/a	n/a	fixation
259335.05905081576	2750.0	n/a	455	71	2750	1436.94094918	stim	stop-signal	311	806063	0.0-15.10-1.10	beast_fmri_test	276	803559,/,804239,/,804919,/,805599,/,806279,/,806957,/	t,t,t,t,t,t	<img class = center src='/static/experiments/beast_fmri_test/images/T.png'></img>	71,89	2750.0	test	<img class = center src='/static/experiments/beast_fmri_test/images/redT.png'></img>	go	2400.0	1.0	10.0	go	target	T	71,Index Finger	89,Middle Finger	350.0	450.0	2400.0	2300.0	1.0	350.0	1.0	n/a	go_stim
262085.05905081576	1436.94094918	n/a	455	71	2750	1436.94094918	stim	stop-signal	311	806063	0.0-15.10-1.10	beast_fmri_test	276	803559,/,804239,/,804919,/,805599,/,806279,/,806957,/	t,t,t,t,t,t	<img class = center src='/static/experiments/beast_fmri_test/images/T.png'></img>	71,89	2750.0	test	<img class = center src='/static/experiments/beast_fmri_test/images/redT.png'></img>	go	2400.0	1.0	10.0	go	target	T	71,Index Finger	89,Middle Finger	350.0	450.0	2400.0	2300.0	1.0	350.0	1.0	n/a	ITI
265495	500.0	n/a	-1	-1	500	0.0	fixation	poldrack-single-stim	312	808036	0.0-15.11-0.11	beast_fmri_test	276	807639,/	t	<div class = centerbox2><div class = fixation>+</div></div>	none	500.0	test	n/a	n/a	n/a	n/a	n/a	n/a	n/a	n/a	n/a	n/a	n/a	n/a	n/a	n/a	n/a	n/a	n/a	n/a	fixation
265170.78487485927	450.0	n/a	619	89	2750	326.215125141	stim	stop-signal	313	810788	0.0-15.11-1.11	beast_fmri_test	276	808320,/,808999,/,809678,/,810359,/,811040,/	t,t,t,t,t	<img class = center src='/static/experiments/beast_fmri_test/images/D.png'></img>	71,89	2750.0	test	<img class = center src='/static/experiments/beast_fmri_test/images/redD.png'></img>	stop	2300.0	1.0	11.0	stop	non-target	D	71,Index Finger	89,Middle Finger	350.0	450.0	2400.0	2300.0	0.0	450.0	n/a	0.0	go_stim
267470.78487485927	2300.0	n/a	619	89	2750	326.215125141	stim	stop-signal	313	810788	0.0-15.11-1.11	beast_fmri_test	276	808320,/,808999,/,809678,/,810359,/,811040,/	t,t,t,t,t	<img class = center src='/static/experiments/beast_fmri_test/images/D.png'></img>	71,89	2750.0	test	<img class = center src='/static/experiments/beast_fmri_test/images/redD.png'></img>	stop	2300.0	1.0	11.0	stop	non-target	D	71,Index Finger	89,Middle Finger	350.0	450.0	2400.0	2300.0	0.0	450.0	n/a	0.0	stop_stim
267920.78487485927	326.215125141	n/a	619	89	2750	326.215125141	stim	stop-signal	313	810788	0.0-15.11-1.11	beast_fmri_test	276	808320,/,808999,/,809678,/,810359,/,811040,/	t,t,t,t,t	<img class = center src='/static/experiments/beast_fmri_test/images/D.png'></img>	71,89	2750.0	test	<img class = center src='/static/experiments/beast_fmri_test/images/redD.png'></img>	stop	2300.0	1.0	11.0	stop	non-target	D	71,Index Finger	89,Middle Finger	350.0	450.0	2400.0	2300.0	0.0	450.0	n/a	0.0	ITI
269108	500.0	n/a	-1	-1	500	0.0	fixation	poldrack-single-stim	314	811649	0.0-15.12-0.12	beast_fmri_test	276	n/a	n/a	<div class = centerbox2><div class = fixation>+</div></div>	none	500.0	test	n/a	n/a	n/a	n/a	n/a	n/a	n/a	n/a	n/a	n/a	n/a	n/a	n/a	n/a	n/a	n/a	n/a	n/a	fixation
268520.86796747753	350.0	n/a	586	71	2750	586.132032523	stim	stop-signal	315	814398	0.0-15.12-1.12	beast_fmri_test	276	811718,/,812399,/,813080,/,813759,/,814435,/	t,t,t,t,t	<img class = center src='/static/experiments/beast_fmri_test/images/D.png'></img>	71,89	2750.0	test	<img class = center src='/static/experiments/beast_fmri_test/images/redD.png'></img>	stop	2400.0	1.0	12.0	stop	target	D	71,Index Finger	89,Middle Finger	350.0	400.0	2400.0	2300.0	0.0	350.0	n/a	0.0	go_stim
270920.86796747753	2400.0	n/a	586	71	2750	586.132032523	stim	stop-signal	315	814398	0.0-15.12-1.12	beast_fmri_test	276	811718,/,812399,/,813080,/,813759,/,814435,/	t,t,t,t,t	<img class = center src='/static/experiments/beast_fmri_test/images/D.png'></img>	71,89	2750.0	test	<img class = center src='/static/experiments/beast_fmri_test/images/redD.png'></img>	stop	2400.0	1.0	12.0	stop	target	D	71,Index Finger	89,Middle Finger	350.0	400.0	2400.0	2300.0	0.0	350.0	n/a	0.0	stop_stim
271270.86796747753	586.132032523	n/a	586	71	2750	586.132032523	stim	stop-signal	315	814398	0.0-15.12-1.12	beast_fmri_test	276	811718,/,812399,/,813080,/,813759,/,814435,/	t,t,t,t,t	<img class = center src='/static/experiments/beast_fmri_test/images/D.png'></img>	71,89	2750.0	test	<img class = center src='/static/experiments/beast_fmri_test/images/redD.png'></img>	stop	2400.0	1.0	12.0	stop	target	D	71,Index Finger	89,Middle Finger	350.0	400.0	2400.0	2300.0	0.0	350.0	n/a	0.0	ITI
272979	500.0	n/a	-1	-1	500	0.0	fixation	poldrack-single-stim	316	815520	0.0-15.13-0.13	beast_fmri_test	276	815115,/	t	<div class = centerbox2><div class = fixation>+</div></div>	none	500.0	test	n/a	n/a	n/a	n/a	n/a	n/a	n/a	n/a	n/a	n/a	n/a	n/a	n/a	n/a	n/a	n/a	n/a	n/a	fixation
271740.99331376783	400.0	n/a	489	89	2750	1242.00668623	stim	stop-signal	317	818274	0.0-15.13-1.13	beast_fmri_test	276	815795,/,816475,/,817155,/,817835,/,818514,/,819194,/	t,t,t,t,t,t	<img class = center src='/static/experiments/beast_fmri_test/images/P.png'></img>	71,89	2750.0	test	<img class = center src='/static/experiments/beast_fmri_test/images/redP.png'></img>	stop	2350.0	1.0	13.0	stop	non-target	P	71,Index Finger	89,Middle Finger	300.0	400.0	2400.0	2350.0	0.0	400.0	n/a	0.0	go_stim
274090.99331376783	2350.0	n/a	489	89	2750	1242.00668623	stim	stop-signal	317	818274	0.0-15.13-1.13	beast_fmri_test	276	815795,/,816475,/,817155,/,817835,/,818514,/,819194,/	t,t,t,t,t,t	<img class = center src='/static/experiments/beast_fmri_test/images/P.png'></img>	71,89	2750.0	test	<img class = center src='/static/experiments/beast_fmri_test/images/redP.png'></img>	stop	2350.0	1.0	13.0	stop	non-target	P	71,Index Finger	89,Middle Finger	300.0	400.0	2400.0	2350.0	0.0	400.0	n/a	0.0	stop_stim
274490.99331376783	1242.00668623	n/a	489	89	2750	1242.00668623	stim	stop-signal	317	818274	0.0-15.13-1.13	beast_fmri_test	276	815795,/,816475,/,817155,/,817835,/,818514,/,819194,/	t,t,t,t,t,t	<img class = center src='/static/experiments/beast_fmri_test/images/P.png'></img>	71,89	2750.0	test	<img class = center src='/static/experiments/beast_fmri_test/images/redP.png'></img>	stop	2350.0	1.0	13.0	stop	non-target	P	71,Index Finger	89,Middle Finger	300.0	400.0	2400.0	2350.0	0.0	400.0	n/a	0.0	ITI
277510	500.0	n/a	-1	-1	500	0.0	fixation	poldrack-single-stim	318	820051	0.0-15.14-0.14	beast_fmri_test	276	819875,/	t	<div class = centerbox2><div class = fixation>+</div></div>	none	500.0	test	n/a	n/a	n/a	n/a	n/a	n/a	n/a	n/a	n/a	n/a	n/a	n/a	n/a	n/a	n/a	n/a	n/a	n/a	fixation
276047.35607465461	2750.0	n/a	524	89	2750	1466.64392535	stim	stop-signal	319	822805	0.0-15.14-1.14	beast_fmri_test	276	820555,/,821234,/,821914,/,822594,/,823274,/,823953,/	t,t,t,t,t,t	<img class = center src='/static/experiments/beast_fmri_test/images/P.png'></img>	71,89	2750.0	test	<img class = center src='/static/experiments/beast_fmri_test/images/redP.png'></img>	go	2450.0	1.0	14.0	go	target	P	71,Index Finger	89,Middle Finger	300.0	350.0	2450.0	2350.0	0.0	300.0	0.0	n/a	go_stim
278797.35607465461	1466.64392535	n/a	524	89	2750	1466.64392535	stim	stop-signal	319	822805	0.0-15.14-1.14	beast_fmri_test	276	820555,/,821234,/,821914,/,822594,/,823274,/,823953,/	t,t,t,t,t,t	<img class = center src='/static/experiments/beast_fmri_test/images/P.png'></img>	71,89	2750.0	test	<img class = center src='/static/experiments/beast_fmri_test/images/redP.png'></img>	go	2450.0	1.0	14.0	go	target	P	71,Index Finger	89,Middle Finger	300.0	350.0	2450.0	2350.0	0.0	300.0	0.0	n/a	ITI
282261	500.0	n/a	-1	-1	500	0.0	fixation	poldrack-single-stim	320	824802	0.0-15.15-0.15	beast_fmri_test	276	824630,/	t	<div class = centerbox2><div class = fixation>+</div></div>	none	500.0	test	n/a	n/a	n/a	n/a	n/a	n/a	n/a	n/a	n/a	n/a	n/a	n/a	n/a	n/a	n/a	n/a	n/a	n/a	fixation
281680.17444386857	2750.0	n/a	638	71	2750	583.825556131	stim	stop-signal	321	827555	0.0-15.15-1.15	beast_fmri_test	276	825310,/,825990,/,826670,/,827350,/,828030,/	t,t,t,t,t	<img class = center src='/static/experiments/beast_fmri_test/images/P.png'></img>	71,89	2750.0	test	<img class = center src='/static/experiments/beast_fmri_test/images/redP.png'></img>	go	2450.0	1.0	15.0	go	target	P	71,Index Finger	89,Middle Finger	300.0	350.0	2450.0	2350.0	1.0	300.0	1.0	n/a	go_stim
284430.17444386857	583.825556131	n/a	638	71	2750	583.825556131	stim	stop-signal	321	827555	0.0-15.15-1.15	beast_fmri_test	276	825310,/,825990,/,826670,/,827350,/,828030,/	t,t,t,t,t	<img class = center src='/static/experiments/beast_fmri_test/images/P.png'></img>	71,89	2750.0	test	<img class = center src='/static/experiments/beast_fmri_test/images/redP.png'></img>	go	2450.0	1.0	15.0	go	target	P	71,Index Finger	89,Middle Finger	300.0	350.0	2450.0	2350.0	1.0	300.0	1.0	n/a	ITI
286138	500.0	n/a	-1	-1	500	0.0	fixation	poldrack-single-stim	322	828679	0.0-15.16-0.16	beast_fmri_test	276	n/a	n/a	<div class = centerbox2><div class = fixation>+</div></div>	none	500.0	test	n/a	n/a	n/a	n/a	n/a	n/a	n/a	n/a	n/a	n/a	n/a	n/a	n/a	n/a	n/a	n/a	n/a	n/a	fixation
285624.58612435253	350.0	n/a	517	89	2750	516.413875648	stim	stop-signal	323	831432	0.0-15.16-1.16	beast_fmri_test	276	828709,/,829390,/,830070,/,830749,/,831429,/	t,t,t,t,t	<img class = center src='/static/experiments/beast_fmri_test/images/V.png'></img>	71,89	2750.0	test	<img class = center src='/static/experiments/beast_fmri_test/images/redV.png'></img>	stop	2400.0	1.0	16.0	stop	non-target	V	71,Index Finger	89,Middle Finger	300.0	350.0	2450.0	2400.0	0.0	350.0	n/a	0.0	go_stim
288024.58612435253	2400.0	n/a	517	89	2750	516.413875648	stim	stop-signal	323	831432	0.0-15.16-1.16	beast_fmri_test	276	828709,/,829390,/,830070,/,830749,/,831429,/	t,t,t,t,t	<img class = center src='/static/experiments/beast_fmri_test/images/V.png'></img>	71,89	2750.0	test	<img class = center src='/static/experiments/beast_fmri_test/images/redV.png'></img>	stop	2400.0	1.0	16.0	stop	non-target	V	71,Index Finger	89,Middle Finger	300.0	350.0	2450.0	2400.0	0.0	350.0	n/a	0.0	stop_stim
288374.58612435253	516.413875648	n/a	517	89	2750	516.413875648	stim	stop-signal	323	831432	0.0-15.16-1.16	beast_fmri_test	276	828709,/,829390,/,830070,/,830749,/,831429,/	t,t,t,t,t	<img class = center src='/static/experiments/beast_fmri_test/images/V.png'></img>	71,89	2750.0	test	<img class = center src='/static/experiments/beast_fmri_test/images/redV.png'></img>	stop	2400.0	1.0	16.0	stop	non-target	V	71,Index Finger	89,Middle Finger	300.0	350.0	2450.0	2400.0	0.0	350.0	n/a	0.0	ITI
289946	500.0	n/a	-1	-1	500	0.0	fixation	poldrack-single-stim	324	832487	0.0-15.17-0.17	beast_fmri_test	276	832109,/	t	<div class = centerbox2><div class = fixation>+</div></div>	none	500.0	test	n/a	n/a	n/a	n/a	n/a	n/a	n/a	n/a	n/a	n/a	n/a	n/a	n/a	n/a	n/a	n/a	n/a	n/a	fixation
288313.48733612453	2750.0	n/a	536	89	2750	1631.51266388	stim	stop-signal	325	835236	0.0-15.17-1.17	beast_fmri_test	276	832789,/,833466,/,834144,/,834826,/,835504,/,836186,/,836865,/	t,t,t,t,t,t,t	<img class = center src='/static/experiments/beast_fmri_test/images/D.png'></img>	71,89	2750.0	test	<img class = center src='/static/experiments/beast_fmri_test/images/redD.png'></img>	go	2450.0	1.0	17.0	go	non-target	D	71,Index Finger	89,Middle Finger	300.0	300.0	2450.0	2450.0	1.0	300.0	1.0	n/a	go_stim
291063.48733612453	1631.51266388	n/a	536	89	2750	1631.51266388	stim	stop-signal	325	835236	0.0-15.17-1.17	beast_fmri_test	276	832789,/,833466,/,834144,/,834826,/,835504,/,836186,/,836865,/	t,t,t,t,t,t,t	<img class = center src='/static/experiments/beast_fmri_test/images/D.png'></img>	71,89	2750.0	test	<img class = center src='/static/experiments/beast_fmri_test/images/redD.png'></img>	go	2450.0	1.0	17.0	go	non-target	D	71,Index Finger	89,Middle Finger	300.0	300.0	2450.0	2450.0	1.0	300.0	1.0	n/a	ITI
294862	500.0	n/a	-1	-1	500	0.0	fixation	poldrack-single-stim	326	837403	0.0-15.18-0.18	beast_fmri_test	276	n/a	n/a	<div class = centerbox2><div class = fixation>+</div></div>	none	500.0	test	n/a	n/a	n/a	n/a	n/a	n/a	n/a	n/a	n/a	n/a	n/a	n/a	n/a	n/a	n/a	n/a	n/a	n/a	fixation
294820.93207053002	2750.0	n/a	545	89	2750	43.06792947	stim	stop-signal	327	840155	0.0-15.18-1.18	beast_fmri_test	276	837549,/,838224,/,838906,/,839585,/	t,t,t,t	<img class = center src='/static/experiments/beast_fmri_test/images/P.png'></img>	71,89	2750.0	test	<img class = center src='/static/experiments/beast_fmri_test/images/redP.png'></img>	go	2450.0	1.0	18.0	go	non-target	P	71,Index Finger	89,Middle Finger	300.0	300.0	2450.0	2450.0	1.0	300.0	1.0	n/a	go_stim
297570.93207053002	43.06792947	n/a	545	89	2750	43.06792947	stim	stop-signal	327	840155	0.0-15.18-1.18	beast_fmri_test	276	837549,/,838224,/,838906,/,839585,/	t,t,t,t	<img class = center src='/static/experiments/beast_fmri_test/images/P.png'></img>	71,89	2750.0	test	<img class = center src='/static/experiments/beast_fmri_test/images/redP.png'></img>	go	2450.0	1.0	18.0	go	non-target	P	71,Index Finger	89,Middle Finger	300.0	300.0	2450.0	2450.0	1.0	300.0	1.0	n/a	ITI
298197	500.0	n/a	-1	-1	500	0.0	fixation	poldrack-single-stim	328	840738	0.0-15.19-0.19	beast_fmri_test	276	840266,/	t	<div class = centerbox2><div class = fixation>+</div></div>	none	500.0	test	n/a	n/a	n/a	n/a	n/a	n/a	n/a	n/a	n/a	n/a	n/a	n/a	n/a	n/a	n/a	n/a	n/a	n/a	fixation
298176.4792413559	2750.0	n/a	660	71	2750	21.5207586441	stim	stop-signal	329	843489	0.0-15.19-1.19	beast_fmri_test	276	840946,/,841625,/,842305,/,842986,/	t,t,t,t	<img class = center src='/static/experiments/beast_fmri_test/images/P.png'></img>	71,89	2750.0	test	<img class = center src='/static/experiments/beast_fmri_test/images/redP.png'></img>	go	2450.0	1.0	19.0	go	target	P	71,Index Finger	89,Middle Finger	300.0	300.0	2450.0	2450.0	1.0	300.0	1.0	n/a	go_stim
300926.4792413559	21.5207586441	n/a	660	71	2750	21.5207586441	stim	stop-signal	329	843489	0.0-15.19-1.19	beast_fmri_test	276	840946,/,841625,/,842305,/,842986,/	t,t,t,t	<img class = center src='/static/experiments/beast_fmri_test/images/P.png'></img>	71,89	2750.0	test	<img class = center src='/static/experiments/beast_fmri_test/images/redP.png'></img>	go	2450.0	1.0	19.0	go	target	P	71,Index Finger	89,Middle Finger	300.0	300.0	2450.0	2450.0	1.0	300.0	1.0	n/a	ITI
301501	500.0	n/a	-1	-1	500	0.0	fixation	poldrack-single-stim	330	844042	0.0-15.20-0.20	beast_fmri_test	276	843665,/	t	<div class = centerbox2><div class = fixation>+</div></div>	none	500.0	test	n/a	n/a	n/a	n/a	n/a	n/a	n/a	n/a	n/a	n/a	n/a	n/a	n/a	n/a	n/a	n/a	n/a	n/a	fixation
300523.26134201139	2750.0	n/a	569	89	2750	976.738657989	stim	stop-signal	331	846791	0.0-15.20-1.20	beast_fmri_test	276	844342,/,845020,/,845701,/,846381,/,847062,/,847741,/	t,t,t,t,t,t	<img class = center src='/static/experiments/beast_fmri_test/images/B.png'></img>	71,89	2750.0	test	<img class = center src='/static/experiments/beast_fmri_test/images/redB.png'></img>	go	2450.0	1.0	20.0	go	non-target	B	71,Index Finger	89,Middle Finger	300.0	300.0	2450.0	2450.0	1.0	300.0	1.0	n/a	go_stim
303273.26134201139	976.738657989	n/a	569	89	2750	976.738657989	stim	stop-signal	331	846791	0.0-15.20-1.20	beast_fmri_test	276	844342,/,845020,/,845701,/,846381,/,847062,/,847741,/	t,t,t,t,t,t	<img class = center src='/static/experiments/beast_fmri_test/images/B.png'></img>	71,89	2750.0	test	<img class = center src='/static/experiments/beast_fmri_test/images/redB.png'></img>	go	2450.0	1.0	20.0	go	non-target	B	71,Index Finger	89,Middle Finger	300.0	300.0	2450.0	2450.0	1.0	300.0	1.0	n/a	ITI
305763	500.0	n/a	-1	-1	500	0.0	fixation	poldrack-single-stim	332	848304	0.0-15.21-0.21	beast_fmri_test	276	n/a	n/a	<div class = centerbox2><div class = fixation>+</div></div>	none	500.0	test	n/a	n/a	n/a	n/a	n/a	n/a	n/a	n/a	n/a	n/a	n/a	n/a	n/a	n/a	n/a	n/a	n/a	n/a	fixation
305563.97180066456	2750.0	n/a	401	71	2750	202.028199335	stim	stop-signal	333	851057	0.0-15.21-1.21	beast_fmri_test	276	848421,/,849100,/,849781,/,850461,/,851139,/	t,t,t,t,t	<img class = center src='/static/experiments/beast_fmri_test/images/B.png'></img>	71,89	2750.0	test	<img class = center src='/static/experiments/beast_fmri_test/images/redB.png'></img>	go	2450.0	1.0	21.0	go	target	B	71,Index Finger	89,Middle Finger	300.0	300.0	2450.0	2450.0	1.0	300.0	1.0	n/a	go_stim
308313.97180066456	202.028199335	n/a	401	71	2750	202.028199335	stim	stop-signal	333	851057	0.0-15.21-1.21	beast_fmri_test	276	848421,/,849100,/,849781,/,850461,/,851139,/	t,t,t,t,t	<img class = center src='/static/experiments/beast_fmri_test/images/B.png'></img>	71,89	2750.0	test	<img class = center src='/static/experiments/beast_fmri_test/images/redB.png'></img>	go	2450.0	1.0	21.0	go	target	B	71,Index Finger	89,Middle Finger	300.0	300.0	2450.0	2450.0	1.0	300.0	1.0	n/a	ITI
309257	500.0	n/a	-1	-1	500	0.0	fixation	poldrack-single-stim	334	851798	0.0-15.22-0.22	beast_fmri_test	276	n/a	n/a	<div class = centerbox2><div class = fixation>+</div></div>	none	500.0	test	n/a	n/a	n/a	n/a	n/a	n/a	n/a	n/a	n/a	n/a	n/a	n/a	n/a	n/a	n/a	n/a	n/a	n/a	fixation
308951.5354288352	2750.0	n/a	882	71	2750	303.464571165	stim	stop-signal	335	854546	0.0-15.22-1.22	beast_fmri_test	276	851821,/,852500,/,853182,/,853857,/,854536,/	t,t,t,t,t	<img class = center src='/static/experiments/beast_fmri_test/images/B.png'></img>	71,89	2750.0	test	<img class = center src='/static/experiments/beast_fmri_test/images/redB.png'></img>	go	2450.0	1.0	22.0	go	target	B	71,Index Finger	89,Middle Finger	300.0	300.0	2450.0	2450.0	1.0	300.0	1.0	n/a	go_stim
311701.5354288352	303.464571165	n/a	882	71	2750	303.464571165	stim	stop-signal	335	854546	0.0-15.22-1.22	beast_fmri_test	276	851821,/,852500,/,853182,/,853857,/,854536,/	t,t,t,t,t	<img class = center src='/static/experiments/beast_fmri_test/images/B.png'></img>	71,89	2750.0	test	<img class = center src='/static/experiments/beast_fmri_test/images/redB.png'></img>	go	2450.0	1.0	22.0	go	target	B	71,Index Finger	89,Middle Finger	300.0	300.0	2450.0	2450.0	1.0	300.0	1.0	n/a	ITI
312845	500.0	n/a	-1	-1	500	0.0	fixation	poldrack-single-stim	336	855386	0.0-15.23-0.23	beast_fmri_test	276	855216,/	t	<div class = centerbox2><div class = fixation>+</div></div>	none	500.0	test	n/a	n/a	n/a	n/a	n/a	n/a	n/a	n/a	n/a	n/a	n/a	n/a	n/a	n/a	n/a	n/a	n/a	n/a	fixation
312066.62074556272	2750.0	n/a	552	89	2750	781.379254437	stim	stop-signal	337	858139	0.0-15.23-1.23	beast_fmri_test	276	855895,/,856576,/,857255,/,857935,/,858615,/	t,t,t,t,t	<img class = center src='/static/experiments/beast_fmri_test/images/T.png'></img>	71,89	2750.0	test	<img class = center src='/static/experiments/beast_fmri_test/images/redT.png'></img>	go	2450.0	1.0	23.0	go	non-target	T	71,Index Finger	89,Middle Finger	300.0	300.0	2450.0	2450.0	1.0	300.0	1.0	n/a	go_stim
314816.62074556272	781.379254437	n/a	552	89	2750	781.379254437	stim	stop-signal	337	858139	0.0-15.23-1.23	beast_fmri_test	276	855895,/,856576,/,857255,/,857935,/,858615,/	t,t,t,t,t	<img class = center src='/static/experiments/beast_fmri_test/images/T.png'></img>	71,89	2750.0	test	<img class = center src='/static/experiments/beast_fmri_test/images/redT.png'></img>	go	2450.0	1.0	23.0	go	non-target	T	71,Index Finger	89,Middle Finger	300.0	300.0	2450.0	2450.0	1.0	300.0	1.0	n/a	ITI
316914	500.0	n/a	-1	-1	500	0.0	fixation	poldrack-single-stim	338	859455	0.0-15.24-0.24	beast_fmri_test	276	859296,/	t	<div class = centerbox2><div class = fixation>+</div></div>	none	500.0	test	n/a	n/a	n/a	n/a	n/a	n/a	n/a	n/a	n/a	n/a	n/a	n/a	n/a	n/a	n/a	n/a	n/a	n/a	fixation
316683.77972762519	2750.0	n/a	592	89	2750	232.220272375	stim	stop-signal	339	862207	0.0-15.24-1.24	beast_fmri_test	276	859975,/,860655,/,861336,/,862017,/	t,t,t,t	<img class = center src='/static/experiments/beast_fmri_test/images/V.png'></img>	71,89	2750.0	test	<img class = center src='/static/experiments/beast_fmri_test/images/redV.png'></img>	go	2450.0	1.0	24.0	go	non-target	V	71,Index Finger	89,Middle Finger	300.0	300.0	2450.0	2450.0	1.0	300.0	1.0	n/a	go_stim
