onset	duration	"“text"""	rt	key_press	block_duration	timing_post_trial	trial_id	trial_type	trial_index	time_elapsed	internal_node_id	exp_id	subject_id	trigger_times	triggers	stimulus	possible_responses	stim_duration	exp_stage	SS_stimulus	SS_trial_type	SS_duration	load	trial_num	stop_trial_type	adaptive_trial_type	stim	yes_response_key	no_response_key	SSD_target	SSD_non_target	SSTarget	SSNonTarget	go_acc	SS_delay	adaptive_acc	stop_acc	new_trial_type
test	10880	n/a	-1	-1	10880	0.0	practice-no-stop-feedback	poldrack-single-stim	384	1078203	0.0-18.0	beast_fmri_test	276	1067325,/,1068005,/,1068686,/,1069366,/,1070046,/,1070726,/,1071406,/,1072086,/,1072766,/,1073445,/,1074122,/,1074802,/,1075481,/,1076160,/,1076840,/,1077521,/,1078202,/	t,t,t,t,t,t,t,t,t,t,t,t,t,t,t,t,t	"<div class = ""centerbox""><p class = ""block-text"">Your delay is 1 trials.</p><p class = block-text>Please wait for the scanner to start the block</p></div>"	77	10880.0	n/a	n/a	n/a	n/a	n/a	n/a	n/a	n/a	n/a	n/a	n/a	n/a	n/a	n/a	n/a	n/a	n/a	n/a	n/a	start_functional_block
11380	500	n/a	-1	-1	500	0.0	fixation	poldrack-single-stim	385	1078705	0.0-19.0-0.0	beast_fmri_test	276	n/a	n/a	<div class = centerbox2><div class = fixation>+</div></div>	none	500.0	test	n/a	n/a	n/a	n/a	n/a	n/a	n/a	n/a	n/a	n/a	n/a	n/a	n/a	n/a	n/a	n/a	n/a	n/a	fixation
10716.291795104044	2750	n/a	706	89	2750	666.708204896	stim	stop-signal	386	1081458	0.0-19.0-1.0	beast_fmri_test	276	1078882,/,1079561,/,1080240,/,1080922,/,1081601,/	t,t,t,t,t	<img class = center src='/static/experiments/beast_fmri_test/images/B.png'></img>	71,89	2750.0	test	<img class = center src='/static/experiments/beast_fmri_test/images/redB.png'></img>	go	-1.0	1.0	0.0	go	temp-non-target	B	71,Index Finger	89,Middle Finger	200.0	0.0	2500.0	2750.0	0.0	n/a	n/a	n/a	go_stim
13466.291795104044	666.70820489598839	n/a	706	89	2750	666.708204896	stim	stop-signal	386	1081458	0.0-19.0-1.0	beast_fmri_test	276	1078882,/,1079561,/,1080240,/,1080922,/,1081601,/	t,t,t,t,t	<img class = center src='/static/experiments/beast_fmri_test/images/B.png'></img>	71,89	2750.0	test	<img class = center src='/static/experiments/beast_fmri_test/images/redB.png'></img>	go	-1.0	1.0	0.0	go	temp-non-target	B	71,Index Finger	89,Middle Finger	200.0	0.0	2500.0	2750.0	0.0	n/a	n/a	n/a	ITI
15348	500	n/a	-1	-1	500	0.0	fixation	poldrack-single-stim	387	1082673	0.0-19.1-0.1	beast_fmri_test	276	1082280,/	t	<div class = centerbox2><div class = fixation>+</div></div>	none	500.0	test	n/a	n/a	n/a	n/a	n/a	n/a	n/a	n/a	n/a	n/a	n/a	n/a	n/a	n/a	n/a	n/a	n/a	n/a	fixation
15276.588773997733	2750	n/a	535	89	2750	70.4112260023	stim	stop-signal	388	1085422	0.0-19.1-1.1	beast_fmri_test	276	1082962,/,1083639,/,1084318,/,1084997,/	t,t,t,t	<img class = center src='/static/experiments/beast_fmri_test/images/V.png'></img>	71,89	2750.0	test	<img class = center src='/static/experiments/beast_fmri_test/images/redV.png'></img>	go	2750.0	1.0	1.0	go	non-target	V	71,Index Finger	89,Middle Finger	200.0	0.0	2500.0	2750.0	1.0	0.0	1.0	n/a	go_stim
18026.588773997733	70.411226002251823	n/a	535	89	2750	70.4112260023	stim	stop-signal	388	1085422	0.0-19.1-1.1	beast_fmri_test	276	1082962,/,1083639,/,1084318,/,1084997,/	t,t,t,t	<img class = center src='/static/experiments/beast_fmri_test/images/V.png'></img>	71,89	2750.0	test	<img class = center src='/static/experiments/beast_fmri_test/images/redV.png'></img>	go	2750.0	1.0	1.0	go	non-target	V	71,Index Finger	89,Middle Finger	200.0	0.0	2500.0	2750.0	1.0	0.0	1.0	n/a	ITI
18711	500	n/a	-1	-1	500	0.0	fixation	poldrack-single-stim	389	1086036	0.0-19.2-0.2	beast_fmri_test	276	1085676,/	t	<div class = centerbox2><div class = fixation>+</div></div>	none	500.0	test	n/a	n/a	n/a	n/a	n/a	n/a	n/a	n/a	n/a	n/a	n/a	n/a	n/a	n/a	n/a	n/a	n/a	n/a	fixation
17962.763160847826	2750	n/a	497	89	2750	751.236839152	stim	stop-signal	390	1088789	0.0-19.2-1.2	beast_fmri_test	276	1086356,/,1087035,/,1087717,/,1088397,/,1089077,/	t,t,t,t,t	<img class = center src='/static/experiments/beast_fmri_test/images/B.png'></img>	71,89	2750.0	test	<img class = center src='/static/experiments/beast_fmri_test/images/redB.png'></img>	go	2750.0	1.0	2.0	go	non-target	B	71,Index Finger	89,Middle Finger	200.0	0.0	2500.0	2750.0	1.0	0.0	1.0	n/a	go_stim
20712.763160847826	751.23683915224319	n/a	497	89	2750	751.236839152	stim	stop-signal	390	1088789	0.0-19.2-1.2	beast_fmri_test	276	1086356,/,1087035,/,1087717,/,1088397,/,1089077,/	t,t,t,t,t	<img class = center src='/static/experiments/beast_fmri_test/images/B.png'></img>	71,89	2750.0	test	<img class = center src='/static/experiments/beast_fmri_test/images/redB.png'></img>	go	2750.0	1.0	2.0	go	non-target	B	71,Index Finger	89,Middle Finger	200.0	0.0	2500.0	2750.0	1.0	0.0	1.0	n/a	ITI
22769	500	n/a	-1	-1	500	0.0	fixation	poldrack-single-stim	391	1090094	0.0-19.3-0.3	beast_fmri_test	276	1089756,/	t	<div class = centerbox2><div class = fixation>+</div></div>	none	500.0	test	n/a	n/a	n/a	n/a	n/a	n/a	n/a	n/a	n/a	n/a	n/a	n/a	n/a	n/a	n/a	n/a	n/a	n/a	fixation
22309.809351831442	0.0	n/a	506	89	2750	463.190648168	stim	stop-signal	392	1092848	0.0-19.3-1.3	beast_fmri_test	276	1090436,/,1091116,/,1091795,/,1092475,/,1093155,/	t,t,t,t,t	<img class = center src='/static/experiments/beast_fmri_test/images/P.png'></img>	71,89	2750.0	test	<img class = center src='/static/experiments/beast_fmri_test/images/redP.png'></img>	stop	2750.0	1.0	3.0	stop	non-target	P	71,Index Finger	89,Middle Finger	200.0	0.0	2500.0	2750.0	0.0	0.0	n/a	0.0	go_stim
25059.809351831442	2750.0	n/a	506	89	2750	463.190648168	stim	stop-signal	392	1092848	0.0-19.3-1.3	beast_fmri_test	276	1090436,/,1091116,/,1091795,/,1092475,/,1093155,/	t,t,t,t,t	<img class = center src='/static/experiments/beast_fmri_test/images/P.png'></img>	71,89	2750.0	test	<img class = center src='/static/experiments/beast_fmri_test/images/redP.png'></img>	stop	2750.0	1.0	3.0	stop	non-target	P	71,Index Finger	89,Middle Finger	200.0	0.0	2500.0	2750.0	0.0	0.0	n/a	0.0	stop_stim
25059.809351831442	463.19064816849146	n/a	506	89	2750	463.190648168	stim	stop-signal	392	1092848	0.0-19.3-1.3	beast_fmri_test	276	1090436,/,1091116,/,1091795,/,1092475,/,1093155,/	t,t,t,t,t	<img class = center src='/static/experiments/beast_fmri_test/images/P.png'></img>	71,89	2750.0	test	<img class = center src='/static/experiments/beast_fmri_test/images/redP.png'></img>	stop	2750.0	1.0	3.0	stop	non-target	P	71,Index Finger	89,Middle Finger	200.0	0.0	2500.0	2750.0	0.0	0.0	n/a	0.0	ITI
26527	500	n/a	-1	-1	500	0.0	fixation	poldrack-single-stim	393	1093852	0.0-19.4-0.4	beast_fmri_test	276	1093833,/	t	<div class = centerbox2><div class = fixation>+</div></div>	none	500.0	test	n/a	n/a	n/a	n/a	n/a	n/a	n/a	n/a	n/a	n/a	n/a	n/a	n/a	n/a	n/a	n/a	n/a	n/a	fixation
26313.191570578841	2750	n/a	514	71	2750	216.808429421	stim	stop-signal	394	1096605	0.0-19.4-1.4	beast_fmri_test	276	1094511,/,1095192,/,1095871,/,1096550,/	t,t,t,t	<img class = center src='/static/experiments/beast_fmri_test/images/P.png'></img>	71,89	2750.0	test	<img class = center src='/static/experiments/beast_fmri_test/images/redP.png'></img>	go	2550.0	1.0	4.0	go	target	P	71,Index Finger	89,Middle Finger	200.0	0.0	2550.0	2750.0	1.0	200.0	1.0	n/a	go_stim
29063.191570578841	216.80842942112687	n/a	514	71	2750	216.808429421	stim	stop-signal	394	1096605	0.0-19.4-1.4	beast_fmri_test	276	1094511,/,1095192,/,1095871,/,1096550,/	t,t,t,t	<img class = center src='/static/experiments/beast_fmri_test/images/P.png'></img>	71,89	2750.0	test	<img class = center src='/static/experiments/beast_fmri_test/images/redP.png'></img>	go	2550.0	1.0	4.0	go	target	P	71,Index Finger	89,Middle Finger	200.0	0.0	2550.0	2750.0	1.0	200.0	1.0	n/a	ITI
30038	500	n/a	-1	-1	500	0.0	fixation	poldrack-single-stim	395	1097363	0.0-19.5-0.5	beast_fmri_test	276	1097232,/	t	<div class = centerbox2><div class = fixation>+</div></div>	none	500.0	test	n/a	n/a	n/a	n/a	n/a	n/a	n/a	n/a	n/a	n/a	n/a	n/a	n/a	n/a	n/a	n/a	n/a	n/a	fixation
29614.699677238939	2750	n/a	602	89	2750	426.300322761	stim	stop-signal	396	1100116	0.0-19.5-1.5	beast_fmri_test	276	1097912,/,1098591,/,1099272,/,1099952,/	t,t,t,t	<img class = center src='/static/experiments/beast_fmri_test/images/D.png'></img>	71,89	2750.0	test	<img class = center src='/static/experiments/beast_fmri_test/images/redD.png'></img>	go	2750.0	1.0	5.0	go	non-target	D	71,Index Finger	89,Middle Finger	200.0	0.0	2550.0	2750.0	1.0	0.0	1.0	n/a	go_stim
32364.699677238939	426.30032276117669	n/a	602	89	2750	426.300322761	stim	stop-signal	396	1100116	0.0-19.5-1.5	beast_fmri_test	276	1097912,/,1098591,/,1099272,/,1099952,/	t,t,t,t	<img class = center src='/static/experiments/beast_fmri_test/images/D.png'></img>	71,89	2750.0	test	<img class = center src='/static/experiments/beast_fmri_test/images/redD.png'></img>	go	2750.0	1.0	5.0	go	non-target	D	71,Index Finger	89,Middle Finger	200.0	0.0	2550.0	2750.0	1.0	0.0	1.0	n/a	ITI
33762	500	n/a	-1	-1	500	0.0	fixation	poldrack-single-stim	397	1101087	0.0-19.6-0.6	beast_fmri_test	276	1100631,/	t	<div class = centerbox2><div class = fixation>+</div></div>	none	500.0	test	n/a	n/a	n/a	n/a	n/a	n/a	n/a	n/a	n/a	n/a	n/a	n/a	n/a	n/a	n/a	n/a	n/a	n/a	fixation
33458.937518126098	2750	n/a	627	89	2750	306.062481874	stim	stop-signal	398	1103840	0.0-19.6-1.6	beast_fmri_test	276	1101313,/,1101992,/,1102673,/,1103352,/,1104033,/	t,t,t,t,t	<img class = center src='/static/experiments/beast_fmri_test/images/B.png'></img>	71,89	2750.0	test	<img class = center src='/static/experiments/beast_fmri_test/images/redB.png'></img>	go	2750.0	1.0	6.0	go	non-target	B	71,Index Finger	89,Middle Finger	200.0	0.0	2550.0	2750.0	1.0	0.0	1.0	n/a	go_stim
36208.937518126098	306.06248187388371	n/a	627	89	2750	306.062481874	stim	stop-signal	398	1103840	0.0-19.6-1.6	beast_fmri_test	276	1101313,/,1101992,/,1102673,/,1103352,/,1104033,/	t,t,t,t,t	<img class = center src='/static/experiments/beast_fmri_test/images/B.png'></img>	71,89	2750.0	test	<img class = center src='/static/experiments/beast_fmri_test/images/redB.png'></img>	go	2750.0	1.0	6.0	go	non-target	B	71,Index Finger	89,Middle Finger	200.0	0.0	2550.0	2750.0	1.0	0.0	1.0	n/a	ITI
37363	500	n/a	-1	-1	500	0.0	fixation	poldrack-single-stim	399	1104688	0.0-19.7-0.7	beast_fmri_test	276	n/a	n/a	<div class = centerbox2><div class = fixation>+</div></div>	none	500.0	test	n/a	n/a	n/a	n/a	n/a	n/a	n/a	n/a	n/a	n/a	n/a	n/a	n/a	n/a	n/a	n/a	n/a	n/a	fixation
37223.580698425183	0.0	n/a	635	89	2750	142.419301575	stim	stop-signal	400	1107441	0.0-19.7-1.7	beast_fmri_test	276	1104712,/,1105391,/,1106073,/,1106752,/,1107432,/	t,t,t,t,t	<img class = center src='/static/experiments/beast_fmri_test/images/P.png'></img>	71,89	2750.0	test	<img class = center src='/static/experiments/beast_fmri_test/images/redP.png'></img>	stop	2750.0	1.0	7.0	stop	non-target	P	71,Index Finger	89,Middle Finger	200.0	0.0	2550.0	2750.0	0.0	0.0	n/a	0.0	go_stim
39973.580698425183	2750.0	n/a	635	89	2750	142.419301575	stim	stop-signal	400	1107441	0.0-19.7-1.7	beast_fmri_test	276	1104712,/,1105391,/,1106073,/,1106752,/,1107432,/	t,t,t,t,t	<img class = center src='/static/experiments/beast_fmri_test/images/P.png'></img>	71,89	2750.0	test	<img class = center src='/static/experiments/beast_fmri_test/images/redP.png'></img>	stop	2750.0	1.0	7.0	stop	non-target	P	71,Index Finger	89,Middle Finger	200.0	0.0	2550.0	2750.0	0.0	0.0	n/a	0.0	stop_stim
39973.580698425183	142.41930157487238	n/a	635	89	2750	142.419301575	stim	stop-signal	400	1107441	0.0-19.7-1.7	beast_fmri_test	276	1104712,/,1105391,/,1106073,/,1106752,/,1107432,/	t,t,t,t,t	<img class = center src='/static/experiments/beast_fmri_test/images/P.png'></img>	71,89	2750.0	test	<img class = center src='/static/experiments/beast_fmri_test/images/redP.png'></img>	stop	2750.0	1.0	7.0	stop	non-target	P	71,Index Finger	89,Middle Finger	200.0	0.0	2550.0	2750.0	0.0	0.0	n/a	0.0	ITI
40806	500	n/a	-1	-1	500	0.0	fixation	poldrack-single-stim	401	1108131	0.0-19.8-0.8	beast_fmri_test	276	1108113,/	t	<div class = centerbox2><div class = fixation>+</div></div>	none	500.0	test	n/a	n/a	n/a	n/a	n/a	n/a	n/a	n/a	n/a	n/a	n/a	n/a	n/a	n/a	n/a	n/a	n/a	n/a	fixation
40664.24256318179	2750	n/a	856	71	2750	143.757436818	stim	stop-signal	402	1110883	0.0-19.8-1.8	beast_fmri_test	276	1108793,/,1109473,/,1110152,/,1110833,/	t,t,t,t	<img class = center src='/static/experiments/beast_fmri_test/images/V.png'></img>	71,89	2750.0	test	<img class = center src='/static/experiments/beast_fmri_test/images/redV.png'></img>	go	2750.0	1.0	8.0	go	non-target	V	71,Index Finger	89,Middle Finger	200.0	0.0	2550.0	2750.0	0.0	0.0	0.0	n/a	go_stim
43414.24256318179	143.75743681822158	n/a	856	71	2750	143.757436818	stim	stop-signal	402	1110883	0.0-19.8-1.8	beast_fmri_test	276	1108793,/,1109473,/,1110152,/,1110833,/	t,t,t,t	<img class = center src='/static/experiments/beast_fmri_test/images/V.png'></img>	71,89	2750.0	test	<img class = center src='/static/experiments/beast_fmri_test/images/redV.png'></img>	go	2750.0	1.0	8.0	go	non-target	V	71,Index Finger	89,Middle Finger	200.0	0.0	2550.0	2750.0	0.0	0.0	0.0	n/a	ITI
44247	500	n/a	-1	-1	500	0.0	fixation	poldrack-single-stim	403	1111572	0.0-19.9-0.9	beast_fmri_test	276	1111512,/	t	<div class = centerbox2><div class = fixation>+</div></div>	none	500.0	test	n/a	n/a	n/a	n/a	n/a	n/a	n/a	n/a	n/a	n/a	n/a	n/a	n/a	n/a	n/a	n/a	n/a	n/a	fixation
43916.120973369572	200.0	n/a	713	71	2750	329.87902663	stim	stop-signal	404	1114321	0.0-19.9-1.9	beast_fmri_test	276	1112192,/,1112873,/,1113552,/,1114228,/	t,t,t,t	<img class = center src='/static/experiments/beast_fmri_test/images/V.png'></img>	71,89	2750.0	test	<img class = center src='/static/experiments/beast_fmri_test/images/redV.png'></img>	stop	2550.0	1.0	9.0	stop	target	V	71,Index Finger	89,Middle Finger	200.0	0.0	2550.0	2750.0	0.0	200.0	n/a	0.0	go_stim
46466.120973369572	2550.0	n/a	713	71	2750	329.87902663	stim	stop-signal	404	1114321	0.0-19.9-1.9	beast_fmri_test	276	1112192,/,1112873,/,1113552,/,1114228,/	t,t,t,t	<img class = center src='/static/experiments/beast_fmri_test/images/V.png'></img>	71,89	2750.0	test	<img class = center src='/static/experiments/beast_fmri_test/images/redV.png'></img>	stop	2550.0	1.0	9.0	stop	target	V	71,Index Finger	89,Middle Finger	200.0	0.0	2550.0	2750.0	0.0	200.0	n/a	0.0	stop_stim
46666.120973369572	329.8790266303418	n/a	713	71	2750	329.87902663	stim	stop-signal	404	1114321	0.0-19.9-1.9	beast_fmri_test	276	1112192,/,1112873,/,1113552,/,1114228,/	t,t,t,t	<img class = center src='/static/experiments/beast_fmri_test/images/V.png'></img>	71,89	2750.0	test	<img class = center src='/static/experiments/beast_fmri_test/images/redV.png'></img>	stop	2550.0	1.0	9.0	stop	target	V	71,Index Finger	89,Middle Finger	200.0	0.0	2550.0	2750.0	0.0	200.0	n/a	0.0	ITI
47866	500	n/a	-1	-1	500	0.0	fixation	poldrack-single-stim	405	1115191	0.0-19.10-0.10	beast_fmri_test	276	1114907,/	t	<div class = centerbox2><div class = fixation>+</div></div>	none	500.0	test	n/a	n/a	n/a	n/a	n/a	n/a	n/a	n/a	n/a	n/a	n/a	n/a	n/a	n/a	n/a	n/a	n/a	n/a	fixation
47846.501001957338	150.0	n/a	659	71	2750	22.4989980427	stim	stop-signal	406	1117944	0.0-19.10-1.10	beast_fmri_test	276	1115587,/,1116268,/,1116948,/,1117628,/	t,t,t,t	<img class = center src='/static/experiments/beast_fmri_test/images/V.png'></img>	71,89	2750.0	test	<img class = center src='/static/experiments/beast_fmri_test/images/redV.png'></img>	stop	2600.0	1.0	10.0	stop	target	V	71,Index Finger	89,Middle Finger	150.0	0.0	2600.0	2750.0	0.0	150.0	n/a	0.0	go_stim
50446.501001957338	2600.0	n/a	659	71	2750	22.4989980427	stim	stop-signal	406	1117944	0.0-19.10-1.10	beast_fmri_test	276	1115587,/,1116268,/,1116948,/,1117628,/	t,t,t,t	<img class = center src='/static/experiments/beast_fmri_test/images/V.png'></img>	71,89	2750.0	test	<img class = center src='/static/experiments/beast_fmri_test/images/redV.png'></img>	stop	2600.0	1.0	10.0	stop	target	V	71,Index Finger	89,Middle Finger	150.0	0.0	2600.0	2750.0	0.0	150.0	n/a	0.0	stop_stim
50596.501001957338	22.498998042728147	n/a	659	71	2750	22.4989980427	stim	stop-signal	406	1117944	0.0-19.10-1.10	beast_fmri_test	276	1115587,/,1116268,/,1116948,/,1117628,/	t,t,t,t	<img class = center src='/static/experiments/beast_fmri_test/images/V.png'></img>	71,89	2750.0	test	<img class = center src='/static/experiments/beast_fmri_test/images/redV.png'></img>	stop	2600.0	1.0	10.0	stop	target	V	71,Index Finger	89,Middle Finger	150.0	0.0	2600.0	2750.0	0.0	150.0	n/a	0.0	ITI
51184	500	n/a	-1	-1	500	0.0	fixation	poldrack-single-stim	407	1118509	0.0-19.11-0.11	beast_fmri_test	276	1118308,/	t	<div class = centerbox2><div class = fixation>+</div></div>	none	500.0	test	n/a	n/a	n/a	n/a	n/a	n/a	n/a	n/a	n/a	n/a	n/a	n/a	n/a	n/a	n/a	n/a	n/a	n/a	fixation
49807.194374945946	0.0	n/a	598	89	2750	1380.80562505	stim	stop-signal	408	1121263	0.0-19.11-1.11	beast_fmri_test	276	1118987,/,1119667,/,1120347,/,1121028,/,1121708,/,1122386,/	t,t,t,t,t,t	<img class = center src='/static/experiments/beast_fmri_test/images/T.png'></img>	71,89	2750.0	test	<img class = center src='/static/experiments/beast_fmri_test/images/redT.png'></img>	stop	2750.0	1.0	11.0	stop	non-target	T	71,Index Finger	89,Middle Finger	100.0	0.0	2600.0	2750.0	0.0	0.0	n/a	0.0	go_stim
52557.194374945946	2750.0	n/a	598	89	2750	1380.80562505	stim	stop-signal	408	1121263	0.0-19.11-1.11	beast_fmri_test	276	1118987,/,1119667,/,1120347,/,1121028,/,1121708,/,1122386,/	t,t,t,t,t,t	<img class = center src='/static/experiments/beast_fmri_test/images/T.png'></img>	71,89	2750.0	test	<img class = center src='/static/experiments/beast_fmri_test/images/redT.png'></img>	stop	2750.0	1.0	11.0	stop	non-target	T	71,Index Finger	89,Middle Finger	100.0	0.0	2600.0	2750.0	0.0	0.0	n/a	0.0	stop_stim
52557.194374945946	1380.8056250540399	n/a	598	89	2750	1380.80562505	stim	stop-signal	408	1121263	0.0-19.11-1.11	beast_fmri_test	276	1118987,/,1119667,/,1120347,/,1121028,/,1121708,/,1122386,/	t,t,t,t,t,t	<img class = center src='/static/experiments/beast_fmri_test/images/T.png'></img>	71,89	2750.0	test	<img class = center src='/static/experiments/beast_fmri_test/images/redT.png'></img>	stop	2750.0	1.0	11.0	stop	non-target	T	71,Index Finger	89,Middle Finger	100.0	0.0	2600.0	2750.0	0.0	0.0	n/a	0.0	ITI
55861	500	n/a	-1	-1	500	0.0	fixation	poldrack-single-stim	409	1123186	0.0-19.12-0.12	beast_fmri_test	276	1123067,/	t	<div class = centerbox2><div class = fixation>+</div></div>	none	500.0	test	n/a	n/a	n/a	n/a	n/a	n/a	n/a	n/a	n/a	n/a	n/a	n/a	n/a	n/a	n/a	n/a	n/a	n/a	fixation
55759.771912610624	2750	n/a	524	89	2750	101.228087389	stim	stop-signal	410	1125936	0.0-19.12-1.12	beast_fmri_test	276	1123743,/,1124422,/,1125102,/,1125781,/	t,t,t,t	<img class = center src='/static/experiments/beast_fmri_test/images/P.png'></img>	71,89	2750.0	test	<img class = center src='/static/experiments/beast_fmri_test/images/redP.png'></img>	go	2750.0	1.0	12.0	go	non-target	P	71,Index Finger	89,Middle Finger	100.0	0.0	2600.0	2750.0	1.0	0.0	1.0	n/a	go_stim
58509.771912610624	101.22808738939804	n/a	524	89	2750	101.228087389	stim	stop-signal	410	1125936	0.0-19.12-1.12	beast_fmri_test	276	1123743,/,1124422,/,1125102,/,1125781,/	t,t,t,t	<img class = center src='/static/experiments/beast_fmri_test/images/P.png'></img>	71,89	2750.0	test	<img class = center src='/static/experiments/beast_fmri_test/images/redP.png'></img>	go	2750.0	1.0	12.0	go	non-target	P	71,Index Finger	89,Middle Finger	100.0	0.0	2600.0	2750.0	1.0	0.0	1.0	n/a	ITI
59257	500	n/a	-1	-1	500	0.0	fixation	poldrack-single-stim	411	1126582	0.0-19.13-0.13	beast_fmri_test	276	1126463,/	t	<div class = centerbox2><div class = fixation>+</div></div>	none	500.0	test	n/a	n/a	n/a	n/a	n/a	n/a	n/a	n/a	n/a	n/a	n/a	n/a	n/a	n/a	n/a	n/a	n/a	n/a	fixation
58697.201406349894	2750	n/a	1036	89	2750	563.79859365	stim	stop-signal	412	1129336	0.0-19.13-1.13	beast_fmri_test	276	1127143,/,1127823,/,1128503,/,1129182,/,1129862,/	t,t,t,t,t	<img class = center src='/static/experiments/beast_fmri_test/images/B.png'></img>	71,89	2750.0	test	<img class = center src='/static/experiments/beast_fmri_test/images/redB.png'></img>	go	2750.0	1.0	13.0	go	non-target	B	71,Index Finger	89,Middle Finger	100.0	0.0	2600.0	2750.0	1.0	0.0	1.0	n/a	go_stim
61447.201406349894	563.79859365014431	n/a	1036	89	2750	563.79859365	stim	stop-signal	412	1129336	0.0-19.13-1.13	beast_fmri_test	276	1127143,/,1127823,/,1128503,/,1129182,/,1129862,/	t,t,t,t,t	<img class = center src='/static/experiments/beast_fmri_test/images/B.png'></img>	71,89	2750.0	test	<img class = center src='/static/experiments/beast_fmri_test/images/redB.png'></img>	go	2750.0	1.0	13.0	go	non-target	B	71,Index Finger	89,Middle Finger	100.0	0.0	2600.0	2750.0	1.0	0.0	1.0	n/a	ITI
63126	500	n/a	-1	-1	500	0.0	fixation	poldrack-single-stim	413	1130451	0.0-19.14-0.14	beast_fmri_test	276	n/a	n/a	<div class = centerbox2><div class = fixation>+</div></div>	none	500.0	test	n/a	n/a	n/a	n/a	n/a	n/a	n/a	n/a	n/a	n/a	n/a	n/a	n/a	n/a	n/a	n/a	n/a	n/a	fixation
62897.138710542349	2750	n/a	627	89	2750	230.861289458	stim	stop-signal	414	1133203	0.0-19.14-1.14	beast_fmri_test	276	1130543,/,1131224,/,1131903,/,1132583,/,1133263,/	t,t,t,t,t	<img class = center src='/static/experiments/beast_fmri_test/images/D.png'></img>	71,89	2750.0	test	<img class = center src='/static/experiments/beast_fmri_test/images/redD.png'></img>	go	2750.0	1.0	14.0	go	non-target	D	71,Index Finger	89,Middle Finger	100.0	0.0	2600.0	2750.0	1.0	0.0	1.0	n/a	go_stim
65647.138710542349	230.86128945758571	n/a	627	89	2750	230.861289458	stim	stop-signal	414	1133203	0.0-19.14-1.14	beast_fmri_test	276	1130543,/,1131224,/,1131903,/,1132583,/,1133263,/	t,t,t,t,t	<img class = center src='/static/experiments/beast_fmri_test/images/D.png'></img>	71,89	2750.0	test	<img class = center src='/static/experiments/beast_fmri_test/images/redD.png'></img>	go	2750.0	1.0	14.0	go	non-target	D	71,Index Finger	89,Middle Finger	100.0	0.0	2600.0	2750.0	1.0	0.0	1.0	n/a	ITI
66652	500	n/a	-1	-1	500	0.0	fixation	poldrack-single-stim	415	1133977	0.0-19.15-0.15	beast_fmri_test	276	1133940,/	t	<div class = centerbox2><div class = fixation>+</div></div>	none	500.0	test	n/a	n/a	n/a	n/a	n/a	n/a	n/a	n/a	n/a	n/a	n/a	n/a	n/a	n/a	n/a	n/a	n/a	n/a	fixation
65827.848997817375	2750	n/a	668	89	2750	825.151002183	stim	stop-signal	416	1136728	0.0-19.15-1.15	beast_fmri_test	276	1134618,/,1135299,/,1135979,/,1136658,/,1137338,/	t,t,t,t,t	<img class = center src='/static/experiments/beast_fmri_test/images/B.png'></img>	71,89	2750.0	test	<img class = center src='/static/experiments/beast_fmri_test/images/redB.png'></img>	go	2750.0	1.0	15.0	go	non-target	B	71,Index Finger	89,Middle Finger	100.0	0.0	2600.0	2750.0	1.0	0.0	1.0	n/a	go_stim
68577.848997817375	825.15100218272232	n/a	668	89	2750	825.151002183	stim	stop-signal	416	1136728	0.0-19.15-1.15	beast_fmri_test	276	1134618,/,1135299,/,1135979,/,1136658,/,1137338,/	t,t,t,t,t	<img class = center src='/static/experiments/beast_fmri_test/images/B.png'></img>	71,89	2750.0	test	<img class = center src='/static/experiments/beast_fmri_test/images/redB.png'></img>	go	2750.0	1.0	15.0	go	non-target	B	71,Index Finger	89,Middle Finger	100.0	0.0	2600.0	2750.0	1.0	0.0	1.0	n/a	ITI
70781	500	n/a	-1	-1	500	0.0	fixation	poldrack-single-stim	417	1138106	0.0-19.16-0.16	beast_fmri_test	276	1138018,/	t	<div class = centerbox2><div class = fixation>+</div></div>	none	500.0	test	n/a	n/a	n/a	n/a	n/a	n/a	n/a	n/a	n/a	n/a	n/a	n/a	n/a	n/a	n/a	n/a	n/a	n/a	fixation
70701.129914227873	0.0	n/a	711	89	2750	83.870085772	stim	stop-signal	418	1140860	0.0-19.16-1.16	beast_fmri_test	276	1138698,/,1139377,/,1140059,/,1140739,/	t,t,t,t	<img class = center src='/static/experiments/beast_fmri_test/images/T.png'></img>	71,89	2750.0	test	<img class = center src='/static/experiments/beast_fmri_test/images/redT.png'></img>	stop	2750.0	1.0	16.0	stop	non-target	T	71,Index Finger	89,Middle Finger	100.0	0.0	2600.0	2750.0	0.0	0.0	n/a	0.0	go_stim
73451.129914227873	2750.0	n/a	711	89	2750	83.870085772	stim	stop-signal	418	1140860	0.0-19.16-1.16	beast_fmri_test	276	1138698,/,1139377,/,1140059,/,1140739,/	t,t,t,t	<img class = center src='/static/experiments/beast_fmri_test/images/T.png'></img>	71,89	2750.0	test	<img class = center src='/static/experiments/beast_fmri_test/images/redT.png'></img>	stop	2750.0	1.0	16.0	stop	non-target	T	71,Index Finger	89,Middle Finger	100.0	0.0	2600.0	2750.0	0.0	0.0	n/a	0.0	stop_stim
73451.129914227873	83.870085772025348	n/a	711	89	2750	83.870085772	stim	stop-signal	418	1140860	0.0-19.16-1.16	beast_fmri_test	276	1138698,/,1139377,/,1140059,/,1140739,/	t,t,t,t	<img class = center src='/static/experiments/beast_fmri_test/images/T.png'></img>	71,89	2750.0	test	<img class = center src='/static/experiments/beast_fmri_test/images/redT.png'></img>	stop	2750.0	1.0	16.0	stop	non-target	T	71,Index Finger	89,Middle Finger	100.0	0.0	2600.0	2750.0	0.0	0.0	n/a	0.0	ITI
74160	500	n/a	-1	-1	500	0.0	fixation	poldrack-single-stim	419	1141485	0.0-19.17-0.17	beast_fmri_test	276	1141417,/	t	<div class = centerbox2><div class = fixation>+</div></div>	none	500.0	test	n/a	n/a	n/a	n/a	n/a	n/a	n/a	n/a	n/a	n/a	n/a	n/a	n/a	n/a	n/a	n/a	n/a	n/a	fixation
73139.027028655168	0.0	n/a	914	89	2750	1021.97297134	stim	stop-signal	420	1144236	0.0-19.17-1.17	beast_fmri_test	276	1142094,/,1142772,/,1143452,/,1144134,/,1144813,/	t,t,t,t,t	<img class = center src='/static/experiments/beast_fmri_test/images/V.png'></img>	71,89	2750.0	test	<img class = center src='/static/experiments/beast_fmri_test/images/redV.png'></img>	stop	2750.0	1.0	17.0	stop	non-target	V	71,Index Finger	89,Middle Finger	100.0	0.0	2600.0	2750.0	0.0	0.0	n/a	0.0	go_stim
75889.027028655168	2750.0	n/a	914	89	2750	1021.97297134	stim	stop-signal	420	1144236	0.0-19.17-1.17	beast_fmri_test	276	1142094,/,1142772,/,1143452,/,1144134,/,1144813,/	t,t,t,t,t	<img class = center src='/static/experiments/beast_fmri_test/images/V.png'></img>	71,89	2750.0	test	<img class = center src='/static/experiments/beast_fmri_test/images/redV.png'></img>	stop	2750.0	1.0	17.0	stop	non-target	V	71,Index Finger	89,Middle Finger	100.0	0.0	2600.0	2750.0	0.0	0.0	n/a	0.0	stop_stim
75889.027028655168	1021.9729713447213	n/a	914	89	2750	1021.97297134	stim	stop-signal	420	1144236	0.0-19.17-1.17	beast_fmri_test	276	1142094,/,1142772,/,1143452,/,1144134,/,1144813,/	t,t,t,t,t	<img class = center src='/static/experiments/beast_fmri_test/images/V.png'></img>	71,89	2750.0	test	<img class = center src='/static/experiments/beast_fmri_test/images/redV.png'></img>	stop	2750.0	1.0	17.0	stop	non-target	V	71,Index Finger	89,Middle Finger	100.0	0.0	2600.0	2750.0	0.0	0.0	n/a	0.0	ITI
78476	500	n/a	-1	-1	500	0.0	fixation	poldrack-single-stim	421	1145801	0.0-19.18-0.18	beast_fmri_test	276	1145493,/	t	<div class = centerbox2><div class = fixation>+</div></div>	none	500.0	test	n/a	n/a	n/a	n/a	n/a	n/a	n/a	n/a	n/a	n/a	n/a	n/a	n/a	n/a	n/a	n/a	n/a	n/a	fixation
78217.303845558316	2750	n/a	567	71	2750	260.696154442	stim	stop-signal	422	1148553	0.0-19.18-1.18	beast_fmri_test	276	1146176,/,1146853,/,1147533,/,1148212,/	t,t,t,t	<img class = center src='/static/experiments/beast_fmri_test/images/V.png'></img>	71,89	2750.0	test	<img class = center src='/static/experiments/beast_fmri_test/images/redV.png'></img>	go	2650.0	1.0	18.0	go	target	V	71,Index Finger	89,Middle Finger	100.0	0.0	2650.0	2750.0	1.0	100.0	1.0	n/a	go_stim
80967.303845558316	260.69615444163503	n/a	567	71	2750	260.696154442	stim	stop-signal	422	1148553	0.0-19.18-1.18	beast_fmri_test	276	1146176,/,1146853,/,1147533,/,1148212,/	t,t,t,t	<img class = center src='/static/experiments/beast_fmri_test/images/V.png'></img>	71,89	2750.0	test	<img class = center src='/static/experiments/beast_fmri_test/images/redV.png'></img>	go	2650.0	1.0	18.0	go	target	V	71,Index Finger	89,Middle Finger	100.0	0.0	2650.0	2750.0	1.0	100.0	1.0	n/a	ITI
82037	500	n/a	-1	-1	500	0.0	fixation	poldrack-single-stim	423	1149362	0.0-19.19-0.19	beast_fmri_test	276	1148891,/	t	<div class = centerbox2><div class = fixation>+</div></div>	none	500.0	test	n/a	n/a	n/a	n/a	n/a	n/a	n/a	n/a	n/a	n/a	n/a	n/a	n/a	n/a	n/a	n/a	n/a	n/a	fixation
80865.307445100043	0.0	n/a	515	89	2750	1174.6925549	stim	stop-signal	424	1152115	0.0-19.19-1.19	beast_fmri_test	276	1149568,/,1150248,/,1150928,/,1151609,/,1152287,/,1152968,/	t,t,t,t,t,t	<img class = center src='/static/experiments/beast_fmri_test/images/P.png'></img>	71,89	2750.0	test	<img class = center src='/static/experiments/beast_fmri_test/images/redP.png'></img>	stop	2750.0	1.0	19.0	stop	non-target	P	71,Index Finger	89,Middle Finger	100.0	0.0	2650.0	2750.0	0.0	0.0	n/a	0.0	go_stim
83615.307445100043	2750.0	n/a	515	89	2750	1174.6925549	stim	stop-signal	424	1152115	0.0-19.19-1.19	beast_fmri_test	276	1149568,/,1150248,/,1150928,/,1151609,/,1152287,/,1152968,/	t,t,t,t,t,t	<img class = center src='/static/experiments/beast_fmri_test/images/P.png'></img>	71,89	2750.0	test	<img class = center src='/static/experiments/beast_fmri_test/images/redP.png'></img>	stop	2750.0	1.0	19.0	stop	non-target	P	71,Index Finger	89,Middle Finger	100.0	0.0	2650.0	2750.0	0.0	0.0	n/a	0.0	stop_stim
83615.307445100043	1174.6925548998806	n/a	515	89	2750	1174.6925549	stim	stop-signal	424	1152115	0.0-19.19-1.19	beast_fmri_test	276	1149568,/,1150248,/,1150928,/,1151609,/,1152287,/,1152968,/	t,t,t,t,t,t	<img class = center src='/static/experiments/beast_fmri_test/images/P.png'></img>	71,89	2750.0	test	<img class = center src='/static/experiments/beast_fmri_test/images/redP.png'></img>	stop	2750.0	1.0	19.0	stop	non-target	P	71,Index Finger	89,Middle Finger	100.0	0.0	2650.0	2750.0	0.0	0.0	n/a	0.0	ITI
86517	500	n/a	-1	-1	500	0.0	fixation	poldrack-single-stim	425	1153842	0.0-19.20-0.20	beast_fmri_test	276	1153649,/	t	<div class = centerbox2><div class = fixation>+</div></div>	none	500.0	test	n/a	n/a	n/a	n/a	n/a	n/a	n/a	n/a	n/a	n/a	n/a	n/a	n/a	n/a	n/a	n/a	n/a	n/a	fixation
83979.985268657329	2750	n/a	481	89	2750	2539.01473134	stim	stop-signal	426	1156594	0.0-19.20-1.20	beast_fmri_test	276	1154328,/,1155009,/,1155688,/,1156369,/,1157049,/,1157730,/,1158409,/,1159086,/	t,t,t,t,t,t,t,t	<img class = center src='/static/experiments/beast_fmri_test/images/D.png'></img>	71,89	2750.0	test	<img class = center src='/static/experiments/beast_fmri_test/images/redD.png'></img>	go	2750.0	1.0	20.0	go	non-target	D	71,Index Finger	89,Middle Finger	100.0	0.0	2650.0	2750.0	1.0	0.0	1.0	n/a	go_stim
86729.985268657329	2539.014731342701	n/a	481	89	2750	2539.01473134	stim	stop-signal	426	1156594	0.0-19.20-1.20	beast_fmri_test	276	1154328,/,1155009,/,1155688,/,1156369,/,1157049,/,1157730,/,1158409,/,1159086,/	t,t,t,t,t,t,t,t	<img class = center src='/static/experiments/beast_fmri_test/images/D.png'></img>	71,89	2750.0	test	<img class = center src='/static/experiments/beast_fmri_test/images/redD.png'></img>	go	2750.0	1.0	20.0	go	non-target	D	71,Index Finger	89,Middle Finger	100.0	0.0	2650.0	2750.0	1.0	0.0	1.0	n/a	ITI
92352	500	n/a	-1	-1	500	0.0	fixation	poldrack-single-stim	427	1159677	0.0-19.21-0.21	beast_fmri_test	276	n/a	n/a	<div class = centerbox2><div class = fixation>+</div></div>	none	500.0	test	n/a	n/a	n/a	n/a	n/a	n/a	n/a	n/a	n/a	n/a	n/a	n/a	n/a	n/a	n/a	n/a	n/a	n/a	fixation
91229.813963070046	2750	n/a	447	71	2750	1124.18603693	stim	stop-signal	428	1162429	0.0-19.21-1.21	beast_fmri_test	276	1159765,/,1160443,/,1161124,/,1161804,/,1162483,/,1163165,/	t,t,t,t,t,t	<img class = center src='/static/experiments/beast_fmri_test/images/D.png'></img>	71,89	2750.0	test	<img class = center src='/static/experiments/beast_fmri_test/images/redD.png'></img>	go	2650.0	1.0	21.0	go	target	D	71,Index Finger	89,Middle Finger	100.0	0.0	2650.0	2750.0	1.0	100.0	1.0	n/a	go_stim
93979.813963070046	1124.1860369298474	n/a	447	71	2750	1124.18603693	stim	stop-signal	428	1162429	0.0-19.21-1.21	beast_fmri_test	276	1159765,/,1160443,/,1161124,/,1161804,/,1162483,/,1163165,/	t,t,t,t,t,t	<img class = center src='/static/experiments/beast_fmri_test/images/D.png'></img>	71,89	2750.0	test	<img class = center src='/static/experiments/beast_fmri_test/images/redD.png'></img>	go	2650.0	1.0	21.0	go	target	D	71,Index Finger	89,Middle Finger	100.0	0.0	2650.0	2750.0	1.0	100.0	1.0	n/a	ITI
96783	500	n/a	-1	-1	500	0.0	fixation	poldrack-single-stim	429	1164108	0.0-19.22-0.22	beast_fmri_test	276	1163845,/	t	<div class = centerbox2><div class = fixation>+</div></div>	none	500.0	test	n/a	n/a	n/a	n/a	n/a	n/a	n/a	n/a	n/a	n/a	n/a	n/a	n/a	n/a	n/a	n/a	n/a	n/a	fixation
96750.356798257446	0.0	n/a	638	89	2750	34.6432017426	stim	stop-signal	430	1166860	0.0-19.22-1.22	beast_fmri_test	276	1164525,/,1165204,/,1165883,/,1166563,/	t,t,t,t	<img class = center src='/static/experiments/beast_fmri_test/images/B.png'></img>	71,89	2750.0	test	<img class = center src='/static/experiments/beast_fmri_test/images/redB.png'></img>	stop	2750.0	1.0	22.0	stop	non-target	B	71,Index Finger	89,Middle Finger	100.0	0.0	2650.0	2750.0	0.0	0.0	n/a	0.0	go_stim
99500.356798257446	2750.0	n/a	638	89	2750	34.6432017426	stim	stop-signal	430	1166860	0.0-19.22-1.22	beast_fmri_test	276	1164525,/,1165204,/,1165883,/,1166563,/	t,t,t,t	<img class = center src='/static/experiments/beast_fmri_test/images/B.png'></img>	71,89	2750.0	test	<img class = center src='/static/experiments/beast_fmri_test/images/redB.png'></img>	stop	2750.0	1.0	22.0	stop	non-target	B	71,Index Finger	89,Middle Finger	100.0	0.0	2650.0	2750.0	0.0	0.0	n/a	0.0	stop_stim
99500.356798257446	34.643201742571179	n/a	638	89	2750	34.6432017426	stim	stop-signal	430	1166860	0.0-19.22-1.22	beast_fmri_test	276	1164525,/,1165204,/,1165883,/,1166563,/	t,t,t,t	<img class = center src='/static/experiments/beast_fmri_test/images/B.png'></img>	71,89	2750.0	test	<img class = center src='/static/experiments/beast_fmri_test/images/redB.png'></img>	stop	2750.0	1.0	22.0	stop	non-target	B	71,Index Finger	89,Middle Finger	100.0	0.0	2650.0	2750.0	0.0	0.0	n/a	0.0	ITI
100128	500	n/a	-1	-1	500	0.0	fixation	poldrack-single-stim	431	1167453	0.0-19.23-0.23	beast_fmri_test	276	1167245,/	t	<div class = centerbox2><div class = fixation>+</div></div>	none	500.0	test	n/a	n/a	n/a	n/a	n/a	n/a	n/a	n/a	n/a	n/a	n/a	n/a	n/a	n/a	n/a	n/a	n/a	n/a	fixation
100085.46568341693	2750	n/a	429	71	2750	41.534316583	stim	stop-signal	432	1170202	0.0-19.23-1.23	beast_fmri_test	276	1167925,/,1168602,/,1169280,/,1169960,/	t,t,t,t	<img class = center src='/static/experiments/beast_fmri_test/images/B.png'></img>	71,89	2750.0	test	<img class = center src='/static/experiments/beast_fmri_test/images/redB.png'></img>	go	2650.0	1.0	23.0	go	target	B	71,Index Finger	89,Middle Finger	100.0	0.0	2650.0	2750.0	1.0	100.0	1.0	n/a	go_stim
102835.46568341693	41.534316582998294	n/a	429	71	2750	41.534316583	stim	stop-signal	432	1170202	0.0-19.23-1.23	beast_fmri_test	276	1167925,/,1168602,/,1169280,/,1169960,/	t,t,t,t	<img class = center src='/static/experiments/beast_fmri_test/images/B.png'></img>	71,89	2750.0	test	<img class = center src='/static/experiments/beast_fmri_test/images/redB.png'></img>	go	2650.0	1.0	23.0	go	target	B	71,Index Finger	89,Middle Finger	100.0	0.0	2650.0	2750.0	1.0	100.0	1.0	n/a	ITI
103465	500	n/a	-1	-1	500	0.0	fixation	poldrack-single-stim	433	1170790	0.0-19.24-0.24	beast_fmri_test	276	1170639,/	t	<div class = centerbox2><div class = fixation>+</div></div>	none	500.0	test	n/a	n/a	n/a	n/a	n/a	n/a	n/a	n/a	n/a	n/a	n/a	n/a	n/a	n/a	n/a	n/a	n/a	n/a	fixation
102188.59580324264	2750	n/a	456	89	2750	1280.40419676	stim	stop-signal	434	1173544	0.0-19.24-1.24	beast_fmri_test	276	1171319,/,1171999,/,1172678,/,1173360,/,1174040,/,1174719,/	t,t,t,t,t,t	<img class = center src='/static/experiments/beast_fmri_test/images/D.png'></img>	71,89	2750.0	test	<img class = center src='/static/experiments/beast_fmri_test/images/redD.png'></img>	go	2750.0	1.0	24.0	go	non-target	D	71,Index Finger	89,Middle Finger	100.0	0.0	2650.0	2750.0	1.0	0.0	1.0	n/a	go_stim
104938.59580324264	1280.4041967574076	n/a	456	89	2750	1280.40419676	stim	stop-signal	434	1173544	0.0-19.24-1.24	beast_fmri_test	276	1171319,/,1171999,/,1172678,/,1173360,/,1174040,/,1174719,/	t,t,t,t,t,t	<img class = center src='/static/experiments/beast_fmri_test/images/D.png'></img>	71,89	2750.0	test	<img class = center src='/static/experiments/beast_fmri_test/images/redD.png'></img>	go	2750.0	1.0	24.0	go	non-target	D	71,Index Finger	89,Middle Finger	100.0	0.0	2650.0	2750.0	1.0	0.0	1.0	n/a	ITI
108048	500	n/a	-1	-1	500	0.0	fixation	poldrack-single-stim	435	1175373	0.0-19.25-0.25	beast_fmri_test	276	n/a	n/a	<div class = centerbox2><div class = fixation>+</div></div>	none	500.0	test	n/a	n/a	n/a	n/a	n/a	n/a	n/a	n/a	n/a	n/a	n/a	n/a	n/a	n/a	n/a	n/a	n/a	n/a	fixation
105828.46141157509	2750	n/a	670	71	2750	2221.53858842	stim	stop-signal	436	1178125	0.0-19.25-1.25	beast_fmri_test	276	1175398,/,1176079,/,1176760,/,1177439,/,1178120,/,1178797,/,1179473,/,1180154,/	t,t,t,t,t,t,t,t	<img class = center src='/static/experiments/beast_fmri_test/images/D.png'></img>	71,89	2750.0	test	<img class = center src='/static/experiments/beast_fmri_test/images/redD.png'></img>	go	2650.0	1.0	25.0	go	target	D	71,Index Finger	89,Middle Finger	100.0	0.0	2650.0	2750.0	1.0	100.0	1.0	n/a	go_stim
108578.46141157509	2221.5385884249458	n/a	670	71	2750	2221.53858842	stim	stop-signal	436	1178125	0.0-19.25-1.25	beast_fmri_test	276	1175398,/,1176079,/,1176760,/,1177439,/,1178120,/,1178797,/,1179473,/,1180154,/	t,t,t,t,t,t,t,t	<img class = center src='/static/experiments/beast_fmri_test/images/D.png'></img>	71,89	2750.0	test	<img class = center src='/static/experiments/beast_fmri_test/images/redD.png'></img>	go	2650.0	1.0	25.0	go	target	D	71,Index Finger	89,Middle Finger	100.0	0.0	2650.0	2750.0	1.0	100.0	1.0	n/a	ITI
113560	500	n/a	-1	-1	500	0.0	fixation	poldrack-single-stim	437	1180885	0.0-19.26-0.26	beast_fmri_test	276	1180834,/	t	<div class = centerbox2><div class = fixation>+</div></div>	none	500.0	test	n/a	n/a	n/a	n/a	n/a	n/a	n/a	n/a	n/a	n/a	n/a	n/a	n/a	n/a	n/a	n/a	n/a	n/a	fixation
113499.84542748262	0.0	n/a	501	89	2750	63.1545725173	stim	stop-signal	438	1183638	0.0-19.26-1.26	beast_fmri_test	276	1181514,/,1182195,/,1182875,/,1183555,/	t,t,t,t	<img class = center src='/static/experiments/beast_fmri_test/images/B.png'></img>	71,89	2750.0	test	<img class = center src='/static/experiments/beast_fmri_test/images/redB.png'></img>	stop	2750.0	1.0	26.0	stop	non-target	B	71,Index Finger	89,Middle Finger	100.0	0.0	2650.0	2750.0	0.0	0.0	n/a	0.0	go_stim
116249.84542748262	2750.0	n/a	501	89	2750	63.1545725173	stim	stop-signal	438	1183638	0.0-19.26-1.26	beast_fmri_test	276	1181514,/,1182195,/,1182875,/,1183555,/	t,t,t,t	<img class = center src='/static/experiments/beast_fmri_test/images/B.png'></img>	71,89	2750.0	test	<img class = center src='/static/experiments/beast_fmri_test/images/redB.png'></img>	stop	2750.0	1.0	26.0	stop	non-target	B	71,Index Finger	89,Middle Finger	100.0	0.0	2650.0	2750.0	0.0	0.0	n/a	0.0	stop_stim
116249.84542748262	63.154572517270232	n/a	501	89	2750	63.1545725173	stim	stop-signal	438	1183638	0.0-19.26-1.26	beast_fmri_test	276	1181514,/,1182195,/,1182875,/,1183555,/	t,t,t,t	<img class = center src='/static/experiments/beast_fmri_test/images/B.png'></img>	71,89	2750.0	test	<img class = center src='/static/experiments/beast_fmri_test/images/redB.png'></img>	stop	2750.0	1.0	26.0	stop	non-target	B	71,Index Finger	89,Middle Finger	100.0	0.0	2650.0	2750.0	0.0	0.0	n/a	0.0	ITI
116925	500	n/a	-1	-1	500	0.0	fixation	poldrack-single-stim	439	1184250	0.0-19.27-0.27	beast_fmri_test	276	1184236,/	t	<div class = centerbox2><div class = fixation>+</div></div>	none	500.0	test	n/a	n/a	n/a	n/a	n/a	n/a	n/a	n/a	n/a	n/a	n/a	n/a	n/a	n/a	n/a	n/a	n/a	n/a	fixation
115845.41257392359	2750	n/a	1473	89	2750	1082.58742608	stim	stop-signal	440	1187003	0.0-19.27-1.27	beast_fmri_test	276	1184916,/,1185594,/,1186276,/,1186956,/,1187636,/	t,t,t,t,t	<img class = center src='/static/experiments/beast_fmri_test/images/D.png'></img>	71,89	2750.0	test	<img class = center src='/static/experiments/beast_fmri_test/images/redD.png'></img>	go	2750.0	1.0	27.0	go	non-target	D	71,Index Finger	89,Middle Finger	100.0	0.0	2650.0	2750.0	1.0	0.0	1.0	n/a	go_stim
118595.41257392359	1082.5874260763221	n/a	1473	89	2750	1082.58742608	stim	stop-signal	440	1187003	0.0-19.27-1.27	beast_fmri_test	276	1184916,/,1185594,/,1186276,/,1186956,/,1187636,/	t,t,t,t,t	<img class = center src='/static/experiments/beast_fmri_test/images/D.png'></img>	71,89	2750.0	test	<img class = center src='/static/experiments/beast_fmri_test/images/redD.png'></img>	go	2750.0	1.0	27.0	go	non-target	D	71,Index Finger	89,Middle Finger	100.0	0.0	2650.0	2750.0	1.0	0.0	1.0	n/a	ITI
121305	500	n/a	-1	-1	500	0.0	fixation	poldrack-single-stim	441	1188630	0.0-19.28-0.28	beast_fmri_test	276	1188316,/	t	<div class = centerbox2><div class = fixation>+</div></div>	none	500.0	test	n/a	n/a	n/a	n/a	n/a	n/a	n/a	n/a	n/a	n/a	n/a	n/a	n/a	n/a	n/a	n/a	n/a	n/a	fixation
121200.77079650597	2750	n/a	994	89	2750	108.229203494	stim	stop-signal	442	1191384	0.0-19.28-1.28	beast_fmri_test	276	1188995,/,1189674,/,1190356,/,1191036,/	t,t,t,t	<img class = center src='/static/experiments/beast_fmri_test/images/B.png'></img>	71,89	2750.0	test	<img class = center src='/static/experiments/beast_fmri_test/images/redB.png'></img>	go	2750.0	1.0	28.0	go	non-target	B	71,Index Finger	89,Middle Finger	100.0	0.0	2650.0	2750.0	1.0	0.0	1.0	n/a	go_stim
123950.77079650597	108.2292034941394	n/a	994	89	2750	108.229203494	stim	stop-signal	442	1191384	0.0-19.28-1.28	beast_fmri_test	276	1188995,/,1189674,/,1190356,/,1191036,/	t,t,t,t	<img class = center src='/static/experiments/beast_fmri_test/images/B.png'></img>	71,89	2750.0	test	<img class = center src='/static/experiments/beast_fmri_test/images/redB.png'></img>	go	2750.0	1.0	28.0	go	non-target	B	71,Index Finger	89,Middle Finger	100.0	0.0	2650.0	2750.0	1.0	0.0	1.0	n/a	ITI
124716	500	n/a	-1	-1	500	0.0	fixation	poldrack-single-stim	443	1192041	0.0-19.29-0.29	beast_fmri_test	276	1191715,/	t	<div class = centerbox2><div class = fixation>+</div></div>	none	500.0	test	n/a	n/a	n/a	n/a	n/a	n/a	n/a	n/a	n/a	n/a	n/a	n/a	n/a	n/a	n/a	n/a	n/a	n/a	fixation
123895.77664103266	100.0	n/a	587	71	2750	817.223358967	stim	stop-signal	444	1194788	0.0-19.29-1.29	beast_fmri_test	276	1192396,/,1193076,/,1193752,/,1194431,/,1195110,/	t,t,t,t,t	<img class = center src='/static/experiments/beast_fmri_test/images/B.png'></img>	71,89	2750.0	test	<img class = center src='/static/experiments/beast_fmri_test/images/redB.png'></img>	stop	2650.0	1.0	29.0	stop	target	B	71,Index Finger	89,Middle Finger	100.0	0.0	2650.0	2750.0	0.0	100.0	n/a	0.0	go_stim
126545.77664103266	2650.0	n/a	587	71	2750	817.223358967	stim	stop-signal	444	1194788	0.0-19.29-1.29	beast_fmri_test	276	1192396,/,1193076,/,1193752,/,1194431,/,1195110,/	t,t,t,t,t	<img class = center src='/static/experiments/beast_fmri_test/images/B.png'></img>	71,89	2750.0	test	<img class = center src='/static/experiments/beast_fmri_test/images/redB.png'></img>	stop	2650.0	1.0	29.0	stop	target	B	71,Index Finger	89,Middle Finger	100.0	0.0	2650.0	2750.0	0.0	100.0	n/a	0.0	stop_stim
126645.77664103266	817.22335896743505	n/a	587	71	2750	817.223358967	stim	stop-signal	444	1194788	0.0-19.29-1.29	beast_fmri_test	276	1192396,/,1193076,/,1193752,/,1194431,/,1195110,/	t,t,t,t,t	<img class = center src='/static/experiments/beast_fmri_test/images/B.png'></img>	71,89	2750.0	test	<img class = center src='/static/experiments/beast_fmri_test/images/redB.png'></img>	stop	2650.0	1.0	29.0	stop	target	B	71,Index Finger	89,Middle Finger	100.0	0.0	2650.0	2750.0	0.0	100.0	n/a	0.0	ITI
128829	500	n/a	-1	-1	500	0.0	fixation	poldrack-single-stim	445	1196154	0.0-19.30-0.30	beast_fmri_test	276	1195789,/	t	<div class = centerbox2><div class = fixation>+</div></div>	none	500.0	test	n/a	n/a	n/a	n/a	n/a	n/a	n/a	n/a	n/a	n/a	n/a	n/a	n/a	n/a	n/a	n/a	n/a	n/a	fixation
127240.61813598895	2750	n/a	531	71	2750	1592.38186401	stim	stop-signal	446	1198908	0.0-19.30-1.30	beast_fmri_test	276	1196471,/,1197151,/,1197831,/,1198509,/,1199190,/,1199870,/	t,t,t,t,t,t	<img class = center src='/static/experiments/beast_fmri_test/images/B.png'></img>	71,89	2750.0	test	<img class = center src='/static/experiments/beast_fmri_test/images/redB.png'></img>	go	2700.0	1.0	30.0	go	target	B	71,Index Finger	89,Middle Finger	50.0	0.0	2700.0	2750.0	1.0	50.0	1.0	n/a	go_stim
129990.61813598895	1592.3818640109507	n/a	531	71	2750	1592.38186401	stim	stop-signal	446	1198908	0.0-19.30-1.30	beast_fmri_test	276	1196471,/,1197151,/,1197831,/,1198509,/,1199190,/,1199870,/	t,t,t,t,t,t	<img class = center src='/static/experiments/beast_fmri_test/images/B.png'></img>	71,89	2750.0	test	<img class = center src='/static/experiments/beast_fmri_test/images/redB.png'></img>	go	2700.0	1.0	30.0	go	target	B	71,Index Finger	89,Middle Finger	50.0	0.0	2700.0	2750.0	1.0	50.0	1.0	n/a	ITI
133723	500	n/a	-1	-1	500	0.0	fixation	poldrack-single-stim	447	1201048	0.0-19.31-0.31	beast_fmri_test	276	1200550,/	t	<div class = centerbox2><div class = fixation>+</div></div>	none	500.0	test	n/a	n/a	n/a	n/a	n/a	n/a	n/a	n/a	n/a	n/a	n/a	n/a	n/a	n/a	n/a	n/a	n/a	n/a	fixation
133691.05302626383	2750	n/a	658	71	2750	32.9469737361	stim	stop-signal	448	1203799	0.0-19.31-1.31	beast_fmri_test	276	1201231,/,1201911,/,1202590,/,1203269,/	t,t,t,t	<img class = center src='/static/experiments/beast_fmri_test/images/B.png'></img>	71,89	2750.0	test	<img class = center src='/static/experiments/beast_fmri_test/images/redB.png'></img>	go	2700.0	1.0	31.0	go	target	B	71,Index Finger	89,Middle Finger	50.0	0.0	2700.0	2750.0	1.0	50.0	1.0	n/a	go_stim
136441.05302626383	32.946973736104013	n/a	658	71	2750	32.9469737361	stim	stop-signal	448	1203799	0.0-19.31-1.31	beast_fmri_test	276	1201231,/,1201911,/,1202590,/,1203269,/	t,t,t,t	<img class = center src='/static/experiments/beast_fmri_test/images/B.png'></img>	71,89	2750.0	test	<img class = center src='/static/experiments/beast_fmri_test/images/redB.png'></img>	go	2700.0	1.0	31.0	go	target	B	71,Index Finger	89,Middle Finger	50.0	0.0	2700.0	2750.0	1.0	50.0	1.0	n/a	ITI
137051	500	n/a	-1	-1	500	0.0	fixation	poldrack-single-stim	449	1204376	0.0-19.32-0.32	beast_fmri_test	276	1203947,/	t	<div class = centerbox2><div class = fixation>+</div></div>	none	500.0	test	n/a	n/a	n/a	n/a	n/a	n/a	n/a	n/a	n/a	n/a	n/a	n/a	n/a	n/a	n/a	n/a	n/a	n/a	fixation
136758.73012198159	2750	n/a	619	89	2750	296.269878018	stim	stop-signal	450	1207130	0.0-19.32-1.32	beast_fmri_test	276	1204625,/,1205306,/,1205986,/,1206666,/,1207346,/	t,t,t,t,t	<img class = center src='/static/experiments/beast_fmri_test/images/V.png'></img>	71,89	2750.0	test	<img class = center src='/static/experiments/beast_fmri_test/images/redV.png'></img>	go	2750.0	1.0	32.0	go	non-target	V	71,Index Finger	89,Middle Finger	50.0	0.0	2700.0	2750.0	1.0	0.0	1.0	n/a	go_stim
139508.73012198159	296.26987801848725	n/a	619	89	2750	296.269878018	stim	stop-signal	450	1207130	0.0-19.32-1.32	beast_fmri_test	276	1204625,/,1205306,/,1205986,/,1206666,/,1207346,/	t,t,t,t,t	<img class = center src='/static/experiments/beast_fmri_test/images/V.png'></img>	71,89	2750.0	test	<img class = center src='/static/experiments/beast_fmri_test/images/redV.png'></img>	go	2750.0	1.0	32.0	go	non-target	V	71,Index Finger	89,Middle Finger	50.0	0.0	2700.0	2750.0	1.0	0.0	1.0	n/a	ITI
140648	500	n/a	-1	-1	500	0.0	fixation	poldrack-single-stim	451	1207973	0.0-19.33-0.33	beast_fmri_test	276	n/a	n/a	<div class = centerbox2><div class = fixation>+</div></div>	none	500.0	test	n/a	n/a	n/a	n/a	n/a	n/a	n/a	n/a	n/a	n/a	n/a	n/a	n/a	n/a	n/a	n/a	n/a	n/a	fixation
140423.49770276598	2750	n/a	473	71	2750	228.502297234	stim	stop-signal	452	1210727	0.0-19.33-1.33	beast_fmri_test	276	1208024,/,1208705,/,1209386,/,1210064,/,1210745,/	t,t,t,t,t	<img class = center src='/static/experiments/beast_fmri_test/images/V.png'></img>	71,89	2750.0	test	<img class = center src='/static/experiments/beast_fmri_test/images/redV.png'></img>	go	2700.0	1.0	33.0	go	target	V	71,Index Finger	89,Middle Finger	50.0	0.0	2700.0	2750.0	1.0	50.0	1.0	n/a	go_stim
143173.49770276598	228.50229723406289	n/a	473	71	2750	228.502297234	stim	stop-signal	452	1210727	0.0-19.33-1.33	beast_fmri_test	276	1208024,/,1208705,/,1209386,/,1210064,/,1210745,/	t,t,t,t,t	<img class = center src='/static/experiments/beast_fmri_test/images/V.png'></img>	71,89	2750.0	test	<img class = center src='/static/experiments/beast_fmri_test/images/redV.png'></img>	go	2700.0	1.0	33.0	go	target	V	71,Index Finger	89,Middle Finger	50.0	0.0	2700.0	2750.0	1.0	50.0	1.0	n/a	ITI
144177	500	n/a	-1	-1	500	0.0	fixation	poldrack-single-stim	453	1211502	0.0-19.34-0.34	beast_fmri_test	276	1211426,/	t	<div class = centerbox2><div class = fixation>+</div></div>	none	500.0	test	n/a	n/a	n/a	n/a	n/a	n/a	n/a	n/a	n/a	n/a	n/a	n/a	n/a	n/a	n/a	n/a	n/a	n/a	fixation
143825.14352294267	2750	n/a	522	89	2750	350.856477057	stim	stop-signal	454	1214251	0.0-19.34-1.34	beast_fmri_test	276	1212106,/,1212785,/,1213466,/,1214143,/	t,t,t,t	<img class = center src='/static/experiments/beast_fmri_test/images/T.png'></img>	71,89	2750.0	test	<img class = center src='/static/experiments/beast_fmri_test/images/redT.png'></img>	go	2750.0	1.0	34.0	go	non-target	T	71,Index Finger	89,Middle Finger	50.0	0.0	2700.0	2750.0	1.0	0.0	1.0	n/a	go_stim
146575.14352294267	350.85647705739831	n/a	522	89	2750	350.856477057	stim	stop-signal	454	1214251	0.0-19.34-1.34	beast_fmri_test	276	1212106,/,1212785,/,1213466,/,1214143,/	t,t,t,t	<img class = center src='/static/experiments/beast_fmri_test/images/T.png'></img>	71,89	2750.0	test	<img class = center src='/static/experiments/beast_fmri_test/images/redT.png'></img>	go	2750.0	1.0	34.0	go	non-target	T	71,Index Finger	89,Middle Finger	50.0	0.0	2700.0	2750.0	1.0	0.0	1.0	n/a	ITI
147822	500	n/a	-1	-1	500	0.0	fixation	poldrack-single-stim	455	1215147	0.0-19.35-0.35	beast_fmri_test	276	1214822,/	t	<div class = centerbox2><div class = fixation>+</div></div>	none	500.0	test	n/a	n/a	n/a	n/a	n/a	n/a	n/a	n/a	n/a	n/a	n/a	n/a	n/a	n/a	n/a	n/a	n/a	n/a	fixation
146361.95016809576	0.0	n/a	802	89	2750	1464.0498319	stim	stop-signal	456	1217901	0.0-19.35-1.35	beast_fmri_test	276	1215501,/,1216181,/,1216861,/,1217540,/,1218221,/,1218902,/	t,t,t,t,t,t	<img class = center src='/static/experiments/beast_fmri_test/images/V.png'></img>	71,89	2750.0	test	<img class = center src='/static/experiments/beast_fmri_test/images/redV.png'></img>	stop	2750.0	1.0	35.0	stop	non-target	V	71,Index Finger	89,Middle Finger	50.0	0.0	2700.0	2750.0	0.0	0.0	n/a	0.0	go_stim
149111.95016809576	2750.0	n/a	802	89	2750	1464.0498319	stim	stop-signal	456	1217901	0.0-19.35-1.35	beast_fmri_test	276	1215501,/,1216181,/,1216861,/,1217540,/,1218221,/,1218902,/	t,t,t,t,t,t	<img class = center src='/static/experiments/beast_fmri_test/images/V.png'></img>	71,89	2750.0	test	<img class = center src='/static/experiments/beast_fmri_test/images/redV.png'></img>	stop	2750.0	1.0	35.0	stop	non-target	V	71,Index Finger	89,Middle Finger	50.0	0.0	2700.0	2750.0	0.0	0.0	n/a	0.0	stop_stim
149111.95016809576	1464.0498319041642	n/a	802	89	2750	1464.0498319	stim	stop-signal	456	1217901	0.0-19.35-1.35	beast_fmri_test	276	1215501,/,1216181,/,1216861,/,1217540,/,1218221,/,1218902,/	t,t,t,t,t,t	<img class = center src='/static/experiments/beast_fmri_test/images/V.png'></img>	71,89	2750.0	test	<img class = center src='/static/experiments/beast_fmri_test/images/redV.png'></img>	stop	2750.0	1.0	35.0	stop	non-target	V	71,Index Finger	89,Middle Finger	50.0	0.0	2700.0	2750.0	0.0	0.0	n/a	0.0	ITI
152591	500	n/a	-1	-1	500	0.0	fixation	poldrack-single-stim	457	1219916	0.0-19.36-0.36	beast_fmri_test	276	1219581,/	t	<div class = centerbox2><div class = fixation>+</div></div>	none	500.0	test	n/a	n/a	n/a	n/a	n/a	n/a	n/a	n/a	n/a	n/a	n/a	n/a	n/a	n/a	n/a	n/a	n/a	n/a	fixation
151649.88184453477	50.0	n/a	678	71	2750	941.118155465	stim	stop-signal	458	1222666	0.0-19.36-1.36	beast_fmri_test	276	1220259,/,1220937,/,1221617,/,1222296,/,1222976,/	t,t,t,t,t	<img class = center src='/static/experiments/beast_fmri_test/images/V.png'></img>	71,89	2750.0	test	<img class = center src='/static/experiments/beast_fmri_test/images/redV.png'></img>	stop	2700.0	1.0	36.0	stop	target	V	71,Index Finger	89,Middle Finger	50.0	0.0	2700.0	2750.0	0.0	50.0	n/a	0.0	go_stim
154349.88184453477	2700.0	n/a	678	71	2750	941.118155465	stim	stop-signal	458	1222666	0.0-19.36-1.36	beast_fmri_test	276	1220259,/,1220937,/,1221617,/,1222296,/,1222976,/	t,t,t,t,t	<img class = center src='/static/experiments/beast_fmri_test/images/V.png'></img>	71,89	2750.0	test	<img class = center src='/static/experiments/beast_fmri_test/images/redV.png'></img>	stop	2700.0	1.0	36.0	stop	target	V	71,Index Finger	89,Middle Finger	50.0	0.0	2700.0	2750.0	0.0	50.0	n/a	0.0	stop_stim
154399.88184453477	941.11815546522155	n/a	678	71	2750	941.118155465	stim	stop-signal	458	1222666	0.0-19.36-1.36	beast_fmri_test	276	1220259,/,1220937,/,1221617,/,1222296,/,1222976,/	t,t,t,t,t	<img class = center src='/static/experiments/beast_fmri_test/images/V.png'></img>	71,89	2750.0	test	<img class = center src='/static/experiments/beast_fmri_test/images/redV.png'></img>	stop	2700.0	1.0	36.0	stop	target	V	71,Index Finger	89,Middle Finger	50.0	0.0	2700.0	2750.0	0.0	50.0	n/a	0.0	ITI
156833	500	n/a	-1	-1	500	0.0	fixation	poldrack-single-stim	459	1224158	0.0-19.37-0.37	beast_fmri_test	276	1223656,/	t	<div class = centerbox2><div class = fixation>+</div></div>	none	500.0	test	n/a	n/a	n/a	n/a	n/a	n/a	n/a	n/a	n/a	n/a	n/a	n/a	n/a	n/a	n/a	n/a	n/a	n/a	fixation
153917.79172731796	2750	n/a	794	89	2750	2918.20827268	stim	stop-signal	460	1226911	0.0-19.37-1.37	beast_fmri_test	276	1224337,/,1225017,/,1225697,/,1226377,/,1227056,/,1227736,/,1228417,/,1229096,/,1229778,/	t,t,t,t,t,t,t,t,t	<img class = center src='/static/experiments/beast_fmri_test/images/V.png'></img>	71,89	2750.0	test	<img class = center src='/static/experiments/beast_fmri_test/images/redV.png'></img>	go	2750.0	1.0	37.0	go	target	V	71,Index Finger	89,Middle Finger	0.0	0.0	2750.0	2750.0	0.0	0.0	0.0	n/a	go_stim
156667.79172731796	2918.2082726820568	n/a	794	89	2750	2918.20827268	stim	stop-signal	460	1226911	0.0-19.37-1.37	beast_fmri_test	276	1224337,/,1225017,/,1225697,/,1226377,/,1227056,/,1227736,/,1228417,/,1229096,/,1229778,/	t,t,t,t,t,t,t,t,t	<img class = center src='/static/experiments/beast_fmri_test/images/V.png'></img>	71,89	2750.0	test	<img class = center src='/static/experiments/beast_fmri_test/images/redV.png'></img>	go	2750.0	1.0	37.0	go	target	V	71,Index Finger	89,Middle Finger	0.0	0.0	2750.0	2750.0	0.0	0.0	0.0	n/a	ITI
163055	500	n/a	-1	-1	500	0.0	fixation	poldrack-single-stim	461	1230380	0.0-19.38-0.38	beast_fmri_test	276	n/a	n/a	<div class = centerbox2><div class = fixation>+</div></div>	none	500.0	test	n/a	n/a	n/a	n/a	n/a	n/a	n/a	n/a	n/a	n/a	n/a	n/a	n/a	n/a	n/a	n/a	n/a	n/a	fixation
159033.69090459892	2750	n/a	579	71	2750	4024.3090954	stim	stop-signal	462	1233133	0.0-19.38-1.38	beast_fmri_test	276	1230456,/,1231137,/,1231816,/,1232496,/,1233175,/,1233854,/,1234532,/,1235212,/,1235892,/,1236571,/	t,t,t,t,t,t,t,t,t,t	<img class = center src='/static/experiments/beast_fmri_test/images/V.png'></img>	71,89	2750.0	test	<img class = center src='/static/experiments/beast_fmri_test/images/redV.png'></img>	go	2750.0	1.0	38.0	go	target	V	71,Index Finger	89,Middle Finger	0.0	0.0	2750.0	2750.0	1.0	0.0	1.0	n/a	go_stim
161783.69090459892	4024.309095401029	n/a	579	71	2750	4024.3090954	stim	stop-signal	462	1233133	0.0-19.38-1.38	beast_fmri_test	276	1230456,/,1231137,/,1231816,/,1232496,/,1233175,/,1233854,/,1234532,/,1235212,/,1235892,/,1236571,/	t,t,t,t,t,t,t,t,t,t	<img class = center src='/static/experiments/beast_fmri_test/images/V.png'></img>	71,89	2750.0	test	<img class = center src='/static/experiments/beast_fmri_test/images/redV.png'></img>	go	2750.0	1.0	38.0	go	target	V	71,Index Finger	89,Middle Finger	0.0	0.0	2750.0	2750.0	1.0	0.0	1.0	n/a	ITI
170377	500	n/a	-1	-1	500	0.0	fixation	poldrack-single-stim	463	1237702	0.0-19.39-0.39	beast_fmri_test	276	1237251,/	t	<div class = centerbox2><div class = fixation>+</div></div>	none	500.0	test	n/a	n/a	n/a	n/a	n/a	n/a	n/a	n/a	n/a	n/a	n/a	n/a	n/a	n/a	n/a	n/a	n/a	n/a	fixation
168413.39463471365	2750	n/a	384	89	2750	1966.60536529	stim	stop-signal	464	1240455	0.0-19.39-1.39	beast_fmri_test	276	1237931,/,1238612,/,1239293,/,1239972,/,1240652,/,1241329,/,1242007,/	t,t,t,t,t,t,t	<img class = center src='/static/experiments/beast_fmri_test/images/B.png'></img>	71,89	2750.0	test	<img class = center src='/static/experiments/beast_fmri_test/images/redB.png'></img>	go	2750.0	1.0	39.0	go	non-target	B	71,Index Finger	89,Middle Finger	0.0	0.0	2750.0	2750.0	1.0	0.0	1.0	n/a	go_stim
171163.39463471365	1966.6053652862399	n/a	384	89	2750	1966.60536529	stim	stop-signal	464	1240455	0.0-19.39-1.39	beast_fmri_test	276	1237931,/,1238612,/,1239293,/,1239972,/,1240652,/,1241329,/,1242007,/	t,t,t,t,t,t,t	<img class = center src='/static/experiments/beast_fmri_test/images/B.png'></img>	71,89	2750.0	test	<img class = center src='/static/experiments/beast_fmri_test/images/redB.png'></img>	go	2750.0	1.0	39.0	go	non-target	B	71,Index Finger	89,Middle Finger	0.0	0.0	2750.0	2750.0	1.0	0.0	1.0	n/a	ITI
175640	500	n/a	-1	-1	500	0.0	fixation	poldrack-single-stim	465	1242965	0.0-19.40-0.40	beast_fmri_test	276	1242688,/	t	<div class = centerbox2><div class = fixation>+</div></div>	none	500.0	test	n/a	n/a	n/a	n/a	n/a	n/a	n/a	n/a	n/a	n/a	n/a	n/a	n/a	n/a	n/a	n/a	n/a	n/a	fixation
174096.163299968	2750	n/a	560	89	2750	1547.83670003	stim	stop-signal	466	1245719	0.0-19.40-1.40	beast_fmri_test	276	1243367,/,1244048,/,1244728,/,1245407,/,1246087,/,1246766,/	t,t,t,t,t,t	<img class = center src='/static/experiments/beast_fmri_test/images/T.png'></img>	71,89	2750.0	test	<img class = center src='/static/experiments/beast_fmri_test/images/redT.png'></img>	go	2750.0	1.0	40.0	go	non-target	T	71,Index Finger	89,Middle Finger	0.0	0.0	2750.0	2750.0	1.0	0.0	1.0	n/a	go_stim
176846.163299968	1547.8367000319854	n/a	560	89	2750	1547.83670003	stim	stop-signal	466	1245719	0.0-19.40-1.40	beast_fmri_test	276	1243367,/,1244048,/,1244728,/,1245407,/,1246087,/,1246766,/	t,t,t,t,t,t	<img class = center src='/static/experiments/beast_fmri_test/images/T.png'></img>	71,89	2750.0	test	<img class = center src='/static/experiments/beast_fmri_test/images/redT.png'></img>	go	2750.0	1.0	40.0	go	non-target	T	71,Index Finger	89,Middle Finger	0.0	0.0	2750.0	2750.0	1.0	0.0	1.0	n/a	ITI
180487	500	n/a	-1	-1	500	0.0	fixation	poldrack-single-stim	467	1247812	0.0-19.41-0.41	beast_fmri_test	276	1247447,/	t	<div class = centerbox2><div class = fixation>+</div></div>	none	500.0	test	n/a	n/a	n/a	n/a	n/a	n/a	n/a	n/a	n/a	n/a	n/a	n/a	n/a	n/a	n/a	n/a	n/a	n/a	fixation
179626.56818296318	2750	n/a	815	89	2750	864.431817037	stim	stop-signal	468	1250566	0.0-19.41-1.41	beast_fmri_test	276	1248128,/,1248808,/,1249488,/,1250168,/,1250848,/	t,t,t,t,t	<img class = center src='/static/experiments/beast_fmri_test/images/P.png'></img>	71,89	2750.0	test	<img class = center src='/static/experiments/beast_fmri_test/images/redP.png'></img>	go	2750.0	1.0	41.0	go	non-target	P	71,Index Finger	89,Middle Finger	0.0	0.0	2750.0	2750.0	1.0	0.0	1.0	n/a	go_stim
182376.56818296318	864.43181703687549	n/a	815	89	2750	864.431817037	stim	stop-signal	468	1250566	0.0-19.41-1.41	beast_fmri_test	276	1248128,/,1248808,/,1249488,/,1250168,/,1250848,/	t,t,t,t,t	<img class = center src='/static/experiments/beast_fmri_test/images/P.png'></img>	71,89	2750.0	test	<img class = center src='/static/experiments/beast_fmri_test/images/redP.png'></img>	go	2750.0	1.0	41.0	go	non-target	P	71,Index Finger	89,Middle Finger	0.0	0.0	2750.0	2750.0	1.0	0.0	1.0	n/a	ITI
184657	500	n/a	-1	-1	500	0.0	fixation	poldrack-single-stim	469	1251982	0.0-19.42-0.42	beast_fmri_test	276	1251526,/	t	<div class = centerbox2><div class = fixation>+</div></div>	none	500.0	test	n/a	n/a	n/a	n/a	n/a	n/a	n/a	n/a	n/a	n/a	n/a	n/a	n/a	n/a	n/a	n/a	n/a	n/a	fixation
184220.78717535501	0.0	n/a	548	89	2750	433.212824645	stim	stop-signal	470	1254729	0.0-19.42-1.42	beast_fmri_test	276	1252208,/,1252888,/,1253565,/,1254243,/,1254922,/	t,t,t,t,t	<img class = center src='/static/experiments/beast_fmri_test/images/T.png'></img>	71,89	2750.0	test	<img class = center src='/static/experiments/beast_fmri_test/images/redT.png'></img>	stop	2750.0	1.0	42.0	stop	non-target	T	71,Index Finger	89,Middle Finger	0.0	0.0	2750.0	2750.0	0.0	0.0	n/a	0.0	go_stim
186970.78717535501	2750.0	n/a	548	89	2750	433.212824645	stim	stop-signal	470	1254729	0.0-19.42-1.42	beast_fmri_test	276	1252208,/,1252888,/,1253565,/,1254243,/,1254922,/	t,t,t,t,t	<img class = center src='/static/experiments/beast_fmri_test/images/T.png'></img>	71,89	2750.0	test	<img class = center src='/static/experiments/beast_fmri_test/images/redT.png'></img>	stop	2750.0	1.0	42.0	stop	non-target	T	71,Index Finger	89,Middle Finger	0.0	0.0	2750.0	2750.0	0.0	0.0	n/a	0.0	stop_stim
186970.78717535501	433.21282464501883	n/a	548	89	2750	433.212824645	stim	stop-signal	470	1254729	0.0-19.42-1.42	beast_fmri_test	276	1252208,/,1252888,/,1253565,/,1254243,/,1254922,/	t,t,t,t,t	<img class = center src='/static/experiments/beast_fmri_test/images/T.png'></img>	71,89	2750.0	test	<img class = center src='/static/experiments/beast_fmri_test/images/redT.png'></img>	stop	2750.0	1.0	42.0	stop	non-target	T	71,Index Finger	89,Middle Finger	0.0	0.0	2750.0	2750.0	0.0	0.0	n/a	0.0	ITI
188387	500	n/a	-1	-1	500	0.0	fixation	poldrack-single-stim	471	1255712	0.0-19.43-0.43	beast_fmri_test	276	1255603,/	t	<div class = centerbox2><div class = fixation>+</div></div>	none	500.0	test	n/a	n/a	n/a	n/a	n/a	n/a	n/a	n/a	n/a	n/a	n/a	n/a	n/a	n/a	n/a	n/a	n/a	n/a	fixation
186644.65614818456	2750	n/a	603	89	2750	1745.34385182	stim	stop-signal	472	1258465	0.0-19.43-1.43	beast_fmri_test	276	1256282,/,1256963,/,1257643,/,1258322,/,1258999,/,1259678,/	t,t,t,t,t,t	<img class = center src='/static/experiments/beast_fmri_test/images/P.png'></img>	71,89	2750.0	test	<img class = center src='/static/experiments/beast_fmri_test/images/redP.png'></img>	go	2750.0	1.0	43.0	go	non-target	P	71,Index Finger	89,Middle Finger	0.0	0.0	2750.0	2750.0	1.0	0.0	1.0	n/a	go_stim
189394.65614818456	1745.3438518153464	n/a	603	89	2750	1745.34385182	stim	stop-signal	472	1258465	0.0-19.43-1.43	beast_fmri_test	276	1256282,/,1256963,/,1257643,/,1258322,/,1258999,/,1259678,/	t,t,t,t,t,t	<img class = center src='/static/experiments/beast_fmri_test/images/P.png'></img>	71,89	2750.0	test	<img class = center src='/static/experiments/beast_fmri_test/images/redP.png'></img>	go	2750.0	1.0	43.0	go	non-target	P	71,Index Finger	89,Middle Finger	0.0	0.0	2750.0	2750.0	1.0	0.0	1.0	n/a	ITI
193436	500	n/a	-1	-1	500	0.0	fixation	poldrack-single-stim	473	1260761	0.0-19.44-0.44	beast_fmri_test	276	1260358,/	t	<div class = centerbox2><div class = fixation>+</div></div>	none	500.0	test	n/a	n/a	n/a	n/a	n/a	n/a	n/a	n/a	n/a	n/a	n/a	n/a	n/a	n/a	n/a	n/a	n/a	n/a	fixation
192062.00846276688	2750	n/a	526	89	2750	1375.99153723	stim	stop-signal	474	1263513	0.0-19.44-1.44	beast_fmri_test	276	1261038,/,1261718,/,1262397,/,1263078,/,1263758,/,1264437,/	t,t,t,t,t,t	<img class = center src='/static/experiments/beast_fmri_test/images/D.png'></img>	71,89	2750.0	test	<img class = center src='/static/experiments/beast_fmri_test/images/redD.png'></img>	go	2750.0	1.0	44.0	go	non-target	D	71,Index Finger	89,Middle Finger	0.0	0.0	2750.0	2750.0	1.0	0.0	1.0	n/a	go_stim
194812.00846276688	1375.9915372330206	n/a	526	89	2750	1375.99153723	stim	stop-signal	474	1263513	0.0-19.44-1.44	beast_fmri_test	276	1261038,/,1261718,/,1262397,/,1263078,/,1263758,/,1264437,/	t,t,t,t,t,t	<img class = center src='/static/experiments/beast_fmri_test/images/D.png'></img>	71,89	2750.0	test	<img class = center src='/static/experiments/beast_fmri_test/images/redD.png'></img>	go	2750.0	1.0	44.0	go	non-target	D	71,Index Finger	89,Middle Finger	0.0	0.0	2750.0	2750.0	1.0	0.0	1.0	n/a	ITI
198113	500	n/a	-1	-1	500	0.0	fixation	poldrack-single-stim	475	1265438	0.0-19.45-0.45	beast_fmri_test	276	1265118,/	t	<div class = centerbox2><div class = fixation>+</div></div>	none	500.0	test	n/a	n/a	n/a	n/a	n/a	n/a	n/a	n/a	n/a	n/a	n/a	n/a	n/a	n/a	n/a	n/a	n/a	n/a	fixation
196403.82015685039	0.0	n/a	518	89	2750	1713.17984315	stim	stop-signal	476	1268192	0.0-19.45-1.45	beast_fmri_test	276	1265798,/,1266477,/,1267159,/,1267838,/,1268516,/,1269193,/,1269873,/	t,t,t,t,t,t,t	<img class = center src='/static/experiments/beast_fmri_test/images/D.png'></img>	71,89	2750.0	test	<img class = center src='/static/experiments/beast_fmri_test/images/redD.png'></img>	stop	2750.0	1.0	45.0	stop	target	D	71,Index Finger	89,Middle Finger	0.0	0.0	2750.0	2750.0	0.0	0.0	n/a	0.0	go_stim
199153.82015685039	2750.0	n/a	518	89	2750	1713.17984315	stim	stop-signal	476	1268192	0.0-19.45-1.45	beast_fmri_test	276	1265798,/,1266477,/,1267159,/,1267838,/,1268516,/,1269193,/,1269873,/	t,t,t,t,t,t,t	<img class = center src='/static/experiments/beast_fmri_test/images/D.png'></img>	71,89	2750.0	test	<img class = center src='/static/experiments/beast_fmri_test/images/redD.png'></img>	stop	2750.0	1.0	45.0	stop	target	D	71,Index Finger	89,Middle Finger	0.0	0.0	2750.0	2750.0	0.0	0.0	n/a	0.0	stop_stim
199153.82015685039	1713.1798431495768	n/a	518	89	2750	1713.17984315	stim	stop-signal	476	1268192	0.0-19.45-1.45	beast_fmri_test	276	1265798,/,1266477,/,1267159,/,1267838,/,1268516,/,1269193,/,1269873,/	t,t,t,t,t,t,t	<img class = center src='/static/experiments/beast_fmri_test/images/D.png'></img>	71,89	2750.0	test	<img class = center src='/static/experiments/beast_fmri_test/images/redD.png'></img>	stop	2750.0	1.0	45.0	stop	target	D	71,Index Finger	89,Middle Finger	0.0	0.0	2750.0	2750.0	0.0	0.0	n/a	0.0	ITI
217631	15000	n/a	-1	-1	15000	0.0	practice-no-stop-feedback	poldrack-single-stim	477	1284956	0.0-20.0	beast_fmri_test	276	1270554,/,1271234,/,1271913,/,1272594,/,1273273,/,1273954,/,1274634,/,1275314,/,1275994,/,1276673,/,1277354,/,1278034,/,1278713,/,1279394,/,1280074,/,1280754,/,1281434,/,1282114,/,1282793,/,1283473,/,1284153,/,1284834,/	t,t,t,t,t,t,t,t,t,t,t,t,t,t,t,t,t,t,t,t,t,t	"<div class = ""centerbox""><p class = ""block-text"">Your delay is 2 trials.</p><p class = block-text>Please wait for the scanner to start the block</p></div>"	77	15000.0	n/a	n/a	n/a	n/a	n/a	n/a	n/a	n/a	n/a	n/a	n/a	n/a	n/a	n/a	n/a	n/a	n/a	n/a	n/a	practice-no-stop-feedback
218133	500	n/a	-1	-1	500	0.0	fixation	poldrack-single-stim	478	1285458	0.0-21.0-0.0	beast_fmri_test	276	n/a	n/a	<div class = centerbox2><div class = fixation>+</div></div>	none	500.0	test	n/a	n/a	n/a	n/a	n/a	n/a	n/a	n/a	n/a	n/a	n/a	n/a	n/a	n/a	n/a	n/a	n/a	n/a	fixation
217788.71919888398	2750	n/a	813	89	2750	346.280801116	stim	stop-signal	479	1288210	0.0-21.0-1.0	beast_fmri_test	276	1285512,/,1286194,/,1286874,/,1287552,/,1288232,/	t,t,t,t,t	<img class = center src='/static/experiments/beast_fmri_test/images/V.png'></img>	71,89	2750.0	test	<img class = center src='/static/experiments/beast_fmri_test/images/redV.png'></img>	go	-1.0	2.0	0.0	go	temp-non-target	V	71,Index Finger	89,Middle Finger	0.0	0.0	2750.0	2750.0	0.0	n/a	n/a	n/a	go_stim
220538.71919888398	346.28080111610285	n/a	813	89	2750	346.280801116	stim	stop-signal	479	1288210	0.0-21.0-1.0	beast_fmri_test	276	1285512,/,1286194,/,1286874,/,1287552,/,1288232,/	t,t,t,t,t	<img class = center src='/static/experiments/beast_fmri_test/images/V.png'></img>	71,89	2750.0	test	<img class = center src='/static/experiments/beast_fmri_test/images/redV.png'></img>	go	-1.0	2.0	0.0	go	temp-non-target	V	71,Index Finger	89,Middle Finger	0.0	0.0	2750.0	2750.0	0.0	n/a	n/a	n/a	ITI
221778	500	n/a	-1	-1	500	0.0	fixation	poldrack-single-stim	480	1289103	0.0-21.1-0.1	beast_fmri_test	276	1288911,/	t	<div class = centerbox2><div class = fixation>+</div></div>	none	500.0	test	n/a	n/a	n/a	n/a	n/a	n/a	n/a	n/a	n/a	n/a	n/a	n/a	n/a	n/a	n/a	n/a	n/a	n/a	fixation
221692.97774746595	temp_go_duration	n/a	513	89	2750	86.022252534	stim	stop-signal	481	1291854	0.0-21.1-1.1	beast_fmri_test	276	1289589,/,1290267,/,1290949,/,1291628,/	t,t,t,t	<img class = center src='/static/experiments/beast_fmri_test/images/T.png'></img>	71,89	2750.0	test	<img class = center src='/static/experiments/beast_fmri_test/images/redT.png'></img>	stop	-1.0	2.0	1.0	stop	temp-non-target	T	71,Index Finger	89,Middle Finger	0.0	0.0	2750.0	2750.0	0.0	n/a	n/a	0.0	go_stim
temp-non-target	temp_stop_duration	n/a	513	89	2750	86.022252534	stim	stop-signal	481	1291854	0.0-21.1-1.1	beast_fmri_test	276	1289589,/,1290267,/,1290949,/,1291628,/	t,t,t,t	<img class = center src='/static/experiments/beast_fmri_test/images/T.png'></img>	71,89	2750.0	test	<img class = center src='/static/experiments/beast_fmri_test/images/redT.png'></img>	stop	-1.0	2.0	1.0	stop	temp-non-target	T	71,Index Finger	89,Middle Finger	0.0	0.0	2750.0	2750.0	0.0	n/a	n/a	0.0	stop_stim
224442.97774746595	86.022252533988251	n/a	513	89	2750	86.022252534	stim	stop-signal	481	1291854	0.0-21.1-1.1	beast_fmri_test	276	1289589,/,1290267,/,1290949,/,1291628,/	t,t,t,t	<img class = center src='/static/experiments/beast_fmri_test/images/T.png'></img>	71,89	2750.0	test	<img class = center src='/static/experiments/beast_fmri_test/images/redT.png'></img>	stop	-1.0	2.0	1.0	stop	temp-non-target	T	71,Index Finger	89,Middle Finger	0.0	0.0	2750.0	2750.0	0.0	n/a	n/a	0.0	ITI
225170	500	n/a	-1	-1	500	0.0	fixation	poldrack-single-stim	482	1292495	0.0-21.2-0.2	beast_fmri_test	276	1292309,/	t	<div class = centerbox2><div class = fixation>+</div></div>	none	500.0	test	n/a	n/a	n/a	n/a	n/a	n/a	n/a	n/a	n/a	n/a	n/a	n/a	n/a	n/a	n/a	n/a	n/a	n/a	fixation
225031.20913496986	2750	n/a	656	89	2750	141.79086503	stim	stop-signal	483	1295248	0.0-21.2-1.2	beast_fmri_test	276	1292988,/,1293669,/,1294349,/,1295029,/	t,t,t,t	<img class = center src='/static/experiments/beast_fmri_test/images/B.png'></img>	71,89	2750.0	test	<img class = center src='/static/experiments/beast_fmri_test/images/redB.png'></img>	go	2750.0	2.0	2.0	go	non-target	B	71,Index Finger	89,Middle Finger	0.0	0.0	2750.0	2750.0	1.0	0.0	1.0	n/a	go_stim
227781.20913496986	141.790865030097	n/a	656	89	2750	141.79086503	stim	stop-signal	483	1295248	0.0-21.2-1.2	beast_fmri_test	276	1292988,/,1293669,/,1294349,/,1295029,/	t,t,t,t	<img class = center src='/static/experiments/beast_fmri_test/images/B.png'></img>	71,89	2750.0	test	<img class = center src='/static/experiments/beast_fmri_test/images/redB.png'></img>	go	2750.0	2.0	2.0	go	non-target	B	71,Index Finger	89,Middle Finger	0.0	0.0	2750.0	2750.0	1.0	0.0	1.0	n/a	ITI
228613	500	n/a	-1	-1	500	0.0	fixation	poldrack-single-stim	484	1295938	0.0-21.3-0.3	beast_fmri_test	276	1295710,/	t	<div class = centerbox2><div class = fixation>+</div></div>	none	500.0	test	n/a	n/a	n/a	n/a	n/a	n/a	n/a	n/a	n/a	n/a	n/a	n/a	n/a	n/a	n/a	n/a	n/a	n/a	fixation
225249.88672826393	2750	n/a	756	89	2750	3368.11327174	stim	stop-signal	485	1298693	0.0-21.3-1.3	beast_fmri_test	276	1296388,/,1297069,/,1297750,/,1298429,/,1299110,/,1299789,/,1300470,/,1301150,/,1301829,/	t,t,t,t,t,t,t,t,t	<img class = center src='/static/experiments/beast_fmri_test/images/P.png'></img>	71,89	2750.0	test	<img class = center src='/static/experiments/beast_fmri_test/images/redP.png'></img>	go	2750.0	2.0	3.0	go	non-target	P	71,Index Finger	89,Middle Finger	0.0	0.0	2750.0	2750.0	1.0	0.0	1.0	n/a	go_stim
227999.88672826393	3368.1132717361647	n/a	756	89	2750	3368.11327174	stim	stop-signal	485	1298693	0.0-21.3-1.3	beast_fmri_test	276	1296388,/,1297069,/,1297750,/,1298429,/,1299110,/,1299789,/,1300470,/,1301150,/,1301829,/	t,t,t,t,t,t,t,t,t	<img class = center src='/static/experiments/beast_fmri_test/images/P.png'></img>	71,89	2750.0	test	<img class = center src='/static/experiments/beast_fmri_test/images/redP.png'></img>	go	2750.0	2.0	3.0	go	non-target	P	71,Index Finger	89,Middle Finger	0.0	0.0	2750.0	2750.0	1.0	0.0	1.0	n/a	ITI
235292	500	n/a	-1	-1	500	0.0	fixation	poldrack-single-stim	486	1302617	0.0-21.4-0.4	beast_fmri_test	276	1302510,/	t	<div class = centerbox2><div class = fixation>+</div></div>	none	500.0	test	n/a	n/a	n/a	n/a	n/a	n/a	n/a	n/a	n/a	n/a	n/a	n/a	n/a	n/a	n/a	n/a	n/a	n/a	fixation
235195.71759821405	0.0	n/a	573	89	2750	94.282401786	stim	stop-signal	487	1305365	0.0-21.4-1.4	beast_fmri_test	276	1303189,/,1303867,/,1304544,/,1305225,/	t,t,t,t	<img class = center src='/static/experiments/beast_fmri_test/images/V.png'></img>	71,89	2750.0	test	<img class = center src='/static/experiments/beast_fmri_test/images/redV.png'></img>	stop	2750.0	2.0	4.0	stop	non-target	V	71,Index Finger	89,Middle Finger	0.0	0.0	2750.0	2750.0	0.0	0.0	n/a	0.0	go_stim
237945.71759821405	2750.0	n/a	573	89	2750	94.282401786	stim	stop-signal	487	1305365	0.0-21.4-1.4	beast_fmri_test	276	1303189,/,1303867,/,1304544,/,1305225,/	t,t,t,t	<img class = center src='/static/experiments/beast_fmri_test/images/V.png'></img>	71,89	2750.0	test	<img class = center src='/static/experiments/beast_fmri_test/images/redV.png'></img>	stop	2750.0	2.0	4.0	stop	non-target	V	71,Index Finger	89,Middle Finger	0.0	0.0	2750.0	2750.0	0.0	0.0	n/a	0.0	stop_stim
237945.71759821405	94.282401785993443	n/a	573	89	2750	94.282401786	stim	stop-signal	487	1305365	0.0-21.4-1.4	beast_fmri_test	276	1303189,/,1303867,/,1304544,/,1305225,/	t,t,t,t	<img class = center src='/static/experiments/beast_fmri_test/images/V.png'></img>	71,89	2750.0	test	<img class = center src='/static/experiments/beast_fmri_test/images/redV.png'></img>	stop	2750.0	2.0	4.0	stop	non-target	V	71,Index Finger	89,Middle Finger	0.0	0.0	2750.0	2750.0	0.0	0.0	n/a	0.0	ITI
238704	500	n/a	-1	-1	500	0.0	fixation	poldrack-single-stim	488	1306029	0.0-21.5-0.5	beast_fmri_test	276	1305907,/	t	<div class = centerbox2><div class = fixation>+</div></div>	none	500.0	test	n/a	n/a	n/a	n/a	n/a	n/a	n/a	n/a	n/a	n/a	n/a	n/a	n/a	n/a	n/a	n/a	n/a	n/a	fixation
238114.43411147036	2750	n/a	576	89	2750	590.56588853	stim	stop-signal	489	1308780	0.0-21.5-1.5	beast_fmri_test	276	1306585,/,1307264,/,1307944,/,1308623,/,1309300,/	t,t,t,t,t	<img class = center src='/static/experiments/beast_fmri_test/images/D.png'></img>	71,89	2750.0	test	<img class = center src='/static/experiments/beast_fmri_test/images/redD.png'></img>	go	2750.0	2.0	5.0	go	non-target	D	71,Index Finger	89,Middle Finger	0.0	0.0	2750.0	2750.0	1.0	0.0	1.0	n/a	go_stim
240864.43411147036	590.56588852954121	n/a	576	89	2750	590.56588853	stim	stop-signal	489	1308780	0.0-21.5-1.5	beast_fmri_test	276	1306585,/,1307264,/,1307944,/,1308623,/,1309300,/	t,t,t,t,t	<img class = center src='/static/experiments/beast_fmri_test/images/D.png'></img>	71,89	2750.0	test	<img class = center src='/static/experiments/beast_fmri_test/images/redD.png'></img>	go	2750.0	2.0	5.0	go	non-target	D	71,Index Finger	89,Middle Finger	0.0	0.0	2750.0	2750.0	1.0	0.0	1.0	n/a	ITI
242599	500	n/a	-1	-1	500	0.0	fixation	poldrack-single-stim	490	1309924	0.0-21.6-0.6	beast_fmri_test	276	n/a	n/a	<div class = centerbox2><div class = fixation>+</div></div>	none	500.0	test	n/a	n/a	n/a	n/a	n/a	n/a	n/a	n/a	n/a	n/a	n/a	n/a	n/a	n/a	n/a	n/a	n/a	n/a	fixation
242423.40530488803	2750	n/a	593	71	2750	178.594695112	stim	stop-signal	491	1312677	0.0-21.6-1.6	beast_fmri_test	276	1309979,/,1310660,/,1311340,/,1312020,/,1312699,/	t,t,t,t,t	<img class = center src='/static/experiments/beast_fmri_test/images/V.png'></img>	71,89	2750.0	test	<img class = center src='/static/experiments/beast_fmri_test/images/redV.png'></img>	go	2750.0	2.0	6.0	go	target	V	71,Index Finger	89,Middle Finger	0.0	0.0	2750.0	2750.0	1.0	0.0	1.0	n/a	go_stim
245173.40530488803	178.59469511185418	n/a	593	71	2750	178.594695112	stim	stop-signal	491	1312677	0.0-21.6-1.6	beast_fmri_test	276	1309979,/,1310660,/,1311340,/,1312020,/,1312699,/	t,t,t,t,t	<img class = center src='/static/experiments/beast_fmri_test/images/V.png'></img>	71,89	2750.0	test	<img class = center src='/static/experiments/beast_fmri_test/images/redV.png'></img>	go	2750.0	2.0	6.0	go	target	V	71,Index Finger	89,Middle Finger	0.0	0.0	2750.0	2750.0	1.0	0.0	1.0	n/a	ITI
246083	500	n/a	-1	-1	500	0.0	fixation	poldrack-single-stim	492	1313408	0.0-21.7-0.7	beast_fmri_test	276	1313379,/	t	<div class = centerbox2><div class = fixation>+</div></div>	none	500.0	test	n/a	n/a	n/a	n/a	n/a	n/a	n/a	n/a	n/a	n/a	n/a	n/a	n/a	n/a	n/a	n/a	n/a	n/a	fixation
244378.00889389706	2750	n/a	689	89	2750	1707.9911061	stim	stop-signal	493	1316161	0.0-21.7-1.7	beast_fmri_test	276	1314061,/,1314740,/,1315421,/,1316099,/,1316779,/,1317459,/	t,t,t,t,t,t	<img class = center src='/static/experiments/beast_fmri_test/images/B.png'></img>	71,89	2750.0	test	<img class = center src='/static/experiments/beast_fmri_test/images/redB.png'></img>	go	2750.0	2.0	7.0	go	non-target	B	71,Index Finger	89,Middle Finger	0.0	0.0	2750.0	2750.0	1.0	0.0	1.0	n/a	go_stim
247128.00889389706	1707.9911061029816	n/a	689	89	2750	1707.9911061	stim	stop-signal	493	1316161	0.0-21.7-1.7	beast_fmri_test	276	1314061,/,1314740,/,1315421,/,1316099,/,1316779,/,1317459,/	t,t,t,t,t,t	<img class = center src='/static/experiments/beast_fmri_test/images/B.png'></img>	71,89	2750.0	test	<img class = center src='/static/experiments/beast_fmri_test/images/redB.png'></img>	go	2750.0	2.0	7.0	go	non-target	B	71,Index Finger	89,Middle Finger	0.0	0.0	2750.0	2750.0	1.0	0.0	1.0	n/a	ITI
251097	500	n/a	-1	-1	500	0.0	fixation	poldrack-single-stim	494	1318422	0.0-21.8-0.8	beast_fmri_test	276	1318140,/	t	<div class = centerbox2><div class = fixation>+</div></div>	none	500.0	test	n/a	n/a	n/a	n/a	n/a	n/a	n/a	n/a	n/a	n/a	n/a	n/a	n/a	n/a	n/a	n/a	n/a	n/a	fixation
249403.27866314701	2750	n/a	1544	89	2750	1697.72133685	stim	stop-signal	495	1321176	0.0-21.8-1.8	beast_fmri_test	276	1318820,/,1319500,/,1320179,/,1320860,/,1321540,/,1322220,/	t,t,t,t,t,t	<img class = center src='/static/experiments/beast_fmri_test/images/D.png'></img>	71,89	2750.0	test	<img class = center src='/static/experiments/beast_fmri_test/images/redD.png'></img>	go	2750.0	2.0	8.0	go	non-target	D	71,Index Finger	89,Middle Finger	0.0	0.0	2750.0	2750.0	1.0	0.0	1.0	n/a	go_stim
252153.27866314701	1697.7213368529947	n/a	1544	89	2750	1697.72133685	stim	stop-signal	495	1321176	0.0-21.8-1.8	beast_fmri_test	276	1318820,/,1319500,/,1320179,/,1320860,/,1321540,/,1322220,/	t,t,t,t,t,t	<img class = center src='/static/experiments/beast_fmri_test/images/D.png'></img>	71,89	2750.0	test	<img class = center src='/static/experiments/beast_fmri_test/images/redD.png'></img>	go	2750.0	2.0	8.0	go	non-target	D	71,Index Finger	89,Middle Finger	0.0	0.0	2750.0	2750.0	1.0	0.0	1.0	n/a	ITI
256100	500	n/a	-1	-1	500	0.0	fixation	poldrack-single-stim	496	1323425	0.0-21.9-0.9	beast_fmri_test	276	1322925,/	t	<div class = centerbox2><div class = fixation>+</div></div>	none	500.0	test	n/a	n/a	n/a	n/a	n/a	n/a	n/a	n/a	n/a	n/a	n/a	n/a	n/a	n/a	n/a	n/a	n/a	n/a	fixation
254836.59208121779	0.0	n/a	1123	71	2750	1264.40791878	stim	stop-signal	497	1326176	0.0-21.9-1.9	beast_fmri_test	276	1323578,/,1324255,/,1324936,/,1325616,/,1326295,/,1326976,/	t,t,t,t,t,t	<img class = center src='/static/experiments/beast_fmri_test/images/B.png'></img>	71,89	2750.0	test	<img class = center src='/static/experiments/beast_fmri_test/images/redB.png'></img>	stop	2750.0	2.0	9.0	stop	target	B	71,Index Finger	89,Middle Finger	0.0	0.0	2750.0	2750.0	0.0	0.0	n/a	0.0	go_stim
257586.59208121779	2750.0	n/a	1123	71	2750	1264.40791878	stim	stop-signal	497	1326176	0.0-21.9-1.9	beast_fmri_test	276	1323578,/,1324255,/,1324936,/,1325616,/,1326295,/,1326976,/	t,t,t,t,t,t	<img class = center src='/static/experiments/beast_fmri_test/images/B.png'></img>	71,89	2750.0	test	<img class = center src='/static/experiments/beast_fmri_test/images/redB.png'></img>	stop	2750.0	2.0	9.0	stop	target	B	71,Index Finger	89,Middle Finger	0.0	0.0	2750.0	2750.0	0.0	0.0	n/a	0.0	stop_stim
257586.59208121779	1264.407918782236	n/a	1123	71	2750	1264.40791878	stim	stop-signal	497	1326176	0.0-21.9-1.9	beast_fmri_test	276	1323578,/,1324255,/,1324936,/,1325616,/,1326295,/,1326976,/	t,t,t,t,t,t	<img class = center src='/static/experiments/beast_fmri_test/images/B.png'></img>	71,89	2750.0	test	<img class = center src='/static/experiments/beast_fmri_test/images/redB.png'></img>	stop	2750.0	2.0	9.0	stop	target	B	71,Index Finger	89,Middle Finger	0.0	0.0	2750.0	2750.0	0.0	0.0	n/a	0.0	ITI
260663	500	n/a	-1	-1	500	0.0	fixation	poldrack-single-stim	498	1327988	0.0-21.10-0.10	beast_fmri_test	276	1327655,/	t	<div class = centerbox2><div class = fixation>+</div></div>	none	500.0	test	n/a	n/a	n/a	n/a	n/a	n/a	n/a	n/a	n/a	n/a	n/a	n/a	n/a	n/a	n/a	n/a	n/a	n/a	fixation
260584.76950211753	2750	n/a	411	89	2750	76.2304978824	stim	stop-signal	499	1330736	0.0-21.10-1.10	beast_fmri_test	276	1328336,/,1329012,/,1329691,/,1330371,/	t,t,t,t	<img class = center src='/static/experiments/beast_fmri_test/images/V.png'></img>	71,89	2750.0	test	<img class = center src='/static/experiments/beast_fmri_test/images/redV.png'></img>	go	2750.0	2.0	10.0	go	non-target	V	71,Index Finger	89,Middle Finger	0.0	0.0	2750.0	2750.0	1.0	0.0	1.0	n/a	go_stim
263334.76950211753	76.230497882438712	n/a	411	89	2750	76.2304978824	stim	stop-signal	499	1330736	0.0-21.10-1.10	beast_fmri_test	276	1328336,/,1329012,/,1329691,/,1330371,/	t,t,t,t	<img class = center src='/static/experiments/beast_fmri_test/images/V.png'></img>	71,89	2750.0	test	<img class = center src='/static/experiments/beast_fmri_test/images/redV.png'></img>	go	2750.0	2.0	10.0	go	non-target	V	71,Index Finger	89,Middle Finger	0.0	0.0	2750.0	2750.0	1.0	0.0	1.0	n/a	ITI
264043	500	n/a	-1	-1	500	0.0	fixation	poldrack-single-stim	500	1331368	0.0-21.11-0.11	beast_fmri_test	276	1331051,/	t	<div class = centerbox2><div class = fixation>+</div></div>	none	500.0	test	n/a	n/a	n/a	n/a	n/a	n/a	n/a	n/a	n/a	n/a	n/a	n/a	n/a	n/a	n/a	n/a	n/a	n/a	fixation
262551.12791450322	0.0	n/a	1160	71	2750	1494.8720855	stim	stop-signal	501	1334121	0.0-21.11-1.11	beast_fmri_test	276	1331731,/,1332411,/,1333091,/,1333770,/,1334451,/,1335130,/	t,t,t,t,t,t	<img class = center src='/static/experiments/beast_fmri_test/images/D.png'></img>	71,89	2750.0	test	<img class = center src='/static/experiments/beast_fmri_test/images/redD.png'></img>	stop	2750.0	2.0	11.0	stop	non-target	D	71,Index Finger	89,Middle Finger	0.0	0.0	2750.0	2750.0	0.0	0.0	n/a	0.0	go_stim
265301.12791450322	2750.0	n/a	1160	71	2750	1494.8720855	stim	stop-signal	501	1334121	0.0-21.11-1.11	beast_fmri_test	276	1331731,/,1332411,/,1333091,/,1333770,/,1334451,/,1335130,/	t,t,t,t,t,t	<img class = center src='/static/experiments/beast_fmri_test/images/D.png'></img>	71,89	2750.0	test	<img class = center src='/static/experiments/beast_fmri_test/images/redD.png'></img>	stop	2750.0	2.0	11.0	stop	non-target	D	71,Index Finger	89,Middle Finger	0.0	0.0	2750.0	2750.0	0.0	0.0	n/a	0.0	stop_stim
265301.12791450322	1494.872085496705	n/a	1160	71	2750	1494.8720855	stim	stop-signal	501	1334121	0.0-21.11-1.11	beast_fmri_test	276	1331731,/,1332411,/,1333091,/,1333770,/,1334451,/,1335130,/	t,t,t,t,t,t	<img class = center src='/static/experiments/beast_fmri_test/images/D.png'></img>	71,89	2750.0	test	<img class = center src='/static/experiments/beast_fmri_test/images/redD.png'></img>	stop	2750.0	2.0	11.0	stop	non-target	D	71,Index Finger	89,Middle Finger	0.0	0.0	2750.0	2750.0	0.0	0.0	n/a	0.0	ITI
268842	500	n/a	-1	-1	500	0.0	fixation	poldrack-single-stim	502	1336167	0.0-21.12-0.12	beast_fmri_test	276	1335810,/	t	<div class = centerbox2><div class = fixation>+</div></div>	none	500.0	test	n/a	n/a	n/a	n/a	n/a	n/a	n/a	n/a	n/a	n/a	n/a	n/a	n/a	n/a	n/a	n/a	n/a	n/a	fixation
268641.00420595519	2750	n/a	484	71	2750	202.995794045	stim	stop-signal	503	1338919	0.0-21.12-1.12	beast_fmri_test	276	1336491,/,1337170,/,1337851,/,1338531,/	t,t,t,t	<img class = center src='/static/experiments/beast_fmri_test/images/V.png'></img>	71,89	2750.0	test	<img class = center src='/static/experiments/beast_fmri_test/images/redV.png'></img>	go	2750.0	2.0	12.0	go	target	V	71,Index Finger	89,Middle Finger	0.0	0.0	2750.0	2750.0	1.0	0.0	1.0	n/a	go_stim
271391.00420595519	202.9957940447255	n/a	484	71	2750	202.995794045	stim	stop-signal	503	1338919	0.0-21.12-1.12	beast_fmri_test	276	1336491,/,1337170,/,1337851,/,1338531,/	t,t,t,t	<img class = center src='/static/experiments/beast_fmri_test/images/V.png'></img>	71,89	2750.0	test	<img class = center src='/static/experiments/beast_fmri_test/images/redV.png'></img>	go	2750.0	2.0	12.0	go	target	V	71,Index Finger	89,Middle Finger	0.0	0.0	2750.0	2750.0	1.0	0.0	1.0	n/a	ITI
272350	500	n/a	-1	-1	500	0.0	fixation	poldrack-single-stim	504	1339675	0.0-21.13-0.13	beast_fmri_test	276	1339211,/	t	<div class = centerbox2><div class = fixation>+</div></div>	none	500.0	test	n/a	n/a	n/a	n/a	n/a	n/a	n/a	n/a	n/a	n/a	n/a	n/a	n/a	n/a	n/a	n/a	n/a	n/a	fixation
272319.53376618517	2750	n/a	851	89	2750	34.4662338148	stim	stop-signal	505	1342429	0.0-21.13-1.13	beast_fmri_test	276	1339890,/,1340570,/,1341249,/,1341931,/	t,t,t,t	<img class = center src='/static/experiments/beast_fmri_test/images/P.png'></img>	71,89	2750.0	test	<img class = center src='/static/experiments/beast_fmri_test/images/redP.png'></img>	go	2750.0	2.0	13.0	go	non-target	P	71,Index Finger	89,Middle Finger	0.0	0.0	2750.0	2750.0	1.0	0.0	1.0	n/a	go_stim
275069.53376618517	34.466233814794947	n/a	851	89	2750	34.4662338148	stim	stop-signal	505	1342429	0.0-21.13-1.13	beast_fmri_test	276	1339890,/,1340570,/,1341249,/,1341931,/	t,t,t,t	<img class = center src='/static/experiments/beast_fmri_test/images/P.png'></img>	71,89	2750.0	test	<img class = center src='/static/experiments/beast_fmri_test/images/redP.png'></img>	go	2750.0	2.0	13.0	go	non-target	P	71,Index Finger	89,Middle Finger	0.0	0.0	2750.0	2750.0	1.0	0.0	1.0	n/a	ITI
275688	500	n/a	-1	-1	500	0.0	fixation	poldrack-single-stim	506	1343013	0.0-21.14-0.14	beast_fmri_test	276	1342611,/	t	<div class = centerbox2><div class = fixation>+</div></div>	none	500.0	test	n/a	n/a	n/a	n/a	n/a	n/a	n/a	n/a	n/a	n/a	n/a	n/a	n/a	n/a	n/a	n/a	n/a	n/a	fixation
273854.59932085406	2750	n/a	742	89	2750	1836.40067915	stim	stop-signal	507	1345766	0.0-21.14-1.14	beast_fmri_test	276	1343291,/,1343971,/,1344651,/,1345331,/,1346011,/,1346691,/,1347370,/	t,t,t,t,t,t,t	<img class = center src='/static/experiments/beast_fmri_test/images/B.png'></img>	71,89	2750.0	test	<img class = center src='/static/experiments/beast_fmri_test/images/redB.png'></img>	go	2750.0	2.0	14.0	go	non-target	B	71,Index Finger	89,Middle Finger	0.0	0.0	2750.0	2750.0	1.0	0.0	1.0	n/a	go_stim
276604.59932085406	1836.4006791459328	n/a	742	89	2750	1836.40067915	stim	stop-signal	507	1345766	0.0-21.14-1.14	beast_fmri_test	276	1343291,/,1343971,/,1344651,/,1345331,/,1346011,/,1346691,/,1347370,/	t,t,t,t,t,t,t	<img class = center src='/static/experiments/beast_fmri_test/images/B.png'></img>	71,89	2750.0	test	<img class = center src='/static/experiments/beast_fmri_test/images/redB.png'></img>	go	2750.0	2.0	14.0	go	non-target	B	71,Index Finger	89,Middle Finger	0.0	0.0	2750.0	2750.0	1.0	0.0	1.0	n/a	ITI
280835	500	n/a	-1	-1	500	0.0	fixation	poldrack-single-stim	508	1348160	0.0-21.15-0.15	beast_fmri_test	276	1348051,/	t	<div class = centerbox2><div class = fixation>+</div></div>	none	500.0	test	n/a	n/a	n/a	n/a	n/a	n/a	n/a	n/a	n/a	n/a	n/a	n/a	n/a	n/a	n/a	n/a	n/a	n/a	fixation
280454.74253046047	0.0	n/a	464	89	2750	384.25746954	stim	stop-signal	509	1350914	0.0-21.15-1.15	beast_fmri_test	276	1348730,/,1349410,/,1350091,/,1350771,/	t,t,t,t	<img class = center src='/static/experiments/beast_fmri_test/images/D.png'></img>	71,89	2750.0	test	<img class = center src='/static/experiments/beast_fmri_test/images/redD.png'></img>	stop	2750.0	2.0	15.0	stop	non-target	D	71,Index Finger	89,Middle Finger	0.0	0.0	2750.0	2750.0	0.0	0.0	n/a	0.0	go_stim
283204.74253046047	2750.0	n/a	464	89	2750	384.25746954	stim	stop-signal	509	1350914	0.0-21.15-1.15	beast_fmri_test	276	1348730,/,1349410,/,1350091,/,1350771,/	t,t,t,t	<img class = center src='/static/experiments/beast_fmri_test/images/D.png'></img>	71,89	2750.0	test	<img class = center src='/static/experiments/beast_fmri_test/images/redD.png'></img>	stop	2750.0	2.0	15.0	stop	non-target	D	71,Index Finger	89,Middle Finger	0.0	0.0	2750.0	2750.0	0.0	0.0	n/a	0.0	stop_stim
283204.74253046047	384.25746953961152	n/a	464	89	2750	384.25746954	stim	stop-signal	509	1350914	0.0-21.15-1.15	beast_fmri_test	276	1348730,/,1349410,/,1350091,/,1350771,/	t,t,t,t	<img class = center src='/static/experiments/beast_fmri_test/images/D.png'></img>	71,89	2750.0	test	<img class = center src='/static/experiments/beast_fmri_test/images/redD.png'></img>	stop	2750.0	2.0	15.0	stop	non-target	D	71,Index Finger	89,Middle Finger	0.0	0.0	2750.0	2750.0	0.0	0.0	n/a	0.0	ITI
284526	500	n/a	-1	-1	500	0.0	fixation	poldrack-single-stim	510	1351851	0.0-21.16-0.16	beast_fmri_test	276	1351451,/	t	<div class = centerbox2><div class = fixation>+</div></div>	none	500.0	test	n/a	n/a	n/a	n/a	n/a	n/a	n/a	n/a	n/a	n/a	n/a	n/a	n/a	n/a	n/a	n/a	n/a	n/a	fixation
284226.99064385751	0.0	n/a	488	89	2750	297.009356142	stim	stop-signal	511	1354599	0.0-21.16-1.16	beast_fmri_test	276	1352132,/,1352811,/,1353490,/,1354168,/,1354847,/	t,t,t,t,t	<img class = center src='/static/experiments/beast_fmri_test/images/T.png'></img>	71,89	2750.0	test	<img class = center src='/static/experiments/beast_fmri_test/images/redT.png'></img>	stop	2750.0	2.0	16.0	stop	non-target	T	71,Index Finger	89,Middle Finger	0.0	0.0	2750.0	2750.0	0.0	0.0	n/a	0.0	go_stim
286976.99064385751	2750.0	n/a	488	89	2750	297.009356142	stim	stop-signal	511	1354599	0.0-21.16-1.16	beast_fmri_test	276	1352132,/,1352811,/,1353490,/,1354168,/,1354847,/	t,t,t,t,t	<img class = center src='/static/experiments/beast_fmri_test/images/T.png'></img>	71,89	2750.0	test	<img class = center src='/static/experiments/beast_fmri_test/images/redT.png'></img>	stop	2750.0	2.0	16.0	stop	non-target	T	71,Index Finger	89,Middle Finger	0.0	0.0	2750.0	2750.0	0.0	0.0	n/a	0.0	stop_stim
286976.99064385751	297.00935614248965	n/a	488	89	2750	297.009356142	stim	stop-signal	511	1354599	0.0-21.16-1.16	beast_fmri_test	276	1352132,/,1352811,/,1353490,/,1354168,/,1354847,/	t,t,t,t,t	<img class = center src='/static/experiments/beast_fmri_test/images/T.png'></img>	71,89	2750.0	test	<img class = center src='/static/experiments/beast_fmri_test/images/redT.png'></img>	stop	2750.0	2.0	16.0	stop	non-target	T	71,Index Finger	89,Middle Finger	0.0	0.0	2750.0	2750.0	0.0	0.0	n/a	0.0	ITI
288121	500	n/a	-1	-1	500	0.0	fixation	poldrack-single-stim	512	1355446	0.0-21.17-0.17	beast_fmri_test	276	n/a	n/a	<div class = centerbox2><div class = fixation>+</div></div>	none	500.0	test	n/a	n/a	n/a	n/a	n/a	n/a	n/a	n/a	n/a	n/a	n/a	n/a	n/a	n/a	n/a	n/a	n/a	n/a	fixation
288106.92612075084	0.0	n/a	628	71	2750	17.0738792492	stim	stop-signal	513	1358199	0.0-21.17-1.17	beast_fmri_test	276	1355526,/,1356208,/,1356887,/,1357567,/	t,t,t,t	<img class = center src='/static/experiments/beast_fmri_test/images/D.png'></img>	71,89	2750.0	test	<img class = center src='/static/experiments/beast_fmri_test/images/redD.png'></img>	stop	2750.0	2.0	17.0	stop	target	D	71,Index Finger	89,Middle Finger	0.0	0.0	2750.0	2750.0	0.0	0.0	n/a	0.0	go_stim
290856.92612075084	2750.0	n/a	628	71	2750	17.0738792492	stim	stop-signal	513	1358199	0.0-21.17-1.17	beast_fmri_test	276	1355526,/,1356208,/,1356887,/,1357567,/	t,t,t,t	<img class = center src='/static/experiments/beast_fmri_test/images/D.png'></img>	71,89	2750.0	test	<img class = center src='/static/experiments/beast_fmri_test/images/redD.png'></img>	stop	2750.0	2.0	17.0	stop	target	D	71,Index Finger	89,Middle Finger	0.0	0.0	2750.0	2750.0	0.0	0.0	n/a	0.0	stop_stim
290856.92612075084	17.073879249200949	n/a	628	71	2750	17.0738792492	stim	stop-signal	513	1358199	0.0-21.17-1.17	beast_fmri_test	276	1355526,/,1356208,/,1356887,/,1357567,/	t,t,t,t	<img class = center src='/static/experiments/beast_fmri_test/images/D.png'></img>	71,89	2750.0	test	<img class = center src='/static/experiments/beast_fmri_test/images/redD.png'></img>	stop	2750.0	2.0	17.0	stop	target	D	71,Index Finger	89,Middle Finger	0.0	0.0	2750.0	2750.0	0.0	0.0	n/a	0.0	ITI
291444	500	n/a	-1	-1	500	0.0	fixation	poldrack-single-stim	514	1358769	0.0-21.18-0.18	beast_fmri_test	276	1358270,/	t	<div class = centerbox2><div class = fixation>+</div></div>	none	500.0	test	n/a	n/a	n/a	n/a	n/a	n/a	n/a	n/a	n/a	n/a	n/a	n/a	n/a	n/a	n/a	n/a	n/a	n/a	fixation
290381.68693374866	2750	n/a	860	89	2750	1062.31306625	stim	stop-signal	515	1361519	0.0-21.18-1.18	beast_fmri_test	276	1358922,/,1359601,/,1360281,/,1360963,/,1361643,/,1362322,/	t,t,t,t,t,t	<img class = center src='/static/experiments/beast_fmri_test/images/D.png'></img>	71,89	2750.0	test	<img class = center src='/static/experiments/beast_fmri_test/images/redD.png'></img>	go	2750.0	2.0	18.0	go	non-target	D	71,Index Finger	89,Middle Finger	0.0	0.0	2750.0	2750.0	1.0	0.0	1.0	n/a	go_stim
293131.68693374866	1062.3130662513247	n/a	860	89	2750	1062.31306625	stim	stop-signal	515	1361519	0.0-21.18-1.18	beast_fmri_test	276	1358922,/,1359601,/,1360281,/,1360963,/,1361643,/,1362322,/	t,t,t,t,t,t	<img class = center src='/static/experiments/beast_fmri_test/images/D.png'></img>	71,89	2750.0	test	<img class = center src='/static/experiments/beast_fmri_test/images/redD.png'></img>	go	2750.0	2.0	18.0	go	non-target	D	71,Index Finger	89,Middle Finger	0.0	0.0	2750.0	2750.0	1.0	0.0	1.0	n/a	ITI
295813	500	n/a	-1	-1	500	0.0	fixation	poldrack-single-stim	516	1363138	0.0-21.19-0.19	beast_fmri_test	276	1363002,/	t	<div class = centerbox2><div class = fixation>+</div></div>	none	500.0	test	n/a	n/a	n/a	n/a	n/a	n/a	n/a	n/a	n/a	n/a	n/a	n/a	n/a	n/a	n/a	n/a	n/a	n/a	fixation
293946.52560673375	2750	n/a	560	71	2750	1870.47439327	stim	stop-signal	517	1365892	0.0-21.19-1.19	beast_fmri_test	276	1363682,/,1364362,/,1365042,/,1365722,/,1366402,/,1367082,/,1367762,/	t,t,t,t,t,t,t	<img class = center src='/static/experiments/beast_fmri_test/images/D.png'></img>	71,89	2750.0	test	<img class = center src='/static/experiments/beast_fmri_test/images/redD.png'></img>	go	2750.0	2.0	19.0	go	target	D	71,Index Finger	89,Middle Finger	0.0	0.0	2750.0	2750.0	1.0	0.0	1.0	n/a	go_stim
296696.52560673375	1870.4743932662525	n/a	560	71	2750	1870.47439327	stim	stop-signal	517	1365892	0.0-21.19-1.19	beast_fmri_test	276	1363682,/,1364362,/,1365042,/,1365722,/,1366402,/,1367082,/,1367762,/	t,t,t,t,t,t,t	<img class = center src='/static/experiments/beast_fmri_test/images/D.png'></img>	71,89	2750.0	test	<img class = center src='/static/experiments/beast_fmri_test/images/redD.png'></img>	go	2750.0	2.0	19.0	go	target	D	71,Index Finger	89,Middle Finger	0.0	0.0	2750.0	2750.0	1.0	0.0	1.0	n/a	ITI
300988	500	n/a	-1	-1	500	0.0	fixation	poldrack-single-stim	518	1368313	0.0-21.20-0.20	beast_fmri_test	276	n/a	n/a	<div class = centerbox2><div class = fixation>+</div></div>	none	500.0	test	n/a	n/a	n/a	n/a	n/a	n/a	n/a	n/a	n/a	n/a	n/a	n/a	n/a	n/a	n/a	n/a	n/a	n/a	fixation
300721.57479971671	2750	n/a	518	89	2750	271.425200283	stim	stop-signal	519	1371068	0.0-21.20-1.20	beast_fmri_test	276	1368442,/,1369122,/,1369802,/,1370482,/,1371162,/	t,t,t,t,t	<img class = center src='/static/experiments/beast_fmri_test/images/P.png'></img>	71,89	2750.0	test	<img class = center src='/static/experiments/beast_fmri_test/images/redP.png'></img>	go	2750.0	2.0	20.0	go	non-target	P	71,Index Finger	89,Middle Finger	0.0	0.0	2750.0	2750.0	1.0	0.0	1.0	n/a	go_stim
303471.57479971671	271.42520028318449	n/a	518	89	2750	271.425200283	stim	stop-signal	519	1371068	0.0-21.20-1.20	beast_fmri_test	276	1368442,/,1369122,/,1369802,/,1370482,/,1371162,/	t,t,t,t,t	<img class = center src='/static/experiments/beast_fmri_test/images/P.png'></img>	71,89	2750.0	test	<img class = center src='/static/experiments/beast_fmri_test/images/redP.png'></img>	go	2750.0	2.0	20.0	go	non-target	P	71,Index Finger	89,Middle Finger	0.0	0.0	2750.0	2750.0	1.0	0.0	1.0	n/a	ITI
304573	500	n/a	-1	-1	500	0.0	fixation	poldrack-single-stim	520	1371898	0.0-21.21-0.21	beast_fmri_test	276	1371842,/	t	<div class = centerbox2><div class = fixation>+</div></div>	none	500.0	test	n/a	n/a	n/a	n/a	n/a	n/a	n/a	n/a	n/a	n/a	n/a	n/a	n/a	n/a	n/a	n/a	n/a	n/a	fixation
304360.75863845274	2750	n/a	1513	89	2750	209.241361547	stim	stop-signal	521	1374645	0.0-21.21-1.21	beast_fmri_test	276	1372522,/,1373202,/,1373878,/,1374556,/	t,t,t,t	<img class = center src='/static/experiments/beast_fmri_test/images/B.png'></img>	71,89	2750.0	test	<img class = center src='/static/experiments/beast_fmri_test/images/redB.png'></img>	go	2750.0	2.0	21.0	go	non-target	B	71,Index Finger	89,Middle Finger	0.0	0.0	2750.0	2750.0	1.0	0.0	1.0	n/a	go_stim
307110.75863845274	209.24136154724727	n/a	1513	89	2750	209.241361547	stim	stop-signal	521	1374645	0.0-21.21-1.21	beast_fmri_test	276	1372522,/,1373202,/,1373878,/,1374556,/	t,t,t,t	<img class = center src='/static/experiments/beast_fmri_test/images/B.png'></img>	71,89	2750.0	test	<img class = center src='/static/experiments/beast_fmri_test/images/redB.png'></img>	go	2750.0	2.0	21.0	go	non-target	B	71,Index Finger	89,Middle Finger	0.0	0.0	2750.0	2750.0	1.0	0.0	1.0	n/a	ITI
308091	500	n/a	-1	-1	500	0.0	fixation	poldrack-single-stim	522	1375416	0.0-21.22-0.22	beast_fmri_test	276	1375236,/	t	<div class = centerbox2><div class = fixation>+</div></div>	none	500.0	test	n/a	n/a	n/a	n/a	n/a	n/a	n/a	n/a	n/a	n/a	n/a	n/a	n/a	n/a	n/a	n/a	n/a	n/a	fixation
307787.33027726109	2750	n/a	1494	71	2750	306.669722739	stim	stop-signal	523	1378169	0.0-21.22-1.22	beast_fmri_test	276	1375917,/,1376598,/,1377277,/,1377958,/	t,t,t,t	<img class = center src='/static/experiments/beast_fmri_test/images/P.png'></img>	71,89	2750.0	test	<img class = center src='/static/experiments/beast_fmri_test/images/redP.png'></img>	go	2750.0	2.0	22.0	go	target	P	71,Index Finger	89,Middle Finger	0.0	0.0	2750.0	2750.0	1.0	0.0	1.0	n/a	go_stim
310537.33027726109	306.66972273897261	n/a	1494	71	2750	306.669722739	stim	stop-signal	523	1378169	0.0-21.22-1.22	beast_fmri_test	276	1375917,/,1376598,/,1377277,/,1377958,/	t,t,t,t	<img class = center src='/static/experiments/beast_fmri_test/images/P.png'></img>	71,89	2750.0	test	<img class = center src='/static/experiments/beast_fmri_test/images/redP.png'></img>	go	2750.0	2.0	22.0	go	target	P	71,Index Finger	89,Middle Finger	0.0	0.0	2750.0	2750.0	1.0	0.0	1.0	n/a	ITI
311711	500	n/a	-1	-1	500	0.0	fixation	poldrack-single-stim	524	1379036	0.0-21.23-0.23	beast_fmri_test	276	1378638,/	t	<div class = centerbox2><div class = fixation>+</div></div>	none	500.0	test	n/a	n/a	n/a	n/a	n/a	n/a	n/a	n/a	n/a	n/a	n/a	n/a	n/a	n/a	n/a	n/a	n/a	n/a	fixation
310289.62506528245	0.0	n/a	1426	89	2750	1423.37493472	stim	stop-signal	525	1381788	0.0-21.23-1.23	beast_fmri_test	276	1379318,/,1379996,/,1380676,/,1381357,/,1382038,/,1382718,/	t,t,t,t,t,t	<img class = center src='/static/experiments/beast_fmri_test/images/B.png'></img>	71,89	2750.0	test	<img class = center src='/static/experiments/beast_fmri_test/images/redB.png'></img>	stop	2750.0	2.0	23.0	stop	target	B	71,Index Finger	89,Middle Finger	0.0	0.0	2750.0	2750.0	0.0	0.0	n/a	0.0	go_stim
313039.62506528245	2750.0	n/a	1426	89	2750	1423.37493472	stim	stop-signal	525	1381788	0.0-21.23-1.23	beast_fmri_test	276	1379318,/,1379996,/,1380676,/,1381357,/,1382038,/,1382718,/	t,t,t,t,t,t	<img class = center src='/static/experiments/beast_fmri_test/images/B.png'></img>	71,89	2750.0	test	<img class = center src='/static/experiments/beast_fmri_test/images/redB.png'></img>	stop	2750.0	2.0	23.0	stop	target	B	71,Index Finger	89,Middle Finger	0.0	0.0	2750.0	2750.0	0.0	0.0	n/a	0.0	stop_stim
313039.62506528245	1423.3749347174578	n/a	1426	89	2750	1423.37493472	stim	stop-signal	525	1381788	0.0-21.23-1.23	beast_fmri_test	276	1379318,/,1379996,/,1380676,/,1381357,/,1382038,/,1382718,/	t,t,t,t,t,t	<img class = center src='/static/experiments/beast_fmri_test/images/B.png'></img>	71,89	2750.0	test	<img class = center src='/static/experiments/beast_fmri_test/images/redB.png'></img>	stop	2750.0	2.0	23.0	stop	target	B	71,Index Finger	89,Middle Finger	0.0	0.0	2750.0	2750.0	0.0	0.0	n/a	0.0	ITI
