onset	duration	"“text"""	rt	key_press	block_duration	timing_post_trial	trial_id	trial_type	trial_index	time_elapsed	internal_node_id	exp_id	subject_id	trigger_times	triggers	stimulus	possible_responses	stim_duration	exp_stage	SS_stimulus	SS_trial_type	SS_duration	load	trial_num	stop_trial_type	adaptive_trial_type	stim	yes_response_key	no_response_key	SSD_target	SSD_non_target	SSTarget	SSNonTarget	go_acc	SS_delay	adaptive_acc	stop_acc	new_trial_type
test	10880	n/a	-1	-1	10880	0.0	practice-no-stop-feedback	poldrack-single-stim	574	1567623	0.0-24.0	beast_fmri_test	276	1556746,/,1557424,/,1558104,/,1558782,/,1559461,/,1560140,/,1560820,/,1561500,/,1562180,/,1562861,/,1563540,/,1564220,/,1564899,/,1565581,/,1566260,/,1566940,/,1567620,/	t,t,t,t,t,t,t,t,t,t,t,t,t,t,t,t,t	"<div class = ""centerbox""><p class = ""block-text"">Your delay is 2 trials.</p><p class = block-text>Please wait for the scanner to start the block</p></div>"	77	10880.0	n/a	n/a	n/a	n/a	n/a	n/a	n/a	n/a	n/a	n/a	n/a	n/a	n/a	n/a	n/a	n/a	n/a	n/a	n/a	start_functional_block
11381	500	n/a	-1	-1	500	0.0	fixation	poldrack-single-stim	575	1568127	0.0-25.0-0.0	beast_fmri_test	276	n/a	n/a	<div class = centerbox2><div class = fixation>+</div></div>	none	500.0	test	n/a	n/a	n/a	n/a	n/a	n/a	n/a	n/a	n/a	n/a	n/a	n/a	n/a	n/a	n/a	n/a	n/a	n/a	fixation
11304.446467767935	2750	n/a	751	89	2750	80.553532232	stim	stop-signal	576	1570881	0.0-25.0-1.0	beast_fmri_test	276	1568300,/,1568980,/,1569660,/,1570340,/	t,t,t,t	<img class = center src='/static/experiments/beast_fmri_test/images/P.png'></img>	71,89	2750.0	test	<img class = center src='/static/experiments/beast_fmri_test/images/redP.png'></img>	go	-1.0	2.0	0.0	go	temp-non-target	P	71,Index Finger	89,Middle Finger	0.0	0.0	2750.0	2750.0	0.0	n/a	n/a	n/a	go_stim
14054.446467767935	80.55353223202286	n/a	751	89	2750	80.553532232	stim	stop-signal	576	1570881	0.0-25.0-1.0	beast_fmri_test	276	1568300,/,1568980,/,1569660,/,1570340,/	t,t,t,t	<img class = center src='/static/experiments/beast_fmri_test/images/P.png'></img>	71,89	2750.0	test	<img class = center src='/static/experiments/beast_fmri_test/images/redP.png'></img>	go	-1.0	2.0	0.0	go	temp-non-target	P	71,Index Finger	89,Middle Finger	0.0	0.0	2750.0	2750.0	0.0	n/a	n/a	n/a	ITI
14777	500	n/a	-1	-1	500	0.0	fixation	poldrack-single-stim	577	1571523	0.0-25.1-0.1	beast_fmri_test	276	1571021,/	t	<div class = centerbox2><div class = fixation>+</div></div>	none	500.0	test	n/a	n/a	n/a	n/a	n/a	n/a	n/a	n/a	n/a	n/a	n/a	n/a	n/a	n/a	n/a	n/a	n/a	n/a	fixation
14304.328529582825	2750	n/a	697	89	2750	470.671470417	stim	stop-signal	578	1574271	0.0-25.1-1.1	beast_fmri_test	276	1571700,/,1572380,/,1573060,/,1573737,/,1574414,/	t,t,t,t,t	<img class = center src='/static/experiments/beast_fmri_test/images/V.png'></img>	71,89	2750.0	test	<img class = center src='/static/experiments/beast_fmri_test/images/redV.png'></img>	go	-1.0	2.0	1.0	go	temp-non-target	V	71,Index Finger	89,Middle Finger	0.0	0.0	2750.0	2750.0	0.0	n/a	n/a	n/a	go_stim
17054.328529582825	470.67147041709887	n/a	697	89	2750	470.671470417	stim	stop-signal	578	1574271	0.0-25.1-1.1	beast_fmri_test	276	1571700,/,1572380,/,1573060,/,1573737,/,1574414,/	t,t,t,t,t	<img class = center src='/static/experiments/beast_fmri_test/images/V.png'></img>	71,89	2750.0	test	<img class = center src='/static/experiments/beast_fmri_test/images/redV.png'></img>	go	-1.0	2.0	1.0	go	temp-non-target	V	71,Index Finger	89,Middle Finger	0.0	0.0	2750.0	2750.0	0.0	n/a	n/a	n/a	ITI
18557	500	n/a	-1	-1	500	0.0	fixation	poldrack-single-stim	579	1575303	0.0-25.2-0.2	beast_fmri_test	276	1575095,/	t	<div class = centerbox2><div class = fixation>+</div></div>	none	500.0	test	n/a	n/a	n/a	n/a	n/a	n/a	n/a	n/a	n/a	n/a	n/a	n/a	n/a	n/a	n/a	n/a	n/a	n/a	fixation
18235.077147456817	2750	n/a	612	89	2750	324.922852543	stim	stop-signal	580	1578056	0.0-25.2-1.2	beast_fmri_test	276	1575776,/,1576455,/,1577137,/,1577817,/	t,t,t,t	<img class = center src='/static/experiments/beast_fmri_test/images/B.png'></img>	71,89	2750.0	test	<img class = center src='/static/experiments/beast_fmri_test/images/redB.png'></img>	go	2750.0	2.0	2.0	go	non-target	B	71,Index Finger	89,Middle Finger	0.0	0.0	2750.0	2750.0	1.0	0.0	1.0	n/a	go_stim
20985.077147456817	324.9228525432041	n/a	612	89	2750	324.922852543	stim	stop-signal	580	1578056	0.0-25.2-1.2	beast_fmri_test	276	1575776,/,1576455,/,1577137,/,1577817,/	t,t,t,t	<img class = center src='/static/experiments/beast_fmri_test/images/B.png'></img>	71,89	2750.0	test	<img class = center src='/static/experiments/beast_fmri_test/images/redB.png'></img>	go	2750.0	2.0	2.0	go	non-target	B	71,Index Finger	89,Middle Finger	0.0	0.0	2750.0	2750.0	1.0	0.0	1.0	n/a	ITI
22188	500	n/a	-1	-1	500	0.0	fixation	poldrack-single-stim	581	1578934	0.0-25.3-0.3	beast_fmri_test	276	1578497,/	t	<div class = centerbox2><div class = fixation>+</div></div>	none	500.0	test	n/a	n/a	n/a	n/a	n/a	n/a	n/a	n/a	n/a	n/a	n/a	n/a	n/a	n/a	n/a	n/a	n/a	n/a	fixation
20376.737664456014	2750	n/a	501	71	2750	1815.26233554	stim	stop-signal	582	1581688	0.0-25.3-1.3	beast_fmri_test	276	1579177,/,1579856,/,1580535,/,1581217,/,1581896,/,1582577,/,1583257,/	t,t,t,t,t,t,t	<img class = center src='/static/experiments/beast_fmri_test/images/V.png'></img>	71,89	2750.0	test	<img class = center src='/static/experiments/beast_fmri_test/images/redV.png'></img>	go	2750.0	2.0	3.0	go	target	V	71,Index Finger	89,Middle Finger	0.0	0.0	2750.0	2750.0	1.0	0.0	1.0	n/a	go_stim
23126.737664456014	1815.2623355440021	n/a	501	71	2750	1815.26233554	stim	stop-signal	582	1581688	0.0-25.3-1.3	beast_fmri_test	276	1579177,/,1579856,/,1580535,/,1581217,/,1581896,/,1582577,/,1583257,/	t,t,t,t,t,t,t	<img class = center src='/static/experiments/beast_fmri_test/images/V.png'></img>	71,89	2750.0	test	<img class = center src='/static/experiments/beast_fmri_test/images/redV.png'></img>	go	2750.0	2.0	3.0	go	target	V	71,Index Finger	89,Middle Finger	0.0	0.0	2750.0	2750.0	1.0	0.0	1.0	n/a	ITI
27316	500	n/a	-1	-1	500	0.0	fixation	poldrack-single-stim	583	1584062	0.0-25.4-0.4	beast_fmri_test	276	1583938,/	t	<div class = centerbox2><div class = fixation>+</div></div>	none	500.0	test	n/a	n/a	n/a	n/a	n/a	n/a	n/a	n/a	n/a	n/a	n/a	n/a	n/a	n/a	n/a	n/a	n/a	n/a	fixation
27066.739099182421	0.0	n/a	763	89	2750	251.260900818	stim	stop-signal	584	1586814	0.0-25.4-1.4	beast_fmri_test	276	1584616,/,1585295,/,1585975,/,1586655,/	t,t,t,t	<img class = center src='/static/experiments/beast_fmri_test/images/P.png'></img>	71,89	2750.0	test	<img class = center src='/static/experiments/beast_fmri_test/images/redP.png'></img>	stop	2750.0	2.0	4.0	stop	non-target	P	71,Index Finger	89,Middle Finger	0.0	0.0	2750.0	2750.0	0.0	0.0	n/a	0.0	go_stim
29816.739099182421	2750.0	n/a	763	89	2750	251.260900818	stim	stop-signal	584	1586814	0.0-25.4-1.4	beast_fmri_test	276	1584616,/,1585295,/,1585975,/,1586655,/	t,t,t,t	<img class = center src='/static/experiments/beast_fmri_test/images/P.png'></img>	71,89	2750.0	test	<img class = center src='/static/experiments/beast_fmri_test/images/redP.png'></img>	stop	2750.0	2.0	4.0	stop	non-target	P	71,Index Finger	89,Middle Finger	0.0	0.0	2750.0	2750.0	0.0	0.0	n/a	0.0	stop_stim
29816.739099182421	251.26090081765855	n/a	763	89	2750	251.260900818	stim	stop-signal	584	1586814	0.0-25.4-1.4	beast_fmri_test	276	1584616,/,1585295,/,1585975,/,1586655,/	t,t,t,t	<img class = center src='/static/experiments/beast_fmri_test/images/P.png'></img>	71,89	2750.0	test	<img class = center src='/static/experiments/beast_fmri_test/images/redP.png'></img>	stop	2750.0	2.0	4.0	stop	non-target	P	71,Index Finger	89,Middle Finger	0.0	0.0	2750.0	2750.0	0.0	0.0	n/a	0.0	ITI
30880	500	n/a	-1	-1	500	0.0	fixation	poldrack-single-stim	585	1587626	0.0-25.5-0.5	beast_fmri_test	276	1587337,/	t	<div class = centerbox2><div class = fixation>+</div></div>	none	500.0	test	n/a	n/a	n/a	n/a	n/a	n/a	n/a	n/a	n/a	n/a	n/a	n/a	n/a	n/a	n/a	n/a	n/a	n/a	fixation
28275.60646728822	2750	n/a	775	71	2750	2606.39353271	stim	stop-signal	586	1590378	0.0-25.5-1.5	beast_fmri_test	276	1588017,/,1588696,/,1589376,/,1590056,/,1590736,/,1591415,/,1592095,/,1592777,/	t,t,t,t,t,t,t,t	<img class = center src='/static/experiments/beast_fmri_test/images/V.png'></img>	71,89	2750.0	test	<img class = center src='/static/experiments/beast_fmri_test/images/redV.png'></img>	go	2750.0	2.0	5.0	go	target	V	71,Index Finger	89,Middle Finger	0.0	0.0	2750.0	2750.0	1.0	0.0	1.0	n/a	go_stim
31025.60646728822	2606.3935327117952	n/a	775	71	2750	2606.39353271	stim	stop-signal	586	1590378	0.0-25.5-1.5	beast_fmri_test	276	1588017,/,1588696,/,1589376,/,1590056,/,1590736,/,1591415,/,1592095,/,1592777,/	t,t,t,t,t,t,t,t	<img class = center src='/static/experiments/beast_fmri_test/images/V.png'></img>	71,89	2750.0	test	<img class = center src='/static/experiments/beast_fmri_test/images/redV.png'></img>	go	2750.0	2.0	5.0	go	target	V	71,Index Finger	89,Middle Finger	0.0	0.0	2750.0	2750.0	1.0	0.0	1.0	n/a	ITI
36795	500	n/a	-1	-1	500	0.0	fixation	poldrack-single-stim	587	1593541	0.0-25.6-0.6	beast_fmri_test	276	1593454,/	t	<div class = centerbox2><div class = fixation>+</div></div>	none	500.0	test	n/a	n/a	n/a	n/a	n/a	n/a	n/a	n/a	n/a	n/a	n/a	n/a	n/a	n/a	n/a	n/a	n/a	n/a	fixation
36401.678589612944	2750	n/a	550	89	2750	393.321410387	stim	stop-signal	588	1596291	0.0-25.6-1.6	beast_fmri_test	276	1594131,/,1594811,/,1595491,/,1596172,/	t,t,t,t	<img class = center src='/static/experiments/beast_fmri_test/images/P.png'></img>	71,89	2750.0	test	<img class = center src='/static/experiments/beast_fmri_test/images/redP.png'></img>	go	2750.0	2.0	6.0	go	target	P	71,Index Finger	89,Middle Finger	0.0	0.0	2750.0	2750.0	0.0	0.0	0.0	n/a	go_stim
39151.678589612944	393.32141038716173	n/a	550	89	2750	393.321410387	stim	stop-signal	588	1596291	0.0-25.6-1.6	beast_fmri_test	276	1594131,/,1594811,/,1595491,/,1596172,/	t,t,t,t	<img class = center src='/static/experiments/beast_fmri_test/images/P.png'></img>	71,89	2750.0	test	<img class = center src='/static/experiments/beast_fmri_test/images/redP.png'></img>	go	2750.0	2.0	6.0	go	target	P	71,Index Finger	89,Middle Finger	0.0	0.0	2750.0	2750.0	0.0	0.0	0.0	n/a	ITI
40499	500	n/a	-1	-1	500	0.0	fixation	poldrack-single-stim	589	1597245	0.0-25.7-0.7	beast_fmri_test	276	1596851,/	t	<div class = centerbox2><div class = fixation>+</div></div>	none	500.0	test	n/a	n/a	n/a	n/a	n/a	n/a	n/a	n/a	n/a	n/a	n/a	n/a	n/a	n/a	n/a	n/a	n/a	n/a	fixation
39017.401008449262	0.0	n/a	590	89	2750	1484.59899155	stim	stop-signal	590	1599998	0.0-25.7-1.7	beast_fmri_test	276	1597532,/,1598212,/,1598891,/,1599571,/,1600251,/,1600932,/	t,t,t,t,t,t	<img class = center src='/static/experiments/beast_fmri_test/images/D.png'></img>	71,89	2750.0	test	<img class = center src='/static/experiments/beast_fmri_test/images/redD.png'></img>	stop	2750.0	2.0	7.0	stop	non-target	D	71,Index Finger	89,Middle Finger	0.0	0.0	2750.0	2750.0	0.0	0.0	n/a	0.0	go_stim
41767.401008449262	2750.0	n/a	590	89	2750	1484.59899155	stim	stop-signal	590	1599998	0.0-25.7-1.7	beast_fmri_test	276	1597532,/,1598212,/,1598891,/,1599571,/,1600251,/,1600932,/	t,t,t,t,t,t	<img class = center src='/static/experiments/beast_fmri_test/images/D.png'></img>	71,89	2750.0	test	<img class = center src='/static/experiments/beast_fmri_test/images/redD.png'></img>	stop	2750.0	2.0	7.0	stop	non-target	D	71,Index Finger	89,Middle Finger	0.0	0.0	2750.0	2750.0	0.0	0.0	n/a	0.0	stop_stim
41767.401008449262	1484.5989915506243	n/a	590	89	2750	1484.59899155	stim	stop-signal	590	1599998	0.0-25.7-1.7	beast_fmri_test	276	1597532,/,1598212,/,1598891,/,1599571,/,1600251,/,1600932,/	t,t,t,t,t,t	<img class = center src='/static/experiments/beast_fmri_test/images/D.png'></img>	71,89	2750.0	test	<img class = center src='/static/experiments/beast_fmri_test/images/redD.png'></img>	stop	2750.0	2.0	7.0	stop	non-target	D	71,Index Finger	89,Middle Finger	0.0	0.0	2750.0	2750.0	0.0	0.0	n/a	0.0	ITI
45295	500	n/a	-1	-1	500	0.0	fixation	poldrack-single-stim	591	1602041	0.0-25.8-0.8	beast_fmri_test	276	1601611,/	t	<div class = centerbox2><div class = fixation>+</div></div>	none	500.0	test	n/a	n/a	n/a	n/a	n/a	n/a	n/a	n/a	n/a	n/a	n/a	n/a	n/a	n/a	n/a	n/a	n/a	n/a	fixation
44580.742567546433	2750	n/a	848	89	2750	711.257432454	stim	stop-signal	592	1604788	0.0-25.8-1.8	beast_fmri_test	276	1602292,/,1602971,/,1603648,/,1604326,/,1605008,/	t,t,t,t,t	<img class = center src='/static/experiments/beast_fmri_test/images/D.png'></img>	71,89	2750.0	test	<img class = center src='/static/experiments/beast_fmri_test/images/redD.png'></img>	go	2750.0	2.0	8.0	go	non-target	D	71,Index Finger	89,Middle Finger	0.0	0.0	2750.0	2750.0	1.0	0.0	1.0	n/a	go_stim
47330.742567546433	711.25743245351475	n/a	848	89	2750	711.257432454	stim	stop-signal	592	1604788	0.0-25.8-1.8	beast_fmri_test	276	1602292,/,1602971,/,1603648,/,1604326,/,1605008,/	t,t,t,t,t	<img class = center src='/static/experiments/beast_fmri_test/images/D.png'></img>	71,89	2750.0	test	<img class = center src='/static/experiments/beast_fmri_test/images/redD.png'></img>	go	2750.0	2.0	8.0	go	non-target	D	71,Index Finger	89,Middle Finger	0.0	0.0	2750.0	2750.0	1.0	0.0	1.0	n/a	ITI
49312	500	n/a	-1	-1	500	0.0	fixation	poldrack-single-stim	593	1606058	0.0-25.9-0.9	beast_fmri_test	276	1605688,/	t	<div class = centerbox2><div class = fixation>+</div></div>	none	500.0	test	n/a	n/a	n/a	n/a	n/a	n/a	n/a	n/a	n/a	n/a	n/a	n/a	n/a	n/a	n/a	n/a	n/a	n/a	fixation
47371.869102826808	0.0	n/a	1213	71	2750	1943.13089717	stim	stop-signal	594	1608811	0.0-25.9-1.9	beast_fmri_test	276	1606368,/,1607047,/,1607727,/,1608406,/,1609086,/,1609764,/,1610442,/	t,t,t,t,t,t,t	<img class = center src='/static/experiments/beast_fmri_test/images/D.png'></img>	71,89	2750.0	test	<img class = center src='/static/experiments/beast_fmri_test/images/redD.png'></img>	stop	2750.0	2.0	9.0	stop	target	D	71,Index Finger	89,Middle Finger	0.0	0.0	2750.0	2750.0	0.0	0.0	n/a	0.0	go_stim
50121.869102826808	2750.0	n/a	1213	71	2750	1943.13089717	stim	stop-signal	594	1608811	0.0-25.9-1.9	beast_fmri_test	276	1606368,/,1607047,/,1607727,/,1608406,/,1609086,/,1609764,/,1610442,/	t,t,t,t,t,t,t	<img class = center src='/static/experiments/beast_fmri_test/images/D.png'></img>	71,89	2750.0	test	<img class = center src='/static/experiments/beast_fmri_test/images/redD.png'></img>	stop	2750.0	2.0	9.0	stop	target	D	71,Index Finger	89,Middle Finger	0.0	0.0	2750.0	2750.0	0.0	0.0	n/a	0.0	stop_stim
50121.869102826808	1943.1308971732267	n/a	1213	71	2750	1943.13089717	stim	stop-signal	594	1608811	0.0-25.9-1.9	beast_fmri_test	276	1606368,/,1607047,/,1607727,/,1608406,/,1609086,/,1609764,/,1610442,/	t,t,t,t,t,t,t	<img class = center src='/static/experiments/beast_fmri_test/images/D.png'></img>	71,89	2750.0	test	<img class = center src='/static/experiments/beast_fmri_test/images/redD.png'></img>	stop	2750.0	2.0	9.0	stop	target	D	71,Index Finger	89,Middle Finger	0.0	0.0	2750.0	2750.0	0.0	0.0	n/a	0.0	ITI
54562	500	n/a	-1	-1	500	0.0	fixation	poldrack-single-stim	595	1611308	0.0-25.10-0.10	beast_fmri_test	276	1611123,/	t	<div class = centerbox2><div class = fixation>+</div></div>	none	500.0	test	n/a	n/a	n/a	n/a	n/a	n/a	n/a	n/a	n/a	n/a	n/a	n/a	n/a	n/a	n/a	n/a	n/a	n/a	fixation
54485.73754257313	2750	n/a	1558	71	2750	79.2624574268	stim	stop-signal	596	1614061	0.0-25.10-1.10	beast_fmri_test	276	1611803,/,1612483,/,1613162,/,1613841,/	t,t,t,t	<img class = center src='/static/experiments/beast_fmri_test/images/D.png'></img>	71,89	2750.0	test	<img class = center src='/static/experiments/beast_fmri_test/images/redD.png'></img>	go	2750.0	2.0	10.0	go	target	D	71,Index Finger	89,Middle Finger	0.0	0.0	2750.0	2750.0	1.0	0.0	1.0	n/a	go_stim
57235.73754257313	79.262457426811864	n/a	1558	71	2750	79.2624574268	stim	stop-signal	596	1614061	0.0-25.10-1.10	beast_fmri_test	276	1611803,/,1612483,/,1613162,/,1613841,/	t,t,t,t	<img class = center src='/static/experiments/beast_fmri_test/images/D.png'></img>	71,89	2750.0	test	<img class = center src='/static/experiments/beast_fmri_test/images/redD.png'></img>	go	2750.0	2.0	10.0	go	target	D	71,Index Finger	89,Middle Finger	0.0	0.0	2750.0	2750.0	1.0	0.0	1.0	n/a	ITI
57952	500	n/a	-1	-1	500	0.0	fixation	poldrack-single-stim	597	1614698	0.0-25.11-0.11	beast_fmri_test	276	1614522,/	t	<div class = centerbox2><div class = fixation>+</div></div>	none	500.0	test	n/a	n/a	n/a	n/a	n/a	n/a	n/a	n/a	n/a	n/a	n/a	n/a	n/a	n/a	n/a	n/a	n/a	n/a	fixation
57850.015911393333	2750	n/a	1660	89	2750	103.984088607	stim	stop-signal	598	1617450	0.0-25.11-1.11	beast_fmri_test	276	1615203,/,1615883,/,1616562,/,1617243,/	t,t,t,t	<img class = center src='/static/experiments/beast_fmri_test/images/T.png'></img>	71,89	2750.0	test	<img class = center src='/static/experiments/beast_fmri_test/images/redT.png'></img>	go	2750.0	2.0	11.0	go	non-target	T	71,Index Finger	89,Middle Finger	0.0	0.0	2750.0	2750.0	1.0	0.0	1.0	n/a	go_stim
60600.015911393333	103.98408860667369	n/a	1660	89	2750	103.984088607	stim	stop-signal	598	1617450	0.0-25.11-1.11	beast_fmri_test	276	1615203,/,1615883,/,1616562,/,1617243,/	t,t,t,t	<img class = center src='/static/experiments/beast_fmri_test/images/T.png'></img>	71,89	2750.0	test	<img class = center src='/static/experiments/beast_fmri_test/images/redT.png'></img>	go	2750.0	2.0	11.0	go	non-target	T	71,Index Finger	89,Middle Finger	0.0	0.0	2750.0	2750.0	1.0	0.0	1.0	n/a	ITI
61373	500	n/a	-1	-1	500	0.0	fixation	poldrack-single-stim	599	1618119	0.0-25.12-0.12	beast_fmri_test	276	1617922,/	t	<div class = centerbox2><div class = fixation>+</div></div>	none	500.0	test	n/a	n/a	n/a	n/a	n/a	n/a	n/a	n/a	n/a	n/a	n/a	n/a	n/a	n/a	n/a	n/a	n/a	n/a	fixation
59433.745745859575	2750	n/a	1431	89	2750	1937.25425414	stim	stop-signal	600	1620867	0.0-25.12-1.12	beast_fmri_test	276	1618599,/,1619276,/,1619957,/,1620638,/,1621317,/,1621998,/,1622676,/	t,t,t,t,t,t,t	<img class = center src='/static/experiments/beast_fmri_test/images/P.png'></img>	71,89	2750.0	test	<img class = center src='/static/experiments/beast_fmri_test/images/redP.png'></img>	go	2750.0	2.0	12.0	go	non-target	P	71,Index Finger	89,Middle Finger	0.0	0.0	2750.0	2750.0	1.0	0.0	1.0	n/a	go_stim
62183.745745859575	1937.2542541404569	n/a	1431	89	2750	1937.25425414	stim	stop-signal	600	1620867	0.0-25.12-1.12	beast_fmri_test	276	1618599,/,1619276,/,1619957,/,1620638,/,1621317,/,1621998,/,1622676,/	t,t,t,t,t,t,t	<img class = center src='/static/experiments/beast_fmri_test/images/P.png'></img>	71,89	2750.0	test	<img class = center src='/static/experiments/beast_fmri_test/images/redP.png'></img>	go	2750.0	2.0	12.0	go	non-target	P	71,Index Finger	89,Middle Finger	0.0	0.0	2750.0	2750.0	1.0	0.0	1.0	n/a	ITI
66630	500	n/a	-1	-1	500	0.0	fixation	poldrack-single-stim	601	1623376	0.0-25.13-0.13	beast_fmri_test	276	1623358,/	t	<div class = centerbox2><div class = fixation>+</div></div>	none	500.0	test	n/a	n/a	n/a	n/a	n/a	n/a	n/a	n/a	n/a	n/a	n/a	n/a	n/a	n/a	n/a	n/a	n/a	n/a	fixation
65893.069259340642	2750	n/a	914	89	2750	739.930740659	stim	stop-signal	602	1626129	0.0-25.13-1.13	beast_fmri_test	276	1624038,/,1624718,/,1625396,/,1626077,/,1626757,/	t,t,t,t,t	<img class = center src='/static/experiments/beast_fmri_test/images/B.png'></img>	71,89	2750.0	test	<img class = center src='/static/experiments/beast_fmri_test/images/redB.png'></img>	go	2750.0	2.0	13.0	go	non-target	B	71,Index Finger	89,Middle Finger	0.0	0.0	2750.0	2750.0	1.0	0.0	1.0	n/a	go_stim
68643.069259340642	739.93074065935252	n/a	914	89	2750	739.930740659	stim	stop-signal	602	1626129	0.0-25.13-1.13	beast_fmri_test	276	1624038,/,1624718,/,1625396,/,1626077,/,1626757,/	t,t,t,t,t	<img class = center src='/static/experiments/beast_fmri_test/images/B.png'></img>	71,89	2750.0	test	<img class = center src='/static/experiments/beast_fmri_test/images/redB.png'></img>	go	2750.0	2.0	13.0	go	non-target	B	71,Index Finger	89,Middle Finger	0.0	0.0	2750.0	2750.0	1.0	0.0	1.0	n/a	ITI
70681	500	n/a	-1	-1	500	0.0	fixation	poldrack-single-stim	603	1627427	0.0-25.14-0.14	beast_fmri_test	276	n/a	n/a	<div class = centerbox2><div class = fixation>+</div></div>	none	500.0	test	n/a	n/a	n/a	n/a	n/a	n/a	n/a	n/a	n/a	n/a	n/a	n/a	n/a	n/a	n/a	n/a	n/a	n/a	fixation
69719.824496060377	0.0	n/a	629	71	2750	964.17550394	stim	stop-signal	604	1630180	0.0-25.14-1.14	beast_fmri_test	276	1627437,/,1628117,/,1628798,/,1629478,/,1630158,/,1630838,/	t,t,t,t,t,t	<img class = center src='/static/experiments/beast_fmri_test/images/T.png'></img>	71,89	2750.0	test	<img class = center src='/static/experiments/beast_fmri_test/images/redT.png'></img>	stop	2750.0	2.0	14.0	stop	non-target	T	71,Index Finger	89,Middle Finger	0.0	0.0	2750.0	2750.0	0.0	0.0	n/a	0.0	go_stim
72469.824496060377	2750.0	n/a	629	71	2750	964.17550394	stim	stop-signal	604	1630180	0.0-25.14-1.14	beast_fmri_test	276	1627437,/,1628117,/,1628798,/,1629478,/,1630158,/,1630838,/	t,t,t,t,t,t	<img class = center src='/static/experiments/beast_fmri_test/images/T.png'></img>	71,89	2750.0	test	<img class = center src='/static/experiments/beast_fmri_test/images/redT.png'></img>	stop	2750.0	2.0	14.0	stop	non-target	T	71,Index Finger	89,Middle Finger	0.0	0.0	2750.0	2750.0	0.0	0.0	n/a	0.0	stop_stim
72469.824496060377	964.17550393966678	n/a	629	71	2750	964.17550394	stim	stop-signal	604	1630180	0.0-25.14-1.14	beast_fmri_test	276	1627437,/,1628117,/,1628798,/,1629478,/,1630158,/,1630838,/	t,t,t,t,t,t	<img class = center src='/static/experiments/beast_fmri_test/images/T.png'></img>	71,89	2750.0	test	<img class = center src='/static/experiments/beast_fmri_test/images/redT.png'></img>	stop	2750.0	2.0	14.0	stop	non-target	T	71,Index Finger	89,Middle Finger	0.0	0.0	2750.0	2750.0	0.0	0.0	n/a	0.0	ITI
74964	500	n/a	-1	-1	500	0.0	fixation	poldrack-single-stim	605	1631710	0.0-25.15-0.15	beast_fmri_test	276	1631519,/	t	<div class = centerbox2><div class = fixation>+</div></div>	none	500.0	test	n/a	n/a	n/a	n/a	n/a	n/a	n/a	n/a	n/a	n/a	n/a	n/a	n/a	n/a	n/a	n/a	n/a	n/a	fixation
73570.290779704694	2750	n/a	1849	89	2750	1393.7092203	stim	stop-signal	606	1634460	0.0-25.15-1.15	beast_fmri_test	276	1632197,/,1632876,/,1633557,/,1634234,/,1634914,/,1635594,/	t,t,t,t,t,t	<img class = center src='/static/experiments/beast_fmri_test/images/T.png'></img>	71,89	2750.0	test	<img class = center src='/static/experiments/beast_fmri_test/images/redT.png'></img>	go	2750.0	2.0	15.0	go	non-target	T	71,Index Finger	89,Middle Finger	0.0	0.0	2750.0	2750.0	1.0	0.0	1.0	n/a	go_stim
76320.290779704694	1393.7092202953204	n/a	1849	89	2750	1393.7092203	stim	stop-signal	606	1634460	0.0-25.15-1.15	beast_fmri_test	276	1632197,/,1632876,/,1633557,/,1634234,/,1634914,/,1635594,/	t,t,t,t,t,t	<img class = center src='/static/experiments/beast_fmri_test/images/T.png'></img>	71,89	2750.0	test	<img class = center src='/static/experiments/beast_fmri_test/images/redT.png'></img>	go	2750.0	2.0	15.0	go	non-target	T	71,Index Finger	89,Middle Finger	0.0	0.0	2750.0	2750.0	1.0	0.0	1.0	n/a	ITI
79675	500	n/a	-1	-1	500	0.0	fixation	poldrack-single-stim	607	1636421	0.0-25.16-0.16	beast_fmri_test	276	1636273,/	t	<div class = centerbox2><div class = fixation>+</div></div>	none	500.0	test	n/a	n/a	n/a	n/a	n/a	n/a	n/a	n/a	n/a	n/a	n/a	n/a	n/a	n/a	n/a	n/a	n/a	n/a	fixation
77874.864421353675	2750	n/a	2019	89	2750	1804.13557865	stim	stop-signal	608	1639175	0.0-25.16-1.16	beast_fmri_test	276	1636953,/,1637634,/,1638314,/,1638994,/,1639670,/,1640348,/	t,t,t,t,t,t	<img class = center src='/static/experiments/beast_fmri_test/images/B.png'></img>	71,89	2750.0	test	<img class = center src='/static/experiments/beast_fmri_test/images/redB.png'></img>	go	2750.0	2.0	16.0	go	non-target	B	71,Index Finger	89,Middle Finger	0.0	0.0	2750.0	2750.0	1.0	0.0	1.0	n/a	go_stim
80624.864421353675	1804.1355786463598	n/a	2019	89	2750	1804.13557865	stim	stop-signal	608	1639175	0.0-25.16-1.16	beast_fmri_test	276	1636953,/,1637634,/,1638314,/,1638994,/,1639670,/,1640348,/	t,t,t,t,t,t	<img class = center src='/static/experiments/beast_fmri_test/images/B.png'></img>	71,89	2750.0	test	<img class = center src='/static/experiments/beast_fmri_test/images/redB.png'></img>	go	2750.0	2.0	16.0	go	non-target	B	71,Index Finger	89,Middle Finger	0.0	0.0	2750.0	2750.0	1.0	0.0	1.0	n/a	ITI
84793	500	n/a	-1	-1	500	0.0	fixation	poldrack-single-stim	609	1641539	0.0-25.17-0.17	beast_fmri_test	276	1641038,/	t	<div class = centerbox2><div class = fixation>+</div></div>	none	500.0	test	n/a	n/a	n/a	n/a	n/a	n/a	n/a	n/a	n/a	n/a	n/a	n/a	n/a	n/a	n/a	n/a	n/a	n/a	fixation
83295.478483012179	2750	n/a	2095	89	2750	1500.52151699	stim	stop-signal	610	1644292	0.0-25.17-1.17	beast_fmri_test	276	1641708,/,1642389,/,1643069,/,1643749,/,1644427,/,1645108,/,1645787,/	t,t,t,t,t,t,t	<img class = center src='/static/experiments/beast_fmri_test/images/D.png'></img>	71,89	2750.0	test	<img class = center src='/static/experiments/beast_fmri_test/images/redD.png'></img>	go	2750.0	2.0	17.0	go	non-target	D	71,Index Finger	89,Middle Finger	0.0	0.0	2750.0	2750.0	1.0	0.0	1.0	n/a	go_stim
86045.478483012179	1500.5215169878463	n/a	2095	89	2750	1500.52151699	stim	stop-signal	610	1644292	0.0-25.17-1.17	beast_fmri_test	276	1641708,/,1642389,/,1643069,/,1643749,/,1644427,/,1645108,/,1645787,/	t,t,t,t,t,t,t	<img class = center src='/static/experiments/beast_fmri_test/images/D.png'></img>	71,89	2750.0	test	<img class = center src='/static/experiments/beast_fmri_test/images/redD.png'></img>	go	2750.0	2.0	17.0	go	non-target	D	71,Index Finger	89,Middle Finger	0.0	0.0	2750.0	2750.0	1.0	0.0	1.0	n/a	ITI
89609	500	n/a	-1	-1	500	0.0	fixation	poldrack-single-stim	611	1646355	0.0-25.18-0.18	beast_fmri_test	276	n/a	n/a	<div class = centerbox2><div class = fixation>+</div></div>	none	500.0	test	n/a	n/a	n/a	n/a	n/a	n/a	n/a	n/a	n/a	n/a	n/a	n/a	n/a	n/a	n/a	n/a	n/a	n/a	fixation
87250.30241380888	0.0	n/a	1678	71	2750	2362.69758619	stim	stop-signal	612	1649109	0.0-25.18-1.18	beast_fmri_test	276	1646467,/,1647149,/,1647829,/,1648508,/,1649187,/,1649866,/,1650543,/,1651223,/	t,t,t,t,t,t,t,t	<img class = center src='/static/experiments/beast_fmri_test/images/B.png'></img>	71,89	2750.0	test	<img class = center src='/static/experiments/beast_fmri_test/images/redB.png'></img>	stop	2750.0	2.0	18.0	stop	target	B	71,Index Finger	89,Middle Finger	0.0	0.0	2750.0	2750.0	0.0	0.0	n/a	0.0	go_stim
90000.30241380888	2750.0	n/a	1678	71	2750	2362.69758619	stim	stop-signal	612	1649109	0.0-25.18-1.18	beast_fmri_test	276	1646467,/,1647149,/,1647829,/,1648508,/,1649187,/,1649866,/,1650543,/,1651223,/	t,t,t,t,t,t,t,t	<img class = center src='/static/experiments/beast_fmri_test/images/B.png'></img>	71,89	2750.0	test	<img class = center src='/static/experiments/beast_fmri_test/images/redB.png'></img>	stop	2750.0	2.0	18.0	stop	target	B	71,Index Finger	89,Middle Finger	0.0	0.0	2750.0	2750.0	0.0	0.0	n/a	0.0	stop_stim
90000.30241380888	2362.6975861912329	n/a	1678	71	2750	2362.69758619	stim	stop-signal	612	1649109	0.0-25.18-1.18	beast_fmri_test	276	1646467,/,1647149,/,1647829,/,1648508,/,1649187,/,1649866,/,1650543,/,1651223,/	t,t,t,t,t,t,t,t	<img class = center src='/static/experiments/beast_fmri_test/images/B.png'></img>	71,89	2750.0	test	<img class = center src='/static/experiments/beast_fmri_test/images/redB.png'></img>	stop	2750.0	2.0	18.0	stop	target	B	71,Index Finger	89,Middle Finger	0.0	0.0	2750.0	2750.0	0.0	0.0	n/a	0.0	ITI
95283	500	n/a	-1	-1	500	0.0	fixation	poldrack-single-stim	613	1652029	0.0-25.19-0.19	beast_fmri_test	276	1651903,/	t	<div class = centerbox2><div class = fixation>+</div></div>	none	500.0	test	n/a	n/a	n/a	n/a	n/a	n/a	n/a	n/a	n/a	n/a	n/a	n/a	n/a	n/a	n/a	n/a	n/a	n/a	fixation
95119.7661187388	0.0	n/a	923	89	2750	167.233881261	stim	stop-signal	614	1654783	0.0-25.19-1.19	beast_fmri_test	276	1652584,/,1653264,/,1653944,/,1654624,/	t,t,t,t	<img class = center src='/static/experiments/beast_fmri_test/images/T.png'></img>	71,89	2750.0	test	<img class = center src='/static/experiments/beast_fmri_test/images/redT.png'></img>	stop	2750.0	2.0	19.0	stop	non-target	T	71,Index Finger	89,Middle Finger	0.0	0.0	2750.0	2750.0	0.0	0.0	n/a	0.0	go_stim
97869.7661187388	2750.0	n/a	923	89	2750	167.233881261	stim	stop-signal	614	1654783	0.0-25.19-1.19	beast_fmri_test	276	1652584,/,1653264,/,1653944,/,1654624,/	t,t,t,t	<img class = center src='/static/experiments/beast_fmri_test/images/T.png'></img>	71,89	2750.0	test	<img class = center src='/static/experiments/beast_fmri_test/images/redT.png'></img>	stop	2750.0	2.0	19.0	stop	non-target	T	71,Index Finger	89,Middle Finger	0.0	0.0	2750.0	2750.0	0.0	0.0	n/a	0.0	stop_stim
97869.7661187388	167.23388126110027	n/a	923	89	2750	167.233881261	stim	stop-signal	614	1654783	0.0-25.19-1.19	beast_fmri_test	276	1652584,/,1653264,/,1653944,/,1654624,/	t,t,t,t	<img class = center src='/static/experiments/beast_fmri_test/images/T.png'></img>	71,89	2750.0	test	<img class = center src='/static/experiments/beast_fmri_test/images/redT.png'></img>	stop	2750.0	2.0	19.0	stop	non-target	T	71,Index Finger	89,Middle Finger	0.0	0.0	2750.0	2750.0	0.0	0.0	n/a	0.0	ITI
98768	500	n/a	-1	-1	500	0.0	fixation	poldrack-single-stim	615	1655514	0.0-25.20-0.20	beast_fmri_test	276	1655303,/	t	<div class = centerbox2><div class = fixation>+</div></div>	none	500.0	test	n/a	n/a	n/a	n/a	n/a	n/a	n/a	n/a	n/a	n/a	n/a	n/a	n/a	n/a	n/a	n/a	n/a	n/a	fixation
98291.468405250693	2750	n/a	679	89	2750	479.531594749	stim	stop-signal	616	1658267	0.0-25.20-1.20	beast_fmri_test	276	1655983,/,1656663,/,1657342,/,1658023,/,1658700,/	t,t,t,t,t	<img class = center src='/static/experiments/beast_fmri_test/images/V.png'></img>	71,89	2750.0	test	<img class = center src='/static/experiments/beast_fmri_test/images/redV.png'></img>	go	2750.0	2.0	20.0	go	non-target	V	71,Index Finger	89,Middle Finger	0.0	0.0	2750.0	2750.0	1.0	0.0	1.0	n/a	go_stim
101041.46840525069	479.53159474939417	n/a	679	89	2750	479.531594749	stim	stop-signal	616	1658267	0.0-25.20-1.20	beast_fmri_test	276	1655983,/,1656663,/,1657342,/,1658023,/,1658700,/	t,t,t,t,t	<img class = center src='/static/experiments/beast_fmri_test/images/V.png'></img>	71,89	2750.0	test	<img class = center src='/static/experiments/beast_fmri_test/images/redV.png'></img>	go	2750.0	2.0	20.0	go	non-target	V	71,Index Finger	89,Middle Finger	0.0	0.0	2750.0	2750.0	1.0	0.0	1.0	n/a	ITI
102560	500	n/a	-1	-1	500	0.0	fixation	poldrack-single-stim	617	1659306	0.0-25.21-0.21	beast_fmri_test	276	n/a	n/a	<div class = centerbox2><div class = fixation>+</div></div>	none	500.0	test	n/a	n/a	n/a	n/a	n/a	n/a	n/a	n/a	n/a	n/a	n/a	n/a	n/a	n/a	n/a	n/a	n/a	n/a	fixation
102548.85966990516	0.0	n/a	884	89	2750	14.1403300947	stim	stop-signal	618	1662059	0.0-25.21-1.21	beast_fmri_test	276	1659379,/,1660058,/,1660739,/,1661418,/	t,t,t,t	<img class = center src='/static/experiments/beast_fmri_test/images/D.png'></img>	71,89	2750.0	test	<img class = center src='/static/experiments/beast_fmri_test/images/redD.png'></img>	stop	2750.0	2.0	21.0	stop	non-target	D	71,Index Finger	89,Middle Finger	0.0	0.0	2750.0	2750.0	0.0	0.0	n/a	0.0	go_stim
105298.85966990516	2750.0	n/a	884	89	2750	14.1403300947	stim	stop-signal	618	1662059	0.0-25.21-1.21	beast_fmri_test	276	1659379,/,1660058,/,1660739,/,1661418,/	t,t,t,t	<img class = center src='/static/experiments/beast_fmri_test/images/D.png'></img>	71,89	2750.0	test	<img class = center src='/static/experiments/beast_fmri_test/images/redD.png'></img>	stop	2750.0	2.0	21.0	stop	non-target	D	71,Index Finger	89,Middle Finger	0.0	0.0	2750.0	2750.0	0.0	0.0	n/a	0.0	stop_stim
105298.85966990516	14.140330094741511	n/a	884	89	2750	14.1403300947	stim	stop-signal	618	1662059	0.0-25.21-1.21	beast_fmri_test	276	1659379,/,1660058,/,1660739,/,1661418,/	t,t,t,t	<img class = center src='/static/experiments/beast_fmri_test/images/D.png'></img>	71,89	2750.0	test	<img class = center src='/static/experiments/beast_fmri_test/images/redD.png'></img>	stop	2750.0	2.0	21.0	stop	non-target	D	71,Index Finger	89,Middle Finger	0.0	0.0	2750.0	2750.0	0.0	0.0	n/a	0.0	ITI
105887	500	n/a	-1	-1	500	0.0	fixation	poldrack-single-stim	619	1662633	0.0-25.22-0.22	beast_fmri_test	276	1662134,/	t	<div class = centerbox2><div class = fixation>+</div></div>	none	500.0	test	n/a	n/a	n/a	n/a	n/a	n/a	n/a	n/a	n/a	n/a	n/a	n/a	n/a	n/a	n/a	n/a	n/a	n/a	fixation
101919.74088825518	2750	n/a	770	89	2750	3970.25911174	stim	stop-signal	620	1665386	0.0-25.22-1.22	beast_fmri_test	276	1662780,/,1663459,/,1664139,/,1664819,/,1665498,/,1666180,/,1666860,/,1667540,/,1668219,/,1668900,/	t,t,t,t,t,t,t,t,t,t	<img class = center src='/static/experiments/beast_fmri_test/images/T.png'></img>	71,89	2750.0	test	<img class = center src='/static/experiments/beast_fmri_test/images/redT.png'></img>	go	2750.0	2.0	22.0	go	non-target	T	71,Index Finger	89,Middle Finger	0.0	0.0	2750.0	2750.0	1.0	0.0	1.0	n/a	go_stim
104669.74088825518	3970.259111744876	n/a	770	89	2750	3970.25911174	stim	stop-signal	620	1665386	0.0-25.22-1.22	beast_fmri_test	276	1662780,/,1663459,/,1664139,/,1664819,/,1665498,/,1666180,/,1666860,/,1667540,/,1668219,/,1668900,/	t,t,t,t,t,t,t,t,t,t	<img class = center src='/static/experiments/beast_fmri_test/images/T.png'></img>	71,89	2750.0	test	<img class = center src='/static/experiments/beast_fmri_test/images/redT.png'></img>	go	2750.0	2.0	22.0	go	non-target	T	71,Index Finger	89,Middle Finger	0.0	0.0	2750.0	2750.0	1.0	0.0	1.0	n/a	ITI
113174	500	n/a	-1	-1	500	0.0	fixation	poldrack-single-stim	621	1669920	0.0-25.23-0.23	beast_fmri_test	276	1669578,/	t	<div class = centerbox2><div class = fixation>+</div></div>	none	500.0	test	n/a	n/a	n/a	n/a	n/a	n/a	n/a	n/a	n/a	n/a	n/a	n/a	n/a	n/a	n/a	n/a	n/a	n/a	fixation
111778.33840057906	2750	n/a	560	89	2750	1397.66159942	stim	stop-signal	622	1672672	0.0-25.23-1.23	beast_fmri_test	276	1670256,/,1670935,/,1671614,/,1672294,/,1672974,/,1673655,/	t,t,t,t,t,t	<img class = center src='/static/experiments/beast_fmri_test/images/P.png'></img>	71,89	2750.0	test	<img class = center src='/static/experiments/beast_fmri_test/images/redP.png'></img>	go	2750.0	2.0	23.0	go	non-target	P	71,Index Finger	89,Middle Finger	0.0	0.0	2750.0	2750.0	1.0	0.0	1.0	n/a	go_stim
114528.33840057906	1397.6615994209158	n/a	560	89	2750	1397.66159942	stim	stop-signal	622	1672672	0.0-25.23-1.23	beast_fmri_test	276	1670256,/,1670935,/,1671614,/,1672294,/,1672974,/,1673655,/	t,t,t,t,t,t	<img class = center src='/static/experiments/beast_fmri_test/images/P.png'></img>	71,89	2750.0	test	<img class = center src='/static/experiments/beast_fmri_test/images/redP.png'></img>	go	2750.0	2.0	23.0	go	non-target	P	71,Index Finger	89,Middle Finger	0.0	0.0	2750.0	2750.0	1.0	0.0	1.0	n/a	ITI
117891	500	n/a	-1	-1	500	0.0	fixation	poldrack-single-stim	623	1674637	0.0-25.24-0.24	beast_fmri_test	276	1674333,/	t	<div class = centerbox2><div class = fixation>+</div></div>	none	500.0	test	n/a	n/a	n/a	n/a	n/a	n/a	n/a	n/a	n/a	n/a	n/a	n/a	n/a	n/a	n/a	n/a	n/a	n/a	fixation
116679.14890425676	0.0	n/a	1095	89	2750	1215.85109574	stim	stop-signal	624	1677391	0.0-25.24-1.24	beast_fmri_test	276	1675014,/,1675695,/,1676374,/,1677054,/,1677734,/,1678414,/	t,t,t,t,t,t	<img class = center src='/static/experiments/beast_fmri_test/images/P.png'></img>	71,89	2750.0	test	<img class = center src='/static/experiments/beast_fmri_test/images/redP.png'></img>	stop	2750.0	2.0	24.0	stop	non-target	P	71,Index Finger	89,Middle Finger	0.0	0.0	2750.0	2750.0	0.0	0.0	n/a	0.0	go_stim
119429.14890425676	2750.0	n/a	1095	89	2750	1215.85109574	stim	stop-signal	624	1677391	0.0-25.24-1.24	beast_fmri_test	276	1675014,/,1675695,/,1676374,/,1677054,/,1677734,/,1678414,/	t,t,t,t,t,t	<img class = center src='/static/experiments/beast_fmri_test/images/P.png'></img>	71,89	2750.0	test	<img class = center src='/static/experiments/beast_fmri_test/images/redP.png'></img>	stop	2750.0	2.0	24.0	stop	non-target	P	71,Index Finger	89,Middle Finger	0.0	0.0	2750.0	2750.0	0.0	0.0	n/a	0.0	stop_stim
119429.14890425676	1215.8510957433184	n/a	1095	89	2750	1215.85109574	stim	stop-signal	624	1677391	0.0-25.24-1.24	beast_fmri_test	276	1675014,/,1675695,/,1676374,/,1677054,/,1677734,/,1678414,/	t,t,t,t,t,t	<img class = center src='/static/experiments/beast_fmri_test/images/P.png'></img>	71,89	2750.0	test	<img class = center src='/static/experiments/beast_fmri_test/images/redP.png'></img>	stop	2750.0	2.0	24.0	stop	non-target	P	71,Index Finger	89,Middle Finger	0.0	0.0	2750.0	2750.0	0.0	0.0	n/a	0.0	ITI
122429	500	n/a	-1	-1	500	0.0	fixation	poldrack-single-stim	625	1679175	0.0-25.25-0.25	beast_fmri_test	276	1679093,/	t	<div class = centerbox2><div class = fixation>+</div></div>	none	500.0	test	n/a	n/a	n/a	n/a	n/a	n/a	n/a	n/a	n/a	n/a	n/a	n/a	n/a	n/a	n/a	n/a	n/a	n/a	fixation
122320.5083805481	2750	n/a	1154	89	2750	109.491619452	stim	stop-signal	626	1681926	0.0-25.25-1.25	beast_fmri_test	276	1679771,/,1680450,/,1681130,/,1681810,/	t,t,t,t	<img class = center src='/static/experiments/beast_fmri_test/images/B.png'></img>	71,89	2750.0	test	<img class = center src='/static/experiments/beast_fmri_test/images/redB.png'></img>	go	2750.0	2.0	25.0	go	non-target	B	71,Index Finger	89,Middle Finger	0.0	0.0	2750.0	2750.0	1.0	0.0	1.0	n/a	go_stim
125070.5083805481	109.49161945192672	n/a	1154	89	2750	109.491619452	stim	stop-signal	626	1681926	0.0-25.25-1.25	beast_fmri_test	276	1679771,/,1680450,/,1681130,/,1681810,/	t,t,t,t	<img class = center src='/static/experiments/beast_fmri_test/images/B.png'></img>	71,89	2750.0	test	<img class = center src='/static/experiments/beast_fmri_test/images/redB.png'></img>	go	2750.0	2.0	25.0	go	non-target	B	71,Index Finger	89,Middle Finger	0.0	0.0	2750.0	2750.0	1.0	0.0	1.0	n/a	ITI
125865	500	n/a	-1	-1	500	0.0	fixation	poldrack-single-stim	627	1682611	0.0-25.26-0.26	beast_fmri_test	276	1682490,/	t	<div class = centerbox2><div class = fixation>+</div></div>	none	500.0	test	n/a	n/a	n/a	n/a	n/a	n/a	n/a	n/a	n/a	n/a	n/a	n/a	n/a	n/a	n/a	n/a	n/a	n/a	fixation
125490.69401730294	2750	n/a	1670	71	2750	377.305982697	stim	stop-signal	628	1685364	0.0-25.26-1.26	beast_fmri_test	276	1683168,/,1683849,/,1684529,/,1685208,/	t,t,t,t	<img class = center src='/static/experiments/beast_fmri_test/images/B.png'></img>	71,89	2750.0	test	<img class = center src='/static/experiments/beast_fmri_test/images/redB.png'></img>	go	2750.0	2.0	26.0	go	non-target	B	71,Index Finger	89,Middle Finger	0.0	0.0	2750.0	2750.0	0.0	0.0	0.0	n/a	go_stim
128240.69401730294	377.30598269697145	n/a	1670	71	2750	377.305982697	stim	stop-signal	628	1685364	0.0-25.26-1.26	beast_fmri_test	276	1683168,/,1683849,/,1684529,/,1685208,/	t,t,t,t	<img class = center src='/static/experiments/beast_fmri_test/images/B.png'></img>	71,89	2750.0	test	<img class = center src='/static/experiments/beast_fmri_test/images/redB.png'></img>	go	2750.0	2.0	26.0	go	non-target	B	71,Index Finger	89,Middle Finger	0.0	0.0	2750.0	2750.0	0.0	0.0	0.0	n/a	ITI
129565	500	n/a	-1	-1	500	0.0	fixation	poldrack-single-stim	629	1686311	0.0-25.27-0.27	beast_fmri_test	276	1685889,/	t	<div class = centerbox2><div class = fixation>+</div></div>	none	500.0	test	n/a	n/a	n/a	n/a	n/a	n/a	n/a	n/a	n/a	n/a	n/a	n/a	n/a	n/a	n/a	n/a	n/a	n/a	fixation
127832.5173567906	2750	n/a	1052	71	2750	1735.48264321	stim	stop-signal	630	1689064	0.0-25.27-1.27	beast_fmri_test	276	1686570,/,1687250,/,1687929,/,1688609,/,1689291,/,1689971,/,1690651,/	t,t,t,t,t,t,t	<img class = center src='/static/experiments/beast_fmri_test/images/B.png'></img>	71,89	2750.0	test	<img class = center src='/static/experiments/beast_fmri_test/images/redB.png'></img>	go	2750.0	2.0	27.0	go	target	B	71,Index Finger	89,Middle Finger	0.0	0.0	2750.0	2750.0	1.0	0.0	1.0	n/a	go_stim
130582.5173567906	1735.4826432094017	n/a	1052	71	2750	1735.48264321	stim	stop-signal	630	1689064	0.0-25.27-1.27	beast_fmri_test	276	1686570,/,1687250,/,1687929,/,1688609,/,1689291,/,1689971,/,1690651,/	t,t,t,t,t,t,t	<img class = center src='/static/experiments/beast_fmri_test/images/B.png'></img>	71,89	2750.0	test	<img class = center src='/static/experiments/beast_fmri_test/images/redB.png'></img>	go	2750.0	2.0	27.0	go	target	B	71,Index Finger	89,Middle Finger	0.0	0.0	2750.0	2750.0	1.0	0.0	1.0	n/a	ITI
134620	500	n/a	-1	-1	500	0.0	fixation	poldrack-single-stim	631	1691366	0.0-25.28-0.28	beast_fmri_test	276	1691331,/	t	<div class = centerbox2><div class = fixation>+</div></div>	none	500.0	test	n/a	n/a	n/a	n/a	n/a	n/a	n/a	n/a	n/a	n/a	n/a	n/a	n/a	n/a	n/a	n/a	n/a	n/a	fixation
134490.50209270045	0.0	n/a	719	71	2750	129.4979073	stim	stop-signal	632	1694116	0.0-25.28-1.28	beast_fmri_test	276	1692011,/,1692689,/,1693368,/,1694045,/	t,t,t,t	<img class = center src='/static/experiments/beast_fmri_test/images/B.png'></img>	71,89	2750.0	test	<img class = center src='/static/experiments/beast_fmri_test/images/redB.png'></img>	stop	2750.0	2.0	28.0	stop	target	B	71,Index Finger	89,Middle Finger	0.0	0.0	2750.0	2750.0	0.0	0.0	n/a	0.0	go_stim
137240.50209270045	2750.0	n/a	719	71	2750	129.4979073	stim	stop-signal	632	1694116	0.0-25.28-1.28	beast_fmri_test	276	1692011,/,1692689,/,1693368,/,1694045,/	t,t,t,t	<img class = center src='/static/experiments/beast_fmri_test/images/B.png'></img>	71,89	2750.0	test	<img class = center src='/static/experiments/beast_fmri_test/images/redB.png'></img>	stop	2750.0	2.0	28.0	stop	target	B	71,Index Finger	89,Middle Finger	0.0	0.0	2750.0	2750.0	0.0	0.0	n/a	0.0	stop_stim
137240.50209270045	129.4979072995549	n/a	719	71	2750	129.4979073	stim	stop-signal	632	1694116	0.0-25.28-1.28	beast_fmri_test	276	1692011,/,1692689,/,1693368,/,1694045,/	t,t,t,t	<img class = center src='/static/experiments/beast_fmri_test/images/B.png'></img>	71,89	2750.0	test	<img class = center src='/static/experiments/beast_fmri_test/images/redB.png'></img>	stop	2750.0	2.0	28.0	stop	target	B	71,Index Finger	89,Middle Finger	0.0	0.0	2750.0	2750.0	0.0	0.0	n/a	0.0	ITI
138063	500	n/a	-1	-1	500	0.0	fixation	poldrack-single-stim	633	1694809	0.0-25.29-0.29	beast_fmri_test	276	1694726,/	t	<div class = centerbox2><div class = fixation>+</div></div>	none	500.0	test	n/a	n/a	n/a	n/a	n/a	n/a	n/a	n/a	n/a	n/a	n/a	n/a	n/a	n/a	n/a	n/a	n/a	n/a	fixation
137903.81266370625	2750	n/a	740	71	2750	162.187336294	stim	stop-signal	634	1697562	0.0-25.29-1.29	beast_fmri_test	276	1695406,/,1696086,/,1696766,/,1697445,/	t,t,t,t	<img class = center src='/static/experiments/beast_fmri_test/images/B.png'></img>	71,89	2750.0	test	<img class = center src='/static/experiments/beast_fmri_test/images/redB.png'></img>	go	2750.0	2.0	29.0	go	target	B	71,Index Finger	89,Middle Finger	0.0	0.0	2750.0	2750.0	1.0	0.0	1.0	n/a	go_stim
140653.81266370625	162.18733629371457	n/a	740	71	2750	162.187336294	stim	stop-signal	634	1697562	0.0-25.29-1.29	beast_fmri_test	276	1695406,/,1696086,/,1696766,/,1697445,/	t,t,t,t	<img class = center src='/static/experiments/beast_fmri_test/images/B.png'></img>	71,89	2750.0	test	<img class = center src='/static/experiments/beast_fmri_test/images/redB.png'></img>	go	2750.0	2.0	29.0	go	target	B	71,Index Finger	89,Middle Finger	0.0	0.0	2750.0	2750.0	1.0	0.0	1.0	n/a	ITI
141549	500	n/a	-1	-1	500	0.0	fixation	poldrack-single-stim	635	1698295	0.0-25.30-0.30	beast_fmri_test	276	1698125,/	t	<div class = centerbox2><div class = fixation>+</div></div>	none	500.0	test	n/a	n/a	n/a	n/a	n/a	n/a	n/a	n/a	n/a	n/a	n/a	n/a	n/a	n/a	n/a	n/a	n/a	n/a	fixation
138862.89814430336	2750	n/a	835	89	2750	2689.1018557	stim	stop-signal	636	1701048	0.0-25.30-1.30	beast_fmri_test	276	1698806,/,1699485,/,1700166,/,1700846,/,1701526,/,1702206,/,1702885,/,1703566,/	t,t,t,t,t,t,t,t	<img class = center src='/static/experiments/beast_fmri_test/images/T.png'></img>	71,89	2750.0	test	<img class = center src='/static/experiments/beast_fmri_test/images/redT.png'></img>	go	2750.0	2.0	30.0	go	non-target	T	71,Index Finger	89,Middle Finger	0.0	0.0	2750.0	2750.0	1.0	0.0	1.0	n/a	go_stim
141612.89814430336	2689.1018556967283	n/a	835	89	2750	2689.1018557	stim	stop-signal	636	1701048	0.0-25.30-1.30	beast_fmri_test	276	1698806,/,1699485,/,1700166,/,1700846,/,1701526,/,1702206,/,1702885,/,1703566,/	t,t,t,t,t,t,t,t	<img class = center src='/static/experiments/beast_fmri_test/images/T.png'></img>	71,89	2750.0	test	<img class = center src='/static/experiments/beast_fmri_test/images/redT.png'></img>	go	2750.0	2.0	30.0	go	non-target	T	71,Index Finger	89,Middle Finger	0.0	0.0	2750.0	2750.0	1.0	0.0	1.0	n/a	ITI
147558	500	n/a	-1	-1	500	0.0	fixation	poldrack-single-stim	637	1704304	0.0-25.31-0.31	beast_fmri_test	276	1704245,/	t	<div class = centerbox2><div class = fixation>+</div></div>	none	500.0	test	n/a	n/a	n/a	n/a	n/a	n/a	n/a	n/a	n/a	n/a	n/a	n/a	n/a	n/a	n/a	n/a	n/a	n/a	fixation
144275.80802665791	2750	n/a	725	71	2750	3285.19197334	stim	stop-signal	638	1707057	0.0-25.31-1.31	beast_fmri_test	276	1704926,/,1705606,/,1706286,/,1706965,/,1707644,/,1708326,/,1709006,/,1709685,/	t,t,t,t,t,t,t,t	<img class = center src='/static/experiments/beast_fmri_test/images/B.png'></img>	71,89	2750.0	test	<img class = center src='/static/experiments/beast_fmri_test/images/redB.png'></img>	go	2750.0	2.0	31.0	go	target	B	71,Index Finger	89,Middle Finger	0.0	0.0	2750.0	2750.0	1.0	0.0	1.0	n/a	go_stim
147025.80802665791	3285.1919733421728	n/a	725	71	2750	3285.19197334	stim	stop-signal	638	1707057	0.0-25.31-1.31	beast_fmri_test	276	1704926,/,1705606,/,1706286,/,1706965,/,1707644,/,1708326,/,1709006,/,1709685,/	t,t,t,t,t,t,t,t	<img class = center src='/static/experiments/beast_fmri_test/images/B.png'></img>	71,89	2750.0	test	<img class = center src='/static/experiments/beast_fmri_test/images/redB.png'></img>	go	2750.0	2.0	31.0	go	target	B	71,Index Finger	89,Middle Finger	0.0	0.0	2750.0	2750.0	1.0	0.0	1.0	n/a	ITI
154168	500	n/a	-1	-1	500	0.0	fixation	poldrack-single-stim	639	1710914	0.0-25.32-0.32	beast_fmri_test	276	1710414,/	t	<div class = centerbox2><div class = fixation>+</div></div>	none	500.0	test	n/a	n/a	n/a	n/a	n/a	n/a	n/a	n/a	n/a	n/a	n/a	n/a	n/a	n/a	n/a	n/a	n/a	n/a	fixation
152604.02942149225	2750	n/a	549	89	2750	1563.97057851	stim	stop-signal	640	1713664	0.0-25.32-1.32	beast_fmri_test	276	1711045,/,1711725,/,1712404,/,1713085,/,1713763,/,1714441,/,1715121,/	t,t,t,t,t,t,t	<img class = center src='/static/experiments/beast_fmri_test/images/D.png'></img>	71,89	2750.0	test	<img class = center src='/static/experiments/beast_fmri_test/images/redD.png'></img>	go	2750.0	2.0	32.0	go	non-target	D	71,Index Finger	89,Middle Finger	0.0	0.0	2750.0	2750.0	1.0	0.0	1.0	n/a	go_stim
155354.02942149225	1563.9705785077915	n/a	549	89	2750	1563.97057851	stim	stop-signal	640	1713664	0.0-25.32-1.32	beast_fmri_test	276	1711045,/,1711725,/,1712404,/,1713085,/,1713763,/,1714441,/,1715121,/	t,t,t,t,t,t,t	<img class = center src='/static/experiments/beast_fmri_test/images/D.png'></img>	71,89	2750.0	test	<img class = center src='/static/experiments/beast_fmri_test/images/redD.png'></img>	go	2750.0	2.0	32.0	go	non-target	D	71,Index Finger	89,Middle Finger	0.0	0.0	2750.0	2750.0	1.0	0.0	1.0	n/a	ITI
159053	500	n/a	-1	-1	500	0.0	fixation	poldrack-single-stim	641	1715799	0.0-25.33-0.33	beast_fmri_test	276	n/a	n/a	<div class = centerbox2><div class = fixation>+</div></div>	none	500.0	test	n/a	n/a	n/a	n/a	n/a	n/a	n/a	n/a	n/a	n/a	n/a	n/a	n/a	n/a	n/a	n/a	n/a	n/a	fixation
158743.29751825868	0.0	n/a	601	71	2750	311.702481741	stim	stop-signal	642	1718551	0.0-25.33-1.33	beast_fmri_test	276	1715801,/,1716480,/,1717162,/,1717840,/,1718521,/	t,t,t,t,t	<img class = center src='/static/experiments/beast_fmri_test/images/B.png'></img>	71,89	2750.0	test	<img class = center src='/static/experiments/beast_fmri_test/images/redB.png'></img>	stop	2750.0	2.0	33.0	stop	target	B	71,Index Finger	89,Middle Finger	0.0	0.0	2750.0	2750.0	0.0	0.0	n/a	0.0	go_stim
161493.29751825868	2750.0	n/a	601	71	2750	311.702481741	stim	stop-signal	642	1718551	0.0-25.33-1.33	beast_fmri_test	276	1715801,/,1716480,/,1717162,/,1717840,/,1718521,/	t,t,t,t,t	<img class = center src='/static/experiments/beast_fmri_test/images/B.png'></img>	71,89	2750.0	test	<img class = center src='/static/experiments/beast_fmri_test/images/redB.png'></img>	stop	2750.0	2.0	33.0	stop	target	B	71,Index Finger	89,Middle Finger	0.0	0.0	2750.0	2750.0	0.0	0.0	n/a	0.0	stop_stim
161493.29751825868	311.70248174137794	n/a	601	71	2750	311.702481741	stim	stop-signal	642	1718551	0.0-25.33-1.33	beast_fmri_test	276	1715801,/,1716480,/,1717162,/,1717840,/,1718521,/	t,t,t,t,t	<img class = center src='/static/experiments/beast_fmri_test/images/B.png'></img>	71,89	2750.0	test	<img class = center src='/static/experiments/beast_fmri_test/images/redB.png'></img>	stop	2750.0	2.0	33.0	stop	target	B	71,Index Finger	89,Middle Finger	0.0	0.0	2750.0	2750.0	0.0	0.0	n/a	0.0	ITI
162681	500	n/a	-1	-1	500	0.0	fixation	poldrack-single-stim	643	1719427	0.0-25.34-0.34	beast_fmri_test	276	1719199,/	t	<div class = centerbox2><div class = fixation>+</div></div>	none	500.0	test	n/a	n/a	n/a	n/a	n/a	n/a	n/a	n/a	n/a	n/a	n/a	n/a	n/a	n/a	n/a	n/a	n/a	n/a	fixation
161985.34411868709	2750	n/a	1889	71	2750	698.655881313	stim	stop-signal	644	1722180	0.0-25.34-1.34	beast_fmri_test	276	1719876,/,1720557,/,1721236,/,1721916,/,1722597,/	t,t,t,t,t	<img class = center src='/static/experiments/beast_fmri_test/images/D.png'></img>	71,89	2750.0	test	<img class = center src='/static/experiments/beast_fmri_test/images/redD.png'></img>	go	2750.0	2.0	34.0	go	target	D	71,Index Finger	89,Middle Finger	0.0	0.0	2750.0	2750.0	1.0	0.0	1.0	n/a	go_stim
164735.34411868709	698.6558813129343	n/a	1889	71	2750	698.655881313	stim	stop-signal	644	1722180	0.0-25.34-1.34	beast_fmri_test	276	1719876,/,1720557,/,1721236,/,1721916,/,1722597,/	t,t,t,t,t	<img class = center src='/static/experiments/beast_fmri_test/images/D.png'></img>	71,89	2750.0	test	<img class = center src='/static/experiments/beast_fmri_test/images/redD.png'></img>	go	2750.0	2.0	34.0	go	target	D	71,Index Finger	89,Middle Finger	0.0	0.0	2750.0	2750.0	1.0	0.0	1.0	n/a	ITI
166705	500	n/a	-1	-1	500	0.0	fixation	poldrack-single-stim	645	1723451	0.0-25.35-0.35	beast_fmri_test	276	1723278,/	t	<div class = centerbox2><div class = fixation>+</div></div>	none	500.0	test	n/a	n/a	n/a	n/a	n/a	n/a	n/a	n/a	n/a	n/a	n/a	n/a	n/a	n/a	n/a	n/a	n/a	n/a	fixation
165293.97448214842	0.0	n/a	1435	89	2750	1414.02551785	stim	stop-signal	646	1726204	0.0-25.35-1.35	beast_fmri_test	276	1723957,/,1724637,/,1725316,/,1725995,/,1726676,/,1727357,/	t,t,t,t,t,t	<img class = center src='/static/experiments/beast_fmri_test/images/V.png'></img>	71,89	2750.0	test	<img class = center src='/static/experiments/beast_fmri_test/images/redV.png'></img>	stop	2750.0	2.0	35.0	stop	non-target	V	71,Index Finger	89,Middle Finger	0.0	0.0	2750.0	2750.0	0.0	0.0	n/a	0.0	go_stim
168043.97448214842	2750.0	n/a	1435	89	2750	1414.02551785	stim	stop-signal	646	1726204	0.0-25.35-1.35	beast_fmri_test	276	1723957,/,1724637,/,1725316,/,1725995,/,1726676,/,1727357,/	t,t,t,t,t,t	<img class = center src='/static/experiments/beast_fmri_test/images/V.png'></img>	71,89	2750.0	test	<img class = center src='/static/experiments/beast_fmri_test/images/redV.png'></img>	stop	2750.0	2.0	35.0	stop	non-target	V	71,Index Finger	89,Middle Finger	0.0	0.0	2750.0	2750.0	0.0	0.0	n/a	0.0	stop_stim
168043.97448214842	1414.0255178514944	n/a	1435	89	2750	1414.02551785	stim	stop-signal	646	1726204	0.0-25.35-1.35	beast_fmri_test	276	1723957,/,1724637,/,1725316,/,1725995,/,1726676,/,1727357,/	t,t,t,t,t,t	<img class = center src='/static/experiments/beast_fmri_test/images/V.png'></img>	71,89	2750.0	test	<img class = center src='/static/experiments/beast_fmri_test/images/redV.png'></img>	stop	2750.0	2.0	35.0	stop	non-target	V	71,Index Finger	89,Middle Finger	0.0	0.0	2750.0	2750.0	0.0	0.0	n/a	0.0	ITI
171453	500	n/a	-1	-1	500	0.0	fixation	poldrack-single-stim	647	1728199	0.0-25.36-0.36	beast_fmri_test	276	1728036,/	t	<div class = centerbox2><div class = fixation>+</div></div>	none	500.0	test	n/a	n/a	n/a	n/a	n/a	n/a	n/a	n/a	n/a	n/a	n/a	n/a	n/a	n/a	n/a	n/a	n/a	n/a	fixation
169235.67369363061	2750	n/a	941	89	2750	2217.32630637	stim	stop-signal	648	1730949	0.0-25.36-1.36	beast_fmri_test	276	1728713,/,1729392,/,1730072,/,1730751,/,1731431,/,1732112,/,1732791,/	t,t,t,t,t,t,t	<img class = center src='/static/experiments/beast_fmri_test/images/B.png'></img>	71,89	2750.0	test	<img class = center src='/static/experiments/beast_fmri_test/images/redB.png'></img>	go	2750.0	2.0	36.0	go	non-target	B	71,Index Finger	89,Middle Finger	0.0	0.0	2750.0	2750.0	1.0	0.0	1.0	n/a	go_stim
171985.67369363061	2217.3263063694253	n/a	941	89	2750	2217.32630637	stim	stop-signal	648	1730949	0.0-25.36-1.36	beast_fmri_test	276	1728713,/,1729392,/,1730072,/,1730751,/,1731431,/,1732112,/,1732791,/	t,t,t,t,t,t,t	<img class = center src='/static/experiments/beast_fmri_test/images/B.png'></img>	71,89	2750.0	test	<img class = center src='/static/experiments/beast_fmri_test/images/redB.png'></img>	go	2750.0	2.0	36.0	go	non-target	B	71,Index Finger	89,Middle Finger	0.0	0.0	2750.0	2750.0	1.0	0.0	1.0	n/a	ITI
176999	500	n/a	-1	-1	500	0.0	fixation	poldrack-single-stim	649	1733745	0.0-25.37-0.37	beast_fmri_test	276	1733473,/	t	<div class = centerbox2><div class = fixation>+</div></div>	none	500.0	test	n/a	n/a	n/a	n/a	n/a	n/a	n/a	n/a	n/a	n/a	n/a	n/a	n/a	n/a	n/a	n/a	n/a	n/a	fixation
176424.74868575786	2750	n/a	616	89	2750	578.251314242	stim	stop-signal	650	1736499	0.0-25.37-1.37	beast_fmri_test	276	1734151,/,1734832,/,1735511,/,1736191,/,1736872,/	t,t,t,t,t	<img class = center src='/static/experiments/beast_fmri_test/images/P.png'></img>	71,89	2750.0	test	<img class = center src='/static/experiments/beast_fmri_test/images/redP.png'></img>	go	2750.0	2.0	37.0	go	non-target	P	71,Index Finger	89,Middle Finger	0.0	0.0	2750.0	2750.0	1.0	0.0	1.0	n/a	go_stim
179174.74868575786	578.25131424208018	n/a	616	89	2750	578.251314242	stim	stop-signal	650	1736499	0.0-25.37-1.37	beast_fmri_test	276	1734151,/,1734832,/,1735511,/,1736191,/,1736872,/	t,t,t,t,t	<img class = center src='/static/experiments/beast_fmri_test/images/P.png'></img>	71,89	2750.0	test	<img class = center src='/static/experiments/beast_fmri_test/images/redP.png'></img>	go	2750.0	2.0	37.0	go	non-target	P	71,Index Finger	89,Middle Finger	0.0	0.0	2750.0	2750.0	1.0	0.0	1.0	n/a	ITI
180896	500	n/a	-1	-1	500	0.0	fixation	poldrack-single-stim	651	1737642	0.0-25.38-0.38	beast_fmri_test	276	1737551,/	t	<div class = centerbox2><div class = fixation>+</div></div>	none	500.0	test	n/a	n/a	n/a	n/a	n/a	n/a	n/a	n/a	n/a	n/a	n/a	n/a	n/a	n/a	n/a	n/a	n/a	n/a	fixation
180582.32030925388	0.0	n/a	486	89	2750	315.679690746	stim	stop-signal	652	1740394	0.0-25.38-1.38	beast_fmri_test	276	1738231,/,1738911,/,1739592,/,1740271,/	t,t,t,t	<img class = center src='/static/experiments/beast_fmri_test/images/D.png'></img>	71,89	2750.0	test	<img class = center src='/static/experiments/beast_fmri_test/images/redD.png'></img>	stop	2750.0	2.0	38.0	stop	non-target	D	71,Index Finger	89,Middle Finger	0.0	0.0	2750.0	2750.0	0.0	0.0	n/a	0.0	go_stim
183332.32030925388	2750.0	n/a	486	89	2750	315.679690746	stim	stop-signal	652	1740394	0.0-25.38-1.38	beast_fmri_test	276	1738231,/,1738911,/,1739592,/,1740271,/	t,t,t,t	<img class = center src='/static/experiments/beast_fmri_test/images/D.png'></img>	71,89	2750.0	test	<img class = center src='/static/experiments/beast_fmri_test/images/redD.png'></img>	stop	2750.0	2.0	38.0	stop	non-target	D	71,Index Finger	89,Middle Finger	0.0	0.0	2750.0	2750.0	0.0	0.0	n/a	0.0	stop_stim
183332.32030925388	315.67969074603366	n/a	486	89	2750	315.679690746	stim	stop-signal	652	1740394	0.0-25.38-1.38	beast_fmri_test	276	1738231,/,1738911,/,1739592,/,1740271,/	t,t,t,t	<img class = center src='/static/experiments/beast_fmri_test/images/D.png'></img>	71,89	2750.0	test	<img class = center src='/static/experiments/beast_fmri_test/images/redD.png'></img>	stop	2750.0	2.0	38.0	stop	non-target	D	71,Index Finger	89,Middle Finger	0.0	0.0	2750.0	2750.0	0.0	0.0	n/a	0.0	ITI
184536	500	n/a	-1	-1	500	0.0	fixation	poldrack-single-stim	653	1741282	0.0-25.39-0.39	beast_fmri_test	276	1740953,/	t	<div class = centerbox2><div class = fixation>+</div></div>	none	500.0	test	n/a	n/a	n/a	n/a	n/a	n/a	n/a	n/a	n/a	n/a	n/a	n/a	n/a	n/a	n/a	n/a	n/a	n/a	fixation
184450.33801323758	0.0	n/a	642	89	2750	85.6619867624	stim	stop-signal	654	1744032	0.0-25.39-1.39	beast_fmri_test	276	1741631,/,1742312,/,1742992,/,1743669,/	t,t,t,t	<img class = center src='/static/experiments/beast_fmri_test/images/B.png'></img>	71,89	2750.0	test	<img class = center src='/static/experiments/beast_fmri_test/images/redB.png'></img>	stop	2750.0	2.0	39.0	stop	non-target	B	71,Index Finger	89,Middle Finger	0.0	0.0	2750.0	2750.0	0.0	0.0	n/a	0.0	go_stim
187200.33801323758	2750.0	n/a	642	89	2750	85.6619867624	stim	stop-signal	654	1744032	0.0-25.39-1.39	beast_fmri_test	276	1741631,/,1742312,/,1742992,/,1743669,/	t,t,t,t	<img class = center src='/static/experiments/beast_fmri_test/images/B.png'></img>	71,89	2750.0	test	<img class = center src='/static/experiments/beast_fmri_test/images/redB.png'></img>	stop	2750.0	2.0	39.0	stop	non-target	B	71,Index Finger	89,Middle Finger	0.0	0.0	2750.0	2750.0	0.0	0.0	n/a	0.0	stop_stim
187200.33801323758	85.66198676239415	n/a	642	89	2750	85.6619867624	stim	stop-signal	654	1744032	0.0-25.39-1.39	beast_fmri_test	276	1741631,/,1742312,/,1742992,/,1743669,/	t,t,t,t	<img class = center src='/static/experiments/beast_fmri_test/images/B.png'></img>	71,89	2750.0	test	<img class = center src='/static/experiments/beast_fmri_test/images/redB.png'></img>	stop	2750.0	2.0	39.0	stop	non-target	B	71,Index Finger	89,Middle Finger	0.0	0.0	2750.0	2750.0	0.0	0.0	n/a	0.0	ITI
187949	500	n/a	-1	-1	500	0.0	fixation	poldrack-single-stim	655	1744695	0.0-25.40-0.40	beast_fmri_test	276	1744346,/	t	<div class = centerbox2><div class = fixation>+</div></div>	none	500.0	test	n/a	n/a	n/a	n/a	n/a	n/a	n/a	n/a	n/a	n/a	n/a	n/a	n/a	n/a	n/a	n/a	n/a	n/a	fixation
187833.58814841579	2750	n/a	554	89	2750	120.411851584	stim	stop-signal	656	1747450	0.0-25.40-1.40	beast_fmri_test	276	1745028,/,1745708,/,1746387,/,1747068,/	t,t,t,t	<img class = center src='/static/experiments/beast_fmri_test/images/V.png'></img>	71,89	2750.0	test	<img class = center src='/static/experiments/beast_fmri_test/images/redV.png'></img>	go	2750.0	2.0	40.0	go	non-target	V	71,Index Finger	89,Middle Finger	0.0	0.0	2750.0	2750.0	1.0	0.0	1.0	n/a	go_stim
190583.58814841579	120.41185158411993	n/a	554	89	2750	120.411851584	stim	stop-signal	656	1747450	0.0-25.40-1.40	beast_fmri_test	276	1745028,/,1745708,/,1746387,/,1747068,/	t,t,t,t	<img class = center src='/static/experiments/beast_fmri_test/images/V.png'></img>	71,89	2750.0	test	<img class = center src='/static/experiments/beast_fmri_test/images/redV.png'></img>	go	2750.0	2.0	40.0	go	non-target	V	71,Index Finger	89,Middle Finger	0.0	0.0	2750.0	2750.0	1.0	0.0	1.0	n/a	ITI
191397	500	n/a	-1	-1	500	0.0	fixation	poldrack-single-stim	657	1748143	0.0-25.41-0.41	beast_fmri_test	276	1747747,/	t	<div class = centerbox2><div class = fixation>+</div></div>	none	500.0	test	n/a	n/a	n/a	n/a	n/a	n/a	n/a	n/a	n/a	n/a	n/a	n/a	n/a	n/a	n/a	n/a	n/a	n/a	fixation
189440.36426128913	2750	n/a	1581	89	2750	1959.63573871	stim	stop-signal	658	1750896	0.0-25.41-1.41	beast_fmri_test	276	1748428,/,1749108,/,1749787,/,1750468,/,1751148,/,1751827,/,1752507,/	t,t,t,t,t,t,t	<img class = center src='/static/experiments/beast_fmri_test/images/D.png'></img>	71,89	2750.0	test	<img class = center src='/static/experiments/beast_fmri_test/images/redD.png'></img>	go	2750.0	2.0	41.0	go	non-target	D	71,Index Finger	89,Middle Finger	0.0	0.0	2750.0	2750.0	1.0	0.0	1.0	n/a	go_stim
192190.36426128913	1959.6357387108355	n/a	1581	89	2750	1959.63573871	stim	stop-signal	658	1750896	0.0-25.41-1.41	beast_fmri_test	276	1748428,/,1749108,/,1749787,/,1750468,/,1751148,/,1751827,/,1752507,/	t,t,t,t,t,t,t	<img class = center src='/static/experiments/beast_fmri_test/images/D.png'></img>	71,89	2750.0	test	<img class = center src='/static/experiments/beast_fmri_test/images/redD.png'></img>	go	2750.0	2.0	41.0	go	non-target	D	71,Index Finger	89,Middle Finger	0.0	0.0	2750.0	2750.0	1.0	0.0	1.0	n/a	ITI
196687	500	n/a	-1	-1	500	0.0	fixation	poldrack-single-stim	659	1753433	0.0-25.42-0.42	beast_fmri_test	276	1753188,/	t	<div class = centerbox2><div class = fixation>+</div></div>	none	500.0	test	n/a	n/a	n/a	n/a	n/a	n/a	n/a	n/a	n/a	n/a	n/a	n/a	n/a	n/a	n/a	n/a	n/a	n/a	fixation
196188.53101582616	2750	n/a	725	71	2750	497.468984174	stim	stop-signal	660	1756182	0.0-25.42-1.42	beast_fmri_test	276	1753864,/,1754542,/,1755223,/,1755902,/,1756583,/	t,t,t,t,t	<img class = center src='/static/experiments/beast_fmri_test/images/V.png'></img>	71,89	2750.0	test	<img class = center src='/static/experiments/beast_fmri_test/images/redV.png'></img>	go	2750.0	2.0	42.0	go	target	V	71,Index Finger	89,Middle Finger	0.0	0.0	2750.0	2750.0	1.0	0.0	1.0	n/a	go_stim
198938.53101582616	497.46898417374018	n/a	725	71	2750	497.468984174	stim	stop-signal	660	1756182	0.0-25.42-1.42	beast_fmri_test	276	1753864,/,1754542,/,1755223,/,1755902,/,1756583,/	t,t,t,t,t	<img class = center src='/static/experiments/beast_fmri_test/images/V.png'></img>	71,89	2750.0	test	<img class = center src='/static/experiments/beast_fmri_test/images/redV.png'></img>	go	2750.0	2.0	42.0	go	target	V	71,Index Finger	89,Middle Finger	0.0	0.0	2750.0	2750.0	1.0	0.0	1.0	n/a	ITI
200507	500	n/a	-1	-1	500	0.0	fixation	poldrack-single-stim	661	1757253	0.0-25.43-0.43	beast_fmri_test	276	n/a	n/a	<div class = centerbox2><div class = fixation>+</div></div>	none	500.0	test	n/a	n/a	n/a	n/a	n/a	n/a	n/a	n/a	n/a	n/a	n/a	n/a	n/a	n/a	n/a	n/a	n/a	n/a	fixation
199618.48830294423	0.0	n/a	683	71	2750	891.511697056	stim	stop-signal	662	1760006	0.0-25.43-1.43	beast_fmri_test	276	1757263,/,1757941,/,1758622,/,1759302,/,1759983,/,1760662,/	t,t,t,t,t,t	<img class = center src='/static/experiments/beast_fmri_test/images/D.png'></img>	71,89	2750.0	test	<img class = center src='/static/experiments/beast_fmri_test/images/redD.png'></img>	stop	2750.0	2.0	43.0	stop	target	D	71,Index Finger	89,Middle Finger	0.0	0.0	2750.0	2750.0	0.0	0.0	n/a	0.0	go_stim
202368.48830294423	2750.0	n/a	683	71	2750	891.511697056	stim	stop-signal	662	1760006	0.0-25.43-1.43	beast_fmri_test	276	1757263,/,1757941,/,1758622,/,1759302,/,1759983,/,1760662,/	t,t,t,t,t,t	<img class = center src='/static/experiments/beast_fmri_test/images/D.png'></img>	71,89	2750.0	test	<img class = center src='/static/experiments/beast_fmri_test/images/redD.png'></img>	stop	2750.0	2.0	43.0	stop	target	D	71,Index Finger	89,Middle Finger	0.0	0.0	2750.0	2750.0	0.0	0.0	n/a	0.0	stop_stim
202368.48830294423	891.51169705568373	n/a	683	71	2750	891.511697056	stim	stop-signal	662	1760006	0.0-25.43-1.43	beast_fmri_test	276	1757263,/,1757941,/,1758622,/,1759302,/,1759983,/,1760662,/	t,t,t,t,t,t	<img class = center src='/static/experiments/beast_fmri_test/images/D.png'></img>	71,89	2750.0	test	<img class = center src='/static/experiments/beast_fmri_test/images/redD.png'></img>	stop	2750.0	2.0	43.0	stop	target	D	71,Index Finger	89,Middle Finger	0.0	0.0	2750.0	2750.0	0.0	0.0	n/a	0.0	ITI
204724	500	n/a	-1	-1	500	0.0	fixation	poldrack-single-stim	663	1761470	0.0-25.44-0.44	beast_fmri_test	276	1761342,/	t	<div class = centerbox2><div class = fixation>+</div></div>	none	500.0	test	n/a	n/a	n/a	n/a	n/a	n/a	n/a	n/a	n/a	n/a	n/a	n/a	n/a	n/a	n/a	n/a	n/a	n/a	fixation
203741.10533250798	2750	n/a	1509	89	2750	986.894667492	stim	stop-signal	664	1764224	0.0-25.44-1.44	beast_fmri_test	276	1762023,/,1762701,/,1763382,/,1764062,/,1764742,/	t,t,t,t,t	<img class = center src='/static/experiments/beast_fmri_test/images/B.png'></img>	71,89	2750.0	test	<img class = center src='/static/experiments/beast_fmri_test/images/redB.png'></img>	go	2750.0	2.0	44.0	go	non-target	B	71,Index Finger	89,Middle Finger	0.0	0.0	2750.0	2750.0	1.0	0.0	1.0	n/a	go_stim
206491.10533250798	986.89466749199767	n/a	1509	89	2750	986.894667492	stim	stop-signal	664	1764224	0.0-25.44-1.44	beast_fmri_test	276	1762023,/,1762701,/,1763382,/,1764062,/,1764742,/	t,t,t,t,t	<img class = center src='/static/experiments/beast_fmri_test/images/B.png'></img>	71,89	2750.0	test	<img class = center src='/static/experiments/beast_fmri_test/images/redB.png'></img>	go	2750.0	2.0	44.0	go	non-target	B	71,Index Finger	89,Middle Finger	0.0	0.0	2750.0	2750.0	1.0	0.0	1.0	n/a	ITI
209041	500	n/a	-1	-1	500	0.0	fixation	poldrack-single-stim	665	1765787	0.0-25.45-0.45	beast_fmri_test	276	1765422,/	t	<div class = centerbox2><div class = fixation>+</div></div>	none	500.0	test	n/a	n/a	n/a	n/a	n/a	n/a	n/a	n/a	n/a	n/a	n/a	n/a	n/a	n/a	n/a	n/a	n/a	n/a	fixation
207048.96041108621	0.0	n/a	1077	89	2750	1996.03958891	stim	stop-signal	666	1768541	0.0-25.45-1.45	beast_fmri_test	276	1766103,/,1766783,/,1767463,/,1768141,/,1768822,/,1769503,/,1770183,/	t,t,t,t,t,t,t	<img class = center src='/static/experiments/beast_fmri_test/images/P.png'></img>	71,89	2750.0	test	<img class = center src='/static/experiments/beast_fmri_test/images/redP.png'></img>	stop	2750.0	2.0	45.0	stop	non-target	P	71,Index Finger	89,Middle Finger	0.0	0.0	2750.0	2750.0	0.0	0.0	n/a	0.0	go_stim
209798.96041108621	2750.0	n/a	1077	89	2750	1996.03958891	stim	stop-signal	666	1768541	0.0-25.45-1.45	beast_fmri_test	276	1766103,/,1766783,/,1767463,/,1768141,/,1768822,/,1769503,/,1770183,/	t,t,t,t,t,t,t	<img class = center src='/static/experiments/beast_fmri_test/images/P.png'></img>	71,89	2750.0	test	<img class = center src='/static/experiments/beast_fmri_test/images/redP.png'></img>	stop	2750.0	2.0	45.0	stop	non-target	P	71,Index Finger	89,Middle Finger	0.0	0.0	2750.0	2750.0	0.0	0.0	n/a	0.0	stop_stim
209798.96041108621	1996.0395889138849	n/a	1077	89	2750	1996.03958891	stim	stop-signal	666	1768541	0.0-25.45-1.45	beast_fmri_test	276	1766103,/,1766783,/,1767463,/,1768141,/,1768822,/,1769503,/,1770183,/	t,t,t,t,t,t,t	<img class = center src='/static/experiments/beast_fmri_test/images/P.png'></img>	71,89	2750.0	test	<img class = center src='/static/experiments/beast_fmri_test/images/redP.png'></img>	stop	2750.0	2.0	45.0	stop	non-target	P	71,Index Finger	89,Middle Finger	0.0	0.0	2750.0	2750.0	0.0	0.0	n/a	0.0	ITI
214375	500	n/a	-1	-1	500	0.0	fixation	poldrack-single-stim	667	1771121	0.0-25.46-0.46	beast_fmri_test	276	1770863,/	t	<div class = centerbox2><div class = fixation>+</div></div>	none	500.0	test	n/a	n/a	n/a	n/a	n/a	n/a	n/a	n/a	n/a	n/a	n/a	n/a	n/a	n/a	n/a	n/a	n/a	n/a	fixation
214032.22327944683	2750	n/a	749	71	2750	342.776720553	stim	stop-signal	668	1773871	0.0-25.46-1.46	beast_fmri_test	276	1771539,/,1772218,/,1772898,/,1773579,/	t,t,t,t	<img class = center src='/static/experiments/beast_fmri_test/images/B.png'></img>	71,89	2750.0	test	<img class = center src='/static/experiments/beast_fmri_test/images/redB.png'></img>	go	2750.0	2.0	46.0	go	target	B	71,Index Finger	89,Middle Finger	0.0	0.0	2750.0	2750.0	1.0	0.0	1.0	n/a	go_stim
216782.22327944683	342.77672055319124	n/a	749	71	2750	342.776720553	stim	stop-signal	668	1773871	0.0-25.46-1.46	beast_fmri_test	276	1771539,/,1772218,/,1772898,/,1773579,/	t,t,t,t	<img class = center src='/static/experiments/beast_fmri_test/images/B.png'></img>	71,89	2750.0	test	<img class = center src='/static/experiments/beast_fmri_test/images/redB.png'></img>	go	2750.0	2.0	46.0	go	target	B	71,Index Finger	89,Middle Finger	0.0	0.0	2750.0	2750.0	1.0	0.0	1.0	n/a	ITI
232532	15000	n/a	-1	-1	15000	0.0	practice-no-stop-feedback	poldrack-single-stim	669	1789278	0.0-26.0	beast_fmri_test	276	1774279,/,1774938,/,1775619,/,1776299,/,1776978,/,1777659,/,1778339,/,1779017,/,1779698,/,1780379,/,1781058,/,1781737,/,1782419,/,1783097,/,1783776,/,1784453,/,1785134,/,1785815,/,1786493,/,1787174,/,1787854,/,1788535,/,1789213,/	t,t,t,t,t,t,t,t,t,t,t,t,t,t,t,t,t,t,t,t,t,t,t	"<div class = ""centerbox""><p class = ""block-text"">Your delay is 3 trials.</p><p class = block-text>Please wait for the scanner to start the block</p></div>"	77	15000.0	n/a	n/a	n/a	n/a	n/a	n/a	n/a	n/a	n/a	n/a	n/a	n/a	n/a	n/a	n/a	n/a	n/a	n/a	n/a	practice-no-stop-feedback
233036	500	n/a	-1	-1	500	0.0	fixation	poldrack-single-stim	670	1789782	0.0-27.0-0.0	beast_fmri_test	276	n/a	n/a	<div class = centerbox2><div class = fixation>+</div></div>	none	500.0	test	n/a	n/a	n/a	n/a	n/a	n/a	n/a	n/a	n/a	n/a	n/a	n/a	n/a	n/a	n/a	n/a	n/a	n/a	fixation
232845.24524300825	2750	n/a	406	89	2750	193.754756992	stim	stop-signal	671	1792535	0.0-27.0-1.0	beast_fmri_test	276	1789893,/,1790574,/,1791252,/,1791934,/,1792614,/	t,t,t,t,t	<img class = center src='/static/experiments/beast_fmri_test/images/V.png'></img>	71,89	2750.0	test	<img class = center src='/static/experiments/beast_fmri_test/images/redV.png'></img>	go	-1.0	3.0	0.0	go	temp-non-target	V	71,Index Finger	89,Middle Finger	0.0	0.0	2750.0	2750.0	0.0	n/a	n/a	n/a	go_stim
235595.24524300825	193.7547569918344	n/a	406	89	2750	193.754756992	stim	stop-signal	671	1792535	0.0-27.0-1.0	beast_fmri_test	276	1789893,/,1790574,/,1791252,/,1791934,/,1792614,/	t,t,t,t,t	<img class = center src='/static/experiments/beast_fmri_test/images/V.png'></img>	71,89	2750.0	test	<img class = center src='/static/experiments/beast_fmri_test/images/redV.png'></img>	go	-1.0	3.0	0.0	go	temp-non-target	V	71,Index Finger	89,Middle Finger	0.0	0.0	2750.0	2750.0	0.0	n/a	n/a	n/a	ITI
236546	500	n/a	-1	-1	500	0.0	fixation	poldrack-single-stim	672	1793292	0.0-27.1-0.1	beast_fmri_test	276	1793291,/	t	<div class = centerbox2><div class = fixation>+</div></div>	none	500.0	test	n/a	n/a	n/a	n/a	n/a	n/a	n/a	n/a	n/a	n/a	n/a	n/a	n/a	n/a	n/a	n/a	n/a	n/a	fixation
234134.38075376838	2750	n/a	1001	89	2750	2411.61924623	stim	stop-signal	673	1796042	0.0-27.1-1.1	beast_fmri_test	276	1793969,/,1794649,/,1795329,/,1796009,/,1796689,/,1797369,/,1798049,/	t,t,t,t,t,t,t	<img class = center src='/static/experiments/beast_fmri_test/images/B.png'></img>	71,89	2750.0	test	<img class = center src='/static/experiments/beast_fmri_test/images/redB.png'></img>	go	-1.0	3.0	1.0	go	temp-non-target	B	71,Index Finger	89,Middle Finger	0.0	0.0	2750.0	2750.0	0.0	n/a	n/a	n/a	go_stim
236884.38075376838	2411.6192462317085	n/a	1001	89	2750	2411.61924623	stim	stop-signal	673	1796042	0.0-27.1-1.1	beast_fmri_test	276	1793969,/,1794649,/,1795329,/,1796009,/,1796689,/,1797369,/,1798049,/	t,t,t,t,t,t,t	<img class = center src='/static/experiments/beast_fmri_test/images/B.png'></img>	71,89	2750.0	test	<img class = center src='/static/experiments/beast_fmri_test/images/redB.png'></img>	go	-1.0	3.0	1.0	go	temp-non-target	B	71,Index Finger	89,Middle Finger	0.0	0.0	2750.0	2750.0	0.0	n/a	n/a	n/a	ITI
242273	500	n/a	-1	-1	500	0.0	fixation	poldrack-single-stim	674	1799019	0.0-27.2-0.2	beast_fmri_test	276	1798730,/	t	<div class = centerbox2><div class = fixation>+</div></div>	none	500.0	test	n/a	n/a	n/a	n/a	n/a	n/a	n/a	n/a	n/a	n/a	n/a	n/a	n/a	n/a	n/a	n/a	n/a	n/a	fixation
237276.0	temp_go_duration	n/a	1203	89	2750	5000.0	stim	stop-signal	675	1801772	0.0-27.2-1.2	beast_fmri_test	276	1799409,/,1800089,/,1800769,/,1801450,/,1802130,/,1802809,/,1803487,/,1804165,/,1804844,/,1805525,/,1806205,/	t,t,t,t,t,t,t,t,t,t,t	<img class = center src='/static/experiments/beast_fmri_test/images/D.png'></img>	71,89	2750.0	test	<img class = center src='/static/experiments/beast_fmri_test/images/redD.png'></img>	stop	-1.0	3.0	2.0	stop	temp-non-target	D	71,Index Finger	89,Middle Finger	0.0	0.0	2750.0	2750.0	0.0	n/a	n/a	0.0	go_stim
temp-non-target	temp_stop_duration	n/a	1203	89	2750	5000.0	stim	stop-signal	675	1801772	0.0-27.2-1.2	beast_fmri_test	276	1799409,/,1800089,/,1800769,/,1801450,/,1802130,/,1802809,/,1803487,/,1804165,/,1804844,/,1805525,/,1806205,/	t,t,t,t,t,t,t,t,t,t,t	<img class = center src='/static/experiments/beast_fmri_test/images/D.png'></img>	71,89	2750.0	test	<img class = center src='/static/experiments/beast_fmri_test/images/redD.png'></img>	stop	-1.0	3.0	2.0	stop	temp-non-target	D	71,Index Finger	89,Middle Finger	0.0	0.0	2750.0	2750.0	0.0	n/a	n/a	0.0	stop_stim
240026.0	5000.0	n/a	1203	89	2750	5000.0	stim	stop-signal	675	1801772	0.0-27.2-1.2	beast_fmri_test	276	1799409,/,1800089,/,1800769,/,1801450,/,1802130,/,1802809,/,1803487,/,1804165,/,1804844,/,1805525,/,1806205,/	t,t,t,t,t,t,t,t,t,t,t	<img class = center src='/static/experiments/beast_fmri_test/images/D.png'></img>	71,89	2750.0	test	<img class = center src='/static/experiments/beast_fmri_test/images/redD.png'></img>	stop	-1.0	3.0	2.0	stop	temp-non-target	D	71,Index Finger	89,Middle Finger	0.0	0.0	2750.0	2750.0	0.0	n/a	n/a	0.0	ITI
250584	500	n/a	-1	-1	500	0.0	fixation	poldrack-single-stim	676	1807330	0.0-27.3-0.3	beast_fmri_test	276	1806885,/	t	<div class = centerbox2><div class = fixation>+</div></div>	none	500.0	test	n/a	n/a	n/a	n/a	n/a	n/a	n/a	n/a	n/a	n/a	n/a	n/a	n/a	n/a	n/a	n/a	n/a	n/a	fixation
250359.87487149378	2750	n/a	430	71	2750	229.125128506	stim	stop-signal	677	1810085	0.0-27.3-1.3	beast_fmri_test	276	1807565,/,1808245,/,1808925,/,1809604,/,1810285,/	t,t,t,t,t	<img class = center src='/static/experiments/beast_fmri_test/images/B.png'></img>	71,89	2750.0	test	<img class = center src='/static/experiments/beast_fmri_test/images/redB.png'></img>	go	2750.0	3.0	3.0	go	non-target	B	71,Index Finger	89,Middle Finger	0.0	0.0	2750.0	2750.0	0.0	0.0	0.0	n/a	go_stim
253109.87487149378	229.12512850615849	n/a	430	71	2750	229.125128506	stim	stop-signal	677	1810085	0.0-27.3-1.3	beast_fmri_test	276	1807565,/,1808245,/,1808925,/,1809604,/,1810285,/	t,t,t,t,t	<img class = center src='/static/experiments/beast_fmri_test/images/B.png'></img>	71,89	2750.0	test	<img class = center src='/static/experiments/beast_fmri_test/images/redB.png'></img>	go	2750.0	3.0	3.0	go	non-target	B	71,Index Finger	89,Middle Finger	0.0	0.0	2750.0	2750.0	0.0	0.0	0.0	n/a	ITI
254128	500	n/a	-1	-1	500	0.0	fixation	poldrack-single-stim	678	1810874	0.0-27.4-0.4	beast_fmri_test	276	n/a	n/a	<div class = centerbox2><div class = fixation>+</div></div>	none	500.0	test	n/a	n/a	n/a	n/a	n/a	n/a	n/a	n/a	n/a	n/a	n/a	n/a	n/a	n/a	n/a	n/a	n/a	n/a	fixation
251382.87629211671	2750	n/a	1415	89	2750	2745.12370788	stim	stop-signal	679	1813624	0.0-27.4-1.4	beast_fmri_test	276	1810965,/,1811645,/,1812325,/,1813005,/,1813681,/,1814359,/,1815039,/,1815719,/	t,t,t,t,t,t,t,t	<img class = center src='/static/experiments/beast_fmri_test/images/P.png'></img>	71,89	2750.0	test	<img class = center src='/static/experiments/beast_fmri_test/images/redP.png'></img>	go	2750.0	3.0	4.0	go	non-target	P	71,Index Finger	89,Middle Finger	0.0	0.0	2750.0	2750.0	1.0	0.0	1.0	n/a	go_stim
254132.87629211671	2745.123707883221	n/a	1415	89	2750	2745.12370788	stim	stop-signal	679	1813624	0.0-27.4-1.4	beast_fmri_test	276	1810965,/,1811645,/,1812325,/,1813005,/,1813681,/,1814359,/,1815039,/,1815719,/	t,t,t,t,t,t,t,t	<img class = center src='/static/experiments/beast_fmri_test/images/P.png'></img>	71,89	2750.0	test	<img class = center src='/static/experiments/beast_fmri_test/images/redP.png'></img>	go	2750.0	3.0	4.0	go	non-target	P	71,Index Finger	89,Middle Finger	0.0	0.0	2750.0	2750.0	1.0	0.0	1.0	n/a	ITI
260192	500	n/a	-1	-1	500	0.0	fixation	poldrack-single-stim	680	1816938	0.0-27.5-0.5	beast_fmri_test	276	1816436,/	t	<div class = centerbox2><div class = fixation>+</div></div>	none	500.0	test	n/a	n/a	n/a	n/a	n/a	n/a	n/a	n/a	n/a	n/a	n/a	n/a	n/a	n/a	n/a	n/a	n/a	n/a	fixation
260021.45234490512	0.0	n/a	733	89	2750	173.547655095	stim	stop-signal	681	1819691	0.0-27.5-1.5	beast_fmri_test	276	1817080,/,1817759,/,1818440,/,1819119,/,1819800,/	t,t,t,t,t	<img class = center src='/static/experiments/beast_fmri_test/images/B.png'></img>	71,89	2750.0	test	<img class = center src='/static/experiments/beast_fmri_test/images/redB.png'></img>	stop	2750.0	3.0	5.0	stop	non-target	B	71,Index Finger	89,Middle Finger	0.0	0.0	2750.0	2750.0	0.0	0.0	n/a	0.0	go_stim
262771.45234490512	2750.0	n/a	733	89	2750	173.547655095	stim	stop-signal	681	1819691	0.0-27.5-1.5	beast_fmri_test	276	1817080,/,1817759,/,1818440,/,1819119,/,1819800,/	t,t,t,t,t	<img class = center src='/static/experiments/beast_fmri_test/images/B.png'></img>	71,89	2750.0	test	<img class = center src='/static/experiments/beast_fmri_test/images/redB.png'></img>	stop	2750.0	3.0	5.0	stop	non-target	B	71,Index Finger	89,Middle Finger	0.0	0.0	2750.0	2750.0	0.0	0.0	n/a	0.0	stop_stim
262771.45234490512	173.54765509490261	n/a	733	89	2750	173.547655095	stim	stop-signal	681	1819691	0.0-27.5-1.5	beast_fmri_test	276	1817080,/,1817759,/,1818440,/,1819119,/,1819800,/	t,t,t,t,t	<img class = center src='/static/experiments/beast_fmri_test/images/B.png'></img>	71,89	2750.0	test	<img class = center src='/static/experiments/beast_fmri_test/images/redB.png'></img>	stop	2750.0	3.0	5.0	stop	non-target	B	71,Index Finger	89,Middle Finger	0.0	0.0	2750.0	2750.0	0.0	0.0	n/a	0.0	ITI
263683	500	n/a	-1	-1	500	0.0	fixation	poldrack-single-stim	682	1820429	0.0-27.6-0.6	beast_fmri_test	276	n/a	n/a	<div class = centerbox2><div class = fixation>+</div></div>	none	500.0	test	n/a	n/a	n/a	n/a	n/a	n/a	n/a	n/a	n/a	n/a	n/a	n/a	n/a	n/a	n/a	n/a	n/a	n/a	fixation
262634.30570642906	0.0	n/a	1178	71	2750	1050.69429357	stim	stop-signal	683	1823181	0.0-27.6-1.6	beast_fmri_test	276	1820478,/,1821159,/,1821840,/,1822520,/,1823202,/,1823881,/	t,t,t,t,t,t	<img class = center src='/static/experiments/beast_fmri_test/images/V.png'></img>	71,89	2750.0	test	<img class = center src='/static/experiments/beast_fmri_test/images/redV.png'></img>	stop	2750.0	3.0	6.0	stop	non-target	V	71,Index Finger	89,Middle Finger	0.0	0.0	2750.0	2750.0	0.0	0.0	n/a	0.0	go_stim
265384.30570642906	2750.0	n/a	1178	71	2750	1050.69429357	stim	stop-signal	683	1823181	0.0-27.6-1.6	beast_fmri_test	276	1820478,/,1821159,/,1821840,/,1822520,/,1823202,/,1823881,/	t,t,t,t,t,t	<img class = center src='/static/experiments/beast_fmri_test/images/V.png'></img>	71,89	2750.0	test	<img class = center src='/static/experiments/beast_fmri_test/images/redV.png'></img>	stop	2750.0	3.0	6.0	stop	non-target	V	71,Index Finger	89,Middle Finger	0.0	0.0	2750.0	2750.0	0.0	0.0	n/a	0.0	stop_stim
265384.30570642906	1050.6942935709756	n/a	1178	71	2750	1050.69429357	stim	stop-signal	683	1823181	0.0-27.6-1.6	beast_fmri_test	276	1820478,/,1821159,/,1821840,/,1822520,/,1823202,/,1823881,/	t,t,t,t,t,t	<img class = center src='/static/experiments/beast_fmri_test/images/V.png'></img>	71,89	2750.0	test	<img class = center src='/static/experiments/beast_fmri_test/images/redV.png'></img>	stop	2750.0	3.0	6.0	stop	non-target	V	71,Index Finger	89,Middle Finger	0.0	0.0	2750.0	2750.0	0.0	0.0	n/a	0.0	ITI
268052	500	n/a	-1	-1	500	0.0	fixation	poldrack-single-stim	684	1824798	0.0-27.7-0.7	beast_fmri_test	276	1824560,/	t	<div class = centerbox2><div class = fixation>+</div></div>	none	500.0	test	n/a	n/a	n/a	n/a	n/a	n/a	n/a	n/a	n/a	n/a	n/a	n/a	n/a	n/a	n/a	n/a	n/a	n/a	fixation
267968.84980431781	2750	n/a	943	89	2750	87.1501956823	stim	stop-signal	685	1827552	0.0-27.7-1.7	beast_fmri_test	276	1825240,/,1825920,/,1826600,/,1827280,/	t,t,t,t	<img class = center src='/static/experiments/beast_fmri_test/images/P.png'></img>	71,89	2750.0	test	<img class = center src='/static/experiments/beast_fmri_test/images/redP.png'></img>	go	2750.0	3.0	7.0	go	target	P	71,Index Finger	89,Middle Finger	0.0	0.0	2750.0	2750.0	0.0	0.0	0.0	n/a	go_stim
270718.84980431781	87.150195682297891	n/a	943	89	2750	87.1501956823	stim	stop-signal	685	1827552	0.0-27.7-1.7	beast_fmri_test	276	1825240,/,1825920,/,1826600,/,1827280,/	t,t,t,t	<img class = center src='/static/experiments/beast_fmri_test/images/P.png'></img>	71,89	2750.0	test	<img class = center src='/static/experiments/beast_fmri_test/images/redP.png'></img>	go	2750.0	3.0	7.0	go	target	P	71,Index Finger	89,Middle Finger	0.0	0.0	2750.0	2750.0	0.0	0.0	0.0	n/a	ITI
271497	500	n/a	-1	-1	500	0.0	fixation	poldrack-single-stim	686	1828243	0.0-27.8-0.8	beast_fmri_test	276	1827960,/	t	<div class = centerbox2><div class = fixation>+</div></div>	none	500.0	test	n/a	n/a	n/a	n/a	n/a	n/a	n/a	n/a	n/a	n/a	n/a	n/a	n/a	n/a	n/a	n/a	n/a	n/a	fixation
271460.50816981425	2750	n/a	1523	71	2750	38.4918301857	stim	stop-signal	687	1830995	0.0-27.8-1.8	beast_fmri_test	276	1828640,/,1829320,/,1830001,/,1830679,/	t,t,t,t	<img class = center src='/static/experiments/beast_fmri_test/images/P.png'></img>	71,89	2750.0	test	<img class = center src='/static/experiments/beast_fmri_test/images/redP.png'></img>	go	2750.0	3.0	8.0	go	non-target	P	71,Index Finger	89,Middle Finger	0.0	0.0	2750.0	2750.0	0.0	0.0	0.0	n/a	go_stim
274210.50816981425	38.491830185716545	n/a	1523	71	2750	38.4918301857	stim	stop-signal	687	1830995	0.0-27.8-1.8	beast_fmri_test	276	1828640,/,1829320,/,1830001,/,1830679,/	t,t,t,t	<img class = center src='/static/experiments/beast_fmri_test/images/P.png'></img>	71,89	2750.0	test	<img class = center src='/static/experiments/beast_fmri_test/images/redP.png'></img>	go	2750.0	3.0	8.0	go	non-target	P	71,Index Finger	89,Middle Finger	0.0	0.0	2750.0	2750.0	0.0	0.0	0.0	n/a	ITI
274857	500	n/a	-1	-1	500	0.0	fixation	poldrack-single-stim	688	1831603	0.0-27.9-0.9	beast_fmri_test	276	1831363,/	t	<div class = centerbox2><div class = fixation>+</div></div>	none	500.0	test	n/a	n/a	n/a	n/a	n/a	n/a	n/a	n/a	n/a	n/a	n/a	n/a	n/a	n/a	n/a	n/a	n/a	n/a	fixation
273473.77604602184	0.0	n/a	1387	89	2750	1381.22395398	stim	stop-signal	689	1834351	0.0-27.9-1.9	beast_fmri_test	276	1832041,/,1832720,/,1833398,/,1834076,/,1834756,/,1835435,/	t,t,t,t,t,t	<img class = center src='/static/experiments/beast_fmri_test/images/B.png'></img>	71,89	2750.0	test	<img class = center src='/static/experiments/beast_fmri_test/images/redB.png'></img>	stop	2750.0	3.0	9.0	stop	non-target	B	71,Index Finger	89,Middle Finger	0.0	0.0	2750.0	2750.0	0.0	0.0	n/a	0.0	go_stim
276223.77604602184	2750.0	n/a	1387	89	2750	1381.22395398	stim	stop-signal	689	1834351	0.0-27.9-1.9	beast_fmri_test	276	1832041,/,1832720,/,1833398,/,1834076,/,1834756,/,1835435,/	t,t,t,t,t,t	<img class = center src='/static/experiments/beast_fmri_test/images/B.png'></img>	71,89	2750.0	test	<img class = center src='/static/experiments/beast_fmri_test/images/redB.png'></img>	stop	2750.0	3.0	9.0	stop	non-target	B	71,Index Finger	89,Middle Finger	0.0	0.0	2750.0	2750.0	0.0	0.0	n/a	0.0	stop_stim
276223.77604602184	1381.2239539781472	n/a	1387	89	2750	1381.22395398	stim	stop-signal	689	1834351	0.0-27.9-1.9	beast_fmri_test	276	1832041,/,1832720,/,1833398,/,1834076,/,1834756,/,1835435,/	t,t,t,t,t,t	<img class = center src='/static/experiments/beast_fmri_test/images/B.png'></img>	71,89	2750.0	test	<img class = center src='/static/experiments/beast_fmri_test/images/redB.png'></img>	stop	2750.0	3.0	9.0	stop	non-target	B	71,Index Finger	89,Middle Finger	0.0	0.0	2750.0	2750.0	0.0	0.0	n/a	0.0	ITI
279561	500	n/a	-1	-1	500	0.0	fixation	poldrack-single-stim	690	1836307	0.0-27.10-0.10	beast_fmri_test	276	1836116,/	t	<div class = centerbox2><div class = fixation>+</div></div>	none	500.0	test	n/a	n/a	n/a	n/a	n/a	n/a	n/a	n/a	n/a	n/a	n/a	n/a	n/a	n/a	n/a	n/a	n/a	n/a	fixation
279394.31647976255	0.0	n/a	668	89	2750	170.683520237	stim	stop-signal	691	1839061	0.0-27.10-1.10	beast_fmri_test	276	1836796,/,1837476,/,1838155,/,1838836,/	t,t,t,t	<img class = center src='/static/experiments/beast_fmri_test/images/V.png'></img>	71,89	2750.0	test	<img class = center src='/static/experiments/beast_fmri_test/images/redV.png'></img>	stop	2750.0	3.0	10.0	stop	non-target	V	71,Index Finger	89,Middle Finger	0.0	0.0	2750.0	2750.0	0.0	0.0	n/a	0.0	go_stim
282144.31647976255	2750.0	n/a	668	89	2750	170.683520237	stim	stop-signal	691	1839061	0.0-27.10-1.10	beast_fmri_test	276	1836796,/,1837476,/,1838155,/,1838836,/	t,t,t,t	<img class = center src='/static/experiments/beast_fmri_test/images/V.png'></img>	71,89	2750.0	test	<img class = center src='/static/experiments/beast_fmri_test/images/redV.png'></img>	stop	2750.0	3.0	10.0	stop	non-target	V	71,Index Finger	89,Middle Finger	0.0	0.0	2750.0	2750.0	0.0	0.0	n/a	0.0	stop_stim
282144.31647976255	170.68352023749068	n/a	668	89	2750	170.683520237	stim	stop-signal	691	1839061	0.0-27.10-1.10	beast_fmri_test	276	1836796,/,1837476,/,1838155,/,1838836,/	t,t,t,t	<img class = center src='/static/experiments/beast_fmri_test/images/V.png'></img>	71,89	2750.0	test	<img class = center src='/static/experiments/beast_fmri_test/images/redV.png'></img>	stop	2750.0	3.0	10.0	stop	non-target	V	71,Index Finger	89,Middle Finger	0.0	0.0	2750.0	2750.0	0.0	0.0	n/a	0.0	ITI
283057	500	n/a	-1	-1	500	0.0	fixation	poldrack-single-stim	692	1839803	0.0-27.11-0.11	beast_fmri_test	276	1839516,/	t	<div class = centerbox2><div class = fixation>+</div></div>	none	500.0	test	n/a	n/a	n/a	n/a	n/a	n/a	n/a	n/a	n/a	n/a	n/a	n/a	n/a	n/a	n/a	n/a	n/a	n/a	fixation
282887.86419194075	2750	n/a	744	89	2750	172.135808059	stim	stop-signal	693	1842556	0.0-27.11-1.11	beast_fmri_test	276	1840196,/,1840876,/,1841556,/,1842235,/	t,t,t,t	<img class = center src='/static/experiments/beast_fmri_test/images/T.png'></img>	71,89	2750.0	test	<img class = center src='/static/experiments/beast_fmri_test/images/redT.png'></img>	go	2750.0	3.0	11.0	go	non-target	T	71,Index Finger	89,Middle Finger	0.0	0.0	2750.0	2750.0	1.0	0.0	1.0	n/a	go_stim
285637.86419194075	172.13580805916962	n/a	744	89	2750	172.135808059	stim	stop-signal	693	1842556	0.0-27.11-1.11	beast_fmri_test	276	1840196,/,1840876,/,1841556,/,1842235,/	t,t,t,t	<img class = center src='/static/experiments/beast_fmri_test/images/T.png'></img>	71,89	2750.0	test	<img class = center src='/static/experiments/beast_fmri_test/images/redT.png'></img>	go	2750.0	3.0	11.0	go	non-target	T	71,Index Finger	89,Middle Finger	0.0	0.0	2750.0	2750.0	1.0	0.0	1.0	n/a	ITI
286550	500	n/a	-1	-1	500	0.0	fixation	poldrack-single-stim	694	1843296	0.0-27.12-0.12	beast_fmri_test	276	1842915,/	t	<div class = centerbox2><div class = fixation>+</div></div>	none	500.0	test	n/a	n/a	n/a	n/a	n/a	n/a	n/a	n/a	n/a	n/a	n/a	n/a	n/a	n/a	n/a	n/a	n/a	n/a	fixation
286048.67004143842	2750	n/a	766	89	2750	499.329958562	stim	stop-signal	695	1846044	0.0-27.12-1.12	beast_fmri_test	276	1843592,/,1844270,/,1844951,/,1845631,/,1846310,/	t,t,t,t,t	<img class = center src='/static/experiments/beast_fmri_test/images/T.png'></img>	71,89	2750.0	test	<img class = center src='/static/experiments/beast_fmri_test/images/redT.png'></img>	go	2750.0	3.0	12.0	go	non-target	T	71,Index Finger	89,Middle Finger	0.0	0.0	2750.0	2750.0	1.0	0.0	1.0	n/a	go_stim
288798.67004143842	499.32995856157061	n/a	766	89	2750	499.329958562	stim	stop-signal	695	1846044	0.0-27.12-1.12	beast_fmri_test	276	1843592,/,1844270,/,1844951,/,1845631,/,1846310,/	t,t,t,t,t	<img class = center src='/static/experiments/beast_fmri_test/images/T.png'></img>	71,89	2750.0	test	<img class = center src='/static/experiments/beast_fmri_test/images/redT.png'></img>	go	2750.0	3.0	12.0	go	non-target	T	71,Index Finger	89,Middle Finger	0.0	0.0	2750.0	2750.0	1.0	0.0	1.0	n/a	ITI
290365	500	n/a	-1	-1	500	0.0	fixation	poldrack-single-stim	696	1847111	0.0-27.13-0.13	beast_fmri_test	276	1846992,/	t	<div class = centerbox2><div class = fixation>+</div></div>	none	500.0	test	n/a	n/a	n/a	n/a	n/a	n/a	n/a	n/a	n/a	n/a	n/a	n/a	n/a	n/a	n/a	n/a	n/a	n/a	fixation
290277.43505259696	2750	n/a	1591	89	2750	89.564947403	stim	stop-signal	697	1849863	0.0-27.13-1.13	beast_fmri_test	276	1847670,/,1848350,/,1849030,/,1849711,/	t,t,t,t	<img class = center src='/static/experiments/beast_fmri_test/images/P.png'></img>	71,89	2750.0	test	<img class = center src='/static/experiments/beast_fmri_test/images/redP.png'></img>	go	2750.0	3.0	13.0	go	non-target	P	71,Index Finger	89,Middle Finger	0.0	0.0	2750.0	2750.0	1.0	0.0	1.0	n/a	go_stim
293027.43505259696	89.564947403043519	n/a	1591	89	2750	89.564947403	stim	stop-signal	697	1849863	0.0-27.13-1.13	beast_fmri_test	276	1847670,/,1848350,/,1849030,/,1849711,/	t,t,t,t	<img class = center src='/static/experiments/beast_fmri_test/images/P.png'></img>	71,89	2750.0	test	<img class = center src='/static/experiments/beast_fmri_test/images/redP.png'></img>	go	2750.0	3.0	13.0	go	non-target	P	71,Index Finger	89,Middle Finger	0.0	0.0	2750.0	2750.0	1.0	0.0	1.0	n/a	ITI
293773	500	n/a	-1	-1	500	0.0	fixation	poldrack-single-stim	698	1850519	0.0-27.14-0.14	beast_fmri_test	276	1850392,/	t	<div class = centerbox2><div class = fixation>+</div></div>	none	500.0	test	n/a	n/a	n/a	n/a	n/a	n/a	n/a	n/a	n/a	n/a	n/a	n/a	n/a	n/a	n/a	n/a	n/a	n/a	fixation
293706.80501154088	2750	n/a	1174	89	2750	68.194988459	stim	stop-signal	699	1853271	0.0-27.14-1.14	beast_fmri_test	276	1851071,/,1851751,/,1852430,/,1853110,/	t,t,t,t	<img class = center src='/static/experiments/beast_fmri_test/images/P.png'></img>	71,89	2750.0	test	<img class = center src='/static/experiments/beast_fmri_test/images/redP.png'></img>	go	2750.0	3.0	14.0	go	non-target	P	71,Index Finger	89,Middle Finger	0.0	0.0	2750.0	2750.0	1.0	0.0	1.0	n/a	go_stim
296456.80501154088	68.19498845901343	n/a	1174	89	2750	68.194988459	stim	stop-signal	699	1853271	0.0-27.14-1.14	beast_fmri_test	276	1851071,/,1851751,/,1852430,/,1853110,/	t,t,t,t	<img class = center src='/static/experiments/beast_fmri_test/images/P.png'></img>	71,89	2750.0	test	<img class = center src='/static/experiments/beast_fmri_test/images/redP.png'></img>	go	2750.0	3.0	14.0	go	non-target	P	71,Index Finger	89,Middle Finger	0.0	0.0	2750.0	2750.0	1.0	0.0	1.0	n/a	ITI
297161	500	n/a	-1	-1	500	0.0	fixation	poldrack-single-stim	700	1853907	0.0-27.15-0.15	beast_fmri_test	276	1853786,/	t	<div class = centerbox2><div class = fixation>+</div></div>	none	500.0	test	n/a	n/a	n/a	n/a	n/a	n/a	n/a	n/a	n/a	n/a	n/a	n/a	n/a	n/a	n/a	n/a	n/a	n/a	fixation
296572.64943430782	0.0	n/a	1346	71	2750	589.350565692	stim	stop-signal	701	1856658	0.0-27.15-1.15	beast_fmri_test	276	1854465,/,1855145,/,1855826,/,1856506,/,1857185,/	t,t,t,t,t	<img class = center src='/static/experiments/beast_fmri_test/images/P.png'></img>	71,89	2750.0	test	<img class = center src='/static/experiments/beast_fmri_test/images/redP.png'></img>	stop	2750.0	3.0	15.0	stop	non-target	P	71,Index Finger	89,Middle Finger	0.0	0.0	2750.0	2750.0	0.0	0.0	n/a	0.0	go_stim
299322.64943430782	2750.0	n/a	1346	71	2750	589.350565692	stim	stop-signal	701	1856658	0.0-27.15-1.15	beast_fmri_test	276	1854465,/,1855145,/,1855826,/,1856506,/,1857185,/	t,t,t,t,t	<img class = center src='/static/experiments/beast_fmri_test/images/P.png'></img>	71,89	2750.0	test	<img class = center src='/static/experiments/beast_fmri_test/images/redP.png'></img>	stop	2750.0	3.0	15.0	stop	non-target	P	71,Index Finger	89,Middle Finger	0.0	0.0	2750.0	2750.0	0.0	0.0	n/a	0.0	stop_stim
299322.64943430782	589.35056569225208	n/a	1346	71	2750	589.350565692	stim	stop-signal	701	1856658	0.0-27.15-1.15	beast_fmri_test	276	1854465,/,1855145,/,1855826,/,1856506,/,1857185,/	t,t,t,t,t	<img class = center src='/static/experiments/beast_fmri_test/images/P.png'></img>	71,89	2750.0	test	<img class = center src='/static/experiments/beast_fmri_test/images/redP.png'></img>	stop	2750.0	3.0	15.0	stop	non-target	P	71,Index Finger	89,Middle Finger	0.0	0.0	2750.0	2750.0	0.0	0.0	n/a	0.0	ITI
301069	500	n/a	-1	-1	500	0.0	fixation	poldrack-single-stim	702	1857815	0.0-27.16-0.16	beast_fmri_test	276	n/a	n/a	<div class = centerbox2><div class = fixation>+</div></div>	none	500.0	test	n/a	n/a	n/a	n/a	n/a	n/a	n/a	n/a	n/a	n/a	n/a	n/a	n/a	n/a	n/a	n/a	n/a	n/a	fixation
300879.12865088577	2750	n/a	483	71	2750	192.871349114	stim	stop-signal	703	1860568	0.0-27.16-1.16	beast_fmri_test	276	1857866,/,1858547,/,1859226,/,1859906,/,1860586,/	t,t,t,t,t	<img class = center src='/static/experiments/beast_fmri_test/images/P.png'></img>	71,89	2750.0	test	<img class = center src='/static/experiments/beast_fmri_test/images/redP.png'></img>	go	2750.0	3.0	16.0	go	target	P	71,Index Finger	89,Middle Finger	0.0	0.0	2750.0	2750.0	1.0	0.0	1.0	n/a	go_stim
303629.12865088577	192.87134911430684	n/a	483	71	2750	192.871349114	stim	stop-signal	703	1860568	0.0-27.16-1.16	beast_fmri_test	276	1857866,/,1858547,/,1859226,/,1859906,/,1860586,/	t,t,t,t,t	<img class = center src='/static/experiments/beast_fmri_test/images/P.png'></img>	71,89	2750.0	test	<img class = center src='/static/experiments/beast_fmri_test/images/redP.png'></img>	go	2750.0	3.0	16.0	go	target	P	71,Index Finger	89,Middle Finger	0.0	0.0	2750.0	2750.0	1.0	0.0	1.0	n/a	ITI
304584	500	n/a	-1	-1	500	0.0	fixation	poldrack-single-stim	704	1861330	0.0-27.17-0.17	beast_fmri_test	276	1861267,/	t	<div class = centerbox2><div class = fixation>+</div></div>	none	500.0	test	n/a	n/a	n/a	n/a	n/a	n/a	n/a	n/a	n/a	n/a	n/a	n/a	n/a	n/a	n/a	n/a	n/a	n/a	fixation
304095.13231663709	2750	n/a	1523	89	2750	486.867683363	stim	stop-signal	705	1864078	0.0-27.17-1.17	beast_fmri_test	276	1861947,/,1862627,/,1863304,/,1863982,/	t,t,t,t	<img class = center src='/static/experiments/beast_fmri_test/images/V.png'></img>	71,89	2750.0	test	<img class = center src='/static/experiments/beast_fmri_test/images/redV.png'></img>	go	2750.0	3.0	17.0	go	non-target	V	71,Index Finger	89,Middle Finger	0.0	0.0	2750.0	2750.0	1.0	0.0	1.0	n/a	go_stim
306845.13231663709	486.86768336282478	n/a	1523	89	2750	486.867683363	stim	stop-signal	705	1864078	0.0-27.17-1.17	beast_fmri_test	276	1861947,/,1862627,/,1863304,/,1863982,/	t,t,t,t	<img class = center src='/static/experiments/beast_fmri_test/images/V.png'></img>	71,89	2750.0	test	<img class = center src='/static/experiments/beast_fmri_test/images/redV.png'></img>	go	2750.0	3.0	17.0	go	non-target	V	71,Index Finger	89,Middle Finger	0.0	0.0	2750.0	2750.0	1.0	0.0	1.0	n/a	ITI
308391	500	n/a	-1	-1	500	0.0	fixation	poldrack-single-stim	706	1865137	0.0-27.18-0.18	beast_fmri_test	276	1864661,/	t	<div class = centerbox2><div class = fixation>+</div></div>	none	500.0	test	n/a	n/a	n/a	n/a	n/a	n/a	n/a	n/a	n/a	n/a	n/a	n/a	n/a	n/a	n/a	n/a	n/a	n/a	fixation
307869.25478865439	2750	n/a	1784	89	2750	523.745211346	stim	stop-signal	707	1867889	0.0-27.18-1.18	beast_fmri_test	276	1865342,/,1866022,/,1866702,/,1867382,/,1868062,/	t,t,t,t,t	<img class = center src='/static/experiments/beast_fmri_test/images/V.png'></img>	71,89	2750.0	test	<img class = center src='/static/experiments/beast_fmri_test/images/redV.png'></img>	go	2750.0	3.0	18.0	go	non-target	V	71,Index Finger	89,Middle Finger	0.0	0.0	2750.0	2750.0	1.0	0.0	1.0	n/a	go_stim
310619.25478865439	523.74521134551458	n/a	1784	89	2750	523.745211346	stim	stop-signal	707	1867889	0.0-27.18-1.18	beast_fmri_test	276	1865342,/,1866022,/,1866702,/,1867382,/,1868062,/	t,t,t,t,t	<img class = center src='/static/experiments/beast_fmri_test/images/V.png'></img>	71,89	2750.0	test	<img class = center src='/static/experiments/beast_fmri_test/images/redV.png'></img>	go	2750.0	3.0	18.0	go	non-target	V	71,Index Finger	89,Middle Finger	0.0	0.0	2750.0	2750.0	1.0	0.0	1.0	n/a	ITI
312241	500	n/a	-1	-1	500	0.0	fixation	poldrack-single-stim	708	1868987	0.0-27.19-0.19	beast_fmri_test	276	1868743,/	t	<div class = centerbox2><div class = fixation>+</div></div>	none	500.0	test	n/a	n/a	n/a	n/a	n/a	n/a	n/a	n/a	n/a	n/a	n/a	n/a	n/a	n/a	n/a	n/a	n/a	n/a	fixation
308005.89409110346	2750	n/a	1807	89	2750	4239.1059089	stim	stop-signal	709	1871741	0.0-27.19-1.19	beast_fmri_test	276	1869421,/,1870103,/,1870782,/,1871461,/,1872142,/,1872822,/,1873500,/,1874177,/,1874856,/,1875537,/	t,t,t,t,t,t,t,t,t,t	<img class = center src='/static/experiments/beast_fmri_test/images/P.png'></img>	71,89	2750.0	test	<img class = center src='/static/experiments/beast_fmri_test/images/redP.png'></img>	go	2750.0	3.0	19.0	go	target	P	71,Index Finger	89,Middle Finger	0.0	0.0	2750.0	2750.0	0.0	0.0	0.0	n/a	go_stim
310755.89409110346	4239.1059088964621	n/a	1807	89	2750	4239.1059089	stim	stop-signal	709	1871741	0.0-27.19-1.19	beast_fmri_test	276	1869421,/,1870103,/,1870782,/,1871461,/,1872142,/,1872822,/,1873500,/,1874177,/,1874856,/,1875537,/	t,t,t,t,t,t,t,t,t,t	<img class = center src='/static/experiments/beast_fmri_test/images/P.png'></img>	71,89	2750.0	test	<img class = center src='/static/experiments/beast_fmri_test/images/redP.png'></img>	go	2750.0	3.0	19.0	go	target	P	71,Index Finger	89,Middle Finger	0.0	0.0	2750.0	2750.0	0.0	0.0	0.0	n/a	ITI
319805	500	n/a	-1	-1	500	0.0	fixation	poldrack-single-stim	710	1876551	0.0-27.20-0.20	beast_fmri_test	276	1876217,/	t	<div class = centerbox2><div class = fixation>+</div></div>	none	500.0	test	n/a	n/a	n/a	n/a	n/a	n/a	n/a	n/a	n/a	n/a	n/a	n/a	n/a	n/a	n/a	n/a	n/a	n/a	fixation
317508.01592170587	2750	n/a	612	89	2750	2299.98407829	stim	stop-signal	711	1879304	0.0-27.20-1.20	beast_fmri_test	276	1876897,/,1877577,/,1878257,/,1878937,/,1879617,/,1880296,/,1880976,/	t,t,t,t,t,t,t	<img class = center src='/static/experiments/beast_fmri_test/images/B.png'></img>	71,89	2750.0	test	<img class = center src='/static/experiments/beast_fmri_test/images/redB.png'></img>	go	2750.0	3.0	20.0	go	non-target	B	71,Index Finger	89,Middle Finger	0.0	0.0	2750.0	2750.0	1.0	0.0	1.0	n/a	go_stim
320258.01592170587	2299.9840782940405	n/a	612	89	2750	2299.98407829	stim	stop-signal	711	1879304	0.0-27.20-1.20	beast_fmri_test	276	1876897,/,1877577,/,1878257,/,1878937,/,1879617,/,1880296,/,1880976,/	t,t,t,t,t,t,t	<img class = center src='/static/experiments/beast_fmri_test/images/B.png'></img>	71,89	2750.0	test	<img class = center src='/static/experiments/beast_fmri_test/images/redB.png'></img>	go	2750.0	3.0	20.0	go	non-target	B	71,Index Finger	89,Middle Finger	0.0	0.0	2750.0	2750.0	1.0	0.0	1.0	n/a	ITI
325435	500	n/a	-1	-1	500	0.0	fixation	poldrack-single-stim	712	1882181	0.0-27.21-0.21	beast_fmri_test	276	1881679,/	t	<div class = centerbox2><div class = fixation>+</div></div>	none	500.0	test	n/a	n/a	n/a	n/a	n/a	n/a	n/a	n/a	n/a	n/a	n/a	n/a	n/a	n/a	n/a	n/a	n/a	n/a	fixation
324585.86891461513	2750	n/a	831	89	2750	852.131085385	stim	stop-signal	713	1884934	0.0-27.21-1.21	beast_fmri_test	276	1882337,/,1883015,/,1883696,/,1884376,/,1885056,/,1885738,/	t,t,t,t,t,t	<img class = center src='/static/experiments/beast_fmri_test/images/D.png'></img>	71,89	2750.0	test	<img class = center src='/static/experiments/beast_fmri_test/images/redD.png'></img>	go	2750.0	3.0	21.0	go	non-target	D	71,Index Finger	89,Middle Finger	0.0	0.0	2750.0	2750.0	1.0	0.0	1.0	n/a	go_stim
327335.86891461513	852.1310853848903	n/a	831	89	2750	852.131085385	stim	stop-signal	713	1884934	0.0-27.21-1.21	beast_fmri_test	276	1882337,/,1883015,/,1883696,/,1884376,/,1885056,/,1885738,/	t,t,t,t,t,t	<img class = center src='/static/experiments/beast_fmri_test/images/D.png'></img>	71,89	2750.0	test	<img class = center src='/static/experiments/beast_fmri_test/images/redD.png'></img>	go	2750.0	3.0	21.0	go	non-target	D	71,Index Finger	89,Middle Finger	0.0	0.0	2750.0	2750.0	1.0	0.0	1.0	n/a	ITI
329611	500	n/a	-1	-1	500	0.0	fixation	poldrack-single-stim	714	1886357	0.0-27.22-0.22	beast_fmri_test	276	n/a	n/a	<div class = centerbox2><div class = fixation>+</div></div>	none	500.0	test	n/a	n/a	n/a	n/a	n/a	n/a	n/a	n/a	n/a	n/a	n/a	n/a	n/a	n/a	n/a	n/a	n/a	n/a	fixation
329529.85766837746	2750	n/a	450	89	2750	85.1423316225	stim	stop-signal	715	1889111	0.0-27.22-1.22	beast_fmri_test	276	1886416,/,1887096,/,1887778,/,1888458,/,1889137,/	t,t,t,t,t	<img class = center src='/static/experiments/beast_fmri_test/images/P.png'></img>	71,89	2750.0	test	<img class = center src='/static/experiments/beast_fmri_test/images/redP.png'></img>	go	2750.0	3.0	22.0	go	target	P	71,Index Finger	89,Middle Finger	0.0	0.0	2750.0	2750.0	0.0	0.0	0.0	n/a	go_stim
332279.85766837746	85.14233162252458	n/a	450	89	2750	85.1423316225	stim	stop-signal	715	1889111	0.0-27.22-1.22	beast_fmri_test	276	1886416,/,1887096,/,1887778,/,1888458,/,1889137,/	t,t,t,t,t	<img class = center src='/static/experiments/beast_fmri_test/images/P.png'></img>	71,89	2750.0	test	<img class = center src='/static/experiments/beast_fmri_test/images/redP.png'></img>	go	2750.0	3.0	22.0	go	target	P	71,Index Finger	89,Middle Finger	0.0	0.0	2750.0	2750.0	0.0	0.0	0.0	n/a	ITI
333017	500	n/a	-1	-1	500	0.0	fixation	poldrack-single-stim	716	1889763	0.0-27.23-0.23	beast_fmri_test	276	n/a	n/a	<div class = centerbox2><div class = fixation>+</div></div>	none	500.0	test	n/a	n/a	n/a	n/a	n/a	n/a	n/a	n/a	n/a	n/a	n/a	n/a	n/a	n/a	n/a	n/a	n/a	n/a	fixation
