onset	duration	text	rt	key_press	block_duration	timing_post_trial	trial_id	trial_type	trial_index	time_elapsed	internal_node_id	exp_id	subject_id	trigger_times	triggers	stimulus	possible_responses	stim_duration	exp_stage	SS_stimulus	SS_trial_type	SS_duration	load	trial_num	stop_trial_type	adaptive_trial_type	stim	yes_response_key	no_response_key	SSD_target	SSD_non_target	SSTarget	SSNonTarget	go_acc	SS_delay	stop_acc	adaptive_acc	new_trial_type
test	10880	n/a	-1	-1	10880	0.0	practice-no-stop-feedback	poldrack-single-stim	6	39198	0.0-6.0	beast_fmri_test	269	28317,/,28998,/,29676,/,30357,/,31036,/,31716,/,32396,/,33076,/,33756,/,34436,/,35116,/,35796,/,36476,/,37156,/,37836,/,38516,/	t,t,t,t,t,t,t,t,t,t,t,t,t,t,t,t	"<div class = ""centerbox""><p class = ""center-block-text"">Your delay is 2 trials.</p><p class = center-block-text>Please wait for the scanner to start the block</p></div>"	77	10880.0	n/a	n/a	n/a	n/a	n/a	n/a	n/a	n/a	n/a	n/a	n/a	n/a	n/a	n/a	n/a	n/a	n/a	n/a	n/a	start_functional_block
11382	500	n/a	-1	-1	500	0.0	fixation	poldrack-single-stim	7	39699	0.0-7.0-0.0	beast_fmri_test	269	39198,/	t	<div class = centerbox><div class = fixation>+</div></div>	none	500.0	test	n/a	n/a	n/a	n/a	n/a	n/a	n/a	n/a	n/a	n/a	n/a	n/a	n/a	n/a	n/a	n/a	n/a	n/a	fixation
10825.016674699997	2750	n/a	1182	71	2750	560.9833253	stim	stop-signal	8	42453	0.0-7.0-1.0	beast_fmri_test	269	39876,/,40557,/,41237,/,41917,/,42597,/	t,t,t,t,t	<img class = center src='/static/experiments/beast_fmri_test/images/B.png'></img>	89,71	2750.0	test	<img class = center src='/static/experiments/beast_fmri_test/images/redB.png'></img>	go	-1.0	2.0	0.0	go	temp-non-target	B	89,Yellow Button	71,Green Button	500.0	500.0	0.0	0.0	0.0	n/a	n/a	n/a	go_stim
13575.016674699997	560.98332529999993	n/a	1182	71	2750	560.9833253	stim	stop-signal	8	42453	0.0-7.0-1.0	beast_fmri_test	269	39876,/,40557,/,41237,/,41917,/,42597,/	t,t,t,t,t	<img class = center src='/static/experiments/beast_fmri_test/images/B.png'></img>	89,71	2750.0	test	<img class = center src='/static/experiments/beast_fmri_test/images/redB.png'></img>	go	-1.0	2.0	0.0	go	temp-non-target	B	89,Yellow Button	71,Green Button	500.0	500.0	0.0	0.0	0.0	n/a	n/a	n/a	ITI
15201	500	n/a	-1	-1	500	0.0	fixation	poldrack-single-stim	9	43518	0.0-7.1-0.1	beast_fmri_test	269	43277,/	t	<div class = centerbox><div class = fixation>+</div></div>	none	500.0	test	n/a	n/a	n/a	n/a	n/a	n/a	n/a	n/a	n/a	n/a	n/a	n/a	n/a	n/a	n/a	n/a	n/a	n/a	fixation
13475.359620000003	2750	n/a	1445	71	2750	1727.64038	stim	stop-signal	10	46270	0.0-7.1-1.1	beast_fmri_test	269	43957,/,44637,/,45317,/,45997,/,46677,/,47357,/	t,t,t,t,t,t	<img class = center src='/static/experiments/beast_fmri_test/images/V.png'></img>	89,71	2750.0	test	<img class = center src='/static/experiments/beast_fmri_test/images/redV.png'></img>	go	-1.0	2.0	1.0	go	temp-non-target	V	89,Yellow Button	71,Green Button	500.0	500.0	0.0	0.0	0.0	n/a	n/a	n/a	go_stim
16225.359620000003	1727.6403800000001	n/a	1445	71	2750	1727.64038	stim	stop-signal	10	46270	0.0-7.1-1.1	beast_fmri_test	269	43957,/,44637,/,45317,/,45997,/,46677,/,47357,/	t,t,t,t,t,t	<img class = center src='/static/experiments/beast_fmri_test/images/V.png'></img>	89,71	2750.0	test	<img class = center src='/static/experiments/beast_fmri_test/images/redV.png'></img>	go	-1.0	2.0	1.0	go	temp-non-target	V	89,Yellow Button	71,Green Button	500.0	500.0	0.0	0.0	0.0	n/a	n/a	n/a	ITI
20182	500	n/a	-1	-1	500	0.0	fixation	poldrack-single-stim	11	48499	0.0-7.2-0.2	beast_fmri_test	269	48037,/	t	<div class = centerbox><div class = fixation>+</div></div>	none	500.0	test	n/a	n/a	n/a	n/a	n/a	n/a	n/a	n/a	n/a	n/a	n/a	n/a	n/a	n/a	n/a	n/a	n/a	n/a	fixation
20181.254026353003	500.0	n/a	998	89	2750	3.745973647	stim	stop-signal	12	51252	0.0-7.2-1.2	beast_fmri_test	269	48716,/,49398,/,50077,/,50757,/	t,t,t,t	<img class = center src='/static/experiments/beast_fmri_test/images/B.png'></img>	89,71	2750.0	test	<img class = center src='/static/experiments/beast_fmri_test/images/redB.png'></img>	stop	2250.0	2.0	2.0	stop	target	B	89,Yellow Button	71,Green Button	500.0	500.0	2250.0	0.0	0.0	500.0	0.0	1.0	go_stim
22431.254026353003	2250.0	n/a	998	89	2750	3.745973647	stim	stop-signal	12	51252	0.0-7.2-1.2	beast_fmri_test	269	48716,/,49398,/,50077,/,50757,/	t,t,t,t	<img class = center src='/static/experiments/beast_fmri_test/images/B.png'></img>	89,71	2750.0	test	<img class = center src='/static/experiments/beast_fmri_test/images/redB.png'></img>	stop	2250.0	2.0	2.0	stop	target	B	89,Yellow Button	71,Green Button	500.0	500.0	2250.0	0.0	0.0	500.0	0.0	1.0	stop_stim
22931.254026353003	3.745973647	n/a	998	89	2750	3.745973647	stim	stop-signal	12	51252	0.0-7.2-1.2	beast_fmri_test	269	48716,/,49398,/,50077,/,50757,/	t,t,t,t	<img class = center src='/static/experiments/beast_fmri_test/images/B.png'></img>	89,71	2750.0	test	<img class = center src='/static/experiments/beast_fmri_test/images/redB.png'></img>	stop	2250.0	2.0	2.0	stop	target	B	89,Yellow Button	71,Green Button	500.0	500.0	2250.0	0.0	0.0	500.0	0.0	1.0	ITI
23442	500	n/a	-1	-1	500	0.0	fixation	poldrack-single-stim	13	51759	0.0-7.3-0.3	beast_fmri_test	269	51437,/	t	<div class = centerbox><div class = fixation>+</div></div>	none	500.0	test	n/a	n/a	n/a	n/a	n/a	n/a	n/a	n/a	n/a	n/a	n/a	n/a	n/a	n/a	n/a	n/a	n/a	n/a	fixation
22543.350916199997	500.0	n/a	-1	-1	2750	901.6490838	stim	stop-signal	14	54512	0.0-7.3-1.3	beast_fmri_test	269	52117,/,52797,/,53476,/,54157,/,54837,/	t,t,t,t,t	<img class = center src='/static/experiments/beast_fmri_test/images/T.png'></img>	89,71	2750.0	test	<img class = center src='/static/experiments/beast_fmri_test/images/redT.png'></img>	stop	2250.0	2.0	3.0	stop	non-target	T	89,Yellow Button	71,Green Button	450.0	500.0	2250.0	2250.0	0.0	500.0	1.0	0.0	go_stim
24793.350916199997	2250.0	n/a	-1	-1	2750	901.6490838	stim	stop-signal	14	54512	0.0-7.3-1.3	beast_fmri_test	269	52117,/,52797,/,53476,/,54157,/,54837,/	t,t,t,t,t	<img class = center src='/static/experiments/beast_fmri_test/images/T.png'></img>	89,71	2750.0	test	<img class = center src='/static/experiments/beast_fmri_test/images/redT.png'></img>	stop	2250.0	2.0	3.0	stop	non-target	T	89,Yellow Button	71,Green Button	450.0	500.0	2250.0	2250.0	0.0	500.0	1.0	0.0	stop_stim
25293.350916199997	901.64908379999997	n/a	-1	-1	2750	901.6490838	stim	stop-signal	14	54512	0.0-7.3-1.3	beast_fmri_test	269	52117,/,52797,/,53476,/,54157,/,54837,/	t,t,t,t,t	<img class = center src='/static/experiments/beast_fmri_test/images/T.png'></img>	89,71	2750.0	test	<img class = center src='/static/experiments/beast_fmri_test/images/redT.png'></img>	stop	2250.0	2.0	3.0	stop	non-target	T	89,Yellow Button	71,Green Button	450.0	500.0	2250.0	2250.0	0.0	500.0	1.0	0.0	ITI
27598	500	n/a	-1	-1	500	0.0	fixation	poldrack-single-stim	15	55915	0.0-7.4-0.4	beast_fmri_test	269	55517,/	t	<div class = centerbox><div class = fixation>+</div></div>	none	500.0	test	n/a	n/a	n/a	n/a	n/a	n/a	n/a	n/a	n/a	n/a	n/a	n/a	n/a	n/a	n/a	n/a	n/a	n/a	fixation
25718.056677	2750	n/a	1164	89	2750	1881.943323	stim	stop-signal	16	58667	0.0-7.4-1.4	beast_fmri_test	269	56197,/,56876,/,57556,/,58236,/,58917,/,59597,/,60276,/	t,t,t,t,t,t,t	<img class = center src='/static/experiments/beast_fmri_test/images/B.png'></img>	89,71	2750.0	test	<img class = center src='/static/experiments/beast_fmri_test/images/redB.png'></img>	go	2300.0	2.0	4.0	go	target	B	89,Yellow Button	71,Green Button	450.0	550.0	2300.0	2250.0	1.0	450.0	n/a	1.0	go_stim
28468.056677	1881.943323	n/a	1164	89	2750	1881.943323	stim	stop-signal	16	58667	0.0-7.4-1.4	beast_fmri_test	269	56197,/,56876,/,57556,/,58236,/,58917,/,59597,/,60276,/	t,t,t,t,t,t,t	<img class = center src='/static/experiments/beast_fmri_test/images/B.png'></img>	89,71	2750.0	test	<img class = center src='/static/experiments/beast_fmri_test/images/redB.png'></img>	go	2300.0	2.0	4.0	go	target	B	89,Yellow Button	71,Green Button	450.0	550.0	2300.0	2250.0	1.0	450.0	n/a	1.0	ITI
32734	500	n/a	-1	-1	500	0.0	fixation	poldrack-single-stim	17	61051	0.0-7.5-0.5	beast_fmri_test	269	60956,/	t	<div class = centerbox><div class = fixation>+</div></div>	none	500.0	test	n/a	n/a	n/a	n/a	n/a	n/a	n/a	n/a	n/a	n/a	n/a	n/a	n/a	n/a	n/a	n/a	n/a	n/a	fixation
30908.248256999999	550.0	n/a	-1	-1	2750	1827.751743	stim	stop-signal	18	63803	0.0-7.5-1.5	beast_fmri_test	269	61636,/,62316,/,62996,/,63676,/,64356,/,65036,/	t,t,t,t,t,t	<img class = center src='/static/experiments/beast_fmri_test/images/V.png'></img>	89,71	2750.0	test	<img class = center src='/static/experiments/beast_fmri_test/images/redV.png'></img>	stop	2200.0	2.0	5.0	stop	non-target	V	89,Yellow Button	71,Green Button	450.0	550.0	2300.0	2200.0	0.0	550.0	1.0	0.0	go_stim
33108.248256999999	2200.0	n/a	-1	-1	2750	1827.751743	stim	stop-signal	18	63803	0.0-7.5-1.5	beast_fmri_test	269	61636,/,62316,/,62996,/,63676,/,64356,/,65036,/	t,t,t,t,t,t	<img class = center src='/static/experiments/beast_fmri_test/images/V.png'></img>	89,71	2750.0	test	<img class = center src='/static/experiments/beast_fmri_test/images/redV.png'></img>	stop	2200.0	2.0	5.0	stop	non-target	V	89,Yellow Button	71,Green Button	450.0	550.0	2300.0	2200.0	0.0	550.0	1.0	0.0	stop_stim
33658.248256999999	1827.751743	n/a	-1	-1	2750	1827.751743	stim	stop-signal	18	63803	0.0-7.5-1.5	beast_fmri_test	269	61636,/,62316,/,62996,/,63676,/,64356,/,65036,/	t,t,t,t,t,t	<img class = center src='/static/experiments/beast_fmri_test/images/V.png'></img>	89,71	2750.0	test	<img class = center src='/static/experiments/beast_fmri_test/images/redV.png'></img>	stop	2200.0	2.0	5.0	stop	non-target	V	89,Yellow Button	71,Green Button	450.0	550.0	2300.0	2200.0	0.0	550.0	1.0	0.0	ITI
37817	500	n/a	-1	-1	500	0.0	fixation	poldrack-single-stim	19	66134	0.0-7.6-0.6	beast_fmri_test	269	65716,/	t	<div class = centerbox><div class = fixation>+</div></div>	none	500.0	test	n/a	n/a	n/a	n/a	n/a	n/a	n/a	n/a	n/a	n/a	n/a	n/a	n/a	n/a	n/a	n/a	n/a	n/a	fixation
36798.343364999993	2750	n/a	1047	71	2750	1019.656635	stim	stop-signal	20	68885	0.0-7.6-1.6	beast_fmri_test	269	66396,/,67076,/,67756,/,68436,/,69116,/,69797,/	t,t,t,t,t,t	<img class = center src='/static/experiments/beast_fmri_test/images/P.png'></img>	89,71	2750.0	test	<img class = center src='/static/experiments/beast_fmri_test/images/redP.png'></img>	go	2150.0	2.0	6.0	go	non-target	P	89,Yellow Button	71,Green Button	450.0	600.0	2300.0	2150.0	1.0	600.0	n/a	1.0	go_stim
39548.343364999993	1019.6566349999999	n/a	1047	71	2750	1019.656635	stim	stop-signal	20	68885	0.0-7.6-1.6	beast_fmri_test	269	66396,/,67076,/,67756,/,68436,/,69116,/,69797,/	t,t,t,t,t,t	<img class = center src='/static/experiments/beast_fmri_test/images/P.png'></img>	89,71	2750.0	test	<img class = center src='/static/experiments/beast_fmri_test/images/redP.png'></img>	go	2150.0	2.0	6.0	go	non-target	P	89,Yellow Button	71,Green Button	450.0	600.0	2300.0	2150.0	1.0	600.0	n/a	1.0	ITI
42092	500	n/a	-1	-1	500	0.0	fixation	poldrack-single-stim	21	70409	0.0-7.7-0.7	beast_fmri_test	269	n/a	n/a	<div class = centerbox><div class = fixation>+</div></div>	none	500.0	test	n/a	n/a	n/a	n/a	n/a	n/a	n/a	n/a	n/a	n/a	n/a	n/a	n/a	n/a	n/a	n/a	n/a	n/a	fixation
40627.552309999999	600.0	n/a	-1	-1	2750	1467.44769	stim	stop-signal	22	73162	0.0-7.7-1.7	beast_fmri_test	269	70476,/,71156,/,71837,/,72517,/,73197,/,73877,/,74557,/	t,t,t,t,t,t,t	<img class = center src='/static/experiments/beast_fmri_test/images/D.png'></img>	89,71	2750.0	test	<img class = center src='/static/experiments/beast_fmri_test/images/redD.png'></img>	stop	2150.0	2.0	7.0	stop	non-target	D	89,Yellow Button	71,Green Button	450.0	600.0	2300.0	2150.0	0.0	600.0	1.0	0.0	go_stim
42777.552309999999	2150.0	n/a	-1	-1	2750	1467.44769	stim	stop-signal	22	73162	0.0-7.7-1.7	beast_fmri_test	269	70476,/,71156,/,71837,/,72517,/,73197,/,73877,/,74557,/	t,t,t,t,t,t,t	<img class = center src='/static/experiments/beast_fmri_test/images/D.png'></img>	89,71	2750.0	test	<img class = center src='/static/experiments/beast_fmri_test/images/redD.png'></img>	stop	2150.0	2.0	7.0	stop	non-target	D	89,Yellow Button	71,Green Button	450.0	600.0	2300.0	2150.0	0.0	600.0	1.0	0.0	stop_stim
43377.552309999999	1467.44769	n/a	-1	-1	2750	1467.44769	stim	stop-signal	22	73162	0.0-7.7-1.7	beast_fmri_test	269	70476,/,71156,/,71837,/,72517,/,73197,/,73877,/,74557,/	t,t,t,t,t,t,t	<img class = center src='/static/experiments/beast_fmri_test/images/D.png'></img>	89,71	2750.0	test	<img class = center src='/static/experiments/beast_fmri_test/images/redD.png'></img>	stop	2150.0	2.0	7.0	stop	non-target	D	89,Yellow Button	71,Green Button	450.0	600.0	2300.0	2150.0	0.0	600.0	1.0	0.0	ITI
46815	500	n/a	-1	-1	500	0.0	fixation	poldrack-single-stim	23	75132	0.0-7.8-0.8	beast_fmri_test	269	n/a	n/a	<div class = centerbox><div class = fixation>+</div></div>	none	500.0	test	n/a	n/a	n/a	n/a	n/a	n/a	n/a	n/a	n/a	n/a	n/a	n/a	n/a	n/a	n/a	n/a	n/a	n/a	fixation
45969.1646587	2750	n/a	927	89	2750	846.8353413	stim	stop-signal	24	77883	0.0-7.8-1.8	beast_fmri_test	269	75237,/,75917,/,76597,/,77277,/,77957,/,78637,/	t,t,t,t,t,t	<img class = center src='/static/experiments/beast_fmri_test/images/P.png'></img>	89,71	2750.0	test	<img class = center src='/static/experiments/beast_fmri_test/images/redP.png'></img>	go	2300.0	2.0	8.0	go	target	P	89,Yellow Button	71,Green Button	450.0	650.0	2300.0	2150.0	1.0	450.0	n/a	1.0	go_stim
48719.1646587	846.83534129999987	n/a	927	89	2750	846.8353413	stim	stop-signal	24	77883	0.0-7.8-1.8	beast_fmri_test	269	75237,/,75917,/,76597,/,77277,/,77957,/,78637,/	t,t,t,t,t,t	<img class = center src='/static/experiments/beast_fmri_test/images/P.png'></img>	89,71	2750.0	test	<img class = center src='/static/experiments/beast_fmri_test/images/redP.png'></img>	go	2300.0	2.0	8.0	go	target	P	89,Yellow Button	71,Green Button	450.0	650.0	2300.0	2150.0	1.0	450.0	n/a	1.0	ITI
50915	500	n/a	-1	-1	500	0.0	fixation	poldrack-single-stim	25	79232	0.0-7.9-0.9	beast_fmri_test	269	n/a	n/a	<div class = centerbox><div class = fixation>+</div></div>	none	500.0	test	n/a	n/a	n/a	n/a	n/a	n/a	n/a	n/a	n/a	n/a	n/a	n/a	n/a	n/a	n/a	n/a	n/a	n/a	fixation
49861.708782000002	2750	n/a	1680	71	2750	1055.291218	stim	stop-signal	26	81984	0.0-7.9-1.9	beast_fmri_test	269	79317,/,79997,/,80677,/,81357,/,82037,/,82717,/	t,t,t,t,t,t	<img class = center src='/static/experiments/beast_fmri_test/images/P.png'></img>	89,71	2750.0	test	<img class = center src='/static/experiments/beast_fmri_test/images/redP.png'></img>	go	2100.0	2.0	9.0	go	non-target	P	89,Yellow Button	71,Green Button	450.0	650.0	2300.0	2100.0	1.0	650.0	n/a	1.0	go_stim
52611.708782000002	1055.2912180000001	n/a	1680	71	2750	1055.291218	stim	stop-signal	26	81984	0.0-7.9-1.9	beast_fmri_test	269	79317,/,79997,/,80677,/,81357,/,82037,/,82717,/	t,t,t,t,t,t	<img class = center src='/static/experiments/beast_fmri_test/images/P.png'></img>	89,71	2750.0	test	<img class = center src='/static/experiments/beast_fmri_test/images/redP.png'></img>	go	2100.0	2.0	9.0	go	non-target	P	89,Yellow Button	71,Green Button	450.0	650.0	2300.0	2100.0	1.0	650.0	n/a	1.0	ITI
55225	500	n/a	-1	-1	500	0.0	fixation	poldrack-single-stim	27	83542	0.0-7.10-0.10	beast_fmri_test	269	83397,/	t	<div class = centerbox><div class = fixation>+</div></div>	none	500.0	test	n/a	n/a	n/a	n/a	n/a	n/a	n/a	n/a	n/a	n/a	n/a	n/a	n/a	n/a	n/a	n/a	n/a	n/a	fixation
54404.938126599998	2750	n/a	945	71	2750	822.0618734	stim	stop-signal	28	86294	0.0-7.10-1.10	beast_fmri_test	269	84077,/,84756,/,85437,/,86117,/,86796,/	t,t,t,t,t	<img class = center src='/static/experiments/beast_fmri_test/images/B.png'></img>	89,71	2750.0	test	<img class = center src='/static/experiments/beast_fmri_test/images/redB.png'></img>	go	2100.0	2.0	10.0	go	non-target	B	89,Yellow Button	71,Green Button	450.0	650.0	2300.0	2100.0	1.0	650.0	n/a	1.0	go_stim
57154.938126599998	822.06187339999997	n/a	945	71	2750	822.0618734	stim	stop-signal	28	86294	0.0-7.10-1.10	beast_fmri_test	269	84077,/,84756,/,85437,/,86117,/,86796,/	t,t,t,t,t	<img class = center src='/static/experiments/beast_fmri_test/images/B.png'></img>	89,71	2750.0	test	<img class = center src='/static/experiments/beast_fmri_test/images/redB.png'></img>	go	2100.0	2.0	10.0	go	non-target	B	89,Yellow Button	71,Green Button	450.0	650.0	2300.0	2100.0	1.0	650.0	n/a	1.0	ITI
59304	500	n/a	-1	-1	500	0.0	fixation	poldrack-single-stim	29	87621	0.0-7.11-0.11	beast_fmri_test	269	87477,/	t	<div class = centerbox><div class = fixation>+</div></div>	none	500.0	test	n/a	n/a	n/a	n/a	n/a	n/a	n/a	n/a	n/a	n/a	n/a	n/a	n/a	n/a	n/a	n/a	n/a	n/a	fixation
57939.886427999998	2750	n/a	869	89	2750	1366.113572	stim	stop-signal	30	90373	0.0-7.11-1.11	beast_fmri_test	269	88157,/,88836,/,89516,/,90198,/,90876,/,91556,/	t,t,t,t,t,t	<img class = center src='/static/experiments/beast_fmri_test/images/P.png'></img>	89,71	2750.0	test	<img class = center src='/static/experiments/beast_fmri_test/images/redP.png'></img>	go	2300.0	2.0	11.0	go	target	P	89,Yellow Button	71,Green Button	450.0	650.0	2300.0	2100.0	1.0	450.0	n/a	1.0	go_stim
60689.886427999998	1366.113572	n/a	869	89	2750	1366.113572	stim	stop-signal	30	90373	0.0-7.11-1.11	beast_fmri_test	269	88157,/,88836,/,89516,/,90198,/,90876,/,91556,/	t,t,t,t,t,t	<img class = center src='/static/experiments/beast_fmri_test/images/P.png'></img>	89,71	2750.0	test	<img class = center src='/static/experiments/beast_fmri_test/images/redP.png'></img>	go	2300.0	2.0	11.0	go	target	P	89,Yellow Button	71,Green Button	450.0	650.0	2300.0	2100.0	1.0	450.0	n/a	1.0	ITI
63925	500	n/a	-1	-1	500	0.0	fixation	poldrack-single-stim	31	92242	0.0-7.12-0.12	beast_fmri_test	269	92236,/	t	<div class = centerbox><div class = fixation>+</div></div>	none	500.0	test	n/a	n/a	n/a	n/a	n/a	n/a	n/a	n/a	n/a	n/a	n/a	n/a	n/a	n/a	n/a	n/a	n/a	n/a	fixation
63182.3638526	650.0	n/a	-1	-1	2750	744.6361474	stim	stop-signal	32	94994	0.0-7.12-1.12	beast_fmri_test	269	92916,/,93596,/,94277,/,94956,/,95636,/	t,t,t,t,t	<img class = center src='/static/experiments/beast_fmri_test/images/D.png'></img>	89,71	2750.0	test	<img class = center src='/static/experiments/beast_fmri_test/images/redD.png'></img>	stop	2100.0	2.0	12.0	stop	non-target	D	89,Yellow Button	71,Green Button	450.0	650.0	2300.0	2100.0	0.0	650.0	1.0	0.0	go_stim
65282.3638526	2100.0	n/a	-1	-1	2750	744.6361474	stim	stop-signal	32	94994	0.0-7.12-1.12	beast_fmri_test	269	92916,/,93596,/,94277,/,94956,/,95636,/	t,t,t,t,t	<img class = center src='/static/experiments/beast_fmri_test/images/D.png'></img>	89,71	2750.0	test	<img class = center src='/static/experiments/beast_fmri_test/images/redD.png'></img>	stop	2100.0	2.0	12.0	stop	non-target	D	89,Yellow Button	71,Green Button	450.0	650.0	2300.0	2100.0	0.0	650.0	1.0	0.0	stop_stim
65932.3638526	744.63614739999991	n/a	-1	-1	2750	744.6361474	stim	stop-signal	32	94994	0.0-7.12-1.12	beast_fmri_test	269	92916,/,93596,/,94277,/,94956,/,95636,/	t,t,t,t,t	<img class = center src='/static/experiments/beast_fmri_test/images/D.png'></img>	89,71	2750.0	test	<img class = center src='/static/experiments/beast_fmri_test/images/redD.png'></img>	stop	2100.0	2.0	12.0	stop	non-target	D	89,Yellow Button	71,Green Button	450.0	650.0	2300.0	2100.0	0.0	650.0	1.0	0.0	ITI
67926	500	n/a	-1	-1	500	0.0	fixation	poldrack-single-stim	33	96243	0.0-7.13-0.13	beast_fmri_test	269	n/a	n/a	<div class = centerbox><div class = fixation>+</div></div>	none	500.0	test	n/a	n/a	n/a	n/a	n/a	n/a	n/a	n/a	n/a	n/a	n/a	n/a	n/a	n/a	n/a	n/a	n/a	n/a	fixation
67611.002314800004	450.0	n/a	-1	-1	2750	317.9976852	stim	stop-signal	34	98996	0.0-7.13-1.13	beast_fmri_test	269	96317,/,96996,/,97677,/,98356,/,99036,/	t,t,t,t,t	<img class = center src='/static/experiments/beast_fmri_test/images/P.png'></img>	89,71	2750.0	test	<img class = center src='/static/experiments/beast_fmri_test/images/redP.png'></img>	stop	2300.0	2.0	13.0	stop	target	P	89,Yellow Button	71,Green Button	450.0	700.0	2300.0	2100.0	0.0	450.0	1.0	0.0	go_stim
69911.002314800004	2300.0	n/a	-1	-1	2750	317.9976852	stim	stop-signal	34	98996	0.0-7.13-1.13	beast_fmri_test	269	96317,/,96996,/,97677,/,98356,/,99036,/	t,t,t,t,t	<img class = center src='/static/experiments/beast_fmri_test/images/P.png'></img>	89,71	2750.0	test	<img class = center src='/static/experiments/beast_fmri_test/images/redP.png'></img>	stop	2300.0	2.0	13.0	stop	target	P	89,Yellow Button	71,Green Button	450.0	700.0	2300.0	2100.0	0.0	450.0	1.0	0.0	stop_stim
70361.002314800004	317.99768519999998	n/a	-1	-1	2750	317.9976852	stim	stop-signal	34	98996	0.0-7.13-1.13	beast_fmri_test	269	96317,/,96996,/,97677,/,98356,/,99036,/	t,t,t,t,t	<img class = center src='/static/experiments/beast_fmri_test/images/P.png'></img>	89,71	2750.0	test	<img class = center src='/static/experiments/beast_fmri_test/images/redP.png'></img>	stop	2300.0	2.0	13.0	stop	target	P	89,Yellow Button	71,Green Button	450.0	700.0	2300.0	2100.0	0.0	450.0	1.0	0.0	ITI
71501	500	n/a	-1	-1	500	0.0	fixation	poldrack-single-stim	35	99818	0.0-7.14-0.14	beast_fmri_test	269	99717,/	t	<div class = centerbox><div class = fixation>+</div></div>	none	500.0	test	n/a	n/a	n/a	n/a	n/a	n/a	n/a	n/a	n/a	n/a	n/a	n/a	n/a	n/a	n/a	n/a	n/a	n/a	fixation
71101.4378822	700.0	n/a	-1	-1	2750	401.5621178	stim	stop-signal	36	102570	0.0-7.14-1.14	beast_fmri_test	269	100397,/,101077,/,101756,/,102436,/	t,t,t,t	<img class = center src='/static/experiments/beast_fmri_test/images/T.png'></img>	89,71	2750.0	test	<img class = center src='/static/experiments/beast_fmri_test/images/redT.png'></img>	stop	2050.0	2.0	14.0	stop	non-target	T	89,Yellow Button	71,Green Button	500.0	700.0	2300.0	2050.0	0.0	700.0	1.0	0.0	go_stim
73151.4378822	2050.0	n/a	-1	-1	2750	401.5621178	stim	stop-signal	36	102570	0.0-7.14-1.14	beast_fmri_test	269	100397,/,101077,/,101756,/,102436,/	t,t,t,t	<img class = center src='/static/experiments/beast_fmri_test/images/T.png'></img>	89,71	2750.0	test	<img class = center src='/static/experiments/beast_fmri_test/images/redT.png'></img>	stop	2050.0	2.0	14.0	stop	non-target	T	89,Yellow Button	71,Green Button	500.0	700.0	2300.0	2050.0	0.0	700.0	1.0	0.0	stop_stim
73851.4378822	401.56211780000001	n/a	-1	-1	2750	401.5621178	stim	stop-signal	36	102570	0.0-7.14-1.14	beast_fmri_test	269	100397,/,101077,/,101756,/,102436,/	t,t,t,t	<img class = center src='/static/experiments/beast_fmri_test/images/T.png'></img>	89,71	2750.0	test	<img class = center src='/static/experiments/beast_fmri_test/images/redT.png'></img>	stop	2050.0	2.0	14.0	stop	non-target	T	89,Yellow Button	71,Green Button	500.0	700.0	2300.0	2050.0	0.0	700.0	1.0	0.0	ITI
75158	500	n/a	-1	-1	500	0.0	fixation	poldrack-single-stim	37	103475	0.0-7.15-0.15	beast_fmri_test	269	103116,/	t	<div class = centerbox><div class = fixation>+</div></div>	none	500.0	test	n/a	n/a	n/a	n/a	n/a	n/a	n/a	n/a	n/a	n/a	n/a	n/a	n/a	n/a	n/a	n/a	n/a	n/a	fixation
74948.0626395	2750	n/a	1231	71	2750	211.9373605	stim	stop-signal	38	106227	0.0-7.15-1.15	beast_fmri_test	269	103796,/,104477,/,105156,/,105836,/	t,t,t,t	<img class = center src='/static/experiments/beast_fmri_test/images/T.png'></img>	89,71	2750.0	test	<img class = center src='/static/experiments/beast_fmri_test/images/redT.png'></img>	go	2000.0	2.0	15.0	go	non-target	T	89,Yellow Button	71,Green Button	500.0	750.0	2300.0	2000.0	1.0	750.0	n/a	1.0	go_stim
77698.0626395	211.93736050000001	n/a	1231	71	2750	211.9373605	stim	stop-signal	38	106227	0.0-7.15-1.15	beast_fmri_test	269	103796,/,104477,/,105156,/,105836,/	t,t,t,t	<img class = center src='/static/experiments/beast_fmri_test/images/T.png'></img>	89,71	2750.0	test	<img class = center src='/static/experiments/beast_fmri_test/images/redT.png'></img>	go	2000.0	2.0	15.0	go	non-target	T	89,Yellow Button	71,Green Button	500.0	750.0	2300.0	2000.0	1.0	750.0	n/a	1.0	ITI
78625	500	n/a	-1	-1	500	0.0	fixation	poldrack-single-stim	39	106942	0.0-7.16-0.16	beast_fmri_test	269	106517,/	t	<div class = centerbox><div class = fixation>+</div></div>	none	500.0	test	n/a	n/a	n/a	n/a	n/a	n/a	n/a	n/a	n/a	n/a	n/a	n/a	n/a	n/a	n/a	n/a	n/a	n/a	fixation
78472.470499699994	2750	n/a	1280	71	2750	154.5295003	stim	stop-signal	40	109694	0.0-7.16-1.16	beast_fmri_test	269	107197,/,107877,/,108557,/,109237,/	t,t,t,t	<img class = center src='/static/experiments/beast_fmri_test/images/B.png'></img>	89,71	2750.0	test	<img class = center src='/static/experiments/beast_fmri_test/images/redB.png'></img>	go	2000.0	2.0	16.0	go	non-target	B	89,Yellow Button	71,Green Button	500.0	750.0	2300.0	2000.0	1.0	750.0	n/a	1.0	go_stim
81222.470499699994	154.5295003	n/a	1280	71	2750	154.5295003	stim	stop-signal	40	109694	0.0-7.16-1.16	beast_fmri_test	269	107197,/,107877,/,108557,/,109237,/	t,t,t,t	<img class = center src='/static/experiments/beast_fmri_test/images/B.png'></img>	89,71	2750.0	test	<img class = center src='/static/experiments/beast_fmri_test/images/redB.png'></img>	go	2000.0	2.0	16.0	go	non-target	B	89,Yellow Button	71,Green Button	500.0	750.0	2300.0	2000.0	1.0	750.0	n/a	1.0	ITI
82036	500	n/a	-1	-1	500	0.0	fixation	poldrack-single-stim	41	110353	0.0-7.17-0.17	beast_fmri_test	269	109917,/	t	<div class = centerbox><div class = fixation>+</div></div>	none	500.0	test	n/a	n/a	n/a	n/a	n/a	n/a	n/a	n/a	n/a	n/a	n/a	n/a	n/a	n/a	n/a	n/a	n/a	n/a	fixation
80811.727243000001	750.0	n/a	-1	-1	2750	1226.272757	stim	stop-signal	42	113105	0.0-7.17-1.17	beast_fmri_test	269	110598,/,111277,/,111957,/,112637,/,113317,/,113997,/	t,t,t,t,t,t	<img class = center src='/static/experiments/beast_fmri_test/images/B.png'></img>	89,71	2750.0	test	<img class = center src='/static/experiments/beast_fmri_test/images/redB.png'></img>	stop	2000.0	2.0	17.0	stop	non-target	B	89,Yellow Button	71,Green Button	500.0	750.0	2300.0	2000.0	0.0	750.0	1.0	0.0	go_stim
82811.727243000001	2000.0	n/a	-1	-1	2750	1226.272757	stim	stop-signal	42	113105	0.0-7.17-1.17	beast_fmri_test	269	110598,/,111277,/,111957,/,112637,/,113317,/,113997,/	t,t,t,t,t,t	<img class = center src='/static/experiments/beast_fmri_test/images/B.png'></img>	89,71	2750.0	test	<img class = center src='/static/experiments/beast_fmri_test/images/redB.png'></img>	stop	2000.0	2.0	17.0	stop	non-target	B	89,Yellow Button	71,Green Button	500.0	750.0	2300.0	2000.0	0.0	750.0	1.0	0.0	stop_stim
83561.727243000001	1226.272757	n/a	-1	-1	2750	1226.272757	stim	stop-signal	42	113105	0.0-7.17-1.17	beast_fmri_test	269	110598,/,111277,/,111957,/,112637,/,113317,/,113997,/	t,t,t,t,t,t	<img class = center src='/static/experiments/beast_fmri_test/images/B.png'></img>	89,71	2750.0	test	<img class = center src='/static/experiments/beast_fmri_test/images/redB.png'></img>	stop	2000.0	2.0	17.0	stop	non-target	B	89,Yellow Button	71,Green Button	500.0	750.0	2300.0	2000.0	0.0	750.0	1.0	0.0	ITI
86518	500	n/a	-1	-1	500	0.0	fixation	poldrack-single-stim	43	114835	0.0-7.18-0.18	beast_fmri_test	269	114677,/	t	<div class = centerbox><div class = fixation>+</div></div>	none	500.0	test	n/a	n/a	n/a	n/a	n/a	n/a	n/a	n/a	n/a	n/a	n/a	n/a	n/a	n/a	n/a	n/a	n/a	n/a	fixation
86062.336805500003	2750	n/a	1213	71	2750	456.6631945	stim	stop-signal	44	117586	0.0-7.18-1.18	beast_fmri_test	269	115357,/,116037,/,116717,/,117397,/	t,t,t,t	<img class = center src='/static/experiments/beast_fmri_test/images/T.png'></img>	89,71	2750.0	test	<img class = center src='/static/experiments/beast_fmri_test/images/redT.png'></img>	go	1950.0	2.0	18.0	go	non-target	T	89,Yellow Button	71,Green Button	500.0	800.0	2300.0	1950.0	1.0	800.0	n/a	1.0	go_stim
88812.336805500003	456.66319450000003	n/a	1213	71	2750	456.6631945	stim	stop-signal	44	117586	0.0-7.18-1.18	beast_fmri_test	269	115357,/,116037,/,116717,/,117397,/	t,t,t,t	<img class = center src='/static/experiments/beast_fmri_test/images/T.png'></img>	89,71	2750.0	test	<img class = center src='/static/experiments/beast_fmri_test/images/redT.png'></img>	go	1950.0	2.0	18.0	go	non-target	T	89,Yellow Button	71,Green Button	500.0	800.0	2300.0	1950.0	1.0	800.0	n/a	1.0	ITI
90231	500	n/a	-1	-1	500	0.0	fixation	poldrack-single-stim	45	118548	0.0-7.19-0.19	beast_fmri_test	269	118076,/	t	<div class = centerbox><div class = fixation>+</div></div>	none	500.0	test	n/a	n/a	n/a	n/a	n/a	n/a	n/a	n/a	n/a	n/a	n/a	n/a	n/a	n/a	n/a	n/a	n/a	n/a	fixation
88365.294022000002	2750	n/a	1207	71	2750	1866.705978	stim	stop-signal	46	121299	0.0-7.19-1.19	beast_fmri_test	269	118757,/,119437,/,120117,/,120797,/,121477,/,122157,/,122836,/	t,t,t,t,t,t,t	<img class = center src='/static/experiments/beast_fmri_test/images/P.png'></img>	89,71	2750.0	test	<img class = center src='/static/experiments/beast_fmri_test/images/redP.png'></img>	go	1950.0	2.0	19.0	go	non-target	P	89,Yellow Button	71,Green Button	500.0	800.0	2300.0	1950.0	1.0	800.0	n/a	1.0	go_stim
91115.294022000002	1866.7059780000002	n/a	1207	71	2750	1866.705978	stim	stop-signal	46	121299	0.0-7.19-1.19	beast_fmri_test	269	118757,/,119437,/,120117,/,120797,/,121477,/,122157,/,122836,/	t,t,t,t,t,t,t	<img class = center src='/static/experiments/beast_fmri_test/images/P.png'></img>	89,71	2750.0	test	<img class = center src='/static/experiments/beast_fmri_test/images/redP.png'></img>	go	1950.0	2.0	19.0	go	non-target	P	89,Yellow Button	71,Green Button	500.0	800.0	2300.0	1950.0	1.0	800.0	n/a	1.0	ITI
95354	500	n/a	-1	-1	500	0.0	fixation	poldrack-single-stim	47	123671	0.0-7.20-0.20	beast_fmri_test	269	123516,/	t	<div class = centerbox><div class = fixation>+</div></div>	none	500.0	test	n/a	n/a	n/a	n/a	n/a	n/a	n/a	n/a	n/a	n/a	n/a	n/a	n/a	n/a	n/a	n/a	n/a	n/a	fixation
94322.219748000003	2750	n/a	1413	71	2750	1033.780252	stim	stop-signal	48	126423	0.0-7.20-1.20	beast_fmri_test	269	124197,/,124877,/,125556,/,126237,/,126917,/	t,t,t,t,t	<img class = center src='/static/experiments/beast_fmri_test/images/P.png'></img>	89,71	2750.0	test	<img class = center src='/static/experiments/beast_fmri_test/images/redP.png'></img>	go	1950.0	2.0	20.0	go	non-target	P	89,Yellow Button	71,Green Button	500.0	800.0	2300.0	1950.0	1.0	800.0	n/a	1.0	go_stim
97072.219748000003	1033.780252	n/a	1413	71	2750	1033.780252	stim	stop-signal	48	126423	0.0-7.20-1.20	beast_fmri_test	269	124197,/,124877,/,125556,/,126237,/,126917,/	t,t,t,t,t	<img class = center src='/static/experiments/beast_fmri_test/images/P.png'></img>	89,71	2750.0	test	<img class = center src='/static/experiments/beast_fmri_test/images/redP.png'></img>	go	1950.0	2.0	20.0	go	non-target	P	89,Yellow Button	71,Green Button	500.0	800.0	2300.0	1950.0	1.0	800.0	n/a	1.0	ITI
99643	500	n/a	-1	-1	500	0.0	fixation	poldrack-single-stim	49	127960	0.0-7.21-0.21	beast_fmri_test	269	127596,/	t	<div class = centerbox><div class = fixation>+</div></div>	none	500.0	test	n/a	n/a	n/a	n/a	n/a	n/a	n/a	n/a	n/a	n/a	n/a	n/a	n/a	n/a	n/a	n/a	n/a	n/a	fixation
98392.114010999998	500.0	n/a	-1	-1	2750	1252.885989	stim	stop-signal	50	130712	0.0-7.21-1.21	beast_fmri_test	269	128277,/,128956,/,129636,/,130316,/,130997,/,131676,/	t,t,t,t,t,t	<img class = center src='/static/experiments/beast_fmri_test/images/P.png'></img>	89,71	2750.0	test	<img class = center src='/static/experiments/beast_fmri_test/images/redP.png'></img>	stop	2250.0	2.0	21.0	stop	target	P	89,Yellow Button	71,Green Button	500.0	800.0	2250.0	1950.0	0.0	500.0	1.0	0.0	go_stim
100642.114011	2250.0	n/a	-1	-1	2750	1252.885989	stim	stop-signal	50	130712	0.0-7.21-1.21	beast_fmri_test	269	128277,/,128956,/,129636,/,130316,/,130997,/,131676,/	t,t,t,t,t,t	<img class = center src='/static/experiments/beast_fmri_test/images/P.png'></img>	89,71	2750.0	test	<img class = center src='/static/experiments/beast_fmri_test/images/redP.png'></img>	stop	2250.0	2.0	21.0	stop	target	P	89,Yellow Button	71,Green Button	500.0	800.0	2250.0	1950.0	0.0	500.0	1.0	0.0	stop_stim
101142.114011	1252.8859890000001	n/a	-1	-1	2750	1252.885989	stim	stop-signal	50	130712	0.0-7.21-1.21	beast_fmri_test	269	128277,/,128956,/,129636,/,130316,/,130997,/,131676,/	t,t,t,t,t,t	<img class = center src='/static/experiments/beast_fmri_test/images/P.png'></img>	89,71	2750.0	test	<img class = center src='/static/experiments/beast_fmri_test/images/redP.png'></img>	stop	2250.0	2.0	21.0	stop	target	P	89,Yellow Button	71,Green Button	500.0	800.0	2250.0	1950.0	0.0	500.0	1.0	0.0	ITI
104153	500	n/a	-1	-1	500	0.0	fixation	poldrack-single-stim	51	132470	0.0-7.22-0.22	beast_fmri_test	269	132356,/	t	<div class = centerbox><div class = fixation>+</div></div>	none	500.0	test	n/a	n/a	n/a	n/a	n/a	n/a	n/a	n/a	n/a	n/a	n/a	n/a	n/a	n/a	n/a	n/a	n/a	n/a	fixation
103467.07091079999	2750	n/a	876	71	2750	687.9290892	stim	stop-signal	52	135222	0.0-7.22-1.22	beast_fmri_test	269	133036,/,133716,/,134396,/,135076,/,135756,/	t,t,t,t,t	<img class = center src='/static/experiments/beast_fmri_test/images/V.png'></img>	89,71	2750.0	test	<img class = center src='/static/experiments/beast_fmri_test/images/redV.png'></img>	go	1950.0	2.0	22.0	go	non-target	V	89,Yellow Button	71,Green Button	550.0	800.0	2250.0	1950.0	1.0	800.0	n/a	1.0	go_stim
106217.07091079999	687.92908920000013	n/a	876	71	2750	687.9290892	stim	stop-signal	52	135222	0.0-7.22-1.22	beast_fmri_test	269	133036,/,133716,/,134396,/,135076,/,135756,/	t,t,t,t,t	<img class = center src='/static/experiments/beast_fmri_test/images/V.png'></img>	89,71	2750.0	test	<img class = center src='/static/experiments/beast_fmri_test/images/redV.png'></img>	go	1950.0	2.0	22.0	go	non-target	V	89,Yellow Button	71,Green Button	550.0	800.0	2250.0	1950.0	1.0	800.0	n/a	1.0	ITI
108097	500	n/a	-1	-1	500	0.0	fixation	poldrack-single-stim	53	136414	0.0-7.23-0.23	beast_fmri_test	269	n/a	n/a	<div class = centerbox><div class = fixation>+</div></div>	none	500.0	test	n/a	n/a	n/a	n/a	n/a	n/a	n/a	n/a	n/a	n/a	n/a	n/a	n/a	n/a	n/a	n/a	n/a	n/a	fixation
107073.93002500001	2750	n/a	605	89	2750	1024.069975	stim	stop-signal	54	139165	0.0-7.23-1.23	beast_fmri_test	269	136436,/,137116,/,137796,/,138476,/,139156,/,139836,/	t,t,t,t,t,t	<img class = center src='/static/experiments/beast_fmri_test/images/P.png'></img>	89,71	2750.0	test	<img class = center src='/static/experiments/beast_fmri_test/images/redP.png'></img>	go	2200.0	2.0	23.0	go	target	P	89,Yellow Button	71,Green Button	550.0	800.0	2200.0	1950.0	1.0	550.0	n/a	1.0	go_stim
109823.93002500001	1024.0699750000001	n/a	605	89	2750	1024.069975	stim	stop-signal	54	139165	0.0-7.23-1.23	beast_fmri_test	269	136436,/,137116,/,137796,/,138476,/,139156,/,139836,/	t,t,t,t,t,t	<img class = center src='/static/experiments/beast_fmri_test/images/P.png'></img>	89,71	2750.0	test	<img class = center src='/static/experiments/beast_fmri_test/images/redP.png'></img>	go	2200.0	2.0	23.0	go	target	P	89,Yellow Button	71,Green Button	550.0	800.0	2200.0	1950.0	1.0	550.0	n/a	1.0	ITI
112377	500	n/a	-1	-1	500	0.0	fixation	poldrack-single-stim	55	140694	0.0-7.24-0.24	beast_fmri_test	269	140517,/	t	<div class = centerbox><div class = fixation>+</div></div>	none	500.0	test	n/a	n/a	n/a	n/a	n/a	n/a	n/a	n/a	n/a	n/a	n/a	n/a	n/a	n/a	n/a	n/a	n/a	n/a	fixation
111303.36777899999	800.0	n/a	-1	-1	2750	1075.632221	stim	stop-signal	56	143446	0.0-7.24-1.24	beast_fmri_test	269	141198,/,141877,/,142557,/,143237,/,143917,/	t,t,t,t,t	<img class = center src='/static/experiments/beast_fmri_test/images/D.png'></img>	89,71	2750.0	test	<img class = center src='/static/experiments/beast_fmri_test/images/redD.png'></img>	stop	1950.0	2.0	24.0	stop	non-target	D	89,Yellow Button	71,Green Button	550.0	800.0	2200.0	1950.0	0.0	800.0	1.0	0.0	go_stim
113253.36777899999	1950.0	n/a	-1	-1	2750	1075.632221	stim	stop-signal	56	143446	0.0-7.24-1.24	beast_fmri_test	269	141198,/,141877,/,142557,/,143237,/,143917,/	t,t,t,t,t	<img class = center src='/static/experiments/beast_fmri_test/images/D.png'></img>	89,71	2750.0	test	<img class = center src='/static/experiments/beast_fmri_test/images/redD.png'></img>	stop	1950.0	2.0	24.0	stop	non-target	D	89,Yellow Button	71,Green Button	550.0	800.0	2200.0	1950.0	0.0	800.0	1.0	0.0	stop_stim
114053.36777899999	1075.6322210000001	n/a	-1	-1	2750	1075.632221	stim	stop-signal	56	143446	0.0-7.24-1.24	beast_fmri_test	269	141198,/,141877,/,142557,/,143237,/,143917,/	t,t,t,t,t	<img class = center src='/static/experiments/beast_fmri_test/images/D.png'></img>	89,71	2750.0	test	<img class = center src='/static/experiments/beast_fmri_test/images/redD.png'></img>	stop	1950.0	2.0	24.0	stop	non-target	D	89,Yellow Button	71,Green Button	550.0	800.0	2200.0	1950.0	0.0	800.0	1.0	0.0	ITI
116710	500	n/a	-1	-1	500	0.0	fixation	poldrack-single-stim	57	145027	0.0-7.25-0.25	beast_fmri_test	269	144597,/	t	<div class = centerbox><div class = fixation>+</div></div>	none	500.0	test	n/a	n/a	n/a	n/a	n/a	n/a	n/a	n/a	n/a	n/a	n/a	n/a	n/a	n/a	n/a	n/a	n/a	n/a	fixation
115006.77485700001	2750	n/a	1277	71	2750	1704.225143	stim	stop-signal	58	147778	0.0-7.25-1.25	beast_fmri_test	269	145277,/,145957,/,146637,/,147317,/,147997,/,148676,/,149357,/	t,t,t,t,t,t,t	<img class = center src='/static/experiments/beast_fmri_test/images/B.png'></img>	89,71	2750.0	test	<img class = center src='/static/experiments/beast_fmri_test/images/redB.png'></img>	go	1900.0	2.0	25.0	go	non-target	B	89,Yellow Button	71,Green Button	550.0	850.0	2200.0	1900.0	1.0	850.0	n/a	1.0	go_stim
117756.77485700001	1704.2251429999999	n/a	1277	71	2750	1704.225143	stim	stop-signal	58	147778	0.0-7.25-1.25	beast_fmri_test	269	145277,/,145957,/,146637,/,147317,/,147997,/,148676,/,149357,/	t,t,t,t,t,t,t	<img class = center src='/static/experiments/beast_fmri_test/images/B.png'></img>	89,71	2750.0	test	<img class = center src='/static/experiments/beast_fmri_test/images/redB.png'></img>	go	1900.0	2.0	25.0	go	non-target	B	89,Yellow Button	71,Green Button	550.0	850.0	2200.0	1900.0	1.0	850.0	n/a	1.0	ITI
121671	500	n/a	-1	-1	500	0.0	fixation	poldrack-single-stim	59	149988	0.0-7.26-0.26	beast_fmri_test	269	n/a	n/a	<div class = centerbox><div class = fixation>+</div></div>	none	500.0	test	n/a	n/a	n/a	n/a	n/a	n/a	n/a	n/a	n/a	n/a	n/a	n/a	n/a	n/a	n/a	n/a	n/a	n/a	fixation
121567.87347709999	550.0	n/a	-1	-1	2750	105.1265229	stim	stop-signal	60	152740	0.0-7.26-1.26	beast_fmri_test	269	150037,/,150717,/,151397,/,152077,/,152756,/	t,t,t,t,t	<img class = center src='/static/experiments/beast_fmri_test/images/D.png'></img>	89,71	2750.0	test	<img class = center src='/static/experiments/beast_fmri_test/images/redD.png'></img>	stop	2200.0	2.0	26.0	stop	target	D	89,Yellow Button	71,Green Button	550.0	850.0	2200.0	1900.0	0.0	550.0	1.0	0.0	go_stim
123767.87347709999	2200.0	n/a	-1	-1	2750	105.1265229	stim	stop-signal	60	152740	0.0-7.26-1.26	beast_fmri_test	269	150037,/,150717,/,151397,/,152077,/,152756,/	t,t,t,t,t	<img class = center src='/static/experiments/beast_fmri_test/images/D.png'></img>	89,71	2750.0	test	<img class = center src='/static/experiments/beast_fmri_test/images/redD.png'></img>	stop	2200.0	2.0	26.0	stop	target	D	89,Yellow Button	71,Green Button	550.0	850.0	2200.0	1900.0	0.0	550.0	1.0	0.0	stop_stim
124317.87347709999	105.12652290000001	n/a	-1	-1	2750	105.1265229	stim	stop-signal	60	152740	0.0-7.26-1.26	beast_fmri_test	269	150037,/,150717,/,151397,/,152077,/,152756,/	t,t,t,t,t	<img class = center src='/static/experiments/beast_fmri_test/images/D.png'></img>	89,71	2750.0	test	<img class = center src='/static/experiments/beast_fmri_test/images/redD.png'></img>	stop	2200.0	2.0	26.0	stop	target	D	89,Yellow Button	71,Green Button	550.0	850.0	2200.0	1900.0	0.0	550.0	1.0	0.0	ITI
125032	500	n/a	-1	-1	500	0.0	fixation	poldrack-single-stim	61	153349	0.0-7.27-0.27	beast_fmri_test	269	n/a	n/a	<div class = centerbox><div class = fixation>+</div></div>	none	500.0	test	n/a	n/a	n/a	n/a	n/a	n/a	n/a	n/a	n/a	n/a	n/a	n/a	n/a	n/a	n/a	n/a	n/a	n/a	fixation
123494.697323	2750	n/a	908	71	2750	1539.302677	stim	stop-signal	62	156101	0.0-7.27-1.27	beast_fmri_test	269	153437,/,154117,/,154797,/,155476,/,156156,/,156837,/,157516,/	t,t,t,t,t,t,t	<img class = center src='/static/experiments/beast_fmri_test/images/T.png'></img>	89,71	2750.0	test	<img class = center src='/static/experiments/beast_fmri_test/images/redT.png'></img>	go	1900.0	2.0	27.0	go	non-target	T	89,Yellow Button	71,Green Button	600.0	850.0	2200.0	1900.0	1.0	850.0	n/a	1.0	go_stim
126244.697323	1539.3026769999999	n/a	908	71	2750	1539.302677	stim	stop-signal	62	156101	0.0-7.27-1.27	beast_fmri_test	269	153437,/,154117,/,154797,/,155476,/,156156,/,156837,/,157516,/	t,t,t,t,t,t,t	<img class = center src='/static/experiments/beast_fmri_test/images/T.png'></img>	89,71	2750.0	test	<img class = center src='/static/experiments/beast_fmri_test/images/redT.png'></img>	go	1900.0	2.0	27.0	go	non-target	T	89,Yellow Button	71,Green Button	600.0	850.0	2200.0	1900.0	1.0	850.0	n/a	1.0	ITI
129829	500	n/a	-1	-1	500	0.0	fixation	poldrack-single-stim	63	158146	0.0-7.28-0.28	beast_fmri_test	269	n/a	n/a	<div class = centerbox><div class = fixation>+</div></div>	none	500.0	test	n/a	n/a	n/a	n/a	n/a	n/a	n/a	n/a	n/a	n/a	n/a	n/a	n/a	n/a	n/a	n/a	n/a	n/a	fixation
128962.6205859	2750	n/a	1218	71	2750	867.3794141	stim	stop-signal	64	160897	0.0-7.28-1.28	beast_fmri_test	269	158196,/,158876,/,159557,/,160236,/,160916,/,161598,/	t,t,t,t,t,t	<img class = center src='/static/experiments/beast_fmri_test/images/P.png'></img>	89,71	2750.0	test	<img class = center src='/static/experiments/beast_fmri_test/images/redP.png'></img>	go	1900.0	2.0	28.0	go	non-target	P	89,Yellow Button	71,Green Button	600.0	850.0	2200.0	1900.0	1.0	850.0	n/a	1.0	go_stim
131712.6205859	867.37941410000008	n/a	1218	71	2750	867.3794141	stim	stop-signal	64	160897	0.0-7.28-1.28	beast_fmri_test	269	158196,/,158876,/,159557,/,160236,/,160916,/,161598,/	t,t,t,t,t,t	<img class = center src='/static/experiments/beast_fmri_test/images/P.png'></img>	89,71	2750.0	test	<img class = center src='/static/experiments/beast_fmri_test/images/redP.png'></img>	go	1900.0	2.0	28.0	go	non-target	P	89,Yellow Button	71,Green Button	600.0	850.0	2200.0	1900.0	1.0	850.0	n/a	1.0	ITI
133953	500	n/a	-1	-1	500	0.0	fixation	poldrack-single-stim	65	162270	0.0-7.29-0.29	beast_fmri_test	269	n/a	n/a	<div class = centerbox><div class = fixation>+</div></div>	none	500.0	test	n/a	n/a	n/a	n/a	n/a	n/a	n/a	n/a	n/a	n/a	n/a	n/a	n/a	n/a	n/a	n/a	n/a	n/a	fixation
132021.822327	2750	n/a	735	89	2750	1933.177673	stim	stop-signal	66	165022	0.0-7.29-1.29	beast_fmri_test	269	162276,/,162956,/,163636,/,164316,/,164996,/,165676,/,166356,/	t,t,t,t,t,t,t	<img class = center src='/static/experiments/beast_fmri_test/images/T.png'></img>	89,71	2750.0	test	<img class = center src='/static/experiments/beast_fmri_test/images/redT.png'></img>	go	2150.0	2.0	29.0	go	target	T	89,Yellow Button	71,Green Button	600.0	850.0	2150.0	1900.0	1.0	600.0	n/a	1.0	go_stim
134771.822327	1933.1776730000001	n/a	735	89	2750	1933.177673	stim	stop-signal	66	165022	0.0-7.29-1.29	beast_fmri_test	269	162276,/,162956,/,163636,/,164316,/,164996,/,165676,/,166356,/	t,t,t,t,t,t,t	<img class = center src='/static/experiments/beast_fmri_test/images/T.png'></img>	89,71	2750.0	test	<img class = center src='/static/experiments/beast_fmri_test/images/redT.png'></img>	go	2150.0	2.0	29.0	go	target	T	89,Yellow Button	71,Green Button	600.0	850.0	2150.0	1900.0	1.0	600.0	n/a	1.0	ITI
139144	500	n/a	-1	-1	500	0.0	fixation	poldrack-single-stim	67	167461	0.0-7.30-0.30	beast_fmri_test	269	167036,/	t	<div class = centerbox><div class = fixation>+</div></div>	none	500.0	test	n/a	n/a	n/a	n/a	n/a	n/a	n/a	n/a	n/a	n/a	n/a	n/a	n/a	n/a	n/a	n/a	n/a	n/a	fixation
138685.59662619999	850.0	n/a	772	71	2750	460.4033738	stim	stop-signal	68	170213	0.0-7.30-1.30	beast_fmri_test	269	167716,/,168396,/,169076,/,169756,/,170436,/	t,t,t,t,t	<img class = center src='/static/experiments/beast_fmri_test/images/B.png'></img>	89,71	2750.0	test	<img class = center src='/static/experiments/beast_fmri_test/images/redB.png'></img>	stop	1900.0	2.0	30.0	stop	non-target	B	89,Yellow Button	71,Green Button	600.0	850.0	2150.0	1900.0	0.0	850.0	0.0	1.0	go_stim
140585.59662619999	1900.0	n/a	772	71	2750	460.4033738	stim	stop-signal	68	170213	0.0-7.30-1.30	beast_fmri_test	269	167716,/,168396,/,169076,/,169756,/,170436,/	t,t,t,t,t	<img class = center src='/static/experiments/beast_fmri_test/images/B.png'></img>	89,71	2750.0	test	<img class = center src='/static/experiments/beast_fmri_test/images/redB.png'></img>	stop	1900.0	2.0	30.0	stop	non-target	B	89,Yellow Button	71,Green Button	600.0	850.0	2150.0	1900.0	0.0	850.0	0.0	1.0	stop_stim
141435.59662619999	460.4033738	n/a	772	71	2750	460.4033738	stim	stop-signal	68	170213	0.0-7.30-1.30	beast_fmri_test	269	167716,/,168396,/,169076,/,169756,/,170436,/	t,t,t,t,t	<img class = center src='/static/experiments/beast_fmri_test/images/B.png'></img>	89,71	2750.0	test	<img class = center src='/static/experiments/beast_fmri_test/images/redB.png'></img>	stop	1900.0	2.0	30.0	stop	non-target	B	89,Yellow Button	71,Green Button	600.0	850.0	2150.0	1900.0	0.0	850.0	0.0	1.0	ITI
142863	500	n/a	-1	-1	500	0.0	fixation	poldrack-single-stim	69	171180	0.0-7.31-0.31	beast_fmri_test	269	171116,/	t	<div class = centerbox><div class = fixation>+</div></div>	none	500.0	test	n/a	n/a	n/a	n/a	n/a	n/a	n/a	n/a	n/a	n/a	n/a	n/a	n/a	n/a	n/a	n/a	n/a	n/a	fixation
141800.38102500001	2750	n/a	1553	71	2750	1063.618975	stim	stop-signal	70	173931	0.0-7.31-1.31	beast_fmri_test	269	171797,/,172476,/,173156,/,173837,/,174517,/	t,t,t,t,t	<img class = center src='/static/experiments/beast_fmri_test/images/P.png'></img>	89,71	2750.0	test	<img class = center src='/static/experiments/beast_fmri_test/images/redP.png'></img>	go	1950.0	2.0	31.0	go	non-target	P	89,Yellow Button	71,Green Button	600.0	800.0	2150.0	1950.0	1.0	800.0	n/a	1.0	go_stim
144550.38102500001	1063.6189750000001	n/a	1553	71	2750	1063.618975	stim	stop-signal	70	173931	0.0-7.31-1.31	beast_fmri_test	269	171797,/,172476,/,173156,/,173837,/,174517,/	t,t,t,t,t	<img class = center src='/static/experiments/beast_fmri_test/images/P.png'></img>	89,71	2750.0	test	<img class = center src='/static/experiments/beast_fmri_test/images/redP.png'></img>	go	1950.0	2.0	31.0	go	non-target	P	89,Yellow Button	71,Green Button	600.0	800.0	2150.0	1950.0	1.0	800.0	n/a	1.0	ITI
147182	500	n/a	-1	-1	500	0.0	fixation	poldrack-single-stim	71	175499	0.0-7.32-0.32	beast_fmri_test	269	175197,/	t	<div class = centerbox><div class = fixation>+</div></div>	none	500.0	test	n/a	n/a	n/a	n/a	n/a	n/a	n/a	n/a	n/a	n/a	n/a	n/a	n/a	n/a	n/a	n/a	n/a	n/a	fixation
146821.60742300001	2750	n/a	2558	71	2750	362.392577	stim	stop-signal	72	178251	0.0-7.32-1.32	beast_fmri_test	269	175877,/,176557,/,177237,/,177917,/,178597,/	t,t,t,t,t	<img class = center src='/static/experiments/beast_fmri_test/images/D.png'></img>	89,71	2750.0	test	<img class = center src='/static/experiments/beast_fmri_test/images/redD.png'></img>	go	1950.0	2.0	32.0	go	non-target	D	89,Yellow Button	71,Green Button	600.0	800.0	2150.0	1950.0	1.0	800.0	n/a	1.0	go_stim
149571.60742300001	362.39257700000002	n/a	2558	71	2750	362.392577	stim	stop-signal	72	178251	0.0-7.32-1.32	beast_fmri_test	269	175877,/,176557,/,177237,/,177917,/,178597,/	t,t,t,t,t	<img class = center src='/static/experiments/beast_fmri_test/images/D.png'></img>	89,71	2750.0	test	<img class = center src='/static/experiments/beast_fmri_test/images/redD.png'></img>	go	1950.0	2.0	32.0	go	non-target	D	89,Yellow Button	71,Green Button	600.0	800.0	2150.0	1950.0	1.0	800.0	n/a	1.0	ITI
150800	500	n/a	-1	-1	500	0.0	fixation	poldrack-single-stim	73	179117	0.0-7.33-0.33	beast_fmri_test	269	n/a	n/a	<div class = centerbox><div class = fixation>+</div></div>	none	500.0	test	n/a	n/a	n/a	n/a	n/a	n/a	n/a	n/a	n/a	n/a	n/a	n/a	n/a	n/a	n/a	n/a	n/a	n/a	fixation
150543.94732169999	2750	n/a	1982	71	2750	259.0526783	stim	stop-signal	74	181870	0.0-7.33-1.33	beast_fmri_test	269	179277,/,179957,/,180637,/,181317,/,181998,/	t,t,t,t,t	<img class = center src='/static/experiments/beast_fmri_test/images/P.png'></img>	89,71	2750.0	test	<img class = center src='/static/experiments/beast_fmri_test/images/redP.png'></img>	go	2150.0	2.0	33.0	go	target	P	89,Yellow Button	71,Green Button	600.0	800.0	2150.0	1950.0	0.0	600.0	n/a	0.0	go_stim
153293.94732169999	259.05267830000003	n/a	1982	71	2750	259.0526783	stim	stop-signal	74	181870	0.0-7.33-1.33	beast_fmri_test	269	179277,/,179957,/,180637,/,181317,/,181998,/	t,t,t,t,t	<img class = center src='/static/experiments/beast_fmri_test/images/P.png'></img>	89,71	2750.0	test	<img class = center src='/static/experiments/beast_fmri_test/images/redP.png'></img>	go	2150.0	2.0	33.0	go	target	P	89,Yellow Button	71,Green Button	600.0	800.0	2150.0	1950.0	0.0	600.0	n/a	0.0	ITI
154318	500	n/a	-1	-1	500	0.0	fixation	poldrack-single-stim	75	182635	0.0-7.34-0.34	beast_fmri_test	269	n/a	n/a	<div class = centerbox><div class = fixation>+</div></div>	none	500.0	test	n/a	n/a	n/a	n/a	n/a	n/a	n/a	n/a	n/a	n/a	n/a	n/a	n/a	n/a	n/a	n/a	n/a	n/a	fixation
153868.07112800001	2750	n/a	1364	71	2750	452.928872	stim	stop-signal	76	185388	0.0-7.34-1.34	beast_fmri_test	269	182677,/,183357,/,184037,/,184717,/,185396,/	t,t,t,t,t	<img class = center src='/static/experiments/beast_fmri_test/images/P.png'></img>	89,71	2750.0	test	<img class = center src='/static/experiments/beast_fmri_test/images/redP.png'></img>	go	1950.0	2.0	34.0	go	non-target	P	89,Yellow Button	71,Green Button	600.0	800.0	2150.0	1950.0	1.0	800.0	n/a	1.0	go_stim
156618.07112800001	452.92887199999996	n/a	1364	71	2750	452.928872	stim	stop-signal	76	185388	0.0-7.34-1.34	beast_fmri_test	269	182677,/,183357,/,184037,/,184717,/,185396,/	t,t,t,t,t	<img class = center src='/static/experiments/beast_fmri_test/images/P.png'></img>	89,71	2750.0	test	<img class = center src='/static/experiments/beast_fmri_test/images/redP.png'></img>	go	1950.0	2.0	34.0	go	non-target	P	89,Yellow Button	71,Green Button	600.0	800.0	2150.0	1950.0	1.0	800.0	n/a	1.0	ITI
158029	500	n/a	-1	-1	500	0.0	fixation	poldrack-single-stim	77	186346	0.0-7.35-0.35	beast_fmri_test	269	186077,/	t	<div class = centerbox><div class = fixation>+</div></div>	none	500.0	test	n/a	n/a	n/a	n/a	n/a	n/a	n/a	n/a	n/a	n/a	n/a	n/a	n/a	n/a	n/a	n/a	n/a	n/a	fixation
157901.8876248	2750	n/a	1764	71	2750	128.1123752	stim	stop-signal	78	189097	0.0-7.35-1.35	beast_fmri_test	269	186757,/,187437,/,188116,/,188796,/	t,t,t,t	<img class = center src='/static/experiments/beast_fmri_test/images/B.png'></img>	89,71	2750.0	test	<img class = center src='/static/experiments/beast_fmri_test/images/redB.png'></img>	go	1950.0	2.0	35.0	go	non-target	B	89,Yellow Button	71,Green Button	600.0	800.0	2150.0	1950.0	1.0	800.0	n/a	1.0	go_stim
160651.8876248	128.1123752	n/a	1764	71	2750	128.1123752	stim	stop-signal	78	189097	0.0-7.35-1.35	beast_fmri_test	269	186757,/,187437,/,188116,/,188796,/	t,t,t,t	<img class = center src='/static/experiments/beast_fmri_test/images/B.png'></img>	89,71	2750.0	test	<img class = center src='/static/experiments/beast_fmri_test/images/redB.png'></img>	go	1950.0	2.0	35.0	go	non-target	B	89,Yellow Button	71,Green Button	600.0	800.0	2150.0	1950.0	1.0	800.0	n/a	1.0	ITI
161416	500	n/a	-1	-1	500	0.0	fixation	poldrack-single-stim	79	189733	0.0-7.36-0.36	beast_fmri_test	269	189477,/	t	<div class = centerbox><div class = fixation>+</div></div>	none	500.0	test	n/a	n/a	n/a	n/a	n/a	n/a	n/a	n/a	n/a	n/a	n/a	n/a	n/a	n/a	n/a	n/a	n/a	n/a	fixation
161225.39718940001	2750	n/a	1569	71	2750	192.6028106	stim	stop-signal	80	192485	0.0-7.36-1.36	beast_fmri_test	269	190156,/,190836,/,191516,/,192197,/	t,t,t,t	<img class = center src='/static/experiments/beast_fmri_test/images/B.png'></img>	89,71	2750.0	test	<img class = center src='/static/experiments/beast_fmri_test/images/redB.png'></img>	go	1950.0	2.0	36.0	go	non-target	B	89,Yellow Button	71,Green Button	600.0	800.0	2150.0	1950.0	1.0	800.0	n/a	1.0	go_stim
163975.39718940001	192.6028106	n/a	1569	71	2750	192.6028106	stim	stop-signal	80	192485	0.0-7.36-1.36	beast_fmri_test	269	190156,/,190836,/,191516,/,192197,/	t,t,t,t	<img class = center src='/static/experiments/beast_fmri_test/images/B.png'></img>	89,71	2750.0	test	<img class = center src='/static/experiments/beast_fmri_test/images/redB.png'></img>	go	1950.0	2.0	36.0	go	non-target	B	89,Yellow Button	71,Green Button	600.0	800.0	2150.0	1950.0	1.0	800.0	n/a	1.0	ITI
164866	500	n/a	-1	-1	500	0.0	fixation	poldrack-single-stim	81	193183	0.0-7.37-0.37	beast_fmri_test	269	192877,/	t	<div class = centerbox><div class = fixation>+</div></div>	none	500.0	test	n/a	n/a	n/a	n/a	n/a	n/a	n/a	n/a	n/a	n/a	n/a	n/a	n/a	n/a	n/a	n/a	n/a	n/a	fixation
162993.52766299999	2750	n/a	820	89	2750	1874.472337	stim	stop-signal	82	195935	0.0-7.37-1.37	beast_fmri_test	269	193556,/,194236,/,194916,/,195596,/,196276,/,196956,/,197636,/	t,t,t,t,t,t,t	<img class = center src='/static/experiments/beast_fmri_test/images/B.png'></img>	89,71	2750.0	test	<img class = center src='/static/experiments/beast_fmri_test/images/redB.png'></img>	go	2150.0	2.0	37.0	go	target	B	89,Yellow Button	71,Green Button	600.0	800.0	2150.0	1950.0	1.0	600.0	n/a	1.0	go_stim
165743.52766299999	1874.4723370000002	n/a	820	89	2750	1874.472337	stim	stop-signal	82	195935	0.0-7.37-1.37	beast_fmri_test	269	193556,/,194236,/,194916,/,195596,/,196276,/,196956,/,197636,/	t,t,t,t,t,t,t	<img class = center src='/static/experiments/beast_fmri_test/images/B.png'></img>	89,71	2750.0	test	<img class = center src='/static/experiments/beast_fmri_test/images/redB.png'></img>	go	2150.0	2.0	37.0	go	target	B	89,Yellow Button	71,Green Button	600.0	800.0	2150.0	1950.0	1.0	600.0	n/a	1.0	ITI
169998	500	n/a	-1	-1	500	0.0	fixation	poldrack-single-stim	83	198315	0.0-7.38-0.38	beast_fmri_test	269	n/a	n/a	<div class = centerbox><div class = fixation>+</div></div>	none	500.0	test	n/a	n/a	n/a	n/a	n/a	n/a	n/a	n/a	n/a	n/a	n/a	n/a	n/a	n/a	n/a	n/a	n/a	n/a	fixation
169550.0917772	2750	n/a	1119	71	2750	449.9082228	stim	stop-signal	84	201067	0.0-7.38-1.38	beast_fmri_test	269	198316,/,198996,/,199676,/,200356,/,201036,/	t,t,t,t,t	<img class = center src='/static/experiments/beast_fmri_test/images/D.png'></img>	89,71	2750.0	test	<img class = center src='/static/experiments/beast_fmri_test/images/redD.png'></img>	go	1950.0	2.0	38.0	go	non-target	D	89,Yellow Button	71,Green Button	600.0	800.0	2150.0	1950.0	1.0	800.0	n/a	1.0	go_stim
172300.0917772	449.90822280000003	n/a	1119	71	2750	449.9082228	stim	stop-signal	84	201067	0.0-7.38-1.38	beast_fmri_test	269	198316,/,198996,/,199676,/,200356,/,201036,/	t,t,t,t,t	<img class = center src='/static/experiments/beast_fmri_test/images/D.png'></img>	89,71	2750.0	test	<img class = center src='/static/experiments/beast_fmri_test/images/redD.png'></img>	go	1950.0	2.0	38.0	go	non-target	D	89,Yellow Button	71,Green Button	600.0	800.0	2150.0	1950.0	1.0	800.0	n/a	1.0	ITI
173705	500	n/a	-1	-1	500	0.0	fixation	poldrack-single-stim	85	202022	0.0-7.39-0.39	beast_fmri_test	269	201716,/	t	<div class = centerbox><div class = fixation>+</div></div>	none	500.0	test	n/a	n/a	n/a	n/a	n/a	n/a	n/a	n/a	n/a	n/a	n/a	n/a	n/a	n/a	n/a	n/a	n/a	n/a	fixation
172594.18179800001	2750	n/a	1146	89	2750	1112.818202	stim	stop-signal	86	204774	0.0-7.39-1.39	beast_fmri_test	269	202397,/,203076,/,203756,/,204436,/,205116,/,205796,/	t,t,t,t,t,t	<img class = center src='/static/experiments/beast_fmri_test/images/B.png'></img>	89,71	2750.0	test	<img class = center src='/static/experiments/beast_fmri_test/images/redB.png'></img>	go	2150.0	2.0	39.0	go	target	B	89,Yellow Button	71,Green Button	600.0	800.0	2150.0	1950.0	1.0	600.0	n/a	1.0	go_stim
175344.18179800001	1112.8182019999999	n/a	1146	89	2750	1112.818202	stim	stop-signal	86	204774	0.0-7.39-1.39	beast_fmri_test	269	202397,/,203076,/,203756,/,204436,/,205116,/,205796,/	t,t,t,t,t,t	<img class = center src='/static/experiments/beast_fmri_test/images/B.png'></img>	89,71	2750.0	test	<img class = center src='/static/experiments/beast_fmri_test/images/redB.png'></img>	go	2150.0	2.0	39.0	go	target	B	89,Yellow Button	71,Green Button	600.0	800.0	2150.0	1950.0	1.0	600.0	n/a	1.0	ITI
178076	500	n/a	-1	-1	500	0.0	fixation	poldrack-single-stim	87	206393	0.0-7.40-0.40	beast_fmri_test	269	n/a	n/a	<div class = centerbox><div class = fixation>+</div></div>	none	500.0	test	n/a	n/a	n/a	n/a	n/a	n/a	n/a	n/a	n/a	n/a	n/a	n/a	n/a	n/a	n/a	n/a	n/a	n/a	fixation
177758.5569272	800.0	n/a	-1	-1	2750	319.4430728	stim	stop-signal	88	209145	0.0-7.40-1.40	beast_fmri_test	269	206476,/,207157,/,207837,/,208517,/,209197,/	t,t,t,t,t	<img class = center src='/static/experiments/beast_fmri_test/images/B.png'></img>	89,71	2750.0	test	<img class = center src='/static/experiments/beast_fmri_test/images/redB.png'></img>	stop	1950.0	2.0	40.0	stop	non-target	B	89,Yellow Button	71,Green Button	600.0	800.0	2150.0	1950.0	0.0	800.0	1.0	0.0	go_stim
179708.5569272	1950.0	n/a	-1	-1	2750	319.4430728	stim	stop-signal	88	209145	0.0-7.40-1.40	beast_fmri_test	269	206476,/,207157,/,207837,/,208517,/,209197,/	t,t,t,t,t	<img class = center src='/static/experiments/beast_fmri_test/images/B.png'></img>	89,71	2750.0	test	<img class = center src='/static/experiments/beast_fmri_test/images/redB.png'></img>	stop	1950.0	2.0	40.0	stop	non-target	B	89,Yellow Button	71,Green Button	600.0	800.0	2150.0	1950.0	0.0	800.0	1.0	0.0	stop_stim
180508.5569272	319.44307280000004	n/a	-1	-1	2750	319.4430728	stim	stop-signal	88	209145	0.0-7.40-1.40	beast_fmri_test	269	206476,/,207157,/,207837,/,208517,/,209197,/	t,t,t,t,t	<img class = center src='/static/experiments/beast_fmri_test/images/B.png'></img>	89,71	2750.0	test	<img class = center src='/static/experiments/beast_fmri_test/images/redB.png'></img>	stop	1950.0	2.0	40.0	stop	non-target	B	89,Yellow Button	71,Green Button	600.0	800.0	2150.0	1950.0	0.0	800.0	1.0	0.0	ITI
181653	500	n/a	-1	-1	500	0.0	fixation	poldrack-single-stim	89	209970	0.0-7.41-0.41	beast_fmri_test	269	209877,/	t	<div class = centerbox><div class = fixation>+</div></div>	none	500.0	test	n/a	n/a	n/a	n/a	n/a	n/a	n/a	n/a	n/a	n/a	n/a	n/a	n/a	n/a	n/a	n/a	n/a	n/a	fixation
181523.26016199999	2750	n/a	1092	89	2750	131.739838	stim	stop-signal	90	212722	0.0-7.41-1.41	beast_fmri_test	269	210557,/,211237,/,211917,/,212597,/	t,t,t,t	<img class = center src='/static/experiments/beast_fmri_test/images/B.png'></img>	89,71	2750.0	test	<img class = center src='/static/experiments/beast_fmri_test/images/redB.png'></img>	go	2150.0	2.0	41.0	go	target	B	89,Yellow Button	71,Green Button	600.0	850.0	2150.0	1950.0	1.0	600.0	n/a	1.0	go_stim
184273.26016199999	131.73983799999999	n/a	1092	89	2750	131.739838	stim	stop-signal	90	212722	0.0-7.41-1.41	beast_fmri_test	269	210557,/,211237,/,211917,/,212597,/	t,t,t,t	<img class = center src='/static/experiments/beast_fmri_test/images/B.png'></img>	89,71	2750.0	test	<img class = center src='/static/experiments/beast_fmri_test/images/redB.png'></img>	go	2150.0	2.0	41.0	go	target	B	89,Yellow Button	71,Green Button	600.0	850.0	2150.0	1950.0	1.0	600.0	n/a	1.0	ITI
185045	500	n/a	-1	-1	500	0.0	fixation	poldrack-single-stim	91	213362	0.0-7.42-0.42	beast_fmri_test	269	213277,/	t	<div class = centerbox><div class = fixation>+</div></div>	none	500.0	test	n/a	n/a	n/a	n/a	n/a	n/a	n/a	n/a	n/a	n/a	n/a	n/a	n/a	n/a	n/a	n/a	n/a	n/a	fixation
180267.009796	2750	n/a	1325	89	2750	4778.990204	stim	stop-signal	92	216113	0.0-7.42-1.42	beast_fmri_test	269	213957,/,214637,/,215317,/,215997,/,216677,/,217357,/,218036,/,218717,/,219396,/,220077,/,220756,/	t,t,t,t,t,t,t,t,t,t,t	<img class = center src='/static/experiments/beast_fmri_test/images/B.png'></img>	89,71	2750.0	test	<img class = center src='/static/experiments/beast_fmri_test/images/redB.png'></img>	go	2150.0	2.0	42.0	go	target	B	89,Yellow Button	71,Green Button	600.0	850.0	2150.0	1950.0	1.0	600.0	n/a	1.0	go_stim
183017.009796	4778.9902039999997	n/a	1325	89	2750	4778.990204	stim	stop-signal	92	216113	0.0-7.42-1.42	beast_fmri_test	269	213957,/,214637,/,215317,/,215997,/,216677,/,217357,/,218036,/,218717,/,219396,/,220077,/,220756,/	t,t,t,t,t,t,t,t,t,t,t	<img class = center src='/static/experiments/beast_fmri_test/images/B.png'></img>	89,71	2750.0	test	<img class = center src='/static/experiments/beast_fmri_test/images/redB.png'></img>	go	2150.0	2.0	42.0	go	target	B	89,Yellow Button	71,Green Button	600.0	850.0	2150.0	1950.0	1.0	600.0	n/a	1.0	ITI
193080	500	n/a	-1	-1	500	0.0	fixation	poldrack-single-stim	93	221397	0.0-7.43-0.43	beast_fmri_test	269	n/a	n/a	<div class = centerbox><div class = fixation>+</div></div>	none	500.0	test	n/a	n/a	n/a	n/a	n/a	n/a	n/a	n/a	n/a	n/a	n/a	n/a	n/a	n/a	n/a	n/a	n/a	n/a	fixation
193018.11743017001	2750	n/a	1683	71	2750	62.88256983	stim	stop-signal	94	224148	0.0-7.43-1.43	beast_fmri_test	269	221437,/,222116,/,222798,/,223476,/,224156,/	t,t,t,t,t	<img class = center src='/static/experiments/beast_fmri_test/images/D.png'></img>	89,71	2750.0	test	<img class = center src='/static/experiments/beast_fmri_test/images/redD.png'></img>	go	1900.0	2.0	43.0	go	non-target	D	89,Yellow Button	71,Green Button	600.0	850.0	2150.0	1900.0	1.0	850.0	n/a	1.0	go_stim
195768.11743017001	62.882569830000001	n/a	1683	71	2750	62.88256983	stim	stop-signal	94	224148	0.0-7.43-1.43	beast_fmri_test	269	221437,/,222116,/,222798,/,223476,/,224156,/	t,t,t,t,t	<img class = center src='/static/experiments/beast_fmri_test/images/D.png'></img>	89,71	2750.0	test	<img class = center src='/static/experiments/beast_fmri_test/images/redD.png'></img>	go	1900.0	2.0	43.0	go	non-target	D	89,Yellow Button	71,Green Button	600.0	850.0	2150.0	1900.0	1.0	850.0	n/a	1.0	ITI
196398	500	n/a	-1	-1	500	0.0	fixation	poldrack-single-stim	95	224715	0.0-7.44-0.44	beast_fmri_test	269	n/a	n/a	<div class = centerbox><div class = fixation>+</div></div>	none	500.0	test	n/a	n/a	n/a	n/a	n/a	n/a	n/a	n/a	n/a	n/a	n/a	n/a	n/a	n/a	n/a	n/a	n/a	n/a	fixation
195601.74396719999	2750	n/a	1370	71	2750	798.2560328	stim	stop-signal	96	227467	0.0-7.44-1.44	beast_fmri_test	269	224836,/,225517,/,226196,/,226876,/,227556,/,228236,/	t,t,t,t,t,t	<img class = center src='/static/experiments/beast_fmri_test/images/T.png'></img>	89,71	2750.0	test	<img class = center src='/static/experiments/beast_fmri_test/images/redT.png'></img>	go	1900.0	2.0	44.0	go	non-target	T	89,Yellow Button	71,Green Button	600.0	850.0	2150.0	1900.0	1.0	850.0	n/a	1.0	go_stim
198351.74396719999	798.25603279999996	n/a	1370	71	2750	798.2560328	stim	stop-signal	96	227467	0.0-7.44-1.44	beast_fmri_test	269	224836,/,225517,/,226196,/,226876,/,227556,/,228236,/	t,t,t,t,t,t	<img class = center src='/static/experiments/beast_fmri_test/images/T.png'></img>	89,71	2750.0	test	<img class = center src='/static/experiments/beast_fmri_test/images/redT.png'></img>	go	1900.0	2.0	44.0	go	non-target	T	89,Yellow Button	71,Green Button	600.0	850.0	2150.0	1900.0	1.0	850.0	n/a	1.0	ITI
200456	500	n/a	-1	-1	500	0.0	fixation	poldrack-single-stim	97	228773	0.0-7.45-0.45	beast_fmri_test	269	n/a	n/a	<div class = centerbox><div class = fixation>+</div></div>	none	500.0	test	n/a	n/a	n/a	n/a	n/a	n/a	n/a	n/a	n/a	n/a	n/a	n/a	n/a	n/a	n/a	n/a	n/a	n/a	fixation
200414.01548144	850.0	n/a	927	71	2750	43.98451856	stim	stop-signal	98	231525	0.0-7.45-1.45	beast_fmri_test	269	228916,/,229597,/,230276,/,230956,/	t,t,t,t	<img class = center src='/static/experiments/beast_fmri_test/images/P.png'></img>	89,71	2750.0	test	<img class = center src='/static/experiments/beast_fmri_test/images/redP.png'></img>	stop	1900.0	2.0	45.0	stop	non-target	P	89,Yellow Button	71,Green Button	600.0	850.0	2150.0	1900.0	0.0	850.0	0.0	1.0	go_stim
202314.01548144	1900.0	n/a	927	71	2750	43.98451856	stim	stop-signal	98	231525	0.0-7.45-1.45	beast_fmri_test	269	228916,/,229597,/,230276,/,230956,/	t,t,t,t	<img class = center src='/static/experiments/beast_fmri_test/images/P.png'></img>	89,71	2750.0	test	<img class = center src='/static/experiments/beast_fmri_test/images/redP.png'></img>	stop	1900.0	2.0	45.0	stop	non-target	P	89,Yellow Button	71,Green Button	600.0	850.0	2150.0	1900.0	0.0	850.0	0.0	1.0	stop_stim
203164.01548144	43.984518559999998	n/a	927	71	2750	43.98451856	stim	stop-signal	98	231525	0.0-7.45-1.45	beast_fmri_test	269	228916,/,229597,/,230276,/,230956,/	t,t,t,t	<img class = center src='/static/experiments/beast_fmri_test/images/P.png'></img>	89,71	2750.0	test	<img class = center src='/static/experiments/beast_fmri_test/images/redP.png'></img>	stop	1900.0	2.0	45.0	stop	non-target	P	89,Yellow Button	71,Green Button	600.0	850.0	2150.0	1900.0	0.0	850.0	0.0	1.0	ITI
203757	500	n/a	-1	-1	500	0.0	fixation	poldrack-single-stim	99	232074	0.0-7.46-0.46	beast_fmri_test	269	231636,/	t	<div class = centerbox><div class = fixation>+</div></div>	none	500.0	test	n/a	n/a	n/a	n/a	n/a	n/a	n/a	n/a	n/a	n/a	n/a	n/a	n/a	n/a	n/a	n/a	n/a	n/a	fixation
203459.90649930001	600.0	n/a	-1	-1	2750	299.0935007	stim	stop-signal	100	234826	0.0-7.46-1.46	beast_fmri_test	269	232316,/,232997,/,233676,/,234356,/,235036,/	t,t,t,t,t	<img class = center src='/static/experiments/beast_fmri_test/images/T.png'></img>	89,71	2750.0	test	<img class = center src='/static/experiments/beast_fmri_test/images/redT.png'></img>	stop	2150.0	2.0	46.0	stop	target	T	89,Yellow Button	71,Green Button	600.0	800.0	2150.0	1900.0	0.0	600.0	1.0	0.0	go_stim
205609.90649930001	2150.0	n/a	-1	-1	2750	299.0935007	stim	stop-signal	100	234826	0.0-7.46-1.46	beast_fmri_test	269	232316,/,232997,/,233676,/,234356,/,235036,/	t,t,t,t,t	<img class = center src='/static/experiments/beast_fmri_test/images/T.png'></img>	89,71	2750.0	test	<img class = center src='/static/experiments/beast_fmri_test/images/redT.png'></img>	stop	2150.0	2.0	46.0	stop	target	T	89,Yellow Button	71,Green Button	600.0	800.0	2150.0	1900.0	0.0	600.0	1.0	0.0	stop_stim
206209.90649930001	299.09350069999999	n/a	-1	-1	2750	299.0935007	stim	stop-signal	100	234826	0.0-7.46-1.46	beast_fmri_test	269	232316,/,232997,/,233676,/,234356,/,235036,/	t,t,t,t,t	<img class = center src='/static/experiments/beast_fmri_test/images/T.png'></img>	89,71	2750.0	test	<img class = center src='/static/experiments/beast_fmri_test/images/redT.png'></img>	stop	2150.0	2.0	46.0	stop	target	T	89,Yellow Button	71,Green Button	600.0	800.0	2150.0	1900.0	0.0	600.0	1.0	0.0	ITI
221815	15000	n/a	-1	-1	15000	0.0	practice-no-stop-feedback	poldrack-single-stim	101	250132	0.0-8.0	beast_fmri_test	269	235716,/,236396,/,237076,/,237756,/,238436,/,239116,/,239796,/,240476,/,241157,/,241837,/,242517,/,243198,/,243877,/,244557,/,245237,/,245917,/,246597,/,247277,/,247957,/,248637,/,249317,/,249996,/	t,t,t,t,t,t,t,t,t,t,t,t,t,t,t,t,t,t,t,t,t,t	"<div class = ""centerbox""><p class = ""center-block-text"">Your delay is 3 trials.</p><p class = center-block-text>Please wait for the scanner to start the block</p></div>"	77	15000.0	n/a	n/a	n/a	n/a	n/a	n/a	n/a	n/a	n/a	n/a	n/a	n/a	n/a	n/a	n/a	n/a	n/a	n/a	n/a	practice-no-stop-feedback
222317	500	n/a	-1	-1	500	0.0	fixation	poldrack-single-stim	102	250634	0.0-9.0-0.0	beast_fmri_test	269	n/a	n/a	<div class = centerbox><div class = fixation>+</div></div>	none	500.0	test	n/a	n/a	n/a	n/a	n/a	n/a	n/a	n/a	n/a	n/a	n/a	n/a	n/a	n/a	n/a	n/a	n/a	n/a	fixation
220484.52147599999	2750	n/a	887	71	2750	1833.478524	stim	stop-signal	103	253385	0.0-9.0-1.0	beast_fmri_test	269	250677,/,251357,/,252037,/,252716,/,253397,/,254077,/,254756,/	t,t,t,t,t,t,t	<img class = center src='/static/experiments/beast_fmri_test/images/T.png'></img>	89,71	2750.0	test	<img class = center src='/static/experiments/beast_fmri_test/images/redT.png'></img>	go	-1.0	3.0	0.0	go	temp-non-target	T	89,Yellow Button	71,Green Button	650.0	800.0	2150.0	1900.0	0.0	n/a	n/a	n/a	go_stim
223234.52147599999	1833.4785239999999	n/a	887	71	2750	1833.478524	stim	stop-signal	103	253385	0.0-9.0-1.0	beast_fmri_test	269	250677,/,251357,/,252037,/,252716,/,253397,/,254077,/,254756,/	t,t,t,t,t,t,t	<img class = center src='/static/experiments/beast_fmri_test/images/T.png'></img>	89,71	2750.0	test	<img class = center src='/static/experiments/beast_fmri_test/images/redT.png'></img>	go	-1.0	3.0	0.0	go	temp-non-target	T	89,Yellow Button	71,Green Button	650.0	800.0	2150.0	1900.0	0.0	n/a	n/a	n/a	ITI
227409	500	n/a	-1	-1	500	0.0	fixation	poldrack-single-stim	104	255726	0.0-9.1-0.1	beast_fmri_test	269	255436,/	t	<div class = centerbox><div class = fixation>+</div></div>	none	500.0	test	n/a	n/a	n/a	n/a	n/a	n/a	n/a	n/a	n/a	n/a	n/a	n/a	n/a	n/a	n/a	n/a	n/a	n/a	fixation
226975.02924120001	temp_go_duration	n/a	1388	71	2750	436.9707588	stim	stop-signal	105	258479	0.0-9.1-1.1	beast_fmri_test	269	256117,/,256797,/,257476,/,258157,/,258836,/	t,t,t,t,t	<img class = center src='/static/experiments/beast_fmri_test/images/B.png'></img>	89,71	2750.0	test	<img class = center src='/static/experiments/beast_fmri_test/images/redB.png'></img>	stop	-1.0	3.0	1.0	stop	temp-non-target	B	89,Yellow Button	71,Green Button	650.0	800.0	2150.0	1900.0	0.0	n/a	0.0	n/a	go_stim
temp-non-target	temp_stop_duration	n/a	1388	71	2750	436.9707588	stim	stop-signal	105	258479	0.0-9.1-1.1	beast_fmri_test	269	256117,/,256797,/,257476,/,258157,/,258836,/	t,t,t,t,t	<img class = center src='/static/experiments/beast_fmri_test/images/B.png'></img>	89,71	2750.0	test	<img class = center src='/static/experiments/beast_fmri_test/images/redB.png'></img>	stop	-1.0	3.0	1.0	stop	temp-non-target	B	89,Yellow Button	71,Green Button	650.0	800.0	2150.0	1900.0	0.0	n/a	0.0	n/a	stop_stim
229725.02924120001	436.97075880000006	n/a	1388	71	2750	436.9707588	stim	stop-signal	105	258479	0.0-9.1-1.1	beast_fmri_test	269	256117,/,256797,/,257476,/,258157,/,258836,/	t,t,t,t,t	<img class = center src='/static/experiments/beast_fmri_test/images/B.png'></img>	89,71	2750.0	test	<img class = center src='/static/experiments/beast_fmri_test/images/redB.png'></img>	stop	-1.0	3.0	1.0	stop	temp-non-target	B	89,Yellow Button	71,Green Button	650.0	800.0	2150.0	1900.0	0.0	n/a	0.0	n/a	ITI
231104	500	n/a	-1	-1	500	0.0	fixation	poldrack-single-stim	106	259421	0.0-9.2-0.2	beast_fmri_test	269	n/a	n/a	<div class = centerbox><div class = fixation>+</div></div>	none	500.0	test	n/a	n/a	n/a	n/a	n/a	n/a	n/a	n/a	n/a	n/a	n/a	n/a	n/a	n/a	n/a	n/a	n/a	n/a	fixation
229927.016091	2750	n/a	1836	71	2750	1178.983909	stim	stop-signal	107	262173	0.0-9.2-1.2	beast_fmri_test	269	259516,/,260196,/,260876,/,261556,/,262236,/,262916,/	t,t,t,t,t,t	<img class = center src='/static/experiments/beast_fmri_test/images/T.png'></img>	89,71	2750.0	test	<img class = center src='/static/experiments/beast_fmri_test/images/redT.png'></img>	go	-1.0	3.0	2.0	go	temp-non-target	T	89,Yellow Button	71,Green Button	650.0	800.0	2150.0	1900.0	0.0	n/a	n/a	n/a	go_stim
232677.016091	1178.983909	n/a	1836	71	2750	1178.983909	stim	stop-signal	107	262173	0.0-9.2-1.2	beast_fmri_test	269	259516,/,260196,/,260876,/,261556,/,262236,/,262916,/	t,t,t,t,t,t	<img class = center src='/static/experiments/beast_fmri_test/images/T.png'></img>	89,71	2750.0	test	<img class = center src='/static/experiments/beast_fmri_test/images/redT.png'></img>	go	-1.0	3.0	2.0	go	temp-non-target	T	89,Yellow Button	71,Green Button	650.0	800.0	2150.0	1900.0	0.0	n/a	n/a	n/a	ITI
235541	500	n/a	-1	-1	500	0.0	fixation	poldrack-single-stim	108	263858	0.0-9.3-0.3	beast_fmri_test	269	263597,/	t	<div class = centerbox><div class = fixation>+</div></div>	none	500.0	test	n/a	n/a	n/a	n/a	n/a	n/a	n/a	n/a	n/a	n/a	n/a	n/a	n/a	n/a	n/a	n/a	n/a	n/a	fixation
235213.60055089998	800.0	n/a	1372	89	2750	328.3994491	stim	stop-signal	109	266609	0.0-9.3-1.3	beast_fmri_test	269	264276,/,264956,/,265636,/,266316,/	t,t,t,t	<img class = center src='/static/experiments/beast_fmri_test/images/D.png'></img>	89,71	2750.0	test	<img class = center src='/static/experiments/beast_fmri_test/images/redD.png'></img>	stop	1950.0	3.0	3.0	stop	non-target	D	89,Yellow Button	71,Green Button	650.0	800.0	2150.0	1950.0	0.0	800.0	0.0	0.0	go_stim
237163.60055089998	1950.0	n/a	1372	89	2750	328.3994491	stim	stop-signal	109	266609	0.0-9.3-1.3	beast_fmri_test	269	264276,/,264956,/,265636,/,266316,/	t,t,t,t	<img class = center src='/static/experiments/beast_fmri_test/images/D.png'></img>	89,71	2750.0	test	<img class = center src='/static/experiments/beast_fmri_test/images/redD.png'></img>	stop	1950.0	3.0	3.0	stop	non-target	D	89,Yellow Button	71,Green Button	650.0	800.0	2150.0	1950.0	0.0	800.0	0.0	0.0	stop_stim
237963.60055089998	328.39944910000003	n/a	1372	89	2750	328.3994491	stim	stop-signal	109	266609	0.0-9.3-1.3	beast_fmri_test	269	264276,/,264956,/,265636,/,266316,/	t,t,t,t	<img class = center src='/static/experiments/beast_fmri_test/images/D.png'></img>	89,71	2750.0	test	<img class = center src='/static/experiments/beast_fmri_test/images/redD.png'></img>	stop	1950.0	3.0	3.0	stop	non-target	D	89,Yellow Button	71,Green Button	650.0	800.0	2150.0	1950.0	0.0	800.0	0.0	0.0	ITI
239129	500	n/a	-1	-1	500	0.0	fixation	poldrack-single-stim	110	267446	0.0-9.4-0.4	beast_fmri_test	269	266996,/	t	<div class = centerbox><div class = fixation>+</div></div>	none	500.0	test	n/a	n/a	n/a	n/a	n/a	n/a	n/a	n/a	n/a	n/a	n/a	n/a	n/a	n/a	n/a	n/a	n/a	n/a	fixation
238519.96992559999	2750	n/a	1870	71	2750	611.0300744	stim	stop-signal	111	270198	0.0-9.4-1.4	beast_fmri_test	269	267676,/,268356,/,269036,/,269716,/,270396,/	t,t,t,t,t	<img class = center src='/static/experiments/beast_fmri_test/images/P.png'></img>	89,71	2750.0	test	<img class = center src='/static/experiments/beast_fmri_test/images/redP.png'></img>	go	2000.0	3.0	4.0	go	non-target	P	89,Yellow Button	71,Green Button	650.0	750.0	2150.0	2000.0	1.0	750.0	n/a	1.0	go_stim
241269.96992559999	611.03007439999999	n/a	1870	71	2750	611.0300744	stim	stop-signal	111	270198	0.0-9.4-1.4	beast_fmri_test	269	267676,/,268356,/,269036,/,269716,/,270396,/	t,t,t,t,t	<img class = center src='/static/experiments/beast_fmri_test/images/P.png'></img>	89,71	2750.0	test	<img class = center src='/static/experiments/beast_fmri_test/images/redP.png'></img>	go	2000.0	3.0	4.0	go	non-target	P	89,Yellow Button	71,Green Button	650.0	750.0	2150.0	2000.0	1.0	750.0	n/a	1.0	ITI
242999	500	n/a	-1	-1	500	0.0	fixation	poldrack-single-stim	112	271316	0.0-9.5-0.5	beast_fmri_test	269	271076,/	t	<div class = centerbox><div class = fixation>+</div></div>	none	500.0	test	n/a	n/a	n/a	n/a	n/a	n/a	n/a	n/a	n/a	n/a	n/a	n/a	n/a	n/a	n/a	n/a	n/a	n/a	fixation
242502.61338380002	2750	n/a	1622	71	2750	497.3866162	stim	stop-signal	113	274067	0.0-9.5-1.5	beast_fmri_test	269	271756,/,272436,/,273116,/,273797,/,274477,/	t,t,t,t,t	<img class = center src='/static/experiments/beast_fmri_test/images/P.png'></img>	89,71	2750.0	test	<img class = center src='/static/experiments/beast_fmri_test/images/redP.png'></img>	go	2000.0	3.0	5.0	go	non-target	P	89,Yellow Button	71,Green Button	650.0	750.0	2150.0	2000.0	1.0	750.0	n/a	1.0	go_stim
245252.61338380002	497.38661619999993	n/a	1622	71	2750	497.3866162	stim	stop-signal	113	274067	0.0-9.5-1.5	beast_fmri_test	269	271756,/,272436,/,273116,/,273797,/,274477,/	t,t,t,t,t	<img class = center src='/static/experiments/beast_fmri_test/images/P.png'></img>	89,71	2750.0	test	<img class = center src='/static/experiments/beast_fmri_test/images/redP.png'></img>	go	2000.0	3.0	5.0	go	non-target	P	89,Yellow Button	71,Green Button	650.0	750.0	2150.0	2000.0	1.0	750.0	n/a	1.0	ITI
246754	500	n/a	-1	-1	500	0.0	fixation	poldrack-single-stim	114	275071	0.0-9.6-0.6	beast_fmri_test	269	n/a	n/a	<div class = centerbox><div class = fixation>+</div></div>	none	500.0	test	n/a	n/a	n/a	n/a	n/a	n/a	n/a	n/a	n/a	n/a	n/a	n/a	n/a	n/a	n/a	n/a	n/a	n/a	fixation
246151.87125129998	2750	n/a	1845	71	2750	604.1287487	stim	stop-signal	115	277823	0.0-9.6-1.6	beast_fmri_test	269	275157,/,275837,/,276517,/,277197,/,277877,/	t,t,t,t,t	<img class = center src='/static/experiments/beast_fmri_test/images/D.png'></img>	89,71	2750.0	test	<img class = center src='/static/experiments/beast_fmri_test/images/redD.png'></img>	go	2100.0	3.0	6.0	go	target	D	89,Yellow Button	71,Green Button	650.0	750.0	2100.0	2000.0	0.0	650.0	n/a	0.0	go_stim
248901.87125129998	604.12874870000007	n/a	1845	71	2750	604.1287487	stim	stop-signal	115	277823	0.0-9.6-1.6	beast_fmri_test	269	275157,/,275837,/,276517,/,277197,/,277877,/	t,t,t,t,t	<img class = center src='/static/experiments/beast_fmri_test/images/D.png'></img>	89,71	2750.0	test	<img class = center src='/static/experiments/beast_fmri_test/images/redD.png'></img>	go	2100.0	3.0	6.0	go	target	D	89,Yellow Button	71,Green Button	650.0	750.0	2100.0	2000.0	0.0	650.0	n/a	0.0	ITI
250617	500	n/a	-1	-1	500	0.0	fixation	poldrack-single-stim	116	278934	0.0-9.7-0.7	beast_fmri_test	269	278557,/	t	<div class = centerbox><div class = fixation>+</div></div>	none	500.0	test	n/a	n/a	n/a	n/a	n/a	n/a	n/a	n/a	n/a	n/a	n/a	n/a	n/a	n/a	n/a	n/a	n/a	n/a	fixation
250345.17057299998	750.0	n/a	-1	-1	2750	273.829427	stim	stop-signal	117	281686	0.0-9.7-1.7	beast_fmri_test	269	279237,/,279917,/,280597,/,281277,/,281957,/	t,t,t,t,t	<img class = center src='/static/experiments/beast_fmri_test/images/D.png'></img>	89,71	2750.0	test	<img class = center src='/static/experiments/beast_fmri_test/images/redD.png'></img>	stop	2000.0	3.0	7.0	stop	non-target	D	89,Yellow Button	71,Green Button	650.0	750.0	2100.0	2000.0	0.0	750.0	1.0	0.0	go_stim
252345.17057299998	2000.0	n/a	-1	-1	2750	273.829427	stim	stop-signal	117	281686	0.0-9.7-1.7	beast_fmri_test	269	279237,/,279917,/,280597,/,281277,/,281957,/	t,t,t,t,t	<img class = center src='/static/experiments/beast_fmri_test/images/D.png'></img>	89,71	2750.0	test	<img class = center src='/static/experiments/beast_fmri_test/images/redD.png'></img>	stop	2000.0	3.0	7.0	stop	non-target	D	89,Yellow Button	71,Green Button	650.0	750.0	2100.0	2000.0	0.0	750.0	1.0	0.0	stop_stim
253095.17057299998	273.82942700000001	n/a	-1	-1	2750	273.829427	stim	stop-signal	117	281686	0.0-9.7-1.7	beast_fmri_test	269	279237,/,279917,/,280597,/,281277,/,281957,/	t,t,t,t,t	<img class = center src='/static/experiments/beast_fmri_test/images/D.png'></img>	89,71	2750.0	test	<img class = center src='/static/experiments/beast_fmri_test/images/redD.png'></img>	stop	2000.0	3.0	7.0	stop	non-target	D	89,Yellow Button	71,Green Button	650.0	750.0	2100.0	2000.0	0.0	750.0	1.0	0.0	ITI
254151	500	n/a	-1	-1	500	0.0	fixation	poldrack-single-stim	118	282468	0.0-9.8-0.8	beast_fmri_test	269	n/a	n/a	<div class = centerbox><div class = fixation>+</div></div>	none	500.0	test	n/a	n/a	n/a	n/a	n/a	n/a	n/a	n/a	n/a	n/a	n/a	n/a	n/a	n/a	n/a	n/a	n/a	n/a	fixation
253876.02382060001	800.0	n/a	1120	71	2750	275.9761794	stim	stop-signal	119	285219	0.0-9.8-1.8	beast_fmri_test	269	282637,/,283317,/,283997,/,284677,/,285356,/	t,t,t,t,t	<img class = center src='/static/experiments/beast_fmri_test/images/V.png'></img>	89,71	2750.0	test	<img class = center src='/static/experiments/beast_fmri_test/images/redV.png'></img>	stop	1950.0	3.0	8.0	stop	non-target	V	89,Yellow Button	71,Green Button	650.0	800.0	2100.0	1950.0	0.0	800.0	0.0	1.0	go_stim
255826.02382060001	1950.0	n/a	1120	71	2750	275.9761794	stim	stop-signal	119	285219	0.0-9.8-1.8	beast_fmri_test	269	282637,/,283317,/,283997,/,284677,/,285356,/	t,t,t,t,t	<img class = center src='/static/experiments/beast_fmri_test/images/V.png'></img>	89,71	2750.0	test	<img class = center src='/static/experiments/beast_fmri_test/images/redV.png'></img>	stop	1950.0	3.0	8.0	stop	non-target	V	89,Yellow Button	71,Green Button	650.0	800.0	2100.0	1950.0	0.0	800.0	0.0	1.0	stop_stim
256626.02382060001	275.97617939999998	n/a	1120	71	2750	275.9761794	stim	stop-signal	119	285219	0.0-9.8-1.8	beast_fmri_test	269	282637,/,283317,/,283997,/,284677,/,285356,/	t,t,t,t,t	<img class = center src='/static/experiments/beast_fmri_test/images/V.png'></img>	89,71	2750.0	test	<img class = center src='/static/experiments/beast_fmri_test/images/redV.png'></img>	stop	1950.0	3.0	8.0	stop	non-target	V	89,Yellow Button	71,Green Button	650.0	800.0	2100.0	1950.0	0.0	800.0	0.0	1.0	ITI
257684	500	n/a	-1	-1	500	0.0	fixation	poldrack-single-stim	120	286001	0.0-9.9-0.9	beast_fmri_test	269	n/a	n/a	<div class = centerbox><div class = fixation>+</div></div>	none	500.0	test	n/a	n/a	n/a	n/a	n/a	n/a	n/a	n/a	n/a	n/a	n/a	n/a	n/a	n/a	n/a	n/a	n/a	n/a	fixation
257367.41729989997	750.0	n/a	-1	-1	2750	318.5827001	stim	stop-signal	121	288753	0.0-9.9-1.9	beast_fmri_test	269	286036,/,286717,/,287397,/,288076,/,288756,/	t,t,t,t,t	<img class = center src='/static/experiments/beast_fmri_test/images/T.png'></img>	89,71	2750.0	test	<img class = center src='/static/experiments/beast_fmri_test/images/redT.png'></img>	stop	2000.0	3.0	9.0	stop	non-target	T	89,Yellow Button	71,Green Button	650.0	750.0	2100.0	2000.0	0.0	750.0	1.0	0.0	go_stim
259367.41729989997	2000.0	n/a	-1	-1	2750	318.5827001	stim	stop-signal	121	288753	0.0-9.9-1.9	beast_fmri_test	269	286036,/,286717,/,287397,/,288076,/,288756,/	t,t,t,t,t	<img class = center src='/static/experiments/beast_fmri_test/images/T.png'></img>	89,71	2750.0	test	<img class = center src='/static/experiments/beast_fmri_test/images/redT.png'></img>	stop	2000.0	3.0	9.0	stop	non-target	T	89,Yellow Button	71,Green Button	650.0	750.0	2100.0	2000.0	0.0	750.0	1.0	0.0	stop_stim
260117.41729989997	318.58270010000001	n/a	-1	-1	2750	318.5827001	stim	stop-signal	121	288753	0.0-9.9-1.9	beast_fmri_test	269	286036,/,286717,/,287397,/,288076,/,288756,/	t,t,t,t,t	<img class = center src='/static/experiments/beast_fmri_test/images/T.png'></img>	89,71	2750.0	test	<img class = center src='/static/experiments/beast_fmri_test/images/redT.png'></img>	stop	2000.0	3.0	9.0	stop	non-target	T	89,Yellow Button	71,Green Button	650.0	750.0	2100.0	2000.0	0.0	750.0	1.0	0.0	ITI
261259	500	n/a	-1	-1	500	0.0	fixation	poldrack-single-stim	122	289576	0.0-9.10-0.10	beast_fmri_test	269	289436,/	t	<div class = centerbox><div class = fixation>+</div></div>	none	500.0	test	n/a	n/a	n/a	n/a	n/a	n/a	n/a	n/a	n/a	n/a	n/a	n/a	n/a	n/a	n/a	n/a	n/a	n/a	fixation
261025.2389918	2750	n/a	1400	89	2750	235.7610082	stim	stop-signal	123	292328	0.0-9.10-1.10	beast_fmri_test	269	290117,/,290797,/,291476,/,292156,/	t,t,t,t	<img class = center src='/static/experiments/beast_fmri_test/images/T.png'></img>	89,71	2750.0	test	<img class = center src='/static/experiments/beast_fmri_test/images/redT.png'></img>	go	1950.0	3.0	10.0	go	non-target	T	89,Yellow Button	71,Green Button	650.0	800.0	2100.0	1950.0	0.0	800.0	n/a	0.0	go_stim
263775.2389918	235.76100819999999	n/a	1400	89	2750	235.7610082	stim	stop-signal	123	292328	0.0-9.10-1.10	beast_fmri_test	269	290117,/,290797,/,291476,/,292156,/	t,t,t,t	<img class = center src='/static/experiments/beast_fmri_test/images/T.png'></img>	89,71	2750.0	test	<img class = center src='/static/experiments/beast_fmri_test/images/redT.png'></img>	go	1950.0	3.0	10.0	go	non-target	T	89,Yellow Button	71,Green Button	650.0	800.0	2100.0	1950.0	0.0	800.0	n/a	0.0	ITI
264754	500	n/a	-1	-1	500	0.0	fixation	poldrack-single-stim	124	293071	0.0-9.11-0.11	beast_fmri_test	269	292836,/	t	<div class = centerbox><div class = fixation>+</div></div>	none	500.0	test	n/a	n/a	n/a	n/a	n/a	n/a	n/a	n/a	n/a	n/a	n/a	n/a	n/a	n/a	n/a	n/a	n/a	n/a	fixation
264422.1990586	2750	n/a	1799	71	2750	333.8009414	stim	stop-signal	125	295823	0.0-9.11-1.11	beast_fmri_test	269	293516,/,294198,/,294876,/,295556,/	t,t,t,t	<img class = center src='/static/experiments/beast_fmri_test/images/P.png'></img>	89,71	2750.0	test	<img class = center src='/static/experiments/beast_fmri_test/images/redP.png'></img>	go	1950.0	3.0	11.0	go	non-target	P	89,Yellow Button	71,Green Button	650.0	800.0	2100.0	1950.0	1.0	800.0	n/a	1.0	go_stim
267172.1990586	333.8009414	n/a	1799	71	2750	333.8009414	stim	stop-signal	125	295823	0.0-9.11-1.11	beast_fmri_test	269	293516,/,294198,/,294876,/,295556,/	t,t,t,t	<img class = center src='/static/experiments/beast_fmri_test/images/P.png'></img>	89,71	2750.0	test	<img class = center src='/static/experiments/beast_fmri_test/images/redP.png'></img>	go	1950.0	3.0	11.0	go	non-target	P	89,Yellow Button	71,Green Button	650.0	800.0	2100.0	1950.0	1.0	800.0	n/a	1.0	ITI
268348	500	n/a	-1	-1	500	0.0	fixation	poldrack-single-stim	126	296665	0.0-9.12-0.12	beast_fmri_test	269	296236,/	t	<div class = centerbox><div class = fixation>+</div></div>	none	500.0	test	n/a	n/a	n/a	n/a	n/a	n/a	n/a	n/a	n/a	n/a	n/a	n/a	n/a	n/a	n/a	n/a	n/a	n/a	fixation
268283.96400610998	2750	n/a	2094	89	2750	66.03599389	stim	stop-signal	127	299417	0.0-9.12-1.12	beast_fmri_test	269	296916,/,297596,/,298277,/,298956,/	t,t,t,t	<img class = center src='/static/experiments/beast_fmri_test/images/P.png'></img>	89,71	2750.0	test	<img class = center src='/static/experiments/beast_fmri_test/images/redP.png'></img>	go	1950.0	3.0	12.0	go	non-target	P	89,Yellow Button	71,Green Button	650.0	800.0	2100.0	1950.0	0.0	800.0	n/a	0.0	go_stim
271033.96400610998	66.03599389	n/a	2094	89	2750	66.03599389	stim	stop-signal	127	299417	0.0-9.12-1.12	beast_fmri_test	269	296916,/,297596,/,298277,/,298956,/	t,t,t,t	<img class = center src='/static/experiments/beast_fmri_test/images/P.png'></img>	89,71	2750.0	test	<img class = center src='/static/experiments/beast_fmri_test/images/redP.png'></img>	go	1950.0	3.0	12.0	go	non-target	P	89,Yellow Button	71,Green Button	650.0	800.0	2100.0	1950.0	0.0	800.0	n/a	0.0	ITI
271672	500	n/a	-1	-1	500	0.0	fixation	poldrack-single-stim	128	299989	0.0-9.13-0.13	beast_fmri_test	269	299636,/	t	<div class = centerbox><div class = fixation>+</div></div>	none	500.0	test	n/a	n/a	n/a	n/a	n/a	n/a	n/a	n/a	n/a	n/a	n/a	n/a	n/a	n/a	n/a	n/a	n/a	n/a	fixation
269855.805368	800.0	n/a	-1	-1	2750	1818.194632	stim	stop-signal	129	302741	0.0-9.13-1.13	beast_fmri_test	269	300316,/,300996,/,301676,/,302356,/,303036,/,303716,/,304396,/	t,t,t,t,t,t,t	<img class = center src='/static/experiments/beast_fmri_test/images/V.png'></img>	89,71	2750.0	test	<img class = center src='/static/experiments/beast_fmri_test/images/redV.png'></img>	stop	1950.0	3.0	13.0	stop	non-target	V	89,Yellow Button	71,Green Button	650.0	800.0	2100.0	1950.0	0.0	800.0	1.0	0.0	go_stim
271805.805368	1950.0	n/a	-1	-1	2750	1818.194632	stim	stop-signal	129	302741	0.0-9.13-1.13	beast_fmri_test	269	300316,/,300996,/,301676,/,302356,/,303036,/,303716,/,304396,/	t,t,t,t,t,t,t	<img class = center src='/static/experiments/beast_fmri_test/images/V.png'></img>	89,71	2750.0	test	<img class = center src='/static/experiments/beast_fmri_test/images/redV.png'></img>	stop	1950.0	3.0	13.0	stop	non-target	V	89,Yellow Button	71,Green Button	650.0	800.0	2100.0	1950.0	0.0	800.0	1.0	0.0	stop_stim
272605.805368	1818.194632	n/a	-1	-1	2750	1818.194632	stim	stop-signal	129	302741	0.0-9.13-1.13	beast_fmri_test	269	300316,/,300996,/,301676,/,302356,/,303036,/,303716,/,304396,/	t,t,t,t,t,t,t	<img class = center src='/static/experiments/beast_fmri_test/images/V.png'></img>	89,71	2750.0	test	<img class = center src='/static/experiments/beast_fmri_test/images/redV.png'></img>	stop	1950.0	3.0	13.0	stop	non-target	V	89,Yellow Button	71,Green Button	650.0	800.0	2100.0	1950.0	0.0	800.0	1.0	0.0	ITI
276749	500	n/a	-1	-1	500	0.0	fixation	poldrack-single-stim	130	305066	0.0-9.14-0.14	beast_fmri_test	269	n/a	n/a	<div class = centerbox><div class = fixation>+</div></div>	none	500.0	test	n/a	n/a	n/a	n/a	n/a	n/a	n/a	n/a	n/a	n/a	n/a	n/a	n/a	n/a	n/a	n/a	n/a	n/a	fixation
276057.12278139999	850.0	n/a	-1	-1	2750	693.8772186	stim	stop-signal	131	307818	0.0-9.14-1.14	beast_fmri_test	269	305076,/,305756,/,306436,/,307117,/,307797,/,308477,/	t,t,t,t,t,t	<img class = center src='/static/experiments/beast_fmri_test/images/B.png'></img>	89,71	2750.0	test	<img class = center src='/static/experiments/beast_fmri_test/images/redB.png'></img>	stop	1900.0	3.0	14.0	stop	non-target	B	89,Yellow Button	71,Green Button	650.0	850.0	2100.0	1900.0	0.0	850.0	1.0	0.0	go_stim
277957.12278139999	1900.0	n/a	-1	-1	2750	693.8772186	stim	stop-signal	131	307818	0.0-9.14-1.14	beast_fmri_test	269	305076,/,305756,/,306436,/,307117,/,307797,/,308477,/	t,t,t,t,t,t	<img class = center src='/static/experiments/beast_fmri_test/images/B.png'></img>	89,71	2750.0	test	<img class = center src='/static/experiments/beast_fmri_test/images/redB.png'></img>	stop	1900.0	3.0	14.0	stop	non-target	B	89,Yellow Button	71,Green Button	650.0	850.0	2100.0	1900.0	0.0	850.0	1.0	0.0	stop_stim
278807.12278139999	693.87721860000011	n/a	-1	-1	2750	693.8772186	stim	stop-signal	131	307818	0.0-9.14-1.14	beast_fmri_test	269	305076,/,305756,/,306436,/,307117,/,307797,/,308477,/	t,t,t,t,t,t	<img class = center src='/static/experiments/beast_fmri_test/images/B.png'></img>	89,71	2750.0	test	<img class = center src='/static/experiments/beast_fmri_test/images/redB.png'></img>	stop	1900.0	3.0	14.0	stop	non-target	B	89,Yellow Button	71,Green Button	650.0	850.0	2100.0	1900.0	0.0	850.0	1.0	0.0	ITI
280702	500	n/a	-1	-1	500	0.0	fixation	poldrack-single-stim	132	309019	0.0-9.15-0.15	beast_fmri_test	269	n/a	n/a	<div class = centerbox><div class = fixation>+</div></div>	none	500.0	test	n/a	n/a	n/a	n/a	n/a	n/a	n/a	n/a	n/a	n/a	n/a	n/a	n/a	n/a	n/a	n/a	n/a	n/a	fixation
280578.0478607	650.0	n/a	-1	-1	2750	125.9521393	stim	stop-signal	133	311771	0.0-9.15-1.15	beast_fmri_test	269	309157,/,309837,/,310517,/,311197,/,311877,/	t,t,t,t,t	<img class = center src='/static/experiments/beast_fmri_test/images/P.png'></img>	89,71	2750.0	test	<img class = center src='/static/experiments/beast_fmri_test/images/redP.png'></img>	stop	2100.0	3.0	15.0	stop	target	P	89,Yellow Button	71,Green Button	650.0	900.0	2100.0	1900.0	0.0	650.0	1.0	0.0	go_stim
282678.0478607	2100.0	n/a	-1	-1	2750	125.9521393	stim	stop-signal	133	311771	0.0-9.15-1.15	beast_fmri_test	269	309157,/,309837,/,310517,/,311197,/,311877,/	t,t,t,t,t	<img class = center src='/static/experiments/beast_fmri_test/images/P.png'></img>	89,71	2750.0	test	<img class = center src='/static/experiments/beast_fmri_test/images/redP.png'></img>	stop	2100.0	3.0	15.0	stop	target	P	89,Yellow Button	71,Green Button	650.0	900.0	2100.0	1900.0	0.0	650.0	1.0	0.0	stop_stim
283328.0478607	125.9521393	n/a	-1	-1	2750	125.9521393	stim	stop-signal	133	311771	0.0-9.15-1.15	beast_fmri_test	269	309157,/,309837,/,310517,/,311197,/,311877,/	t,t,t,t,t	<img class = center src='/static/experiments/beast_fmri_test/images/P.png'></img>	89,71	2750.0	test	<img class = center src='/static/experiments/beast_fmri_test/images/redP.png'></img>	stop	2100.0	3.0	15.0	stop	target	P	89,Yellow Button	71,Green Button	650.0	900.0	2100.0	1900.0	0.0	650.0	1.0	0.0	ITI
284085	500	n/a	-1	-1	500	0.0	fixation	poldrack-single-stim	134	312402	0.0-9.16-0.16	beast_fmri_test	269	n/a	n/a	<div class = centerbox><div class = fixation>+</div></div>	none	500.0	test	n/a	n/a	n/a	n/a	n/a	n/a	n/a	n/a	n/a	n/a	n/a	n/a	n/a	n/a	n/a	n/a	n/a	n/a	fixation
282287.446796	2750	n/a	1816	89	2750	1799.553204	stim	stop-signal	135	315154	0.0-9.16-1.16	beast_fmri_test	269	312557,/,313237,/,313917,/,314598,/,315277,/,315957,/,316636,/	t,t,t,t,t,t,t	<img class = center src='/static/experiments/beast_fmri_test/images/P.png'></img>	89,71	2750.0	test	<img class = center src='/static/experiments/beast_fmri_test/images/redP.png'></img>	go	1850.0	3.0	16.0	go	non-target	P	89,Yellow Button	71,Green Button	700.0	900.0	2100.0	1850.0	0.0	900.0	n/a	0.0	go_stim
285037.446796	1799.5532039999998	n/a	1816	89	2750	1799.553204	stim	stop-signal	135	315154	0.0-9.16-1.16	beast_fmri_test	269	312557,/,313237,/,313917,/,314598,/,315277,/,315957,/,316636,/	t,t,t,t,t,t,t	<img class = center src='/static/experiments/beast_fmri_test/images/P.png'></img>	89,71	2750.0	test	<img class = center src='/static/experiments/beast_fmri_test/images/redP.png'></img>	go	1850.0	3.0	16.0	go	non-target	P	89,Yellow Button	71,Green Button	700.0	900.0	2100.0	1850.0	0.0	900.0	n/a	0.0	ITI
289144	500	n/a	-1	-1	500	0.0	fixation	poldrack-single-stim	136	317461	0.0-9.17-0.17	beast_fmri_test	269	317316,/	t	<div class = centerbox><div class = fixation>+</div></div>	none	500.0	test	n/a	n/a	n/a	n/a	n/a	n/a	n/a	n/a	n/a	n/a	n/a	n/a	n/a	n/a	n/a	n/a	n/a	n/a	fixation
288422.5013452	2750	n/a	1344	71	2750	723.4986548	stim	stop-signal	137	320213	0.0-9.17-1.17	beast_fmri_test	269	317997,/,318677,/,319356,/,320036,/,320717,/	t,t,t,t,t	<img class = center src='/static/experiments/beast_fmri_test/images/P.png'></img>	89,71	2750.0	test	<img class = center src='/static/experiments/beast_fmri_test/images/redP.png'></img>	go	1850.0	3.0	17.0	go	non-target	P	89,Yellow Button	71,Green Button	700.0	900.0	2100.0	1850.0	1.0	900.0	n/a	1.0	go_stim
291172.5013452	723.49865479999994	n/a	1344	71	2750	723.4986548	stim	stop-signal	137	320213	0.0-9.17-1.17	beast_fmri_test	269	317997,/,318677,/,319356,/,320036,/,320717,/	t,t,t,t,t	<img class = center src='/static/experiments/beast_fmri_test/images/P.png'></img>	89,71	2750.0	test	<img class = center src='/static/experiments/beast_fmri_test/images/redP.png'></img>	go	1850.0	3.0	17.0	go	non-target	P	89,Yellow Button	71,Green Button	700.0	900.0	2100.0	1850.0	1.0	900.0	n/a	1.0	ITI
293128	500	n/a	-1	-1	500	0.0	fixation	poldrack-single-stim	138	321445	0.0-9.18-0.18	beast_fmri_test	269	321396,/	t	<div class = centerbox><div class = fixation>+</div></div>	none	500.0	test	n/a	n/a	n/a	n/a	n/a	n/a	n/a	n/a	n/a	n/a	n/a	n/a	n/a	n/a	n/a	n/a	n/a	n/a	fixation
292534.06092710001	2750	n/a	1820	71	2750	594.9390729	stim	stop-signal	139	324196	0.0-9.18-1.18	beast_fmri_test	269	322077,/,322757,/,323436,/,324116,/	t,t,t,t	<img class = center src='/static/experiments/beast_fmri_test/images/P.png'></img>	89,71	2750.0	test	<img class = center src='/static/experiments/beast_fmri_test/images/redP.png'></img>	go	2050.0	3.0	18.0	go	target	P	89,Yellow Button	71,Green Button	700.0	900.0	2050.0	1850.0	0.0	700.0	n/a	0.0	go_stim
295284.06092710001	594.93907289999993	n/a	1820	71	2750	594.9390729	stim	stop-signal	139	324196	0.0-9.18-1.18	beast_fmri_test	269	322077,/,322757,/,323436,/,324116,/	t,t,t,t	<img class = center src='/static/experiments/beast_fmri_test/images/P.png'></img>	89,71	2750.0	test	<img class = center src='/static/experiments/beast_fmri_test/images/redP.png'></img>	go	2050.0	3.0	18.0	go	target	P	89,Yellow Button	71,Green Button	700.0	900.0	2050.0	1850.0	0.0	700.0	n/a	0.0	ITI
296981	500	n/a	-1	-1	500	0.0	fixation	poldrack-single-stim	140	325298	0.0-9.19-0.19	beast_fmri_test	269	324798,/	t	<div class = centerbox><div class = fixation>+</div></div>	none	500.0	test	n/a	n/a	n/a	n/a	n/a	n/a	n/a	n/a	n/a	n/a	n/a	n/a	n/a	n/a	n/a	n/a	n/a	n/a	fixation
296150.185436	2750	n/a	1816	71	2750	832.814564	stim	stop-signal	141	328050	0.0-9.19-1.19	beast_fmri_test	269	325476,/,326156,/,326836,/,327516,/,328196,/,328876,/	t,t,t,t,t,t	<img class = center src='/static/experiments/beast_fmri_test/images/T.png'></img>	89,71	2750.0	test	<img class = center src='/static/experiments/beast_fmri_test/images/redT.png'></img>	go	1850.0	3.0	19.0	go	non-target	T	89,Yellow Button	71,Green Button	700.0	900.0	2050.0	1850.0	1.0	900.0	n/a	1.0	go_stim
298900.185436	832.81456400000002	n/a	1816	71	2750	832.814564	stim	stop-signal	141	328050	0.0-9.19-1.19	beast_fmri_test	269	325476,/,326156,/,326836,/,327516,/,328196,/,328876,/	t,t,t,t,t,t	<img class = center src='/static/experiments/beast_fmri_test/images/T.png'></img>	89,71	2750.0	test	<img class = center src='/static/experiments/beast_fmri_test/images/redT.png'></img>	go	1850.0	3.0	19.0	go	non-target	T	89,Yellow Button	71,Green Button	700.0	900.0	2050.0	1850.0	1.0	900.0	n/a	1.0	ITI
301074	500	n/a	-1	-1	500	0.0	fixation	poldrack-single-stim	142	329391	0.0-9.20-0.20	beast_fmri_test	269	n/a	n/a	<div class = centerbox><div class = fixation>+</div></div>	none	500.0	test	n/a	n/a	n/a	n/a	n/a	n/a	n/a	n/a	n/a	n/a	n/a	n/a	n/a	n/a	n/a	n/a	n/a	n/a	fixation
300838.8527475	2750	n/a	978	89	2750	237.1472525	stim	stop-signal	143	332143	0.0-9.20-1.20	beast_fmri_test	269	329557,/,330236,/,330916,/,331596,/,332276,/	t,t,t,t,t	<img class = center src='/static/experiments/beast_fmri_test/images/P.png'></img>	89,71	2750.0	test	<img class = center src='/static/experiments/beast_fmri_test/images/redP.png'></img>	go	2050.0	3.0	20.0	go	target	P	89,Yellow Button	71,Green Button	700.0	900.0	2050.0	1850.0	1.0	700.0	n/a	1.0	go_stim
303588.8527475	237.14725249999998	n/a	978	89	2750	237.1472525	stim	stop-signal	143	332143	0.0-9.20-1.20	beast_fmri_test	269	329557,/,330236,/,330916,/,331596,/,332276,/	t,t,t,t,t	<img class = center src='/static/experiments/beast_fmri_test/images/P.png'></img>	89,71	2750.0	test	<img class = center src='/static/experiments/beast_fmri_test/images/redP.png'></img>	go	2050.0	3.0	20.0	go	target	P	89,Yellow Button	71,Green Button	700.0	900.0	2050.0	1850.0	1.0	700.0	n/a	1.0	ITI
304571	500	n/a	-1	-1	500	0.0	fixation	poldrack-single-stim	144	332888	0.0-9.21-0.21	beast_fmri_test	269	n/a	n/a	<div class = centerbox><div class = fixation>+</div></div>	none	500.0	test	n/a	n/a	n/a	n/a	n/a	n/a	n/a	n/a	n/a	n/a	n/a	n/a	n/a	n/a	n/a	n/a	n/a	n/a	fixation
303803.44366410002	2750	n/a	1285	71	2750	769.5563359	stim	stop-signal	145	335640	0.0-9.21-1.21	beast_fmri_test	269	332956,/,333637,/,334316,/,334997,/,335676,/,336356,/	t,t,t,t,t,t	<img class = center src='/static/experiments/beast_fmri_test/images/V.png'></img>	89,71	2750.0	test	<img class = center src='/static/experiments/beast_fmri_test/images/redV.png'></img>	go	1850.0	3.0	21.0	go	non-target	V	89,Yellow Button	71,Green Button	700.0	900.0	2050.0	1850.0	1.0	900.0	n/a	1.0	go_stim
306553.44366410002	769.55633590000002	n/a	1285	71	2750	769.5563359	stim	stop-signal	145	335640	0.0-9.21-1.21	beast_fmri_test	269	332956,/,333637,/,334316,/,334997,/,335676,/,336356,/	t,t,t,t,t,t	<img class = center src='/static/experiments/beast_fmri_test/images/V.png'></img>	89,71	2750.0	test	<img class = center src='/static/experiments/beast_fmri_test/images/redV.png'></img>	go	1850.0	3.0	21.0	go	non-target	V	89,Yellow Button	71,Green Button	700.0	900.0	2050.0	1850.0	1.0	900.0	n/a	1.0	ITI
308600	500	n/a	-1	-1	500	0.0	fixation	poldrack-single-stim	146	336917	0.0-9.22-0.22	beast_fmri_test	269	n/a	n/a	<div class = centerbox><div class = fixation>+</div></div>	none	500.0	test	n/a	n/a	n/a	n/a	n/a	n/a	n/a	n/a	n/a	n/a	n/a	n/a	n/a	n/a	n/a	n/a	n/a	n/a	fixation
306593.92536300002	2750	n/a	1586	71	2750	2008.074637	stim	stop-signal	147	339669	0.0-9.22-1.22	beast_fmri_test	269	337036,/,337716,/,338396,/,339076,/,339756,/,340436,/,341116,/	t,t,t,t,t,t,t	<img class = center src='/static/experiments/beast_fmri_test/images/D.png'></img>	89,71	2750.0	test	<img class = center src='/static/experiments/beast_fmri_test/images/redD.png'></img>	go	1850.0	3.0	22.0	go	non-target	D	89,Yellow Button	71,Green Button	700.0	900.0	2050.0	1850.0	1.0	900.0	n/a	1.0	go_stim
309343.92536300002	2008.0746370000002	n/a	1586	71	2750	2008.074637	stim	stop-signal	147	339669	0.0-9.22-1.22	beast_fmri_test	269	337036,/,337716,/,338396,/,339076,/,339756,/,340436,/,341116,/	t,t,t,t,t,t,t	<img class = center src='/static/experiments/beast_fmri_test/images/D.png'></img>	89,71	2750.0	test	<img class = center src='/static/experiments/beast_fmri_test/images/redD.png'></img>	go	1850.0	3.0	22.0	go	non-target	D	89,Yellow Button	71,Green Button	700.0	900.0	2050.0	1850.0	1.0	900.0	n/a	1.0	ITI
313868	500	n/a	-1	-1	500	0.0	fixation	poldrack-single-stim	148	342185	0.0-9.23-0.23	beast_fmri_test	269	341797,/	t	<div class = centerbox><div class = fixation>+</div></div>	none	500.0	test	n/a	n/a	n/a	n/a	n/a	n/a	n/a	n/a	n/a	n/a	n/a	n/a	n/a	n/a	n/a	n/a	n/a	n/a	fixation
312471.47792899999	2750	n/a	1497	89	2750	1397.522071	stim	stop-signal	149	344936	0.0-9.23-1.23	beast_fmri_test	269	342477,/,343157,/,343837,/,344517,/,345197,/,345877,/	t,t,t,t,t,t	<img class = center src='/static/experiments/beast_fmri_test/images/T.png'></img>	89,71	2750.0	test	<img class = center src='/static/experiments/beast_fmri_test/images/redT.png'></img>	go	1850.0	3.0	23.0	go	non-target	T	89,Yellow Button	71,Green Button	700.0	900.0	2050.0	1850.0	0.0	900.0	n/a	0.0	go_stim
315221.47792899999	1397.5220710000001	n/a	1497	89	2750	1397.522071	stim	stop-signal	149	344936	0.0-9.23-1.23	beast_fmri_test	269	342477,/,343157,/,343837,/,344517,/,345197,/,345877,/	t,t,t,t,t,t	<img class = center src='/static/experiments/beast_fmri_test/images/T.png'></img>	89,71	2750.0	test	<img class = center src='/static/experiments/beast_fmri_test/images/redT.png'></img>	go	1850.0	3.0	23.0	go	non-target	T	89,Yellow Button	71,Green Button	700.0	900.0	2050.0	1850.0	0.0	900.0	n/a	0.0	ITI
318525	500	n/a	-1	-1	500	0.0	fixation	poldrack-single-stim	150	346842	0.0-9.24-0.24	beast_fmri_test	269	346557,/	t	<div class = centerbox><div class = fixation>+</div></div>	none	500.0	test	n/a	n/a	n/a	n/a	n/a	n/a	n/a	n/a	n/a	n/a	n/a	n/a	n/a	n/a	n/a	n/a	n/a	n/a	fixation
