onset	duration	text	rt	key_press	block_duration	timing_post_trial	trial_id	trial_type	trial_index	time_elapsed	internal_node_id	exp_id	subject_id	trigger_times	triggers	stimulus	possible_responses	stim_duration	exp_stage	SS_stimulus	SS_trial_type	SS_duration	load	trial_num	stop_trial_type	adaptive_trial_type	stim	yes_response_key	no_response_key	SSD_target	SSD_non_target	SSTarget	SSNonTarget	go_acc	stop_acc	SS_delay	adaptive_acc	new_trial_type
test	10880	n/a	-1	-1	10880	0.0	practice-no-stop-feedback	poldrack-single-stim	6	89938	0.0-6.0	beast_fmri_test	393	79060,/,79739,/,80420,/,81100,/,81779,/,82457,/,83135,/,83815,/,84494,/,85175,/,85855,/,86535,/,87215,/,87895,/,88575,/,89255,/,89935,/	t,t,t,t,t,t,t,t,t,t,t,t,t,t,t,t,t	"<div class = ""centerbox2_2""><p class = ""block-text2"">Your delay is 2 trials.</p><p class = block-text2>Please wait for the scanner to start the block</p></div>"	77	10880.0	n/a	n/a	n/a	n/a	n/a	n/a	n/a	n/a	n/a	n/a	n/a	n/a	n/a	n/a	n/a	n/a	n/a	n/a	n/a	start_functional_block
11382	500	n/a	-1	-1	500	0.0	fixation	poldrack-single-stim	7	90442	0.0-7.0-0.0	beast_fmri_test	393	n/a	n/a	<div class = centerbox2><div class = fixation>+</div></div>	none	500.0	test	n/a	n/a	n/a	n/a	n/a	n/a	n/a	n/a	n/a	n/a	n/a	n/a	n/a	n/a	n/a	n/a	n/a	n/a	fixation
10090.709178848178	2750	n/a	498	71	2750	1292.29082115	stim	stop-signal	8	93193	0.0-7.0-1.0	beast_fmri_test	393	90615,/,91294,/,91973,/,92651,/,93330,/,94009,/	t,t,t,t,t,t	<img class = center src='/static/experiments/beast_fmri_test/images/P.png'></img>	89,71	2750.0	test	<img class = center src='/static/experiments/beast_fmri_test/images/redP.png'></img>	go	-1.0	2.0	0.0	go	temp-non-target	P	89,Middle Finger	71,Index Finger	500.0	500.0	0.0	0.0	0.0	n/a	n/a	n/a	go_stim
12840.709178848178	1292.2908211518206	n/a	498	71	2750	1292.29082115	stim	stop-signal	8	93193	0.0-7.0-1.0	beast_fmri_test	393	90615,/,91294,/,91973,/,92651,/,93330,/,94009,/	t,t,t,t,t,t	<img class = center src='/static/experiments/beast_fmri_test/images/P.png'></img>	89,71	2750.0	test	<img class = center src='/static/experiments/beast_fmri_test/images/redP.png'></img>	go	-1.0	2.0	0.0	go	temp-non-target	P	89,Middle Finger	71,Index Finger	500.0	500.0	0.0	0.0	0.0	n/a	n/a	n/a	ITI
15936	500	n/a	-1	-1	500	0.0	fixation	poldrack-single-stim	9	94996	0.0-7.1-0.1	beast_fmri_test	393	94690,/	t	<div class = centerbox2><div class = fixation>+</div></div>	none	500.0	test	n/a	n/a	n/a	n/a	n/a	n/a	n/a	n/a	n/a	n/a	n/a	n/a	n/a	n/a	n/a	n/a	n/a	n/a	fixation
10941.0	temp_go_duration	n/a	800	71	2750	5000.0	stim	stop-signal	10	97751	0.0-7.1-1.1	beast_fmri_test	393	95369,/,96049,/,96730,/,97409,/,98090,/,98769,/,99449,/,100129,/,100809,/,101489,/,102167,/	t,t,t,t,t,t,t,t,t,t,t	<img class = center src='/static/experiments/beast_fmri_test/images/D.png'></img>	89,71	2750.0	test	<img class = center src='/static/experiments/beast_fmri_test/images/redD.png'></img>	stop	-1.0	2.0	1.0	stop	temp-non-target	D	89,Middle Finger	71,Index Finger	500.0	500.0	0.0	0.0	0.0	0.0	n/a	n/a	go_stim
temp-non-target	temp_stop_duration	n/a	800	71	2750	5000.0	stim	stop-signal	10	97751	0.0-7.1-1.1	beast_fmri_test	393	95369,/,96049,/,96730,/,97409,/,98090,/,98769,/,99449,/,100129,/,100809,/,101489,/,102167,/	t,t,t,t,t,t,t,t,t,t,t	<img class = center src='/static/experiments/beast_fmri_test/images/D.png'></img>	89,71	2750.0	test	<img class = center src='/static/experiments/beast_fmri_test/images/redD.png'></img>	stop	-1.0	2.0	1.0	stop	temp-non-target	D	89,Middle Finger	71,Index Finger	500.0	500.0	0.0	0.0	0.0	0.0	n/a	n/a	stop_stim
13691.0	5000.0	n/a	800	71	2750	5000.0	stim	stop-signal	10	97751	0.0-7.1-1.1	beast_fmri_test	393	95369,/,96049,/,96730,/,97409,/,98090,/,98769,/,99449,/,100129,/,100809,/,101489,/,102167,/	t,t,t,t,t,t,t,t,t,t,t	<img class = center src='/static/experiments/beast_fmri_test/images/D.png'></img>	89,71	2750.0	test	<img class = center src='/static/experiments/beast_fmri_test/images/redD.png'></img>	stop	-1.0	2.0	1.0	stop	temp-non-target	D	89,Middle Finger	71,Index Finger	500.0	500.0	0.0	0.0	0.0	0.0	n/a	n/a	ITI
24192	500	n/a	-1	-1	500	0.0	fixation	poldrack-single-stim	11	103252	0.0-7.2-0.2	beast_fmri_test	393	102845,/	t	<div class = centerbox2><div class = fixation>+</div></div>	none	500.0	test	n/a	n/a	n/a	n/a	n/a	n/a	n/a	n/a	n/a	n/a	n/a	n/a	n/a	n/a	n/a	n/a	n/a	n/a	fixation
23500.05238923752	2750	n/a	765	71	2750	696.947610762	stim	stop-signal	12	106007	0.0-7.2-1.2	beast_fmri_test	393	103525,/,104204,/,104884,/,105564,/,106245,/	t,t,t,t,t	<img class = center src='/static/experiments/beast_fmri_test/images/B.png'></img>	89,71	2750.0	test	<img class = center src='/static/experiments/beast_fmri_test/images/redB.png'></img>	go	2250.0	2.0	2.0	go	non-target	B	89,Middle Finger	71,Index Finger	500.0	500.0	0.0	2250.0	1.0	n/a	500.0	1.0	go_stim
26250.05238923752	696.94761076247846	n/a	765	71	2750	696.947610762	stim	stop-signal	12	106007	0.0-7.2-1.2	beast_fmri_test	393	103525,/,104204,/,104884,/,105564,/,106245,/	t,t,t,t,t	<img class = center src='/static/experiments/beast_fmri_test/images/B.png'></img>	89,71	2750.0	test	<img class = center src='/static/experiments/beast_fmri_test/images/redB.png'></img>	go	2250.0	2.0	2.0	go	non-target	B	89,Middle Finger	71,Index Finger	500.0	500.0	0.0	2250.0	1.0	n/a	500.0	1.0	ITI
28151	500	n/a	-1	-1	500	0.0	fixation	poldrack-single-stim	13	107211	0.0-7.3-0.3	beast_fmri_test	393	106926,/	t	<div class = centerbox2><div class = fixation>+</div></div>	none	500.0	test	n/a	n/a	n/a	n/a	n/a	n/a	n/a	n/a	n/a	n/a	n/a	n/a	n/a	n/a	n/a	n/a	n/a	n/a	fixation
27852.662645824486	500.0	n/a	835	89	2750	301.337354176	stim	stop-signal	14	109964	0.0-7.3-1.3	beast_fmri_test	393	107606,/,108285,/,108965,/,109645,/	t,t,t,t	<img class = center src='/static/experiments/beast_fmri_test/images/D.png'></img>	89,71	2750.0	test	<img class = center src='/static/experiments/beast_fmri_test/images/redD.png'></img>	stop	2250.0	2.0	3.0	stop	target	D	89,Middle Finger	71,Index Finger	500.0	500.0	2250.0	2250.0	0.0	0.0	500.0	n/a	go_stim
30102.662645824486	2250.0	n/a	835	89	2750	301.337354176	stim	stop-signal	14	109964	0.0-7.3-1.3	beast_fmri_test	393	107606,/,108285,/,108965,/,109645,/	t,t,t,t	<img class = center src='/static/experiments/beast_fmri_test/images/D.png'></img>	89,71	2750.0	test	<img class = center src='/static/experiments/beast_fmri_test/images/redD.png'></img>	stop	2250.0	2.0	3.0	stop	target	D	89,Middle Finger	71,Index Finger	500.0	500.0	2250.0	2250.0	0.0	0.0	500.0	n/a	stop_stim
30602.662645824486	301.33735417552049	n/a	835	89	2750	301.337354176	stim	stop-signal	14	109964	0.0-7.3-1.3	beast_fmri_test	393	107606,/,108285,/,108965,/,109645,/	t,t,t,t	<img class = center src='/static/experiments/beast_fmri_test/images/D.png'></img>	89,71	2750.0	test	<img class = center src='/static/experiments/beast_fmri_test/images/redD.png'></img>	stop	2250.0	2.0	3.0	stop	target	D	89,Middle Finger	71,Index Finger	500.0	500.0	2250.0	2250.0	0.0	0.0	500.0	n/a	ITI
31712	500	n/a	-1	-1	500	0.0	fixation	poldrack-single-stim	15	110772	0.0-7.4-0.4	beast_fmri_test	393	110325,/	t	<div class = centerbox2><div class = fixation>+</div></div>	none	500.0	test	n/a	n/a	n/a	n/a	n/a	n/a	n/a	n/a	n/a	n/a	n/a	n/a	n/a	n/a	n/a	n/a	n/a	n/a	fixation
29711.204287172193	450.0	n/a	-1	-1	2750	2004.79571283	stim	stop-signal	16	113526	0.0-7.4-1.4	beast_fmri_test	393	111005,/,111686,/,112366,/,113045,/,113725,/,114405,/,115085,/	t,t,t,t,t,t,t	<img class = center src='/static/experiments/beast_fmri_test/images/B.png'></img>	89,71	2750.0	test	<img class = center src='/static/experiments/beast_fmri_test/images/redB.png'></img>	stop	2300.0	2.0	4.0	stop	target	B	89,Middle Finger	71,Index Finger	450.0	500.0	2300.0	2250.0	0.0	1.0	450.0	n/a	go_stim
32011.204287172193	2300.0	n/a	-1	-1	2750	2004.79571283	stim	stop-signal	16	113526	0.0-7.4-1.4	beast_fmri_test	393	111005,/,111686,/,112366,/,113045,/,113725,/,114405,/,115085,/	t,t,t,t,t,t,t	<img class = center src='/static/experiments/beast_fmri_test/images/B.png'></img>	89,71	2750.0	test	<img class = center src='/static/experiments/beast_fmri_test/images/redB.png'></img>	stop	2300.0	2.0	4.0	stop	target	B	89,Middle Finger	71,Index Finger	450.0	500.0	2300.0	2250.0	0.0	1.0	450.0	n/a	stop_stim
32461.204287172193	2004.7957128278115	n/a	-1	-1	2750	2004.79571283	stim	stop-signal	16	113526	0.0-7.4-1.4	beast_fmri_test	393	111005,/,111686,/,112366,/,113045,/,113725,/,114405,/,115085,/	t,t,t,t,t,t,t	<img class = center src='/static/experiments/beast_fmri_test/images/B.png'></img>	89,71	2750.0	test	<img class = center src='/static/experiments/beast_fmri_test/images/redB.png'></img>	stop	2300.0	2.0	4.0	stop	target	B	89,Middle Finger	71,Index Finger	450.0	500.0	2300.0	2250.0	0.0	1.0	450.0	n/a	ITI
36976	500	n/a	-1	-1	500	0.0	fixation	poldrack-single-stim	17	116036	0.0-7.5-0.5	beast_fmri_test	393	115766,/	t	<div class = centerbox2><div class = fixation>+</div></div>	none	500.0	test	n/a	n/a	n/a	n/a	n/a	n/a	n/a	n/a	n/a	n/a	n/a	n/a	n/a	n/a	n/a	n/a	n/a	n/a	fixation
36129.695831492674	500.0	n/a	1028	71	2750	849.304168507	stim	stop-signal	18	118789	0.0-7.5-1.5	beast_fmri_test	393	116446,/,117125,/,117805,/,118485,/,119165,/	t,t,t,t,t	<img class = center src='/static/experiments/beast_fmri_test/images/B.png'></img>	89,71	2750.0	test	<img class = center src='/static/experiments/beast_fmri_test/images/redB.png'></img>	stop	2250.0	2.0	5.0	stop	non-target	B	89,Middle Finger	71,Index Finger	500.0	500.0	2300.0	2250.0	0.0	0.0	500.0	n/a	go_stim
38379.695831492674	2250.0	n/a	1028	71	2750	849.304168507	stim	stop-signal	18	118789	0.0-7.5-1.5	beast_fmri_test	393	116446,/,117125,/,117805,/,118485,/,119165,/	t,t,t,t,t	<img class = center src='/static/experiments/beast_fmri_test/images/B.png'></img>	89,71	2750.0	test	<img class = center src='/static/experiments/beast_fmri_test/images/redB.png'></img>	stop	2250.0	2.0	5.0	stop	non-target	B	89,Middle Finger	71,Index Finger	500.0	500.0	2300.0	2250.0	0.0	0.0	500.0	n/a	stop_stim
38879.695831492674	849.30416850732854	n/a	1028	71	2750	849.304168507	stim	stop-signal	18	118789	0.0-7.5-1.5	beast_fmri_test	393	116446,/,117125,/,117805,/,118485,/,119165,/	t,t,t,t,t	<img class = center src='/static/experiments/beast_fmri_test/images/B.png'></img>	89,71	2750.0	test	<img class = center src='/static/experiments/beast_fmri_test/images/redB.png'></img>	stop	2250.0	2.0	5.0	stop	non-target	B	89,Middle Finger	71,Index Finger	500.0	500.0	2300.0	2250.0	0.0	0.0	500.0	n/a	ITI
41086	500	n/a	-1	-1	500	0.0	fixation	poldrack-single-stim	19	120146	0.0-7.6-0.6	beast_fmri_test	393	119846,/	t	<div class = centerbox2><div class = fixation>+</div></div>	none	500.0	test	n/a	n/a	n/a	n/a	n/a	n/a	n/a	n/a	n/a	n/a	n/a	n/a	n/a	n/a	n/a	n/a	n/a	n/a	fixation
39737.652564696269	2750	n/a	973	89	2750	1346.3474353	stim	stop-signal	20	122894	0.0-7.6-1.6	beast_fmri_test	393	120526,/,121206,/,121885,/,122562,/,123240,/,123919,/	t,t,t,t,t,t	<img class = center src='/static/experiments/beast_fmri_test/images/D.png'></img>	89,71	2750.0	test	<img class = center src='/static/experiments/beast_fmri_test/images/redD.png'></img>	go	2300.0	2.0	6.0	go	non-target	D	89,Middle Finger	71,Index Finger	500.0	450.0	2300.0	2300.0	0.0	n/a	450.0	0.0	go_stim
42487.652564696269	1346.347435303725	n/a	973	89	2750	1346.3474353	stim	stop-signal	20	122894	0.0-7.6-1.6	beast_fmri_test	393	120526,/,121206,/,121885,/,122562,/,123240,/,123919,/	t,t,t,t,t,t	<img class = center src='/static/experiments/beast_fmri_test/images/D.png'></img>	89,71	2750.0	test	<img class = center src='/static/experiments/beast_fmri_test/images/redD.png'></img>	go	2300.0	2.0	6.0	go	non-target	D	89,Middle Finger	71,Index Finger	500.0	450.0	2300.0	2300.0	0.0	n/a	450.0	0.0	ITI
45689	500	n/a	-1	-1	500	0.0	fixation	poldrack-single-stim	21	124749	0.0-7.7-0.7	beast_fmri_test	393	124601,/	t	<div class = centerbox2><div class = fixation>+</div></div>	none	500.0	test	n/a	n/a	n/a	n/a	n/a	n/a	n/a	n/a	n/a	n/a	n/a	n/a	n/a	n/a	n/a	n/a	n/a	n/a	fixation
45503.13532640232	450.0	n/a	669	71	2750	188.864673598	stim	stop-signal	22	127502	0.0-7.7-1.7	beast_fmri_test	393	125281,/,125960,/,126640,/,127320,/	t,t,t,t	<img class = center src='/static/experiments/beast_fmri_test/images/V.png'></img>	89,71	2750.0	test	<img class = center src='/static/experiments/beast_fmri_test/images/redV.png'></img>	stop	2300.0	2.0	7.0	stop	non-target	V	89,Middle Finger	71,Index Finger	500.0	450.0	2300.0	2300.0	0.0	0.0	450.0	n/a	go_stim
47803.13532640232	2300.0	n/a	669	71	2750	188.864673598	stim	stop-signal	22	127502	0.0-7.7-1.7	beast_fmri_test	393	125281,/,125960,/,126640,/,127320,/	t,t,t,t	<img class = center src='/static/experiments/beast_fmri_test/images/V.png'></img>	89,71	2750.0	test	<img class = center src='/static/experiments/beast_fmri_test/images/redV.png'></img>	stop	2300.0	2.0	7.0	stop	non-target	V	89,Middle Finger	71,Index Finger	500.0	450.0	2300.0	2300.0	0.0	0.0	450.0	n/a	stop_stim
48253.13532640232	188.86467359768548	n/a	669	71	2750	188.864673598	stim	stop-signal	22	127502	0.0-7.7-1.7	beast_fmri_test	393	125281,/,125960,/,126640,/,127320,/	t,t,t,t	<img class = center src='/static/experiments/beast_fmri_test/images/V.png'></img>	89,71	2750.0	test	<img class = center src='/static/experiments/beast_fmri_test/images/redV.png'></img>	stop	2300.0	2.0	7.0	stop	non-target	V	89,Middle Finger	71,Index Finger	500.0	450.0	2300.0	2300.0	0.0	0.0	450.0	n/a	ITI
49139	500	n/a	-1	-1	500	0.0	fixation	poldrack-single-stim	23	128199	0.0-7.8-0.8	beast_fmri_test	393	128001,/	t	<div class = centerbox2><div class = fixation>+</div></div>	none	500.0	test	n/a	n/a	n/a	n/a	n/a	n/a	n/a	n/a	n/a	n/a	n/a	n/a	n/a	n/a	n/a	n/a	n/a	n/a	fixation
44827.281838201292	2750	n/a	1519	71	2750	4313.7181618	stim	stop-signal	24	130951	0.0-7.8-1.8	beast_fmri_test	393	128681,/,129361,/,130042,/,130721,/,131400,/,132079,/,132757,/,133436,/,134116,/,134796,/	t,t,t,t,t,t,t,t,t,t	<img class = center src='/static/experiments/beast_fmri_test/images/D.png'></img>	89,71	2750.0	test	<img class = center src='/static/experiments/beast_fmri_test/images/redD.png'></img>	go	2250.0	2.0	8.0	go	target	D	89,Middle Finger	71,Index Finger	500.0	400.0	2250.0	2300.0	0.0	n/a	500.0	0.0	go_stim
47577.281838201292	4313.7181617987135	n/a	1519	71	2750	4313.7181618	stim	stop-signal	24	130951	0.0-7.8-1.8	beast_fmri_test	393	128681,/,129361,/,130042,/,130721,/,131400,/,132079,/,132757,/,133436,/,134116,/,134796,/	t,t,t,t,t,t,t,t,t,t	<img class = center src='/static/experiments/beast_fmri_test/images/D.png'></img>	89,71	2750.0	test	<img class = center src='/static/experiments/beast_fmri_test/images/redD.png'></img>	go	2250.0	2.0	8.0	go	target	D	89,Middle Finger	71,Index Finger	500.0	400.0	2250.0	2300.0	0.0	n/a	500.0	0.0	ITI
56711	500	n/a	-1	-1	500	0.0	fixation	poldrack-single-stim	25	135771	0.0-7.9-0.9	beast_fmri_test	393	135476,/	t	<div class = centerbox2><div class = fixation>+</div></div>	none	500.0	test	n/a	n/a	n/a	n/a	n/a	n/a	n/a	n/a	n/a	n/a	n/a	n/a	n/a	n/a	n/a	n/a	n/a	n/a	fixation
56224.063001839007	2750	n/a	757	71	2750	489.936998161	stim	stop-signal	26	138524	0.0-7.9-1.9	beast_fmri_test	393	136157,/,136836,/,137517,/,138196,/,138877,/	t,t,t,t,t	<img class = center src='/static/experiments/beast_fmri_test/images/D.png'></img>	89,71	2750.0	test	<img class = center src='/static/experiments/beast_fmri_test/images/redD.png'></img>	go	2350.0	2.0	9.0	go	non-target	D	89,Middle Finger	71,Index Finger	500.0	400.0	2250.0	2350.0	1.0	n/a	400.0	1.0	go_stim
58974.063001839007	489.93699816098609	n/a	757	71	2750	489.936998161	stim	stop-signal	26	138524	0.0-7.9-1.9	beast_fmri_test	393	136157,/,136836,/,137517,/,138196,/,138877,/	t,t,t,t,t	<img class = center src='/static/experiments/beast_fmri_test/images/D.png'></img>	89,71	2750.0	test	<img class = center src='/static/experiments/beast_fmri_test/images/redD.png'></img>	go	2350.0	2.0	9.0	go	non-target	D	89,Middle Finger	71,Index Finger	500.0	400.0	2250.0	2350.0	1.0	n/a	400.0	1.0	ITI
60463	500	n/a	-1	-1	500	0.0	fixation	poldrack-single-stim	27	139523	0.0-7.10-0.10	beast_fmri_test	393	n/a	n/a	<div class = centerbox2><div class = fixation>+</div></div>	none	500.0	test	n/a	n/a	n/a	n/a	n/a	n/a	n/a	n/a	n/a	n/a	n/a	n/a	n/a	n/a	n/a	n/a	n/a	n/a	fixation
59323.454804170469	500.0	n/a	709	89	2750	1139.54519583	stim	stop-signal	28	142273	0.0-7.10-1.10	beast_fmri_test	393	139555,/,140235,/,140916,/,141596,/,142275,/,142951,/	t,t,t,t,t,t	<img class = center src='/static/experiments/beast_fmri_test/images/D.png'></img>	89,71	2750.0	test	<img class = center src='/static/experiments/beast_fmri_test/images/redD.png'></img>	stop	2250.0	2.0	10.0	stop	target	D	89,Middle Finger	71,Index Finger	500.0	400.0	2250.0	2350.0	0.0	0.0	500.0	n/a	go_stim
61573.454804170469	2250.0	n/a	709	89	2750	1139.54519583	stim	stop-signal	28	142273	0.0-7.10-1.10	beast_fmri_test	393	139555,/,140235,/,140916,/,141596,/,142275,/,142951,/	t,t,t,t,t,t	<img class = center src='/static/experiments/beast_fmri_test/images/D.png'></img>	89,71	2750.0	test	<img class = center src='/static/experiments/beast_fmri_test/images/redD.png'></img>	stop	2250.0	2.0	10.0	stop	target	D	89,Middle Finger	71,Index Finger	500.0	400.0	2250.0	2350.0	0.0	0.0	500.0	n/a	stop_stim
62073.454804170469	1139.5451958295348	n/a	709	89	2750	1139.54519583	stim	stop-signal	28	142273	0.0-7.10-1.10	beast_fmri_test	393	139555,/,140235,/,140916,/,141596,/,142275,/,142951,/	t,t,t,t,t,t	<img class = center src='/static/experiments/beast_fmri_test/images/D.png'></img>	89,71	2750.0	test	<img class = center src='/static/experiments/beast_fmri_test/images/redD.png'></img>	stop	2250.0	2.0	10.0	stop	target	D	89,Middle Finger	71,Index Finger	500.0	400.0	2250.0	2350.0	0.0	0.0	500.0	n/a	ITI
64859	500	n/a	-1	-1	500	0.0	fixation	poldrack-single-stim	29	143919	0.0-7.11-0.11	beast_fmri_test	393	143632,/	t	<div class = centerbox2><div class = fixation>+</div></div>	none	500.0	test	n/a	n/a	n/a	n/a	n/a	n/a	n/a	n/a	n/a	n/a	n/a	n/a	n/a	n/a	n/a	n/a	n/a	n/a	fixation
64821.161938299716	400.0	n/a	-1	-1	2750	40.8380617003	stim	stop-signal	30	146672	0.0-7.11-1.11	beast_fmri_test	393	144312,/,144992,/,145672,/,146352,/	t,t,t,t	<img class = center src='/static/experiments/beast_fmri_test/images/V.png'></img>	89,71	2750.0	test	<img class = center src='/static/experiments/beast_fmri_test/images/redV.png'></img>	stop	2350.0	2.0	11.0	stop	non-target	V	89,Middle Finger	71,Index Finger	450.0	400.0	2250.0	2350.0	0.0	1.0	400.0	n/a	go_stim
67171.161938299716	2350.0	n/a	-1	-1	2750	40.8380617003	stim	stop-signal	30	146672	0.0-7.11-1.11	beast_fmri_test	393	144312,/,144992,/,145672,/,146352,/	t,t,t,t	<img class = center src='/static/experiments/beast_fmri_test/images/V.png'></img>	89,71	2750.0	test	<img class = center src='/static/experiments/beast_fmri_test/images/redV.png'></img>	stop	2350.0	2.0	11.0	stop	non-target	V	89,Middle Finger	71,Index Finger	450.0	400.0	2250.0	2350.0	0.0	1.0	400.0	n/a	stop_stim
67571.161938299716	40.838061700272242	n/a	-1	-1	2750	40.8380617003	stim	stop-signal	30	146672	0.0-7.11-1.11	beast_fmri_test	393	144312,/,144992,/,145672,/,146352,/	t,t,t,t	<img class = center src='/static/experiments/beast_fmri_test/images/V.png'></img>	89,71	2750.0	test	<img class = center src='/static/experiments/beast_fmri_test/images/redV.png'></img>	stop	2350.0	2.0	11.0	stop	non-target	V	89,Middle Finger	71,Index Finger	450.0	400.0	2250.0	2350.0	0.0	1.0	400.0	n/a	ITI
68160	500	n/a	-1	-1	500	0.0	fixation	poldrack-single-stim	31	147220	0.0-7.12-0.12	beast_fmri_test	393	147031,/	t	<div class = centerbox2><div class = fixation>+</div></div>	none	500.0	test	n/a	n/a	n/a	n/a	n/a	n/a	n/a	n/a	n/a	n/a	n/a	n/a	n/a	n/a	n/a	n/a	n/a	n/a	fixation
66499.038991966692	2750	n/a	929	71	2750	1662.96100803	stim	stop-signal	32	149972	0.0-7.12-1.12	beast_fmri_test	393	147712,/,148391,/,149071,/,149750,/,150430,/,151112,/	t,t,t,t,t,t	<img class = center src='/static/experiments/beast_fmri_test/images/B.png'></img>	89,71	2750.0	test	<img class = center src='/static/experiments/beast_fmri_test/images/redB.png'></img>	go	2300.0	2.0	12.0	go	non-target	B	89,Middle Finger	71,Index Finger	450.0	450.0	2250.0	2300.0	1.0	n/a	450.0	1.0	go_stim
69249.038991966692	1662.9610080333032	n/a	929	71	2750	1662.96100803	stim	stop-signal	32	149972	0.0-7.12-1.12	beast_fmri_test	393	147712,/,148391,/,149071,/,149750,/,150430,/,151112,/	t,t,t,t,t,t	<img class = center src='/static/experiments/beast_fmri_test/images/B.png'></img>	89,71	2750.0	test	<img class = center src='/static/experiments/beast_fmri_test/images/redB.png'></img>	go	2300.0	2.0	12.0	go	non-target	B	89,Middle Finger	71,Index Finger	450.0	450.0	2250.0	2300.0	1.0	n/a	450.0	1.0	ITI
73082	500	n/a	-1	-1	500	0.0	fixation	poldrack-single-stim	33	152142	0.0-7.13-0.13	beast_fmri_test	393	151792,/	t	<div class = centerbox2><div class = fixation>+</div></div>	none	500.0	test	n/a	n/a	n/a	n/a	n/a	n/a	n/a	n/a	n/a	n/a	n/a	n/a	n/a	n/a	n/a	n/a	n/a	n/a	fixation
71501.313198684191	2750	n/a	1174	71	2750	1581.68680132	stim	stop-signal	34	154893	0.0-7.13-1.13	beast_fmri_test	393	152468,/,153147,/,153826,/,154507,/,155186,/,155866,/	t,t,t,t,t,t	<img class = center src='/static/experiments/beast_fmri_test/images/B.png'></img>	89,71	2750.0	test	<img class = center src='/static/experiments/beast_fmri_test/images/redB.png'></img>	go	2300.0	2.0	13.0	go	non-target	B	89,Middle Finger	71,Index Finger	450.0	450.0	2250.0	2300.0	1.0	n/a	450.0	1.0	go_stim
74251.313198684191	1581.6868013158166	n/a	1174	71	2750	1581.68680132	stim	stop-signal	34	154893	0.0-7.13-1.13	beast_fmri_test	393	152468,/,153147,/,153826,/,154507,/,155186,/,155866,/	t,t,t,t,t,t	<img class = center src='/static/experiments/beast_fmri_test/images/B.png'></img>	89,71	2750.0	test	<img class = center src='/static/experiments/beast_fmri_test/images/redB.png'></img>	go	2300.0	2.0	13.0	go	non-target	B	89,Middle Finger	71,Index Finger	450.0	450.0	2250.0	2300.0	1.0	n/a	450.0	1.0	ITI
77923	500	n/a	-1	-1	500	0.0	fixation	poldrack-single-stim	35	156983	0.0-7.14-0.14	beast_fmri_test	393	156547,/	t	<div class = centerbox2><div class = fixation>+</div></div>	none	500.0	test	n/a	n/a	n/a	n/a	n/a	n/a	n/a	n/a	n/a	n/a	n/a	n/a	n/a	n/a	n/a	n/a	n/a	n/a	fixation
77241.062152320403	2750	n/a	729	89	2750	685.93784768	stim	stop-signal	36	159737	0.0-7.14-1.14	beast_fmri_test	393	157227,/,157906,/,158586,/,159267,/,159946,/	t,t,t,t,t	<img class = center src='/static/experiments/beast_fmri_test/images/B.png'></img>	89,71	2750.0	test	<img class = center src='/static/experiments/beast_fmri_test/images/redB.png'></img>	go	2300.0	2.0	14.0	go	target	B	89,Middle Finger	71,Index Finger	450.0	450.0	2300.0	2300.0	1.0	n/a	450.0	1.0	go_stim
79991.062152320403	685.93784767960051	n/a	729	89	2750	685.93784768	stim	stop-signal	36	159737	0.0-7.14-1.14	beast_fmri_test	393	157227,/,157906,/,158586,/,159267,/,159946,/	t,t,t,t,t	<img class = center src='/static/experiments/beast_fmri_test/images/B.png'></img>	89,71	2750.0	test	<img class = center src='/static/experiments/beast_fmri_test/images/redB.png'></img>	go	2300.0	2.0	14.0	go	target	B	89,Middle Finger	71,Index Finger	450.0	450.0	2300.0	2300.0	1.0	n/a	450.0	1.0	ITI
81872	500	n/a	-1	-1	500	0.0	fixation	poldrack-single-stim	37	160932	0.0-7.15-0.15	beast_fmri_test	393	160627,/	t	<div class = centerbox2><div class = fixation>+</div></div>	none	500.0	test	n/a	n/a	n/a	n/a	n/a	n/a	n/a	n/a	n/a	n/a	n/a	n/a	n/a	n/a	n/a	n/a	n/a	n/a	fixation
80519.318245386472	2750	n/a	1012	89	2750	1350.68175461	stim	stop-signal	38	163680	0.0-7.15-1.15	beast_fmri_test	393	161308,/,161987,/,162663,/,163341,/,164022,/,164702,/	t,t,t,t,t,t	<img class = center src='/static/experiments/beast_fmri_test/images/B.png'></img>	89,71	2750.0	test	<img class = center src='/static/experiments/beast_fmri_test/images/redB.png'></img>	go	2300.0	2.0	15.0	go	target	B	89,Middle Finger	71,Index Finger	450.0	450.0	2300.0	2300.0	1.0	n/a	450.0	1.0	go_stim
83269.318245386472	1350.6817546135221	n/a	1012	89	2750	1350.68175461	stim	stop-signal	38	163680	0.0-7.15-1.15	beast_fmri_test	393	161308,/,161987,/,162663,/,163341,/,164022,/,164702,/	t,t,t,t,t,t	<img class = center src='/static/experiments/beast_fmri_test/images/B.png'></img>	89,71	2750.0	test	<img class = center src='/static/experiments/beast_fmri_test/images/redB.png'></img>	go	2300.0	2.0	15.0	go	target	B	89,Middle Finger	71,Index Finger	450.0	450.0	2300.0	2300.0	1.0	n/a	450.0	1.0	ITI
86480	500	n/a	-1	-1	500	0.0	fixation	poldrack-single-stim	39	165540	0.0-7.16-0.16	beast_fmri_test	393	165382,/	t	<div class = centerbox2><div class = fixation>+</div></div>	none	500.0	test	n/a	n/a	n/a	n/a	n/a	n/a	n/a	n/a	n/a	n/a	n/a	n/a	n/a	n/a	n/a	n/a	n/a	n/a	fixation
85161.062316974741	450.0	n/a	645	71	2750	1320.93768303	stim	stop-signal	40	168292	0.0-7.16-1.16	beast_fmri_test	393	166062,/,166742,/,167422,/,168102,/,168782,/,169462,/	t,t,t,t,t,t	<img class = center src='/static/experiments/beast_fmri_test/images/T.png'></img>	89,71	2750.0	test	<img class = center src='/static/experiments/beast_fmri_test/images/redT.png'></img>	stop	2300.0	2.0	16.0	stop	non-target	T	89,Middle Finger	71,Index Finger	450.0	450.0	2300.0	2300.0	0.0	0.0	450.0	n/a	go_stim
87461.062316974741	2300.0	n/a	645	71	2750	1320.93768303	stim	stop-signal	40	168292	0.0-7.16-1.16	beast_fmri_test	393	166062,/,166742,/,167422,/,168102,/,168782,/,169462,/	t,t,t,t,t,t	<img class = center src='/static/experiments/beast_fmri_test/images/T.png'></img>	89,71	2750.0	test	<img class = center src='/static/experiments/beast_fmri_test/images/redT.png'></img>	stop	2300.0	2.0	16.0	stop	non-target	T	89,Middle Finger	71,Index Finger	450.0	450.0	2300.0	2300.0	0.0	0.0	450.0	n/a	stop_stim
87911.062316974741	1320.9376830252625	n/a	645	71	2750	1320.93768303	stim	stop-signal	40	168292	0.0-7.16-1.16	beast_fmri_test	393	166062,/,166742,/,167422,/,168102,/,168782,/,169462,/	t,t,t,t,t,t	<img class = center src='/static/experiments/beast_fmri_test/images/T.png'></img>	89,71	2750.0	test	<img class = center src='/static/experiments/beast_fmri_test/images/redT.png'></img>	stop	2300.0	2.0	16.0	stop	non-target	T	89,Middle Finger	71,Index Finger	450.0	450.0	2300.0	2300.0	0.0	0.0	450.0	n/a	ITI
91062	500	n/a	-1	-1	500	0.0	fixation	poldrack-single-stim	41	170122	0.0-7.17-0.17	beast_fmri_test	393	n/a	n/a	<div class = centerbox2><div class = fixation>+</div></div>	none	500.0	test	n/a	n/a	n/a	n/a	n/a	n/a	n/a	n/a	n/a	n/a	n/a	n/a	n/a	n/a	n/a	n/a	n/a	n/a	fixation
91059.477456899243	450.0	n/a	-1	-1	2750	6.52254310075	stim	stop-signal	42	172876	0.0-7.17-1.17	beast_fmri_test	393	170144,/,170823,/,171503,/,172183,/,172861,/	t,t,t,t,t	<img class = center src='/static/experiments/beast_fmri_test/images/B.png'></img>	89,71	2750.0	test	<img class = center src='/static/experiments/beast_fmri_test/images/redB.png'></img>	stop	2300.0	2.0	17.0	stop	target	B	89,Middle Finger	71,Index Finger	450.0	400.0	2300.0	2300.0	0.0	1.0	450.0	n/a	go_stim
93359.477456899243	2300.0	n/a	-1	-1	2750	6.52254310075	stim	stop-signal	42	172876	0.0-7.17-1.17	beast_fmri_test	393	170144,/,170823,/,171503,/,172183,/,172861,/	t,t,t,t,t	<img class = center src='/static/experiments/beast_fmri_test/images/B.png'></img>	89,71	2750.0	test	<img class = center src='/static/experiments/beast_fmri_test/images/redB.png'></img>	stop	2300.0	2.0	17.0	stop	target	B	89,Middle Finger	71,Index Finger	450.0	400.0	2300.0	2300.0	0.0	1.0	450.0	n/a	stop_stim
93809.477456899243	6.5225431007494725	n/a	-1	-1	2750	6.52254310075	stim	stop-signal	42	172876	0.0-7.17-1.17	beast_fmri_test	393	170144,/,170823,/,171503,/,172183,/,172861,/	t,t,t,t,t	<img class = center src='/static/experiments/beast_fmri_test/images/B.png'></img>	89,71	2750.0	test	<img class = center src='/static/experiments/beast_fmri_test/images/redB.png'></img>	stop	2300.0	2.0	17.0	stop	target	B	89,Middle Finger	71,Index Finger	450.0	400.0	2300.0	2300.0	0.0	1.0	450.0	n/a	ITI
94330	500	n/a	-1	-1	500	0.0	fixation	poldrack-single-stim	43	173390	0.0-7.18-0.18	beast_fmri_test	393	n/a	n/a	<div class = centerbox2><div class = fixation>+</div></div>	none	500.0	test	n/a	n/a	n/a	n/a	n/a	n/a	n/a	n/a	n/a	n/a	n/a	n/a	n/a	n/a	n/a	n/a	n/a	n/a	fixation
93129.731680769037	2750	n/a	1439	71	2750	1204.26831923	stim	stop-signal	44	176144	0.0-7.18-1.18	beast_fmri_test	393	173542,/,174222,/,174902,/,175581,/,176263,/,176942,/	t,t,t,t,t,t	<img class = center src='/static/experiments/beast_fmri_test/images/P.png'></img>	89,71	2750.0	test	<img class = center src='/static/experiments/beast_fmri_test/images/redP.png'></img>	go	2350.0	2.0	18.0	go	non-target	P	89,Middle Finger	71,Index Finger	500.0	400.0	2300.0	2350.0	1.0	n/a	400.0	1.0	go_stim
95879.731680769037	1204.2683192309669	n/a	1439	71	2750	1204.26831923	stim	stop-signal	44	176144	0.0-7.18-1.18	beast_fmri_test	393	173542,/,174222,/,174902,/,175581,/,176263,/,176942,/	t,t,t,t,t,t	<img class = center src='/static/experiments/beast_fmri_test/images/P.png'></img>	89,71	2750.0	test	<img class = center src='/static/experiments/beast_fmri_test/images/redP.png'></img>	go	2350.0	2.0	18.0	go	non-target	P	89,Middle Finger	71,Index Finger	500.0	400.0	2300.0	2350.0	1.0	n/a	400.0	1.0	ITI
98798	500	n/a	-1	-1	500	0.0	fixation	poldrack-single-stim	45	177858	0.0-7.19-0.19	beast_fmri_test	393	177623,/	t	<div class = centerbox2><div class = fixation>+</div></div>	none	500.0	test	n/a	n/a	n/a	n/a	n/a	n/a	n/a	n/a	n/a	n/a	n/a	n/a	n/a	n/a	n/a	n/a	n/a	n/a	fixation
98038.978400944558	2750	n/a	1337	71	2750	762.021599055	stim	stop-signal	46	180611	0.0-7.19-1.19	beast_fmri_test	393	178303,/,178981,/,179662,/,180343,/,181021,/	t,t,t,t,t	<img class = center src='/static/experiments/beast_fmri_test/images/P.png'></img>	89,71	2750.0	test	<img class = center src='/static/experiments/beast_fmri_test/images/redP.png'></img>	go	2350.0	2.0	19.0	go	non-target	P	89,Middle Finger	71,Index Finger	500.0	400.0	2300.0	2350.0	1.0	n/a	400.0	1.0	go_stim
100788.97840094456	762.02159905545136	n/a	1337	71	2750	762.021599055	stim	stop-signal	46	180611	0.0-7.19-1.19	beast_fmri_test	393	178303,/,178981,/,179662,/,180343,/,181021,/	t,t,t,t,t	<img class = center src='/static/experiments/beast_fmri_test/images/P.png'></img>	89,71	2750.0	test	<img class = center src='/static/experiments/beast_fmri_test/images/redP.png'></img>	go	2350.0	2.0	19.0	go	non-target	P	89,Middle Finger	71,Index Finger	500.0	400.0	2300.0	2350.0	1.0	n/a	400.0	1.0	ITI
102825	500	n/a	-1	-1	500	0.0	fixation	poldrack-single-stim	47	181885	0.0-7.20-0.20	beast_fmri_test	393	181702,/	t	<div class = centerbox2><div class = fixation>+</div></div>	none	500.0	test	n/a	n/a	n/a	n/a	n/a	n/a	n/a	n/a	n/a	n/a	n/a	n/a	n/a	n/a	n/a	n/a	n/a	n/a	fixation
102577.58736342305	2750	n/a	1371	71	2750	247.412636577	stim	stop-signal	48	184635	0.0-7.20-1.20	beast_fmri_test	393	182380,/,183058,/,183737,/,184417,/	t,t,t,t	<img class = center src='/static/experiments/beast_fmri_test/images/V.png'></img>	89,71	2750.0	test	<img class = center src='/static/experiments/beast_fmri_test/images/redV.png'></img>	go	2350.0	2.0	20.0	go	non-target	V	89,Middle Finger	71,Index Finger	500.0	400.0	2300.0	2350.0	1.0	n/a	400.0	1.0	go_stim
105327.58736342305	247.41263657695202	n/a	1371	71	2750	247.412636577	stim	stop-signal	48	184635	0.0-7.20-1.20	beast_fmri_test	393	182380,/,183058,/,183737,/,184417,/	t,t,t,t	<img class = center src='/static/experiments/beast_fmri_test/images/V.png'></img>	89,71	2750.0	test	<img class = center src='/static/experiments/beast_fmri_test/images/redV.png'></img>	go	2350.0	2.0	20.0	go	non-target	V	89,Middle Finger	71,Index Finger	500.0	400.0	2300.0	2350.0	1.0	n/a	400.0	1.0	ITI
106332	500	n/a	-1	-1	500	0.0	fixation	poldrack-single-stim	49	185392	0.0-7.21-0.21	beast_fmri_test	393	185098,/	t	<div class = centerbox2><div class = fixation>+</div></div>	none	500.0	test	n/a	n/a	n/a	n/a	n/a	n/a	n/a	n/a	n/a	n/a	n/a	n/a	n/a	n/a	n/a	n/a	n/a	n/a	fixation
106308.35475731507	500.0	n/a	-1	-1	2750	26.6452426849	stim	stop-signal	50	188145	0.0-7.21-1.21	beast_fmri_test	393	185778,/,186458,/,187137,/,187818,/	t,t,t,t	<img class = center src='/static/experiments/beast_fmri_test/images/P.png'></img>	89,71	2750.0	test	<img class = center src='/static/experiments/beast_fmri_test/images/redP.png'></img>	stop	2250.0	2.0	21.0	stop	target	P	89,Middle Finger	71,Index Finger	500.0	400.0	2250.0	2350.0	0.0	1.0	500.0	n/a	go_stim
108558.35475731507	2250.0	n/a	-1	-1	2750	26.6452426849	stim	stop-signal	50	188145	0.0-7.21-1.21	beast_fmri_test	393	185778,/,186458,/,187137,/,187818,/	t,t,t,t	<img class = center src='/static/experiments/beast_fmri_test/images/P.png'></img>	89,71	2750.0	test	<img class = center src='/static/experiments/beast_fmri_test/images/redP.png'></img>	stop	2250.0	2.0	21.0	stop	target	P	89,Middle Finger	71,Index Finger	500.0	400.0	2250.0	2350.0	0.0	1.0	500.0	n/a	stop_stim
109058.35475731507	26.645242684921726	n/a	-1	-1	2750	26.6452426849	stim	stop-signal	50	188145	0.0-7.21-1.21	beast_fmri_test	393	185778,/,186458,/,187137,/,187818,/	t,t,t,t	<img class = center src='/static/experiments/beast_fmri_test/images/P.png'></img>	89,71	2750.0	test	<img class = center src='/static/experiments/beast_fmri_test/images/redP.png'></img>	stop	2250.0	2.0	21.0	stop	target	P	89,Middle Finger	71,Index Finger	500.0	400.0	2250.0	2350.0	0.0	1.0	500.0	n/a	ITI
109620	500	n/a	-1	-1	500	0.0	fixation	poldrack-single-stim	51	188680	0.0-7.22-0.22	beast_fmri_test	393	188496,/	t	<div class = centerbox2><div class = fixation>+</div></div>	none	500.0	test	n/a	n/a	n/a	n/a	n/a	n/a	n/a	n/a	n/a	n/a	n/a	n/a	n/a	n/a	n/a	n/a	n/a	n/a	fixation
109533.03698074515	2750	n/a	1253	89	2750	88.9630192548	stim	stop-signal	52	191432	0.0-7.22-1.22	beast_fmri_test	393	189178,/,189858,/,190537,/,191219,/	t,t,t,t	<img class = center src='/static/experiments/beast_fmri_test/images/V.png'></img>	89,71	2750.0	test	<img class = center src='/static/experiments/beast_fmri_test/images/redV.png'></img>	go	2200.0	2.0	22.0	go	target	V	89,Middle Finger	71,Index Finger	550.0	400.0	2200.0	2350.0	1.0	n/a	550.0	1.0	go_stim
112283.03698074515	88.963019254843658	n/a	1253	89	2750	88.9630192548	stim	stop-signal	52	191432	0.0-7.22-1.22	beast_fmri_test	393	189178,/,189858,/,190537,/,191219,/	t,t,t,t	<img class = center src='/static/experiments/beast_fmri_test/images/V.png'></img>	89,71	2750.0	test	<img class = center src='/static/experiments/beast_fmri_test/images/redV.png'></img>	go	2200.0	2.0	22.0	go	target	V	89,Middle Finger	71,Index Finger	550.0	400.0	2200.0	2350.0	1.0	n/a	550.0	1.0	ITI
112968	500	n/a	-1	-1	500	0.0	fixation	poldrack-single-stim	53	192028	0.0-7.23-0.23	beast_fmri_test	393	191897,/	t	<div class = centerbox2><div class = fixation>+</div></div>	none	500.0	test	n/a	n/a	n/a	n/a	n/a	n/a	n/a	n/a	n/a	n/a	n/a	n/a	n/a	n/a	n/a	n/a	n/a	n/a	fixation
112041.39201557689	2750	n/a	1083	89	2750	926.607984423	stim	stop-signal	54	194778	0.0-7.23-1.23	beast_fmri_test	393	192574,/,193253,/,193933,/,194613,/,195293,/	t,t,t,t,t	<img class = center src='/static/experiments/beast_fmri_test/images/P.png'></img>	89,71	2750.0	test	<img class = center src='/static/experiments/beast_fmri_test/images/redP.png'></img>	go	2200.0	2.0	23.0	go	target	P	89,Middle Finger	71,Index Finger	550.0	400.0	2200.0	2350.0	1.0	n/a	550.0	1.0	go_stim
114791.39201557689	926.60798442312307	n/a	1083	89	2750	926.607984423	stim	stop-signal	54	194778	0.0-7.23-1.23	beast_fmri_test	393	192574,/,193253,/,193933,/,194613,/,195293,/	t,t,t,t,t	<img class = center src='/static/experiments/beast_fmri_test/images/P.png'></img>	89,71	2750.0	test	<img class = center src='/static/experiments/beast_fmri_test/images/redP.png'></img>	go	2200.0	2.0	23.0	go	target	P	89,Middle Finger	71,Index Finger	550.0	400.0	2200.0	2350.0	1.0	n/a	550.0	1.0	ITI
117157	500	n/a	-1	-1	500	0.0	fixation	poldrack-single-stim	55	196217	0.0-7.24-0.24	beast_fmri_test	393	195974,/	t	<div class = centerbox2><div class = fixation>+</div></div>	none	500.0	test	n/a	n/a	n/a	n/a	n/a	n/a	n/a	n/a	n/a	n/a	n/a	n/a	n/a	n/a	n/a	n/a	n/a	n/a	fixation
116000.58397967028	400.0	n/a	-1	-1	2750	1160.41602033	stim	stop-signal	56	198971	0.0-7.24-1.24	beast_fmri_test	393	196652,/,197334,/,198013,/,198694,/,199372,/,200053,/	t,t,t,t,t,t	<img class = center src='/static/experiments/beast_fmri_test/images/B.png'></img>	89,71	2750.0	test	<img class = center src='/static/experiments/beast_fmri_test/images/redB.png'></img>	stop	2350.0	2.0	24.0	stop	non-target	B	89,Middle Finger	71,Index Finger	550.0	400.0	2200.0	2350.0	0.0	1.0	400.0	n/a	go_stim
118350.58397967028	2350.0	n/a	-1	-1	2750	1160.41602033	stim	stop-signal	56	198971	0.0-7.24-1.24	beast_fmri_test	393	196652,/,197334,/,198013,/,198694,/,199372,/,200053,/	t,t,t,t,t,t	<img class = center src='/static/experiments/beast_fmri_test/images/B.png'></img>	89,71	2750.0	test	<img class = center src='/static/experiments/beast_fmri_test/images/redB.png'></img>	stop	2350.0	2.0	24.0	stop	non-target	B	89,Middle Finger	71,Index Finger	550.0	400.0	2200.0	2350.0	0.0	1.0	400.0	n/a	stop_stim
118750.58397967028	1160.4160203297274	n/a	-1	-1	2750	1160.41602033	stim	stop-signal	56	198971	0.0-7.24-1.24	beast_fmri_test	393	196652,/,197334,/,198013,/,198694,/,199372,/,200053,/	t,t,t,t,t,t	<img class = center src='/static/experiments/beast_fmri_test/images/B.png'></img>	89,71	2750.0	test	<img class = center src='/static/experiments/beast_fmri_test/images/redB.png'></img>	stop	2350.0	2.0	24.0	stop	non-target	B	89,Middle Finger	71,Index Finger	550.0	400.0	2200.0	2350.0	0.0	1.0	400.0	n/a	ITI
121582	500	n/a	-1	-1	500	0.0	fixation	poldrack-single-stim	57	200642	0.0-7.25-0.25	beast_fmri_test	393	n/a	n/a	<div class = centerbox2><div class = fixation>+</div></div>	none	500.0	test	n/a	n/a	n/a	n/a	n/a	n/a	n/a	n/a	n/a	n/a	n/a	n/a	n/a	n/a	n/a	n/a	n/a	n/a	fixation
120229.10176663689	2750	n/a	1434	71	2750	1351.89823336	stim	stop-signal	58	203391	0.0-7.25-1.25	beast_fmri_test	393	200734,/,201413,/,202091,/,202769,/,203447,/,204128,/	t,t,t,t,t,t	<img class = center src='/static/experiments/beast_fmri_test/images/T.png'></img>	89,71	2750.0	test	<img class = center src='/static/experiments/beast_fmri_test/images/redT.png'></img>	go	2300.0	2.0	25.0	go	non-target	T	89,Middle Finger	71,Index Finger	550.0	450.0	2200.0	2300.0	1.0	n/a	450.0	1.0	go_stim
122979.10176663689	1351.8982333631004	n/a	1434	71	2750	1351.89823336	stim	stop-signal	58	203391	0.0-7.25-1.25	beast_fmri_test	393	200734,/,201413,/,202091,/,202769,/,203447,/,204128,/	t,t,t,t,t,t	<img class = center src='/static/experiments/beast_fmri_test/images/T.png'></img>	89,71	2750.0	test	<img class = center src='/static/experiments/beast_fmri_test/images/redT.png'></img>	go	2300.0	2.0	25.0	go	non-target	T	89,Middle Finger	71,Index Finger	550.0	450.0	2200.0	2300.0	1.0	n/a	450.0	1.0	ITI
126196	500	n/a	-1	-1	500	0.0	fixation	poldrack-single-stim	59	205256	0.0-7.26-0.26	beast_fmri_test	393	204808,/	t	<div class = centerbox2><div class = fixation>+</div></div>	none	500.0	test	n/a	n/a	n/a	n/a	n/a	n/a	n/a	n/a	n/a	n/a	n/a	n/a	n/a	n/a	n/a	n/a	n/a	n/a	fixation
125780.6174929564	450.0	n/a	1006	71	2750	418.382507044	stim	stop-signal	60	208009	0.0-7.26-1.26	beast_fmri_test	393	205489,/,206169,/,206848,/,207528,/,208209,/	t,t,t,t,t	<img class = center src='/static/experiments/beast_fmri_test/images/P.png'></img>	89,71	2750.0	test	<img class = center src='/static/experiments/beast_fmri_test/images/redP.png'></img>	stop	2300.0	2.0	26.0	stop	non-target	P	89,Middle Finger	71,Index Finger	550.0	450.0	2200.0	2300.0	0.0	0.0	450.0	n/a	go_stim
128080.6174929564	2300.0	n/a	1006	71	2750	418.382507044	stim	stop-signal	60	208009	0.0-7.26-1.26	beast_fmri_test	393	205489,/,206169,/,206848,/,207528,/,208209,/	t,t,t,t,t	<img class = center src='/static/experiments/beast_fmri_test/images/P.png'></img>	89,71	2750.0	test	<img class = center src='/static/experiments/beast_fmri_test/images/redP.png'></img>	stop	2300.0	2.0	26.0	stop	non-target	P	89,Middle Finger	71,Index Finger	550.0	450.0	2200.0	2300.0	0.0	0.0	450.0	n/a	stop_stim
128530.6174929564	418.38250704359115	n/a	1006	71	2750	418.382507044	stim	stop-signal	60	208009	0.0-7.26-1.26	beast_fmri_test	393	205489,/,206169,/,206848,/,207528,/,208209,/	t,t,t,t,t	<img class = center src='/static/experiments/beast_fmri_test/images/P.png'></img>	89,71	2750.0	test	<img class = center src='/static/experiments/beast_fmri_test/images/redP.png'></img>	stop	2300.0	2.0	26.0	stop	non-target	P	89,Middle Finger	71,Index Finger	550.0	450.0	2200.0	2300.0	0.0	0.0	450.0	n/a	ITI
129877	500	n/a	-1	-1	500	0.0	fixation	poldrack-single-stim	61	208937	0.0-7.27-0.27	beast_fmri_test	393	208889,/	t	<div class = centerbox2><div class = fixation>+</div></div>	none	500.0	test	n/a	n/a	n/a	n/a	n/a	n/a	n/a	n/a	n/a	n/a	n/a	n/a	n/a	n/a	n/a	n/a	n/a	n/a	fixation
129709.80831558321	2750	n/a	943	71	2750	169.191684417	stim	stop-signal	62	211689	0.0-7.27-1.27	beast_fmri_test	393	209568,/,210248,/,210929,/,211608,/	t,t,t,t	<img class = center src='/static/experiments/beast_fmri_test/images/P.png'></img>	89,71	2750.0	test	<img class = center src='/static/experiments/beast_fmri_test/images/redP.png'></img>	go	2350.0	2.0	27.0	go	non-target	P	89,Middle Finger	71,Index Finger	550.0	400.0	2200.0	2350.0	1.0	n/a	400.0	1.0	go_stim
132459.80831558321	169.19168441679415	n/a	943	71	2750	169.191684417	stim	stop-signal	62	211689	0.0-7.27-1.27	beast_fmri_test	393	209568,/,210248,/,210929,/,211608,/	t,t,t,t	<img class = center src='/static/experiments/beast_fmri_test/images/P.png'></img>	89,71	2750.0	test	<img class = center src='/static/experiments/beast_fmri_test/images/redP.png'></img>	go	2350.0	2.0	27.0	go	non-target	P	89,Middle Finger	71,Index Finger	550.0	400.0	2200.0	2350.0	1.0	n/a	400.0	1.0	ITI
133306	500	n/a	-1	-1	500	0.0	fixation	poldrack-single-stim	63	212366	0.0-7.28-0.28	beast_fmri_test	393	212287,/	t	<div class = centerbox2><div class = fixation>+</div></div>	none	500.0	test	n/a	n/a	n/a	n/a	n/a	n/a	n/a	n/a	n/a	n/a	n/a	n/a	n/a	n/a	n/a	n/a	n/a	n/a	fixation
133155.87290167503	2750	n/a	1005	71	2750	152.127098325	stim	stop-signal	64	215118	0.0-7.28-1.28	beast_fmri_test	393	212964,/,213643,/,214324,/,215005,/	t,t,t,t	<img class = center src='/static/experiments/beast_fmri_test/images/D.png'></img>	89,71	2750.0	test	<img class = center src='/static/experiments/beast_fmri_test/images/redD.png'></img>	go	2350.0	2.0	28.0	go	non-target	D	89,Middle Finger	71,Index Finger	550.0	400.0	2200.0	2350.0	1.0	n/a	400.0	1.0	go_stim
135905.87290167503	152.12709832498109	n/a	1005	71	2750	152.127098325	stim	stop-signal	64	215118	0.0-7.28-1.28	beast_fmri_test	393	212964,/,213643,/,214324,/,215005,/	t,t,t,t	<img class = center src='/static/experiments/beast_fmri_test/images/D.png'></img>	89,71	2750.0	test	<img class = center src='/static/experiments/beast_fmri_test/images/redD.png'></img>	go	2350.0	2.0	28.0	go	non-target	D	89,Middle Finger	71,Index Finger	550.0	400.0	2200.0	2350.0	1.0	n/a	400.0	1.0	ITI
136721	500	n/a	-1	-1	500	0.0	fixation	poldrack-single-stim	65	215781	0.0-7.29-0.29	beast_fmri_test	393	215685,/	t	<div class = centerbox2><div class = fixation>+</div></div>	none	500.0	test	n/a	n/a	n/a	n/a	n/a	n/a	n/a	n/a	n/a	n/a	n/a	n/a	n/a	n/a	n/a	n/a	n/a	n/a	fixation
136488.35941827553	2750	n/a	1343	71	2750	235.640581724	stim	stop-signal	66	218534	0.0-7.29-1.29	beast_fmri_test	393	216365,/,217045,/,217724,/,218404,/	t,t,t,t	<img class = center src='/static/experiments/beast_fmri_test/images/D.png'></img>	89,71	2750.0	test	<img class = center src='/static/experiments/beast_fmri_test/images/redD.png'></img>	go	2350.0	2.0	29.0	go	non-target	D	89,Middle Finger	71,Index Finger	550.0	400.0	2200.0	2350.0	1.0	n/a	400.0	1.0	go_stim
139238.35941827553	235.64058172447128	n/a	1343	71	2750	235.640581724	stim	stop-signal	66	218534	0.0-7.29-1.29	beast_fmri_test	393	216365,/,217045,/,217724,/,218404,/	t,t,t,t	<img class = center src='/static/experiments/beast_fmri_test/images/D.png'></img>	89,71	2750.0	test	<img class = center src='/static/experiments/beast_fmri_test/images/redD.png'></img>	go	2350.0	2.0	29.0	go	non-target	D	89,Middle Finger	71,Index Finger	550.0	400.0	2200.0	2350.0	1.0	n/a	400.0	1.0	ITI
140222	500	n/a	-1	-1	500	0.0	fixation	poldrack-single-stim	67	219282	0.0-7.30-0.30	beast_fmri_test	393	219085,/	t	<div class = centerbox2><div class = fixation>+</div></div>	none	500.0	test	n/a	n/a	n/a	n/a	n/a	n/a	n/a	n/a	n/a	n/a	n/a	n/a	n/a	n/a	n/a	n/a	n/a	n/a	fixation
139436.41085289873	400.0	n/a	-1	-1	2750	787.589147101	stim	stop-signal	68	222034	0.0-7.30-1.30	beast_fmri_test	393	219765,/,220445,/,221125,/,221804,/,222481,/	t,t,t,t,t	<img class = center src='/static/experiments/beast_fmri_test/images/T.png'></img>	89,71	2750.0	test	<img class = center src='/static/experiments/beast_fmri_test/images/redT.png'></img>	stop	2350.0	2.0	30.0	stop	non-target	T	89,Middle Finger	71,Index Finger	550.0	400.0	2200.0	2350.0	0.0	1.0	400.0	n/a	go_stim
141786.41085289873	2350.0	n/a	-1	-1	2750	787.589147101	stim	stop-signal	68	222034	0.0-7.30-1.30	beast_fmri_test	393	219765,/,220445,/,221125,/,221804,/,222481,/	t,t,t,t,t	<img class = center src='/static/experiments/beast_fmri_test/images/T.png'></img>	89,71	2750.0	test	<img class = center src='/static/experiments/beast_fmri_test/images/redT.png'></img>	stop	2350.0	2.0	30.0	stop	non-target	T	89,Middle Finger	71,Index Finger	550.0	400.0	2200.0	2350.0	0.0	1.0	400.0	n/a	stop_stim
142186.41085289873	787.5891471012668	n/a	-1	-1	2750	787.589147101	stim	stop-signal	68	222034	0.0-7.30-1.30	beast_fmri_test	393	219765,/,220445,/,221125,/,221804,/,222481,/	t,t,t,t,t	<img class = center src='/static/experiments/beast_fmri_test/images/T.png'></img>	89,71	2750.0	test	<img class = center src='/static/experiments/beast_fmri_test/images/redT.png'></img>	stop	2350.0	2.0	30.0	stop	non-target	T	89,Middle Finger	71,Index Finger	550.0	400.0	2200.0	2350.0	0.0	1.0	400.0	n/a	ITI
144269	500	n/a	-1	-1	500	0.0	fixation	poldrack-single-stim	69	223329	0.0-7.31-0.31	beast_fmri_test	393	223160,/	t	<div class = centerbox2><div class = fixation>+</div></div>	none	500.0	test	n/a	n/a	n/a	n/a	n/a	n/a	n/a	n/a	n/a	n/a	n/a	n/a	n/a	n/a	n/a	n/a	n/a	n/a	fixation
143661.71312107518	2750	n/a	1140	89	2750	610.286878925	stim	stop-signal	70	226082	0.0-7.31-1.31	beast_fmri_test	393	223840,/,224519,/,225199,/,225879,/,226559,/	t,t,t,t,t	<img class = center src='/static/experiments/beast_fmri_test/images/D.png'></img>	89,71	2750.0	test	<img class = center src='/static/experiments/beast_fmri_test/images/redD.png'></img>	go	2200.0	2.0	31.0	go	target	D	89,Middle Finger	71,Index Finger	550.0	450.0	2200.0	2350.0	1.0	n/a	550.0	1.0	go_stim
146411.71312107518	610.28687892482765	n/a	1140	89	2750	610.286878925	stim	stop-signal	70	226082	0.0-7.31-1.31	beast_fmri_test	393	223840,/,224519,/,225199,/,225879,/,226559,/	t,t,t,t,t	<img class = center src='/static/experiments/beast_fmri_test/images/D.png'></img>	89,71	2750.0	test	<img class = center src='/static/experiments/beast_fmri_test/images/redD.png'></img>	go	2200.0	2.0	31.0	go	target	D	89,Middle Finger	71,Index Finger	550.0	450.0	2200.0	2350.0	1.0	n/a	550.0	1.0	ITI
148146	500	n/a	-1	-1	500	0.0	fixation	poldrack-single-stim	71	227206	0.0-7.32-0.32	beast_fmri_test	393	n/a	n/a	<div class = centerbox2><div class = fixation>+</div></div>	none	500.0	test	n/a	n/a	n/a	n/a	n/a	n/a	n/a	n/a	n/a	n/a	n/a	n/a	n/a	n/a	n/a	n/a	n/a	n/a	fixation
147084.22945762071	2750	n/a	944	71	2750	1064.77054238	stim	stop-signal	72	229959	0.0-7.32-1.32	beast_fmri_test	393	227238,/,227920,/,228599,/,229280,/,229960,/,230639,/	t,t,t,t,t,t	<img class = center src='/static/experiments/beast_fmri_test/images/P.png'></img>	89,71	2750.0	test	<img class = center src='/static/experiments/beast_fmri_test/images/redP.png'></img>	go	2300.0	2.0	32.0	go	non-target	P	89,Middle Finger	71,Index Finger	550.0	450.0	2200.0	2300.0	1.0	n/a	450.0	1.0	go_stim
149834.22945762071	1064.7705423792952	n/a	944	71	2750	1064.77054238	stim	stop-signal	72	229959	0.0-7.32-1.32	beast_fmri_test	393	227238,/,227920,/,228599,/,229280,/,229960,/,230639,/	t,t,t,t,t,t	<img class = center src='/static/experiments/beast_fmri_test/images/P.png'></img>	89,71	2750.0	test	<img class = center src='/static/experiments/beast_fmri_test/images/redP.png'></img>	go	2300.0	2.0	32.0	go	non-target	P	89,Middle Finger	71,Index Finger	550.0	450.0	2200.0	2300.0	1.0	n/a	450.0	1.0	ITI
152476	500	n/a	-1	-1	500	0.0	fixation	poldrack-single-stim	73	231536	0.0-7.33-0.33	beast_fmri_test	393	231320,/	t	<div class = centerbox2><div class = fixation>+</div></div>	none	500.0	test	n/a	n/a	n/a	n/a	n/a	n/a	n/a	n/a	n/a	n/a	n/a	n/a	n/a	n/a	n/a	n/a	n/a	n/a	fixation
152173.80475067618	2750	n/a	1524	71	2750	306.195249324	stim	stop-signal	74	234290	0.0-7.33-1.33	beast_fmri_test	393	232000,/,232680,/,233359,/,234040,/	t,t,t,t	<img class = center src='/static/experiments/beast_fmri_test/images/T.png'></img>	89,71	2750.0	test	<img class = center src='/static/experiments/beast_fmri_test/images/redT.png'></img>	go	2300.0	2.0	33.0	go	non-target	T	89,Middle Finger	71,Index Finger	550.0	450.0	2200.0	2300.0	1.0	n/a	450.0	1.0	go_stim
154923.80475067618	306.19524932380767	n/a	1524	71	2750	306.195249324	stim	stop-signal	74	234290	0.0-7.33-1.33	beast_fmri_test	393	232000,/,232680,/,233359,/,234040,/	t,t,t,t	<img class = center src='/static/experiments/beast_fmri_test/images/T.png'></img>	89,71	2750.0	test	<img class = center src='/static/experiments/beast_fmri_test/images/redT.png'></img>	go	2300.0	2.0	33.0	go	non-target	T	89,Middle Finger	71,Index Finger	550.0	450.0	2200.0	2300.0	1.0	n/a	450.0	1.0	ITI
156050	500	n/a	-1	-1	500	0.0	fixation	poldrack-single-stim	75	235110	0.0-7.34-0.34	beast_fmri_test	393	234720,/	t	<div class = centerbox2><div class = fixation>+</div></div>	none	500.0	test	n/a	n/a	n/a	n/a	n/a	n/a	n/a	n/a	n/a	n/a	n/a	n/a	n/a	n/a	n/a	n/a	n/a	n/a	fixation
154914.77136916269	2750	n/a	1289	71	2750	1138.22863084	stim	stop-signal	76	237863	0.0-7.34-1.34	beast_fmri_test	393	235400,/,236080,/,236758,/,237439,/,238119,/,238798,/	t,t,t,t,t,t	<img class = center src='/static/experiments/beast_fmri_test/images/D.png'></img>	89,71	2750.0	test	<img class = center src='/static/experiments/beast_fmri_test/images/redD.png'></img>	go	2300.0	2.0	34.0	go	non-target	D	89,Middle Finger	71,Index Finger	550.0	450.0	2200.0	2300.0	1.0	n/a	450.0	1.0	go_stim
157664.77136916269	1138.2286308373275	n/a	1289	71	2750	1138.22863084	stim	stop-signal	76	237863	0.0-7.34-1.34	beast_fmri_test	393	235400,/,236080,/,236758,/,237439,/,238119,/,238798,/	t,t,t,t,t,t	<img class = center src='/static/experiments/beast_fmri_test/images/D.png'></img>	89,71	2750.0	test	<img class = center src='/static/experiments/beast_fmri_test/images/redD.png'></img>	go	2300.0	2.0	34.0	go	non-target	D	89,Middle Finger	71,Index Finger	550.0	450.0	2200.0	2300.0	1.0	n/a	450.0	1.0	ITI
160453	500	n/a	-1	-1	500	0.0	fixation	poldrack-single-stim	77	239513	0.0-7.35-0.35	beast_fmri_test	393	239480,/	t	<div class = centerbox2><div class = fixation>+</div></div>	none	500.0	test	n/a	n/a	n/a	n/a	n/a	n/a	n/a	n/a	n/a	n/a	n/a	n/a	n/a	n/a	n/a	n/a	n/a	n/a	fixation
159770.24572035426	2750	n/a	1437	89	2750	683.754279646	stim	stop-signal	78	242264	0.0-7.35-1.35	beast_fmri_test	393	240160,/,240840,/,241520,/,242198,/,242874,/	t,t,t,t,t	<img class = center src='/static/experiments/beast_fmri_test/images/T.png'></img>	89,71	2750.0	test	<img class = center src='/static/experiments/beast_fmri_test/images/redT.png'></img>	go	2200.0	2.0	35.0	go	target	T	89,Middle Finger	71,Index Finger	550.0	450.0	2200.0	2300.0	1.0	n/a	550.0	1.0	go_stim
162520.24572035426	683.7542796457368	n/a	1437	89	2750	683.754279646	stim	stop-signal	78	242264	0.0-7.35-1.35	beast_fmri_test	393	240160,/,240840,/,241520,/,242198,/,242874,/	t,t,t,t,t	<img class = center src='/static/experiments/beast_fmri_test/images/T.png'></img>	89,71	2750.0	test	<img class = center src='/static/experiments/beast_fmri_test/images/redT.png'></img>	go	2200.0	2.0	35.0	go	target	T	89,Middle Finger	71,Index Finger	550.0	450.0	2200.0	2300.0	1.0	n/a	550.0	1.0	ITI
164397	500	n/a	-1	-1	500	0.0	fixation	poldrack-single-stim	79	243457	0.0-7.36-0.36	beast_fmri_test	393	n/a	n/a	<div class = centerbox2><div class = fixation>+</div></div>	none	500.0	test	n/a	n/a	n/a	n/a	n/a	n/a	n/a	n/a	n/a	n/a	n/a	n/a	n/a	n/a	n/a	n/a	n/a	n/a	fixation
162088.199752741	2750	n/a	813	89	2750	2312.80024726	stim	stop-signal	80	246211	0.0-7.36-1.36	beast_fmri_test	393	243556,/,244236,/,244915,/,245595,/,246275,/,246955,/,247636,/,248315,/	t,t,t,t,t,t,t,t	<img class = center src='/static/experiments/beast_fmri_test/images/D.png'></img>	89,71	2750.0	test	<img class = center src='/static/experiments/beast_fmri_test/images/redD.png'></img>	go	2200.0	2.0	36.0	go	target	D	89,Middle Finger	71,Index Finger	550.0	450.0	2200.0	2300.0	1.0	n/a	550.0	1.0	go_stim
164838.199752741	2312.8002472589969	n/a	813	89	2750	2312.80024726	stim	stop-signal	80	246211	0.0-7.36-1.36	beast_fmri_test	393	243556,/,244236,/,244915,/,245595,/,246275,/,246955,/,247636,/,248315,/	t,t,t,t,t,t,t,t	<img class = center src='/static/experiments/beast_fmri_test/images/D.png'></img>	89,71	2750.0	test	<img class = center src='/static/experiments/beast_fmri_test/images/redD.png'></img>	go	2200.0	2.0	36.0	go	target	D	89,Middle Finger	71,Index Finger	550.0	450.0	2200.0	2300.0	1.0	n/a	550.0	1.0	ITI
169976	500	n/a	-1	-1	500	0.0	fixation	poldrack-single-stim	81	249036	0.0-7.37-0.37	beast_fmri_test	393	248995,/	t	<div class = centerbox2><div class = fixation>+</div></div>	none	500.0	test	n/a	n/a	n/a	n/a	n/a	n/a	n/a	n/a	n/a	n/a	n/a	n/a	n/a	n/a	n/a	n/a	n/a	n/a	fixation
169363.70749687456	2750	n/a	947	89	2750	614.292503125	stim	stop-signal	82	251788	0.0-7.37-1.37	beast_fmri_test	393	249676,/,250356,/,251035,/,251715,/,252393,/	t,t,t,t,t	<img class = center src='/static/experiments/beast_fmri_test/images/T.png'></img>	89,71	2750.0	test	<img class = center src='/static/experiments/beast_fmri_test/images/redT.png'></img>	go	2200.0	2.0	37.0	go	target	T	89,Middle Finger	71,Index Finger	550.0	450.0	2200.0	2300.0	1.0	n/a	550.0	1.0	go_stim
172113.70749687456	614.29250312543536	n/a	947	89	2750	614.292503125	stim	stop-signal	82	251788	0.0-7.37-1.37	beast_fmri_test	393	249676,/,250356,/,251035,/,251715,/,252393,/	t,t,t,t,t	<img class = center src='/static/experiments/beast_fmri_test/images/T.png'></img>	89,71	2750.0	test	<img class = center src='/static/experiments/beast_fmri_test/images/redT.png'></img>	go	2200.0	2.0	37.0	go	target	T	89,Middle Finger	71,Index Finger	550.0	450.0	2200.0	2300.0	1.0	n/a	550.0	1.0	ITI
173853	500	n/a	-1	-1	500	0.0	fixation	poldrack-single-stim	83	252913	0.0-7.38-0.38	beast_fmri_test	393	n/a	n/a	<div class = centerbox2><div class = fixation>+</div></div>	none	500.0	test	n/a	n/a	n/a	n/a	n/a	n/a	n/a	n/a	n/a	n/a	n/a	n/a	n/a	n/a	n/a	n/a	n/a	n/a	fixation
172448.62314282669	450.0	n/a	875	71	2750	1407.37685717	stim	stop-signal	84	255666	0.0-7.38-1.38	beast_fmri_test	393	253071,/,253751,/,254430,/,255110,/,255790,/,256469,/	t,t,t,t,t,t	<img class = center src='/static/experiments/beast_fmri_test/images/P.png'></img>	89,71	2750.0	test	<img class = center src='/static/experiments/beast_fmri_test/images/redP.png'></img>	stop	2300.0	2.0	38.0	stop	non-target	P	89,Middle Finger	71,Index Finger	550.0	450.0	2200.0	2300.0	0.0	0.0	450.0	n/a	go_stim
174748.62314282669	2300.0	n/a	875	71	2750	1407.37685717	stim	stop-signal	84	255666	0.0-7.38-1.38	beast_fmri_test	393	253071,/,253751,/,254430,/,255110,/,255790,/,256469,/	t,t,t,t,t,t	<img class = center src='/static/experiments/beast_fmri_test/images/P.png'></img>	89,71	2750.0	test	<img class = center src='/static/experiments/beast_fmri_test/images/redP.png'></img>	stop	2300.0	2.0	38.0	stop	non-target	P	89,Middle Finger	71,Index Finger	550.0	450.0	2200.0	2300.0	0.0	0.0	450.0	n/a	stop_stim
175198.62314282669	1407.3768571732999	n/a	875	71	2750	1407.37685717	stim	stop-signal	84	255666	0.0-7.38-1.38	beast_fmri_test	393	253071,/,253751,/,254430,/,255110,/,255790,/,256469,/	t,t,t,t,t,t	<img class = center src='/static/experiments/beast_fmri_test/images/P.png'></img>	89,71	2750.0	test	<img class = center src='/static/experiments/beast_fmri_test/images/redP.png'></img>	stop	2300.0	2.0	38.0	stop	non-target	P	89,Middle Finger	71,Index Finger	550.0	450.0	2200.0	2300.0	0.0	0.0	450.0	n/a	ITI
178528	500	n/a	-1	-1	500	0.0	fixation	poldrack-single-stim	85	257588	0.0-7.39-0.39	beast_fmri_test	393	257151,/	t	<div class = centerbox2><div class = fixation>+</div></div>	none	500.0	test	n/a	n/a	n/a	n/a	n/a	n/a	n/a	n/a	n/a	n/a	n/a	n/a	n/a	n/a	n/a	n/a	n/a	n/a	fixation
178291.45744056648	2750	n/a	1625	71	2750	238.542559434	stim	stop-signal	86	260340	0.0-7.39-1.39	beast_fmri_test	393	257831,/,258511,/,259191,/,259870,/,260551,/	t,t,t,t,t	<img class = center src='/static/experiments/beast_fmri_test/images/P.png'></img>	89,71	2750.0	test	<img class = center src='/static/experiments/beast_fmri_test/images/redP.png'></img>	go	2350.0	2.0	39.0	go	non-target	P	89,Middle Finger	71,Index Finger	550.0	400.0	2200.0	2350.0	1.0	n/a	400.0	1.0	go_stim
181041.45744056648	238.54255943351072	n/a	1625	71	2750	238.542559434	stim	stop-signal	86	260340	0.0-7.39-1.39	beast_fmri_test	393	257831,/,258511,/,259191,/,259870,/,260551,/	t,t,t,t,t	<img class = center src='/static/experiments/beast_fmri_test/images/P.png'></img>	89,71	2750.0	test	<img class = center src='/static/experiments/beast_fmri_test/images/redP.png'></img>	go	2350.0	2.0	39.0	go	non-target	P	89,Middle Finger	71,Index Finger	550.0	400.0	2200.0	2350.0	1.0	n/a	400.0	1.0	ITI
182032	500	n/a	-1	-1	500	0.0	fixation	poldrack-single-stim	87	261092	0.0-7.40-0.40	beast_fmri_test	393	n/a	n/a	<div class = centerbox2><div class = fixation>+</div></div>	none	500.0	test	n/a	n/a	n/a	n/a	n/a	n/a	n/a	n/a	n/a	n/a	n/a	n/a	n/a	n/a	n/a	n/a	n/a	n/a	fixation
181504.00342304207	2750	n/a	2318	71	2750	525.996576958	stim	stop-signal	88	263840	0.0-7.40-1.40	beast_fmri_test	393	261230,/,261910,/,262587,/,263266,/,263945,/	t,t,t,t,t	<img class = center src='/static/experiments/beast_fmri_test/images/D.png'></img>	89,71	2750.0	test	<img class = center src='/static/experiments/beast_fmri_test/images/redD.png'></img>	go	2350.0	2.0	40.0	go	non-target	D	89,Middle Finger	71,Index Finger	550.0	400.0	2200.0	2350.0	1.0	n/a	400.0	1.0	go_stim
184254.00342304207	525.99657695790495	n/a	2318	71	2750	525.996576958	stim	stop-signal	88	263840	0.0-7.40-1.40	beast_fmri_test	393	261230,/,261910,/,262587,/,263266,/,263945,/	t,t,t,t,t	<img class = center src='/static/experiments/beast_fmri_test/images/D.png'></img>	89,71	2750.0	test	<img class = center src='/static/experiments/beast_fmri_test/images/redD.png'></img>	go	2350.0	2.0	40.0	go	non-target	D	89,Middle Finger	71,Index Finger	550.0	400.0	2200.0	2350.0	1.0	n/a	400.0	1.0	ITI
185819	500	n/a	-1	-1	500	0.0	fixation	poldrack-single-stim	89	264879	0.0-7.41-0.41	beast_fmri_test	393	264626,/	t	<div class = centerbox2><div class = fixation>+</div></div>	none	500.0	test	n/a	n/a	n/a	n/a	n/a	n/a	n/a	n/a	n/a	n/a	n/a	n/a	n/a	n/a	n/a	n/a	n/a	n/a	fixation
183074.91863940202	2750	n/a	742	71	2750	2748.0813606	stim	stop-signal	90	267633	0.0-7.41-1.41	beast_fmri_test	393	265306,/,265985,/,266665,/,267345,/,268025,/,268706,/,269386,/,270065,/	t,t,t,t,t,t,t,t	<img class = center src='/static/experiments/beast_fmri_test/images/V.png'></img>	89,71	2750.0	test	<img class = center src='/static/experiments/beast_fmri_test/images/redV.png'></img>	go	2350.0	2.0	41.0	go	non-target	V	89,Middle Finger	71,Index Finger	550.0	400.0	2200.0	2350.0	1.0	n/a	400.0	1.0	go_stim
185824.91863940202	2748.081360598007	n/a	742	71	2750	2748.0813606	stim	stop-signal	90	267633	0.0-7.41-1.41	beast_fmri_test	393	265306,/,265985,/,266665,/,267345,/,268025,/,268706,/,269386,/,270065,/	t,t,t,t,t,t,t,t	<img class = center src='/static/experiments/beast_fmri_test/images/V.png'></img>	89,71	2750.0	test	<img class = center src='/static/experiments/beast_fmri_test/images/redV.png'></img>	go	2350.0	2.0	41.0	go	non-target	V	89,Middle Finger	71,Index Finger	550.0	400.0	2200.0	2350.0	1.0	n/a	400.0	1.0	ITI
191837	500	n/a	-1	-1	500	0.0	fixation	poldrack-single-stim	91	270897	0.0-7.42-0.42	beast_fmri_test	393	270746,/	t	<div class = centerbox2><div class = fixation>+</div></div>	none	500.0	test	n/a	n/a	n/a	n/a	n/a	n/a	n/a	n/a	n/a	n/a	n/a	n/a	n/a	n/a	n/a	n/a	n/a	n/a	fixation
190922.53639444214	2750	n/a	727	71	2750	912.463605558	stim	stop-signal	92	273645	0.0-7.42-1.42	beast_fmri_test	393	271425,/,272104,/,272782,/,273460,/,274141,/	t,t,t,t,t	<img class = center src='/static/experiments/beast_fmri_test/images/P.png'></img>	89,71	2750.0	test	<img class = center src='/static/experiments/beast_fmri_test/images/redP.png'></img>	go	2350.0	2.0	42.0	go	non-target	P	89,Middle Finger	71,Index Finger	550.0	400.0	2200.0	2350.0	1.0	n/a	400.0	1.0	go_stim
193672.53639444214	912.46360555785679	n/a	727	71	2750	912.463605558	stim	stop-signal	92	273645	0.0-7.42-1.42	beast_fmri_test	393	271425,/,272104,/,272782,/,273460,/,274141,/	t,t,t,t,t	<img class = center src='/static/experiments/beast_fmri_test/images/P.png'></img>	89,71	2750.0	test	<img class = center src='/static/experiments/beast_fmri_test/images/redP.png'></img>	go	2350.0	2.0	42.0	go	non-target	P	89,Middle Finger	71,Index Finger	550.0	400.0	2200.0	2350.0	1.0	n/a	400.0	1.0	ITI
196011	500	n/a	-1	-1	500	0.0	fixation	poldrack-single-stim	93	275071	0.0-7.43-0.43	beast_fmri_test	393	274822,/	t	<div class = centerbox2><div class = fixation>+</div></div>	none	500.0	test	n/a	n/a	n/a	n/a	n/a	n/a	n/a	n/a	n/a	n/a	n/a	n/a	n/a	n/a	n/a	n/a	n/a	n/a	fixation
195569.11609351035	2750	n/a	826	71	2750	444.88390649	stim	stop-signal	94	277824	0.0-7.43-1.43	beast_fmri_test	393	275502,/,276182,/,276861,/,277542,/,278222,/	t,t,t,t,t	<img class = center src='/static/experiments/beast_fmri_test/images/D.png'></img>	89,71	2750.0	test	<img class = center src='/static/experiments/beast_fmri_test/images/redD.png'></img>	go	2350.0	2.0	43.0	go	non-target	D	89,Middle Finger	71,Index Finger	550.0	400.0	2200.0	2350.0	1.0	n/a	400.0	1.0	go_stim
198319.11609351035	444.88390648963167	n/a	826	71	2750	444.88390649	stim	stop-signal	94	277824	0.0-7.43-1.43	beast_fmri_test	393	275502,/,276182,/,276861,/,277542,/,278222,/	t,t,t,t,t	<img class = center src='/static/experiments/beast_fmri_test/images/D.png'></img>	89,71	2750.0	test	<img class = center src='/static/experiments/beast_fmri_test/images/redD.png'></img>	go	2350.0	2.0	43.0	go	non-target	D	89,Middle Finger	71,Index Finger	550.0	400.0	2200.0	2350.0	1.0	n/a	400.0	1.0	ITI
199723	500	n/a	-1	-1	500	0.0	fixation	poldrack-single-stim	95	278783	0.0-7.44-0.44	beast_fmri_test	393	n/a	n/a	<div class = centerbox2><div class = fixation>+</div></div>	none	500.0	test	n/a	n/a	n/a	n/a	n/a	n/a	n/a	n/a	n/a	n/a	n/a	n/a	n/a	n/a	n/a	n/a	n/a	n/a	fixation
199698.89678814454	400.0	n/a	-1	-1	2750	27.1032118554	stim	stop-signal	96	281536	0.0-7.44-1.44	beast_fmri_test	393	278902,/,279582,/,280262,/,280942,/	t,t,t,t	<img class = center src='/static/experiments/beast_fmri_test/images/B.png'></img>	89,71	2750.0	test	<img class = center src='/static/experiments/beast_fmri_test/images/redB.png'></img>	stop	2350.0	2.0	44.0	stop	non-target	B	89,Middle Finger	71,Index Finger	550.0	400.0	2200.0	2350.0	0.0	1.0	400.0	n/a	go_stim
202048.89678814454	2350.0	n/a	-1	-1	2750	27.1032118554	stim	stop-signal	96	281536	0.0-7.44-1.44	beast_fmri_test	393	278902,/,279582,/,280262,/,280942,/	t,t,t,t	<img class = center src='/static/experiments/beast_fmri_test/images/B.png'></img>	89,71	2750.0	test	<img class = center src='/static/experiments/beast_fmri_test/images/redB.png'></img>	stop	2350.0	2.0	44.0	stop	non-target	B	89,Middle Finger	71,Index Finger	550.0	400.0	2200.0	2350.0	0.0	1.0	400.0	n/a	stop_stim
202448.89678814454	27.103211855435262	n/a	-1	-1	2750	27.1032118554	stim	stop-signal	96	281536	0.0-7.44-1.44	beast_fmri_test	393	278902,/,279582,/,280262,/,280942,/	t,t,t,t	<img class = center src='/static/experiments/beast_fmri_test/images/B.png'></img>	89,71	2750.0	test	<img class = center src='/static/experiments/beast_fmri_test/images/redB.png'></img>	stop	2350.0	2.0	44.0	stop	non-target	B	89,Middle Finger	71,Index Finger	550.0	400.0	2200.0	2350.0	0.0	1.0	400.0	n/a	ITI
203015	500	n/a	-1	-1	500	0.0	fixation	poldrack-single-stim	97	282075	0.0-7.45-0.45	beast_fmri_test	393	281620,/	t	<div class = centerbox2><div class = fixation>+</div></div>	none	500.0	test	n/a	n/a	n/a	n/a	n/a	n/a	n/a	n/a	n/a	n/a	n/a	n/a	n/a	n/a	n/a	n/a	n/a	n/a	fixation
202801.14495270152	2750	n/a	788	89	2750	214.855047298	stim	stop-signal	98	284826	0.0-7.45-1.45	beast_fmri_test	393	282298,/,282977,/,283655,/,284337,/,285016,/	t,t,t,t,t	<img class = center src='/static/experiments/beast_fmri_test/images/D.png'></img>	89,71	2750.0	test	<img class = center src='/static/experiments/beast_fmri_test/images/redD.png'></img>	go	2200.0	2.0	45.0	go	target	D	89,Middle Finger	71,Index Finger	550.0	450.0	2200.0	2350.0	1.0	n/a	550.0	1.0	go_stim
205551.14495270152	214.85504729845385	n/a	788	89	2750	214.855047298	stim	stop-signal	98	284826	0.0-7.45-1.45	beast_fmri_test	393	282298,/,282977,/,283655,/,284337,/,285016,/	t,t,t,t,t	<img class = center src='/static/experiments/beast_fmri_test/images/D.png'></img>	89,71	2750.0	test	<img class = center src='/static/experiments/beast_fmri_test/images/redD.png'></img>	go	2200.0	2.0	45.0	go	target	D	89,Middle Finger	71,Index Finger	550.0	450.0	2200.0	2350.0	1.0	n/a	550.0	1.0	ITI
206494	500	n/a	-1	-1	500	0.0	fixation	poldrack-single-stim	99	285554	0.0-7.46-0.46	beast_fmri_test	393	n/a	n/a	<div class = centerbox2><div class = fixation>+</div></div>	none	500.0	test	n/a	n/a	n/a	n/a	n/a	n/a	n/a	n/a	n/a	n/a	n/a	n/a	n/a	n/a	n/a	n/a	n/a	n/a	fixation
205515.14383935434	450.0	n/a	-1	-1	2750	982.856160646	stim	stop-signal	100	288308	0.0-7.46-1.46	beast_fmri_test	393	285697,/,286377,/,287057,/,287736,/,288416,/,289096,/	t,t,t,t,t,t	<img class = center src='/static/experiments/beast_fmri_test/images/P.png'></img>	89,71	2750.0	test	<img class = center src='/static/experiments/beast_fmri_test/images/redP.png'></img>	stop	2300.0	2.0	46.0	stop	non-target	P	89,Middle Finger	71,Index Finger	550.0	450.0	2200.0	2300.0	0.0	1.0	450.0	n/a	go_stim
207815.14383935434	2300.0	n/a	-1	-1	2750	982.856160646	stim	stop-signal	100	288308	0.0-7.46-1.46	beast_fmri_test	393	285697,/,286377,/,287057,/,287736,/,288416,/,289096,/	t,t,t,t,t,t	<img class = center src='/static/experiments/beast_fmri_test/images/P.png'></img>	89,71	2750.0	test	<img class = center src='/static/experiments/beast_fmri_test/images/redP.png'></img>	stop	2300.0	2.0	46.0	stop	non-target	P	89,Middle Finger	71,Index Finger	550.0	450.0	2200.0	2300.0	0.0	1.0	450.0	n/a	stop_stim
208265.14383935434	982.85616064564681	n/a	-1	-1	2750	982.856160646	stim	stop-signal	100	288308	0.0-7.46-1.46	beast_fmri_test	393	285697,/,286377,/,287057,/,287736,/,288416,/,289096,/	t,t,t,t,t,t	<img class = center src='/static/experiments/beast_fmri_test/images/P.png'></img>	89,71	2750.0	test	<img class = center src='/static/experiments/beast_fmri_test/images/redP.png'></img>	stop	2300.0	2.0	46.0	stop	non-target	P	89,Middle Finger	71,Index Finger	550.0	450.0	2200.0	2300.0	0.0	1.0	450.0	n/a	ITI
225241	15000	n/a	-1	-1	15000	0.0	practice-no-stop-feedback	poldrack-single-stim	101	304301	0.0-8.0	beast_fmri_test	393	289777,/,290456,/,291137,/,291817,/,292496,/,293176,/,293856,/,294536,/,295216,/,295897,/,296578,/,297257,/,297938,/,298618,/,299298,/,299978,/,300658,/,301338,/,302015,/,302693,/,303372,/,304053,/	t,t,t,t,t,t,t,t,t,t,t,t,t,t,t,t,t,t,t,t,t,t	"<div class = ""centerbox2_2""><p class = ""block-text2"">Your delay is 3 trials.</p><p class = block-text2>Please wait for the scanner to start the block</p></div>"	77	15000.0	n/a	n/a	n/a	n/a	n/a	n/a	n/a	n/a	n/a	n/a	n/a	n/a	n/a	n/a	n/a	n/a	n/a	n/a	n/a	practice-no-stop-feedback
225744	500	n/a	-1	-1	500	0.0	fixation	poldrack-single-stim	102	304804	0.0-9.0-0.0	beast_fmri_test	393	304733,/	t	<div class = centerbox2><div class = fixation>+</div></div>	none	500.0	test	n/a	n/a	n/a	n/a	n/a	n/a	n/a	n/a	n/a	n/a	n/a	n/a	n/a	n/a	n/a	n/a	n/a	n/a	fixation
224170.67659501382	2750	n/a	1504	71	2750	1576.32340499	stim	stop-signal	103	307557	0.0-9.0-1.0	beast_fmri_test	393	305413,/,306093,/,306772,/,307452,/,308132,/,308812,/	t,t,t,t,t,t	<img class = center src='/static/experiments/beast_fmri_test/images/T.png'></img>	89,71	2750.0	test	<img class = center src='/static/experiments/beast_fmri_test/images/redT.png'></img>	go	-1.0	3.0	0.0	go	temp-non-target	T	89,Middle Finger	71,Index Finger	550.0	500.0	2200.0	2300.0	0.0	n/a	n/a	n/a	go_stim
226920.67659501382	1576.3234049861746	n/a	1504	71	2750	1576.32340499	stim	stop-signal	103	307557	0.0-9.0-1.0	beast_fmri_test	393	305413,/,306093,/,306772,/,307452,/,308132,/,308812,/	t,t,t,t,t,t	<img class = center src='/static/experiments/beast_fmri_test/images/T.png'></img>	89,71	2750.0	test	<img class = center src='/static/experiments/beast_fmri_test/images/redT.png'></img>	go	-1.0	3.0	0.0	go	temp-non-target	T	89,Middle Finger	71,Index Finger	550.0	500.0	2200.0	2300.0	0.0	n/a	n/a	n/a	ITI
230590	500	n/a	-1	-1	500	0.0	fixation	poldrack-single-stim	104	309650	0.0-9.1-0.1	beast_fmri_test	393	309493,/	t	<div class = centerbox2><div class = fixation>+</div></div>	none	500.0	test	n/a	n/a	n/a	n/a	n/a	n/a	n/a	n/a	n/a	n/a	n/a	n/a	n/a	n/a	n/a	n/a	n/a	n/a	fixation
230445.30316003517	2750	n/a	1424	71	2750	144.696839965	stim	stop-signal	105	312400	0.0-9.1-1.1	beast_fmri_test	393	310173,/,310852,/,311532,/,312210,/	t,t,t,t	<img class = center src='/static/experiments/beast_fmri_test/images/P.png'></img>	89,71	2750.0	test	<img class = center src='/static/experiments/beast_fmri_test/images/redP.png'></img>	go	-1.0	3.0	1.0	go	temp-non-target	P	89,Middle Finger	71,Index Finger	550.0	500.0	2200.0	2300.0	0.0	n/a	n/a	n/a	go_stim
233195.30316003517	144.69683996482087	n/a	1424	71	2750	144.696839965	stim	stop-signal	105	312400	0.0-9.1-1.1	beast_fmri_test	393	310173,/,310852,/,311532,/,312210,/	t,t,t,t	<img class = center src='/static/experiments/beast_fmri_test/images/P.png'></img>	89,71	2750.0	test	<img class = center src='/static/experiments/beast_fmri_test/images/redP.png'></img>	go	-1.0	3.0	1.0	go	temp-non-target	P	89,Middle Finger	71,Index Finger	550.0	500.0	2200.0	2300.0	0.0	n/a	n/a	n/a	ITI
233998	500	n/a	-1	-1	500	0.0	fixation	poldrack-single-stim	106	313058	0.0-9.2-0.2	beast_fmri_test	393	312888,/	t	<div class = centerbox2><div class = fixation>+</div></div>	none	500.0	test	n/a	n/a	n/a	n/a	n/a	n/a	n/a	n/a	n/a	n/a	n/a	n/a	n/a	n/a	n/a	n/a	n/a	n/a	fixation
233934.39606926293	2750	n/a	1118	71	2750	66.6039307371	stim	stop-signal	107	315811	0.0-9.2-1.2	beast_fmri_test	393	313568,/,314247,/,314927,/,315607,/	t,t,t,t	<img class = center src='/static/experiments/beast_fmri_test/images/V.png'></img>	89,71	2750.0	test	<img class = center src='/static/experiments/beast_fmri_test/images/redV.png'></img>	go	-1.0	3.0	2.0	go	temp-non-target	V	89,Middle Finger	71,Index Finger	550.0	500.0	2200.0	2300.0	0.0	n/a	n/a	n/a	go_stim
236684.39606926293	66.603930737093648	n/a	1118	71	2750	66.6039307371	stim	stop-signal	107	315811	0.0-9.2-1.2	beast_fmri_test	393	313568,/,314247,/,314927,/,315607,/	t,t,t,t	<img class = center src='/static/experiments/beast_fmri_test/images/V.png'></img>	89,71	2750.0	test	<img class = center src='/static/experiments/beast_fmri_test/images/redV.png'></img>	go	-1.0	3.0	2.0	go	temp-non-target	V	89,Middle Finger	71,Index Finger	550.0	500.0	2200.0	2300.0	0.0	n/a	n/a	n/a	ITI
237332	500	n/a	-1	-1	500	0.0	fixation	poldrack-single-stim	108	316392	0.0-9.3-0.3	beast_fmri_test	393	316288,/	t	<div class = centerbox2><div class = fixation>+</div></div>	none	500.0	test	n/a	n/a	n/a	n/a	n/a	n/a	n/a	n/a	n/a	n/a	n/a	n/a	n/a	n/a	n/a	n/a	n/a	n/a	fixation
237164.40514156315	2750	n/a	724	71	2750	171.594858437	stim	stop-signal	109	319146	0.0-9.3-1.3	beast_fmri_test	393	316967,/,317647,/,318327,/,319008,/	t,t,t,t	<img class = center src='/static/experiments/beast_fmri_test/images/V.png'></img>	89,71	2750.0	test	<img class = center src='/static/experiments/beast_fmri_test/images/redV.png'></img>	go	2250.0	3.0	3.0	go	non-target	V	89,Middle Finger	71,Index Finger	550.0	500.0	2200.0	2250.0	1.0	n/a	500.0	1.0	go_stim
239914.40514156315	171.59485843685053	n/a	724	71	2750	171.594858437	stim	stop-signal	109	319146	0.0-9.3-1.3	beast_fmri_test	393	316967,/,317647,/,318327,/,319008,/	t,t,t,t	<img class = center src='/static/experiments/beast_fmri_test/images/V.png'></img>	89,71	2750.0	test	<img class = center src='/static/experiments/beast_fmri_test/images/redV.png'></img>	go	2250.0	3.0	3.0	go	non-target	V	89,Middle Finger	71,Index Finger	550.0	500.0	2200.0	2250.0	1.0	n/a	500.0	1.0	ITI
240774	500	n/a	-1	-1	500	0.0	fixation	poldrack-single-stim	110	319834	0.0-9.4-0.4	beast_fmri_test	393	319688,/	t	<div class = centerbox2><div class = fixation>+</div></div>	none	500.0	test	n/a	n/a	n/a	n/a	n/a	n/a	n/a	n/a	n/a	n/a	n/a	n/a	n/a	n/a	n/a	n/a	n/a	n/a	fixation
236468.20081584883	550.0	n/a	-1	-1	2750	4305.79918415	stim	stop-signal	111	322584	0.0-9.4-1.4	beast_fmri_test	393	320367,/,321048,/,321727,/,322404,/,323082,/,323762,/,324442,/,325122,/,325803,/,326483,/	t,t,t,t,t,t,t,t,t,t	<img class = center src='/static/experiments/beast_fmri_test/images/P.png'></img>	89,71	2750.0	test	<img class = center src='/static/experiments/beast_fmri_test/images/redP.png'></img>	stop	2200.0	3.0	4.0	stop	target	P	89,Middle Finger	71,Index Finger	550.0	500.0	2200.0	2250.0	0.0	1.0	550.0	n/a	go_stim
238668.20081584883	2200.0	n/a	-1	-1	2750	4305.79918415	stim	stop-signal	111	322584	0.0-9.4-1.4	beast_fmri_test	393	320367,/,321048,/,321727,/,322404,/,323082,/,323762,/,324442,/,325122,/,325803,/,326483,/	t,t,t,t,t,t,t,t,t,t	<img class = center src='/static/experiments/beast_fmri_test/images/P.png'></img>	89,71	2750.0	test	<img class = center src='/static/experiments/beast_fmri_test/images/redP.png'></img>	stop	2200.0	3.0	4.0	stop	target	P	89,Middle Finger	71,Index Finger	550.0	500.0	2200.0	2250.0	0.0	1.0	550.0	n/a	stop_stim
239218.20081584883	4305.7991841511557	n/a	-1	-1	2750	4305.79918415	stim	stop-signal	111	322584	0.0-9.4-1.4	beast_fmri_test	393	320367,/,321048,/,321727,/,322404,/,323082,/,323762,/,324442,/,325122,/,325803,/,326483,/	t,t,t,t,t,t,t,t,t,t	<img class = center src='/static/experiments/beast_fmri_test/images/P.png'></img>	89,71	2750.0	test	<img class = center src='/static/experiments/beast_fmri_test/images/redP.png'></img>	stop	2200.0	3.0	4.0	stop	target	P	89,Middle Finger	71,Index Finger	550.0	500.0	2200.0	2250.0	0.0	1.0	550.0	n/a	ITI
248344	500	n/a	-1	-1	500	0.0	fixation	poldrack-single-stim	112	327404	0.0-9.5-0.5	beast_fmri_test	393	327164,/	t	<div class = centerbox2><div class = fixation>+</div></div>	none	500.0	test	n/a	n/a	n/a	n/a	n/a	n/a	n/a	n/a	n/a	n/a	n/a	n/a	n/a	n/a	n/a	n/a	n/a	n/a	fixation
247710.26398305834	500.0	n/a	667	71	2750	636.736016942	stim	stop-signal	113	330157	0.0-9.5-1.5	beast_fmri_test	393	327844,/,328523,/,329203,/,329884,/,330564,/	t,t,t,t,t	<img class = center src='/static/experiments/beast_fmri_test/images/P.png'></img>	89,71	2750.0	test	<img class = center src='/static/experiments/beast_fmri_test/images/redP.png'></img>	stop	2250.0	3.0	5.0	stop	non-target	P	89,Middle Finger	71,Index Finger	600.0	500.0	2200.0	2250.0	0.0	0.0	500.0	n/a	go_stim
249960.26398305834	2250.0	n/a	667	71	2750	636.736016942	stim	stop-signal	113	330157	0.0-9.5-1.5	beast_fmri_test	393	327844,/,328523,/,329203,/,329884,/,330564,/	t,t,t,t,t	<img class = center src='/static/experiments/beast_fmri_test/images/P.png'></img>	89,71	2750.0	test	<img class = center src='/static/experiments/beast_fmri_test/images/redP.png'></img>	stop	2250.0	3.0	5.0	stop	non-target	P	89,Middle Finger	71,Index Finger	600.0	500.0	2200.0	2250.0	0.0	0.0	500.0	n/a	stop_stim
250460.26398305834	636.73601694165552	n/a	667	71	2750	636.736016942	stim	stop-signal	113	330157	0.0-9.5-1.5	beast_fmri_test	393	327844,/,328523,/,329203,/,329884,/,330564,/	t,t,t,t,t	<img class = center src='/static/experiments/beast_fmri_test/images/P.png'></img>	89,71	2750.0	test	<img class = center src='/static/experiments/beast_fmri_test/images/redP.png'></img>	stop	2250.0	3.0	5.0	stop	non-target	P	89,Middle Finger	71,Index Finger	600.0	500.0	2200.0	2250.0	0.0	0.0	500.0	n/a	ITI
252250	500	n/a	-1	-1	500	0.0	fixation	poldrack-single-stim	114	331310	0.0-9.6-0.6	beast_fmri_test	393	331244,/	t	<div class = centerbox2><div class = fixation>+</div></div>	none	500.0	test	n/a	n/a	n/a	n/a	n/a	n/a	n/a	n/a	n/a	n/a	n/a	n/a	n/a	n/a	n/a	n/a	n/a	n/a	fixation
250084.50914146972	2750	n/a	876	89	2750	2163.49085853	stim	stop-signal	115	334058	0.0-9.6-1.6	beast_fmri_test	393	331922,/,332599,/,333278,/,333958,/,334639,/,335318,/,335998,/	t,t,t,t,t,t,t	<img class = center src='/static/experiments/beast_fmri_test/images/V.png'></img>	89,71	2750.0	test	<img class = center src='/static/experiments/beast_fmri_test/images/redV.png'></img>	go	2150.0	3.0	6.0	go	target	V	89,Middle Finger	71,Index Finger	600.0	450.0	2150.0	2250.0	1.0	n/a	600.0	1.0	go_stim
252834.50914146972	2163.4908585302633	n/a	876	89	2750	2163.49085853	stim	stop-signal	115	334058	0.0-9.6-1.6	beast_fmri_test	393	331922,/,332599,/,333278,/,333958,/,334639,/,335318,/,335998,/	t,t,t,t,t,t,t	<img class = center src='/static/experiments/beast_fmri_test/images/V.png'></img>	89,71	2750.0	test	<img class = center src='/static/experiments/beast_fmri_test/images/redV.png'></img>	go	2150.0	3.0	6.0	go	target	V	89,Middle Finger	71,Index Finger	600.0	450.0	2150.0	2250.0	1.0	n/a	600.0	1.0	ITI
257678	500	n/a	-1	-1	500	0.0	fixation	poldrack-single-stim	116	336738	0.0-9.7-0.7	beast_fmri_test	393	336679,/	t	<div class = centerbox2><div class = fixation>+</div></div>	none	500.0	test	n/a	n/a	n/a	n/a	n/a	n/a	n/a	n/a	n/a	n/a	n/a	n/a	n/a	n/a	n/a	n/a	n/a	n/a	fixation
256354.52419742092	2750	n/a	1067	89	2750	1327.47580258	stim	stop-signal	117	339492	0.0-9.7-1.7	beast_fmri_test	393	337359,/,338038,/,338719,/,339399,/,340078,/,340758,/	t,t,t,t,t,t	<img class = center src='/static/experiments/beast_fmri_test/images/V.png'></img>	89,71	2750.0	test	<img class = center src='/static/experiments/beast_fmri_test/images/redV.png'></img>	go	2300.0	3.0	7.0	go	non-target	V	89,Middle Finger	71,Index Finger	600.0	450.0	2150.0	2300.0	0.0	n/a	450.0	0.0	go_stim
259104.52419742092	1327.4758025790786	n/a	1067	89	2750	1327.47580258	stim	stop-signal	117	339492	0.0-9.7-1.7	beast_fmri_test	393	337359,/,338038,/,338719,/,339399,/,340078,/,340758,/	t,t,t,t,t,t	<img class = center src='/static/experiments/beast_fmri_test/images/V.png'></img>	89,71	2750.0	test	<img class = center src='/static/experiments/beast_fmri_test/images/redV.png'></img>	go	2300.0	3.0	7.0	go	non-target	V	89,Middle Finger	71,Index Finger	600.0	450.0	2150.0	2300.0	0.0	n/a	450.0	0.0	ITI
262278	500	n/a	-1	-1	500	0.0	fixation	poldrack-single-stim	118	341338	0.0-9.8-0.8	beast_fmri_test	393	n/a	n/a	<div class = centerbox2><div class = fixation>+</div></div>	none	500.0	test	n/a	n/a	n/a	n/a	n/a	n/a	n/a	n/a	n/a	n/a	n/a	n/a	n/a	n/a	n/a	n/a	n/a	n/a	fixation
262106.35606779275	450.0	n/a	-1	-1	2750	169.643932207	stim	stop-signal	119	344086	0.0-9.8-1.8	beast_fmri_test	393	341438,/,342116,/,342794,/,343473,/,344153,/	t,t,t,t,t	<img class = center src='/static/experiments/beast_fmri_test/images/B.png'></img>	89,71	2750.0	test	<img class = center src='/static/experiments/beast_fmri_test/images/redB.png'></img>	stop	2300.0	3.0	8.0	stop	non-target	B	89,Middle Finger	71,Index Finger	600.0	450.0	2150.0	2300.0	0.0	1.0	450.0	n/a	go_stim
264406.35606779275	2300.0	n/a	-1	-1	2750	169.643932207	stim	stop-signal	119	344086	0.0-9.8-1.8	beast_fmri_test	393	341438,/,342116,/,342794,/,343473,/,344153,/	t,t,t,t,t	<img class = center src='/static/experiments/beast_fmri_test/images/B.png'></img>	89,71	2750.0	test	<img class = center src='/static/experiments/beast_fmri_test/images/redB.png'></img>	stop	2300.0	3.0	8.0	stop	non-target	B	89,Middle Finger	71,Index Finger	600.0	450.0	2150.0	2300.0	0.0	1.0	450.0	n/a	stop_stim
264856.35606779275	169.64393220727385	n/a	-1	-1	2750	169.643932207	stim	stop-signal	119	344086	0.0-9.8-1.8	beast_fmri_test	393	341438,/,342116,/,342794,/,343473,/,344153,/	t,t,t,t,t	<img class = center src='/static/experiments/beast_fmri_test/images/B.png'></img>	89,71	2750.0	test	<img class = center src='/static/experiments/beast_fmri_test/images/redB.png'></img>	stop	2300.0	3.0	8.0	stop	non-target	B	89,Middle Finger	71,Index Finger	600.0	450.0	2150.0	2300.0	0.0	1.0	450.0	n/a	ITI
265712	500	n/a	-1	-1	500	0.0	fixation	poldrack-single-stim	120	344772	0.0-9.9-0.9	beast_fmri_test	393	n/a	n/a	<div class = centerbox2><div class = fixation>+</div></div>	none	500.0	test	n/a	n/a	n/a	n/a	n/a	n/a	n/a	n/a	n/a	n/a	n/a	n/a	n/a	n/a	n/a	n/a	n/a	n/a	fixation
265456.82818495639	500.0	n/a	-1	-1	2750	258.171815044	stim	stop-signal	121	347525	0.0-9.9-1.9	beast_fmri_test	393	344833,/,345513,/,346193,/,346874,/,347553,/	t,t,t,t,t	<img class = center src='/static/experiments/beast_fmri_test/images/T.png'></img>	89,71	2750.0	test	<img class = center src='/static/experiments/beast_fmri_test/images/redT.png'></img>	stop	2250.0	3.0	9.0	stop	non-target	T	89,Middle Finger	71,Index Finger	600.0	500.0	2150.0	2250.0	0.0	1.0	500.0	n/a	go_stim
267706.82818495639	2250.0	n/a	-1	-1	2750	258.171815044	stim	stop-signal	121	347525	0.0-9.9-1.9	beast_fmri_test	393	344833,/,345513,/,346193,/,346874,/,347553,/	t,t,t,t,t	<img class = center src='/static/experiments/beast_fmri_test/images/T.png'></img>	89,71	2750.0	test	<img class = center src='/static/experiments/beast_fmri_test/images/redT.png'></img>	stop	2250.0	3.0	9.0	stop	non-target	T	89,Middle Finger	71,Index Finger	600.0	500.0	2150.0	2250.0	0.0	1.0	500.0	n/a	stop_stim
268206.82818495639	258.17181504359939	n/a	-1	-1	2750	258.171815044	stim	stop-signal	121	347525	0.0-9.9-1.9	beast_fmri_test	393	344833,/,345513,/,346193,/,346874,/,347553,/	t,t,t,t,t	<img class = center src='/static/experiments/beast_fmri_test/images/T.png'></img>	89,71	2750.0	test	<img class = center src='/static/experiments/beast_fmri_test/images/redT.png'></img>	stop	2250.0	3.0	9.0	stop	non-target	T	89,Middle Finger	71,Index Finger	600.0	500.0	2150.0	2250.0	0.0	1.0	500.0	n/a	ITI
269241	500	n/a	-1	-1	500	0.0	fixation	poldrack-single-stim	122	348301	0.0-9.10-0.10	beast_fmri_test	393	348234,/	t	<div class = centerbox2><div class = fixation>+</div></div>	none	500.0	test	n/a	n/a	n/a	n/a	n/a	n/a	n/a	n/a	n/a	n/a	n/a	n/a	n/a	n/a	n/a	n/a	n/a	n/a	fixation
268866.74881997675	600.0	n/a	-1	-1	2750	377.251180023	stim	stop-signal	123	351054	0.0-9.10-1.10	beast_fmri_test	393	348913,/,349593,/,350275,/,350953,/	t,t,t,t	<img class = center src='/static/experiments/beast_fmri_test/images/V.png'></img>	89,71	2750.0	test	<img class = center src='/static/experiments/beast_fmri_test/images/redV.png'></img>	stop	2150.0	3.0	10.0	stop	target	V	89,Middle Finger	71,Index Finger	600.0	550.0	2150.0	2250.0	0.0	1.0	600.0	n/a	go_stim
271016.74881997675	2150.0	n/a	-1	-1	2750	377.251180023	stim	stop-signal	123	351054	0.0-9.10-1.10	beast_fmri_test	393	348913,/,349593,/,350275,/,350953,/	t,t,t,t	<img class = center src='/static/experiments/beast_fmri_test/images/V.png'></img>	89,71	2750.0	test	<img class = center src='/static/experiments/beast_fmri_test/images/redV.png'></img>	stop	2150.0	3.0	10.0	stop	target	V	89,Middle Finger	71,Index Finger	600.0	550.0	2150.0	2250.0	0.0	1.0	600.0	n/a	stop_stim
271616.74881997675	377.25118002325081	n/a	-1	-1	2750	377.251180023	stim	stop-signal	123	351054	0.0-9.10-1.10	beast_fmri_test	393	348913,/,349593,/,350275,/,350953,/	t,t,t,t	<img class = center src='/static/experiments/beast_fmri_test/images/V.png'></img>	89,71	2750.0	test	<img class = center src='/static/experiments/beast_fmri_test/images/redV.png'></img>	stop	2150.0	3.0	10.0	stop	target	V	89,Middle Finger	71,Index Finger	600.0	550.0	2150.0	2250.0	0.0	1.0	600.0	n/a	ITI
272888	500	n/a	-1	-1	500	0.0	fixation	poldrack-single-stim	124	351948	0.0-9.11-0.11	beast_fmri_test	393	351634,/	t	<div class = centerbox2><div class = fixation>+</div></div>	none	500.0	test	n/a	n/a	n/a	n/a	n/a	n/a	n/a	n/a	n/a	n/a	n/a	n/a	n/a	n/a	n/a	n/a	n/a	n/a	fixation
272825.38654474198	2750	n/a	1123	89	2750	65.613455258	stim	stop-signal	125	354701	0.0-9.11-1.11	beast_fmri_test	393	352314,/,352995,/,353674,/,354354,/	t,t,t,t	<img class = center src='/static/experiments/beast_fmri_test/images/T.png'></img>	89,71	2750.0	test	<img class = center src='/static/experiments/beast_fmri_test/images/redT.png'></img>	go	2200.0	3.0	11.0	go	non-target	T	89,Middle Finger	71,Index Finger	650.0	550.0	2150.0	2200.0	0.0	n/a	550.0	0.0	go_stim
275575.38654474198	65.613455258038087	n/a	1123	89	2750	65.613455258	stim	stop-signal	125	354701	0.0-9.11-1.11	beast_fmri_test	393	352314,/,352995,/,353674,/,354354,/	t,t,t,t	<img class = center src='/static/experiments/beast_fmri_test/images/T.png'></img>	89,71	2750.0	test	<img class = center src='/static/experiments/beast_fmri_test/images/redT.png'></img>	go	2200.0	3.0	11.0	go	non-target	T	89,Middle Finger	71,Index Finger	650.0	550.0	2150.0	2200.0	0.0	n/a	550.0	0.0	ITI
276224	500	n/a	-1	-1	500	0.0	fixation	poldrack-single-stim	126	355284	0.0-9.12-0.12	beast_fmri_test	393	355035,/	t	<div class = centerbox2><div class = fixation>+</div></div>	none	500.0	test	n/a	n/a	n/a	n/a	n/a	n/a	n/a	n/a	n/a	n/a	n/a	n/a	n/a	n/a	n/a	n/a	n/a	n/a	fixation
275718.17504809389	550.0	n/a	-1	-1	2750	509.824951906	stim	stop-signal	127	358038	0.0-9.12-1.12	beast_fmri_test	393	355715,/,356394,/,357075,/,357755,/,358434,/	t,t,t,t,t	<img class = center src='/static/experiments/beast_fmri_test/images/D.png'></img>	89,71	2750.0	test	<img class = center src='/static/experiments/beast_fmri_test/images/redD.png'></img>	stop	2200.0	3.0	12.0	stop	non-target	D	89,Middle Finger	71,Index Finger	650.0	550.0	2150.0	2200.0	0.0	1.0	550.0	n/a	go_stim
277918.17504809389	2200.0	n/a	-1	-1	2750	509.824951906	stim	stop-signal	127	358038	0.0-9.12-1.12	beast_fmri_test	393	355715,/,356394,/,357075,/,357755,/,358434,/	t,t,t,t,t	<img class = center src='/static/experiments/beast_fmri_test/images/D.png'></img>	89,71	2750.0	test	<img class = center src='/static/experiments/beast_fmri_test/images/redD.png'></img>	stop	2200.0	3.0	12.0	stop	non-target	D	89,Middle Finger	71,Index Finger	650.0	550.0	2150.0	2200.0	0.0	1.0	550.0	n/a	stop_stim
278468.17504809389	509.82495190608665	n/a	-1	-1	2750	509.824951906	stim	stop-signal	127	358038	0.0-9.12-1.12	beast_fmri_test	393	355715,/,356394,/,357075,/,357755,/,358434,/	t,t,t,t,t	<img class = center src='/static/experiments/beast_fmri_test/images/D.png'></img>	89,71	2750.0	test	<img class = center src='/static/experiments/beast_fmri_test/images/redD.png'></img>	stop	2200.0	3.0	12.0	stop	non-target	D	89,Middle Finger	71,Index Finger	650.0	550.0	2150.0	2200.0	0.0	1.0	550.0	n/a	ITI
280005	500	n/a	-1	-1	500	0.0	fixation	poldrack-single-stim	128	359065	0.0-9.13-0.13	beast_fmri_test	393	n/a	n/a	<div class = centerbox2><div class = fixation>+</div></div>	none	500.0	test	n/a	n/a	n/a	n/a	n/a	n/a	n/a	n/a	n/a	n/a	n/a	n/a	n/a	n/a	n/a	n/a	n/a	n/a	fixation
279826.40256897075	600.0	n/a	-1	-1	2750	181.597431029	stim	stop-signal	129	361818	0.0-9.13-1.13	beast_fmri_test	393	359115,/,359794,/,360475,/,361155,/,361832,/	t,t,t,t,t	<img class = center src='/static/experiments/beast_fmri_test/images/T.png'></img>	89,71	2750.0	test	<img class = center src='/static/experiments/beast_fmri_test/images/redT.png'></img>	stop	2150.0	3.0	13.0	stop	non-target	T	89,Middle Finger	71,Index Finger	650.0	600.0	2150.0	2150.0	0.0	1.0	600.0	n/a	go_stim
281976.40256897075	2150.0	n/a	-1	-1	2750	181.597431029	stim	stop-signal	129	361818	0.0-9.13-1.13	beast_fmri_test	393	359115,/,359794,/,360475,/,361155,/,361832,/	t,t,t,t,t	<img class = center src='/static/experiments/beast_fmri_test/images/T.png'></img>	89,71	2750.0	test	<img class = center src='/static/experiments/beast_fmri_test/images/redT.png'></img>	stop	2150.0	3.0	13.0	stop	non-target	T	89,Middle Finger	71,Index Finger	650.0	600.0	2150.0	2150.0	0.0	1.0	600.0	n/a	stop_stim
282576.40256897075	181.59743102923662	n/a	-1	-1	2750	181.597431029	stim	stop-signal	129	361818	0.0-9.13-1.13	beast_fmri_test	393	359115,/,359794,/,360475,/,361155,/,361832,/	t,t,t,t,t	<img class = center src='/static/experiments/beast_fmri_test/images/T.png'></img>	89,71	2750.0	test	<img class = center src='/static/experiments/beast_fmri_test/images/redT.png'></img>	stop	2150.0	3.0	13.0	stop	non-target	T	89,Middle Finger	71,Index Finger	650.0	600.0	2150.0	2150.0	0.0	1.0	600.0	n/a	ITI
283453	500	n/a	-1	-1	500	0.0	fixation	poldrack-single-stim	130	362513	0.0-9.14-0.14	beast_fmri_test	393	362511,/	t	<div class = centerbox2><div class = fixation>+</div></div>	none	500.0	test	n/a	n/a	n/a	n/a	n/a	n/a	n/a	n/a	n/a	n/a	n/a	n/a	n/a	n/a	n/a	n/a	n/a	n/a	fixation
282335.31053037778	2750	n/a	1701	89	2750	1119.68946962	stim	stop-signal	131	365265	0.0-9.14-1.14	beast_fmri_test	393	363189,/,363868,/,364549,/,365230,/,365909,/	t,t,t,t,t	<img class = center src='/static/experiments/beast_fmri_test/images/D.png'></img>	89,71	2750.0	test	<img class = center src='/static/experiments/beast_fmri_test/images/redD.png'></img>	go	2100.0	3.0	14.0	go	non-target	D	89,Middle Finger	71,Index Finger	650.0	650.0	2150.0	2100.0	0.0	n/a	650.0	0.0	go_stim
285085.31053037778	1119.68946962219	n/a	1701	89	2750	1119.68946962	stim	stop-signal	131	365265	0.0-9.14-1.14	beast_fmri_test	393	363189,/,363868,/,364549,/,365230,/,365909,/	t,t,t,t,t	<img class = center src='/static/experiments/beast_fmri_test/images/D.png'></img>	89,71	2750.0	test	<img class = center src='/static/experiments/beast_fmri_test/images/redD.png'></img>	go	2100.0	3.0	14.0	go	non-target	D	89,Middle Finger	71,Index Finger	650.0	650.0	2150.0	2100.0	0.0	n/a	650.0	0.0	ITI
287842	500	n/a	-1	-1	500	0.0	fixation	poldrack-single-stim	132	366902	0.0-9.15-0.15	beast_fmri_test	393	366590,/	t	<div class = centerbox2><div class = fixation>+</div></div>	none	500.0	test	n/a	n/a	n/a	n/a	n/a	n/a	n/a	n/a	n/a	n/a	n/a	n/a	n/a	n/a	n/a	n/a	n/a	n/a	fixation
287478.7473772823	650.0	n/a	-1	-1	2750	366.252622718	stim	stop-signal	133	369655	0.0-9.15-1.15	beast_fmri_test	393	367269,/,367949,/,368628,/,369309,/,369990,/	t,t,t,t,t	<img class = center src='/static/experiments/beast_fmri_test/images/D.png'></img>	89,71	2750.0	test	<img class = center src='/static/experiments/beast_fmri_test/images/redD.png'></img>	stop	2100.0	3.0	15.0	stop	target	D	89,Middle Finger	71,Index Finger	650.0	650.0	2100.0	2100.0	0.0	1.0	650.0	n/a	go_stim
289578.7473772823	2100.0	n/a	-1	-1	2750	366.252622718	stim	stop-signal	133	369655	0.0-9.15-1.15	beast_fmri_test	393	367269,/,367949,/,368628,/,369309,/,369990,/	t,t,t,t,t	<img class = center src='/static/experiments/beast_fmri_test/images/D.png'></img>	89,71	2750.0	test	<img class = center src='/static/experiments/beast_fmri_test/images/redD.png'></img>	stop	2100.0	3.0	15.0	stop	target	D	89,Middle Finger	71,Index Finger	650.0	650.0	2100.0	2100.0	0.0	1.0	650.0	n/a	stop_stim
290228.7473772823	366.25262271771891	n/a	-1	-1	2750	366.252622718	stim	stop-signal	133	369655	0.0-9.15-1.15	beast_fmri_test	393	367269,/,367949,/,368628,/,369309,/,369990,/	t,t,t,t,t	<img class = center src='/static/experiments/beast_fmri_test/images/D.png'></img>	89,71	2750.0	test	<img class = center src='/static/experiments/beast_fmri_test/images/redD.png'></img>	stop	2100.0	3.0	15.0	stop	target	D	89,Middle Finger	71,Index Finger	650.0	650.0	2100.0	2100.0	0.0	1.0	650.0	n/a	ITI
291480	500	n/a	-1	-1	500	0.0	fixation	poldrack-single-stim	134	370540	0.0-9.16-0.16	beast_fmri_test	393	n/a	n/a	<div class = centerbox2><div class = fixation>+</div></div>	none	500.0	test	n/a	n/a	n/a	n/a	n/a	n/a	n/a	n/a	n/a	n/a	n/a	n/a	n/a	n/a	n/a	n/a	n/a	n/a	fixation
290851.59516697266	700.0	n/a	-1	-1	2750	627.404833027	stim	stop-signal	135	373289	0.0-9.16-1.16	beast_fmri_test	393	370669,/,371350,/,372028,/,372705,/,373384,/	t,t,t,t,t	<img class = center src='/static/experiments/beast_fmri_test/images/T.png'></img>	89,71	2750.0	test	<img class = center src='/static/experiments/beast_fmri_test/images/redT.png'></img>	stop	2050.0	3.0	16.0	stop	target	T	89,Middle Finger	71,Index Finger	700.0	650.0	2050.0	2100.0	0.0	1.0	700.0	n/a	go_stim
292901.59516697266	2050.0	n/a	-1	-1	2750	627.404833027	stim	stop-signal	135	373289	0.0-9.16-1.16	beast_fmri_test	393	370669,/,371350,/,372028,/,372705,/,373384,/	t,t,t,t,t	<img class = center src='/static/experiments/beast_fmri_test/images/T.png'></img>	89,71	2750.0	test	<img class = center src='/static/experiments/beast_fmri_test/images/redT.png'></img>	stop	2050.0	3.0	16.0	stop	target	T	89,Middle Finger	71,Index Finger	700.0	650.0	2050.0	2100.0	0.0	1.0	700.0	n/a	stop_stim
293601.59516697266	627.40483302732025	n/a	-1	-1	2750	627.404833027	stim	stop-signal	135	373289	0.0-9.16-1.16	beast_fmri_test	393	370669,/,371350,/,372028,/,372705,/,373384,/	t,t,t,t,t	<img class = center src='/static/experiments/beast_fmri_test/images/T.png'></img>	89,71	2750.0	test	<img class = center src='/static/experiments/beast_fmri_test/images/redT.png'></img>	stop	2050.0	3.0	16.0	stop	target	T	89,Middle Finger	71,Index Finger	700.0	650.0	2050.0	2100.0	0.0	1.0	700.0	n/a	ITI
295375	500	n/a	-1	-1	500	0.0	fixation	poldrack-single-stim	136	374435	0.0-9.17-0.17	beast_fmri_test	393	374065,/	t	<div class = centerbox2><div class = fixation>+</div></div>	none	500.0	test	n/a	n/a	n/a	n/a	n/a	n/a	n/a	n/a	n/a	n/a	n/a	n/a	n/a	n/a	n/a	n/a	n/a	n/a	fixation
295271.83062891377	2750	n/a	1122	71	2750	107.169371086	stim	stop-signal	137	377189	0.0-9.17-1.17	beast_fmri_test	393	374745,/,375424,/,376104,/,376785,/	t,t,t,t	<img class = center src='/static/experiments/beast_fmri_test/images/P.png'></img>	89,71	2750.0	test	<img class = center src='/static/experiments/beast_fmri_test/images/redP.png'></img>	go	2100.0	3.0	17.0	go	non-target	P	89,Middle Finger	71,Index Finger	750.0	650.0	2050.0	2100.0	1.0	n/a	650.0	1.0	go_stim
298021.83062891377	107.16937108622706	n/a	1122	71	2750	107.169371086	stim	stop-signal	137	377189	0.0-9.17-1.17	beast_fmri_test	393	374745,/,375424,/,376104,/,376785,/	t,t,t,t	<img class = center src='/static/experiments/beast_fmri_test/images/P.png'></img>	89,71	2750.0	test	<img class = center src='/static/experiments/beast_fmri_test/images/redP.png'></img>	go	2100.0	3.0	17.0	go	non-target	P	89,Middle Finger	71,Index Finger	750.0	650.0	2050.0	2100.0	1.0	n/a	650.0	1.0	ITI
298755	500	n/a	-1	-1	500	0.0	fixation	poldrack-single-stim	138	377815	0.0-9.18-0.18	beast_fmri_test	393	377465,/	t	<div class = centerbox2><div class = fixation>+</div></div>	none	500.0	test	n/a	n/a	n/a	n/a	n/a	n/a	n/a	n/a	n/a	n/a	n/a	n/a	n/a	n/a	n/a	n/a	n/a	n/a	fixation
296002.73667997192	2750	n/a	1068	71	2750	2755.26332003	stim	stop-signal	139	380568	0.0-9.18-1.18	beast_fmri_test	393	378145,/,378825,/,379505,/,380184,/,380864,/,381545,/,382223,/,382900,/	t,t,t,t,t,t,t,t	<img class = center src='/static/experiments/beast_fmri_test/images/P.png'></img>	89,71	2750.0	test	<img class = center src='/static/experiments/beast_fmri_test/images/redP.png'></img>	go	2100.0	3.0	18.0	go	non-target	P	89,Middle Finger	71,Index Finger	750.0	650.0	2050.0	2100.0	1.0	n/a	650.0	1.0	go_stim
298752.73667997192	2755.263320028072	n/a	1068	71	2750	2755.26332003	stim	stop-signal	139	380568	0.0-9.18-1.18	beast_fmri_test	393	378145,/,378825,/,379505,/,380184,/,380864,/,381545,/,382223,/,382900,/	t,t,t,t,t,t,t,t	<img class = center src='/static/experiments/beast_fmri_test/images/P.png'></img>	89,71	2750.0	test	<img class = center src='/static/experiments/beast_fmri_test/images/redP.png'></img>	go	2100.0	3.0	18.0	go	non-target	P	89,Middle Finger	71,Index Finger	750.0	650.0	2050.0	2100.0	1.0	n/a	650.0	1.0	ITI
304777	500	n/a	-1	-1	500	0.0	fixation	poldrack-single-stim	140	383837	0.0-9.19-0.19	beast_fmri_test	393	383581,/	t	<div class = centerbox2><div class = fixation>+</div></div>	none	500.0	test	n/a	n/a	n/a	n/a	n/a	n/a	n/a	n/a	n/a	n/a	n/a	n/a	n/a	n/a	n/a	n/a	n/a	n/a	fixation
304109.1904098115	650.0	n/a	1052	71	2750	671.809590189	stim	stop-signal	141	386591	0.0-9.19-1.19	beast_fmri_test	393	384260,/,384940,/,385620,/,386301,/,386980,/	t,t,t,t,t	<img class = center src='/static/experiments/beast_fmri_test/images/P.png'></img>	89,71	2750.0	test	<img class = center src='/static/experiments/beast_fmri_test/images/redP.png'></img>	stop	2100.0	3.0	19.0	stop	non-target	P	89,Middle Finger	71,Index Finger	750.0	650.0	2050.0	2100.0	0.0	0.0	650.0	n/a	go_stim
306209.1904098115	2100.0	n/a	1052	71	2750	671.809590189	stim	stop-signal	141	386591	0.0-9.19-1.19	beast_fmri_test	393	384260,/,384940,/,385620,/,386301,/,386980,/	t,t,t,t,t	<img class = center src='/static/experiments/beast_fmri_test/images/P.png'></img>	89,71	2750.0	test	<img class = center src='/static/experiments/beast_fmri_test/images/redP.png'></img>	stop	2100.0	3.0	19.0	stop	non-target	P	89,Middle Finger	71,Index Finger	750.0	650.0	2050.0	2100.0	0.0	0.0	650.0	n/a	stop_stim
306859.1904098115	671.80959018851661	n/a	1052	71	2750	671.809590189	stim	stop-signal	141	386591	0.0-9.19-1.19	beast_fmri_test	393	384260,/,384940,/,385620,/,386301,/,386980,/	t,t,t,t,t	<img class = center src='/static/experiments/beast_fmri_test/images/P.png'></img>	89,71	2750.0	test	<img class = center src='/static/experiments/beast_fmri_test/images/redP.png'></img>	stop	2100.0	3.0	19.0	stop	non-target	P	89,Middle Finger	71,Index Finger	750.0	650.0	2050.0	2100.0	0.0	0.0	650.0	n/a	ITI
308719	500	n/a	-1	-1	500	0.0	fixation	poldrack-single-stim	142	387779	0.0-9.20-0.20	beast_fmri_test	393	387661,/	t	<div class = centerbox2><div class = fixation>+</div></div>	none	500.0	test	n/a	n/a	n/a	n/a	n/a	n/a	n/a	n/a	n/a	n/a	n/a	n/a	n/a	n/a	n/a	n/a	n/a	n/a	fixation
305931.15006628865	2750	n/a	1699	71	2750	2790.84993371	stim	stop-signal	143	390532	0.0-9.20-1.20	beast_fmri_test	393	388341,/,389021,/,389700,/,390380,/,391061,/,391740,/,392417,/,393095,/	t,t,t,t,t,t,t,t	<img class = center src='/static/experiments/beast_fmri_test/images/B.png'></img>	89,71	2750.0	test	<img class = center src='/static/experiments/beast_fmri_test/images/redB.png'></img>	go	2150.0	3.0	20.0	go	non-target	B	89,Middle Finger	71,Index Finger	750.0	600.0	2050.0	2150.0	1.0	n/a	600.0	1.0	go_stim
308681.15006628865	2790.8499337113508	n/a	1699	71	2750	2790.84993371	stim	stop-signal	143	390532	0.0-9.20-1.20	beast_fmri_test	393	388341,/,389021,/,389700,/,390380,/,391061,/,391740,/,392417,/,393095,/	t,t,t,t,t,t,t,t	<img class = center src='/static/experiments/beast_fmri_test/images/B.png'></img>	89,71	2750.0	test	<img class = center src='/static/experiments/beast_fmri_test/images/redB.png'></img>	go	2150.0	3.0	20.0	go	non-target	B	89,Middle Finger	71,Index Finger	750.0	600.0	2050.0	2150.0	1.0	n/a	600.0	1.0	ITI
314773	500	n/a	-1	-1	500	0.0	fixation	poldrack-single-stim	144	393833	0.0-9.21-0.21	beast_fmri_test	393	393776,/	t	<div class = centerbox2><div class = fixation>+</div></div>	none	500.0	test	n/a	n/a	n/a	n/a	n/a	n/a	n/a	n/a	n/a	n/a	n/a	n/a	n/a	n/a	n/a	n/a	n/a	n/a	fixation
313722.90634128219	750.0	n/a	-1	-1	2750	1053.09365872	stim	stop-signal	145	396586	0.0-9.21-1.21	beast_fmri_test	393	394456,/,395135,/,395816,/,396496,/,397175,/	t,t,t,t,t	<img class = center src='/static/experiments/beast_fmri_test/images/P.png'></img>	89,71	2750.0	test	<img class = center src='/static/experiments/beast_fmri_test/images/redP.png'></img>	stop	2000.0	3.0	21.0	stop	target	P	89,Middle Finger	71,Index Finger	750.0	600.0	2000.0	2150.0	0.0	1.0	750.0	n/a	go_stim
315722.90634128219	2000.0	n/a	-1	-1	2750	1053.09365872	stim	stop-signal	145	396586	0.0-9.21-1.21	beast_fmri_test	393	394456,/,395135,/,395816,/,396496,/,397175,/	t,t,t,t,t	<img class = center src='/static/experiments/beast_fmri_test/images/P.png'></img>	89,71	2750.0	test	<img class = center src='/static/experiments/beast_fmri_test/images/redP.png'></img>	stop	2000.0	3.0	21.0	stop	target	P	89,Middle Finger	71,Index Finger	750.0	600.0	2000.0	2150.0	0.0	1.0	750.0	n/a	stop_stim
