onset	duration	text	rt	key_press	block_duration	timing_post_trial	trial_id	trial_type	trial_index	time_elapsed	internal_node_id	exp_id	subject_id	trigger_times	triggers	stimulus	possible_responses	stim_duration	exp_stage	SS_stimulus	SS_trial_type	SS_duration	load	trial_num	stop_trial_type	adaptive_trial_type	stim	yes_response_key	no_response_key	SSD_target	SSD_non_target	SSTarget	SSNonTarget	go_acc	stop_acc	SS_delay	adaptive_acc	new_trial_type
test	10880	n/a	-1	-1	10880	0.0	practice-no-stop-feedback	poldrack-single-stim	588	1633422	0.0-24.0	beast_fmri_test	393	1622533,/,1623214,/,1623895,/,1624575,/,1625254,/,1625934,/,1626613,/,1627295,/,1627975,/,1628655,/,1629333,/,1630015,/,1630696,/,1631376,/,1632055,/,1632737,/,1633420,/	t,t,t,t,t,t,t,t,t,t,t,t,t,t,t,t,t	"<div class = ""centerbox2_2""><p class = ""block-text2"">Your delay is 3 trials.</p><p class = block-text2>Please wait for the scanner to start the block</p></div>"	77	10880.0	n/a	n/a	n/a	n/a	n/a	n/a	n/a	n/a	n/a	n/a	n/a	n/a	n/a	n/a	n/a	n/a	n/a	n/a	n/a	start_functional_block
11392	500	n/a	-1	-1	500	0.0	fixation	poldrack-single-stim	589	1633925	0.0-25.0-0.0	beast_fmri_test	393	n/a	n/a	<div class = centerbox2><div class = fixation>+</div></div>	none	500.0	test	n/a	n/a	n/a	n/a	n/a	n/a	n/a	n/a	n/a	n/a	n/a	n/a	n/a	n/a	n/a	n/a	n/a	n/a	fixation
11102.259349336848	temp_go_duration	n/a	1337	71	2750	294.740650663	stim	stop-signal	590	1636680	0.0-25.0-1.0	beast_fmri_test	393	1634100,/,1634780,/,1635460,/,1636140,/,1636820,/	t,t,t,t,t	<img class = center src='/static/experiments/beast_fmri_test/images/V.png'></img>	89,71	2750.0	test	<img class = center src='/static/experiments/beast_fmri_test/images/redV.png'></img>	stop	-1.0	3.0	0.0	stop	temp-non-target	V	89,Middle Finger	71,Index Finger	700.0	700.0	2050.0	2050.0	0.0	0.0	n/a	n/a	go_stim
temp-non-target	temp_stop_duration	n/a	1337	71	2750	294.740650663	stim	stop-signal	590	1636680	0.0-25.0-1.0	beast_fmri_test	393	1634100,/,1634780,/,1635460,/,1636140,/,1636820,/	t,t,t,t,t	<img class = center src='/static/experiments/beast_fmri_test/images/V.png'></img>	89,71	2750.0	test	<img class = center src='/static/experiments/beast_fmri_test/images/redV.png'></img>	stop	-1.0	3.0	0.0	stop	temp-non-target	V	89,Middle Finger	71,Index Finger	700.0	700.0	2050.0	2050.0	0.0	0.0	n/a	n/a	stop_stim
13852.259349336848	294.74065066307185	n/a	1337	71	2750	294.740650663	stim	stop-signal	590	1636680	0.0-25.0-1.0	beast_fmri_test	393	1634100,/,1634780,/,1635460,/,1636140,/,1636820,/	t,t,t,t,t	<img class = center src='/static/experiments/beast_fmri_test/images/V.png'></img>	89,71	2750.0	test	<img class = center src='/static/experiments/beast_fmri_test/images/redV.png'></img>	stop	-1.0	3.0	0.0	stop	temp-non-target	V	89,Middle Finger	71,Index Finger	700.0	700.0	2050.0	2050.0	0.0	0.0	n/a	n/a	ITI
14995	500	n/a	-1	-1	500	0.0	fixation	poldrack-single-stim	591	1637528	0.0-25.1-0.1	beast_fmri_test	393	1637500,/	t	<div class = centerbox2><div class = fixation>+</div></div>	none	500.0	test	n/a	n/a	n/a	n/a	n/a	n/a	n/a	n/a	n/a	n/a	n/a	n/a	n/a	n/a	n/a	n/a	n/a	n/a	fixation
13200.974261329276	2750	n/a	501	71	2750	1797.02573867	stim	stop-signal	592	1640281	0.0-25.1-1.1	beast_fmri_test	393	1638181,/,1638860,/,1639539,/,1640220,/,1640900,/,1641580,/	t,t,t,t,t,t	<img class = center src='/static/experiments/beast_fmri_test/images/B.png'></img>	89,71	2750.0	test	<img class = center src='/static/experiments/beast_fmri_test/images/redB.png'></img>	go	-1.0	3.0	1.0	go	temp-non-target	B	89,Middle Finger	71,Index Finger	700.0	700.0	2050.0	2050.0	0.0	n/a	n/a	n/a	go_stim
15950.974261329276	1797.0257386707431	n/a	501	71	2750	1797.02573867	stim	stop-signal	592	1640281	0.0-25.1-1.1	beast_fmri_test	393	1638181,/,1638860,/,1639539,/,1640220,/,1640900,/,1641580,/	t,t,t,t,t,t	<img class = center src='/static/experiments/beast_fmri_test/images/B.png'></img>	89,71	2750.0	test	<img class = center src='/static/experiments/beast_fmri_test/images/redB.png'></img>	go	-1.0	3.0	1.0	go	temp-non-target	B	89,Middle Finger	71,Index Finger	700.0	700.0	2050.0	2050.0	0.0	n/a	n/a	n/a	ITI
20104	500	n/a	-1	-1	500	0.0	fixation	poldrack-single-stim	593	1642637	0.0-25.2-0.2	beast_fmri_test	393	1642260,/	t	<div class = centerbox2><div class = fixation>+</div></div>	none	500.0	test	n/a	n/a	n/a	n/a	n/a	n/a	n/a	n/a	n/a	n/a	n/a	n/a	n/a	n/a	n/a	n/a	n/a	n/a	fixation
19836.080651923316	temp_go_duration	n/a	635	71	2750	273.919348077	stim	stop-signal	594	1645393	0.0-25.2-1.2	beast_fmri_test	393	1642942,/,1643624,/,1644304,/,1644984,/,1645664,/	t,t,t,t,t	<img class = center src='/static/experiments/beast_fmri_test/images/B.png'></img>	89,71	2750.0	test	<img class = center src='/static/experiments/beast_fmri_test/images/redB.png'></img>	stop	-1.0	3.0	2.0	stop	temp-non-target	B	89,Middle Finger	71,Index Finger	700.0	700.0	2050.0	2050.0	0.0	0.0	n/a	n/a	go_stim
temp-non-target	temp_stop_duration	n/a	635	71	2750	273.919348077	stim	stop-signal	594	1645393	0.0-25.2-1.2	beast_fmri_test	393	1642942,/,1643624,/,1644304,/,1644984,/,1645664,/	t,t,t,t,t	<img class = center src='/static/experiments/beast_fmri_test/images/B.png'></img>	89,71	2750.0	test	<img class = center src='/static/experiments/beast_fmri_test/images/redB.png'></img>	stop	-1.0	3.0	2.0	stop	temp-non-target	B	89,Middle Finger	71,Index Finger	700.0	700.0	2050.0	2050.0	0.0	0.0	n/a	n/a	stop_stim
22586.080651923316	273.91934807668281	n/a	635	71	2750	273.919348077	stim	stop-signal	594	1645393	0.0-25.2-1.2	beast_fmri_test	393	1642942,/,1643624,/,1644304,/,1644984,/,1645664,/	t,t,t,t,t	<img class = center src='/static/experiments/beast_fmri_test/images/B.png'></img>	89,71	2750.0	test	<img class = center src='/static/experiments/beast_fmri_test/images/redB.png'></img>	stop	-1.0	3.0	2.0	stop	temp-non-target	B	89,Middle Finger	71,Index Finger	700.0	700.0	2050.0	2050.0	0.0	0.0	n/a	n/a	ITI
23689	500	n/a	-1	-1	500	0.0	fixation	poldrack-single-stim	595	1646222	0.0-25.3-0.3	beast_fmri_test	393	n/a	n/a	<div class = centerbox2><div class = fixation>+</div></div>	none	500.0	test	n/a	n/a	n/a	n/a	n/a	n/a	n/a	n/a	n/a	n/a	n/a	n/a	n/a	n/a	n/a	n/a	n/a	n/a	fixation
23606.275283766678	700.0	n/a	620	89	2750	85.7247162332	stim	stop-signal	596	1648975	0.0-25.3-1.3	beast_fmri_test	393	1646344,/,1647024,/,1647704,/,1648384,/	t,t,t,t	<img class = center src='/static/experiments/beast_fmri_test/images/V.png'></img>	89,71	2750.0	test	<img class = center src='/static/experiments/beast_fmri_test/images/redV.png'></img>	stop	2050.0	3.0	3.0	stop	target	V	89,Middle Finger	71,Index Finger	700.0	700.0	2050.0	2050.0	0.0	0.0	700.0	n/a	go_stim
25656.275283766678	2050.0	n/a	620	89	2750	85.7247162332	stim	stop-signal	596	1648975	0.0-25.3-1.3	beast_fmri_test	393	1646344,/,1647024,/,1647704,/,1648384,/	t,t,t,t	<img class = center src='/static/experiments/beast_fmri_test/images/V.png'></img>	89,71	2750.0	test	<img class = center src='/static/experiments/beast_fmri_test/images/redV.png'></img>	stop	2050.0	3.0	3.0	stop	target	V	89,Middle Finger	71,Index Finger	700.0	700.0	2050.0	2050.0	0.0	0.0	700.0	n/a	stop_stim
26356.275283766678	85.724716233219809	n/a	620	89	2750	85.7247162332	stim	stop-signal	596	1648975	0.0-25.3-1.3	beast_fmri_test	393	1646344,/,1647024,/,1647704,/,1648384,/	t,t,t,t	<img class = center src='/static/experiments/beast_fmri_test/images/V.png'></img>	89,71	2750.0	test	<img class = center src='/static/experiments/beast_fmri_test/images/redV.png'></img>	stop	2050.0	3.0	3.0	stop	target	V	89,Middle Finger	71,Index Finger	700.0	700.0	2050.0	2050.0	0.0	0.0	700.0	n/a	ITI
27086	500	n/a	-1	-1	500	0.0	fixation	poldrack-single-stim	597	1649619	0.0-25.4-0.4	beast_fmri_test	393	1649117,/	t	<div class = centerbox2><div class = fixation>+</div></div>	none	500.0	test	n/a	n/a	n/a	n/a	n/a	n/a	n/a	n/a	n/a	n/a	n/a	n/a	n/a	n/a	n/a	n/a	n/a	n/a	fixation
27077.709457052173	2750	n/a	1014	89	2750	15.2905429478	stim	stop-signal	598	1652376	0.0-25.4-1.4	beast_fmri_test	393	1649743,/,1650424,/,1651107,/,1651787,/	t,t,t,t	<img class = center src='/static/experiments/beast_fmri_test/images/B.png'></img>	89,71	2750.0	test	<img class = center src='/static/experiments/beast_fmri_test/images/redB.png'></img>	go	2100.0	3.0	4.0	go	target	B	89,Middle Finger	71,Index Finger	650.0	700.0	2100.0	2050.0	1.0	n/a	650.0	1.0	go_stim
29827.709457052173	15.290542947799587	n/a	1014	89	2750	15.2905429478	stim	stop-signal	598	1652376	0.0-25.4-1.4	beast_fmri_test	393	1649743,/,1650424,/,1651107,/,1651787,/	t,t,t,t	<img class = center src='/static/experiments/beast_fmri_test/images/B.png'></img>	89,71	2750.0	test	<img class = center src='/static/experiments/beast_fmri_test/images/redB.png'></img>	go	2100.0	3.0	4.0	go	target	B	89,Middle Finger	71,Index Finger	650.0	700.0	2100.0	2050.0	1.0	n/a	650.0	1.0	ITI
30416	500	n/a	-1	-1	500	0.0	fixation	poldrack-single-stim	599	1652949	0.0-25.5-0.5	beast_fmri_test	393	1652467,/	t	<div class = centerbox2><div class = fixation>+</div></div>	none	500.0	test	n/a	n/a	n/a	n/a	n/a	n/a	n/a	n/a	n/a	n/a	n/a	n/a	n/a	n/a	n/a	n/a	n/a	n/a	fixation
30078.752763760509	700.0	n/a	1097	71	2750	338.24723624	stim	stop-signal	600	1655700	0.0-25.5-1.5	beast_fmri_test	393	1653147,/,1653829,/,1654509,/,1655189,/,1655869,/	t,t,t,t,t	<img class = center src='/static/experiments/beast_fmri_test/images/D.png'></img>	89,71	2750.0	test	<img class = center src='/static/experiments/beast_fmri_test/images/redD.png'></img>	stop	2050.0	3.0	5.0	stop	non-target	D	89,Middle Finger	71,Index Finger	650.0	700.0	2100.0	2050.0	0.0	0.0	700.0	n/a	go_stim
32128.752763760509	2050.0	n/a	1097	71	2750	338.24723624	stim	stop-signal	600	1655700	0.0-25.5-1.5	beast_fmri_test	393	1653147,/,1653829,/,1654509,/,1655189,/,1655869,/	t,t,t,t,t	<img class = center src='/static/experiments/beast_fmri_test/images/D.png'></img>	89,71	2750.0	test	<img class = center src='/static/experiments/beast_fmri_test/images/redD.png'></img>	stop	2050.0	3.0	5.0	stop	non-target	D	89,Middle Finger	71,Index Finger	650.0	700.0	2100.0	2050.0	0.0	0.0	700.0	n/a	stop_stim
32828.752763760509	338.24723623959665	n/a	1097	71	2750	338.24723624	stim	stop-signal	600	1655700	0.0-25.5-1.5	beast_fmri_test	393	1653147,/,1653829,/,1654509,/,1655189,/,1655869,/	t,t,t,t,t	<img class = center src='/static/experiments/beast_fmri_test/images/D.png'></img>	89,71	2750.0	test	<img class = center src='/static/experiments/beast_fmri_test/images/redD.png'></img>	stop	2050.0	3.0	5.0	stop	non-target	D	89,Middle Finger	71,Index Finger	650.0	700.0	2100.0	2050.0	0.0	0.0	700.0	n/a	ITI
34059	500	n/a	-1	-1	500	0.0	fixation	poldrack-single-stim	601	1656592	0.0-25.6-0.6	beast_fmri_test	393	1656548,/	t	<div class = centerbox2><div class = fixation>+</div></div>	none	500.0	test	n/a	n/a	n/a	n/a	n/a	n/a	n/a	n/a	n/a	n/a	n/a	n/a	n/a	n/a	n/a	n/a	n/a	n/a	fixation
30970.893720315536	650.0	n/a	-1	-1	2750	3090.10627968	stim	stop-signal	602	1659344	0.0-25.6-1.6	beast_fmri_test	393	1657228,/,1657908,/,1658588,/,1659269,/,1659948,/,1660629,/,1661309,/,1661989,/	t,t,t,t,t,t,t,t	<img class = center src='/static/experiments/beast_fmri_test/images/T.png'></img>	89,71	2750.0	test	<img class = center src='/static/experiments/beast_fmri_test/images/redT.png'></img>	stop	2100.0	3.0	6.0	stop	non-target	T	89,Middle Finger	71,Index Finger	650.0	650.0	2100.0	2100.0	0.0	1.0	650.0	n/a	go_stim
33070.893720315536	2100.0	n/a	-1	-1	2750	3090.10627968	stim	stop-signal	602	1659344	0.0-25.6-1.6	beast_fmri_test	393	1657228,/,1657908,/,1658588,/,1659269,/,1659948,/,1660629,/,1661309,/,1661989,/	t,t,t,t,t,t,t,t	<img class = center src='/static/experiments/beast_fmri_test/images/T.png'></img>	89,71	2750.0	test	<img class = center src='/static/experiments/beast_fmri_test/images/redT.png'></img>	stop	2100.0	3.0	6.0	stop	non-target	T	89,Middle Finger	71,Index Finger	650.0	650.0	2100.0	2100.0	0.0	1.0	650.0	n/a	stop_stim
33720.893720315536	3090.1062796844908	n/a	-1	-1	2750	3090.10627968	stim	stop-signal	602	1659344	0.0-25.6-1.6	beast_fmri_test	393	1657228,/,1657908,/,1658588,/,1659269,/,1659948,/,1660629,/,1661309,/,1661989,/	t,t,t,t,t,t,t,t	<img class = center src='/static/experiments/beast_fmri_test/images/T.png'></img>	89,71	2750.0	test	<img class = center src='/static/experiments/beast_fmri_test/images/redT.png'></img>	stop	2100.0	3.0	6.0	stop	non-target	T	89,Middle Finger	71,Index Finger	650.0	650.0	2100.0	2100.0	0.0	1.0	650.0	n/a	ITI
40468	500	n/a	-1	-1	500	0.0	fixation	poldrack-single-stim	603	1663001	0.0-25.7-0.7	beast_fmri_test	393	1662670,/	t	<div class = centerbox2><div class = fixation>+</div></div>	none	500.0	test	n/a	n/a	n/a	n/a	n/a	n/a	n/a	n/a	n/a	n/a	n/a	n/a	n/a	n/a	n/a	n/a	n/a	n/a	fixation
40466.4246653351	2750	n/a	831	71	2750	6.57533466499	stim	stop-signal	604	1665756	0.0-25.7-1.7	beast_fmri_test	393	1663353,/,1664033,/,1664713,/,1665393,/	t,t,t,t	<img class = center src='/static/experiments/beast_fmri_test/images/P.png'></img>	89,71	2750.0	test	<img class = center src='/static/experiments/beast_fmri_test/images/redP.png'></img>	go	2050.0	3.0	7.0	go	non-target	P	89,Middle Finger	71,Index Finger	650.0	700.0	2100.0	2050.0	1.0	n/a	700.0	1.0	go_stim
43216.4246653351	6.5753346649884055	n/a	831	71	2750	6.57533466499	stim	stop-signal	604	1665756	0.0-25.7-1.7	beast_fmri_test	393	1663353,/,1664033,/,1664713,/,1665393,/	t,t,t,t	<img class = center src='/static/experiments/beast_fmri_test/images/P.png'></img>	89,71	2750.0	test	<img class = center src='/static/experiments/beast_fmri_test/images/redP.png'></img>	go	2050.0	3.0	7.0	go	non-target	P	89,Middle Finger	71,Index Finger	650.0	700.0	2100.0	2050.0	1.0	n/a	700.0	1.0	ITI
43788	500	n/a	-1	-1	500	0.0	fixation	poldrack-single-stim	605	1666321	0.0-25.8-0.8	beast_fmri_test	393	1666073,/	t	<div class = centerbox2><div class = fixation>+</div></div>	none	500.0	test	n/a	n/a	n/a	n/a	n/a	n/a	n/a	n/a	n/a	n/a	n/a	n/a	n/a	n/a	n/a	n/a	n/a	n/a	fixation
43775.501262420556	2750	n/a	1913	71	2750	16.4987375794	stim	stop-signal	606	1669075	0.0-25.8-1.8	beast_fmri_test	393	1666753,/,1667433,/,1668113,/,1668793,/	t,t,t,t	<img class = center src='/static/experiments/beast_fmri_test/images/T.png'></img>	89,71	2750.0	test	<img class = center src='/static/experiments/beast_fmri_test/images/redT.png'></img>	go	2050.0	3.0	8.0	go	non-target	T	89,Middle Finger	71,Index Finger	650.0	700.0	2100.0	2050.0	1.0	n/a	700.0	1.0	go_stim
46525.501262420556	16.498737579440586	n/a	1913	71	2750	16.4987375794	stim	stop-signal	606	1669075	0.0-25.8-1.8	beast_fmri_test	393	1666753,/,1667433,/,1668113,/,1668793,/	t,t,t,t	<img class = center src='/static/experiments/beast_fmri_test/images/T.png'></img>	89,71	2750.0	test	<img class = center src='/static/experiments/beast_fmri_test/images/redT.png'></img>	go	2050.0	3.0	8.0	go	non-target	T	89,Middle Finger	71,Index Finger	650.0	700.0	2100.0	2050.0	1.0	n/a	700.0	1.0	ITI
47119	500	n/a	-1	-1	500	0.0	fixation	poldrack-single-stim	607	1669652	0.0-25.9-0.9	beast_fmri_test	393	1669474,/	t	<div class = centerbox2><div class = fixation>+</div></div>	none	500.0	test	n/a	n/a	n/a	n/a	n/a	n/a	n/a	n/a	n/a	n/a	n/a	n/a	n/a	n/a	n/a	n/a	n/a	n/a	fixation
44900.985956799472	700.0	n/a	-1	-1	2750	2222.0140432	stim	stop-signal	608	1672406	0.0-25.9-1.9	beast_fmri_test	393	1670153,/,1670833,/,1671512,/,1672192,/,1672873,/,1673553,/,1674232,/	t,t,t,t,t,t,t	<img class = center src='/static/experiments/beast_fmri_test/images/V.png'></img>	89,71	2750.0	test	<img class = center src='/static/experiments/beast_fmri_test/images/redV.png'></img>	stop	2050.0	3.0	9.0	stop	non-target	V	89,Middle Finger	71,Index Finger	650.0	700.0	2100.0	2050.0	0.0	1.0	700.0	n/a	go_stim
46950.985956799472	2050.0	n/a	-1	-1	2750	2222.0140432	stim	stop-signal	608	1672406	0.0-25.9-1.9	beast_fmri_test	393	1670153,/,1670833,/,1671512,/,1672192,/,1672873,/,1673553,/,1674232,/	t,t,t,t,t,t,t	<img class = center src='/static/experiments/beast_fmri_test/images/V.png'></img>	89,71	2750.0	test	<img class = center src='/static/experiments/beast_fmri_test/images/redV.png'></img>	stop	2050.0	3.0	9.0	stop	non-target	V	89,Middle Finger	71,Index Finger	650.0	700.0	2100.0	2050.0	0.0	1.0	700.0	n/a	stop_stim
47650.985956799472	2222.0140432004982	n/a	-1	-1	2750	2222.0140432	stim	stop-signal	608	1672406	0.0-25.9-1.9	beast_fmri_test	393	1670153,/,1670833,/,1671512,/,1672192,/,1672873,/,1673553,/,1674232,/	t,t,t,t,t,t,t	<img class = center src='/static/experiments/beast_fmri_test/images/V.png'></img>	89,71	2750.0	test	<img class = center src='/static/experiments/beast_fmri_test/images/redV.png'></img>	stop	2050.0	3.0	9.0	stop	non-target	V	89,Middle Finger	71,Index Finger	650.0	700.0	2100.0	2050.0	0.0	1.0	700.0	n/a	ITI
52662	500	n/a	-1	-1	500	0.0	fixation	poldrack-single-stim	609	1675195	0.0-25.10-0.10	beast_fmri_test	393	1674914,/	t	<div class = centerbox2><div class = fixation>+</div></div>	none	500.0	test	n/a	n/a	n/a	n/a	n/a	n/a	n/a	n/a	n/a	n/a	n/a	n/a	n/a	n/a	n/a	n/a	n/a	n/a	fixation
51367.572327514645	2750	n/a	1919	89	2750	1298.42767249	stim	stop-signal	610	1677949	0.0-25.10-1.10	beast_fmri_test	393	1675593,/,1676274,/,1676953,/,1677633,/,1678313,/,1678993,/	t,t,t,t,t,t	<img class = center src='/static/experiments/beast_fmri_test/images/V.png'></img>	89,71	2750.0	test	<img class = center src='/static/experiments/beast_fmri_test/images/redV.png'></img>	go	2000.0	3.0	10.0	go	non-target	V	89,Middle Finger	71,Index Finger	650.0	750.0	2100.0	2000.0	0.0	n/a	750.0	0.0	go_stim
54117.572327514645	1298.4276724852666	n/a	1919	89	2750	1298.42767249	stim	stop-signal	610	1677949	0.0-25.10-1.10	beast_fmri_test	393	1675593,/,1676274,/,1676953,/,1677633,/,1678313,/,1678993,/	t,t,t,t,t,t	<img class = center src='/static/experiments/beast_fmri_test/images/V.png'></img>	89,71	2750.0	test	<img class = center src='/static/experiments/beast_fmri_test/images/redV.png'></img>	go	2000.0	3.0	10.0	go	non-target	V	89,Middle Finger	71,Index Finger	650.0	750.0	2100.0	2000.0	0.0	n/a	750.0	0.0	ITI
57275	500	n/a	-1	-1	500	0.0	fixation	poldrack-single-stim	611	1679808	0.0-25.11-0.11	beast_fmri_test	393	1679673,/	t	<div class = centerbox2><div class = fixation>+</div></div>	none	500.0	test	n/a	n/a	n/a	n/a	n/a	n/a	n/a	n/a	n/a	n/a	n/a	n/a	n/a	n/a	n/a	n/a	n/a	n/a	fixation
55045.017559943954	2750	n/a	2432	71	2750	2234.98244006	stim	stop-signal	612	1682563	0.0-25.11-1.11	beast_fmri_test	393	1680353,/,1681033,/,1681713,/,1682393,/,1683076,/,1683757,/,1684437,/	t,t,t,t,t,t,t	<img class = center src='/static/experiments/beast_fmri_test/images/B.png'></img>	89,71	2750.0	test	<img class = center src='/static/experiments/beast_fmri_test/images/redB.png'></img>	go	2000.0	3.0	11.0	go	non-target	B	89,Middle Finger	71,Index Finger	650.0	750.0	2100.0	2000.0	1.0	n/a	750.0	1.0	go_stim
57795.017559943954	2234.9824400560328	n/a	2432	71	2750	2234.98244006	stim	stop-signal	612	1682563	0.0-25.11-1.11	beast_fmri_test	393	1680353,/,1681033,/,1681713,/,1682393,/,1683076,/,1683757,/,1684437,/	t,t,t,t,t,t,t	<img class = center src='/static/experiments/beast_fmri_test/images/B.png'></img>	89,71	2750.0	test	<img class = center src='/static/experiments/beast_fmri_test/images/redB.png'></img>	go	2000.0	3.0	11.0	go	non-target	B	89,Middle Finger	71,Index Finger	650.0	750.0	2100.0	2000.0	1.0	n/a	750.0	1.0	ITI
62828	500	n/a	-1	-1	500	0.0	fixation	poldrack-single-stim	613	1685361	0.0-25.12-0.12	beast_fmri_test	393	1685117,/	t	<div class = centerbox2><div class = fixation>+</div></div>	none	500.0	test	n/a	n/a	n/a	n/a	n/a	n/a	n/a	n/a	n/a	n/a	n/a	n/a	n/a	n/a	n/a	n/a	n/a	n/a	fixation
62680.029039663263	2750	n/a	756	71	2750	149.970960337	stim	stop-signal	614	1688113	0.0-25.12-1.12	beast_fmri_test	393	1685797,/,1686478,/,1687158,/,1687838,/	t,t,t,t	<img class = center src='/static/experiments/beast_fmri_test/images/T.png'></img>	89,71	2750.0	test	<img class = center src='/static/experiments/beast_fmri_test/images/redT.png'></img>	go	2000.0	3.0	12.0	go	non-target	T	89,Middle Finger	71,Index Finger	650.0	750.0	2100.0	2000.0	1.0	n/a	750.0	1.0	go_stim
65430.029039663263	149.97096033675837	n/a	756	71	2750	149.970960337	stim	stop-signal	614	1688113	0.0-25.12-1.12	beast_fmri_test	393	1685797,/,1686478,/,1687158,/,1687838,/	t,t,t,t	<img class = center src='/static/experiments/beast_fmri_test/images/T.png'></img>	89,71	2750.0	test	<img class = center src='/static/experiments/beast_fmri_test/images/redT.png'></img>	go	2000.0	3.0	12.0	go	non-target	T	89,Middle Finger	71,Index Finger	650.0	750.0	2100.0	2000.0	1.0	n/a	750.0	1.0	ITI
66292	500	n/a	-1	-1	500	0.0	fixation	poldrack-single-stim	615	1688825	0.0-25.13-0.13	beast_fmri_test	393	1688518,/	t	<div class = centerbox2><div class = fixation>+</div></div>	none	500.0	test	n/a	n/a	n/a	n/a	n/a	n/a	n/a	n/a	n/a	n/a	n/a	n/a	n/a	n/a	n/a	n/a	n/a	n/a	fixation
66290.977585119894	2750	n/a	1064	89	2750	4.02241488019	stim	stop-signal	616	1691578	0.0-25.13-1.13	beast_fmri_test	393	1689198,/,1689878,/,1690558,/,1691238,/	t,t,t,t	<img class = center src='/static/experiments/beast_fmri_test/images/V.png'></img>	89,71	2750.0	test	<img class = center src='/static/experiments/beast_fmri_test/images/redV.png'></img>	go	2100.0	3.0	13.0	go	target	V	89,Middle Finger	71,Index Finger	650.0	750.0	2100.0	2000.0	1.0	n/a	650.0	1.0	go_stim
69040.977585119894	4.0224148801909765	n/a	1064	89	2750	4.02241488019	stim	stop-signal	616	1691578	0.0-25.13-1.13	beast_fmri_test	393	1689198,/,1689878,/,1690558,/,1691238,/	t,t,t,t	<img class = center src='/static/experiments/beast_fmri_test/images/V.png'></img>	89,71	2750.0	test	<img class = center src='/static/experiments/beast_fmri_test/images/redV.png'></img>	go	2100.0	3.0	13.0	go	target	V	89,Middle Finger	71,Index Finger	650.0	750.0	2100.0	2000.0	1.0	n/a	650.0	1.0	ITI
69612	500	n/a	-1	-1	500	0.0	fixation	poldrack-single-stim	617	1692145	0.0-25.14-0.14	beast_fmri_test	393	1691918,/	t	<div class = centerbox2><div class = fixation>+</div></div>	none	500.0	test	n/a	n/a	n/a	n/a	n/a	n/a	n/a	n/a	n/a	n/a	n/a	n/a	n/a	n/a	n/a	n/a	n/a	n/a	fixation
68984.830559368944	750.0	n/a	725	71	2750	633.169440631	stim	stop-signal	618	1694901	0.0-25.14-1.14	beast_fmri_test	393	1692599,/,1693282,/,1693962,/,1694642,/,1695321,/	t,t,t,t,t	<img class = center src='/static/experiments/beast_fmri_test/images/D.png'></img>	89,71	2750.0	test	<img class = center src='/static/experiments/beast_fmri_test/images/redD.png'></img>	stop	2000.0	3.0	14.0	stop	non-target	D	89,Middle Finger	71,Index Finger	650.0	750.0	2100.0	2000.0	0.0	0.0	750.0	n/a	go_stim
70984.830559368944	2000.0	n/a	725	71	2750	633.169440631	stim	stop-signal	618	1694901	0.0-25.14-1.14	beast_fmri_test	393	1692599,/,1693282,/,1693962,/,1694642,/,1695321,/	t,t,t,t,t	<img class = center src='/static/experiments/beast_fmri_test/images/D.png'></img>	89,71	2750.0	test	<img class = center src='/static/experiments/beast_fmri_test/images/redD.png'></img>	stop	2000.0	3.0	14.0	stop	non-target	D	89,Middle Finger	71,Index Finger	650.0	750.0	2100.0	2000.0	0.0	0.0	750.0	n/a	stop_stim
71734.830559368944	633.16944063113135	n/a	725	71	2750	633.169440631	stim	stop-signal	618	1694901	0.0-25.14-1.14	beast_fmri_test	393	1692599,/,1693282,/,1693962,/,1694642,/,1695321,/	t,t,t,t,t	<img class = center src='/static/experiments/beast_fmri_test/images/D.png'></img>	89,71	2750.0	test	<img class = center src='/static/experiments/beast_fmri_test/images/redD.png'></img>	stop	2000.0	3.0	14.0	stop	non-target	D	89,Middle Finger	71,Index Finger	650.0	750.0	2100.0	2000.0	0.0	0.0	750.0	n/a	ITI
73564	500	n/a	-1	-1	500	0.0	fixation	poldrack-single-stim	619	1696097	0.0-25.15-0.15	beast_fmri_test	393	1696002,/	t	<div class = centerbox2><div class = fixation>+</div></div>	none	500.0	test	n/a	n/a	n/a	n/a	n/a	n/a	n/a	n/a	n/a	n/a	n/a	n/a	n/a	n/a	n/a	n/a	n/a	n/a	fixation
71813.629887854215	2750	n/a	1131	71	2750	1753.37011215	stim	stop-signal	620	1698850	0.0-25.15-1.15	beast_fmri_test	393	1696681,/,1697362,/,1698042,/,1698722,/,1699402,/,1700082,/	t,t,t,t,t,t	<img class = center src='/static/experiments/beast_fmri_test/images/B.png'></img>	89,71	2750.0	test	<img class = center src='/static/experiments/beast_fmri_test/images/redB.png'></img>	go	2050.0	3.0	15.0	go	non-target	B	89,Middle Finger	71,Index Finger	650.0	700.0	2100.0	2050.0	1.0	n/a	700.0	1.0	go_stim
74563.629887854215	1753.370112145722	n/a	1131	71	2750	1753.37011215	stim	stop-signal	620	1698850	0.0-25.15-1.15	beast_fmri_test	393	1696681,/,1697362,/,1698042,/,1698722,/,1699402,/,1700082,/	t,t,t,t,t,t	<img class = center src='/static/experiments/beast_fmri_test/images/B.png'></img>	89,71	2750.0	test	<img class = center src='/static/experiments/beast_fmri_test/images/redB.png'></img>	go	2050.0	3.0	15.0	go	non-target	B	89,Middle Finger	71,Index Finger	650.0	700.0	2100.0	2050.0	1.0	n/a	700.0	1.0	ITI
78637	500	n/a	-1	-1	500	0.0	fixation	poldrack-single-stim	621	1701170	0.0-25.16-0.16	beast_fmri_test	393	1700762,/	t	<div class = centerbox2><div class = fixation>+</div></div>	none	500.0	test	n/a	n/a	n/a	n/a	n/a	n/a	n/a	n/a	n/a	n/a	n/a	n/a	n/a	n/a	n/a	n/a	n/a	n/a	fixation
75730.265408880543	700.0	n/a	653	89	2750	2913.73459112	stim	stop-signal	622	1703927	0.0-25.16-1.16	beast_fmri_test	393	1701442,/,1702122,/,1702804,/,1703485,/,1704166,/,1704846,/,1705526,/,1706206,/	t,t,t,t,t,t,t,t	<img class = center src='/static/experiments/beast_fmri_test/images/D.png'></img>	89,71	2750.0	test	<img class = center src='/static/experiments/beast_fmri_test/images/redD.png'></img>	stop	2050.0	3.0	16.0	stop	non-target	D	89,Middle Finger	71,Index Finger	650.0	700.0	2100.0	2050.0	0.0	0.0	700.0	n/a	go_stim
77780.265408880543	2050.0	n/a	653	89	2750	2913.73459112	stim	stop-signal	622	1703927	0.0-25.16-1.16	beast_fmri_test	393	1701442,/,1702122,/,1702804,/,1703485,/,1704166,/,1704846,/,1705526,/,1706206,/	t,t,t,t,t,t,t,t	<img class = center src='/static/experiments/beast_fmri_test/images/D.png'></img>	89,71	2750.0	test	<img class = center src='/static/experiments/beast_fmri_test/images/redD.png'></img>	stop	2050.0	3.0	16.0	stop	non-target	D	89,Middle Finger	71,Index Finger	650.0	700.0	2100.0	2050.0	0.0	0.0	700.0	n/a	stop_stim
78480.265408880543	2913.7345911194375	n/a	653	89	2750	2913.73459112	stim	stop-signal	622	1703927	0.0-25.16-1.16	beast_fmri_test	393	1701442,/,1702122,/,1702804,/,1703485,/,1704166,/,1704846,/,1705526,/,1706206,/	t,t,t,t,t,t,t,t	<img class = center src='/static/experiments/beast_fmri_test/images/D.png'></img>	89,71	2750.0	test	<img class = center src='/static/experiments/beast_fmri_test/images/redD.png'></img>	stop	2050.0	3.0	16.0	stop	non-target	D	89,Middle Finger	71,Index Finger	650.0	700.0	2100.0	2050.0	0.0	0.0	700.0	n/a	ITI
84874	500	n/a	-1	-1	500	0.0	fixation	poldrack-single-stim	623	1707407	0.0-25.17-0.17	beast_fmri_test	393	1706905,/	t	<div class = centerbox2><div class = fixation>+</div></div>	none	500.0	test	n/a	n/a	n/a	n/a	n/a	n/a	n/a	n/a	n/a	n/a	n/a	n/a	n/a	n/a	n/a	n/a	n/a	n/a	fixation
84161.791891110595	650.0	n/a	-1	-1	2750	715.208108889	stim	stop-signal	624	1710160	0.0-25.17-1.17	beast_fmri_test	393	1707566,/,1708246,/,1708926,/,1709606,/,1710286,/	t,t,t,t,t	<img class = center src='/static/experiments/beast_fmri_test/images/D.png'></img>	89,71	2750.0	test	<img class = center src='/static/experiments/beast_fmri_test/images/redD.png'></img>	stop	2100.0	3.0	17.0	stop	target	D	89,Middle Finger	71,Index Finger	650.0	650.0	2100.0	2050.0	0.0	1.0	650.0	n/a	go_stim
86261.791891110595	2100.0	n/a	-1	-1	2750	715.208108889	stim	stop-signal	624	1710160	0.0-25.17-1.17	beast_fmri_test	393	1707566,/,1708246,/,1708926,/,1709606,/,1710286,/	t,t,t,t,t	<img class = center src='/static/experiments/beast_fmri_test/images/D.png'></img>	89,71	2750.0	test	<img class = center src='/static/experiments/beast_fmri_test/images/redD.png'></img>	stop	2100.0	3.0	17.0	stop	target	D	89,Middle Finger	71,Index Finger	650.0	650.0	2100.0	2050.0	0.0	1.0	650.0	n/a	stop_stim
86911.791891110595	715.20810888948211	n/a	-1	-1	2750	715.208108889	stim	stop-signal	624	1710160	0.0-25.17-1.17	beast_fmri_test	393	1707566,/,1708246,/,1708926,/,1709606,/,1710286,/	t,t,t,t,t	<img class = center src='/static/experiments/beast_fmri_test/images/D.png'></img>	89,71	2750.0	test	<img class = center src='/static/experiments/beast_fmri_test/images/redD.png'></img>	stop	2100.0	3.0	17.0	stop	target	D	89,Middle Finger	71,Index Finger	650.0	650.0	2100.0	2050.0	0.0	1.0	650.0	n/a	ITI
88906	500	n/a	-1	-1	500	0.0	fixation	poldrack-single-stim	625	1711439	0.0-25.18-0.18	beast_fmri_test	393	1710966,/	t	<div class = centerbox2><div class = fixation>+</div></div>	none	500.0	test	n/a	n/a	n/a	n/a	n/a	n/a	n/a	n/a	n/a	n/a	n/a	n/a	n/a	n/a	n/a	n/a	n/a	n/a	fixation
87732.148978970479	2750	n/a	850	71	2750	1180.85102103	stim	stop-signal	626	1714196	0.0-25.18-1.18	beast_fmri_test	393	1711646,/,1712326,/,1713009,/,1713692,/,1714371,/,1715051,/	t,t,t,t,t,t	<img class = center src='/static/experiments/beast_fmri_test/images/B.png'></img>	89,71	2750.0	test	<img class = center src='/static/experiments/beast_fmri_test/images/redB.png'></img>	go	2050.0	3.0	18.0	go	target	B	89,Middle Finger	71,Index Finger	700.0	650.0	2050.0	2050.0	0.0	n/a	700.0	0.0	go_stim
90482.148978970479	1180.8510210295194	n/a	850	71	2750	1180.85102103	stim	stop-signal	626	1714196	0.0-25.18-1.18	beast_fmri_test	393	1711646,/,1712326,/,1713009,/,1713692,/,1714371,/,1715051,/	t,t,t,t,t,t	<img class = center src='/static/experiments/beast_fmri_test/images/B.png'></img>	89,71	2750.0	test	<img class = center src='/static/experiments/beast_fmri_test/images/redB.png'></img>	go	2050.0	3.0	18.0	go	target	B	89,Middle Finger	71,Index Finger	700.0	650.0	2050.0	2050.0	0.0	n/a	700.0	0.0	ITI
93413	500	n/a	-1	-1	500	0.0	fixation	poldrack-single-stim	627	1715946	0.0-25.19-0.19	beast_fmri_test	393	1715732,/	t	<div class = centerbox2><div class = fixation>+</div></div>	none	500.0	test	n/a	n/a	n/a	n/a	n/a	n/a	n/a	n/a	n/a	n/a	n/a	n/a	n/a	n/a	n/a	n/a	n/a	n/a	fixation
92888.995377719635	650.0	n/a	765	71	2750	528.00462228	stim	stop-signal	628	1718700	0.0-25.19-1.19	beast_fmri_test	393	1716411,/,1717091,/,1717771,/,1718451,/,1719131,/	t,t,t,t,t	<img class = center src='/static/experiments/beast_fmri_test/images/B.png'></img>	89,71	2750.0	test	<img class = center src='/static/experiments/beast_fmri_test/images/redB.png'></img>	stop	2100.0	3.0	19.0	stop	non-target	B	89,Middle Finger	71,Index Finger	700.0	650.0	2050.0	2100.0	0.0	0.0	650.0	n/a	go_stim
94988.995377719635	2100.0	n/a	765	71	2750	528.00462228	stim	stop-signal	628	1718700	0.0-25.19-1.19	beast_fmri_test	393	1716411,/,1717091,/,1717771,/,1718451,/,1719131,/	t,t,t,t,t	<img class = center src='/static/experiments/beast_fmri_test/images/B.png'></img>	89,71	2750.0	test	<img class = center src='/static/experiments/beast_fmri_test/images/redB.png'></img>	stop	2100.0	3.0	19.0	stop	non-target	B	89,Middle Finger	71,Index Finger	700.0	650.0	2050.0	2100.0	0.0	0.0	650.0	n/a	stop_stim
95638.995377719635	528.00462228030881	n/a	765	71	2750	528.00462228	stim	stop-signal	628	1718700	0.0-25.19-1.19	beast_fmri_test	393	1716411,/,1717091,/,1717771,/,1718451,/,1719131,/	t,t,t,t,t	<img class = center src='/static/experiments/beast_fmri_test/images/B.png'></img>	89,71	2750.0	test	<img class = center src='/static/experiments/beast_fmri_test/images/redB.png'></img>	stop	2100.0	3.0	19.0	stop	non-target	B	89,Middle Finger	71,Index Finger	700.0	650.0	2050.0	2100.0	0.0	0.0	650.0	n/a	ITI
97262	500	n/a	-1	-1	500	0.0	fixation	poldrack-single-stim	629	1719795	0.0-25.20-0.20	beast_fmri_test	393	n/a	n/a	<div class = centerbox2><div class = fixation>+</div></div>	none	500.0	test	n/a	n/a	n/a	n/a	n/a	n/a	n/a	n/a	n/a	n/a	n/a	n/a	n/a	n/a	n/a	n/a	n/a	n/a	fixation
96813.342272031121	2750	n/a	780	89	2750	452.657727969	stim	stop-signal	630	1722549	0.0-25.20-1.20	beast_fmri_test	393	1719811,/,1720491,/,1721171,/,1721851,/,1722532,/	t,t,t,t,t	<img class = center src='/static/experiments/beast_fmri_test/images/D.png'></img>	89,71	2750.0	test	<img class = center src='/static/experiments/beast_fmri_test/images/redD.png'></img>	go	2050.0	3.0	20.0	go	target	D	89,Middle Finger	71,Index Finger	700.0	600.0	2050.0	2100.0	1.0	n/a	700.0	1.0	go_stim
99563.342272031121	452.65772796894328	n/a	780	89	2750	452.657727969	stim	stop-signal	630	1722549	0.0-25.20-1.20	beast_fmri_test	393	1719811,/,1720491,/,1721171,/,1721851,/,1722532,/	t,t,t,t,t	<img class = center src='/static/experiments/beast_fmri_test/images/D.png'></img>	89,71	2750.0	test	<img class = center src='/static/experiments/beast_fmri_test/images/redD.png'></img>	go	2050.0	3.0	20.0	go	target	D	89,Middle Finger	71,Index Finger	700.0	600.0	2050.0	2100.0	1.0	n/a	700.0	1.0	ITI
101039	500	n/a	-1	-1	500	0.0	fixation	poldrack-single-stim	631	1723572	0.0-25.21-0.21	beast_fmri_test	393	1723215,/	t	<div class = centerbox2><div class = fixation>+</div></div>	none	500.0	test	n/a	n/a	n/a	n/a	n/a	n/a	n/a	n/a	n/a	n/a	n/a	n/a	n/a	n/a	n/a	n/a	n/a	n/a	fixation
98123.537169768941	2750	n/a	1326	71	2750	2917.46283023	stim	stop-signal	632	1726324	0.0-25.21-1.21	beast_fmri_test	393	1723895,/,1724576,/,1725256,/,1725935,/,1726615,/,1727296,/,1727976,/,1728655,/	t,t,t,t,t,t,t,t	<img class = center src='/static/experiments/beast_fmri_test/images/T.png'></img>	89,71	2750.0	test	<img class = center src='/static/experiments/beast_fmri_test/images/redT.png'></img>	go	2150.0	3.0	21.0	go	non-target	T	89,Middle Finger	71,Index Finger	700.0	600.0	2050.0	2150.0	1.0	n/a	600.0	1.0	go_stim
100873.53716976894	2917.462830231043	n/a	1326	71	2750	2917.46283023	stim	stop-signal	632	1726324	0.0-25.21-1.21	beast_fmri_test	393	1723895,/,1724576,/,1725256,/,1725935,/,1726615,/,1727296,/,1727976,/,1728655,/	t,t,t,t,t,t,t,t	<img class = center src='/static/experiments/beast_fmri_test/images/T.png'></img>	89,71	2750.0	test	<img class = center src='/static/experiments/beast_fmri_test/images/redT.png'></img>	go	2150.0	3.0	21.0	go	non-target	T	89,Middle Finger	71,Index Finger	700.0	600.0	2050.0	2150.0	1.0	n/a	600.0	1.0	ITI
107276	500	n/a	-1	-1	500	0.0	fixation	poldrack-single-stim	633	1729809	0.0-25.22-0.22	beast_fmri_test	393	1729336,/	t	<div class = centerbox2><div class = fixation>+</div></div>	none	500.0	test	n/a	n/a	n/a	n/a	n/a	n/a	n/a	n/a	n/a	n/a	n/a	n/a	n/a	n/a	n/a	n/a	n/a	n/a	fixation
107261.03174712975	2750	n/a	1450	71	2750	17.9682528702	stim	stop-signal	634	1732562	0.0-25.22-1.22	beast_fmri_test	393	1730015,/,1730695,/,1731375,/,1732055,/	t,t,t,t	<img class = center src='/static/experiments/beast_fmri_test/images/B.png'></img>	89,71	2750.0	test	<img class = center src='/static/experiments/beast_fmri_test/images/redB.png'></img>	go	2050.0	3.0	22.0	go	target	B	89,Middle Finger	71,Index Finger	700.0	600.0	2050.0	2150.0	0.0	n/a	700.0	0.0	go_stim
110011.03174712975	17.968252870166953	n/a	1450	71	2750	17.9682528702	stim	stop-signal	634	1732562	0.0-25.22-1.22	beast_fmri_test	393	1730015,/,1730695,/,1731375,/,1732055,/	t,t,t,t	<img class = center src='/static/experiments/beast_fmri_test/images/B.png'></img>	89,71	2750.0	test	<img class = center src='/static/experiments/beast_fmri_test/images/redB.png'></img>	go	2050.0	3.0	22.0	go	target	B	89,Middle Finger	71,Index Finger	700.0	600.0	2050.0	2150.0	0.0	n/a	700.0	0.0	ITI
110615	500	n/a	-1	-1	500	0.0	fixation	poldrack-single-stim	635	1733148	0.0-25.23-0.23	beast_fmri_test	393	1732736,/	t	<div class = centerbox2><div class = fixation>+</div></div>	none	500.0	test	n/a	n/a	n/a	n/a	n/a	n/a	n/a	n/a	n/a	n/a	n/a	n/a	n/a	n/a	n/a	n/a	n/a	n/a	fixation
108139.06783077004	2750	n/a	1301	71	2750	2479.93216923	stim	stop-signal	636	1735902	0.0-25.23-1.23	beast_fmri_test	393	1733419,/,1734099,/,1734779,/,1735459,/,1736139,/,1736819,/,1737499,/,1738179,/	t,t,t,t,t,t,t,t	<img class = center src='/static/experiments/beast_fmri_test/images/P.png'></img>	89,71	2750.0	test	<img class = center src='/static/experiments/beast_fmri_test/images/redP.png'></img>	go	2150.0	3.0	23.0	go	non-target	P	89,Middle Finger	71,Index Finger	700.0	600.0	2050.0	2150.0	1.0	n/a	600.0	1.0	go_stim
110889.06783077004	2479.9321692300409	n/a	1301	71	2750	2479.93216923	stim	stop-signal	636	1735902	0.0-25.23-1.23	beast_fmri_test	393	1733419,/,1734099,/,1734779,/,1735459,/,1736139,/,1736819,/,1737499,/,1738179,/	t,t,t,t,t,t,t,t	<img class = center src='/static/experiments/beast_fmri_test/images/P.png'></img>	89,71	2750.0	test	<img class = center src='/static/experiments/beast_fmri_test/images/redP.png'></img>	go	2150.0	3.0	23.0	go	non-target	P	89,Middle Finger	71,Index Finger	700.0	600.0	2050.0	2150.0	1.0	n/a	600.0	1.0	ITI
116415	500	n/a	-1	-1	500	0.0	fixation	poldrack-single-stim	637	1738948	0.0-25.24-0.24	beast_fmri_test	393	1738859,/	t	<div class = centerbox2><div class = fixation>+</div></div>	none	500.0	test	n/a	n/a	n/a	n/a	n/a	n/a	n/a	n/a	n/a	n/a	n/a	n/a	n/a	n/a	n/a	n/a	n/a	n/a	fixation
116367.20133705693	2750	n/a	754	71	2750	50.798662943	stim	stop-signal	638	1741701	0.0-25.24-1.24	beast_fmri_test	393	1739540,/,1740219,/,1740899,/,1741579,/	t,t,t,t	<img class = center src='/static/experiments/beast_fmri_test/images/V.png'></img>	89,71	2750.0	test	<img class = center src='/static/experiments/beast_fmri_test/images/redV.png'></img>	go	2150.0	3.0	24.0	go	non-target	V	89,Middle Finger	71,Index Finger	700.0	600.0	2050.0	2150.0	1.0	n/a	600.0	1.0	go_stim
119117.20133705693	50.798662943012793	n/a	754	71	2750	50.798662943	stim	stop-signal	638	1741701	0.0-25.24-1.24	beast_fmri_test	393	1739540,/,1740219,/,1740899,/,1741579,/	t,t,t,t	<img class = center src='/static/experiments/beast_fmri_test/images/V.png'></img>	89,71	2750.0	test	<img class = center src='/static/experiments/beast_fmri_test/images/redV.png'></img>	go	2150.0	3.0	24.0	go	non-target	V	89,Middle Finger	71,Index Finger	700.0	600.0	2050.0	2150.0	1.0	n/a	600.0	1.0	ITI
119787	500	n/a	-1	-1	500	0.0	fixation	poldrack-single-stim	639	1742320	0.0-25.25-0.25	beast_fmri_test	393	1742261,/	t	<div class = centerbox2><div class = fixation>+</div></div>	none	500.0	test	n/a	n/a	n/a	n/a	n/a	n/a	n/a	n/a	n/a	n/a	n/a	n/a	n/a	n/a	n/a	n/a	n/a	n/a	fixation
119772.7807594128	2750	n/a	909	89	2750	20.2192405871	stim	stop-signal	640	1745076	0.0-25.25-1.25	beast_fmri_test	393	1742943,/,1743625,/,1744304,/,1744985,/	t,t,t,t	<img class = center src='/static/experiments/beast_fmri_test/images/B.png'></img>	89,71	2750.0	test	<img class = center src='/static/experiments/beast_fmri_test/images/redB.png'></img>	go	2050.0	3.0	25.0	go	target	B	89,Middle Finger	71,Index Finger	700.0	600.0	2050.0	2150.0	1.0	n/a	700.0	1.0	go_stim
122522.7807594128	20.219240587139808	n/a	909	89	2750	20.2192405871	stim	stop-signal	640	1745076	0.0-25.25-1.25	beast_fmri_test	393	1742943,/,1743625,/,1744304,/,1744985,/	t,t,t,t	<img class = center src='/static/experiments/beast_fmri_test/images/B.png'></img>	89,71	2750.0	test	<img class = center src='/static/experiments/beast_fmri_test/images/redB.png'></img>	go	2050.0	3.0	25.0	go	target	B	89,Middle Finger	71,Index Finger	700.0	600.0	2050.0	2150.0	1.0	n/a	700.0	1.0	ITI
123130	500	n/a	-1	-1	500	0.0	fixation	poldrack-single-stim	641	1745663	0.0-25.26-0.26	beast_fmri_test	393	n/a	n/a	<div class = centerbox2><div class = fixation>+</div></div>	none	500.0	test	n/a	n/a	n/a	n/a	n/a	n/a	n/a	n/a	n/a	n/a	n/a	n/a	n/a	n/a	n/a	n/a	n/a	n/a	fixation
122267.67356551322	2750	n/a	1244	71	2750	866.326434487	stim	stop-signal	642	1748417	0.0-25.26-1.26	beast_fmri_test	393	1745666,/,1746345,/,1747024,/,1747704,/,1748385,/,1749064,/	t,t,t,t,t,t	<img class = center src='/static/experiments/beast_fmri_test/images/B.png'></img>	89,71	2750.0	test	<img class = center src='/static/experiments/beast_fmri_test/images/redB.png'></img>	go	2150.0	3.0	26.0	go	non-target	B	89,Middle Finger	71,Index Finger	700.0	600.0	2050.0	2150.0	1.0	n/a	600.0	1.0	go_stim
125017.67356551322	866.32643448668432	n/a	1244	71	2750	866.326434487	stim	stop-signal	642	1748417	0.0-25.26-1.26	beast_fmri_test	393	1745666,/,1746345,/,1747024,/,1747704,/,1748385,/,1749064,/	t,t,t,t,t,t	<img class = center src='/static/experiments/beast_fmri_test/images/B.png'></img>	89,71	2750.0	test	<img class = center src='/static/experiments/beast_fmri_test/images/redB.png'></img>	go	2150.0	3.0	26.0	go	non-target	B	89,Middle Finger	71,Index Finger	700.0	600.0	2050.0	2150.0	1.0	n/a	600.0	1.0	ITI
127324	500	n/a	-1	-1	500	0.0	fixation	poldrack-single-stim	643	1749857	0.0-25.27-0.27	beast_fmri_test	393	1749745,/	t	<div class = centerbox2><div class = fixation>+</div></div>	none	500.0	test	n/a	n/a	n/a	n/a	n/a	n/a	n/a	n/a	n/a	n/a	n/a	n/a	n/a	n/a	n/a	n/a	n/a	n/a	fixation
125071.66300634784	2750	n/a	1030	71	2750	2256.33699365	stim	stop-signal	644	1752611	0.0-25.27-1.27	beast_fmri_test	393	1750424,/,1751104,/,1751784,/,1752465,/,1753148,/,1753829,/,1754509,/	t,t,t,t,t,t,t	<img class = center src='/static/experiments/beast_fmri_test/images/P.png'></img>	89,71	2750.0	test	<img class = center src='/static/experiments/beast_fmri_test/images/redP.png'></img>	go	2150.0	3.0	27.0	go	non-target	P	89,Middle Finger	71,Index Finger	700.0	600.0	2050.0	2150.0	1.0	n/a	600.0	1.0	go_stim
127821.66300634784	2256.3369936520976	n/a	1030	71	2750	2256.33699365	stim	stop-signal	644	1752611	0.0-25.27-1.27	beast_fmri_test	393	1750424,/,1751104,/,1751784,/,1752465,/,1753148,/,1753829,/,1754509,/	t,t,t,t,t,t,t	<img class = center src='/static/experiments/beast_fmri_test/images/P.png'></img>	89,71	2750.0	test	<img class = center src='/static/experiments/beast_fmri_test/images/redP.png'></img>	go	2150.0	3.0	27.0	go	non-target	P	89,Middle Finger	71,Index Finger	700.0	600.0	2050.0	2150.0	1.0	n/a	600.0	1.0	ITI
132913	500	n/a	-1	-1	500	0.0	fixation	poldrack-single-stim	645	1755446	0.0-25.28-0.28	beast_fmri_test	393	1755190,/	t	<div class = centerbox2><div class = fixation>+</div></div>	none	500.0	test	n/a	n/a	n/a	n/a	n/a	n/a	n/a	n/a	n/a	n/a	n/a	n/a	n/a	n/a	n/a	n/a	n/a	n/a	fixation
132001.01372409821	2750	n/a	700	71	2750	914.986275902	stim	stop-signal	646	1758199	0.0-25.28-1.28	beast_fmri_test	393	1755869,/,1756549,/,1757229,/,1757909,/,1758589,/	t,t,t,t,t	<img class = center src='/static/experiments/beast_fmri_test/images/V.png'></img>	89,71	2750.0	test	<img class = center src='/static/experiments/beast_fmri_test/images/redV.png'></img>	go	2150.0	3.0	28.0	go	non-target	V	89,Middle Finger	71,Index Finger	700.0	600.0	2050.0	2150.0	1.0	n/a	600.0	1.0	go_stim
134751.01372409821	914.98627590168223	n/a	700	71	2750	914.986275902	stim	stop-signal	646	1758199	0.0-25.28-1.28	beast_fmri_test	393	1755869,/,1756549,/,1757229,/,1757909,/,1758589,/	t,t,t,t,t	<img class = center src='/static/experiments/beast_fmri_test/images/V.png'></img>	89,71	2750.0	test	<img class = center src='/static/experiments/beast_fmri_test/images/redV.png'></img>	go	2150.0	3.0	28.0	go	non-target	V	89,Middle Finger	71,Index Finger	700.0	600.0	2050.0	2150.0	1.0	n/a	600.0	1.0	ITI
137147	500	n/a	-1	-1	500	0.0	fixation	poldrack-single-stim	647	1759680	0.0-25.29-0.29	beast_fmri_test	393	1759269,/	t	<div class = centerbox2><div class = fixation>+</div></div>	none	500.0	test	n/a	n/a	n/a	n/a	n/a	n/a	n/a	n/a	n/a	n/a	n/a	n/a	n/a	n/a	n/a	n/a	n/a	n/a	fixation
134608.76598884212	2750	n/a	472	89	2750	2542.23401116	stim	stop-signal	648	1762434	0.0-25.29-1.29	beast_fmri_test	393	1759949,/,1760627,/,1761308,/,1761988,/,1762669,/,1763353,/,1764033,/,1764712,/	t,t,t,t,t,t,t,t	<img class = center src='/static/experiments/beast_fmri_test/images/P.png'></img>	89,71	2750.0	test	<img class = center src='/static/experiments/beast_fmri_test/images/redP.png'></img>	go	2150.0	3.0	29.0	go	non-target	P	89,Middle Finger	71,Index Finger	700.0	600.0	2050.0	2150.0	0.0	n/a	600.0	0.0	go_stim
137358.76598884212	2542.2340111579929	n/a	472	89	2750	2542.23401116	stim	stop-signal	648	1762434	0.0-25.29-1.29	beast_fmri_test	393	1759949,/,1760627,/,1761308,/,1761988,/,1762669,/,1763353,/,1764033,/,1764712,/	t,t,t,t,t,t,t,t	<img class = center src='/static/experiments/beast_fmri_test/images/P.png'></img>	89,71	2750.0	test	<img class = center src='/static/experiments/beast_fmri_test/images/redP.png'></img>	go	2150.0	3.0	29.0	go	non-target	P	89,Middle Finger	71,Index Finger	700.0	600.0	2050.0	2150.0	0.0	n/a	600.0	0.0	ITI
143013	500	n/a	-1	-1	500	0.0	fixation	poldrack-single-stim	649	1765546	0.0-25.30-0.30	beast_fmri_test	393	1765394,/	t	<div class = centerbox2><div class = fixation>+</div></div>	none	500.0	test	n/a	n/a	n/a	n/a	n/a	n/a	n/a	n/a	n/a	n/a	n/a	n/a	n/a	n/a	n/a	n/a	n/a	n/a	fixation
142821.65632055514	600.0	n/a	725	71	2750	194.343679445	stim	stop-signal	650	1768299	0.0-25.30-1.30	beast_fmri_test	393	1766074,/,1766752,/,1767433,/,1768113,/	t,t,t,t	<img class = center src='/static/experiments/beast_fmri_test/images/T.png'></img>	89,71	2750.0	test	<img class = center src='/static/experiments/beast_fmri_test/images/redT.png'></img>	stop	2150.0	3.0	30.0	stop	non-target	T	89,Middle Finger	71,Index Finger	700.0	600.0	2050.0	2150.0	0.0	0.0	600.0	n/a	go_stim
144971.65632055514	2150.0	n/a	725	71	2750	194.343679445	stim	stop-signal	650	1768299	0.0-25.30-1.30	beast_fmri_test	393	1766074,/,1766752,/,1767433,/,1768113,/	t,t,t,t	<img class = center src='/static/experiments/beast_fmri_test/images/T.png'></img>	89,71	2750.0	test	<img class = center src='/static/experiments/beast_fmri_test/images/redT.png'></img>	stop	2150.0	3.0	30.0	stop	non-target	T	89,Middle Finger	71,Index Finger	700.0	600.0	2050.0	2150.0	0.0	0.0	600.0	n/a	stop_stim
145571.65632055514	194.34367944483316	n/a	725	71	2750	194.343679445	stim	stop-signal	650	1768299	0.0-25.30-1.30	beast_fmri_test	393	1766074,/,1766752,/,1767433,/,1768113,/	t,t,t,t	<img class = center src='/static/experiments/beast_fmri_test/images/T.png'></img>	89,71	2750.0	test	<img class = center src='/static/experiments/beast_fmri_test/images/redT.png'></img>	stop	2150.0	3.0	30.0	stop	non-target	T	89,Middle Finger	71,Index Finger	700.0	600.0	2050.0	2150.0	0.0	0.0	600.0	n/a	ITI
146530	500	n/a	-1	-1	500	0.0	fixation	poldrack-single-stim	651	1769063	0.0-25.31-0.31	beast_fmri_test	393	1768793,/	t	<div class = centerbox2><div class = fixation>+</div></div>	none	500.0	test	n/a	n/a	n/a	n/a	n/a	n/a	n/a	n/a	n/a	n/a	n/a	n/a	n/a	n/a	n/a	n/a	n/a	n/a	fixation
146314.54565076041	2750	n/a	994	71	2750	217.454349239	stim	stop-signal	652	1771815	0.0-25.31-1.31	beast_fmri_test	393	1769474,/,1770154,/,1770834,/,1771514,/	t,t,t,t	<img class = center src='/static/experiments/beast_fmri_test/images/P.png'></img>	89,71	2750.0	test	<img class = center src='/static/experiments/beast_fmri_test/images/redP.png'></img>	go	2200.0	3.0	31.0	go	non-target	P	89,Middle Finger	71,Index Finger	700.0	550.0	2050.0	2200.0	1.0	n/a	550.0	1.0	go_stim
149064.54565076041	217.45434923949327	n/a	994	71	2750	217.454349239	stim	stop-signal	652	1771815	0.0-25.31-1.31	beast_fmri_test	393	1769474,/,1770154,/,1770834,/,1771514,/	t,t,t,t	<img class = center src='/static/experiments/beast_fmri_test/images/P.png'></img>	89,71	2750.0	test	<img class = center src='/static/experiments/beast_fmri_test/images/redP.png'></img>	go	2200.0	3.0	31.0	go	non-target	P	89,Middle Finger	71,Index Finger	700.0	550.0	2050.0	2200.0	1.0	n/a	550.0	1.0	ITI
150067	500	n/a	-1	-1	500	0.0	fixation	poldrack-single-stim	653	1772600	0.0-25.32-0.32	beast_fmri_test	393	1772194,/	t	<div class = centerbox2><div class = fixation>+</div></div>	none	500.0	test	n/a	n/a	n/a	n/a	n/a	n/a	n/a	n/a	n/a	n/a	n/a	n/a	n/a	n/a	n/a	n/a	n/a	n/a	fixation
148601.66810123739	2750	n/a	2389	89	2750	1471.33189876	stim	stop-signal	654	1775356	0.0-25.32-1.32	beast_fmri_test	393	1772876,/,1773558,/,1774238,/,1774918,/,1775598,/,1776278,/	t,t,t,t,t,t	<img class = center src='/static/experiments/beast_fmri_test/images/V.png'></img>	89,71	2750.0	test	<img class = center src='/static/experiments/beast_fmri_test/images/redV.png'></img>	go	2200.0	3.0	32.0	go	non-target	V	89,Middle Finger	71,Index Finger	700.0	550.0	2050.0	2200.0	0.0	n/a	550.0	0.0	go_stim
151351.66810123739	1471.3318987625428	n/a	2389	89	2750	1471.33189876	stim	stop-signal	654	1775356	0.0-25.32-1.32	beast_fmri_test	393	1772876,/,1773558,/,1774238,/,1774918,/,1775598,/,1776278,/	t,t,t,t,t,t	<img class = center src='/static/experiments/beast_fmri_test/images/V.png'></img>	89,71	2750.0	test	<img class = center src='/static/experiments/beast_fmri_test/images/redV.png'></img>	go	2200.0	3.0	32.0	go	non-target	V	89,Middle Finger	71,Index Finger	700.0	550.0	2050.0	2200.0	0.0	n/a	550.0	0.0	ITI
154861	500	n/a	-1	-1	500	0.0	fixation	poldrack-single-stim	655	1777394	0.0-25.33-0.33	beast_fmri_test	393	1776957,/	t	<div class = centerbox2><div class = fixation>+</div></div>	none	500.0	test	n/a	n/a	n/a	n/a	n/a	n/a	n/a	n/a	n/a	n/a	n/a	n/a	n/a	n/a	n/a	n/a	n/a	n/a	fixation
154686.64420504286	550.0	n/a	862	71	2750	177.355794957	stim	stop-signal	656	1780147	0.0-25.33-1.33	beast_fmri_test	393	1777638,/,1778318,/,1778998,/,1779678,/	t,t,t,t	<img class = center src='/static/experiments/beast_fmri_test/images/D.png'></img>	89,71	2750.0	test	<img class = center src='/static/experiments/beast_fmri_test/images/redD.png'></img>	stop	2200.0	3.0	33.0	stop	non-target	D	89,Middle Finger	71,Index Finger	700.0	550.0	2050.0	2200.0	0.0	0.0	550.0	n/a	go_stim
156886.64420504286	2200.0	n/a	862	71	2750	177.355794957	stim	stop-signal	656	1780147	0.0-25.33-1.33	beast_fmri_test	393	1777638,/,1778318,/,1778998,/,1779678,/	t,t,t,t	<img class = center src='/static/experiments/beast_fmri_test/images/D.png'></img>	89,71	2750.0	test	<img class = center src='/static/experiments/beast_fmri_test/images/redD.png'></img>	stop	2200.0	3.0	33.0	stop	non-target	D	89,Middle Finger	71,Index Finger	700.0	550.0	2050.0	2200.0	0.0	0.0	550.0	n/a	stop_stim
157436.64420504286	177.35579495720944	n/a	862	71	2750	177.355794957	stim	stop-signal	656	1780147	0.0-25.33-1.33	beast_fmri_test	393	1777638,/,1778318,/,1778998,/,1779678,/	t,t,t,t	<img class = center src='/static/experiments/beast_fmri_test/images/D.png'></img>	89,71	2750.0	test	<img class = center src='/static/experiments/beast_fmri_test/images/redD.png'></img>	stop	2200.0	3.0	33.0	stop	non-target	D	89,Middle Finger	71,Index Finger	700.0	550.0	2050.0	2200.0	0.0	0.0	550.0	n/a	ITI
158361	500	n/a	-1	-1	500	0.0	fixation	poldrack-single-stim	657	1780894	0.0-25.34-0.34	beast_fmri_test	393	1780392,/	t	<div class = centerbox2><div class = fixation>+</div></div>	none	500.0	test	n/a	n/a	n/a	n/a	n/a	n/a	n/a	n/a	n/a	n/a	n/a	n/a	n/a	n/a	n/a	n/a	n/a	n/a	fixation
154034.80144950002	700.0	n/a	-1	-1	2750	4334.1985505	stim	stop-signal	658	1783652	0.0-25.34-1.34	beast_fmri_test	393	1781038,/,1781718,/,1782398,/,1783081,/,1783761,/,1784442,/,1785122,/,1785802,/,1786482,/,1787162,/,1787842,/	t,t,t,t,t,t,t,t,t,t,t	<img class = center src='/static/experiments/beast_fmri_test/images/P.png'></img>	89,71	2750.0	test	<img class = center src='/static/experiments/beast_fmri_test/images/redP.png'></img>	stop	2050.0	3.0	34.0	stop	target	P	89,Middle Finger	71,Index Finger	700.0	500.0	2050.0	2200.0	0.0	1.0	700.0	n/a	go_stim
156084.80144950002	2050.0	n/a	-1	-1	2750	4334.1985505	stim	stop-signal	658	1783652	0.0-25.34-1.34	beast_fmri_test	393	1781038,/,1781718,/,1782398,/,1783081,/,1783761,/,1784442,/,1785122,/,1785802,/,1786482,/,1787162,/,1787842,/	t,t,t,t,t,t,t,t,t,t,t	<img class = center src='/static/experiments/beast_fmri_test/images/P.png'></img>	89,71	2750.0	test	<img class = center src='/static/experiments/beast_fmri_test/images/redP.png'></img>	stop	2050.0	3.0	34.0	stop	target	P	89,Middle Finger	71,Index Finger	700.0	500.0	2050.0	2200.0	0.0	1.0	700.0	n/a	stop_stim
156784.80144950002	4334.1985504999293	n/a	-1	-1	2750	4334.1985505	stim	stop-signal	658	1783652	0.0-25.34-1.34	beast_fmri_test	393	1781038,/,1781718,/,1782398,/,1783081,/,1783761,/,1784442,/,1785122,/,1785802,/,1786482,/,1787162,/,1787842,/	t,t,t,t,t,t,t,t,t,t,t	<img class = center src='/static/experiments/beast_fmri_test/images/P.png'></img>	89,71	2750.0	test	<img class = center src='/static/experiments/beast_fmri_test/images/redP.png'></img>	stop	2050.0	3.0	34.0	stop	target	P	89,Middle Finger	71,Index Finger	700.0	500.0	2050.0	2200.0	0.0	1.0	700.0	n/a	ITI
166019	500	n/a	-1	-1	500	0.0	fixation	poldrack-single-stim	659	1788552	0.0-25.35-0.35	beast_fmri_test	393	1788522,/	t	<div class = centerbox2><div class = fixation>+</div></div>	none	500.0	test	n/a	n/a	n/a	n/a	n/a	n/a	n/a	n/a	n/a	n/a	n/a	n/a	n/a	n/a	n/a	n/a	n/a	n/a	fixation
163388.9274219831	2750	n/a	957	71	2750	2634.07257802	stim	stop-signal	660	1791306	0.0-25.35-1.35	beast_fmri_test	393	1789202,/,1789882,/,1790562,/,1791242,/,1791922,/,1792602,/,1793282,/	t,t,t,t,t,t,t	<img class = center src='/static/experiments/beast_fmri_test/images/D.png'></img>	89,71	2750.0	test	<img class = center src='/static/experiments/beast_fmri_test/images/redD.png'></img>	go	2250.0	3.0	35.0	go	non-target	D	89,Middle Finger	71,Index Finger	750.0	500.0	2050.0	2250.0	1.0	n/a	500.0	1.0	go_stim
166138.9274219831	2634.0725780169369	n/a	957	71	2750	2634.07257802	stim	stop-signal	660	1791306	0.0-25.35-1.35	beast_fmri_test	393	1789202,/,1789882,/,1790562,/,1791242,/,1791922,/,1792602,/,1793282,/	t,t,t,t,t,t,t	<img class = center src='/static/experiments/beast_fmri_test/images/D.png'></img>	89,71	2750.0	test	<img class = center src='/static/experiments/beast_fmri_test/images/redD.png'></img>	go	2250.0	3.0	35.0	go	non-target	D	89,Middle Finger	71,Index Finger	750.0	500.0	2050.0	2250.0	1.0	n/a	500.0	1.0	ITI
171978	500	n/a	-1	-1	500	0.0	fixation	poldrack-single-stim	661	1794511	0.0-25.36-0.36	beast_fmri_test	393	1794009,/	t	<div class = centerbox2><div class = fixation>+</div></div>	none	500.0	test	n/a	n/a	n/a	n/a	n/a	n/a	n/a	n/a	n/a	n/a	n/a	n/a	n/a	n/a	n/a	n/a	n/a	n/a	fixation
171488.4833646107	500.0	n/a	-1	-1	2750	492.516635389	stim	stop-signal	662	1797264	0.0-25.36-1.36	beast_fmri_test	393	1794643,/,1795322,/,1796002,/,1796682,/,1797363,/	t,t,t,t,t	<img class = center src='/static/experiments/beast_fmri_test/images/B.png'></img>	89,71	2750.0	test	<img class = center src='/static/experiments/beast_fmri_test/images/redB.png'></img>	stop	2250.0	3.0	36.0	stop	non-target	B	89,Middle Finger	71,Index Finger	750.0	500.0	2050.0	2250.0	0.0	1.0	500.0	n/a	go_stim
173738.4833646107	2250.0	n/a	-1	-1	2750	492.516635389	stim	stop-signal	662	1797264	0.0-25.36-1.36	beast_fmri_test	393	1794643,/,1795322,/,1796002,/,1796682,/,1797363,/	t,t,t,t,t	<img class = center src='/static/experiments/beast_fmri_test/images/B.png'></img>	89,71	2750.0	test	<img class = center src='/static/experiments/beast_fmri_test/images/redB.png'></img>	stop	2250.0	3.0	36.0	stop	non-target	B	89,Middle Finger	71,Index Finger	750.0	500.0	2050.0	2250.0	0.0	1.0	500.0	n/a	stop_stim
174238.4833646107	492.51663538932939	n/a	-1	-1	2750	492.516635389	stim	stop-signal	662	1797264	0.0-25.36-1.36	beast_fmri_test	393	1794643,/,1795322,/,1796002,/,1796682,/,1797363,/	t,t,t,t,t	<img class = center src='/static/experiments/beast_fmri_test/images/B.png'></img>	89,71	2750.0	test	<img class = center src='/static/experiments/beast_fmri_test/images/redB.png'></img>	stop	2250.0	3.0	36.0	stop	non-target	B	89,Middle Finger	71,Index Finger	750.0	500.0	2050.0	2250.0	0.0	1.0	500.0	n/a	ITI
175801	500	n/a	-1	-1	500	0.0	fixation	poldrack-single-stim	663	1798334	0.0-25.37-0.37	beast_fmri_test	393	1798044,/	t	<div class = centerbox2><div class = fixation>+</div></div>	none	500.0	test	n/a	n/a	n/a	n/a	n/a	n/a	n/a	n/a	n/a	n/a	n/a	n/a	n/a	n/a	n/a	n/a	n/a	n/a	fixation
175590.50839910563	550.0	n/a	-1	-1	2750	213.491600894	stim	stop-signal	664	1801087	0.0-25.37-1.37	beast_fmri_test	393	1798723,/,1799403,/,1800083,/,1800763,/	t,t,t,t	<img class = center src='/static/experiments/beast_fmri_test/images/T.png'></img>	89,71	2750.0	test	<img class = center src='/static/experiments/beast_fmri_test/images/redT.png'></img>	stop	2200.0	3.0	37.0	stop	non-target	T	89,Middle Finger	71,Index Finger	750.0	550.0	2050.0	2200.0	0.0	1.0	550.0	n/a	go_stim
177790.50839910563	2200.0	n/a	-1	-1	2750	213.491600894	stim	stop-signal	664	1801087	0.0-25.37-1.37	beast_fmri_test	393	1798723,/,1799403,/,1800083,/,1800763,/	t,t,t,t	<img class = center src='/static/experiments/beast_fmri_test/images/T.png'></img>	89,71	2750.0	test	<img class = center src='/static/experiments/beast_fmri_test/images/redT.png'></img>	stop	2200.0	3.0	37.0	stop	non-target	T	89,Middle Finger	71,Index Finger	750.0	550.0	2050.0	2200.0	0.0	1.0	550.0	n/a	stop_stim
178340.50839910563	213.49160089440315	n/a	-1	-1	2750	213.491600894	stim	stop-signal	664	1801087	0.0-25.37-1.37	beast_fmri_test	393	1798723,/,1799403,/,1800083,/,1800763,/	t,t,t,t	<img class = center src='/static/experiments/beast_fmri_test/images/T.png'></img>	89,71	2750.0	test	<img class = center src='/static/experiments/beast_fmri_test/images/redT.png'></img>	stop	2200.0	3.0	37.0	stop	non-target	T	89,Middle Finger	71,Index Finger	750.0	550.0	2050.0	2200.0	0.0	1.0	550.0	n/a	ITI
179336	500	n/a	-1	-1	500	0.0	fixation	poldrack-single-stim	665	1801869	0.0-25.38-0.38	beast_fmri_test	393	1801442,/	t	<div class = centerbox2><div class = fixation>+</div></div>	none	500.0	test	n/a	n/a	n/a	n/a	n/a	n/a	n/a	n/a	n/a	n/a	n/a	n/a	n/a	n/a	n/a	n/a	n/a	n/a	fixation
176666.8836584501	2750	n/a	932	89	2750	2677.11634155	stim	stop-signal	666	1804627	0.0-25.38-1.38	beast_fmri_test	393	1802123,/,1802805,/,1803487,/,1804167,/,1804847,/,1805527,/,1806206,/,1806887,/	t,t,t,t,t,t,t,t	<img class = center src='/static/experiments/beast_fmri_test/images/D.png'></img>	89,71	2750.0	test	<img class = center src='/static/experiments/beast_fmri_test/images/redD.png'></img>	go	2000.0	3.0	38.0	go	target	D	89,Middle Finger	71,Index Finger	750.0	600.0	2000.0	2200.0	1.0	n/a	750.0	1.0	go_stim
179416.8836584501	2677.1163415499755	n/a	932	89	2750	2677.11634155	stim	stop-signal	666	1804627	0.0-25.38-1.38	beast_fmri_test	393	1802123,/,1802805,/,1803487,/,1804167,/,1804847,/,1805527,/,1806206,/,1806887,/	t,t,t,t,t,t,t,t	<img class = center src='/static/experiments/beast_fmri_test/images/D.png'></img>	89,71	2750.0	test	<img class = center src='/static/experiments/beast_fmri_test/images/redD.png'></img>	go	2000.0	3.0	38.0	go	target	D	89,Middle Finger	71,Index Finger	750.0	600.0	2000.0	2200.0	1.0	n/a	750.0	1.0	ITI
185349	500	n/a	-1	-1	500	0.0	fixation	poldrack-single-stim	667	1807882	0.0-25.39-0.39	beast_fmri_test	393	1807568,/	t	<div class = centerbox2><div class = fixation>+</div></div>	none	500.0	test	n/a	n/a	n/a	n/a	n/a	n/a	n/a	n/a	n/a	n/a	n/a	n/a	n/a	n/a	n/a	n/a	n/a	n/a	fixation
185241.82009446691	2750	n/a	751	89	2750	111.179905533	stim	stop-signal	668	1810636	0.0-25.39-1.39	beast_fmri_test	393	1808247,/,1808927,/,1809607,/,1810287,/	t,t,t,t	<img class = center src='/static/experiments/beast_fmri_test/images/B.png'></img>	89,71	2750.0	test	<img class = center src='/static/experiments/beast_fmri_test/images/redB.png'></img>	go	2000.0	3.0	39.0	go	target	B	89,Middle Finger	71,Index Finger	750.0	600.0	2000.0	2200.0	1.0	n/a	750.0	1.0	go_stim
187991.82009446691	111.17990553302346	n/a	751	89	2750	111.179905533	stim	stop-signal	668	1810636	0.0-25.39-1.39	beast_fmri_test	393	1808247,/,1808927,/,1809607,/,1810287,/	t,t,t,t	<img class = center src='/static/experiments/beast_fmri_test/images/B.png'></img>	89,71	2750.0	test	<img class = center src='/static/experiments/beast_fmri_test/images/redB.png'></img>	go	2000.0	3.0	39.0	go	target	B	89,Middle Finger	71,Index Finger	750.0	600.0	2000.0	2200.0	1.0	n/a	750.0	1.0	ITI
188787	500	n/a	-1	-1	500	0.0	fixation	poldrack-single-stim	669	1811320	0.0-25.40-0.40	beast_fmri_test	393	1810967,/	t	<div class = centerbox2><div class = fixation>+</div></div>	none	500.0	test	n/a	n/a	n/a	n/a	n/a	n/a	n/a	n/a	n/a	n/a	n/a	n/a	n/a	n/a	n/a	n/a	n/a	n/a	fixation
188592.57563418359	2750	n/a	1055	71	2750	199.424365816	stim	stop-signal	670	1814075	0.0-25.40-1.40	beast_fmri_test	393	1811647,/,1812327,/,1813009,/,1813691,/	t,t,t,t	<img class = center src='/static/experiments/beast_fmri_test/images/T.png'></img>	89,71	2750.0	test	<img class = center src='/static/experiments/beast_fmri_test/images/redT.png'></img>	go	2000.0	3.0	40.0	go	target	T	89,Middle Finger	71,Index Finger	750.0	600.0	2000.0	2200.0	0.0	n/a	750.0	0.0	go_stim
191342.57563418359	199.42436581631475	n/a	1055	71	2750	199.424365816	stim	stop-signal	670	1814075	0.0-25.40-1.40	beast_fmri_test	393	1811647,/,1812327,/,1813009,/,1813691,/	t,t,t,t	<img class = center src='/static/experiments/beast_fmri_test/images/T.png'></img>	89,71	2750.0	test	<img class = center src='/static/experiments/beast_fmri_test/images/redT.png'></img>	go	2000.0	3.0	40.0	go	target	T	89,Middle Finger	71,Index Finger	750.0	600.0	2000.0	2200.0	0.0	n/a	750.0	0.0	ITI
192318	500	n/a	-1	-1	500	0.0	fixation	poldrack-single-stim	671	1814851	0.0-25.41-0.41	beast_fmri_test	393	1814371,/	t	<div class = centerbox2><div class = fixation>+</div></div>	none	500.0	test	n/a	n/a	n/a	n/a	n/a	n/a	n/a	n/a	n/a	n/a	n/a	n/a	n/a	n/a	n/a	n/a	n/a	n/a	fixation
191397.377389136	750.0	n/a	-1	-1	2750	923.622610864	stim	stop-signal	672	1817604	0.0-25.41-1.41	beast_fmri_test	393	1815051,/,1815731,/,1816411,/,1817091,/,1817771,/,1818451,/	t,t,t,t,t,t	<img class = center src='/static/experiments/beast_fmri_test/images/D.png'></img>	89,71	2750.0	test	<img class = center src='/static/experiments/beast_fmri_test/images/redD.png'></img>	stop	2000.0	3.0	41.0	stop	target	D	89,Middle Finger	71,Index Finger	750.0	600.0	2000.0	2200.0	0.0	1.0	750.0	n/a	go_stim
193397.377389136	2000.0	n/a	-1	-1	2750	923.622610864	stim	stop-signal	672	1817604	0.0-25.41-1.41	beast_fmri_test	393	1815051,/,1815731,/,1816411,/,1817091,/,1817771,/,1818451,/	t,t,t,t,t,t	<img class = center src='/static/experiments/beast_fmri_test/images/D.png'></img>	89,71	2750.0	test	<img class = center src='/static/experiments/beast_fmri_test/images/redD.png'></img>	stop	2000.0	3.0	41.0	stop	target	D	89,Middle Finger	71,Index Finger	750.0	600.0	2000.0	2200.0	0.0	1.0	750.0	n/a	stop_stim
194147.377389136	923.62261086393221	n/a	-1	-1	2750	923.622610864	stim	stop-signal	672	1817604	0.0-25.41-1.41	beast_fmri_test	393	1815051,/,1815731,/,1816411,/,1817091,/,1817771,/,1818451,/	t,t,t,t,t,t	<img class = center src='/static/experiments/beast_fmri_test/images/D.png'></img>	89,71	2750.0	test	<img class = center src='/static/experiments/beast_fmri_test/images/redD.png'></img>	stop	2000.0	3.0	41.0	stop	target	D	89,Middle Finger	71,Index Finger	750.0	600.0	2000.0	2200.0	0.0	1.0	750.0	n/a	ITI
196568	500	n/a	-1	-1	500	0.0	fixation	poldrack-single-stim	673	1819101	0.0-25.42-0.42	beast_fmri_test	393	n/a	n/a	<div class = centerbox2><div class = fixation>+</div></div>	none	500.0	test	n/a	n/a	n/a	n/a	n/a	n/a	n/a	n/a	n/a	n/a	n/a	n/a	n/a	n/a	n/a	n/a	n/a	n/a	fixation
195342.6608271529	800.0	n/a	863	89	2750	1227.33917285	stim	stop-signal	674	1821853	0.0-25.42-1.42	beast_fmri_test	393	1819130,/,1819811,/,1820491,/,1821171,/,1821851,/,1822533,/	t,t,t,t,t,t	<img class = center src='/static/experiments/beast_fmri_test/images/B.png'></img>	89,71	2750.0	test	<img class = center src='/static/experiments/beast_fmri_test/images/redB.png'></img>	stop	1950.0	3.0	42.0	stop	target	B	89,Middle Finger	71,Index Finger	800.0	600.0	1950.0	2200.0	0.0	0.0	800.0	n/a	go_stim
197292.6608271529	1950.0	n/a	863	89	2750	1227.33917285	stim	stop-signal	674	1821853	0.0-25.42-1.42	beast_fmri_test	393	1819130,/,1819811,/,1820491,/,1821171,/,1821851,/,1822533,/	t,t,t,t,t,t	<img class = center src='/static/experiments/beast_fmri_test/images/B.png'></img>	89,71	2750.0	test	<img class = center src='/static/experiments/beast_fmri_test/images/redB.png'></img>	stop	1950.0	3.0	42.0	stop	target	B	89,Middle Finger	71,Index Finger	800.0	600.0	1950.0	2200.0	0.0	0.0	800.0	n/a	stop_stim
198092.6608271529	1227.3391728470833	n/a	863	89	2750	1227.33917285	stim	stop-signal	674	1821853	0.0-25.42-1.42	beast_fmri_test	393	1819130,/,1819811,/,1820491,/,1821171,/,1821851,/,1822533,/	t,t,t,t,t,t	<img class = center src='/static/experiments/beast_fmri_test/images/B.png'></img>	89,71	2750.0	test	<img class = center src='/static/experiments/beast_fmri_test/images/redB.png'></img>	stop	1950.0	3.0	42.0	stop	target	B	89,Middle Finger	71,Index Finger	800.0	600.0	1950.0	2200.0	0.0	0.0	800.0	n/a	ITI
201124	500	n/a	-1	-1	500	0.0	fixation	poldrack-single-stim	675	1823657	0.0-25.43-0.43	beast_fmri_test	393	1823215,/	t	<div class = centerbox2><div class = fixation>+</div></div>	none	500.0	test	n/a	n/a	n/a	n/a	n/a	n/a	n/a	n/a	n/a	n/a	n/a	n/a	n/a	n/a	n/a	n/a	n/a	n/a	fixation
200621.13849058095	2750	n/a	1831	71	2750	505.861509419	stim	stop-signal	676	1826410	0.0-25.43-1.43	beast_fmri_test	393	1823896,/,1824575,/,1825256,/,1825936,/,1826616,/	t,t,t,t,t	<img class = center src='/static/experiments/beast_fmri_test/images/D.png'></img>	89,71	2750.0	test	<img class = center src='/static/experiments/beast_fmri_test/images/redD.png'></img>	go	2150.0	3.0	43.0	go	non-target	D	89,Middle Finger	71,Index Finger	750.0	600.0	1950.0	2150.0	1.0	n/a	600.0	1.0	go_stim
203371.13849058095	505.86150941897273	n/a	1831	71	2750	505.861509419	stim	stop-signal	676	1826410	0.0-25.43-1.43	beast_fmri_test	393	1823896,/,1824575,/,1825256,/,1825936,/,1826616,/	t,t,t,t,t	<img class = center src='/static/experiments/beast_fmri_test/images/D.png'></img>	89,71	2750.0	test	<img class = center src='/static/experiments/beast_fmri_test/images/redD.png'></img>	go	2150.0	3.0	43.0	go	non-target	D	89,Middle Finger	71,Index Finger	750.0	600.0	1950.0	2150.0	1.0	n/a	600.0	1.0	ITI
204956	500	n/a	-1	-1	500	0.0	fixation	poldrack-single-stim	677	1827489	0.0-25.44-0.44	beast_fmri_test	393	1827296,/	t	<div class = centerbox2><div class = fixation>+</div></div>	none	500.0	test	n/a	n/a	n/a	n/a	n/a	n/a	n/a	n/a	n/a	n/a	n/a	n/a	n/a	n/a	n/a	n/a	n/a	n/a	fixation
201420.66828005109	2750	n/a	1750	89	2750	3538.33171995	stim	stop-signal	678	1830242	0.0-25.44-1.44	beast_fmri_test	393	1827975,/,1828656,/,1829335,/,1830016,/,1830695,/,1831376,/,1832056,/,1832738,/,1833420,/	t,t,t,t,t,t,t,t,t	<img class = center src='/static/experiments/beast_fmri_test/images/D.png'></img>	89,71	2750.0	test	<img class = center src='/static/experiments/beast_fmri_test/images/redD.png'></img>	go	2000.0	3.0	44.0	go	target	D	89,Middle Finger	71,Index Finger	750.0	600.0	2000.0	2150.0	1.0	n/a	750.0	1.0	go_stim
204170.66828005109	3538.3317199488579	n/a	1750	89	2750	3538.33171995	stim	stop-signal	678	1830242	0.0-25.44-1.44	beast_fmri_test	393	1827975,/,1828656,/,1829335,/,1830016,/,1830695,/,1831376,/,1832056,/,1832738,/,1833420,/	t,t,t,t,t,t,t,t,t	<img class = center src='/static/experiments/beast_fmri_test/images/D.png'></img>	89,71	2750.0	test	<img class = center src='/static/experiments/beast_fmri_test/images/redD.png'></img>	go	2000.0	3.0	44.0	go	target	D	89,Middle Finger	71,Index Finger	750.0	600.0	2000.0	2150.0	1.0	n/a	750.0	1.0	ITI
211831	500	n/a	-1	-1	500	0.0	fixation	poldrack-single-stim	679	1834364	0.0-25.45-0.45	beast_fmri_test	393	1834101,/	t	<div class = centerbox2><div class = fixation>+</div></div>	none	500.0	test	n/a	n/a	n/a	n/a	n/a	n/a	n/a	n/a	n/a	n/a	n/a	n/a	n/a	n/a	n/a	n/a	n/a	n/a	fixation
209598.86992456787	2750	n/a	979	71	2750	2236.13007543	stim	stop-signal	680	1837118	0.0-25.45-1.45	beast_fmri_test	393	1834780,/,1835460,/,1836140,/,1836820,/,1837500,/,1838180,/,1838860,/	t,t,t,t,t,t,t	<img class = center src='/static/experiments/beast_fmri_test/images/T.png'></img>	89,71	2750.0	test	<img class = center src='/static/experiments/beast_fmri_test/images/redT.png'></img>	go	2150.0	3.0	45.0	go	non-target	T	89,Middle Finger	71,Index Finger	750.0	600.0	2000.0	2150.0	1.0	n/a	600.0	1.0	go_stim
212348.86992456787	2236.130075432166	n/a	979	71	2750	2236.13007543	stim	stop-signal	680	1837118	0.0-25.45-1.45	beast_fmri_test	393	1834780,/,1835460,/,1836140,/,1836820,/,1837500,/,1838180,/,1838860,/	t,t,t,t,t,t,t	<img class = center src='/static/experiments/beast_fmri_test/images/T.png'></img>	89,71	2750.0	test	<img class = center src='/static/experiments/beast_fmri_test/images/redT.png'></img>	go	2150.0	3.0	45.0	go	non-target	T	89,Middle Finger	71,Index Finger	750.0	600.0	2000.0	2150.0	1.0	n/a	600.0	1.0	ITI
217397	500	n/a	-1	-1	500	0.0	fixation	poldrack-single-stim	681	1839930	0.0-25.46-0.46	beast_fmri_test	393	1839541,/	t	<div class = centerbox2><div class = fixation>+</div></div>	none	500.0	test	n/a	n/a	n/a	n/a	n/a	n/a	n/a	n/a	n/a	n/a	n/a	n/a	n/a	n/a	n/a	n/a	n/a	n/a	fixation
216775.60820275708	2750	n/a	2019	71	2750	626.391797243	stim	stop-signal	682	1842685	0.0-25.46-1.46	beast_fmri_test	393	1840220,/,1840901,/,1841580,/,1842259,/,1842942,/	t,t,t,t,t	<img class = center src='/static/experiments/beast_fmri_test/images/T.png'></img>	89,71	2750.0	test	<img class = center src='/static/experiments/beast_fmri_test/images/redT.png'></img>	go	2150.0	3.0	46.0	go	non-target	T	89,Middle Finger	71,Index Finger	750.0	600.0	2000.0	2150.0	1.0	n/a	600.0	1.0	go_stim
219525.60820275708	626.39179724281337	n/a	2019	71	2750	626.391797243	stim	stop-signal	682	1842685	0.0-25.46-1.46	beast_fmri_test	393	1840220,/,1840901,/,1841580,/,1842259,/,1842942,/	t,t,t,t,t	<img class = center src='/static/experiments/beast_fmri_test/images/T.png'></img>	89,71	2750.0	test	<img class = center src='/static/experiments/beast_fmri_test/images/redT.png'></img>	go	2150.0	3.0	46.0	go	non-target	T	89,Middle Finger	71,Index Finger	750.0	600.0	2000.0	2150.0	1.0	n/a	600.0	1.0	ITI
221346	500	n/a	-1	-1	500	0.0	fixation	poldrack-single-stim	683	1843879	0.0-25.47-0.47	beast_fmri_test	393	1843625,/	t	<div class = centerbox2><div class = fixation>+</div></div>	none	500.0	test	n/a	n/a	n/a	n/a	n/a	n/a	n/a	n/a	n/a	n/a	n/a	n/a	n/a	n/a	n/a	n/a	n/a	n/a	fixation
221239.42324408283	2750	n/a	892	71	2750	110.576755917	stim	stop-signal	684	1846633	0.0-25.47-1.47	beast_fmri_test	393	1844304,/,1844984,/,1845664,/,1846344,/	t,t,t,t	<img class = center src='/static/experiments/beast_fmri_test/images/P.png'></img>	89,71	2750.0	test	<img class = center src='/static/experiments/beast_fmri_test/images/redP.png'></img>	go	2150.0	3.0	47.0	go	non-target	P	89,Middle Finger	71,Index Finger	750.0	600.0	2000.0	2150.0	1.0	n/a	600.0	1.0	go_stim
223989.42324408283	110.57675591722969	n/a	892	71	2750	110.576755917	stim	stop-signal	684	1846633	0.0-25.47-1.47	beast_fmri_test	393	1844304,/,1844984,/,1845664,/,1846344,/	t,t,t,t	<img class = center src='/static/experiments/beast_fmri_test/images/P.png'></img>	89,71	2750.0	test	<img class = center src='/static/experiments/beast_fmri_test/images/redP.png'></img>	go	2150.0	3.0	47.0	go	non-target	P	89,Middle Finger	71,Index Finger	750.0	600.0	2000.0	2150.0	1.0	n/a	600.0	1.0	ITI
239278	15000	n/a	-1	-1	15000	0.0	practice-no-stop-feedback	poldrack-single-stim	685	1861811	0.0-26.0	beast_fmri_test	393	1847025,/,1847704,/,1848384,/,1849064,/,1849744,/,1850424,/,1851103,/,1851784,/,1852464,/,1853145,/,1853825,/,1854505,/,1855185,/,1855865,/,1856545,/,1857226,/,1857905,/,1858586,/,1859265,/,1859945,/,1860625,/,1861305,/	t,t,t,t,t,t,t,t,t,t,t,t,t,t,t,t,t,t,t,t,t,t	"<div class = ""centerbox2_2""><p class = ""block-text2"">Your delay is 2 trials.</p><p class = block-text2>Please wait for the scanner to start the block</p></div>"	77	15000.0	n/a	n/a	n/a	n/a	n/a	n/a	n/a	n/a	n/a	n/a	n/a	n/a	n/a	n/a	n/a	n/a	n/a	n/a	n/a	practice-no-stop-feedback
239781	500	n/a	-1	-1	500	0.0	fixation	poldrack-single-stim	686	1862314	0.0-27.0-0.0	beast_fmri_test	393	1861985,/	t	<div class = centerbox2><div class = fixation>+</div></div>	none	500.0	test	n/a	n/a	n/a	n/a	n/a	n/a	n/a	n/a	n/a	n/a	n/a	n/a	n/a	n/a	n/a	n/a	n/a	n/a	fixation
237623.47004771349	temp_go_duration	n/a	1203	71	2750	2165.52995229	stim	stop-signal	687	1865072	0.0-27.0-1.0	beast_fmri_test	393	1862666,/,1863349,/,1864029,/,1864709,/,1865389,/,1866069,/,1866749,/	t,t,t,t,t,t,t	<img class = center src='/static/experiments/beast_fmri_test/images/B.png'></img>	89,71	2750.0	test	<img class = center src='/static/experiments/beast_fmri_test/images/redB.png'></img>	stop	-1.0	2.0	0.0	stop	temp-non-target	B	89,Middle Finger	71,Index Finger	750.0	600.0	2000.0	2150.0	0.0	0.0	n/a	n/a	go_stim
temp-non-target	temp_stop_duration	n/a	1203	71	2750	2165.52995229	stim	stop-signal	687	1865072	0.0-27.0-1.0	beast_fmri_test	393	1862666,/,1863349,/,1864029,/,1864709,/,1865389,/,1866069,/,1866749,/	t,t,t,t,t,t,t	<img class = center src='/static/experiments/beast_fmri_test/images/B.png'></img>	89,71	2750.0	test	<img class = center src='/static/experiments/beast_fmri_test/images/redB.png'></img>	stop	-1.0	2.0	0.0	stop	temp-non-target	B	89,Middle Finger	71,Index Finger	750.0	600.0	2000.0	2150.0	0.0	0.0	n/a	n/a	stop_stim
240373.47004771349	2165.5299522864498	n/a	1203	71	2750	2165.52995229	stim	stop-signal	687	1865072	0.0-27.0-1.0	beast_fmri_test	393	1862666,/,1863349,/,1864029,/,1864709,/,1865389,/,1866069,/,1866749,/	t,t,t,t,t,t,t	<img class = center src='/static/experiments/beast_fmri_test/images/B.png'></img>	89,71	2750.0	test	<img class = center src='/static/experiments/beast_fmri_test/images/redB.png'></img>	stop	-1.0	2.0	0.0	stop	temp-non-target	B	89,Middle Finger	71,Index Finger	750.0	600.0	2000.0	2150.0	0.0	0.0	n/a	n/a	ITI
245270	500	n/a	-1	-1	500	0.0	fixation	poldrack-single-stim	688	1867803	0.0-27.1-0.1	beast_fmri_test	393	1867430,/	t	<div class = centerbox2><div class = fixation>+</div></div>	none	500.0	test	n/a	n/a	n/a	n/a	n/a	n/a	n/a	n/a	n/a	n/a	n/a	n/a	n/a	n/a	n/a	n/a	n/a	n/a	fixation
244862.50826429552	temp_go_duration	n/a	576	71	2750	410.491735705	stim	stop-signal	689	1870556	0.0-27.1-1.1	beast_fmri_test	393	1868110,/,1868789,/,1869469,/,1870149,/,1870829,/	t,t,t,t,t	<img class = center src='/static/experiments/beast_fmri_test/images/T.png'></img>	89,71	2750.0	test	<img class = center src='/static/experiments/beast_fmri_test/images/redT.png'></img>	stop	-1.0	2.0	1.0	stop	temp-non-target	T	89,Middle Finger	71,Index Finger	750.0	600.0	2000.0	2150.0	0.0	0.0	n/a	n/a	go_stim
temp-non-target	temp_stop_duration	n/a	576	71	2750	410.491735705	stim	stop-signal	689	1870556	0.0-27.1-1.1	beast_fmri_test	393	1868110,/,1868789,/,1869469,/,1870149,/,1870829,/	t,t,t,t,t	<img class = center src='/static/experiments/beast_fmri_test/images/T.png'></img>	89,71	2750.0	test	<img class = center src='/static/experiments/beast_fmri_test/images/redT.png'></img>	stop	-1.0	2.0	1.0	stop	temp-non-target	T	89,Middle Finger	71,Index Finger	750.0	600.0	2000.0	2150.0	0.0	0.0	n/a	n/a	stop_stim
247612.50826429552	410.49173570453206	n/a	576	71	2750	410.491735705	stim	stop-signal	689	1870556	0.0-27.1-1.1	beast_fmri_test	393	1868110,/,1868789,/,1869469,/,1870149,/,1870829,/	t,t,t,t,t	<img class = center src='/static/experiments/beast_fmri_test/images/T.png'></img>	89,71	2750.0	test	<img class = center src='/static/experiments/beast_fmri_test/images/redT.png'></img>	stop	-1.0	2.0	1.0	stop	temp-non-target	T	89,Middle Finger	71,Index Finger	750.0	600.0	2000.0	2150.0	0.0	0.0	n/a	n/a	ITI
248996	500	n/a	-1	-1	500	0.0	fixation	poldrack-single-stim	690	1871529	0.0-27.2-0.2	beast_fmri_test	393	1871510,/	t	<div class = centerbox2><div class = fixation>+</div></div>	none	500.0	test	n/a	n/a	n/a	n/a	n/a	n/a	n/a	n/a	n/a	n/a	n/a	n/a	n/a	n/a	n/a	n/a	n/a	n/a	fixation
248307.34306776267	2750	n/a	842	71	2750	695.656932237	stim	stop-signal	691	1874286	0.0-27.2-1.2	beast_fmri_test	393	1872190,/,1872872,/,1873553,/,1874233,/,1874913,/	t,t,t,t,t	<img class = center src='/static/experiments/beast_fmri_test/images/T.png'></img>	89,71	2750.0	test	<img class = center src='/static/experiments/beast_fmri_test/images/redT.png'></img>	go	2150.0	2.0	2.0	go	non-target	T	89,Middle Finger	71,Index Finger	750.0	600.0	2000.0	2150.0	1.0	n/a	600.0	1.0	go_stim
251057.34306776267	695.65693223739902	n/a	842	71	2750	695.656932237	stim	stop-signal	691	1874286	0.0-27.2-1.2	beast_fmri_test	393	1872190,/,1872872,/,1873553,/,1874233,/,1874913,/	t,t,t,t,t	<img class = center src='/static/experiments/beast_fmri_test/images/T.png'></img>	89,71	2750.0	test	<img class = center src='/static/experiments/beast_fmri_test/images/redT.png'></img>	go	2150.0	2.0	2.0	go	non-target	T	89,Middle Finger	71,Index Finger	750.0	600.0	2000.0	2150.0	1.0	n/a	600.0	1.0	ITI
253015	500	n/a	-1	-1	500	0.0	fixation	poldrack-single-stim	692	1875548	0.0-27.3-0.3	beast_fmri_test	393	n/a	n/a	<div class = centerbox2><div class = fixation>+</div></div>	none	500.0	test	n/a	n/a	n/a	n/a	n/a	n/a	n/a	n/a	n/a	n/a	n/a	n/a	n/a	n/a	n/a	n/a	n/a	n/a	fixation
248260.57535216236	600.0	n/a	704	71	2750	4757.42464784	stim	stop-signal	693	1878301	0.0-27.3-1.3	beast_fmri_test	393	1875594,/,1876273,/,1876953,/,1877633,/,1878312,/,1878994,/,1879674,/,1880354,/,1881035,/,1881715,/,1882394,/	t,t,t,t,t,t,t,t,t,t,t	<img class = center src='/static/experiments/beast_fmri_test/images/B.png'></img>	89,71	2750.0	test	<img class = center src='/static/experiments/beast_fmri_test/images/redB.png'></img>	stop	2150.0	2.0	3.0	stop	non-target	B	89,Middle Finger	71,Index Finger	750.0	600.0	2000.0	2150.0	0.0	0.0	600.0	n/a	go_stim
250410.57535216236	2150.0	n/a	704	71	2750	4757.42464784	stim	stop-signal	693	1878301	0.0-27.3-1.3	beast_fmri_test	393	1875594,/,1876273,/,1876953,/,1877633,/,1878312,/,1878994,/,1879674,/,1880354,/,1881035,/,1881715,/,1882394,/	t,t,t,t,t,t,t,t,t,t,t	<img class = center src='/static/experiments/beast_fmri_test/images/B.png'></img>	89,71	2750.0	test	<img class = center src='/static/experiments/beast_fmri_test/images/redB.png'></img>	stop	2150.0	2.0	3.0	stop	non-target	B	89,Middle Finger	71,Index Finger	750.0	600.0	2000.0	2150.0	0.0	0.0	600.0	n/a	stop_stim
251010.57535216236	4757.4246478377163	n/a	704	71	2750	4757.42464784	stim	stop-signal	693	1878301	0.0-27.3-1.3	beast_fmri_test	393	1875594,/,1876273,/,1876953,/,1877633,/,1878312,/,1878994,/,1879674,/,1880354,/,1881035,/,1881715,/,1882394,/	t,t,t,t,t,t,t,t,t,t,t	<img class = center src='/static/experiments/beast_fmri_test/images/B.png'></img>	89,71	2750.0	test	<img class = center src='/static/experiments/beast_fmri_test/images/redB.png'></img>	stop	2150.0	2.0	3.0	stop	non-target	B	89,Middle Finger	71,Index Finger	750.0	600.0	2000.0	2150.0	0.0	0.0	600.0	n/a	ITI
261095	500	n/a	-1	-1	500	0.0	fixation	poldrack-single-stim	694	1883628	0.0-27.4-0.4	beast_fmri_test	393	1883125,/	t	<div class = centerbox2><div class = fixation>+</div></div>	none	500.0	test	n/a	n/a	n/a	n/a	n/a	n/a	n/a	n/a	n/a	n/a	n/a	n/a	n/a	n/a	n/a	n/a	n/a	n/a	fixation
260650.03073129035	2750	n/a	702	71	2750	448.96926871	stim	stop-signal	695	1886382	0.0-27.4-1.4	beast_fmri_test	393	1883759,/,1884439,/,1885119,/,1885798,/,1886478,/	t,t,t,t,t	<img class = center src='/static/experiments/beast_fmri_test/images/P.png'></img>	89,71	2750.0	test	<img class = center src='/static/experiments/beast_fmri_test/images/redP.png'></img>	go	2200.0	2.0	4.0	go	non-target	P	89,Middle Finger	71,Index Finger	750.0	550.0	2000.0	2200.0	1.0	n/a	550.0	1.0	go_stim
263400.03073129035	448.96926870964478	n/a	702	71	2750	448.96926871	stim	stop-signal	695	1886382	0.0-27.4-1.4	beast_fmri_test	393	1883759,/,1884439,/,1885119,/,1885798,/,1886478,/	t,t,t,t,t	<img class = center src='/static/experiments/beast_fmri_test/images/P.png'></img>	89,71	2750.0	test	<img class = center src='/static/experiments/beast_fmri_test/images/redP.png'></img>	go	2200.0	2.0	4.0	go	non-target	P	89,Middle Finger	71,Index Finger	750.0	550.0	2000.0	2200.0	1.0	n/a	550.0	1.0	ITI
264862	500	n/a	-1	-1	500	0.0	fixation	poldrack-single-stim	696	1887395	0.0-27.5-0.5	beast_fmri_test	393	1887159,/	t	<div class = centerbox2><div class = fixation>+</div></div>	none	500.0	test	n/a	n/a	n/a	n/a	n/a	n/a	n/a	n/a	n/a	n/a	n/a	n/a	n/a	n/a	n/a	n/a	n/a	n/a	fixation
263659.29208331392	750.0	n/a	1125	89	2750	1205.70791669	stim	stop-signal	697	1890148	0.0-27.5-1.5	beast_fmri_test	393	1887839,/,1888519,/,1889199,/,1889879,/,1890559,/,1891238,/	t,t,t,t,t,t	<img class = center src='/static/experiments/beast_fmri_test/images/B.png'></img>	89,71	2750.0	test	<img class = center src='/static/experiments/beast_fmri_test/images/redB.png'></img>	stop	2000.0	2.0	5.0	stop	target	B	89,Middle Finger	71,Index Finger	750.0	550.0	2000.0	2200.0	0.0	0.0	750.0	n/a	go_stim
265659.29208331392	2000.0	n/a	1125	89	2750	1205.70791669	stim	stop-signal	697	1890148	0.0-27.5-1.5	beast_fmri_test	393	1887839,/,1888519,/,1889199,/,1889879,/,1890559,/,1891238,/	t,t,t,t,t,t	<img class = center src='/static/experiments/beast_fmri_test/images/B.png'></img>	89,71	2750.0	test	<img class = center src='/static/experiments/beast_fmri_test/images/redB.png'></img>	stop	2000.0	2.0	5.0	stop	target	B	89,Middle Finger	71,Index Finger	750.0	550.0	2000.0	2200.0	0.0	0.0	750.0	n/a	stop_stim
266409.29208331392	1205.7079166861301	n/a	1125	89	2750	1205.70791669	stim	stop-signal	697	1890148	0.0-27.5-1.5	beast_fmri_test	393	1887839,/,1888519,/,1889199,/,1889879,/,1890559,/,1891238,/	t,t,t,t,t,t	<img class = center src='/static/experiments/beast_fmri_test/images/B.png'></img>	89,71	2750.0	test	<img class = center src='/static/experiments/beast_fmri_test/images/redB.png'></img>	stop	2000.0	2.0	5.0	stop	target	B	89,Middle Finger	71,Index Finger	750.0	550.0	2000.0	2200.0	0.0	0.0	750.0	n/a	ITI
269393	500	n/a	-1	-1	500	0.0	fixation	poldrack-single-stim	698	1891926	0.0-27.6-0.6	beast_fmri_test	393	1891919,/	t	<div class = centerbox2><div class = fixation>+</div></div>	none	500.0	test	n/a	n/a	n/a	n/a	n/a	n/a	n/a	n/a	n/a	n/a	n/a	n/a	n/a	n/a	n/a	n/a	n/a	n/a	fixation
268031.62946095294	2750	n/a	989	71	2750	1369.37053905	stim	stop-signal	699	1894684	0.0-27.6-1.6	beast_fmri_test	393	1892599,/,1893282,/,1893963,/,1894643,/,1895323,/,1896003,/	t,t,t,t,t,t	<img class = center src='/static/experiments/beast_fmri_test/images/D.png'></img>	89,71	2750.0	test	<img class = center src='/static/experiments/beast_fmri_test/images/redD.png'></img>	go	2200.0	2.0	6.0	go	non-target	D	89,Middle Finger	71,Index Finger	700.0	550.0	2000.0	2200.0	1.0	n/a	550.0	1.0	go_stim
270781.62946095294	1369.3705390470525	n/a	989	71	2750	1369.37053905	stim	stop-signal	699	1894684	0.0-27.6-1.6	beast_fmri_test	393	1892599,/,1893282,/,1893963,/,1894643,/,1895323,/,1896003,/	t,t,t,t,t,t	<img class = center src='/static/experiments/beast_fmri_test/images/D.png'></img>	89,71	2750.0	test	<img class = center src='/static/experiments/beast_fmri_test/images/redD.png'></img>	go	2200.0	2.0	6.0	go	non-target	D	89,Middle Finger	71,Index Finger	700.0	550.0	2000.0	2200.0	1.0	n/a	550.0	1.0	ITI
274093	500	n/a	-1	-1	500	0.0	fixation	poldrack-single-stim	700	1896626	0.0-27.7-0.7	beast_fmri_test	393	n/a	n/a	<div class = centerbox2><div class = fixation>+</div></div>	none	500.0	test	n/a	n/a	n/a	n/a	n/a	n/a	n/a	n/a	n/a	n/a	n/a	n/a	n/a	n/a	n/a	n/a	n/a	n/a	fixation
271615.52199428529	2750	n/a	866	71	2750	2481.47800571	stim	stop-signal	701	1899380	0.0-27.7-1.7	beast_fmri_test	393	1896690,/,1897363,/,1898042,/,1898723,/,1899402,/,1900083,/,1900763,/,1901443,/	t,t,t,t,t,t,t,t	<img class = center src='/static/experiments/beast_fmri_test/images/P.png'></img>	89,71	2750.0	test	<img class = center src='/static/experiments/beast_fmri_test/images/redP.png'></img>	go	2200.0	2.0	7.0	go	non-target	P	89,Middle Finger	71,Index Finger	700.0	550.0	2000.0	2200.0	1.0	n/a	550.0	1.0	go_stim
274365.52199428529	2481.4780057147823	n/a	866	71	2750	2481.47800571	stim	stop-signal	701	1899380	0.0-27.7-1.7	beast_fmri_test	393	1896690,/,1897363,/,1898042,/,1898723,/,1899402,/,1900083,/,1900763,/,1901443,/	t,t,t,t,t,t,t,t	<img class = center src='/static/experiments/beast_fmri_test/images/P.png'></img>	89,71	2750.0	test	<img class = center src='/static/experiments/beast_fmri_test/images/redP.png'></img>	go	2200.0	2.0	7.0	go	non-target	P	89,Middle Finger	71,Index Finger	700.0	550.0	2000.0	2200.0	1.0	n/a	550.0	1.0	ITI
279896	500	n/a	-1	-1	500	0.0	fixation	poldrack-single-stim	702	1902429	0.0-27.8-0.8	beast_fmri_test	393	1902123,/	t	<div class = centerbox2><div class = fixation>+</div></div>	none	500.0	test	n/a	n/a	n/a	n/a	n/a	n/a	n/a	n/a	n/a	n/a	n/a	n/a	n/a	n/a	n/a	n/a	n/a	n/a	fixation
279618.77136407187	700.0	n/a	-1	-1	2750	285.228635928	stim	stop-signal	703	1905187	0.0-27.8-1.8	beast_fmri_test	393	1902804,/,1903487,/,1904167,/,1904847,/	t,t,t,t	<img class = center src='/static/experiments/beast_fmri_test/images/D.png'></img>	89,71	2750.0	test	<img class = center src='/static/experiments/beast_fmri_test/images/redD.png'></img>	stop	2050.0	2.0	8.0	stop	target	D	89,Middle Finger	71,Index Finger	700.0	550.0	2050.0	2200.0	0.0	1.0	700.0	n/a	go_stim
281668.77136407187	2050.0	n/a	-1	-1	2750	285.228635928	stim	stop-signal	703	1905187	0.0-27.8-1.8	beast_fmri_test	393	1902804,/,1903487,/,1904167,/,1904847,/	t,t,t,t	<img class = center src='/static/experiments/beast_fmri_test/images/D.png'></img>	89,71	2750.0	test	<img class = center src='/static/experiments/beast_fmri_test/images/redD.png'></img>	stop	2050.0	2.0	8.0	stop	target	D	89,Middle Finger	71,Index Finger	700.0	550.0	2050.0	2200.0	0.0	1.0	700.0	n/a	stop_stim
282368.77136407187	285.22863592824365	n/a	-1	-1	2750	285.228635928	stim	stop-signal	703	1905187	0.0-27.8-1.8	beast_fmri_test	393	1902804,/,1903487,/,1904167,/,1904847,/	t,t,t,t	<img class = center src='/static/experiments/beast_fmri_test/images/D.png'></img>	89,71	2750.0	test	<img class = center src='/static/experiments/beast_fmri_test/images/redD.png'></img>	stop	2050.0	2.0	8.0	stop	target	D	89,Middle Finger	71,Index Finger	700.0	550.0	2050.0	2200.0	0.0	1.0	700.0	n/a	ITI
283504	500	n/a	-1	-1	500	0.0	fixation	poldrack-single-stim	704	1906037	0.0-27.9-0.9	beast_fmri_test	393	1905535,/	t	<div class = centerbox2><div class = fixation>+</div></div>	none	500.0	test	n/a	n/a	n/a	n/a	n/a	n/a	n/a	n/a	n/a	n/a	n/a	n/a	n/a	n/a	n/a	n/a	n/a	n/a	fixation
282885.09475724981	2750	n/a	804	89	2750	621.90524275	stim	stop-signal	705	1908790	0.0-27.9-1.9	beast_fmri_test	393	1906207,/,1906887,/,1907567,/,1908248,/,1908927,/	t,t,t,t,t	<img class = center src='/static/experiments/beast_fmri_test/images/P.png'></img>	89,71	2750.0	test	<img class = center src='/static/experiments/beast_fmri_test/images/redP.png'></img>	go	2000.0	2.0	9.0	go	target	P	89,Middle Finger	71,Index Finger	750.0	550.0	2000.0	2200.0	1.0	n/a	750.0	1.0	go_stim
285635.09475724981	621.90524275008738	n/a	804	89	2750	621.90524275	stim	stop-signal	705	1908790	0.0-27.9-1.9	beast_fmri_test	393	1906207,/,1906887,/,1907567,/,1908248,/,1908927,/	t,t,t,t,t	<img class = center src='/static/experiments/beast_fmri_test/images/P.png'></img>	89,71	2750.0	test	<img class = center src='/static/experiments/beast_fmri_test/images/redP.png'></img>	go	2000.0	2.0	9.0	go	target	P	89,Middle Finger	71,Index Finger	750.0	550.0	2000.0	2200.0	1.0	n/a	750.0	1.0	ITI
287446	500	n/a	-1	-1	500	0.0	fixation	poldrack-single-stim	706	1909979	0.0-27.10-0.10	beast_fmri_test	393	1909608,/	t	<div class = centerbox2><div class = fixation>+</div></div>	none	500.0	test	n/a	n/a	n/a	n/a	n/a	n/a	n/a	n/a	n/a	n/a	n/a	n/a	n/a	n/a	n/a	n/a	n/a	n/a	fixation
287384.51706385287	2750	n/a	1642	71	2750	65.4829361472	stim	stop-signal	707	1912733	0.0-27.10-1.10	beast_fmri_test	393	1910288,/,1910968,/,1911647,/,1912327,/	t,t,t,t	<img class = center src='/static/experiments/beast_fmri_test/images/P.png'></img>	89,71	2750.0	test	<img class = center src='/static/experiments/beast_fmri_test/images/redP.png'></img>	go	2200.0	2.0	10.0	go	non-target	P	89,Middle Finger	71,Index Finger	750.0	550.0	2000.0	2200.0	1.0	n/a	550.0	1.0	go_stim
290134.51706385287	65.482936147189804	n/a	1642	71	2750	65.4829361472	stim	stop-signal	707	1912733	0.0-27.10-1.10	beast_fmri_test	393	1910288,/,1910968,/,1911647,/,1912327,/	t,t,t,t	<img class = center src='/static/experiments/beast_fmri_test/images/P.png'></img>	89,71	2750.0	test	<img class = center src='/static/experiments/beast_fmri_test/images/redP.png'></img>	go	2200.0	2.0	10.0	go	non-target	P	89,Middle Finger	71,Index Finger	750.0	550.0	2000.0	2200.0	1.0	n/a	550.0	1.0	ITI
290831	500	n/a	-1	-1	500	0.0	fixation	poldrack-single-stim	708	1913364	0.0-27.11-0.11	beast_fmri_test	393	1913008,/	t	<div class = centerbox2><div class = fixation>+</div></div>	none	500.0	test	n/a	n/a	n/a	n/a	n/a	n/a	n/a	n/a	n/a	n/a	n/a	n/a	n/a	n/a	n/a	n/a	n/a	n/a	fixation
289822.10529411212	2750	n/a	659	89	2750	1009.89470589	stim	stop-signal	709	1916115	0.0-27.11-1.11	beast_fmri_test	393	1913688,/,1914368,/,1915048,/,1915728,/,1916407,/,1917086,/	t,t,t,t,t,t	<img class = center src='/static/experiments/beast_fmri_test/images/P.png'></img>	89,71	2750.0	test	<img class = center src='/static/experiments/beast_fmri_test/images/redP.png'></img>	go	2000.0	2.0	11.0	go	target	P	89,Middle Finger	71,Index Finger	750.0	550.0	2000.0	2200.0	1.0	n/a	750.0	1.0	go_stim
292572.10529411212	1009.8947058877844	n/a	659	89	2750	1009.89470589	stim	stop-signal	709	1916115	0.0-27.11-1.11	beast_fmri_test	393	1913688,/,1914368,/,1915048,/,1915728,/,1916407,/,1917086,/	t,t,t,t,t,t	<img class = center src='/static/experiments/beast_fmri_test/images/P.png'></img>	89,71	2750.0	test	<img class = center src='/static/experiments/beast_fmri_test/images/redP.png'></img>	go	2000.0	2.0	11.0	go	target	P	89,Middle Finger	71,Index Finger	750.0	550.0	2000.0	2200.0	1.0	n/a	750.0	1.0	ITI
295154	500	n/a	-1	-1	500	0.0	fixation	poldrack-single-stim	710	1917687	0.0-27.12-0.12	beast_fmri_test	393	n/a	n/a	<div class = centerbox2><div class = fixation>+</div></div>	none	500.0	test	n/a	n/a	n/a	n/a	n/a	n/a	n/a	n/a	n/a	n/a	n/a	n/a	n/a	n/a	n/a	n/a	n/a	n/a	fixation
294559.83536249772	750.0	n/a	834	89	2750	596.164637502	stim	stop-signal	711	1920439	0.0-27.12-1.12	beast_fmri_test	393	1917767,/,1918448,/,1919128,/,1919808,/,1920487,/	t,t,t,t,t	<img class = center src='/static/experiments/beast_fmri_test/images/P.png'></img>	89,71	2750.0	test	<img class = center src='/static/experiments/beast_fmri_test/images/redP.png'></img>	stop	2000.0	2.0	12.0	stop	target	P	89,Middle Finger	71,Index Finger	750.0	550.0	2000.0	2200.0	0.0	0.0	750.0	n/a	go_stim
296559.83536249772	2000.0	n/a	834	89	2750	596.164637502	stim	stop-signal	711	1920439	0.0-27.12-1.12	beast_fmri_test	393	1917767,/,1918448,/,1919128,/,1919808,/,1920487,/	t,t,t,t,t	<img class = center src='/static/experiments/beast_fmri_test/images/P.png'></img>	89,71	2750.0	test	<img class = center src='/static/experiments/beast_fmri_test/images/redP.png'></img>	stop	2000.0	2.0	12.0	stop	target	P	89,Middle Finger	71,Index Finger	750.0	550.0	2000.0	2200.0	0.0	0.0	750.0	n/a	stop_stim
297309.83536249772	596.16463750236221	n/a	834	89	2750	596.164637502	stim	stop-signal	711	1920439	0.0-27.12-1.12	beast_fmri_test	393	1917767,/,1918448,/,1919128,/,1919808,/,1920487,/	t,t,t,t,t	<img class = center src='/static/experiments/beast_fmri_test/images/P.png'></img>	89,71	2750.0	test	<img class = center src='/static/experiments/beast_fmri_test/images/redP.png'></img>	stop	2000.0	2.0	12.0	stop	target	P	89,Middle Finger	71,Index Finger	750.0	550.0	2000.0	2200.0	0.0	0.0	750.0	n/a	ITI
299068	500	n/a	-1	-1	500	0.0	fixation	poldrack-single-stim	712	1921601	0.0-27.13-0.13	beast_fmri_test	393	1921167,/	t	<div class = centerbox2><div class = fixation>+</div></div>	none	500.0	test	n/a	n/a	n/a	n/a	n/a	n/a	n/a	n/a	n/a	n/a	n/a	n/a	n/a	n/a	n/a	n/a	n/a	n/a	fixation
298051.0888322955	2750	n/a	1457	71	2750	1023.9111677	stim	stop-signal	713	1924358	0.0-27.13-1.13	beast_fmri_test	393	1921848,/,1922527,/,1923210,/,1923892,/,1924572,/,1925252,/	t,t,t,t,t,t	<img class = center src='/static/experiments/beast_fmri_test/images/V.png'></img>	89,71	2750.0	test	<img class = center src='/static/experiments/beast_fmri_test/images/redV.png'></img>	go	2200.0	2.0	13.0	go	non-target	V	89,Middle Finger	71,Index Finger	700.0	550.0	2000.0	2200.0	1.0	n/a	550.0	1.0	go_stim
300801.0888322955	1023.9111677046147	n/a	1457	71	2750	1023.9111677	stim	stop-signal	713	1924358	0.0-27.13-1.13	beast_fmri_test	393	1921848,/,1922527,/,1923210,/,1923892,/,1924572,/,1925252,/	t,t,t,t,t,t	<img class = center src='/static/experiments/beast_fmri_test/images/V.png'></img>	89,71	2750.0	test	<img class = center src='/static/experiments/beast_fmri_test/images/redV.png'></img>	go	2200.0	2.0	13.0	go	non-target	V	89,Middle Finger	71,Index Finger	700.0	550.0	2000.0	2200.0	1.0	n/a	550.0	1.0	ITI
303417	500	n/a	-1	-1	500	0.0	fixation	poldrack-single-stim	714	1925950	0.0-27.14-0.14	beast_fmri_test	393	1925932,/	t	<div class = centerbox2><div class = fixation>+</div></div>	none	500.0	test	n/a	n/a	n/a	n/a	n/a	n/a	n/a	n/a	n/a	n/a	n/a	n/a	n/a	n/a	n/a	n/a	n/a	n/a	fixation
303419.36445145123	2750	n/a	846	89	2750	0.635548548789	stim	stop-signal	715	1928703	0.0-27.14-1.14	beast_fmri_test	393	1926612,/,1927292,/,1927972,/,1928652,/	t,t,t,t	<img class = center src='/static/experiments/beast_fmri_test/images/P.png'></img>	89,71	2750.0	test	<img class = center src='/static/experiments/beast_fmri_test/images/redP.png'></img>	go	2050.0	2.0	14.0	go	target	P	89,Middle Finger	71,Index Finger	700.0	550.0	2050.0	2200.0	1.0	n/a	700.0	1.0	go_stim
306169.36445145123	0.63554854878856892	n/a	846	89	2750	0.635548548789	stim	stop-signal	715	1928703	0.0-27.14-1.14	beast_fmri_test	393	1926612,/,1927292,/,1927972,/,1928652,/	t,t,t,t	<img class = center src='/static/experiments/beast_fmri_test/images/P.png'></img>	89,71	2750.0	test	<img class = center src='/static/experiments/beast_fmri_test/images/redP.png'></img>	go	2050.0	2.0	14.0	go	target	P	89,Middle Finger	71,Index Finger	700.0	550.0	2050.0	2200.0	1.0	n/a	700.0	1.0	ITI
306749	500	n/a	-1	-1	500	0.0	fixation	poldrack-single-stim	716	1929282	0.0-27.15-0.15	beast_fmri_test	393	n/a	n/a	<div class = centerbox2><div class = fixation>+</div></div>	none	500.0	test	n/a	n/a	n/a	n/a	n/a	n/a	n/a	n/a	n/a	n/a	n/a	n/a	n/a	n/a	n/a	n/a	n/a	n/a	fixation
305655.8299490842	2750	n/a	798	71	2750	1097.17005092	stim	stop-signal	717	1932036	0.0-27.15-1.15	beast_fmri_test	393	1929332,/,1930012,/,1930692,/,1931372,/,1932051,/,1932733,/	t,t,t,t,t,t	<img class = center src='/static/experiments/beast_fmri_test/images/D.png'></img>	89,71	2750.0	test	<img class = center src='/static/experiments/beast_fmri_test/images/redD.png'></img>	go	2200.0	2.0	15.0	go	non-target	D	89,Middle Finger	71,Index Finger	700.0	550.0	2050.0	2200.0	1.0	n/a	550.0	1.0	go_stim
308405.8299490842	1097.170050915852	n/a	798	71	2750	1097.17005092	stim	stop-signal	717	1932036	0.0-27.15-1.15	beast_fmri_test	393	1929332,/,1930012,/,1930692,/,1931372,/,1932051,/,1932733,/	t,t,t,t,t,t	<img class = center src='/static/experiments/beast_fmri_test/images/D.png'></img>	89,71	2750.0	test	<img class = center src='/static/experiments/beast_fmri_test/images/redD.png'></img>	go	2200.0	2.0	15.0	go	non-target	D	89,Middle Finger	71,Index Finger	700.0	550.0	2050.0	2200.0	1.0	n/a	550.0	1.0	ITI
311173	500	n/a	-1	-1	500	0.0	fixation	poldrack-single-stim	718	1933706	0.0-27.16-0.16	beast_fmri_test	393	1933417,/	t	<div class = centerbox2><div class = fixation>+</div></div>	none	500.0	test	n/a	n/a	n/a	n/a	n/a	n/a	n/a	n/a	n/a	n/a	n/a	n/a	n/a	n/a	n/a	n/a	n/a	n/a	fixation
310642.49665076938	2750	n/a	1095	89	2750	533.503349231	stim	stop-signal	719	1936459	0.0-27.16-1.16	beast_fmri_test	393	1934096,/,1934780,/,1935457,/,1936136,/,1936817,/	t,t,t,t,t	<img class = center src='/static/experiments/beast_fmri_test/images/P.png'></img>	89,71	2750.0	test	<img class = center src='/static/experiments/beast_fmri_test/images/redP.png'></img>	go	2050.0	2.0	16.0	go	target	P	89,Middle Finger	71,Index Finger	700.0	550.0	2050.0	2200.0	1.0	n/a	700.0	1.0	go_stim
313392.49665076938	533.50334923067487	n/a	1095	89	2750	533.503349231	stim	stop-signal	719	1936459	0.0-27.16-1.16	beast_fmri_test	393	1934096,/,1934780,/,1935457,/,1936136,/,1936817,/	t,t,t,t,t	<img class = center src='/static/experiments/beast_fmri_test/images/P.png'></img>	89,71	2750.0	test	<img class = center src='/static/experiments/beast_fmri_test/images/redP.png'></img>	go	2050.0	2.0	16.0	go	target	P	89,Middle Finger	71,Index Finger	700.0	550.0	2050.0	2200.0	1.0	n/a	700.0	1.0	ITI
315028	500	n/a	-1	-1	500	0.0	fixation	poldrack-single-stim	720	1937561	0.0-27.17-0.17	beast_fmri_test	393	1937497,/	t	<div class = centerbox2><div class = fixation>+</div></div>	none	500.0	test	n/a	n/a	n/a	n/a	n/a	n/a	n/a	n/a	n/a	n/a	n/a	n/a	n/a	n/a	n/a	n/a	n/a	n/a	fixation
314977.93711582478	2750	n/a	941	71	2750	54.0628841751	stim	stop-signal	721	1940315	0.0-27.17-1.17	beast_fmri_test	393	1938177,/,1938857,/,1939537,/,1940217,/	t,t,t,t	<img class = center src='/static/experiments/beast_fmri_test/images/B.png'></img>	89,71	2750.0	test	<img class = center src='/static/experiments/beast_fmri_test/images/redB.png'></img>	go	2200.0	2.0	17.0	go	non-target	B	89,Middle Finger	71,Index Finger	700.0	550.0	2050.0	2200.0	1.0	n/a	550.0	1.0	go_stim
317727.93711582478	54.062884175126179	n/a	941	71	2750	54.0628841751	stim	stop-signal	721	1940315	0.0-27.17-1.17	beast_fmri_test	393	1938177,/,1938857,/,1939537,/,1940217,/	t,t,t,t	<img class = center src='/static/experiments/beast_fmri_test/images/B.png'></img>	89,71	2750.0	test	<img class = center src='/static/experiments/beast_fmri_test/images/redB.png'></img>	go	2200.0	2.0	17.0	go	non-target	B	89,Middle Finger	71,Index Finger	700.0	550.0	2050.0	2200.0	1.0	n/a	550.0	1.0	ITI
318401	500	n/a	-1	-1	500	0.0	fixation	poldrack-single-stim	722	1940934	0.0-27.18-0.18	beast_fmri_test	393	1940897,/	t	<div class = centerbox2><div class = fixation>+</div></div>	none	500.0	test	n/a	n/a	n/a	n/a	n/a	n/a	n/a	n/a	n/a	n/a	n/a	n/a	n/a	n/a	n/a	n/a	n/a	n/a	fixation
316801.26337699825	2750	n/a	771	89	2750	1606.736623	stim	stop-signal	723	1943691	0.0-27.18-1.18	beast_fmri_test	393	1941577,/,1942257,/,1942939,/,1943621,/,1944301,/,1944981,/	t,t,t,t,t,t	<img class = center src='/static/experiments/beast_fmri_test/images/P.png'></img>	89,71	2750.0	test	<img class = center src='/static/experiments/beast_fmri_test/images/redP.png'></img>	go	2050.0	2.0	18.0	go	target	P	89,Middle Finger	71,Index Finger	700.0	550.0	2050.0	2200.0	1.0	n/a	700.0	1.0	go_stim
319551.26337699825	1606.7366230018656	n/a	771	89	2750	1606.736623	stim	stop-signal	723	1943691	0.0-27.18-1.18	beast_fmri_test	393	1941577,/,1942257,/,1942939,/,1943621,/,1944301,/,1944981,/	t,t,t,t,t,t	<img class = center src='/static/experiments/beast_fmri_test/images/P.png'></img>	89,71	2750.0	test	<img class = center src='/static/experiments/beast_fmri_test/images/redP.png'></img>	go	2050.0	2.0	18.0	go	target	P	89,Middle Finger	71,Index Finger	700.0	550.0	2050.0	2200.0	1.0	n/a	700.0	1.0	ITI
323326	500	n/a	-1	-1	500	0.0	fixation	poldrack-single-stim	724	1945859	0.0-27.19-0.19	beast_fmri_test	393	1945661,/	t	<div class = centerbox2><div class = fixation>+</div></div>	none	500.0	test	n/a	n/a	n/a	n/a	n/a	n/a	n/a	n/a	n/a	n/a	n/a	n/a	n/a	n/a	n/a	n/a	n/a	n/a	fixation
323149.28823092068	700.0	n/a	658	89	2750	180.711769079	stim	stop-signal	725	1948613	0.0-27.19-1.19	beast_fmri_test	393	1946341,/,1947021,/,1947701,/,1948381,/	t,t,t,t	<img class = center src='/static/experiments/beast_fmri_test/images/B.png'></img>	89,71	2750.0	test	<img class = center src='/static/experiments/beast_fmri_test/images/redB.png'></img>	stop	2050.0	2.0	19.0	stop	target	B	89,Middle Finger	71,Index Finger	700.0	550.0	2050.0	2200.0	0.0	0.0	700.0	n/a	go_stim
325199.28823092068	2050.0	n/a	658	89	2750	180.711769079	stim	stop-signal	725	1948613	0.0-27.19-1.19	beast_fmri_test	393	1946341,/,1947021,/,1947701,/,1948381,/	t,t,t,t	<img class = center src='/static/experiments/beast_fmri_test/images/B.png'></img>	89,71	2750.0	test	<img class = center src='/static/experiments/beast_fmri_test/images/redB.png'></img>	stop	2050.0	2.0	19.0	stop	target	B	89,Middle Finger	71,Index Finger	700.0	550.0	2050.0	2200.0	0.0	0.0	700.0	n/a	stop_stim
325899.28823092068	180.711769079264	n/a	658	89	2750	180.711769079	stim	stop-signal	725	1948613	0.0-27.19-1.19	beast_fmri_test	393	1946341,/,1947021,/,1947701,/,1948381,/	t,t,t,t	<img class = center src='/static/experiments/beast_fmri_test/images/B.png'></img>	89,71	2750.0	test	<img class = center src='/static/experiments/beast_fmri_test/images/redB.png'></img>	stop	2050.0	2.0	19.0	stop	target	B	89,Middle Finger	71,Index Finger	700.0	550.0	2050.0	2200.0	0.0	0.0	700.0	n/a	ITI
326825	500	n/a	-1	-1	500	0.0	fixation	poldrack-single-stim	726	1949358	0.0-27.20-0.20	beast_fmri_test	393	1949061,/	t	<div class = centerbox2><div class = fixation>+</div></div>	none	500.0	test	n/a	n/a	n/a	n/a	n/a	n/a	n/a	n/a	n/a	n/a	n/a	n/a	n/a	n/a	n/a	n/a	n/a	n/a	fixation
