onset	duration	text	rt	key_press	block_duration	timing_post_trial	trial_id	trial_type	trial_index	time_elapsed	internal_node_id	exp_id	subject_id	trigger_times	triggers	stimulus	possible_responses	stim_duration	exp_stage	SS_stimulus	SS_trial_type	SS_duration	load	trial_num	stop_trial_type	adaptive_trial_type	stim	yes_response_key	no_response_key	SSD_target	SSD_non_target	SSTarget	SSNonTarget	go_acc	SS_delay	stop_acc	adaptive_acc	new_trial_type
test	10880	n/a	-1	-1	10880	0.0	practice-no-stop-feedback	poldrack-single-stim	592	1539103	0.0-24.0	beast_fmri_test	310	1528223,/,1528902,/,1529582,/,1530262,/,1530942,/,1531622,/,1532301,/,1532982,/,1533662,/,1534342,/,1535022,/,1535702,/,1536381,/,1537062,/,1537742,/,1538421,/,1539101,/	t,t,t,t,t,t,t,t,t,t,t,t,t,t,t,t,t	"<div class = ""centerbox""><p class = ""center-block-text"">Your delay is 3 trials.</p><p class = center-block-text>Please wait for the scanner to start the block</p></div>"	77	10880.0	n/a	n/a	n/a	n/a	n/a	n/a	n/a	n/a	n/a	n/a	n/a	n/a	n/a	n/a	n/a	n/a	n/a	n/a	n/a	start_functional_block
11381	500	n/a	-1	-1	500	0.0	fixation	poldrack-single-stim	593	1539604	0.0-25.0-0.0	beast_fmri_test	310	n/a	n/a	<div class = centerbox><div class = fixation>+</div></div>	none	500.0	test	n/a	n/a	n/a	n/a	n/a	n/a	n/a	n/a	n/a	n/a	n/a	n/a	n/a	n/a	n/a	n/a	n/a	n/a	fixation
9400.881211000029	2750	n/a	788	89	2750	1982.118789	stim	stop-signal	594	1542356	0.0-25.0-1.0	beast_fmri_test	310	1539782,/,1540462,/,1541141,/,1541821,/,1542501,/,1543182,/,1543863,/	t,t,t,t,t,t,t	<img class = center src='/static/experiments/beast_fmri_test/images/V.png'></img>	71,89	2750.0	test	<img class = center src='/static/experiments/beast_fmri_test/images/redV.png'></img>	go	-1.0	3.0	0.0	go	temp-non-target	V	71,Green Button	89,Yellow Button	600.0	700.0	2100.0	2050.0	0.0	n/a	n/a	n/a	go_stim
12150.881211000029	1982.1187890000001	n/a	788	89	2750	1982.118789	stim	stop-signal	594	1542356	0.0-25.0-1.0	beast_fmri_test	310	1539782,/,1540462,/,1541141,/,1541821,/,1542501,/,1543182,/,1543863,/	t,t,t,t,t,t,t	<img class = center src='/static/experiments/beast_fmri_test/images/V.png'></img>	71,89	2750.0	test	<img class = center src='/static/experiments/beast_fmri_test/images/redV.png'></img>	go	-1.0	3.0	0.0	go	temp-non-target	V	71,Green Button	89,Yellow Button	600.0	700.0	2100.0	2050.0	0.0	n/a	n/a	n/a	ITI
16639	500	n/a	-1	-1	500	0.0	fixation	poldrack-single-stim	595	1544862	0.0-25.1-0.1	beast_fmri_test	310	1544543,/	t	<div class = centerbox><div class = fixation>+</div></div>	none	500.0	test	n/a	n/a	n/a	n/a	n/a	n/a	n/a	n/a	n/a	n/a	n/a	n/a	n/a	n/a	n/a	n/a	n/a	n/a	fixation
16621.582087199902	2750	n/a	612	89	2750	19.4179128	stim	stop-signal	596	1547614	0.0-25.1-1.1	beast_fmri_test	310	1545222,/,1545904,/,1546582,/,1547262,/	t,t,t,t	<img class = center src='/static/experiments/beast_fmri_test/images/D.png'></img>	71,89	2750.0	test	<img class = center src='/static/experiments/beast_fmri_test/images/redD.png'></img>	go	-1.0	3.0	1.0	go	temp-non-target	D	71,Green Button	89,Yellow Button	600.0	700.0	2100.0	2050.0	0.0	n/a	n/a	n/a	go_stim
19371.582087199902	19.4179128	n/a	612	89	2750	19.4179128	stim	stop-signal	596	1547614	0.0-25.1-1.1	beast_fmri_test	310	1545222,/,1545904,/,1546582,/,1547262,/	t,t,t,t	<img class = center src='/static/experiments/beast_fmri_test/images/D.png'></img>	71,89	2750.0	test	<img class = center src='/static/experiments/beast_fmri_test/images/redD.png'></img>	go	-1.0	3.0	1.0	go	temp-non-target	D	71,Green Button	89,Yellow Button	600.0	700.0	2100.0	2050.0	0.0	n/a	n/a	n/a	ITI
19934	500	n/a	-1	-1	500	0.0	fixation	poldrack-single-stim	597	1548157	0.0-25.2-0.2	beast_fmri_test	310	1547942,/	t	<div class = centerbox><div class = fixation>+</div></div>	none	500.0	test	n/a	n/a	n/a	n/a	n/a	n/a	n/a	n/a	n/a	n/a	n/a	n/a	n/a	n/a	n/a	n/a	n/a	n/a	fixation
19414.825575100025	temp_go_duration	n/a	603	89	2750	521.1744249	stim	stop-signal	598	1550909	0.0-25.2-1.2	beast_fmri_test	310	1548622,/,1549302,/,1549982,/,1550662,/,1551342,/	t,t,t,t,t	<img class = center src='/static/experiments/beast_fmri_test/images/T.png'></img>	71,89	2750.0	test	<img class = center src='/static/experiments/beast_fmri_test/images/redT.png'></img>	stop	-1.0	3.0	2.0	stop	temp-non-target	T	71,Green Button	89,Yellow Button	600.0	700.0	2100.0	2050.0	0.0	n/a	0.0	n/a	go_stim
temp-non-target	temp_stop_duration	n/a	603	89	2750	521.1744249	stim	stop-signal	598	1550909	0.0-25.2-1.2	beast_fmri_test	310	1548622,/,1549302,/,1549982,/,1550662,/,1551342,/	t,t,t,t,t	<img class = center src='/static/experiments/beast_fmri_test/images/T.png'></img>	71,89	2750.0	test	<img class = center src='/static/experiments/beast_fmri_test/images/redT.png'></img>	stop	-1.0	3.0	2.0	stop	temp-non-target	T	71,Green Button	89,Yellow Button	600.0	700.0	2100.0	2050.0	0.0	n/a	0.0	n/a	stop_stim
22164.825575100025	521.17442489999996	n/a	603	89	2750	521.1744249	stim	stop-signal	598	1550909	0.0-25.2-1.2	beast_fmri_test	310	1548622,/,1549302,/,1549982,/,1550662,/,1551342,/	t,t,t,t,t	<img class = center src='/static/experiments/beast_fmri_test/images/T.png'></img>	71,89	2750.0	test	<img class = center src='/static/experiments/beast_fmri_test/images/redT.png'></img>	stop	-1.0	3.0	2.0	stop	temp-non-target	T	71,Green Button	89,Yellow Button	600.0	700.0	2100.0	2050.0	0.0	n/a	0.0	n/a	ITI
23733	500	n/a	-1	-1	500	0.0	fixation	poldrack-single-stim	599	1551956	0.0-25.3-0.3	beast_fmri_test	310	n/a	n/a	<div class = centerbox><div class = fixation>+</div></div>	none	500.0	test	n/a	n/a	n/a	n/a	n/a	n/a	n/a	n/a	n/a	n/a	n/a	n/a	n/a	n/a	n/a	n/a	n/a	n/a	fixation
23340.641549899941	2750	n/a	593	89	2750	394.3584501	stim	stop-signal	600	1554708	0.0-25.3-1.3	beast_fmri_test	310	1552023,/,1552702,/,1553382,/,1554062,/,1554742,/	t,t,t,t,t	<img class = center src='/static/experiments/beast_fmri_test/images/T.png'></img>	71,89	2750.0	test	<img class = center src='/static/experiments/beast_fmri_test/images/redT.png'></img>	go	2050.0	3.0	3.0	go	non-target	T	71,Green Button	89,Yellow Button	600.0	700.0	2100.0	2050.0	1.0	700.0	n/a	1.0	go_stim
26090.641549899941	394.35845010000003	n/a	593	89	2750	394.3584501	stim	stop-signal	600	1554708	0.0-25.3-1.3	beast_fmri_test	310	1552023,/,1552702,/,1553382,/,1554062,/,1554742,/	t,t,t,t,t	<img class = center src='/static/experiments/beast_fmri_test/images/T.png'></img>	71,89	2750.0	test	<img class = center src='/static/experiments/beast_fmri_test/images/redT.png'></img>	go	2050.0	3.0	3.0	go	non-target	T	71,Green Button	89,Yellow Button	600.0	700.0	2100.0	2050.0	1.0	700.0	n/a	1.0	ITI
27401	500	n/a	-1	-1	500	0.0	fixation	poldrack-single-stim	601	1555624	0.0-25.4-0.4	beast_fmri_test	310	1555422,/	t	<div class = centerbox><div class = fixation>+</div></div>	none	500.0	test	n/a	n/a	n/a	n/a	n/a	n/a	n/a	n/a	n/a	n/a	n/a	n/a	n/a	n/a	n/a	n/a	n/a	n/a	fixation
26728.875724300044	2750	n/a	746	89	2750	673.1242757	stim	stop-signal	602	1558375	0.0-25.4-1.4	beast_fmri_test	310	1556103,/,1556782,/,1557462,/,1558142,/,1558822,/	t,t,t,t,t	<img class = center src='/static/experiments/beast_fmri_test/images/V.png'></img>	71,89	2750.0	test	<img class = center src='/static/experiments/beast_fmri_test/images/redV.png'></img>	go	2050.0	3.0	4.0	go	non-target	V	71,Green Button	89,Yellow Button	600.0	700.0	2100.0	2050.0	1.0	700.0	n/a	1.0	go_stim
29478.875724300044	673.1242757	n/a	746	89	2750	673.1242757	stim	stop-signal	602	1558375	0.0-25.4-1.4	beast_fmri_test	310	1556103,/,1556782,/,1557462,/,1558142,/,1558822,/	t,t,t,t,t	<img class = center src='/static/experiments/beast_fmri_test/images/V.png'></img>	71,89	2750.0	test	<img class = center src='/static/experiments/beast_fmri_test/images/redV.png'></img>	go	2050.0	3.0	4.0	go	non-target	V	71,Green Button	89,Yellow Button	600.0	700.0	2100.0	2050.0	1.0	700.0	n/a	1.0	ITI
31349	500	n/a	-1	-1	500	0.0	fixation	poldrack-single-stim	603	1559572	0.0-25.5-0.5	beast_fmri_test	310	1559502,/	t	<div class = centerbox><div class = fixation>+</div></div>	none	500.0	test	n/a	n/a	n/a	n/a	n/a	n/a	n/a	n/a	n/a	n/a	n/a	n/a	n/a	n/a	n/a	n/a	n/a	n/a	fixation
31284.954479889944	2750	n/a	586	71	2750	65.04552011	stim	stop-signal	604	1562323	0.0-25.5-1.5	beast_fmri_test	310	1560182,/,1560862,/,1561542,/,1562222,/	t,t,t,t	<img class = center src='/static/experiments/beast_fmri_test/images/T.png'></img>	71,89	2750.0	test	<img class = center src='/static/experiments/beast_fmri_test/images/redT.png'></img>	go	2150.0	3.0	5.0	go	target	T	71,Green Button	89,Yellow Button	600.0	700.0	2150.0	2050.0	1.0	600.0	n/a	1.0	go_stim
34034.954479889944	65.045520109999998	n/a	586	71	2750	65.04552011	stim	stop-signal	604	1562323	0.0-25.5-1.5	beast_fmri_test	310	1560182,/,1560862,/,1561542,/,1562222,/	t,t,t,t	<img class = center src='/static/experiments/beast_fmri_test/images/T.png'></img>	71,89	2750.0	test	<img class = center src='/static/experiments/beast_fmri_test/images/redT.png'></img>	go	2150.0	3.0	5.0	go	target	T	71,Green Button	89,Yellow Button	600.0	700.0	2150.0	2050.0	1.0	600.0	n/a	1.0	ITI
34688	500	n/a	-1	-1	500	0.0	fixation	poldrack-single-stim	605	1562911	0.0-25.6-0.6	beast_fmri_test	310	1562902,/	t	<div class = centerbox><div class = fixation>+</div></div>	none	500.0	test	n/a	n/a	n/a	n/a	n/a	n/a	n/a	n/a	n/a	n/a	n/a	n/a	n/a	n/a	n/a	n/a	n/a	n/a	fixation
32649.661952000111	2750	n/a	799	89	2750	2039.338048	stim	stop-signal	606	1565662	0.0-25.6-1.6	beast_fmri_test	310	1563582,/,1564262,/,1564942,/,1565622,/,1566302,/,1566982,/,1567662,/	t,t,t,t,t,t,t	<img class = center src='/static/experiments/beast_fmri_test/images/T.png'></img>	71,89	2750.0	test	<img class = center src='/static/experiments/beast_fmri_test/images/redT.png'></img>	go	2150.0	3.0	6.0	go	target	T	71,Green Button	89,Yellow Button	600.0	700.0	2150.0	2050.0	0.0	600.0	n/a	0.0	go_stim
35399.661952000111	2039.3380480000001	n/a	799	89	2750	2039.338048	stim	stop-signal	606	1565662	0.0-25.6-1.6	beast_fmri_test	310	1563582,/,1564262,/,1564942,/,1565622,/,1566302,/,1566982,/,1567662,/	t,t,t,t,t,t,t	<img class = center src='/static/experiments/beast_fmri_test/images/T.png'></img>	71,89	2750.0	test	<img class = center src='/static/experiments/beast_fmri_test/images/redT.png'></img>	go	2150.0	3.0	6.0	go	target	T	71,Green Button	89,Yellow Button	600.0	700.0	2150.0	2050.0	0.0	600.0	n/a	0.0	ITI
40005	500	n/a	-1	-1	500	0.0	fixation	poldrack-single-stim	607	1568228	0.0-25.7-0.7	beast_fmri_test	310	n/a	n/a	<div class = centerbox><div class = fixation>+</div></div>	none	500.0	test	n/a	n/a	n/a	n/a	n/a	n/a	n/a	n/a	n/a	n/a	n/a	n/a	n/a	n/a	n/a	n/a	n/a	n/a	fixation
38520.403518999927	2750	n/a	660	89	2750	1486.596481	stim	stop-signal	608	1570980	0.0-25.7-1.7	beast_fmri_test	310	1568341,/,1569021,/,1569701,/,1570381,/,1571062,/,1571742,/,1572421,/	t,t,t,t,t,t,t	<img class = center src='/static/experiments/beast_fmri_test/images/P.png'></img>	71,89	2750.0	test	<img class = center src='/static/experiments/beast_fmri_test/images/redP.png'></img>	go	2050.0	3.0	7.0	go	non-target	P	71,Green Button	89,Yellow Button	600.0	700.0	2150.0	2050.0	1.0	700.0	n/a	1.0	go_stim
41270.403518999927	1486.596481	n/a	660	89	2750	1486.596481	stim	stop-signal	608	1570980	0.0-25.7-1.7	beast_fmri_test	310	1568341,/,1569021,/,1569701,/,1570381,/,1571062,/,1571742,/,1572421,/	t,t,t,t,t,t,t	<img class = center src='/static/experiments/beast_fmri_test/images/P.png'></img>	71,89	2750.0	test	<img class = center src='/static/experiments/beast_fmri_test/images/redP.png'></img>	go	2050.0	3.0	7.0	go	non-target	P	71,Green Button	89,Yellow Button	600.0	700.0	2150.0	2050.0	1.0	700.0	n/a	1.0	ITI
44774	500	n/a	-1	-1	500	0.0	fixation	poldrack-single-stim	609	1572997	0.0-25.8-0.8	beast_fmri_test	310	n/a	n/a	<div class = centerbox><div class = fixation>+</div></div>	none	500.0	test	n/a	n/a	n/a	n/a	n/a	n/a	n/a	n/a	n/a	n/a	n/a	n/a	n/a	n/a	n/a	n/a	n/a	n/a	fixation
43838.833772999933	700.0	n/a	866	89	2750	937.166227	stim	stop-signal	610	1575749	0.0-25.8-1.8	beast_fmri_test	310	1573102,/,1573781,/,1574461,/,1575141,/,1575822,/,1576503,/	t,t,t,t,t,t	<img class = center src='/static/experiments/beast_fmri_test/images/B.png'></img>	71,89	2750.0	test	<img class = center src='/static/experiments/beast_fmri_test/images/redB.png'></img>	stop	2050.0	3.0	8.0	stop	non-target	B	71,Green Button	89,Yellow Button	600.0	700.0	2150.0	2050.0	0.0	700.0	0.0	1.0	go_stim
45888.833772999933	2050.0	n/a	866	89	2750	937.166227	stim	stop-signal	610	1575749	0.0-25.8-1.8	beast_fmri_test	310	1573102,/,1573781,/,1574461,/,1575141,/,1575822,/,1576503,/	t,t,t,t,t,t	<img class = center src='/static/experiments/beast_fmri_test/images/B.png'></img>	71,89	2750.0	test	<img class = center src='/static/experiments/beast_fmri_test/images/redB.png'></img>	stop	2050.0	3.0	8.0	stop	non-target	B	71,Green Button	89,Yellow Button	600.0	700.0	2150.0	2050.0	0.0	700.0	0.0	1.0	stop_stim
46588.833772999933	937.16622699999994	n/a	866	89	2750	937.166227	stim	stop-signal	610	1575749	0.0-25.8-1.8	beast_fmri_test	310	1573102,/,1573781,/,1574461,/,1575141,/,1575822,/,1576503,/	t,t,t,t,t,t	<img class = center src='/static/experiments/beast_fmri_test/images/B.png'></img>	71,89	2750.0	test	<img class = center src='/static/experiments/beast_fmri_test/images/redB.png'></img>	stop	2050.0	3.0	8.0	stop	non-target	B	71,Green Button	89,Yellow Button	600.0	700.0	2150.0	2050.0	0.0	700.0	0.0	1.0	ITI
48987	500	n/a	-1	-1	500	0.0	fixation	poldrack-single-stim	611	1577210	0.0-25.9-0.9	beast_fmri_test	310	1577183,/	t	<div class = centerbox><div class = fixation>+</div></div>	none	500.0	test	n/a	n/a	n/a	n/a	n/a	n/a	n/a	n/a	n/a	n/a	n/a	n/a	n/a	n/a	n/a	n/a	n/a	n/a	fixation
48030.980369699886	2750	n/a	840	71	2750	958.0196303	stim	stop-signal	612	1579962	0.0-25.9-1.9	beast_fmri_test	310	1577863,/,1578542,/,1579222,/,1579902,/,1580582,/	t,t,t,t,t	<img class = center src='/static/experiments/beast_fmri_test/images/T.png'></img>	71,89	2750.0	test	<img class = center src='/static/experiments/beast_fmri_test/images/redT.png'></img>	go	2150.0	3.0	9.0	go	target	T	71,Green Button	89,Yellow Button	600.0	650.0	2150.0	2050.0	1.0	600.0	n/a	1.0	go_stim
50780.980369699886	958.0196302999999	n/a	840	71	2750	958.0196303	stim	stop-signal	612	1579962	0.0-25.9-1.9	beast_fmri_test	310	1577863,/,1578542,/,1579222,/,1579902,/,1580582,/	t,t,t,t,t	<img class = center src='/static/experiments/beast_fmri_test/images/T.png'></img>	71,89	2750.0	test	<img class = center src='/static/experiments/beast_fmri_test/images/redT.png'></img>	go	2150.0	3.0	9.0	go	target	T	71,Green Button	89,Yellow Button	600.0	650.0	2150.0	2050.0	1.0	600.0	n/a	1.0	ITI
53218	500	n/a	-1	-1	500	0.0	fixation	poldrack-single-stim	613	1581441	0.0-25.10-0.10	beast_fmri_test	310	1581263,/	t	<div class = centerbox><div class = fixation>+</div></div>	none	500.0	test	n/a	n/a	n/a	n/a	n/a	n/a	n/a	n/a	n/a	n/a	n/a	n/a	n/a	n/a	n/a	n/a	n/a	n/a	fixation
52833.814888000023	2750	n/a	857	89	2750	387.185112	stim	stop-signal	614	1584194	0.0-25.10-1.10	beast_fmri_test	310	1581942,/,1582622,/,1583302,/,1583982,/	t,t,t,t	<img class = center src='/static/experiments/beast_fmri_test/images/D.png'></img>	71,89	2750.0	test	<img class = center src='/static/experiments/beast_fmri_test/images/redD.png'></img>	go	2100.0	3.0	10.0	go	non-target	D	71,Green Button	89,Yellow Button	600.0	650.0	2150.0	2100.0	1.0	650.0	n/a	1.0	go_stim
55583.814888000023	387.185112	n/a	857	89	2750	387.185112	stim	stop-signal	614	1584194	0.0-25.10-1.10	beast_fmri_test	310	1581942,/,1582622,/,1583302,/,1583982,/	t,t,t,t	<img class = center src='/static/experiments/beast_fmri_test/images/D.png'></img>	71,89	2750.0	test	<img class = center src='/static/experiments/beast_fmri_test/images/redD.png'></img>	go	2100.0	3.0	10.0	go	non-target	D	71,Green Button	89,Yellow Button	600.0	650.0	2150.0	2100.0	1.0	650.0	n/a	1.0	ITI
56884	500	n/a	-1	-1	500	0.0	fixation	poldrack-single-stim	615	1585107	0.0-25.11-0.11	beast_fmri_test	310	1584662,/	t	<div class = centerbox><div class = fixation>+</div></div>	none	500.0	test	n/a	n/a	n/a	n/a	n/a	n/a	n/a	n/a	n/a	n/a	n/a	n/a	n/a	n/a	n/a	n/a	n/a	n/a	fixation
56433.9844798001	600.0	n/a	723	71	2750	452.0155202	stim	stop-signal	616	1587859	0.0-25.11-1.11	beast_fmri_test	310	1585342,/,1586022,/,1586703,/,1587382,/,1588062,/	t,t,t,t,t	<img class = center src='/static/experiments/beast_fmri_test/images/B.png'></img>	71,89	2750.0	test	<img class = center src='/static/experiments/beast_fmri_test/images/redB.png'></img>	stop	2150.0	3.0	11.0	stop	target	B	71,Green Button	89,Yellow Button	600.0	650.0	2150.0	2100.0	0.0	600.0	0.0	1.0	go_stim
58583.9844798001	2150.0	n/a	723	71	2750	452.0155202	stim	stop-signal	616	1587859	0.0-25.11-1.11	beast_fmri_test	310	1585342,/,1586022,/,1586703,/,1587382,/,1588062,/	t,t,t,t,t	<img class = center src='/static/experiments/beast_fmri_test/images/B.png'></img>	71,89	2750.0	test	<img class = center src='/static/experiments/beast_fmri_test/images/redB.png'></img>	stop	2150.0	3.0	11.0	stop	target	B	71,Green Button	89,Yellow Button	600.0	650.0	2150.0	2100.0	0.0	600.0	0.0	1.0	stop_stim
59183.9844798001	452.01552019999997	n/a	723	71	2750	452.0155202	stim	stop-signal	616	1587859	0.0-25.11-1.11	beast_fmri_test	310	1585342,/,1586022,/,1586703,/,1587382,/,1588062,/	t,t,t,t,t	<img class = center src='/static/experiments/beast_fmri_test/images/B.png'></img>	71,89	2750.0	test	<img class = center src='/static/experiments/beast_fmri_test/images/redB.png'></img>	stop	2150.0	3.0	11.0	stop	target	B	71,Green Button	89,Yellow Button	600.0	650.0	2150.0	2100.0	0.0	600.0	0.0	1.0	ITI
60612	500	n/a	-1	-1	500	0.0	fixation	poldrack-single-stim	617	1588835	0.0-25.12-0.12	beast_fmri_test	310	1588742,/	t	<div class = centerbox><div class = fixation>+</div></div>	none	500.0	test	n/a	n/a	n/a	n/a	n/a	n/a	n/a	n/a	n/a	n/a	n/a	n/a	n/a	n/a	n/a	n/a	n/a	n/a	fixation
59249.975244000088	2750	n/a	906	89	2750	1364.024756	stim	stop-signal	618	1591587	0.0-25.12-1.12	beast_fmri_test	310	1589422,/,1590102,/,1590782,/,1591462,/,1592142,/,1592822,/	t,t,t,t,t,t	<img class = center src='/static/experiments/beast_fmri_test/images/B.png'></img>	71,89	2750.0	test	<img class = center src='/static/experiments/beast_fmri_test/images/redB.png'></img>	go	2100.0	3.0	12.0	go	non-target	B	71,Green Button	89,Yellow Button	550.0	650.0	2150.0	2100.0	1.0	650.0	n/a	1.0	go_stim
61999.975244000088	1364.024756	n/a	906	89	2750	1364.024756	stim	stop-signal	618	1591587	0.0-25.12-1.12	beast_fmri_test	310	1589422,/,1590102,/,1590782,/,1591462,/,1592142,/,1592822,/	t,t,t,t,t,t	<img class = center src='/static/experiments/beast_fmri_test/images/B.png'></img>	71,89	2750.0	test	<img class = center src='/static/experiments/beast_fmri_test/images/redB.png'></img>	go	2100.0	3.0	12.0	go	non-target	B	71,Green Button	89,Yellow Button	550.0	650.0	2150.0	2100.0	1.0	650.0	n/a	1.0	ITI
65252	500	n/a	-1	-1	500	0.0	fixation	poldrack-single-stim	619	1593475	0.0-25.13-0.13	beast_fmri_test	310	n/a	n/a	<div class = centerbox><div class = fixation>+</div></div>	none	500.0	test	n/a	n/a	n/a	n/a	n/a	n/a	n/a	n/a	n/a	n/a	n/a	n/a	n/a	n/a	n/a	n/a	n/a	n/a	fixation
65213.245302820113	2750	n/a	739	89	2750	40.75469718	stim	stop-signal	620	1596227	0.0-25.13-1.13	beast_fmri_test	310	1593502,/,1594182,/,1594862,/,1595542,/,1596222,/	t,t,t,t,t	<img class = center src='/static/experiments/beast_fmri_test/images/V.png'></img>	71,89	2750.0	test	<img class = center src='/static/experiments/beast_fmri_test/images/redV.png'></img>	go	2100.0	3.0	13.0	go	non-target	V	71,Green Button	89,Yellow Button	550.0	650.0	2150.0	2100.0	1.0	650.0	n/a	1.0	go_stim
67963.245302820113	40.754697180000001	n/a	739	89	2750	40.75469718	stim	stop-signal	620	1596227	0.0-25.13-1.13	beast_fmri_test	310	1593502,/,1594182,/,1594862,/,1595542,/,1596222,/	t,t,t,t,t	<img class = center src='/static/experiments/beast_fmri_test/images/V.png'></img>	71,89	2750.0	test	<img class = center src='/static/experiments/beast_fmri_test/images/redV.png'></img>	go	2100.0	3.0	13.0	go	non-target	V	71,Green Button	89,Yellow Button	550.0	650.0	2150.0	2100.0	1.0	650.0	n/a	1.0	ITI
68569	500	n/a	-1	-1	500	0.0	fixation	poldrack-single-stim	621	1596792	0.0-25.14-0.14	beast_fmri_test	310	n/a	n/a	<div class = centerbox><div class = fixation>+</div></div>	none	500.0	test	n/a	n/a	n/a	n/a	n/a	n/a	n/a	n/a	n/a	n/a	n/a	n/a	n/a	n/a	n/a	n/a	n/a	n/a	fixation
65385.296339999884	2750	n/a	912	89	2750	3185.70366	stim	stop-signal	622	1599544	0.0-25.14-1.14	beast_fmri_test	310	1596903,/,1597582,/,1598262,/,1598941,/,1599622,/,1600302,/,1600982,/,1601662,/,1602341,/	t,t,t,t,t,t,t,t,t	<img class = center src='/static/experiments/beast_fmri_test/images/P.png'></img>	71,89	2750.0	test	<img class = center src='/static/experiments/beast_fmri_test/images/redP.png'></img>	go	2100.0	3.0	14.0	go	non-target	P	71,Green Button	89,Yellow Button	550.0	650.0	2150.0	2100.0	1.0	650.0	n/a	1.0	go_stim
68135.296339999884	3185.7036600000001	n/a	912	89	2750	3185.70366	stim	stop-signal	622	1599544	0.0-25.14-1.14	beast_fmri_test	310	1596903,/,1597582,/,1598262,/,1598941,/,1599622,/,1600302,/,1600982,/,1601662,/,1602341,/	t,t,t,t,t,t,t,t,t	<img class = center src='/static/experiments/beast_fmri_test/images/P.png'></img>	71,89	2750.0	test	<img class = center src='/static/experiments/beast_fmri_test/images/redP.png'></img>	go	2100.0	3.0	14.0	go	non-target	P	71,Green Button	89,Yellow Button	550.0	650.0	2150.0	2100.0	1.0	650.0	n/a	1.0	ITI
75031	500	n/a	-1	-1	500	0.0	fixation	poldrack-single-stim	623	1603254	0.0-25.15-0.15	beast_fmri_test	310	1603022,/	t	<div class = centerbox><div class = fixation>+</div></div>	none	500.0	test	n/a	n/a	n/a	n/a	n/a	n/a	n/a	n/a	n/a	n/a	n/a	n/a	n/a	n/a	n/a	n/a	n/a	n/a	fixation
73250.578579999972	650.0	n/a	-1	-1	2750	1781.42142	stim	stop-signal	624	1606005	0.0-25.15-1.15	beast_fmri_test	310	1603702,/,1604382,/,1605061,/,1605742,/,1606421,/,1607102,/,1607782,/	t,t,t,t,t,t,t	<img class = center src='/static/experiments/beast_fmri_test/images/D.png'></img>	71,89	2750.0	test	<img class = center src='/static/experiments/beast_fmri_test/images/redD.png'></img>	stop	2100.0	3.0	15.0	stop	non-target	D	71,Green Button	89,Yellow Button	550.0	650.0	2150.0	2100.0	0.0	650.0	1.0	0.0	go_stim
75350.578579999972	2100.0	n/a	-1	-1	2750	1781.42142	stim	stop-signal	624	1606005	0.0-25.15-1.15	beast_fmri_test	310	1603702,/,1604382,/,1605061,/,1605742,/,1606421,/,1607102,/,1607782,/	t,t,t,t,t,t,t	<img class = center src='/static/experiments/beast_fmri_test/images/D.png'></img>	71,89	2750.0	test	<img class = center src='/static/experiments/beast_fmri_test/images/redD.png'></img>	stop	2100.0	3.0	15.0	stop	non-target	D	71,Green Button	89,Yellow Button	550.0	650.0	2150.0	2100.0	0.0	650.0	1.0	0.0	stop_stim
76000.578579999972	1781.4214199999999	n/a	-1	-1	2750	1781.42142	stim	stop-signal	624	1606005	0.0-25.15-1.15	beast_fmri_test	310	1603702,/,1604382,/,1605061,/,1605742,/,1606421,/,1607102,/,1607782,/	t,t,t,t,t,t,t	<img class = center src='/static/experiments/beast_fmri_test/images/D.png'></img>	71,89	2750.0	test	<img class = center src='/static/experiments/beast_fmri_test/images/redD.png'></img>	stop	2100.0	3.0	15.0	stop	non-target	D	71,Green Button	89,Yellow Button	550.0	650.0	2150.0	2100.0	0.0	650.0	1.0	0.0	ITI
80088	500	n/a	-1	-1	500	0.0	fixation	poldrack-single-stim	625	1608311	0.0-25.16-0.16	beast_fmri_test	310	n/a	n/a	<div class = centerbox><div class = fixation>+</div></div>	none	500.0	test	n/a	n/a	n/a	n/a	n/a	n/a	n/a	n/a	n/a	n/a	n/a	n/a	n/a	n/a	n/a	n/a	n/a	n/a	fixation
79344.386690899963	550.0	n/a	-1	-1	2750	745.6133091	stim	stop-signal	626	1611063	0.0-25.16-1.16	beast_fmri_test	310	1608461,/,1609141,/,1609822,/,1610502,/,1611182,/	t,t,t,t,t	<img class = center src='/static/experiments/beast_fmri_test/images/V.png'></img>	71,89	2750.0	test	<img class = center src='/static/experiments/beast_fmri_test/images/redV.png'></img>	stop	2200.0	3.0	16.0	stop	target	V	71,Green Button	89,Yellow Button	550.0	700.0	2200.0	2100.0	0.0	550.0	1.0	0.0	go_stim
81544.386690899963	2200.0	n/a	-1	-1	2750	745.6133091	stim	stop-signal	626	1611063	0.0-25.16-1.16	beast_fmri_test	310	1608461,/,1609141,/,1609822,/,1610502,/,1611182,/	t,t,t,t,t	<img class = center src='/static/experiments/beast_fmri_test/images/V.png'></img>	71,89	2750.0	test	<img class = center src='/static/experiments/beast_fmri_test/images/redV.png'></img>	stop	2200.0	3.0	16.0	stop	target	V	71,Green Button	89,Yellow Button	550.0	700.0	2200.0	2100.0	0.0	550.0	1.0	0.0	stop_stim
82094.386690899963	745.61330910000004	n/a	-1	-1	2750	745.6133091	stim	stop-signal	626	1611063	0.0-25.16-1.16	beast_fmri_test	310	1608461,/,1609141,/,1609822,/,1610502,/,1611182,/	t,t,t,t,t	<img class = center src='/static/experiments/beast_fmri_test/images/V.png'></img>	71,89	2750.0	test	<img class = center src='/static/experiments/beast_fmri_test/images/redV.png'></img>	stop	2200.0	3.0	16.0	stop	target	V	71,Green Button	89,Yellow Button	550.0	700.0	2200.0	2100.0	0.0	550.0	1.0	0.0	ITI
84110	500	n/a	-1	-1	500	0.0	fixation	poldrack-single-stim	627	1612333	0.0-25.17-0.17	beast_fmri_test	310	1611863,/	t	<div class = centerbox><div class = fixation>+</div></div>	none	500.0	test	n/a	n/a	n/a	n/a	n/a	n/a	n/a	n/a	n/a	n/a	n/a	n/a	n/a	n/a	n/a	n/a	n/a	n/a	fixation
83818.416789900046	2750	n/a	1462	71	2750	293.5832101	stim	stop-signal	628	1615085	0.0-25.17-1.17	beast_fmri_test	310	1612542,/,1613222,/,1613902,/,1614582,/,1615262,/	t,t,t,t,t	<img class = center src='/static/experiments/beast_fmri_test/images/D.png'></img>	71,89	2750.0	test	<img class = center src='/static/experiments/beast_fmri_test/images/redD.png'></img>	go	2050.0	3.0	17.0	go	non-target	D	71,Green Button	89,Yellow Button	600.0	700.0	2200.0	2050.0	0.0	700.0	n/a	0.0	go_stim
86568.416789900046	293.58321010000003	n/a	1462	71	2750	293.5832101	stim	stop-signal	628	1615085	0.0-25.17-1.17	beast_fmri_test	310	1612542,/,1613222,/,1613902,/,1614582,/,1615262,/	t,t,t,t,t	<img class = center src='/static/experiments/beast_fmri_test/images/D.png'></img>	71,89	2750.0	test	<img class = center src='/static/experiments/beast_fmri_test/images/redD.png'></img>	go	2050.0	3.0	17.0	go	non-target	D	71,Green Button	89,Yellow Button	600.0	700.0	2200.0	2050.0	0.0	700.0	n/a	0.0	ITI
87682	500	n/a	-1	-1	500	0.0	fixation	poldrack-single-stim	629	1615905	0.0-25.18-0.18	beast_fmri_test	310	n/a	n/a	<div class = centerbox><div class = fixation>+</div></div>	none	500.0	test	n/a	n/a	n/a	n/a	n/a	n/a	n/a	n/a	n/a	n/a	n/a	n/a	n/a	n/a	n/a	n/a	n/a	n/a	fixation
87561.731198800029	2750	n/a	1314	71	2750	122.2688012	stim	stop-signal	630	1618657	0.0-25.18-1.18	beast_fmri_test	310	1615943,/,1616622,/,1617303,/,1617982,/,1618662,/	t,t,t,t,t	<img class = center src='/static/experiments/beast_fmri_test/images/D.png'></img>	71,89	2750.0	test	<img class = center src='/static/experiments/beast_fmri_test/images/redD.png'></img>	go	2150.0	3.0	18.0	go	target	D	71,Green Button	89,Yellow Button	600.0	700.0	2150.0	2050.0	1.0	600.0	n/a	1.0	go_stim
90311.731198800029	122.26880120000001	n/a	1314	71	2750	122.2688012	stim	stop-signal	630	1618657	0.0-25.18-1.18	beast_fmri_test	310	1615943,/,1616622,/,1617303,/,1617982,/,1618662,/	t,t,t,t,t	<img class = center src='/static/experiments/beast_fmri_test/images/D.png'></img>	71,89	2750.0	test	<img class = center src='/static/experiments/beast_fmri_test/images/redD.png'></img>	go	2150.0	3.0	18.0	go	target	D	71,Green Button	89,Yellow Button	600.0	700.0	2150.0	2050.0	1.0	600.0	n/a	1.0	ITI
91078	500	n/a	-1	-1	500	0.0	fixation	poldrack-single-stim	631	1619301	0.0-25.19-0.19	beast_fmri_test	310	n/a	n/a	<div class = centerbox><div class = fixation>+</div></div>	none	500.0	test	n/a	n/a	n/a	n/a	n/a	n/a	n/a	n/a	n/a	n/a	n/a	n/a	n/a	n/a	n/a	n/a	n/a	n/a	fixation
88100.797426000005	2750	n/a	978	89	2750	2979.202574	stim	stop-signal	632	1622053	0.0-25.19-1.19	beast_fmri_test	310	1619342,/,1620022,/,1620702,/,1621382,/,1622061,/,1622742,/,1623422,/,1624102,/,1624782,/	t,t,t,t,t,t,t,t,t	<img class = center src='/static/experiments/beast_fmri_test/images/P.png'></img>	71,89	2750.0	test	<img class = center src='/static/experiments/beast_fmri_test/images/redP.png'></img>	go	2050.0	3.0	19.0	go	non-target	P	71,Green Button	89,Yellow Button	600.0	700.0	2150.0	2050.0	1.0	700.0	n/a	1.0	go_stim
90850.797426000005	2979.2025739999999	n/a	978	89	2750	2979.202574	stim	stop-signal	632	1622053	0.0-25.19-1.19	beast_fmri_test	310	1619342,/,1620022,/,1620702,/,1621382,/,1622061,/,1622742,/,1623422,/,1624102,/,1624782,/	t,t,t,t,t,t,t,t,t	<img class = center src='/static/experiments/beast_fmri_test/images/P.png'></img>	71,89	2750.0	test	<img class = center src='/static/experiments/beast_fmri_test/images/redP.png'></img>	go	2050.0	3.0	19.0	go	non-target	P	71,Green Button	89,Yellow Button	600.0	700.0	2150.0	2050.0	1.0	700.0	n/a	1.0	ITI
97331	500	n/a	-1	-1	500	0.0	fixation	poldrack-single-stim	633	1625554	0.0-25.20-0.20	beast_fmri_test	310	1625462,/	t	<div class = centerbox><div class = fixation>+</div></div>	none	500.0	test	n/a	n/a	n/a	n/a	n/a	n/a	n/a	n/a	n/a	n/a	n/a	n/a	n/a	n/a	n/a	n/a	n/a	n/a	fixation
97092.605983800022	2750	n/a	1845	89	2750	240.3940162	stim	stop-signal	634	1628306	0.0-25.20-1.20	beast_fmri_test	310	1626142,/,1626822,/,1627502,/,1628182,/	t,t,t,t	<img class = center src='/static/experiments/beast_fmri_test/images/B.png'></img>	71,89	2750.0	test	<img class = center src='/static/experiments/beast_fmri_test/images/redB.png'></img>	go	2050.0	3.0	20.0	go	non-target	B	71,Green Button	89,Yellow Button	600.0	700.0	2150.0	2050.0	1.0	700.0	n/a	1.0	go_stim
99842.605983800022	240.39401620000001	n/a	1845	89	2750	240.3940162	stim	stop-signal	634	1628306	0.0-25.20-1.20	beast_fmri_test	310	1626142,/,1626822,/,1627502,/,1628182,/	t,t,t,t	<img class = center src='/static/experiments/beast_fmri_test/images/B.png'></img>	71,89	2750.0	test	<img class = center src='/static/experiments/beast_fmri_test/images/redB.png'></img>	go	2050.0	3.0	20.0	go	non-target	B	71,Green Button	89,Yellow Button	600.0	700.0	2150.0	2050.0	1.0	700.0	n/a	1.0	ITI
100846	500	n/a	-1	-1	500	0.0	fixation	poldrack-single-stim	635	1629069	0.0-25.21-0.21	beast_fmri_test	310	1628862,/	t	<div class = centerbox><div class = fixation>+</div></div>	none	500.0	test	n/a	n/a	n/a	n/a	n/a	n/a	n/a	n/a	n/a	n/a	n/a	n/a	n/a	n/a	n/a	n/a	n/a	n/a	fixation
100463.80969849997	2750	n/a	1091	89	2750	384.1903015	stim	stop-signal	636	1631821	0.0-25.21-1.21	beast_fmri_test	310	1629541,/,1630222,/,1630902,/,1631581,/	t,t,t,t	<img class = center src='/static/experiments/beast_fmri_test/images/B.png'></img>	71,89	2750.0	test	<img class = center src='/static/experiments/beast_fmri_test/images/redB.png'></img>	go	2050.0	3.0	21.0	go	non-target	B	71,Green Button	89,Yellow Button	600.0	700.0	2150.0	2050.0	1.0	700.0	n/a	1.0	go_stim
103213.80969849997	384.19030150000003	n/a	1091	89	2750	384.1903015	stim	stop-signal	636	1631821	0.0-25.21-1.21	beast_fmri_test	310	1629541,/,1630222,/,1630902,/,1631581,/	t,t,t,t	<img class = center src='/static/experiments/beast_fmri_test/images/B.png'></img>	71,89	2750.0	test	<img class = center src='/static/experiments/beast_fmri_test/images/redB.png'></img>	go	2050.0	3.0	21.0	go	non-target	B	71,Green Button	89,Yellow Button	600.0	700.0	2150.0	2050.0	1.0	700.0	n/a	1.0	ITI
104506	500	n/a	-1	-1	500	0.0	fixation	poldrack-single-stim	637	1632729	0.0-25.22-0.22	beast_fmri_test	310	1632262,/	t	<div class = centerbox><div class = fixation>+</div></div>	none	500.0	test	n/a	n/a	n/a	n/a	n/a	n/a	n/a	n/a	n/a	n/a	n/a	n/a	n/a	n/a	n/a	n/a	n/a	n/a	fixation
102990.6297269999	2750	n/a	1212	89	2750	1516.370273	stim	stop-signal	638	1635480	0.0-25.22-1.22	beast_fmri_test	310	1632942,/,1633622,/,1634301,/,1634982,/,1635661,/,1636342,/	t,t,t,t,t,t	<img class = center src='/static/experiments/beast_fmri_test/images/B.png'></img>	71,89	2750.0	test	<img class = center src='/static/experiments/beast_fmri_test/images/redB.png'></img>	go	2050.0	3.0	22.0	go	non-target	B	71,Green Button	89,Yellow Button	600.0	700.0	2150.0	2050.0	1.0	700.0	n/a	1.0	go_stim
105740.6297269999	1516.370273	n/a	1212	89	2750	1516.370273	stim	stop-signal	638	1635480	0.0-25.22-1.22	beast_fmri_test	310	1632942,/,1633622,/,1634301,/,1634982,/,1635661,/,1636342,/	t,t,t,t,t,t	<img class = center src='/static/experiments/beast_fmri_test/images/B.png'></img>	71,89	2750.0	test	<img class = center src='/static/experiments/beast_fmri_test/images/redB.png'></img>	go	2050.0	3.0	22.0	go	non-target	B	71,Green Button	89,Yellow Button	600.0	700.0	2150.0	2050.0	1.0	700.0	n/a	1.0	ITI
109297	500	n/a	-1	-1	500	0.0	fixation	poldrack-single-stim	639	1637520	0.0-25.23-0.23	beast_fmri_test	310	1637021,/	t	<div class = centerbox><div class = fixation>+</div></div>	none	500.0	test	n/a	n/a	n/a	n/a	n/a	n/a	n/a	n/a	n/a	n/a	n/a	n/a	n/a	n/a	n/a	n/a	n/a	n/a	fixation
108955.39411620004	2750	n/a	660	89	2750	342.6058838	stim	stop-signal	640	1640271	0.0-25.23-1.23	beast_fmri_test	310	1637702,/,1638381,/,1639061,/,1639742,/,1640421,/	t,t,t,t,t	<img class = center src='/static/experiments/beast_fmri_test/images/V.png'></img>	71,89	2750.0	test	<img class = center src='/static/experiments/beast_fmri_test/images/redV.png'></img>	go	2050.0	3.0	23.0	go	non-target	V	71,Green Button	89,Yellow Button	600.0	700.0	2150.0	2050.0	1.0	700.0	n/a	1.0	go_stim
111705.39411620004	342.60588380000002	n/a	660	89	2750	342.6058838	stim	stop-signal	640	1640271	0.0-25.23-1.23	beast_fmri_test	310	1637702,/,1638381,/,1639061,/,1639742,/,1640421,/	t,t,t,t,t	<img class = center src='/static/experiments/beast_fmri_test/images/V.png'></img>	71,89	2750.0	test	<img class = center src='/static/experiments/beast_fmri_test/images/redV.png'></img>	go	2050.0	3.0	23.0	go	non-target	V	71,Green Button	89,Yellow Button	600.0	700.0	2150.0	2050.0	1.0	700.0	n/a	1.0	ITI
112916	500	n/a	-1	-1	500	0.0	fixation	poldrack-single-stim	641	1641139	0.0-25.24-0.24	beast_fmri_test	310	1641101,/	t	<div class = centerbox><div class = fixation>+</div></div>	none	500.0	test	n/a	n/a	n/a	n/a	n/a	n/a	n/a	n/a	n/a	n/a	n/a	n/a	n/a	n/a	n/a	n/a	n/a	n/a	fixation
107918.0	2750	n/a	846	89	2750	5000.0	stim	stop-signal	642	1643891	0.0-25.24-1.24	beast_fmri_test	310	1641782,/,1642462,/,1643142,/,1643821,/,1644502,/,1645182,/,1645862,/,1646542,/,1647222,/,1647904,/,1648582,/	t,t,t,t,t,t,t,t,t,t,t	<img class = center src='/static/experiments/beast_fmri_test/images/T.png'></img>	71,89	2750.0	test	<img class = center src='/static/experiments/beast_fmri_test/images/redT.png'></img>	go	2050.0	3.0	24.0	go	non-target	T	71,Green Button	89,Yellow Button	600.0	700.0	2150.0	2050.0	1.0	700.0	n/a	1.0	go_stim
110668.0	5000.0	n/a	846	89	2750	5000.0	stim	stop-signal	642	1643891	0.0-25.24-1.24	beast_fmri_test	310	1641782,/,1642462,/,1643142,/,1643821,/,1644502,/,1645182,/,1645862,/,1646542,/,1647222,/,1647904,/,1648582,/	t,t,t,t,t,t,t,t,t,t,t	<img class = center src='/static/experiments/beast_fmri_test/images/T.png'></img>	71,89	2750.0	test	<img class = center src='/static/experiments/beast_fmri_test/images/redT.png'></img>	go	2050.0	3.0	24.0	go	non-target	T	71,Green Button	89,Yellow Button	600.0	700.0	2150.0	2050.0	1.0	700.0	n/a	1.0	ITI
121192	500	n/a	-1	-1	500	0.0	fixation	poldrack-single-stim	643	1649415	0.0-25.25-0.25	beast_fmri_test	310	1649262,/	t	<div class = centerbox><div class = fixation>+</div></div>	none	500.0	test	n/a	n/a	n/a	n/a	n/a	n/a	n/a	n/a	n/a	n/a	n/a	n/a	n/a	n/a	n/a	n/a	n/a	n/a	fixation
119972.00484200008	700.0	n/a	729	89	2750	1221.995158	stim	stop-signal	644	1652167	0.0-25.25-1.25	beast_fmri_test	310	1649942,/,1650622,/,1651302,/,1651982,/,1652662,/,1653342,/	t,t,t,t,t,t	<img class = center src='/static/experiments/beast_fmri_test/images/P.png'></img>	71,89	2750.0	test	<img class = center src='/static/experiments/beast_fmri_test/images/redP.png'></img>	stop	2050.0	3.0	25.0	stop	non-target	P	71,Green Button	89,Yellow Button	600.0	700.0	2150.0	2050.0	0.0	700.0	0.0	1.0	go_stim
122022.00484200008	2050.0	n/a	729	89	2750	1221.995158	stim	stop-signal	644	1652167	0.0-25.25-1.25	beast_fmri_test	310	1649942,/,1650622,/,1651302,/,1651982,/,1652662,/,1653342,/	t,t,t,t,t,t	<img class = center src='/static/experiments/beast_fmri_test/images/P.png'></img>	71,89	2750.0	test	<img class = center src='/static/experiments/beast_fmri_test/images/redP.png'></img>	stop	2050.0	3.0	25.0	stop	non-target	P	71,Green Button	89,Yellow Button	600.0	700.0	2150.0	2050.0	0.0	700.0	0.0	1.0	stop_stim
122722.00484200008	1221.9951579999999	n/a	729	89	2750	1221.995158	stim	stop-signal	644	1652167	0.0-25.25-1.25	beast_fmri_test	310	1649942,/,1650622,/,1651302,/,1651982,/,1652662,/,1653342,/	t,t,t,t,t,t	<img class = center src='/static/experiments/beast_fmri_test/images/P.png'></img>	71,89	2750.0	test	<img class = center src='/static/experiments/beast_fmri_test/images/redP.png'></img>	stop	2050.0	3.0	25.0	stop	non-target	P	71,Green Button	89,Yellow Button	600.0	700.0	2150.0	2050.0	0.0	700.0	0.0	1.0	ITI
125691	500	n/a	-1	-1	500	0.0	fixation	poldrack-single-stim	645	1653914	0.0-25.26-0.26	beast_fmri_test	310	n/a	n/a	<div class = centerbox><div class = fixation>+</div></div>	none	500.0	test	n/a	n/a	n/a	n/a	n/a	n/a	n/a	n/a	n/a	n/a	n/a	n/a	n/a	n/a	n/a	n/a	n/a	n/a	fixation
124845.92378690001	2750	n/a	882	71	2750	846.0762131	stim	stop-signal	646	1656665	0.0-25.26-1.26	beast_fmri_test	310	1654022,/,1654702,/,1655382,/,1656062,/,1656742,/,1657422,/	t,t,t,t,t,t	<img class = center src='/static/experiments/beast_fmri_test/images/V.png'></img>	71,89	2750.0	test	<img class = center src='/static/experiments/beast_fmri_test/images/redV.png'></img>	go	2150.0	3.0	26.0	go	target	V	71,Green Button	89,Yellow Button	600.0	650.0	2150.0	2050.0	1.0	600.0	n/a	1.0	go_stim
127595.92378690001	846.07621310000013	n/a	882	71	2750	846.0762131	stim	stop-signal	646	1656665	0.0-25.26-1.26	beast_fmri_test	310	1654022,/,1654702,/,1655382,/,1656062,/,1656742,/,1657422,/	t,t,t,t,t,t	<img class = center src='/static/experiments/beast_fmri_test/images/V.png'></img>	71,89	2750.0	test	<img class = center src='/static/experiments/beast_fmri_test/images/redV.png'></img>	go	2150.0	3.0	26.0	go	target	V	71,Green Button	89,Yellow Button	600.0	650.0	2150.0	2050.0	1.0	600.0	n/a	1.0	ITI
129815	500	n/a	-1	-1	500	0.0	fixation	poldrack-single-stim	647	1658038	0.0-25.27-0.27	beast_fmri_test	310	n/a	n/a	<div class = centerbox><div class = fixation>+</div></div>	none	500.0	test	n/a	n/a	n/a	n/a	n/a	n/a	n/a	n/a	n/a	n/a	n/a	n/a	n/a	n/a	n/a	n/a	n/a	n/a	fixation
129724.24897568999	650.0	n/a	698	89	2750	92.75102431	stim	stop-signal	648	1660790	0.0-25.27-1.27	beast_fmri_test	310	1658103,/,1658782,/,1659462,/,1660142,/,1660822,/	t,t,t,t,t	<img class = center src='/static/experiments/beast_fmri_test/images/V.png'></img>	71,89	2750.0	test	<img class = center src='/static/experiments/beast_fmri_test/images/redV.png'></img>	stop	2100.0	3.0	27.0	stop	non-target	V	71,Green Button	89,Yellow Button	600.0	650.0	2150.0	2100.0	0.0	650.0	0.0	1.0	go_stim
131824.24897568999	2100.0	n/a	698	89	2750	92.75102431	stim	stop-signal	648	1660790	0.0-25.27-1.27	beast_fmri_test	310	1658103,/,1658782,/,1659462,/,1660142,/,1660822,/	t,t,t,t,t	<img class = center src='/static/experiments/beast_fmri_test/images/V.png'></img>	71,89	2750.0	test	<img class = center src='/static/experiments/beast_fmri_test/images/redV.png'></img>	stop	2100.0	3.0	27.0	stop	non-target	V	71,Green Button	89,Yellow Button	600.0	650.0	2150.0	2100.0	0.0	650.0	0.0	1.0	stop_stim
132474.24897568999	92.751024310000005	n/a	698	89	2750	92.75102431	stim	stop-signal	648	1660790	0.0-25.27-1.27	beast_fmri_test	310	1658103,/,1658782,/,1659462,/,1660142,/,1660822,/	t,t,t,t,t	<img class = center src='/static/experiments/beast_fmri_test/images/V.png'></img>	71,89	2750.0	test	<img class = center src='/static/experiments/beast_fmri_test/images/redV.png'></img>	stop	2100.0	3.0	27.0	stop	non-target	V	71,Green Button	89,Yellow Button	600.0	650.0	2150.0	2100.0	0.0	650.0	0.0	1.0	ITI
133186	500	n/a	-1	-1	500	0.0	fixation	poldrack-single-stim	649	1661409	0.0-25.28-0.28	beast_fmri_test	310	n/a	n/a	<div class = centerbox><div class = fixation>+</div></div>	none	500.0	test	n/a	n/a	n/a	n/a	n/a	n/a	n/a	n/a	n/a	n/a	n/a	n/a	n/a	n/a	n/a	n/a	n/a	n/a	fixation
132708.8421769999	2750	n/a	934	89	2750	480.157823	stim	stop-signal	650	1664162	0.0-25.28-1.28	beast_fmri_test	310	1661502,/,1662181,/,1662861,/,1663542,/,1664222,/	t,t,t,t,t	<img class = center src='/static/experiments/beast_fmri_test/images/T.png'></img>	71,89	2750.0	test	<img class = center src='/static/experiments/beast_fmri_test/images/redT.png'></img>	go	2150.0	3.0	28.0	go	non-target	T	71,Green Button	89,Yellow Button	600.0	600.0	2150.0	2150.0	1.0	600.0	n/a	1.0	go_stim
135458.8421769999	480.15782300000006	n/a	934	89	2750	480.157823	stim	stop-signal	650	1664162	0.0-25.28-1.28	beast_fmri_test	310	1661502,/,1662181,/,1662861,/,1663542,/,1664222,/	t,t,t,t,t	<img class = center src='/static/experiments/beast_fmri_test/images/T.png'></img>	71,89	2750.0	test	<img class = center src='/static/experiments/beast_fmri_test/images/redT.png'></img>	go	2150.0	3.0	28.0	go	non-target	T	71,Green Button	89,Yellow Button	600.0	600.0	2150.0	2150.0	1.0	600.0	n/a	1.0	ITI
136941	500	n/a	-1	-1	500	0.0	fixation	poldrack-single-stim	651	1665164	0.0-25.29-0.29	beast_fmri_test	310	1664902,/	t	<div class = centerbox><div class = fixation>+</div></div>	none	500.0	test	n/a	n/a	n/a	n/a	n/a	n/a	n/a	n/a	n/a	n/a	n/a	n/a	n/a	n/a	n/a	n/a	n/a	n/a	fixation
135024.42020400008	600.0	n/a	721	89	2750	1918.579796	stim	stop-signal	652	1667916	0.0-25.29-1.29	beast_fmri_test	310	1665582,/,1666262,/,1666942,/,1667622,/,1668303,/,1668982,/,1669662,/	t,t,t,t,t,t,t	<img class = center src='/static/experiments/beast_fmri_test/images/D.png'></img>	71,89	2750.0	test	<img class = center src='/static/experiments/beast_fmri_test/images/redD.png'></img>	stop	2150.0	3.0	29.0	stop	non-target	D	71,Green Button	89,Yellow Button	600.0	600.0	2150.0	2150.0	0.0	600.0	0.0	1.0	go_stim
137174.42020400008	2150.0	n/a	721	89	2750	1918.579796	stim	stop-signal	652	1667916	0.0-25.29-1.29	beast_fmri_test	310	1665582,/,1666262,/,1666942,/,1667622,/,1668303,/,1668982,/,1669662,/	t,t,t,t,t,t,t	<img class = center src='/static/experiments/beast_fmri_test/images/D.png'></img>	71,89	2750.0	test	<img class = center src='/static/experiments/beast_fmri_test/images/redD.png'></img>	stop	2150.0	3.0	29.0	stop	non-target	D	71,Green Button	89,Yellow Button	600.0	600.0	2150.0	2150.0	0.0	600.0	0.0	1.0	stop_stim
137774.42020400008	1918.579796	n/a	721	89	2750	1918.579796	stim	stop-signal	652	1667916	0.0-25.29-1.29	beast_fmri_test	310	1665582,/,1666262,/,1666942,/,1667622,/,1668303,/,1668982,/,1669662,/	t,t,t,t,t,t,t	<img class = center src='/static/experiments/beast_fmri_test/images/D.png'></img>	71,89	2750.0	test	<img class = center src='/static/experiments/beast_fmri_test/images/redD.png'></img>	stop	2150.0	3.0	29.0	stop	non-target	D	71,Green Button	89,Yellow Button	600.0	600.0	2150.0	2150.0	0.0	600.0	0.0	1.0	ITI
142136	500	n/a	-1	-1	500	0.0	fixation	poldrack-single-stim	653	1670359	0.0-25.30-0.30	beast_fmri_test	310	1670342,/	t	<div class = centerbox><div class = fixation>+</div></div>	none	500.0	test	n/a	n/a	n/a	n/a	n/a	n/a	n/a	n/a	n/a	n/a	n/a	n/a	n/a	n/a	n/a	n/a	n/a	n/a	fixation
141775.98931650002	550.0	n/a	676	71	2750	362.0106835	stim	stop-signal	654	1673111	0.0-25.30-1.30	beast_fmri_test	310	1671022,/,1671702,/,1672382,/,1673062,/	t,t,t,t	<img class = center src='/static/experiments/beast_fmri_test/images/B.png'></img>	71,89	2750.0	test	<img class = center src='/static/experiments/beast_fmri_test/images/redB.png'></img>	stop	2200.0	3.0	30.0	stop	non-target	B	71,Green Button	89,Yellow Button	600.0	550.0	2150.0	2200.0	0.0	550.0	0.0	0.0	go_stim
143975.98931650002	2200.0	n/a	676	71	2750	362.0106835	stim	stop-signal	654	1673111	0.0-25.30-1.30	beast_fmri_test	310	1671022,/,1671702,/,1672382,/,1673062,/	t,t,t,t	<img class = center src='/static/experiments/beast_fmri_test/images/B.png'></img>	71,89	2750.0	test	<img class = center src='/static/experiments/beast_fmri_test/images/redB.png'></img>	stop	2200.0	3.0	30.0	stop	non-target	B	71,Green Button	89,Yellow Button	600.0	550.0	2150.0	2200.0	0.0	550.0	0.0	0.0	stop_stim
144525.98931650002	362.01068349999997	n/a	676	71	2750	362.0106835	stim	stop-signal	654	1673111	0.0-25.30-1.30	beast_fmri_test	310	1671022,/,1671702,/,1672382,/,1673062,/	t,t,t,t	<img class = center src='/static/experiments/beast_fmri_test/images/B.png'></img>	71,89	2750.0	test	<img class = center src='/static/experiments/beast_fmri_test/images/redB.png'></img>	stop	2200.0	3.0	30.0	stop	non-target	B	71,Green Button	89,Yellow Button	600.0	550.0	2150.0	2200.0	0.0	550.0	0.0	0.0	ITI
145776	500	n/a	-1	-1	500	0.0	fixation	poldrack-single-stim	655	1673999	0.0-25.31-0.31	beast_fmri_test	310	1673742,/	t	<div class = centerbox><div class = fixation>+</div></div>	none	500.0	test	n/a	n/a	n/a	n/a	n/a	n/a	n/a	n/a	n/a	n/a	n/a	n/a	n/a	n/a	n/a	n/a	n/a	n/a	fixation
145037.0610348999	500.0	n/a	-1	-1	2750	741.9389651	stim	stop-signal	656	1676752	0.0-25.31-1.31	beast_fmri_test	310	1674421,/,1675102,/,1675782,/,1676462,/,1677141,/	t,t,t,t,t	<img class = center src='/static/experiments/beast_fmri_test/images/D.png'></img>	71,89	2750.0	test	<img class = center src='/static/experiments/beast_fmri_test/images/redD.png'></img>	stop	2250.0	3.0	31.0	stop	non-target	D	71,Green Button	89,Yellow Button	600.0	500.0	2150.0	2250.0	0.0	500.0	1.0	0.0	go_stim
147287.0610348999	2250.0	n/a	-1	-1	2750	741.9389651	stim	stop-signal	656	1676752	0.0-25.31-1.31	beast_fmri_test	310	1674421,/,1675102,/,1675782,/,1676462,/,1677141,/	t,t,t,t,t	<img class = center src='/static/experiments/beast_fmri_test/images/D.png'></img>	71,89	2750.0	test	<img class = center src='/static/experiments/beast_fmri_test/images/redD.png'></img>	stop	2250.0	3.0	31.0	stop	non-target	D	71,Green Button	89,Yellow Button	600.0	500.0	2150.0	2250.0	0.0	500.0	1.0	0.0	stop_stim
147787.0610348999	741.93896510000002	n/a	-1	-1	2750	741.9389651	stim	stop-signal	656	1676752	0.0-25.31-1.31	beast_fmri_test	310	1674421,/,1675102,/,1675782,/,1676462,/,1677141,/	t,t,t,t,t	<img class = center src='/static/experiments/beast_fmri_test/images/D.png'></img>	71,89	2750.0	test	<img class = center src='/static/experiments/beast_fmri_test/images/redD.png'></img>	stop	2250.0	3.0	31.0	stop	non-target	D	71,Green Button	89,Yellow Button	600.0	500.0	2150.0	2250.0	0.0	500.0	1.0	0.0	ITI
149793	500	n/a	-1	-1	500	0.0	fixation	poldrack-single-stim	657	1678016	0.0-25.32-0.32	beast_fmri_test	310	1677821,/	t	<div class = centerbox><div class = fixation>+</div></div>	none	500.0	test	n/a	n/a	n/a	n/a	n/a	n/a	n/a	n/a	n/a	n/a	n/a	n/a	n/a	n/a	n/a	n/a	n/a	n/a	fixation
148231.32172199991	2750	n/a	762	71	2750	1563.678278	stim	stop-signal	658	1680768	0.0-25.32-1.32	beast_fmri_test	310	1678503,/,1679182,/,1679863,/,1680542,/,1681222,/,1681902,/	t,t,t,t,t,t	<img class = center src='/static/experiments/beast_fmri_test/images/D.png'></img>	71,89	2750.0	test	<img class = center src='/static/experiments/beast_fmri_test/images/redD.png'></img>	go	2150.0	3.0	32.0	go	target	D	71,Green Button	89,Yellow Button	600.0	550.0	2150.0	2250.0	1.0	600.0	n/a	1.0	go_stim
150981.32172199991	1563.6782779999999	n/a	762	71	2750	1563.678278	stim	stop-signal	658	1680768	0.0-25.32-1.32	beast_fmri_test	310	1678503,/,1679182,/,1679863,/,1680542,/,1681222,/,1681902,/	t,t,t,t,t,t	<img class = center src='/static/experiments/beast_fmri_test/images/D.png'></img>	71,89	2750.0	test	<img class = center src='/static/experiments/beast_fmri_test/images/redD.png'></img>	go	2150.0	3.0	32.0	go	target	D	71,Green Button	89,Yellow Button	600.0	550.0	2150.0	2250.0	1.0	600.0	n/a	1.0	ITI
154630	500	n/a	-1	-1	500	0.0	fixation	poldrack-single-stim	659	1682853	0.0-25.33-0.33	beast_fmri_test	310	1682582,/	t	<div class = centerbox><div class = fixation>+</div></div>	none	500.0	test	n/a	n/a	n/a	n/a	n/a	n/a	n/a	n/a	n/a	n/a	n/a	n/a	n/a	n/a	n/a	n/a	n/a	n/a	fixation
154330.76184260007	550.0	n/a	-1	-1	2750	301.2381574	stim	stop-signal	660	1685605	0.0-25.33-1.33	beast_fmri_test	310	1683262,/,1683942,/,1684622,/,1685302,/	t,t,t,t	<img class = center src='/static/experiments/beast_fmri_test/images/D.png'></img>	71,89	2750.0	test	<img class = center src='/static/experiments/beast_fmri_test/images/redD.png'></img>	stop	2200.0	3.0	33.0	stop	non-target	D	71,Green Button	89,Yellow Button	600.0	550.0	2150.0	2200.0	0.0	550.0	1.0	0.0	go_stim
156530.76184260007	2200.0	n/a	-1	-1	2750	301.2381574	stim	stop-signal	660	1685605	0.0-25.33-1.33	beast_fmri_test	310	1683262,/,1683942,/,1684622,/,1685302,/	t,t,t,t	<img class = center src='/static/experiments/beast_fmri_test/images/D.png'></img>	71,89	2750.0	test	<img class = center src='/static/experiments/beast_fmri_test/images/redD.png'></img>	stop	2200.0	3.0	33.0	stop	non-target	D	71,Green Button	89,Yellow Button	600.0	550.0	2150.0	2200.0	0.0	550.0	1.0	0.0	stop_stim
157080.76184260007	301.23815739999998	n/a	-1	-1	2750	301.2381574	stim	stop-signal	660	1685605	0.0-25.33-1.33	beast_fmri_test	310	1683262,/,1683942,/,1684622,/,1685302,/	t,t,t,t	<img class = center src='/static/experiments/beast_fmri_test/images/D.png'></img>	71,89	2750.0	test	<img class = center src='/static/experiments/beast_fmri_test/images/redD.png'></img>	stop	2200.0	3.0	33.0	stop	non-target	D	71,Green Button	89,Yellow Button	600.0	550.0	2150.0	2200.0	0.0	550.0	1.0	0.0	ITI
158207	500	n/a	-1	-1	500	0.0	fixation	poldrack-single-stim	661	1686430	0.0-25.34-0.34	beast_fmri_test	310	1685983,/	t	<div class = centerbox><div class = fixation>+</div></div>	none	500.0	test	n/a	n/a	n/a	n/a	n/a	n/a	n/a	n/a	n/a	n/a	n/a	n/a	n/a	n/a	n/a	n/a	n/a	n/a	fixation
157935.63184490008	600.0	n/a	-1	-1	2750	273.3681551	stim	stop-signal	662	1689182	0.0-25.34-1.34	beast_fmri_test	310	1686662,/,1687342,/,1688022,/,1688702,/,1689382,/	t,t,t,t,t	<img class = center src='/static/experiments/beast_fmri_test/images/D.png'></img>	71,89	2750.0	test	<img class = center src='/static/experiments/beast_fmri_test/images/redD.png'></img>	stop	2150.0	3.0	34.0	stop	target	D	71,Green Button	89,Yellow Button	600.0	600.0	2150.0	2200.0	0.0	600.0	1.0	0.0	go_stim
160085.63184490008	2150.0	n/a	-1	-1	2750	273.3681551	stim	stop-signal	662	1689182	0.0-25.34-1.34	beast_fmri_test	310	1686662,/,1687342,/,1688022,/,1688702,/,1689382,/	t,t,t,t,t	<img class = center src='/static/experiments/beast_fmri_test/images/D.png'></img>	71,89	2750.0	test	<img class = center src='/static/experiments/beast_fmri_test/images/redD.png'></img>	stop	2150.0	3.0	34.0	stop	target	D	71,Green Button	89,Yellow Button	600.0	600.0	2150.0	2200.0	0.0	600.0	1.0	0.0	stop_stim
160685.63184490008	273.36815510000002	n/a	-1	-1	2750	273.3681551	stim	stop-signal	662	1689182	0.0-25.34-1.34	beast_fmri_test	310	1686662,/,1687342,/,1688022,/,1688702,/,1689382,/	t,t,t,t,t	<img class = center src='/static/experiments/beast_fmri_test/images/D.png'></img>	71,89	2750.0	test	<img class = center src='/static/experiments/beast_fmri_test/images/redD.png'></img>	stop	2150.0	3.0	34.0	stop	target	D	71,Green Button	89,Yellow Button	600.0	600.0	2150.0	2200.0	0.0	600.0	1.0	0.0	ITI
161759	500	n/a	-1	-1	500	0.0	fixation	poldrack-single-stim	663	1689982	0.0-25.35-0.35	beast_fmri_test	310	n/a	n/a	<div class = centerbox><div class = fixation>+</div></div>	none	500.0	test	n/a	n/a	n/a	n/a	n/a	n/a	n/a	n/a	n/a	n/a	n/a	n/a	n/a	n/a	n/a	n/a	n/a	n/a	fixation
161280.45620719995	650.0	n/a	-1	-1	2750	480.5437928	stim	stop-signal	664	1692734	0.0-25.35-1.35	beast_fmri_test	310	1690062,/,1690742,/,1691422,/,1692102,/,1692782,/	t,t,t,t,t	<img class = center src='/static/experiments/beast_fmri_test/images/D.png'></img>	71,89	2750.0	test	<img class = center src='/static/experiments/beast_fmri_test/images/redD.png'></img>	stop	2100.0	3.0	35.0	stop	target	D	71,Green Button	89,Yellow Button	650.0	600.0	2100.0	2200.0	0.0	650.0	1.0	0.0	go_stim
163380.45620719995	2100.0	n/a	-1	-1	2750	480.5437928	stim	stop-signal	664	1692734	0.0-25.35-1.35	beast_fmri_test	310	1690062,/,1690742,/,1691422,/,1692102,/,1692782,/	t,t,t,t,t	<img class = center src='/static/experiments/beast_fmri_test/images/D.png'></img>	71,89	2750.0	test	<img class = center src='/static/experiments/beast_fmri_test/images/redD.png'></img>	stop	2100.0	3.0	35.0	stop	target	D	71,Green Button	89,Yellow Button	650.0	600.0	2100.0	2200.0	0.0	650.0	1.0	0.0	stop_stim
164030.45620719995	480.54379280000001	n/a	-1	-1	2750	480.5437928	stim	stop-signal	664	1692734	0.0-25.35-1.35	beast_fmri_test	310	1690062,/,1690742,/,1691422,/,1692102,/,1692782,/	t,t,t,t,t	<img class = center src='/static/experiments/beast_fmri_test/images/D.png'></img>	71,89	2750.0	test	<img class = center src='/static/experiments/beast_fmri_test/images/redD.png'></img>	stop	2100.0	3.0	35.0	stop	target	D	71,Green Button	89,Yellow Button	650.0	600.0	2100.0	2200.0	0.0	650.0	1.0	0.0	ITI
165516	500	n/a	-1	-1	500	0.0	fixation	poldrack-single-stim	665	1693739	0.0-25.36-0.36	beast_fmri_test	310	1693462,/	t	<div class = centerbox><div class = fixation>+</div></div>	none	500.0	test	n/a	n/a	n/a	n/a	n/a	n/a	n/a	n/a	n/a	n/a	n/a	n/a	n/a	n/a	n/a	n/a	n/a	n/a	fixation
162999.21112099988	2750	n/a	809	89	2750	2517.788879	stim	stop-signal	666	1696490	0.0-25.36-1.36	beast_fmri_test	310	1694142,/,1694822,/,1695502,/,1696182,/,1696862,/,1697542,/,1698222,/,1698902,/	t,t,t,t,t,t,t,t	<img class = center src='/static/experiments/beast_fmri_test/images/T.png'></img>	71,89	2750.0	test	<img class = center src='/static/experiments/beast_fmri_test/images/redT.png'></img>	go	2150.0	3.0	36.0	go	non-target	T	71,Green Button	89,Yellow Button	700.0	600.0	2100.0	2150.0	1.0	600.0	n/a	1.0	go_stim
165749.21112099988	2517.7888789999997	n/a	809	89	2750	2517.788879	stim	stop-signal	666	1696490	0.0-25.36-1.36	beast_fmri_test	310	1694142,/,1694822,/,1695502,/,1696182,/,1696862,/,1697542,/,1698222,/,1698902,/	t,t,t,t,t,t,t,t	<img class = center src='/static/experiments/beast_fmri_test/images/T.png'></img>	71,89	2750.0	test	<img class = center src='/static/experiments/beast_fmri_test/images/redT.png'></img>	go	2150.0	3.0	36.0	go	non-target	T	71,Green Button	89,Yellow Button	700.0	600.0	2100.0	2150.0	1.0	600.0	n/a	1.0	ITI
171308	500	n/a	-1	-1	500	0.0	fixation	poldrack-single-stim	667	1699531	0.0-25.37-0.37	beast_fmri_test	310	n/a	n/a	<div class = centerbox><div class = fixation>+</div></div>	none	500.0	test	n/a	n/a	n/a	n/a	n/a	n/a	n/a	n/a	n/a	n/a	n/a	n/a	n/a	n/a	n/a	n/a	n/a	n/a	fixation
170276.71031900006	2750	n/a	1683	71	2750	1033.289681	stim	stop-signal	668	1702283	0.0-25.37-1.37	beast_fmri_test	310	1699582,/,1700262,/,1700942,/,1701622,/,1702302,/,1702982,/	t,t,t,t,t,t	<img class = center src='/static/experiments/beast_fmri_test/images/T.png'></img>	71,89	2750.0	test	<img class = center src='/static/experiments/beast_fmri_test/images/redT.png'></img>	go	2150.0	3.0	37.0	go	non-target	T	71,Green Button	89,Yellow Button	700.0	600.0	2100.0	2150.0	0.0	600.0	n/a	0.0	go_stim
173026.71031900006	1033.289681	n/a	1683	71	2750	1033.289681	stim	stop-signal	668	1702283	0.0-25.37-1.37	beast_fmri_test	310	1699582,/,1700262,/,1700942,/,1701622,/,1702302,/,1702982,/	t,t,t,t,t,t	<img class = center src='/static/experiments/beast_fmri_test/images/T.png'></img>	71,89	2750.0	test	<img class = center src='/static/experiments/beast_fmri_test/images/redT.png'></img>	go	2150.0	3.0	37.0	go	non-target	T	71,Green Button	89,Yellow Button	700.0	600.0	2100.0	2150.0	0.0	600.0	n/a	0.0	ITI
175618	500	n/a	-1	-1	500	0.0	fixation	poldrack-single-stim	669	1703841	0.0-25.38-0.38	beast_fmri_test	310	1703661,/	t	<div class = centerbox><div class = fixation>+</div></div>	none	500.0	test	n/a	n/a	n/a	n/a	n/a	n/a	n/a	n/a	n/a	n/a	n/a	n/a	n/a	n/a	n/a	n/a	n/a	n/a	fixation
175459.66750749992	2750	n/a	1873	71	2750	160.3324925	stim	stop-signal	670	1706593	0.0-25.38-1.38	beast_fmri_test	310	1704342,/,1705021,/,1705702,/,1706381,/	t,t,t,t	<img class = center src='/static/experiments/beast_fmri_test/images/B.png'></img>	71,89	2750.0	test	<img class = center src='/static/experiments/beast_fmri_test/images/redB.png'></img>	go	2150.0	3.0	38.0	go	non-target	B	71,Green Button	89,Yellow Button	700.0	600.0	2100.0	2150.0	0.0	600.0	n/a	0.0	go_stim
178209.66750749992	160.3324925	n/a	1873	71	2750	160.3324925	stim	stop-signal	670	1706593	0.0-25.38-1.38	beast_fmri_test	310	1704342,/,1705021,/,1705702,/,1706381,/	t,t,t,t	<img class = center src='/static/experiments/beast_fmri_test/images/B.png'></img>	71,89	2750.0	test	<img class = center src='/static/experiments/beast_fmri_test/images/redB.png'></img>	go	2150.0	3.0	38.0	go	non-target	B	71,Green Button	89,Yellow Button	700.0	600.0	2100.0	2150.0	0.0	600.0	n/a	0.0	ITI
179054	500	n/a	-1	-1	500	0.0	fixation	poldrack-single-stim	671	1707277	0.0-25.39-0.39	beast_fmri_test	310	1707062,/	t	<div class = centerbox><div class = fixation>+</div></div>	none	500.0	test	n/a	n/a	n/a	n/a	n/a	n/a	n/a	n/a	n/a	n/a	n/a	n/a	n/a	n/a	n/a	n/a	n/a	n/a	fixation
178233.35796750011	2750	n/a	1504	89	2750	822.6420325	stim	stop-signal	672	1710029	0.0-25.39-1.39	beast_fmri_test	310	1707741,/,1708422,/,1709102,/,1709782,/,1710461,/	t,t,t,t,t	<img class = center src='/static/experiments/beast_fmri_test/images/P.png'></img>	71,89	2750.0	test	<img class = center src='/static/experiments/beast_fmri_test/images/redP.png'></img>	go	2150.0	3.0	39.0	go	non-target	P	71,Green Button	89,Yellow Button	700.0	600.0	2100.0	2150.0	1.0	600.0	n/a	1.0	go_stim
180983.35796750011	822.64203250000003	n/a	1504	89	2750	822.6420325	stim	stop-signal	672	1710029	0.0-25.39-1.39	beast_fmri_test	310	1707741,/,1708422,/,1709102,/,1709782,/,1710461,/	t,t,t,t,t	<img class = center src='/static/experiments/beast_fmri_test/images/P.png'></img>	71,89	2750.0	test	<img class = center src='/static/experiments/beast_fmri_test/images/redP.png'></img>	go	2150.0	3.0	39.0	go	non-target	P	71,Green Button	89,Yellow Button	700.0	600.0	2100.0	2150.0	1.0	600.0	n/a	1.0	ITI
183162	500	n/a	-1	-1	500	0.0	fixation	poldrack-single-stim	673	1711385	0.0-25.40-0.40	beast_fmri_test	310	1711142,/	t	<div class = centerbox><div class = fixation>+</div></div>	none	500.0	test	n/a	n/a	n/a	n/a	n/a	n/a	n/a	n/a	n/a	n/a	n/a	n/a	n/a	n/a	n/a	n/a	n/a	n/a	fixation
182836.33911269996	2750	n/a	1100	71	2750	326.6608873	stim	stop-signal	674	1714136	0.0-25.40-1.40	beast_fmri_test	310	1711823,/,1712503,/,1713182,/,1713862,/	t,t,t,t	<img class = center src='/static/experiments/beast_fmri_test/images/T.png'></img>	71,89	2750.0	test	<img class = center src='/static/experiments/beast_fmri_test/images/redT.png'></img>	go	2050.0	3.0	40.0	go	target	T	71,Green Button	89,Yellow Button	700.0	600.0	2050.0	2150.0	1.0	700.0	n/a	1.0	go_stim
185586.33911269996	326.66088730000001	n/a	1100	71	2750	326.6608873	stim	stop-signal	674	1714136	0.0-25.40-1.40	beast_fmri_test	310	1711823,/,1712503,/,1713182,/,1713862,/	t,t,t,t	<img class = center src='/static/experiments/beast_fmri_test/images/T.png'></img>	71,89	2750.0	test	<img class = center src='/static/experiments/beast_fmri_test/images/redT.png'></img>	go	2050.0	3.0	40.0	go	target	T	71,Green Button	89,Yellow Button	700.0	600.0	2050.0	2150.0	1.0	700.0	n/a	1.0	ITI
186766	500	n/a	-1	-1	500	0.0	fixation	poldrack-single-stim	675	1714989	0.0-25.41-0.41	beast_fmri_test	310	1714543,/	t	<div class = centerbox><div class = fixation>+</div></div>	none	500.0	test	n/a	n/a	n/a	n/a	n/a	n/a	n/a	n/a	n/a	n/a	n/a	n/a	n/a	n/a	n/a	n/a	n/a	n/a	fixation
186571.10091869999	600.0	n/a	671	89	2750	196.8990813	stim	stop-signal	676	1717741	0.0-25.41-1.41	beast_fmri_test	310	1715222,/,1715902,/,1716582,/,1717262,/	t,t,t,t	<img class = center src='/static/experiments/beast_fmri_test/images/D.png'></img>	71,89	2750.0	test	<img class = center src='/static/experiments/beast_fmri_test/images/redD.png'></img>	stop	2150.0	3.0	41.0	stop	non-target	D	71,Green Button	89,Yellow Button	700.0	600.0	2050.0	2150.0	0.0	600.0	0.0	1.0	go_stim
188721.10091869999	2150.0	n/a	671	89	2750	196.8990813	stim	stop-signal	676	1717741	0.0-25.41-1.41	beast_fmri_test	310	1715222,/,1715902,/,1716582,/,1717262,/	t,t,t,t	<img class = center src='/static/experiments/beast_fmri_test/images/D.png'></img>	71,89	2750.0	test	<img class = center src='/static/experiments/beast_fmri_test/images/redD.png'></img>	stop	2150.0	3.0	41.0	stop	non-target	D	71,Green Button	89,Yellow Button	700.0	600.0	2050.0	2150.0	0.0	600.0	0.0	1.0	stop_stim
189321.10091869999	196.89908130000001	n/a	671	89	2750	196.8990813	stim	stop-signal	676	1717741	0.0-25.41-1.41	beast_fmri_test	310	1715222,/,1715902,/,1716582,/,1717262,/	t,t,t,t	<img class = center src='/static/experiments/beast_fmri_test/images/D.png'></img>	71,89	2750.0	test	<img class = center src='/static/experiments/beast_fmri_test/images/redD.png'></img>	stop	2150.0	3.0	41.0	stop	non-target	D	71,Green Button	89,Yellow Button	700.0	600.0	2050.0	2150.0	0.0	600.0	0.0	1.0	ITI
190242	500	n/a	-1	-1	500	0.0	fixation	poldrack-single-stim	677	1718465	0.0-25.42-0.42	beast_fmri_test	310	1717963,/	t	<div class = centerbox><div class = fixation>+</div></div>	none	500.0	test	n/a	n/a	n/a	n/a	n/a	n/a	n/a	n/a	n/a	n/a	n/a	n/a	n/a	n/a	n/a	n/a	n/a	n/a	fixation
188233.74974499992	2750	n/a	1104	71	2750	2010.250255	stim	stop-signal	678	1721217	0.0-25.42-1.42	beast_fmri_test	310	1718622,/,1719303,/,1719982,/,1720662,/,1721342,/,1722022,/,1722702,/	t,t,t,t,t,t,t	<img class = center src='/static/experiments/beast_fmri_test/images/P.png'></img>	71,89	2750.0	test	<img class = center src='/static/experiments/beast_fmri_test/images/redP.png'></img>	go	2050.0	3.0	42.0	go	target	P	71,Green Button	89,Yellow Button	700.0	550.0	2050.0	2150.0	1.0	700.0	n/a	1.0	go_stim
190983.74974499992	2010.2502550000002	n/a	1104	71	2750	2010.250255	stim	stop-signal	678	1721217	0.0-25.42-1.42	beast_fmri_test	310	1718622,/,1719303,/,1719982,/,1720662,/,1721342,/,1722022,/,1722702,/	t,t,t,t,t,t,t	<img class = center src='/static/experiments/beast_fmri_test/images/P.png'></img>	71,89	2750.0	test	<img class = center src='/static/experiments/beast_fmri_test/images/redP.png'></img>	go	2050.0	3.0	42.0	go	target	P	71,Green Button	89,Yellow Button	700.0	550.0	2050.0	2150.0	1.0	700.0	n/a	1.0	ITI
195530	500	n/a	-1	-1	500	0.0	fixation	poldrack-single-stim	679	1723753	0.0-25.43-0.43	beast_fmri_test	310	1723382,/	t	<div class = centerbox><div class = fixation>+</div></div>	none	500.0	test	n/a	n/a	n/a	n/a	n/a	n/a	n/a	n/a	n/a	n/a	n/a	n/a	n/a	n/a	n/a	n/a	n/a	n/a	fixation
195275.42342499993	700.0	n/a	954	71	2750	256.576575	stim	stop-signal	680	1726505	0.0-25.43-1.43	beast_fmri_test	310	1724062,/,1724742,/,1725422,/,1726102,/	t,t,t,t	<img class = center src='/static/experiments/beast_fmri_test/images/T.png'></img>	71,89	2750.0	test	<img class = center src='/static/experiments/beast_fmri_test/images/redT.png'></img>	stop	2050.0	3.0	43.0	stop	target	T	71,Green Button	89,Yellow Button	700.0	550.0	2050.0	2150.0	0.0	700.0	0.0	1.0	go_stim
197325.42342499993	2050.0	n/a	954	71	2750	256.576575	stim	stop-signal	680	1726505	0.0-25.43-1.43	beast_fmri_test	310	1724062,/,1724742,/,1725422,/,1726102,/	t,t,t,t	<img class = center src='/static/experiments/beast_fmri_test/images/T.png'></img>	71,89	2750.0	test	<img class = center src='/static/experiments/beast_fmri_test/images/redT.png'></img>	stop	2050.0	3.0	43.0	stop	target	T	71,Green Button	89,Yellow Button	700.0	550.0	2050.0	2150.0	0.0	700.0	0.0	1.0	stop_stim
198025.42342499993	256.57657499999999	n/a	954	71	2750	256.576575	stim	stop-signal	680	1726505	0.0-25.43-1.43	beast_fmri_test	310	1724062,/,1724742,/,1725422,/,1726102,/	t,t,t,t	<img class = center src='/static/experiments/beast_fmri_test/images/T.png'></img>	71,89	2750.0	test	<img class = center src='/static/experiments/beast_fmri_test/images/redT.png'></img>	stop	2050.0	3.0	43.0	stop	target	T	71,Green Button	89,Yellow Button	700.0	550.0	2050.0	2150.0	0.0	700.0	0.0	1.0	ITI
199064	500	n/a	-1	-1	500	0.0	fixation	poldrack-single-stim	681	1727287	0.0-25.44-0.44	beast_fmri_test	310	1726786,/	t	<div class = centerbox><div class = fixation>+</div></div>	none	500.0	test	n/a	n/a	n/a	n/a	n/a	n/a	n/a	n/a	n/a	n/a	n/a	n/a	n/a	n/a	n/a	n/a	n/a	n/a	fixation
196061.70405400009	2750	n/a	915	89	2750	3004.295946	stim	stop-signal	682	1730039	0.0-25.44-1.44	beast_fmri_test	310	1727461,/,1728142,/,1728822,/,1729503,/,1730182,/,1730862,/,1731542,/,1732222,/,1732902,/	t,t,t,t,t,t,t,t,t	<img class = center src='/static/experiments/beast_fmri_test/images/V.png'></img>	71,89	2750.0	test	<img class = center src='/static/experiments/beast_fmri_test/images/redV.png'></img>	go	2200.0	3.0	44.0	go	non-target	V	71,Green Button	89,Yellow Button	650.0	550.0	2050.0	2200.0	1.0	550.0	n/a	1.0	go_stim
198811.70405400009	3004.2959460000002	n/a	915	89	2750	3004.295946	stim	stop-signal	682	1730039	0.0-25.44-1.44	beast_fmri_test	310	1727461,/,1728142,/,1728822,/,1729503,/,1730182,/,1730862,/,1731542,/,1732222,/,1732902,/	t,t,t,t,t,t,t,t,t	<img class = center src='/static/experiments/beast_fmri_test/images/V.png'></img>	71,89	2750.0	test	<img class = center src='/static/experiments/beast_fmri_test/images/redV.png'></img>	go	2200.0	3.0	44.0	go	non-target	V	71,Green Button	89,Yellow Button	650.0	550.0	2050.0	2200.0	1.0	550.0	n/a	1.0	ITI
205346	500	n/a	-1	-1	500	0.0	fixation	poldrack-single-stim	683	1733569	0.0-25.45-0.45	beast_fmri_test	310	n/a	n/a	<div class = centerbox><div class = fixation>+</div></div>	none	500.0	test	n/a	n/a	n/a	n/a	n/a	n/a	n/a	n/a	n/a	n/a	n/a	n/a	n/a	n/a	n/a	n/a	n/a	n/a	fixation
205279.77111973008	2750	n/a	1152	71	2750	68.22888027	stim	stop-signal	684	1736321	0.0-25.45-1.45	beast_fmri_test	310	1733582,/,1734262,/,1734942,/,1735622,/,1736302,/	t,t,t,t,t	<img class = center src='/static/experiments/beast_fmri_test/images/P.png'></img>	71,89	2750.0	test	<img class = center src='/static/experiments/beast_fmri_test/images/redP.png'></img>	go	2100.0	3.0	45.0	go	target	P	71,Green Button	89,Yellow Button	650.0	550.0	2100.0	2200.0	1.0	650.0	n/a	1.0	go_stim
208029.77111973008	68.228880270000005	n/a	1152	71	2750	68.22888027	stim	stop-signal	684	1736321	0.0-25.45-1.45	beast_fmri_test	310	1733582,/,1734262,/,1734942,/,1735622,/,1736302,/	t,t,t,t,t	<img class = center src='/static/experiments/beast_fmri_test/images/P.png'></img>	71,89	2750.0	test	<img class = center src='/static/experiments/beast_fmri_test/images/redP.png'></img>	go	2100.0	3.0	45.0	go	target	P	71,Green Button	89,Yellow Button	650.0	550.0	2100.0	2200.0	1.0	650.0	n/a	1.0	ITI
208696	500	n/a	-1	-1	500	0.0	fixation	poldrack-single-stim	685	1736919	0.0-25.46-0.46	beast_fmri_test	310	n/a	n/a	<div class = centerbox><div class = fixation>+</div></div>	none	500.0	test	n/a	n/a	n/a	n/a	n/a	n/a	n/a	n/a	n/a	n/a	n/a	n/a	n/a	n/a	n/a	n/a	n/a	n/a	fixation
207707.89006010001	550.0	n/a	753	89	2750	990.1099399	stim	stop-signal	686	1739671	0.0-25.46-1.46	beast_fmri_test	310	1736982,/,1737662,/,1738342,/,1739022,/,1739702,/,1740381,/	t,t,t,t,t,t	<img class = center src='/static/experiments/beast_fmri_test/images/D.png'></img>	71,89	2750.0	test	<img class = center src='/static/experiments/beast_fmri_test/images/redD.png'></img>	stop	2200.0	3.0	46.0	stop	non-target	D	71,Green Button	89,Yellow Button	650.0	550.0	2100.0	2200.0	0.0	550.0	0.0	1.0	go_stim
209907.89006010001	2200.0	n/a	753	89	2750	990.1099399	stim	stop-signal	686	1739671	0.0-25.46-1.46	beast_fmri_test	310	1736982,/,1737662,/,1738342,/,1739022,/,1739702,/,1740381,/	t,t,t,t,t,t	<img class = center src='/static/experiments/beast_fmri_test/images/D.png'></img>	71,89	2750.0	test	<img class = center src='/static/experiments/beast_fmri_test/images/redD.png'></img>	stop	2200.0	3.0	46.0	stop	non-target	D	71,Green Button	89,Yellow Button	650.0	550.0	2100.0	2200.0	0.0	550.0	0.0	1.0	stop_stim
210457.89006010001	990.10993989999997	n/a	753	89	2750	990.1099399	stim	stop-signal	686	1739671	0.0-25.46-1.46	beast_fmri_test	310	1736982,/,1737662,/,1738342,/,1739022,/,1739702,/,1740381,/	t,t,t,t,t,t	<img class = center src='/static/experiments/beast_fmri_test/images/D.png'></img>	71,89	2750.0	test	<img class = center src='/static/experiments/beast_fmri_test/images/redD.png'></img>	stop	2200.0	3.0	46.0	stop	non-target	D	71,Green Button	89,Yellow Button	650.0	550.0	2100.0	2200.0	0.0	550.0	0.0	1.0	ITI
212964	500	n/a	-1	-1	500	0.0	fixation	poldrack-single-stim	687	1741187	0.0-25.47-0.47	beast_fmri_test	310	1741062,/	t	<div class = centerbox><div class = fixation>+</div></div>	none	500.0	test	n/a	n/a	n/a	n/a	n/a	n/a	n/a	n/a	n/a	n/a	n/a	n/a	n/a	n/a	n/a	n/a	n/a	n/a	fixation
212256.46093819989	2750	n/a	894	71	2750	709.5390618	stim	stop-signal	688	1743939	0.0-25.47-1.47	beast_fmri_test	310	1741742,/,1742422,/,1743101,/,1743781,/,1744461,/	t,t,t,t,t	<img class = center src='/static/experiments/beast_fmri_test/images/V.png'></img>	71,89	2750.0	test	<img class = center src='/static/experiments/beast_fmri_test/images/redV.png'></img>	go	2100.0	3.0	47.0	go	target	V	71,Green Button	89,Yellow Button	650.0	500.0	2100.0	2200.0	1.0	650.0	n/a	1.0	go_stim
215006.46093819989	709.53906180000001	n/a	894	71	2750	709.5390618	stim	stop-signal	688	1743939	0.0-25.47-1.47	beast_fmri_test	310	1741742,/,1742422,/,1743101,/,1743781,/,1744461,/	t,t,t,t,t	<img class = center src='/static/experiments/beast_fmri_test/images/V.png'></img>	71,89	2750.0	test	<img class = center src='/static/experiments/beast_fmri_test/images/redV.png'></img>	go	2100.0	3.0	47.0	go	target	V	71,Green Button	89,Yellow Button	650.0	500.0	2100.0	2200.0	1.0	650.0	n/a	1.0	ITI
231457	15000	n/a	-1	-1	15000	0.0	practice-no-stop-feedback	poldrack-single-stim	689	1759680	0.0-26.0	beast_fmri_test	310	1745142,/,1745822,/,1746502,/,1747182,/,1747862,/,1748543,/,1749222,/,1749904,/,1750583,/,1751262,/,1751942,/,1752622,/,1753302,/,1753982,/,1754662,/,1755342,/,1756022,/,1756702,/,1757382,/,1758062,/,1758742,/,1759422,/	t,t,t,t,t,t,t,t,t,t,t,t,t,t,t,t,t,t,t,t,t,t	"<div class = ""centerbox""><p class = ""center-block-text"">Your delay is 3 trials.</p><p class = center-block-text>Please wait for the scanner to start the block</p></div>"	77	15000.0	n/a	n/a	n/a	n/a	n/a	n/a	n/a	n/a	n/a	n/a	n/a	n/a	n/a	n/a	n/a	n/a	n/a	n/a	n/a	practice-no-stop-feedback
231958	500	n/a	-1	-1	500	0.0	fixation	poldrack-single-stim	690	1760181	0.0-27.0-0.0	beast_fmri_test	310	1760102,/	t	<div class = centerbox><div class = fixation>+</div></div>	none	500.0	test	n/a	n/a	n/a	n/a	n/a	n/a	n/a	n/a	n/a	n/a	n/a	n/a	n/a	n/a	n/a	n/a	n/a	n/a	fixation
230910.75943899993	2750	n/a	727	89	2750	1049.240561	stim	stop-signal	691	1762933	0.0-27.0-1.0	beast_fmri_test	310	1760782,/,1761462,/,1762142,/,1762822,/,1763502,/	t,t,t,t,t	<img class = center src='/static/experiments/beast_fmri_test/images/T.png'></img>	71,89	2750.0	test	<img class = center src='/static/experiments/beast_fmri_test/images/redT.png'></img>	go	-1.0	3.0	0.0	go	temp-non-target	T	71,Green Button	89,Yellow Button	650.0	500.0	2100.0	2200.0	0.0	n/a	n/a	n/a	go_stim
233660.75943899993	1049.2405609999998	n/a	727	89	2750	1049.240561	stim	stop-signal	691	1762933	0.0-27.0-1.0	beast_fmri_test	310	1760782,/,1761462,/,1762142,/,1762822,/,1763502,/	t,t,t,t,t	<img class = center src='/static/experiments/beast_fmri_test/images/T.png'></img>	71,89	2750.0	test	<img class = center src='/static/experiments/beast_fmri_test/images/redT.png'></img>	go	-1.0	3.0	0.0	go	temp-non-target	T	71,Green Button	89,Yellow Button	650.0	500.0	2100.0	2200.0	0.0	n/a	n/a	n/a	ITI
236286	500	n/a	-1	-1	500	0.0	fixation	poldrack-single-stim	692	1764509	0.0-27.1-0.1	beast_fmri_test	310	1764181,/	t	<div class = centerbox><div class = fixation>+</div></div>	none	500.0	test	n/a	n/a	n/a	n/a	n/a	n/a	n/a	n/a	n/a	n/a	n/a	n/a	n/a	n/a	n/a	n/a	n/a	n/a	fixation
236122.28563260008	temp_go_duration	n/a	294	89	2750	165.7143674	stim	stop-signal	693	1767261	0.0-27.1-1.1	beast_fmri_test	310	1764862,/,1765541,/,1766222,/,1766901,/	t,t,t,t	<img class = center src='/static/experiments/beast_fmri_test/images/V.png'></img>	71,89	2750.0	test	<img class = center src='/static/experiments/beast_fmri_test/images/redV.png'></img>	stop	-1.0	3.0	1.0	stop	temp-non-target	V	71,Green Button	89,Yellow Button	650.0	500.0	2100.0	2200.0	0.0	n/a	0.0	n/a	go_stim
temp-non-target	temp_stop_duration	n/a	294	89	2750	165.7143674	stim	stop-signal	693	1767261	0.0-27.1-1.1	beast_fmri_test	310	1764862,/,1765541,/,1766222,/,1766901,/	t,t,t,t	<img class = center src='/static/experiments/beast_fmri_test/images/V.png'></img>	71,89	2750.0	test	<img class = center src='/static/experiments/beast_fmri_test/images/redV.png'></img>	stop	-1.0	3.0	1.0	stop	temp-non-target	V	71,Green Button	89,Yellow Button	650.0	500.0	2100.0	2200.0	0.0	n/a	0.0	n/a	stop_stim
238872.28563260008	165.71436740000001	n/a	294	89	2750	165.7143674	stim	stop-signal	693	1767261	0.0-27.1-1.1	beast_fmri_test	310	1764862,/,1765541,/,1766222,/,1766901,/	t,t,t,t	<img class = center src='/static/experiments/beast_fmri_test/images/V.png'></img>	71,89	2750.0	test	<img class = center src='/static/experiments/beast_fmri_test/images/redV.png'></img>	stop	-1.0	3.0	1.0	stop	temp-non-target	V	71,Green Button	89,Yellow Button	650.0	500.0	2100.0	2200.0	0.0	n/a	0.0	n/a	ITI
239730	500	n/a	-1	-1	500	0.0	fixation	poldrack-single-stim	694	1767953	0.0-27.2-0.2	beast_fmri_test	310	1767582,/	t	<div class = centerbox><div class = fixation>+</div></div>	none	500.0	test	n/a	n/a	n/a	n/a	n/a	n/a	n/a	n/a	n/a	n/a	n/a	n/a	n/a	n/a	n/a	n/a	n/a	n/a	fixation
238956.7765587999	2750	n/a	456	89	2750	775.2234412	stim	stop-signal	695	1770705	0.0-27.2-1.2	beast_fmri_test	310	1768262,/,1768942,/,1769621,/,1770303,/,1770981,/	t,t,t,t,t	<img class = center src='/static/experiments/beast_fmri_test/images/B.png'></img>	71,89	2750.0	test	<img class = center src='/static/experiments/beast_fmri_test/images/redB.png'></img>	go	-1.0	3.0	2.0	go	temp-non-target	B	71,Green Button	89,Yellow Button	650.0	500.0	2100.0	2200.0	0.0	n/a	n/a	n/a	go_stim
241706.7765587999	775.22344120000002	n/a	456	89	2750	775.2234412	stim	stop-signal	695	1770705	0.0-27.2-1.2	beast_fmri_test	310	1768262,/,1768942,/,1769621,/,1770303,/,1770981,/	t,t,t,t,t	<img class = center src='/static/experiments/beast_fmri_test/images/B.png'></img>	71,89	2750.0	test	<img class = center src='/static/experiments/beast_fmri_test/images/redB.png'></img>	go	-1.0	3.0	2.0	go	temp-non-target	B	71,Green Button	89,Yellow Button	650.0	500.0	2100.0	2200.0	0.0	n/a	n/a	n/a	ITI
243788	500	n/a	-1	-1	500	0.0	fixation	poldrack-single-stim	696	1772011	0.0-27.3-0.3	beast_fmri_test	310	1771662,/	t	<div class = centerbox><div class = fixation>+</div></div>	none	500.0	test	n/a	n/a	n/a	n/a	n/a	n/a	n/a	n/a	n/a	n/a	n/a	n/a	n/a	n/a	n/a	n/a	n/a	n/a	fixation
243400.95924629993	2750	n/a	396	71	2750	389.0407537	stim	stop-signal	697	1774763	0.0-27.3-1.3	beast_fmri_test	310	1772341,/,1773021,/,1773702,/,1774382,/,1775062,/	t,t,t,t,t	<img class = center src='/static/experiments/beast_fmri_test/images/T.png'></img>	71,89	2750.0	test	<img class = center src='/static/experiments/beast_fmri_test/images/redT.png'></img>	go	2100.0	3.0	3.0	go	target	T	71,Green Button	89,Yellow Button	650.0	500.0	2100.0	2200.0	1.0	650.0	n/a	1.0	go_stim
246150.95924629993	389.04075369999998	n/a	396	71	2750	389.0407537	stim	stop-signal	697	1774763	0.0-27.3-1.3	beast_fmri_test	310	1772341,/,1773021,/,1773702,/,1774382,/,1775062,/	t,t,t,t,t	<img class = center src='/static/experiments/beast_fmri_test/images/T.png'></img>	71,89	2750.0	test	<img class = center src='/static/experiments/beast_fmri_test/images/redT.png'></img>	go	2100.0	3.0	3.0	go	target	T	71,Green Button	89,Yellow Button	650.0	500.0	2100.0	2200.0	1.0	650.0	n/a	1.0	ITI
247459	500	n/a	-1	-1	500	0.0	fixation	poldrack-single-stim	698	1775682	0.0-27.4-0.4	beast_fmri_test	310	n/a	n/a	<div class = centerbox><div class = fixation>+</div></div>	none	500.0	test	n/a	n/a	n/a	n/a	n/a	n/a	n/a	n/a	n/a	n/a	n/a	n/a	n/a	n/a	n/a	n/a	n/a	n/a	fixation
247215.71627580002	2750	n/a	682	89	2750	245.2837242	stim	stop-signal	699	1778434	0.0-27.4-1.4	beast_fmri_test	310	1775742,/,1776421,/,1777102,/,1777781,/,1778462,/	t,t,t,t,t	<img class = center src='/static/experiments/beast_fmri_test/images/T.png'></img>	71,89	2750.0	test	<img class = center src='/static/experiments/beast_fmri_test/images/redT.png'></img>	go	2250.0	3.0	4.0	go	non-target	T	71,Green Button	89,Yellow Button	650.0	500.0	2100.0	2250.0	1.0	500.0	n/a	1.0	go_stim
249965.71627580002	245.28372419999999	n/a	682	89	2750	245.2837242	stim	stop-signal	699	1778434	0.0-27.4-1.4	beast_fmri_test	310	1775742,/,1776421,/,1777102,/,1777781,/,1778462,/	t,t,t,t,t	<img class = center src='/static/experiments/beast_fmri_test/images/T.png'></img>	71,89	2750.0	test	<img class = center src='/static/experiments/beast_fmri_test/images/redT.png'></img>	go	2250.0	3.0	4.0	go	non-target	T	71,Green Button	89,Yellow Button	650.0	500.0	2100.0	2250.0	1.0	500.0	n/a	1.0	ITI
250984	500	n/a	-1	-1	500	0.0	fixation	poldrack-single-stim	700	1779207	0.0-27.5-0.5	beast_fmri_test	310	1779142,/	t	<div class = centerbox><div class = fixation>+</div></div>	none	500.0	test	n/a	n/a	n/a	n/a	n/a	n/a	n/a	n/a	n/a	n/a	n/a	n/a	n/a	n/a	n/a	n/a	n/a	n/a	fixation
249749.11867200001	2750	n/a	749	89	2750	1236.881328	stim	stop-signal	701	1781959	0.0-27.5-1.5	beast_fmri_test	310	1779822,/,1780503,/,1781182,/,1781862,/,1782542,/	t,t,t,t,t	<img class = center src='/static/experiments/beast_fmri_test/images/D.png'></img>	71,89	2750.0	test	<img class = center src='/static/experiments/beast_fmri_test/images/redD.png'></img>	go	2250.0	3.0	5.0	go	non-target	D	71,Green Button	89,Yellow Button	650.0	500.0	2100.0	2250.0	1.0	500.0	n/a	1.0	go_stim
252499.11867200001	1236.8813279999999	n/a	749	89	2750	1236.881328	stim	stop-signal	701	1781959	0.0-27.5-1.5	beast_fmri_test	310	1779822,/,1780503,/,1781182,/,1781862,/,1782542,/	t,t,t,t,t	<img class = center src='/static/experiments/beast_fmri_test/images/D.png'></img>	71,89	2750.0	test	<img class = center src='/static/experiments/beast_fmri_test/images/redD.png'></img>	go	2250.0	3.0	5.0	go	non-target	D	71,Green Button	89,Yellow Button	650.0	500.0	2100.0	2250.0	1.0	500.0	n/a	1.0	ITI
255500	500	n/a	-1	-1	500	0.0	fixation	poldrack-single-stim	702	1783723	0.0-27.6-0.6	beast_fmri_test	310	1783223,/	t	<div class = centerbox><div class = fixation>+</div></div>	none	500.0	test	n/a	n/a	n/a	n/a	n/a	n/a	n/a	n/a	n/a	n/a	n/a	n/a	n/a	n/a	n/a	n/a	n/a	n/a	fixation
254854.21120200003	500.0	n/a	640	89	2750	647.788798	stim	stop-signal	703	1786475	0.0-27.6-1.6	beast_fmri_test	310	1783902,/,1784582,/,1785262,/,1785942,/,1786622,/	t,t,t,t,t	<img class = center src='/static/experiments/beast_fmri_test/images/D.png'></img>	71,89	2750.0	test	<img class = center src='/static/experiments/beast_fmri_test/images/redD.png'></img>	stop	2250.0	3.0	6.0	stop	non-target	D	71,Green Button	89,Yellow Button	650.0	500.0	2100.0	2250.0	0.0	500.0	0.0	1.0	go_stim
257104.21120200003	2250.0	n/a	640	89	2750	647.788798	stim	stop-signal	703	1786475	0.0-27.6-1.6	beast_fmri_test	310	1783902,/,1784582,/,1785262,/,1785942,/,1786622,/	t,t,t,t,t	<img class = center src='/static/experiments/beast_fmri_test/images/D.png'></img>	71,89	2750.0	test	<img class = center src='/static/experiments/beast_fmri_test/images/redD.png'></img>	stop	2250.0	3.0	6.0	stop	non-target	D	71,Green Button	89,Yellow Button	650.0	500.0	2100.0	2250.0	0.0	500.0	0.0	1.0	stop_stim
257604.21120200003	647.78879800000004	n/a	640	89	2750	647.788798	stim	stop-signal	703	1786475	0.0-27.6-1.6	beast_fmri_test	310	1783902,/,1784582,/,1785262,/,1785942,/,1786622,/	t,t,t,t,t	<img class = center src='/static/experiments/beast_fmri_test/images/D.png'></img>	71,89	2750.0	test	<img class = center src='/static/experiments/beast_fmri_test/images/redD.png'></img>	stop	2250.0	3.0	6.0	stop	non-target	D	71,Green Button	89,Yellow Button	650.0	500.0	2100.0	2250.0	0.0	500.0	0.0	1.0	ITI
259426	500	n/a	-1	-1	500	0.0	fixation	poldrack-single-stim	704	1787649	0.0-27.7-0.7	beast_fmri_test	310	1787302,/	t	<div class = centerbox><div class = fixation>+</div></div>	none	500.0	test	n/a	n/a	n/a	n/a	n/a	n/a	n/a	n/a	n/a	n/a	n/a	n/a	n/a	n/a	n/a	n/a	n/a	n/a	fixation
259271.37364679994	450.0	n/a	-1	-1	2750	157.6263532	stim	stop-signal	705	1790402	0.0-27.7-1.7	beast_fmri_test	310	1787982,/,1788662,/,1789342,/,1790022,/	t,t,t,t	<img class = center src='/static/experiments/beast_fmri_test/images/B.png'></img>	71,89	2750.0	test	<img class = center src='/static/experiments/beast_fmri_test/images/redB.png'></img>	stop	2300.0	3.0	7.0	stop	non-target	B	71,Green Button	89,Yellow Button	650.0	450.0	2100.0	2300.0	0.0	450.0	1.0	0.0	go_stim
261571.37364679994	2300.0	n/a	-1	-1	2750	157.6263532	stim	stop-signal	705	1790402	0.0-27.7-1.7	beast_fmri_test	310	1787982,/,1788662,/,1789342,/,1790022,/	t,t,t,t	<img class = center src='/static/experiments/beast_fmri_test/images/B.png'></img>	71,89	2750.0	test	<img class = center src='/static/experiments/beast_fmri_test/images/redB.png'></img>	stop	2300.0	3.0	7.0	stop	non-target	B	71,Green Button	89,Yellow Button	650.0	450.0	2100.0	2300.0	0.0	450.0	1.0	0.0	stop_stim
262021.37364679994	157.62635319999998	n/a	-1	-1	2750	157.6263532	stim	stop-signal	705	1790402	0.0-27.7-1.7	beast_fmri_test	310	1787982,/,1788662,/,1789342,/,1790022,/	t,t,t,t	<img class = center src='/static/experiments/beast_fmri_test/images/B.png'></img>	71,89	2750.0	test	<img class = center src='/static/experiments/beast_fmri_test/images/redB.png'></img>	stop	2300.0	3.0	7.0	stop	non-target	B	71,Green Button	89,Yellow Button	650.0	450.0	2100.0	2300.0	0.0	450.0	1.0	0.0	ITI
262860	500	n/a	-1	-1	500	0.0	fixation	poldrack-single-stim	706	1791083	0.0-27.8-0.8	beast_fmri_test	310	1790703,/	t	<div class = centerbox><div class = fixation>+</div></div>	none	500.0	test	n/a	n/a	n/a	n/a	n/a	n/a	n/a	n/a	n/a	n/a	n/a	n/a	n/a	n/a	n/a	n/a	n/a	n/a	fixation
261838.11907100002	2750	n/a	852	89	2750	1024.880929	stim	stop-signal	707	1793836	0.0-27.8-1.8	beast_fmri_test	310	1791382,/,1792062,/,1792742,/,1793422,/,1794102,/,1794782,/	t,t,t,t,t,t	<img class = center src='/static/experiments/beast_fmri_test/images/T.png'></img>	71,89	2750.0	test	<img class = center src='/static/experiments/beast_fmri_test/images/redT.png'></img>	go	2250.0	3.0	8.0	go	non-target	T	71,Green Button	89,Yellow Button	650.0	500.0	2100.0	2250.0	1.0	500.0	n/a	1.0	go_stim
264588.11907100002	1024.8809289999999	n/a	852	89	2750	1024.880929	stim	stop-signal	707	1793836	0.0-27.8-1.8	beast_fmri_test	310	1791382,/,1792062,/,1792742,/,1793422,/,1794102,/,1794782,/	t,t,t,t,t,t	<img class = center src='/static/experiments/beast_fmri_test/images/T.png'></img>	71,89	2750.0	test	<img class = center src='/static/experiments/beast_fmri_test/images/redT.png'></img>	go	2250.0	3.0	8.0	go	non-target	T	71,Green Button	89,Yellow Button	650.0	500.0	2100.0	2250.0	1.0	500.0	n/a	1.0	ITI
267161	500	n/a	-1	-1	500	0.0	fixation	poldrack-single-stim	708	1795384	0.0-27.9-0.9	beast_fmri_test	310	n/a	n/a	<div class = centerbox><div class = fixation>+</div></div>	none	500.0	test	n/a	n/a	n/a	n/a	n/a	n/a	n/a	n/a	n/a	n/a	n/a	n/a	n/a	n/a	n/a	n/a	n/a	n/a	fixation
265223.80918899993	2750	n/a	1143	89	2750	1938.190811	stim	stop-signal	709	1798135	0.0-27.9-1.9	beast_fmri_test	310	1795462,/,1796141,/,1796822,/,1797502,/,1798182,/,1798862,/,1799541,/	t,t,t,t,t,t,t	<img class = center src='/static/experiments/beast_fmri_test/images/B.png'></img>	71,89	2750.0	test	<img class = center src='/static/experiments/beast_fmri_test/images/redB.png'></img>	go	2250.0	3.0	9.0	go	non-target	B	71,Green Button	89,Yellow Button	650.0	500.0	2100.0	2250.0	1.0	500.0	n/a	1.0	go_stim
267973.80918899993	1938.1908109999999	n/a	1143	89	2750	1938.190811	stim	stop-signal	709	1798135	0.0-27.9-1.9	beast_fmri_test	310	1795462,/,1796141,/,1796822,/,1797502,/,1798182,/,1798862,/,1799541,/	t,t,t,t,t,t,t	<img class = center src='/static/experiments/beast_fmri_test/images/B.png'></img>	71,89	2750.0	test	<img class = center src='/static/experiments/beast_fmri_test/images/redB.png'></img>	go	2250.0	3.0	9.0	go	non-target	B	71,Green Button	89,Yellow Button	650.0	500.0	2100.0	2250.0	1.0	500.0	n/a	1.0	ITI
272371	500	n/a	-1	-1	500	0.0	fixation	poldrack-single-stim	710	1800594	0.0-27.10-0.10	beast_fmri_test	310	1800222,/	t	<div class = centerbox><div class = fixation>+</div></div>	none	500.0	test	n/a	n/a	n/a	n/a	n/a	n/a	n/a	n/a	n/a	n/a	n/a	n/a	n/a	n/a	n/a	n/a	n/a	n/a	fixation
272325.82779466989	2750	n/a	757	89	2750	47.17220533	stim	stop-signal	711	1803346	0.0-27.10-1.10	beast_fmri_test	310	1800903,/,1801581,/,1802261,/,1802942,/	t,t,t,t	<img class = center src='/static/experiments/beast_fmri_test/images/P.png'></img>	71,89	2750.0	test	<img class = center src='/static/experiments/beast_fmri_test/images/redP.png'></img>	go	2250.0	3.0	10.0	go	non-target	P	71,Green Button	89,Yellow Button	650.0	500.0	2100.0	2250.0	1.0	500.0	n/a	1.0	go_stim
275075.82779466989	47.172205329999997	n/a	757	89	2750	47.17220533	stim	stop-signal	711	1803346	0.0-27.10-1.10	beast_fmri_test	310	1800903,/,1801581,/,1802261,/,1802942,/	t,t,t,t	<img class = center src='/static/experiments/beast_fmri_test/images/P.png'></img>	71,89	2750.0	test	<img class = center src='/static/experiments/beast_fmri_test/images/redP.png'></img>	go	2250.0	3.0	10.0	go	non-target	P	71,Green Button	89,Yellow Button	650.0	500.0	2100.0	2250.0	1.0	500.0	n/a	1.0	ITI
275696	500	n/a	-1	-1	500	0.0	fixation	poldrack-single-stim	712	1803919	0.0-27.11-0.11	beast_fmri_test	310	1803622,/	t	<div class = centerbox><div class = fixation>+</div></div>	none	500.0	test	n/a	n/a	n/a	n/a	n/a	n/a	n/a	n/a	n/a	n/a	n/a	n/a	n/a	n/a	n/a	n/a	n/a	n/a	fixation
274703.69541839999	2750	n/a	1122	89	2750	993.3045816	stim	stop-signal	713	1806670	0.0-27.11-1.11	beast_fmri_test	310	1804302,/,1804981,/,1805662,/,1806341,/,1807022,/	t,t,t,t,t	<img class = center src='/static/experiments/beast_fmri_test/images/B.png'></img>	71,89	2750.0	test	<img class = center src='/static/experiments/beast_fmri_test/images/redB.png'></img>	go	2250.0	3.0	11.0	go	non-target	B	71,Green Button	89,Yellow Button	650.0	500.0	2100.0	2250.0	1.0	500.0	n/a	1.0	go_stim
277453.69541839999	993.30458160000001	n/a	1122	89	2750	993.3045816	stim	stop-signal	713	1806670	0.0-27.11-1.11	beast_fmri_test	310	1804302,/,1804981,/,1805662,/,1806341,/,1807022,/	t,t,t,t,t	<img class = center src='/static/experiments/beast_fmri_test/images/B.png'></img>	71,89	2750.0	test	<img class = center src='/static/experiments/beast_fmri_test/images/redB.png'></img>	go	2250.0	3.0	11.0	go	non-target	B	71,Green Button	89,Yellow Button	650.0	500.0	2100.0	2250.0	1.0	500.0	n/a	1.0	ITI
279967	500	n/a	-1	-1	500	0.0	fixation	poldrack-single-stim	714	1808190	0.0-27.12-0.12	beast_fmri_test	310	1807701,/	t	<div class = centerbox><div class = fixation>+</div></div>	none	500.0	test	n/a	n/a	n/a	n/a	n/a	n/a	n/a	n/a	n/a	n/a	n/a	n/a	n/a	n/a	n/a	n/a	n/a	n/a	fixation
278944.550605	2750	n/a	715	89	2750	1024.449395	stim	stop-signal	715	1810942	0.0-27.12-1.12	beast_fmri_test	310	1808382,/,1809062,/,1809742,/,1810421,/,1811102,/,1811782,/	t,t,t,t,t,t	<img class = center src='/static/experiments/beast_fmri_test/images/T.png'></img>	71,89	2750.0	test	<img class = center src='/static/experiments/beast_fmri_test/images/redT.png'></img>	go	2250.0	3.0	12.0	go	non-target	T	71,Green Button	89,Yellow Button	650.0	500.0	2100.0	2250.0	1.0	500.0	n/a	1.0	go_stim
281694.550605	1024.4493949999999	n/a	715	89	2750	1024.449395	stim	stop-signal	715	1810942	0.0-27.12-1.12	beast_fmri_test	310	1808382,/,1809062,/,1809742,/,1810421,/,1811102,/,1811782,/	t,t,t,t,t,t	<img class = center src='/static/experiments/beast_fmri_test/images/T.png'></img>	71,89	2750.0	test	<img class = center src='/static/experiments/beast_fmri_test/images/redT.png'></img>	go	2250.0	3.0	12.0	go	non-target	T	71,Green Button	89,Yellow Button	650.0	500.0	2100.0	2250.0	1.0	500.0	n/a	1.0	ITI
284270	500	n/a	-1	-1	500	0.0	fixation	poldrack-single-stim	716	1812493	0.0-27.13-0.13	beast_fmri_test	310	1812462,/	t	<div class = centerbox><div class = fixation>+</div></div>	none	500.0	test	n/a	n/a	n/a	n/a	n/a	n/a	n/a	n/a	n/a	n/a	n/a	n/a	n/a	n/a	n/a	n/a	n/a	n/a	fixation
283922.76722960011	500.0	n/a	630	89	2750	350.2327704	stim	stop-signal	717	1815246	0.0-27.13-1.13	beast_fmri_test	310	1813141,/,1813821,/,1814501,/,1815182,/	t,t,t,t	<img class = center src='/static/experiments/beast_fmri_test/images/D.png'></img>	71,89	2750.0	test	<img class = center src='/static/experiments/beast_fmri_test/images/redD.png'></img>	stop	2250.0	3.0	13.0	stop	non-target	D	71,Green Button	89,Yellow Button	650.0	500.0	2100.0	2250.0	0.0	500.0	0.0	1.0	go_stim
286172.76722960011	2250.0	n/a	630	89	2750	350.2327704	stim	stop-signal	717	1815246	0.0-27.13-1.13	beast_fmri_test	310	1813141,/,1813821,/,1814501,/,1815182,/	t,t,t,t	<img class = center src='/static/experiments/beast_fmri_test/images/D.png'></img>	71,89	2750.0	test	<img class = center src='/static/experiments/beast_fmri_test/images/redD.png'></img>	stop	2250.0	3.0	13.0	stop	non-target	D	71,Green Button	89,Yellow Button	650.0	500.0	2100.0	2250.0	0.0	500.0	0.0	1.0	stop_stim
286672.76722960011	350.23277039999999	n/a	630	89	2750	350.2327704	stim	stop-signal	717	1815246	0.0-27.13-1.13	beast_fmri_test	310	1813141,/,1813821,/,1814501,/,1815182,/	t,t,t,t	<img class = center src='/static/experiments/beast_fmri_test/images/D.png'></img>	71,89	2750.0	test	<img class = center src='/static/experiments/beast_fmri_test/images/redD.png'></img>	stop	2250.0	3.0	13.0	stop	non-target	D	71,Green Button	89,Yellow Button	650.0	500.0	2100.0	2250.0	0.0	500.0	0.0	1.0	ITI
287901	500	n/a	-1	-1	500	0.0	fixation	poldrack-single-stim	718	1816124	0.0-27.14-0.14	beast_fmri_test	310	1815862,/	t	<div class = centerbox><div class = fixation>+</div></div>	none	500.0	test	n/a	n/a	n/a	n/a	n/a	n/a	n/a	n/a	n/a	n/a	n/a	n/a	n/a	n/a	n/a	n/a	n/a	n/a	fixation
287421.63018299988	2750	n/a	796	71	2750	482.369817	stim	stop-signal	719	1818877	0.0-27.14-1.14	beast_fmri_test	310	1816542,/,1817222,/,1817902,/,1818582,/,1819262,/	t,t,t,t,t	<img class = center src='/static/experiments/beast_fmri_test/images/B.png'></img>	71,89	2750.0	test	<img class = center src='/static/experiments/beast_fmri_test/images/redB.png'></img>	go	2100.0	3.0	14.0	go	target	B	71,Green Button	89,Yellow Button	650.0	450.0	2100.0	2250.0	1.0	650.0	n/a	1.0	go_stim
290171.63018299988	482.36981700000001	n/a	796	71	2750	482.369817	stim	stop-signal	719	1818877	0.0-27.14-1.14	beast_fmri_test	310	1816542,/,1817222,/,1817902,/,1818582,/,1819262,/	t,t,t,t,t	<img class = center src='/static/experiments/beast_fmri_test/images/B.png'></img>	71,89	2750.0	test	<img class = center src='/static/experiments/beast_fmri_test/images/redB.png'></img>	go	2100.0	3.0	14.0	go	target	B	71,Green Button	89,Yellow Button	650.0	450.0	2100.0	2250.0	1.0	650.0	n/a	1.0	ITI
291662	500	n/a	-1	-1	500	0.0	fixation	poldrack-single-stim	720	1819885	0.0-27.15-0.15	beast_fmri_test	310	n/a	n/a	<div class = centerbox><div class = fixation>+</div></div>	none	500.0	test	n/a	n/a	n/a	n/a	n/a	n/a	n/a	n/a	n/a	n/a	n/a	n/a	n/a	n/a	n/a	n/a	n/a	n/a	fixation
289631.86857699999	2750	n/a	1406	71	2750	2032.131423	stim	stop-signal	721	1822637	0.0-27.15-1.15	beast_fmri_test	310	1819942,/,1820622,/,1821302,/,1821982,/,1822662,/,1823342,/,1824022,/	t,t,t,t,t,t,t	<img class = center src='/static/experiments/beast_fmri_test/images/T.png'></img>	71,89	2750.0	test	<img class = center src='/static/experiments/beast_fmri_test/images/redT.png'></img>	go	2100.0	3.0	15.0	go	target	T	71,Green Button	89,Yellow Button	650.0	450.0	2100.0	2250.0	1.0	650.0	n/a	1.0	go_stim
292381.86857699999	2032.131423	n/a	1406	71	2750	2032.131423	stim	stop-signal	721	1822637	0.0-27.15-1.15	beast_fmri_test	310	1819942,/,1820622,/,1821302,/,1821982,/,1822662,/,1823342,/,1824022,/	t,t,t,t,t,t,t	<img class = center src='/static/experiments/beast_fmri_test/images/T.png'></img>	71,89	2750.0	test	<img class = center src='/static/experiments/beast_fmri_test/images/redT.png'></img>	go	2100.0	3.0	15.0	go	target	T	71,Green Button	89,Yellow Button	650.0	450.0	2100.0	2250.0	1.0	650.0	n/a	1.0	ITI
296975	500	n/a	-1	-1	500	0.0	fixation	poldrack-single-stim	722	1825198	0.0-27.16-0.16	beast_fmri_test	310	1824702,/	t	<div class = centerbox><div class = fixation>+</div></div>	none	500.0	test	n/a	n/a	n/a	n/a	n/a	n/a	n/a	n/a	n/a	n/a	n/a	n/a	n/a	n/a	n/a	n/a	n/a	n/a	fixation
296523.2129838001	2750	n/a	714	89	2750	453.7870162	stim	stop-signal	723	1827950	0.0-27.16-1.16	beast_fmri_test	310	1825382,/,1826062,/,1826742,/,1827422,/,1828102,/	t,t,t,t,t	<img class = center src='/static/experiments/beast_fmri_test/images/V.png'></img>	71,89	2750.0	test	<img class = center src='/static/experiments/beast_fmri_test/images/redV.png'></img>	go	2300.0	3.0	16.0	go	non-target	V	71,Green Button	89,Yellow Button	650.0	450.0	2100.0	2300.0	1.0	450.0	n/a	1.0	go_stim
299273.2129838001	453.78701619999998	n/a	714	89	2750	453.7870162	stim	stop-signal	723	1827950	0.0-27.16-1.16	beast_fmri_test	310	1825382,/,1826062,/,1826742,/,1827422,/,1828102,/	t,t,t,t,t	<img class = center src='/static/experiments/beast_fmri_test/images/V.png'></img>	71,89	2750.0	test	<img class = center src='/static/experiments/beast_fmri_test/images/redV.png'></img>	go	2300.0	3.0	16.0	go	non-target	V	71,Green Button	89,Yellow Button	650.0	450.0	2100.0	2300.0	1.0	450.0	n/a	1.0	ITI
300710	500	n/a	-1	-1	500	0.0	fixation	poldrack-single-stim	724	1828933	0.0-27.17-0.17	beast_fmri_test	310	1828782,/	t	<div class = centerbox><div class = fixation>+</div></div>	none	500.0	test	n/a	n/a	n/a	n/a	n/a	n/a	n/a	n/a	n/a	n/a	n/a	n/a	n/a	n/a	n/a	n/a	n/a	n/a	fixation
299761.27941780002	2750	n/a	896	89	2750	950.7205822	stim	stop-signal	725	1831685	0.0-27.17-1.17	beast_fmri_test	310	1829462,/,1830142,/,1830822,/,1831503,/,1832182,/	t,t,t,t,t	<img class = center src='/static/experiments/beast_fmri_test/images/D.png'></img>	71,89	2750.0	test	<img class = center src='/static/experiments/beast_fmri_test/images/redD.png'></img>	go	2300.0	3.0	17.0	go	non-target	D	71,Green Button	89,Yellow Button	650.0	450.0	2100.0	2300.0	1.0	450.0	n/a	1.0	go_stim
302511.27941780002	950.72058220000008	n/a	896	89	2750	950.7205822	stim	stop-signal	725	1831685	0.0-27.17-1.17	beast_fmri_test	310	1829462,/,1830142,/,1830822,/,1831503,/,1832182,/	t,t,t,t,t	<img class = center src='/static/experiments/beast_fmri_test/images/D.png'></img>	71,89	2750.0	test	<img class = center src='/static/experiments/beast_fmri_test/images/redD.png'></img>	go	2300.0	3.0	17.0	go	non-target	D	71,Green Button	89,Yellow Button	650.0	450.0	2100.0	2300.0	1.0	450.0	n/a	1.0	ITI
304938	500	n/a	-1	-1	500	0.0	fixation	poldrack-single-stim	726	1833161	0.0-27.18-0.18	beast_fmri_test	310	1832862,/	t	<div class = centerbox><div class = fixation>+</div></div>	none	500.0	test	n/a	n/a	n/a	n/a	n/a	n/a	n/a	n/a	n/a	n/a	n/a	n/a	n/a	n/a	n/a	n/a	n/a	n/a	fixation
304523.97147149988	2750	n/a	670	71	2750	415.0285285	stim	stop-signal	727	1835912	0.0-27.18-1.18	beast_fmri_test	310	1833542,/,1834222,/,1834901,/,1835582,/,1836261,/	t,t,t,t,t	<img class = center src='/static/experiments/beast_fmri_test/images/T.png'></img>	71,89	2750.0	test	<img class = center src='/static/experiments/beast_fmri_test/images/redT.png'></img>	go	2100.0	3.0	18.0	go	target	T	71,Green Button	89,Yellow Button	650.0	450.0	2100.0	2300.0	1.0	650.0	n/a	1.0	go_stim
307273.97147149988	415.02852849999999	n/a	670	71	2750	415.0285285	stim	stop-signal	727	1835912	0.0-27.18-1.18	beast_fmri_test	310	1833542,/,1834222,/,1834901,/,1835582,/,1836261,/	t,t,t,t,t	<img class = center src='/static/experiments/beast_fmri_test/images/T.png'></img>	71,89	2750.0	test	<img class = center src='/static/experiments/beast_fmri_test/images/redT.png'></img>	go	2100.0	3.0	18.0	go	target	T	71,Green Button	89,Yellow Button	650.0	450.0	2100.0	2300.0	1.0	650.0	n/a	1.0	ITI
308628	500	n/a	-1	-1	500	0.0	fixation	poldrack-single-stim	728	1836851	0.0-27.19-0.19	beast_fmri_test	310	n/a	n/a	<div class = centerbox><div class = fixation>+</div></div>	none	500.0	test	n/a	n/a	n/a	n/a	n/a	n/a	n/a	n/a	n/a	n/a	n/a	n/a	n/a	n/a	n/a	n/a	n/a	n/a	fixation
308627.32685767091	2750	n/a	792	89	2750	2.673142329	stim	stop-signal	729	1839603	0.0-27.19-1.19	beast_fmri_test	310	1836942,/,1837622,/,1838302,/,1838982,/	t,t,t,t	<img class = center src='/static/experiments/beast_fmri_test/images/T.png'></img>	71,89	2750.0	test	<img class = center src='/static/experiments/beast_fmri_test/images/redT.png'></img>	go	2300.0	3.0	19.0	go	non-target	T	71,Green Button	89,Yellow Button	650.0	450.0	2100.0	2300.0	1.0	450.0	n/a	1.0	go_stim
311377.32685767091	2.673142329	n/a	792	89	2750	2.673142329	stim	stop-signal	729	1839603	0.0-27.19-1.19	beast_fmri_test	310	1836942,/,1837622,/,1838302,/,1838982,/	t,t,t,t	<img class = center src='/static/experiments/beast_fmri_test/images/T.png'></img>	71,89	2750.0	test	<img class = center src='/static/experiments/beast_fmri_test/images/redT.png'></img>	go	2300.0	3.0	19.0	go	non-target	T	71,Green Button	89,Yellow Button	650.0	450.0	2100.0	2300.0	1.0	450.0	n/a	1.0	ITI
311905	500	n/a	-1	-1	500	0.0	fixation	poldrack-single-stim	730	1840128	0.0-27.20-0.20	beast_fmri_test	310	1839662,/	t	<div class = centerbox><div class = fixation>+</div></div>	none	500.0	test	n/a	n/a	n/a	n/a	n/a	n/a	n/a	n/a	n/a	n/a	n/a	n/a	n/a	n/a	n/a	n/a	n/a	n/a	fixation
309588.63566999999	2750	n/a	607	71	2750	2317.36433	stim	stop-signal	731	1842879	0.0-27.20-1.20	beast_fmri_test	310	1840341,/,1841022,/,1841702,/,1842382,/,1843061,/,1843741,/,1844421,/,1845101,/	t,t,t,t,t,t,t,t	<img class = center src='/static/experiments/beast_fmri_test/images/D.png'></img>	71,89	2750.0	test	<img class = center src='/static/experiments/beast_fmri_test/images/redD.png'></img>	go	2100.0	3.0	20.0	go	target	D	71,Green Button	89,Yellow Button	650.0	450.0	2100.0	2300.0	1.0	650.0	n/a	1.0	go_stim
312338.63566999999	2317.3643299999999	n/a	607	71	2750	2317.36433	stim	stop-signal	731	1842879	0.0-27.20-1.20	beast_fmri_test	310	1840341,/,1841022,/,1841702,/,1842382,/,1843061,/,1843741,/,1844421,/,1845101,/	t,t,t,t,t,t,t,t	<img class = center src='/static/experiments/beast_fmri_test/images/D.png'></img>	71,89	2750.0	test	<img class = center src='/static/experiments/beast_fmri_test/images/redD.png'></img>	go	2100.0	3.0	20.0	go	target	D	71,Green Button	89,Yellow Button	650.0	450.0	2100.0	2300.0	1.0	650.0	n/a	1.0	ITI
317500	500	n/a	-1	-1	500	0.0	fixation	poldrack-single-stim	732	1845723	0.0-27.21-0.21	beast_fmri_test	310	n/a	n/a	<div class = centerbox><div class = fixation>+</div></div>	none	500.0	test	n/a	n/a	n/a	n/a	n/a	n/a	n/a	n/a	n/a	n/a	n/a	n/a	n/a	n/a	n/a	n/a	n/a	n/a	fixation
316325.69640600006	2750	n/a	1026	89	2750	1176.303594	stim	stop-signal	733	1848475	0.0-27.21-1.21	beast_fmri_test	310	1845781,/,1846461,/,1847141,/,1847821,/,1848502,/,1849182,/	t,t,t,t,t,t	<img class = center src='/static/experiments/beast_fmri_test/images/D.png'></img>	71,89	2750.0	test	<img class = center src='/static/experiments/beast_fmri_test/images/redD.png'></img>	go	2300.0	3.0	21.0	go	non-target	D	71,Green Button	89,Yellow Button	650.0	450.0	2100.0	2300.0	1.0	450.0	n/a	1.0	go_stim
319075.69640600006	1176.303594	n/a	1026	89	2750	1176.303594	stim	stop-signal	733	1848475	0.0-27.21-1.21	beast_fmri_test	310	1845781,/,1846461,/,1847141,/,1847821,/,1848502,/,1849182,/	t,t,t,t,t,t	<img class = center src='/static/experiments/beast_fmri_test/images/D.png'></img>	71,89	2750.0	test	<img class = center src='/static/experiments/beast_fmri_test/images/redD.png'></img>	go	2300.0	3.0	21.0	go	non-target	D	71,Green Button	89,Yellow Button	650.0	450.0	2100.0	2300.0	1.0	450.0	n/a	1.0	ITI
321957	500	n/a	-1	-1	500	0.0	fixation	poldrack-single-stim	734	1850180	0.0-27.22-0.22	beast_fmri_test	310	1849862,/	t	<div class = centerbox><div class = fixation>+</div></div>	none	500.0	test	n/a	n/a	n/a	n/a	n/a	n/a	n/a	n/a	n/a	n/a	n/a	n/a	n/a	n/a	n/a	n/a	n/a	n/a	fixation
319966.91457700008	2750	n/a	629	89	2750	1992.085423	stim	stop-signal	735	1852932	0.0-27.22-1.22	beast_fmri_test	310	1850542,/,1851222,/,1851903,/,1852582,/,1853262,/,1853942,/,1854622,/	t,t,t,t,t,t,t	<img class = center src='/static/experiments/beast_fmri_test/images/D.png'></img>	71,89	2750.0	test	<img class = center src='/static/experiments/beast_fmri_test/images/redD.png'></img>	go	2300.0	3.0	22.0	go	non-target	D	71,Green Button	89,Yellow Button	650.0	450.0	2100.0	2300.0	1.0	450.0	n/a	1.0	go_stim
