onset	duration	text	rt	key_press	block_duration	timing_post_trial	trial_id	trial_type	trial_index	time_elapsed	internal_node_id	exp_id	subject_id	trigger_times	triggers	stimulus	possible_responses	stim_duration	exp_stage	SS_stimulus	SS_trial_type	SS_duration	load	trial_num	stop_trial_type	adaptive_trial_type	stim	yes_response_key	no_response_key	SSD_target	SSD_non_target	SSTarget	SSNonTarget	go_acc	SS_delay	adaptive_acc	stop_acc	new_trial_type
test	10880.0	n/a	-1	-1	10880	0.0	practice-no-stop-feedback	poldrack-single-stim	382	974181	0.0-16.0	beast_fmri_test	290	16.055016666666667,16.066333333333333,16.077666666666666,16.089,16.10033333333333,16.111666666666668,16.123,16.134333333333334,16.145666666666667,16.157,16.168333333333333,16.1797,16.191,16.202333333333332,16.213666666666665,16.225,16.236333333333334	t,t,t,t,t,t,t,t,t,t,t,t,t,t,t,t,t	"<div class = ""centerbox""><p class = ""center-block-text"">Your delay is 1 trials.</p><p class = center-block-text>Please wait for the scanner to start the block</p></div>"	77	10880.0	n/a	n/a	n/a	n/a	n/a	n/a	n/a	n/a	n/a	n/a	n/a	n/a	n/a	n/a	n/a	n/a	n/a	n/a	n/a	start_functional_block
11383.0	500.0	n/a	-1	-1	500	0.0	fixation	poldrack-single-stim	383	974684	0.0-17.0-0.0	beast_fmri_test	290	n/a	n/a	<div class = centerbox><div class = fixation>+</div></div>	none	500.0	test	n/a	n/a	n/a	n/a	n/a	n/a	n/a	n/a	n/a	n/a	n/a	n/a	n/a	n/a	n/a	n/a	n/a	n/a	fixation
9376.1724611896789	2750.0	n/a	-1	-1	2750	2007.82753881	stim	stop-signal	384	977435	0.0-17.0-1.0	beast_fmri_test	290	16.247666666666667,16.259,16.270333333333333,16.281666666666666,16.293,16.304333333333332,16.315666666666665	t,t,t,t,t,t,t	<img class = center src='/static/experiments/beast_fmri_test/images/B.png'></img>	71,89	2750.0	test	<img class = center src='/static/experiments/beast_fmri_test/images/redB.png'></img>	go	-1.0	1.0	0.0	go	temp-non-target	B	71,Green Button	89,Yellow Button	1500.0	1500.0	1250.0	1250.0	0.0	n/a	n/a	n/a	go_stim
12126.172461189679	2007.82753881	n/a	-1	-1	2750	2007.82753881	stim	stop-signal	384	977435	0.0-17.0-1.0	beast_fmri_test	290	16.247666666666667,16.259,16.270333333333333,16.281666666666666,16.293,16.304333333333332,16.315666666666665	t,t,t,t,t,t,t	<img class = center src='/static/experiments/beast_fmri_test/images/B.png'></img>	71,89	2750.0	test	<img class = center src='/static/experiments/beast_fmri_test/images/redB.png'></img>	go	-1.0	1.0	0.0	go	temp-non-target	B	71,Green Button	89,Yellow Button	1500.0	1500.0	1250.0	1250.0	0.0	n/a	n/a	n/a	ITI
16657.0	500.0	n/a	-1	-1	500	0.0	fixation	poldrack-single-stim	385	979958	0.0-17.1-0.1	beast_fmri_test	290	16.327	t	<div class = centerbox><div class = fixation>+</div></div>	none	500.0	test	n/a	n/a	n/a	n/a	n/a	n/a	n/a	n/a	n/a	n/a	n/a	n/a	n/a	n/a	n/a	n/a	n/a	n/a	fixation
12844.943224763381	2750.0	n/a	-1	-1	2750	3815.05677524	stim	stop-signal	386	982711	0.0-17.1-1.1	beast_fmri_test	290	16.338333333333335,16.349683333333335,16.361,16.372333333333334,16.383666666666667,16.395,16.406333333333333,16.417666666666666,16.429,16.440333333333335	t,t,t,t,t,t,t,t,t,t	<img class = center src='/static/experiments/beast_fmri_test/images/B.png'></img>	71,89	2750.0	test	<img class = center src='/static/experiments/beast_fmri_test/images/redB.png'></img>	go	1250.0	1.0	1.0	go	target	B	71,Green Button	89,Yellow Button	1500.0	1500.0	1250.0	1250.0	0.0	1500.0	0.0	n/a	go_stim
15594.943224763381	3815.05677524	n/a	-1	-1	2750	3815.05677524	stim	stop-signal	386	982711	0.0-17.1-1.1	beast_fmri_test	290	16.338333333333335,16.349683333333335,16.361,16.372333333333334,16.383666666666667,16.395,16.406333333333333,16.417666666666666,16.429,16.440333333333335	t,t,t,t,t,t,t,t,t,t	<img class = center src='/static/experiments/beast_fmri_test/images/B.png'></img>	71,89	2750.0	test	<img class = center src='/static/experiments/beast_fmri_test/images/redB.png'></img>	go	1250.0	1.0	1.0	go	target	B	71,Green Button	89,Yellow Button	1500.0	1500.0	1250.0	1250.0	0.0	1500.0	0.0	n/a	ITI
23743.0	500.0	n/a	-1	-1	500	0.0	fixation	poldrack-single-stim	387	987044	0.0-17.2-0.2	beast_fmri_test	290	n/a	n/a	<div class = centerbox><div class = fixation>+</div></div>	none	500.0	test	n/a	n/a	n/a	n/a	n/a	n/a	n/a	n/a	n/a	n/a	n/a	n/a	n/a	n/a	n/a	n/a	n/a	n/a	fixation
22752.63993326691	2750.0	n/a	-1	-1	2750	992.360066733	stim	stop-signal	388	989796	0.0-17.2-1.2	beast_fmri_test	290	16.451666666666668,16.463,16.474333333333334,16.485666666666667,16.496983333333333,16.508333333333333	t,t,t,t,t,t	<img class = center src='/static/experiments/beast_fmri_test/images/B.png'></img>	71,89	2750.0	test	<img class = center src='/static/experiments/beast_fmri_test/images/redB.png'></img>	go	1250.0	1.0	2.0	go	target	B	71,Green Button	89,Yellow Button	1500.0	1500.0	1250.0	1250.0	0.0	1500.0	0.0	n/a	go_stim
25502.63993326691	992.360066733	n/a	-1	-1	2750	992.360066733	stim	stop-signal	388	989796	0.0-17.2-1.2	beast_fmri_test	290	16.451666666666668,16.463,16.474333333333334,16.485666666666667,16.496983333333333,16.508333333333333	t,t,t,t,t,t	<img class = center src='/static/experiments/beast_fmri_test/images/B.png'></img>	71,89	2750.0	test	<img class = center src='/static/experiments/beast_fmri_test/images/redB.png'></img>	go	1250.0	1.0	2.0	go	target	B	71,Green Button	89,Yellow Button	1500.0	1500.0	1250.0	1250.0	0.0	1500.0	0.0	n/a	ITI
28005.0	500.0	n/a	-1	-1	500	0.0	fixation	poldrack-single-stim	389	991306	0.0-17.3-0.3	beast_fmri_test	290	16.5197	t	<div class = centerbox><div class = fixation>+</div></div>	none	500.0	test	n/a	n/a	n/a	n/a	n/a	n/a	n/a	n/a	n/a	n/a	n/a	n/a	n/a	n/a	n/a	n/a	n/a	n/a	fixation
27215.425150535419	2750.0	n/a	-1	-1	2750	791.574849465	stim	stop-signal	390	994058	0.0-17.3-1.3	beast_fmri_test	290	16.531,16.54235,16.553683333333332,16.565016666666665,16.576333333333334	t,t,t,t,t	<img class = center src='/static/experiments/beast_fmri_test/images/T.png'></img>	71,89	2750.0	test	<img class = center src='/static/experiments/beast_fmri_test/images/redT.png'></img>	go	1250.0	1.0	3.0	go	non-target	T	71,Green Button	89,Yellow Button	1500.0	1500.0	1250.0	1250.0	0.0	1500.0	0.0	n/a	go_stim
29965.425150535419	791.574849465	n/a	-1	-1	2750	791.574849465	stim	stop-signal	390	994058	0.0-17.3-1.3	beast_fmri_test	290	16.531,16.54235,16.553683333333332,16.565016666666665,16.576333333333334	t,t,t,t,t	<img class = center src='/static/experiments/beast_fmri_test/images/T.png'></img>	71,89	2750.0	test	<img class = center src='/static/experiments/beast_fmri_test/images/redT.png'></img>	go	1250.0	1.0	3.0	go	non-target	T	71,Green Button	89,Yellow Button	1500.0	1500.0	1250.0	1250.0	0.0	1500.0	0.0	n/a	ITI
32064.0	500.0	n/a	-1	-1	500	0.0	fixation	poldrack-single-stim	391	995365	0.0-17.4-0.4	beast_fmri_test	290	16.5876833333333	t	<div class = centerbox><div class = fixation>+</div></div>	none	500.0	test	n/a	n/a	n/a	n/a	n/a	n/a	n/a	n/a	n/a	n/a	n/a	n/a	n/a	n/a	n/a	n/a	n/a	n/a	fixation
31619.946395524894	2750.0	n/a	-1	-1	2750	446.053604475	stim	stop-signal	392	998117	0.0-17.4-1.4	beast_fmri_test	290	16.599016666666667,16.61035,16.621683333333333,16.633016666666666	t,t,t,t	<img class = center src='/static/experiments/beast_fmri_test/images/D.png'></img>	71,89	2750.0	test	<img class = center src='/static/experiments/beast_fmri_test/images/redD.png'></img>	go	1250.0	1.0	4.0	go	non-target	D	71,Green Button	89,Yellow Button	1500.0	1500.0	1250.0	1250.0	0.0	1500.0	0.0	n/a	go_stim
34369.946395524894	446.053604475	n/a	-1	-1	2750	446.053604475	stim	stop-signal	392	998117	0.0-17.4-1.4	beast_fmri_test	290	16.599016666666667,16.61035,16.621683333333333,16.633016666666666	t,t,t,t	<img class = center src='/static/experiments/beast_fmri_test/images/D.png'></img>	71,89	2750.0	test	<img class = center src='/static/experiments/beast_fmri_test/images/redD.png'></img>	go	1250.0	1.0	4.0	go	non-target	D	71,Green Button	89,Yellow Button	1500.0	1500.0	1250.0	1250.0	0.0	1500.0	0.0	n/a	ITI
35779.0	500.0	n/a	-1	-1	500	0.0	fixation	poldrack-single-stim	393	999080	0.0-17.5-0.5	beast_fmri_test	290	16.6443333333333	t	<div class = centerbox><div class = fixation>+</div></div>	none	500.0	test	n/a	n/a	n/a	n/a	n/a	n/a	n/a	n/a	n/a	n/a	n/a	n/a	n/a	n/a	n/a	n/a	n/a	n/a	fixation
33670.172221800662	1500.0	n/a	-1	-1	2750	2110.8277782	stim	stop-signal	394	1001832	0.0-17.5-1.5	beast_fmri_test	290	16.655683333333332,16.667,16.67835,16.6897,16.701,16.712333333333333,16.723683333333334	t,t,t,t,t,t,t	<img class = center src='/static/experiments/beast_fmri_test/images/D.png'></img>	71,89	2750.0	test	<img class = center src='/static/experiments/beast_fmri_test/images/redD.png'></img>	stop	1250.0	1.0	5.0	stop	target	D	71,Green Button	89,Yellow Button	1500.0	1500.0	1250.0	1250.0	0.0	1500.0	0.0	1.0	go_stim
34920.172221800662	1250.0	n/a	-1	-1	2750	2110.8277782	stim	stop-signal	394	1001832	0.0-17.5-1.5	beast_fmri_test	290	16.655683333333332,16.667,16.67835,16.6897,16.701,16.712333333333333,16.723683333333334	t,t,t,t,t,t,t	<img class = center src='/static/experiments/beast_fmri_test/images/D.png'></img>	71,89	2750.0	test	<img class = center src='/static/experiments/beast_fmri_test/images/redD.png'></img>	stop	1250.0	1.0	5.0	stop	target	D	71,Green Button	89,Yellow Button	1500.0	1500.0	1250.0	1250.0	0.0	1500.0	0.0	1.0	stop_stim
36420.172221800662	2110.8277782	n/a	-1	-1	2750	2110.8277782	stim	stop-signal	394	1001832	0.0-17.5-1.5	beast_fmri_test	290	16.655683333333332,16.667,16.67835,16.6897,16.701,16.712333333333333,16.723683333333334	t,t,t,t,t,t,t	<img class = center src='/static/experiments/beast_fmri_test/images/D.png'></img>	71,89	2750.0	test	<img class = center src='/static/experiments/beast_fmri_test/images/redD.png'></img>	stop	1250.0	1.0	5.0	stop	target	D	71,Green Button	89,Yellow Button	1500.0	1500.0	1250.0	1250.0	0.0	1500.0	0.0	1.0	ITI
41159.0	500.0	n/a	-1	-1	500	0.0	fixation	poldrack-single-stim	395	1004460	0.0-17.6-0.6	beast_fmri_test	290	16.7350166666666	t	<div class = centerbox><div class = fixation>+</div></div>	none	500.0	test	n/a	n/a	n/a	n/a	n/a	n/a	n/a	n/a	n/a	n/a	n/a	n/a	n/a	n/a	n/a	n/a	n/a	n/a	fixation
40781.91936559719	1500.0	n/a	-1	-1	2750	379.080634403	stim	stop-signal	396	1007212	0.0-17.6-1.6	beast_fmri_test	290	16.74635,16.757683333333333,16.769016666666666,16.780333333333335,16.791666666666668	t,t,t,t,t	<img class = center src='/static/experiments/beast_fmri_test/images/D.png'></img>	71,89	2750.0	test	<img class = center src='/static/experiments/beast_fmri_test/images/redD.png'></img>	stop	1250.0	1.0	6.0	stop	target	D	71,Green Button	89,Yellow Button	1500.0	1500.0	1250.0	1250.0	0.0	1500.0	0.0	1.0	go_stim
42031.91936559719	1250.0	n/a	-1	-1	2750	379.080634403	stim	stop-signal	396	1007212	0.0-17.6-1.6	beast_fmri_test	290	16.74635,16.757683333333333,16.769016666666666,16.780333333333335,16.791666666666668	t,t,t,t,t	<img class = center src='/static/experiments/beast_fmri_test/images/D.png'></img>	71,89	2750.0	test	<img class = center src='/static/experiments/beast_fmri_test/images/redD.png'></img>	stop	1250.0	1.0	6.0	stop	target	D	71,Green Button	89,Yellow Button	1500.0	1500.0	1250.0	1250.0	0.0	1500.0	0.0	1.0	stop_stim
43531.91936559719	379.080634403	n/a	-1	-1	2750	379.080634403	stim	stop-signal	396	1007212	0.0-17.6-1.6	beast_fmri_test	290	16.74635,16.757683333333333,16.769016666666666,16.780333333333335,16.791666666666668	t,t,t,t,t	<img class = center src='/static/experiments/beast_fmri_test/images/D.png'></img>	71,89	2750.0	test	<img class = center src='/static/experiments/beast_fmri_test/images/redD.png'></img>	stop	1250.0	1.0	6.0	stop	target	D	71,Green Button	89,Yellow Button	1500.0	1500.0	1250.0	1250.0	0.0	1500.0	0.0	1.0	ITI
44807.0	500.0	n/a	-1	-1	500	0.0	fixation	poldrack-single-stim	397	1008108	0.0-17.7-0.7	beast_fmri_test	290	n/a	n/a	<div class = centerbox><div class = fixation>+</div></div>	none	500.0	test	n/a	n/a	n/a	n/a	n/a	n/a	n/a	n/a	n/a	n/a	n/a	n/a	n/a	n/a	n/a	n/a	n/a	n/a	fixation
44130.99842500512	2750.0	n/a	-1	-1	2750	678.001574995	stim	stop-signal	398	1010860	0.0-17.7-1.7	beast_fmri_test	290	16.803,16.814333333333334,16.825666666666667,16.837016666666667,16.848333333333333	t,t,t,t,t	<img class = center src='/static/experiments/beast_fmri_test/images/B.png'></img>	71,89	2750.0	test	<img class = center src='/static/experiments/beast_fmri_test/images/redB.png'></img>	go	1250.0	1.0	7.0	go	non-target	B	71,Green Button	89,Yellow Button	1500.0	1500.0	1250.0	1250.0	0.0	1500.0	0.0	n/a	go_stim
46880.99842500512	678.001574995	n/a	-1	-1	2750	678.001574995	stim	stop-signal	398	1010860	0.0-17.7-1.7	beast_fmri_test	290	16.803,16.814333333333334,16.825666666666667,16.837016666666667,16.848333333333333	t,t,t,t,t	<img class = center src='/static/experiments/beast_fmri_test/images/B.png'></img>	71,89	2750.0	test	<img class = center src='/static/experiments/beast_fmri_test/images/redB.png'></img>	go	1250.0	1.0	7.0	go	non-target	B	71,Green Button	89,Yellow Button	1500.0	1500.0	1250.0	1250.0	0.0	1500.0	0.0	n/a	ITI
48754.0	500.0	n/a	-1	-1	500	0.0	fixation	poldrack-single-stim	399	1012055	0.0-17.8-0.8	beast_fmri_test	290	16.8597	t	<div class = centerbox><div class = fixation>+</div></div>	none	500.0	test	n/a	n/a	n/a	n/a	n/a	n/a	n/a	n/a	n/a	n/a	n/a	n/a	n/a	n/a	n/a	n/a	n/a	n/a	fixation
47553.290872037527	2750.0	n/a	-1	-1	2750	1202.70912796	stim	stop-signal	400	1014807	0.0-17.8-1.8	beast_fmri_test	290	16.871,16.88233333333333,16.893666666666668,16.905,16.916333333333334,16.927666666666667	t,t,t,t,t,t	<img class = center src='/static/experiments/beast_fmri_test/images/D.png'></img>	71,89	2750.0	test	<img class = center src='/static/experiments/beast_fmri_test/images/redD.png'></img>	go	1250.0	1.0	8.0	go	non-target	D	71,Green Button	89,Yellow Button	1500.0	1500.0	1250.0	1250.0	0.0	1500.0	0.0	n/a	go_stim
50303.290872037527	1202.70912796	n/a	-1	-1	2750	1202.70912796	stim	stop-signal	400	1014807	0.0-17.8-1.8	beast_fmri_test	290	16.871,16.88233333333333,16.893666666666668,16.905,16.916333333333334,16.927666666666667	t,t,t,t,t,t	<img class = center src='/static/experiments/beast_fmri_test/images/D.png'></img>	71,89	2750.0	test	<img class = center src='/static/experiments/beast_fmri_test/images/redD.png'></img>	go	1250.0	1.0	8.0	go	non-target	D	71,Green Button	89,Yellow Button	1500.0	1500.0	1250.0	1250.0	0.0	1500.0	0.0	n/a	ITI
53227.0	500.0	n/a	-1	-1	500	0.0	fixation	poldrack-single-stim	401	1016528	0.0-17.9-0.9	beast_fmri_test	290	16.939	t	<div class = centerbox><div class = fixation>+</div></div>	none	500.0	test	n/a	n/a	n/a	n/a	n/a	n/a	n/a	n/a	n/a	n/a	n/a	n/a	n/a	n/a	n/a	n/a	n/a	n/a	fixation
51096.170803294634	1500.0	n/a	-1	-1	2750	2132.82919671	stim	stop-signal	402	1019280	0.0-17.9-1.9	beast_fmri_test	290	16.950333333333333,16.961666666666666,16.973,16.984333333333332,16.995666666666665,17.007,17.018333333333334	t,t,t,t,t,t,t	<img class = center src='/static/experiments/beast_fmri_test/images/B.png'></img>	71,89	2750.0	test	<img class = center src='/static/experiments/beast_fmri_test/images/redB.png'></img>	stop	1250.0	1.0	9.0	stop	non-target	B	71,Green Button	89,Yellow Button	1500.0	1500.0	1250.0	1250.0	0.0	1500.0	0.0	1.0	go_stim
52346.170803294634	1250.0	n/a	-1	-1	2750	2132.82919671	stim	stop-signal	402	1019280	0.0-17.9-1.9	beast_fmri_test	290	16.950333333333333,16.961666666666666,16.973,16.984333333333332,16.995666666666665,17.007,17.018333333333334	t,t,t,t,t,t,t	<img class = center src='/static/experiments/beast_fmri_test/images/B.png'></img>	71,89	2750.0	test	<img class = center src='/static/experiments/beast_fmri_test/images/redB.png'></img>	stop	1250.0	1.0	9.0	stop	non-target	B	71,Green Button	89,Yellow Button	1500.0	1500.0	1250.0	1250.0	0.0	1500.0	0.0	1.0	stop_stim
53846.170803294634	2132.82919671	n/a	-1	-1	2750	2132.82919671	stim	stop-signal	402	1019280	0.0-17.9-1.9	beast_fmri_test	290	16.950333333333333,16.961666666666666,16.973,16.984333333333332,16.995666666666665,17.007,17.018333333333334	t,t,t,t,t,t,t	<img class = center src='/static/experiments/beast_fmri_test/images/B.png'></img>	71,89	2750.0	test	<img class = center src='/static/experiments/beast_fmri_test/images/redB.png'></img>	stop	1250.0	1.0	9.0	stop	non-target	B	71,Green Button	89,Yellow Button	1500.0	1500.0	1250.0	1250.0	0.0	1500.0	0.0	1.0	ITI
58628.0	500.0	n/a	-1	-1	500	0.0	fixation	poldrack-single-stim	403	1021929	0.0-17.10-0.10	beast_fmri_test	290	17.0296833333333	t	<div class = centerbox><div class = fixation>+</div></div>	none	500.0	test	n/a	n/a	n/a	n/a	n/a	n/a	n/a	n/a	n/a	n/a	n/a	n/a	n/a	n/a	n/a	n/a	n/a	n/a	fixation
57424.45342832664	1500.0	n/a	-1	-1	2750	1205.54657167	stim	stop-signal	404	1024681	0.0-17.10-1.10	beast_fmri_test	290	17.041,17.052333333333333,17.063666666666666,17.075016666666667,17.086333333333332,17.097683333333332	t,t,t,t,t,t	<img class = center src='/static/experiments/beast_fmri_test/images/B.png'></img>	71,89	2750.0	test	<img class = center src='/static/experiments/beast_fmri_test/images/redB.png'></img>	stop	1250.0	1.0	10.0	stop	target	B	71,Green Button	89,Yellow Button	1500.0	1500.0	1250.0	1250.0	0.0	1500.0	0.0	1.0	go_stim
58674.45342832664	1250.0	n/a	-1	-1	2750	1205.54657167	stim	stop-signal	404	1024681	0.0-17.10-1.10	beast_fmri_test	290	17.041,17.052333333333333,17.063666666666666,17.075016666666667,17.086333333333332,17.097683333333332	t,t,t,t,t,t	<img class = center src='/static/experiments/beast_fmri_test/images/B.png'></img>	71,89	2750.0	test	<img class = center src='/static/experiments/beast_fmri_test/images/redB.png'></img>	stop	1250.0	1.0	10.0	stop	target	B	71,Green Button	89,Yellow Button	1500.0	1500.0	1250.0	1250.0	0.0	1500.0	0.0	1.0	stop_stim
60174.45342832664	1205.54657167	n/a	-1	-1	2750	1205.54657167	stim	stop-signal	404	1024681	0.0-17.10-1.10	beast_fmri_test	290	17.041,17.052333333333333,17.063666666666666,17.075016666666667,17.086333333333332,17.097683333333332	t,t,t,t,t,t	<img class = center src='/static/experiments/beast_fmri_test/images/B.png'></img>	71,89	2750.0	test	<img class = center src='/static/experiments/beast_fmri_test/images/redB.png'></img>	stop	1250.0	1.0	10.0	stop	target	B	71,Green Button	89,Yellow Button	1500.0	1500.0	1250.0	1250.0	0.0	1500.0	0.0	1.0	ITI
63102.0	500.0	n/a	-1	-1	500	0.0	fixation	poldrack-single-stim	405	1026403	0.0-17.11-0.11	beast_fmri_test	290	n/a	n/a	<div class = centerbox><div class = fixation>+</div></div>	none	500.0	test	n/a	n/a	n/a	n/a	n/a	n/a	n/a	n/a	n/a	n/a	n/a	n/a	n/a	n/a	n/a	n/a	n/a	n/a	fixation
59537.058771791519	1500.0	n/a	-1	-1	2750	3565.94122821	stim	stop-signal	406	1029154	0.0-17.11-1.11	beast_fmri_test	290	17.109016666666665,17.12035,17.131683333333335,17.143016666666668,17.15435,17.165683333333334,17.177016666666667,17.18835,17.1997,17.211016666666666	t,t,t,t,t,t,t,t,t,t	<img class = center src='/static/experiments/beast_fmri_test/images/V.png'></img>	71,89	2750.0	test	<img class = center src='/static/experiments/beast_fmri_test/images/redV.png'></img>	stop	1250.0	1.0	11.0	stop	non-target	V	71,Green Button	89,Yellow Button	1500.0	1500.0	1250.0	1250.0	0.0	1500.0	0.0	1.0	go_stim
60787.058771791519	1250.0	n/a	-1	-1	2750	3565.94122821	stim	stop-signal	406	1029154	0.0-17.11-1.11	beast_fmri_test	290	17.109016666666665,17.12035,17.131683333333335,17.143016666666668,17.15435,17.165683333333334,17.177016666666667,17.18835,17.1997,17.211016666666666	t,t,t,t,t,t,t,t,t,t	<img class = center src='/static/experiments/beast_fmri_test/images/V.png'></img>	71,89	2750.0	test	<img class = center src='/static/experiments/beast_fmri_test/images/redV.png'></img>	stop	1250.0	1.0	11.0	stop	non-target	V	71,Green Button	89,Yellow Button	1500.0	1500.0	1250.0	1250.0	0.0	1500.0	0.0	1.0	stop_stim
62287.058771791519	3565.94122821	n/a	-1	-1	2750	3565.94122821	stim	stop-signal	406	1029154	0.0-17.11-1.11	beast_fmri_test	290	17.109016666666665,17.12035,17.131683333333335,17.143016666666668,17.15435,17.165683333333334,17.177016666666667,17.18835,17.1997,17.211016666666666	t,t,t,t,t,t,t,t,t,t	<img class = center src='/static/experiments/beast_fmri_test/images/V.png'></img>	71,89	2750.0	test	<img class = center src='/static/experiments/beast_fmri_test/images/redV.png'></img>	stop	1250.0	1.0	11.0	stop	non-target	V	71,Green Button	89,Yellow Button	1500.0	1500.0	1250.0	1250.0	0.0	1500.0	0.0	1.0	ITI
69937.0	500.0	n/a	-1	-1	500	0.0	fixation	poldrack-single-stim	407	1033238	0.0-17.12-0.12	beast_fmri_test	290	n/a	n/a	<div class = centerbox><div class = fixation>+</div></div>	none	500.0	test	n/a	n/a	n/a	n/a	n/a	n/a	n/a	n/a	n/a	n/a	n/a	n/a	n/a	n/a	n/a	n/a	n/a	n/a	fixation
68936.331128885155	2750.0	n/a	-1	-1	2750	1002.66887111	stim	stop-signal	408	1035990	0.0-17.12-1.12	beast_fmri_test	290	17.22235,17.23368333333333,17.245,17.25635,17.267683333333334,17.279016666666667	t,t,t,t,t,t	<img class = center src='/static/experiments/beast_fmri_test/images/B.png'></img>	71,89	2750.0	test	<img class = center src='/static/experiments/beast_fmri_test/images/redB.png'></img>	go	1250.0	1.0	12.0	go	non-target	B	71,Green Button	89,Yellow Button	1500.0	1500.0	1250.0	1250.0	0.0	1500.0	0.0	n/a	go_stim
71686.331128885155	1002.66887111	n/a	-1	-1	2750	1002.66887111	stim	stop-signal	408	1035990	0.0-17.12-1.12	beast_fmri_test	290	17.22235,17.23368333333333,17.245,17.25635,17.267683333333334,17.279016666666667	t,t,t,t,t,t	<img class = center src='/static/experiments/beast_fmri_test/images/B.png'></img>	71,89	2750.0	test	<img class = center src='/static/experiments/beast_fmri_test/images/redB.png'></img>	go	1250.0	1.0	12.0	go	non-target	B	71,Green Button	89,Yellow Button	1500.0	1500.0	1250.0	1250.0	0.0	1500.0	0.0	n/a	ITI
74210.0	500.0	n/a	-1	-1	500	0.0	fixation	poldrack-single-stim	409	1037511	0.0-17.13-0.13	beast_fmri_test	290	17.29035	t	<div class = centerbox><div class = fixation>+</div></div>	none	500.0	test	n/a	n/a	n/a	n/a	n/a	n/a	n/a	n/a	n/a	n/a	n/a	n/a	n/a	n/a	n/a	n/a	n/a	n/a	fixation
72882.27124390495	2750.0	n/a	-1	-1	2750	1329.7287561	stim	stop-signal	410	1040263	0.0-17.13-1.13	beast_fmri_test	290	17.301683333333333,17.313016666666666,17.324333333333332,17.335683333333332,17.347,17.358333333333334	t,t,t,t,t,t	<img class = center src='/static/experiments/beast_fmri_test/images/P.png'></img>	71,89	2750.0	test	<img class = center src='/static/experiments/beast_fmri_test/images/redP.png'></img>	go	1250.0	1.0	13.0	go	non-target	P	71,Green Button	89,Yellow Button	1500.0	1500.0	1250.0	1250.0	0.0	1500.0	0.0	n/a	go_stim
75632.27124390495	1329.7287561	n/a	-1	-1	2750	1329.7287561	stim	stop-signal	410	1040263	0.0-17.13-1.13	beast_fmri_test	290	17.301683333333333,17.313016666666666,17.324333333333332,17.335683333333332,17.347,17.358333333333334	t,t,t,t,t,t	<img class = center src='/static/experiments/beast_fmri_test/images/P.png'></img>	71,89	2750.0	test	<img class = center src='/static/experiments/beast_fmri_test/images/redP.png'></img>	go	1250.0	1.0	13.0	go	non-target	P	71,Green Button	89,Yellow Button	1500.0	1500.0	1250.0	1250.0	0.0	1500.0	0.0	n/a	ITI
78810.0	500.0	n/a	-1	-1	500	0.0	fixation	poldrack-single-stim	411	1042111	0.0-17.14-0.14	beast_fmri_test	290	n/a	n/a	<div class = centerbox><div class = fixation>+</div></div>	none	500.0	test	n/a	n/a	n/a	n/a	n/a	n/a	n/a	n/a	n/a	n/a	n/a	n/a	n/a	n/a	n/a	n/a	n/a	n/a	fixation
78003.614151316578	2750.0	n/a	-1	-1	2750	809.385848683	stim	stop-signal	412	1044864	0.0-17.14-1.14	beast_fmri_test	290	17.3697,17.381016666666667,17.39235,17.403683333333333,17.415016666666666,17.42635	t,t,t,t,t,t	<img class = center src='/static/experiments/beast_fmri_test/images/T.png'></img>	71,89	2750.0	test	<img class = center src='/static/experiments/beast_fmri_test/images/redT.png'></img>	go	1250.0	1.0	14.0	go	non-target	T	71,Green Button	89,Yellow Button	1500.0	1500.0	1250.0	1250.0	0.0	1500.0	0.0	n/a	go_stim
80753.614151316578	809.385848683	n/a	-1	-1	2750	809.385848683	stim	stop-signal	412	1044864	0.0-17.14-1.14	beast_fmri_test	290	17.3697,17.381016666666667,17.39235,17.403683333333333,17.415016666666666,17.42635	t,t,t,t,t,t	<img class = center src='/static/experiments/beast_fmri_test/images/T.png'></img>	71,89	2750.0	test	<img class = center src='/static/experiments/beast_fmri_test/images/redT.png'></img>	go	1250.0	1.0	14.0	go	non-target	T	71,Green Button	89,Yellow Button	1500.0	1500.0	1250.0	1250.0	0.0	1500.0	0.0	n/a	ITI
82889.0	500.0	n/a	-1	-1	500	0.0	fixation	poldrack-single-stim	413	1046190	0.0-17.15-0.15	beast_fmri_test	290	n/a	n/a	<div class = centerbox><div class = fixation>+</div></div>	none	500.0	test	n/a	n/a	n/a	n/a	n/a	n/a	n/a	n/a	n/a	n/a	n/a	n/a	n/a	n/a	n/a	n/a	n/a	n/a	fixation
82419.526319980854	2750.0	n/a	-1	-1	2750	471.473680019	stim	stop-signal	414	1048942	0.0-17.15-1.15	beast_fmri_test	290	17.437683333333332,17.449016666666665,17.46035,17.471683333333335,17.483016666666668	t,t,t,t,t	<img class = center src='/static/experiments/beast_fmri_test/images/T.png'></img>	71,89	2750.0	test	<img class = center src='/static/experiments/beast_fmri_test/images/redT.png'></img>	go	1250.0	1.0	15.0	go	target	T	71,Green Button	89,Yellow Button	1500.0	1500.0	1250.0	1250.0	0.0	1500.0	0.0	n/a	go_stim
85169.526319980854	471.473680019	n/a	-1	-1	2750	471.473680019	stim	stop-signal	414	1048942	0.0-17.15-1.15	beast_fmri_test	290	17.437683333333332,17.449016666666665,17.46035,17.471683333333335,17.483016666666668	t,t,t,t,t	<img class = center src='/static/experiments/beast_fmri_test/images/T.png'></img>	71,89	2750.0	test	<img class = center src='/static/experiments/beast_fmri_test/images/redT.png'></img>	go	1250.0	1.0	15.0	go	target	T	71,Green Button	89,Yellow Button	1500.0	1500.0	1250.0	1250.0	0.0	1500.0	0.0	n/a	ITI
86630.0	500.0	n/a	-1	-1	500	0.0	fixation	poldrack-single-stim	415	1049931	0.0-17.16-0.16	beast_fmri_test	290	17.49435	t	<div class = centerbox><div class = fixation>+</div></div>	none	500.0	test	n/a	n/a	n/a	n/a	n/a	n/a	n/a	n/a	n/a	n/a	n/a	n/a	n/a	n/a	n/a	n/a	n/a	n/a	fixation
83598.719376836903	2750.0	n/a	-1	-1	2750	3033.28062316	stim	stop-signal	416	1052683	0.0-17.16-1.16	beast_fmri_test	290	17.505683333333334,17.517016666666667,17.52835,17.5397,17.551,17.56235,17.573666666666668,17.585	t,t,t,t,t,t,t,t	<img class = center src='/static/experiments/beast_fmri_test/images/V.png'></img>	71,89	2750.0	test	<img class = center src='/static/experiments/beast_fmri_test/images/redV.png'></img>	go	1250.0	1.0	16.0	go	non-target	V	71,Green Button	89,Yellow Button	1500.0	1500.0	1250.0	1250.0	0.0	1500.0	0.0	n/a	go_stim
86348.719376836903	3033.28062316	n/a	-1	-1	2750	3033.28062316	stim	stop-signal	416	1052683	0.0-17.16-1.16	beast_fmri_test	290	17.505683333333334,17.517016666666667,17.52835,17.5397,17.551,17.56235,17.573666666666668,17.585	t,t,t,t,t,t,t,t	<img class = center src='/static/experiments/beast_fmri_test/images/V.png'></img>	71,89	2750.0	test	<img class = center src='/static/experiments/beast_fmri_test/images/redV.png'></img>	go	1250.0	1.0	16.0	go	non-target	V	71,Green Button	89,Yellow Button	1500.0	1500.0	1250.0	1250.0	0.0	1500.0	0.0	n/a	ITI
92934.0	500.0	n/a	-1	-1	500	0.0	fixation	poldrack-single-stim	417	1056235	0.0-17.17-0.17	beast_fmri_test	290	17.59635	t	<div class = centerbox><div class = fixation>+</div></div>	none	500.0	test	n/a	n/a	n/a	n/a	n/a	n/a	n/a	n/a	n/a	n/a	n/a	n/a	n/a	n/a	n/a	n/a	n/a	n/a	fixation
92187.34970306023	2750.0	n/a	-1	-1	2750	748.65029694	stim	stop-signal	418	1058987	0.0-17.17-1.17	beast_fmri_test	290	17.607666666666667,17.619016666666667,17.63035,17.641683333333333,17.653016666666666	t,t,t,t,t	<img class = center src='/static/experiments/beast_fmri_test/images/T.png'></img>	71,89	2750.0	test	<img class = center src='/static/experiments/beast_fmri_test/images/redT.png'></img>	go	1250.0	1.0	17.0	go	non-target	T	71,Green Button	89,Yellow Button	1500.0	1500.0	1250.0	1250.0	0.0	1500.0	0.0	n/a	go_stim
94937.34970306023	748.65029694	n/a	-1	-1	2750	748.65029694	stim	stop-signal	418	1058987	0.0-17.17-1.17	beast_fmri_test	290	17.607666666666667,17.619016666666667,17.63035,17.641683333333333,17.653016666666666	t,t,t,t,t	<img class = center src='/static/experiments/beast_fmri_test/images/T.png'></img>	71,89	2750.0	test	<img class = center src='/static/experiments/beast_fmri_test/images/redT.png'></img>	go	1250.0	1.0	17.0	go	non-target	T	71,Green Button	89,Yellow Button	1500.0	1500.0	1250.0	1250.0	0.0	1500.0	0.0	n/a	ITI
96956.0	500.0	n/a	-1	-1	500	0.0	fixation	poldrack-single-stim	419	1060257	0.0-17.18-0.18	beast_fmri_test	290	17.6643666666666	t	<div class = centerbox><div class = fixation>+</div></div>	none	500.0	test	n/a	n/a	n/a	n/a	n/a	n/a	n/a	n/a	n/a	n/a	n/a	n/a	n/a	n/a	n/a	n/a	n/a	n/a	fixation
96378.032679267228	2750.0	n/a	-1	-1	2750	579.967320733	stim	stop-signal	420	1063009	0.0-17.18-1.18	beast_fmri_test	290	17.675683333333332,17.687033333333332,17.69835,17.709716666666665,17.721016666666667	t,t,t,t,t	<img class = center src='/static/experiments/beast_fmri_test/images/B.png'></img>	71,89	2750.0	test	<img class = center src='/static/experiments/beast_fmri_test/images/redB.png'></img>	go	1250.0	1.0	18.0	go	non-target	B	71,Green Button	89,Yellow Button	1500.0	1500.0	1250.0	1250.0	0.0	1500.0	0.0	n/a	go_stim
99128.032679267228	579.967320733	n/a	-1	-1	2750	579.967320733	stim	stop-signal	420	1063009	0.0-17.18-1.18	beast_fmri_test	290	17.675683333333332,17.687033333333332,17.69835,17.709716666666665,17.721016666666667	t,t,t,t,t	<img class = center src='/static/experiments/beast_fmri_test/images/B.png'></img>	71,89	2750.0	test	<img class = center src='/static/experiments/beast_fmri_test/images/redB.png'></img>	go	1250.0	1.0	18.0	go	non-target	B	71,Green Button	89,Yellow Button	1500.0	1500.0	1250.0	1250.0	0.0	1500.0	0.0	n/a	ITI
100807.0	500.0	n/a	-1	-1	500	0.0	fixation	poldrack-single-stim	421	1064108	0.0-17.19-0.19	beast_fmri_test	290	17.73235	t	<div class = centerbox><div class = fixation>+</div></div>	none	500.0	test	n/a	n/a	n/a	n/a	n/a	n/a	n/a	n/a	n/a	n/a	n/a	n/a	n/a	n/a	n/a	n/a	n/a	n/a	fixation
100385.96199606056	1500.0	n/a	-1	-1	2750	422.038003939	stim	stop-signal	422	1066859	0.0-17.19-1.19	beast_fmri_test	290	17.7437,17.755033333333333,17.766366666666666,17.7777	t,t,t,t	<img class = center src='/static/experiments/beast_fmri_test/images/D.png'></img>	71,89	2750.0	test	<img class = center src='/static/experiments/beast_fmri_test/images/redD.png'></img>	stop	1250.0	1.0	19.0	stop	non-target	D	71,Green Button	89,Yellow Button	1500.0	1500.0	1250.0	1250.0	0.0	1500.0	0.0	1.0	go_stim
101635.96199606056	1250.0	n/a	-1	-1	2750	422.038003939	stim	stop-signal	422	1066859	0.0-17.19-1.19	beast_fmri_test	290	17.7437,17.755033333333333,17.766366666666666,17.7777	t,t,t,t	<img class = center src='/static/experiments/beast_fmri_test/images/D.png'></img>	71,89	2750.0	test	<img class = center src='/static/experiments/beast_fmri_test/images/redD.png'></img>	stop	1250.0	1.0	19.0	stop	non-target	D	71,Green Button	89,Yellow Button	1500.0	1500.0	1250.0	1250.0	0.0	1500.0	0.0	1.0	stop_stim
103135.96199606056	422.038003939	n/a	-1	-1	2750	422.038003939	stim	stop-signal	422	1066859	0.0-17.19-1.19	beast_fmri_test	290	17.7437,17.755033333333333,17.766366666666666,17.7777	t,t,t,t	<img class = center src='/static/experiments/beast_fmri_test/images/D.png'></img>	71,89	2750.0	test	<img class = center src='/static/experiments/beast_fmri_test/images/redD.png'></img>	stop	1250.0	1.0	19.0	stop	non-target	D	71,Green Button	89,Yellow Button	1500.0	1500.0	1250.0	1250.0	0.0	1500.0	0.0	1.0	ITI
104498.0	500.0	n/a	-1	-1	500	0.0	fixation	poldrack-single-stim	423	1067799	0.0-17.20-0.20	beast_fmri_test	290	17.7890166666666	t	<div class = centerbox><div class = fixation>+</div></div>	none	500.0	test	n/a	n/a	n/a	n/a	n/a	n/a	n/a	n/a	n/a	n/a	n/a	n/a	n/a	n/a	n/a	n/a	n/a	n/a	fixation
104242.05743954144	1500.0	n/a	-1	-1	2750	256.942560459	stim	stop-signal	424	1070550	0.0-17.20-1.20	beast_fmri_test	290	17.80035,17.8117,17.823016666666668,17.83435,17.845683333333334	t,t,t,t,t	<img class = center src='/static/experiments/beast_fmri_test/images/B.png'></img>	71,89	2750.0	test	<img class = center src='/static/experiments/beast_fmri_test/images/redB.png'></img>	stop	1250.0	1.0	20.0	stop	non-target	B	71,Green Button	89,Yellow Button	1500.0	1500.0	1250.0	1250.0	0.0	1500.0	0.0	1.0	go_stim
105492.05743954144	1250.0	n/a	-1	-1	2750	256.942560459	stim	stop-signal	424	1070550	0.0-17.20-1.20	beast_fmri_test	290	17.80035,17.8117,17.823016666666668,17.83435,17.845683333333334	t,t,t,t,t	<img class = center src='/static/experiments/beast_fmri_test/images/B.png'></img>	71,89	2750.0	test	<img class = center src='/static/experiments/beast_fmri_test/images/redB.png'></img>	stop	1250.0	1.0	20.0	stop	non-target	B	71,Green Button	89,Yellow Button	1500.0	1500.0	1250.0	1250.0	0.0	1500.0	0.0	1.0	stop_stim
106992.05743954144	256.942560459	n/a	-1	-1	2750	256.942560459	stim	stop-signal	424	1070550	0.0-17.20-1.20	beast_fmri_test	290	17.80035,17.8117,17.823016666666668,17.83435,17.845683333333334	t,t,t,t,t	<img class = center src='/static/experiments/beast_fmri_test/images/B.png'></img>	71,89	2750.0	test	<img class = center src='/static/experiments/beast_fmri_test/images/redB.png'></img>	stop	1250.0	1.0	20.0	stop	non-target	B	71,Green Button	89,Yellow Button	1500.0	1500.0	1250.0	1250.0	0.0	1500.0	0.0	1.0	ITI
108025.0	500.0	n/a	-1	-1	500	0.0	fixation	poldrack-single-stim	425	1071326	0.0-17.21-0.21	beast_fmri_test	290	n/a	n/a	<div class = centerbox><div class = fixation>+</div></div>	none	500.0	test	n/a	n/a	n/a	n/a	n/a	n/a	n/a	n/a	n/a	n/a	n/a	n/a	n/a	n/a	n/a	n/a	n/a	n/a	fixation
106453.04140887666	1500.0	n/a	-1	-1	2750	1573.95859112	stim	stop-signal	426	1074078	0.0-17.21-1.21	beast_fmri_test	290	17.857016666666667,17.86835,17.8797,17.891016666666665,17.90235,17.913683333333335,17.925016666666668	t,t,t,t,t,t,t	<img class = center src='/static/experiments/beast_fmri_test/images/B.png'></img>	71,89	2750.0	test	<img class = center src='/static/experiments/beast_fmri_test/images/redB.png'></img>	stop	1250.0	1.0	21.0	stop	target	B	71,Green Button	89,Yellow Button	1500.0	1500.0	1250.0	1250.0	0.0	1500.0	0.0	1.0	go_stim
107703.04140887666	1250.0	n/a	-1	-1	2750	1573.95859112	stim	stop-signal	426	1074078	0.0-17.21-1.21	beast_fmri_test	290	17.857016666666667,17.86835,17.8797,17.891016666666665,17.90235,17.913683333333335,17.925016666666668	t,t,t,t,t,t,t	<img class = center src='/static/experiments/beast_fmri_test/images/B.png'></img>	71,89	2750.0	test	<img class = center src='/static/experiments/beast_fmri_test/images/redB.png'></img>	stop	1250.0	1.0	21.0	stop	target	B	71,Green Button	89,Yellow Button	1500.0	1500.0	1250.0	1250.0	0.0	1500.0	0.0	1.0	stop_stim
109203.04140887666	1573.95859112	n/a	-1	-1	2750	1573.95859112	stim	stop-signal	426	1074078	0.0-17.21-1.21	beast_fmri_test	290	17.857016666666667,17.86835,17.8797,17.891016666666665,17.90235,17.913683333333335,17.925016666666668	t,t,t,t,t,t,t	<img class = center src='/static/experiments/beast_fmri_test/images/B.png'></img>	71,89	2750.0	test	<img class = center src='/static/experiments/beast_fmri_test/images/redB.png'></img>	stop	1250.0	1.0	21.0	stop	target	B	71,Green Button	89,Yellow Button	1500.0	1500.0	1250.0	1250.0	0.0	1500.0	0.0	1.0	ITI
112868.0	500.0	n/a	-1	-1	500	0.0	fixation	poldrack-single-stim	427	1076169	0.0-17.22-0.22	beast_fmri_test	290	n/a	n/a	<div class = centerbox><div class = fixation>+</div></div>	none	500.0	test	n/a	n/a	n/a	n/a	n/a	n/a	n/a	n/a	n/a	n/a	n/a	n/a	n/a	n/a	n/a	n/a	n/a	n/a	fixation
112217.37322837207	2750.0	n/a	-1	-1	2750	651.626771628	stim	stop-signal	428	1078920	0.0-17.22-1.22	beast_fmri_test	290	17.93635,17.947683333333334,17.959016666666667,17.97035,17.981683333333333	t,t,t,t,t	<img class = center src='/static/experiments/beast_fmri_test/images/D.png'></img>	71,89	2750.0	test	<img class = center src='/static/experiments/beast_fmri_test/images/redD.png'></img>	go	1250.0	1.0	22.0	go	non-target	D	71,Green Button	89,Yellow Button	1500.0	1500.0	1250.0	1250.0	0.0	1500.0	0.0	n/a	go_stim
114967.37322837207	651.626771628	n/a	-1	-1	2750	651.626771628	stim	stop-signal	428	1078920	0.0-17.22-1.22	beast_fmri_test	290	17.93635,17.947683333333334,17.959016666666667,17.97035,17.981683333333333	t,t,t,t,t	<img class = center src='/static/experiments/beast_fmri_test/images/D.png'></img>	71,89	2750.0	test	<img class = center src='/static/experiments/beast_fmri_test/images/redD.png'></img>	go	1250.0	1.0	22.0	go	non-target	D	71,Green Button	89,Yellow Button	1500.0	1500.0	1250.0	1250.0	0.0	1500.0	0.0	n/a	ITI
116790.0	500.0	n/a	-1	-1	500	0.0	fixation	poldrack-single-stim	429	1080091	0.0-17.23-0.23	beast_fmri_test	290	17.9931666666666	t	<div class = centerbox><div class = fixation>+</div></div>	none	500.0	test	n/a	n/a	n/a	n/a	n/a	n/a	n/a	n/a	n/a	n/a	n/a	n/a	n/a	n/a	n/a	n/a	n/a	n/a	fixation
115718.24971903535	2750.0	n/a	-1	-1	2750	1072.75028096	stim	stop-signal	430	1082842	0.0-17.23-1.23	beast_fmri_test	290	18.00435,18.01568333333333,18.02701666666667,18.03835,18.049716666666665,18.061016666666667	t,t,t,t,t,t	<img class = center src='/static/experiments/beast_fmri_test/images/T.png'></img>	71,89	2750.0	test	<img class = center src='/static/experiments/beast_fmri_test/images/redT.png'></img>	go	1250.0	1.0	23.0	go	non-target	T	71,Green Button	89,Yellow Button	1500.0	1500.0	1250.0	1250.0	0.0	1500.0	0.0	n/a	go_stim
118468.24971903535	1072.75028096	n/a	-1	-1	2750	1072.75028096	stim	stop-signal	430	1082842	0.0-17.23-1.23	beast_fmri_test	290	18.00435,18.01568333333333,18.02701666666667,18.03835,18.049716666666665,18.061016666666667	t,t,t,t,t,t	<img class = center src='/static/experiments/beast_fmri_test/images/T.png'></img>	71,89	2750.0	test	<img class = center src='/static/experiments/beast_fmri_test/images/redT.png'></img>	go	1250.0	1.0	23.0	go	non-target	T	71,Green Button	89,Yellow Button	1500.0	1500.0	1250.0	1250.0	0.0	1500.0	0.0	n/a	ITI
121131.0	500.0	n/a	-1	-1	500	0.0	fixation	poldrack-single-stim	431	1084432	0.0-17.24-0.24	beast_fmri_test	290	18.07235	t	<div class = centerbox><div class = fixation>+</div></div>	none	500.0	test	n/a	n/a	n/a	n/a	n/a	n/a	n/a	n/a	n/a	n/a	n/a	n/a	n/a	n/a	n/a	n/a	n/a	n/a	fixation
120818.41518908553	2750.0	n/a	-1	-1	2750	315.584810914	stim	stop-signal	432	1087185	0.0-17.24-1.24	beast_fmri_test	290	18.083683333333333,18.095016666666666,18.10635,18.117683333333332	t,t,t,t	<img class = center src='/static/experiments/beast_fmri_test/images/T.png'></img>	71,89	2750.0	test	<img class = center src='/static/experiments/beast_fmri_test/images/redT.png'></img>	go	1250.0	1.0	24.0	go	target	T	71,Green Button	89,Yellow Button	1500.0	1500.0	1250.0	1250.0	0.0	1500.0	0.0	n/a	go_stim
123568.41518908553	315.584810914	n/a	-1	-1	2750	315.584810914	stim	stop-signal	432	1087185	0.0-17.24-1.24	beast_fmri_test	290	18.083683333333333,18.095016666666666,18.10635,18.117683333333332	t,t,t,t	<img class = center src='/static/experiments/beast_fmri_test/images/T.png'></img>	71,89	2750.0	test	<img class = center src='/static/experiments/beast_fmri_test/images/redT.png'></img>	go	1250.0	1.0	24.0	go	target	T	71,Green Button	89,Yellow Button	1500.0	1500.0	1250.0	1250.0	0.0	1500.0	0.0	n/a	ITI
124718.0	500.0	n/a	-1	-1	500	0.0	fixation	poldrack-single-stim	433	1088019	0.0-17.25-0.25	beast_fmri_test	290	18.1290166666666	t	<div class = centerbox><div class = fixation>+</div></div>	none	500.0	test	n/a	n/a	n/a	n/a	n/a	n/a	n/a	n/a	n/a	n/a	n/a	n/a	n/a	n/a	n/a	n/a	n/a	n/a	fixation
120902.66946568363	2750.0	n/a	-1	-1	2750	3818.33053432	stim	stop-signal	434	1090772	0.0-17.25-1.25	beast_fmri_test	290	18.14035,18.151683333333335,18.163016666666667,18.17435,18.185683333333333,18.197033333333334,18.208366666666667,18.219716666666667,18.231033333333333,18.242366666666666	t,t,t,t,t,t,t,t,t,t	<img class = center src='/static/experiments/beast_fmri_test/images/B.png'></img>	71,89	2750.0	test	<img class = center src='/static/experiments/beast_fmri_test/images/redB.png'></img>	go	1250.0	1.0	25.0	go	non-target	B	71,Green Button	89,Yellow Button	1500.0	1500.0	1250.0	1250.0	0.0	1500.0	0.0	n/a	go_stim
123652.66946568363	3818.33053432	n/a	-1	-1	2750	3818.33053432	stim	stop-signal	434	1090772	0.0-17.25-1.25	beast_fmri_test	290	18.14035,18.151683333333335,18.163016666666667,18.17435,18.185683333333333,18.197033333333334,18.208366666666667,18.219716666666667,18.231033333333333,18.242366666666666	t,t,t,t,t,t,t,t,t,t	<img class = center src='/static/experiments/beast_fmri_test/images/B.png'></img>	71,89	2750.0	test	<img class = center src='/static/experiments/beast_fmri_test/images/redB.png'></img>	go	1250.0	1.0	25.0	go	non-target	B	71,Green Button	89,Yellow Button	1500.0	1500.0	1250.0	1250.0	0.0	1500.0	0.0	n/a	ITI
131809.0	500.0	n/a	-1	-1	500	0.0	fixation	poldrack-single-stim	435	1095110	0.0-17.26-0.26	beast_fmri_test	290	n/a	n/a	<div class = centerbox><div class = fixation>+</div></div>	none	500.0	test	n/a	n/a	n/a	n/a	n/a	n/a	n/a	n/a	n/a	n/a	n/a	n/a	n/a	n/a	n/a	n/a	n/a	n/a	fixation
129564.18720483501	2750.0	n/a	-1	-1	2750	2246.81279517	stim	stop-signal	436	1097862	0.0-17.26-1.26	beast_fmri_test	290	18.2537,18.265033333333335,18.276366666666668,18.2877,18.299033333333334,18.31035,18.3217,18.333033333333333	t,t,t,t,t,t,t,t	<img class = center src='/static/experiments/beast_fmri_test/images/D.png'></img>	71,89	2750.0	test	<img class = center src='/static/experiments/beast_fmri_test/images/redD.png'></img>	go	1250.0	1.0	26.0	go	non-target	D	71,Green Button	89,Yellow Button	1500.0	1500.0	1250.0	1250.0	0.0	1500.0	0.0	n/a	go_stim
132314.18720483501	2246.81279517	n/a	-1	-1	2750	2246.81279517	stim	stop-signal	436	1097862	0.0-17.26-1.26	beast_fmri_test	290	18.2537,18.265033333333335,18.276366666666668,18.2877,18.299033333333334,18.31035,18.3217,18.333033333333333	t,t,t,t,t,t,t,t	<img class = center src='/static/experiments/beast_fmri_test/images/D.png'></img>	71,89	2750.0	test	<img class = center src='/static/experiments/beast_fmri_test/images/redD.png'></img>	go	1250.0	1.0	26.0	go	non-target	D	71,Green Button	89,Yellow Button	1500.0	1500.0	1250.0	1250.0	0.0	1500.0	0.0	n/a	ITI
137325.0	500.0	n/a	-1	-1	500	0.0	fixation	poldrack-single-stim	437	1100626	0.0-17.27-0.27	beast_fmri_test	290	n/a	n/a	<div class = centerbox><div class = fixation>+</div></div>	none	500.0	test	n/a	n/a	n/a	n/a	n/a	n/a	n/a	n/a	n/a	n/a	n/a	n/a	n/a	n/a	n/a	n/a	n/a	n/a	fixation
137037.57411428262	2750.0	n/a	-1	-1	2750	289.425885717	stim	stop-signal	438	1103378	0.0-17.27-1.27	beast_fmri_test	290	18.344366666666666,18.3557,18.36703333333333,18.37836666666667,18.389783333333334	t,t,t,t,t	<img class = center src='/static/experiments/beast_fmri_test/images/V.png'></img>	71,89	2750.0	test	<img class = center src='/static/experiments/beast_fmri_test/images/redV.png'></img>	go	1250.0	1.0	27.0	go	non-target	V	71,Green Button	89,Yellow Button	1500.0	1500.0	1250.0	1250.0	0.0	1500.0	0.0	n/a	go_stim
139787.57411428262	289.425885717	n/a	-1	-1	2750	289.425885717	stim	stop-signal	438	1103378	0.0-17.27-1.27	beast_fmri_test	290	18.344366666666666,18.3557,18.36703333333333,18.37836666666667,18.389783333333334	t,t,t,t,t	<img class = center src='/static/experiments/beast_fmri_test/images/V.png'></img>	71,89	2750.0	test	<img class = center src='/static/experiments/beast_fmri_test/images/redV.png'></img>	go	1250.0	1.0	27.0	go	non-target	V	71,Green Button	89,Yellow Button	1500.0	1500.0	1250.0	1250.0	0.0	1500.0	0.0	n/a	ITI
140884.0	500.0	n/a	-1	-1	500	0.0	fixation	poldrack-single-stim	439	1104185	0.0-17.28-0.28	beast_fmri_test	290	18.4010333333333	t	<div class = centerbox><div class = fixation>+</div></div>	none	500.0	test	n/a	n/a	n/a	n/a	n/a	n/a	n/a	n/a	n/a	n/a	n/a	n/a	n/a	n/a	n/a	n/a	n/a	n/a	fixation
140696.75638473243	2750.0	n/a	-1	-1	2750	188.243615268	stim	stop-signal	440	1106936	0.0-17.28-1.28	beast_fmri_test	290	18.412366666666667,18.4237,18.435033333333333,18.446366666666666	t,t,t,t	<img class = center src='/static/experiments/beast_fmri_test/images/D.png'></img>	71,89	2750.0	test	<img class = center src='/static/experiments/beast_fmri_test/images/redD.png'></img>	go	1250.0	1.0	28.0	go	non-target	D	71,Green Button	89,Yellow Button	1500.0	1500.0	1250.0	1250.0	0.0	1500.0	0.0	n/a	go_stim
143446.75638473243	188.243615268	n/a	-1	-1	2750	188.243615268	stim	stop-signal	440	1106936	0.0-17.28-1.28	beast_fmri_test	290	18.412366666666667,18.4237,18.435033333333333,18.446366666666666	t,t,t,t	<img class = center src='/static/experiments/beast_fmri_test/images/D.png'></img>	71,89	2750.0	test	<img class = center src='/static/experiments/beast_fmri_test/images/redD.png'></img>	go	1250.0	1.0	28.0	go	non-target	D	71,Green Button	89,Yellow Button	1500.0	1500.0	1250.0	1250.0	0.0	1500.0	0.0	n/a	ITI
144342.0	500.0	n/a	-1	-1	500	0.0	fixation	poldrack-single-stim	441	1107643	0.0-17.29-0.29	beast_fmri_test	290	18.4577	t	<div class = centerbox><div class = fixation>+</div></div>	none	500.0	test	n/a	n/a	n/a	n/a	n/a	n/a	n/a	n/a	n/a	n/a	n/a	n/a	n/a	n/a	n/a	n/a	n/a	n/a	fixation
143701.42119904188	2750.0	n/a	-1	-1	2750	642.578800958	stim	stop-signal	442	1110395	0.0-17.29-1.29	beast_fmri_test	290	18.469033333333332,18.480366666666665,18.491683333333334,18.503033333333335,18.514366666666668	t,t,t,t,t	<img class = center src='/static/experiments/beast_fmri_test/images/D.png'></img>	71,89	2750.0	test	<img class = center src='/static/experiments/beast_fmri_test/images/redD.png'></img>	go	1250.0	1.0	29.0	go	target	D	71,Green Button	89,Yellow Button	1500.0	1500.0	1250.0	1250.0	0.0	1500.0	0.0	n/a	go_stim
146451.42119904188	642.578800958	n/a	-1	-1	2750	642.578800958	stim	stop-signal	442	1110395	0.0-17.29-1.29	beast_fmri_test	290	18.469033333333332,18.480366666666665,18.491683333333334,18.503033333333335,18.514366666666668	t,t,t,t,t	<img class = center src='/static/experiments/beast_fmri_test/images/D.png'></img>	71,89	2750.0	test	<img class = center src='/static/experiments/beast_fmri_test/images/redD.png'></img>	go	1250.0	1.0	29.0	go	target	D	71,Green Button	89,Yellow Button	1500.0	1500.0	1250.0	1250.0	0.0	1500.0	0.0	n/a	ITI
148256.0	500.0	n/a	-1	-1	500	0.0	fixation	poldrack-single-stim	443	1111557	0.0-17.30-0.30	beast_fmri_test	290	18.5257	t	<div class = centerbox><div class = fixation>+</div></div>	none	500.0	test	n/a	n/a	n/a	n/a	n/a	n/a	n/a	n/a	n/a	n/a	n/a	n/a	n/a	n/a	n/a	n/a	n/a	n/a	fixation
147822.61723474786	2750.0	n/a	-1	-1	2750	434.382765252	stim	stop-signal	444	1114308	0.0-17.30-1.30	beast_fmri_test	290	18.537016666666666,18.548366666666666,18.559716666666667,18.571033333333332	t,t,t,t	<img class = center src='/static/experiments/beast_fmri_test/images/D.png'></img>	71,89	2750.0	test	<img class = center src='/static/experiments/beast_fmri_test/images/redD.png'></img>	go	1250.0	1.0	30.0	go	target	D	71,Green Button	89,Yellow Button	1500.0	1500.0	1250.0	1250.0	0.0	1500.0	0.0	n/a	go_stim
150572.61723474786	434.382765252	n/a	-1	-1	2750	434.382765252	stim	stop-signal	444	1114308	0.0-17.30-1.30	beast_fmri_test	290	18.537016666666666,18.548366666666666,18.559716666666667,18.571033333333332	t,t,t,t	<img class = center src='/static/experiments/beast_fmri_test/images/D.png'></img>	71,89	2750.0	test	<img class = center src='/static/experiments/beast_fmri_test/images/redD.png'></img>	go	1250.0	1.0	30.0	go	target	D	71,Green Button	89,Yellow Button	1500.0	1500.0	1250.0	1250.0	0.0	1500.0	0.0	n/a	ITI
151960.0	500.0	n/a	-1	-1	500	0.0	fixation	poldrack-single-stim	445	1115261	0.0-17.31-0.31	beast_fmri_test	290	18.58235	t	<div class = centerbox><div class = fixation>+</div></div>	none	500.0	test	n/a	n/a	n/a	n/a	n/a	n/a	n/a	n/a	n/a	n/a	n/a	n/a	n/a	n/a	n/a	n/a	n/a	n/a	fixation
151452.93404485518	1500.0	n/a	-1	-1	2750	508.065955145	stim	stop-signal	446	1118012	0.0-17.31-1.31	beast_fmri_test	290	18.593683333333335,18.605016666666668,18.61635,18.627683333333334,18.639033333333334	t,t,t,t,t	<img class = center src='/static/experiments/beast_fmri_test/images/V.png'></img>	71,89	2750.0	test	<img class = center src='/static/experiments/beast_fmri_test/images/redV.png'></img>	stop	1250.0	1.0	31.0	stop	non-target	V	71,Green Button	89,Yellow Button	1500.0	1500.0	1250.0	1250.0	0.0	1500.0	0.0	1.0	go_stim
152702.93404485518	1250.0	n/a	-1	-1	2750	508.065955145	stim	stop-signal	446	1118012	0.0-17.31-1.31	beast_fmri_test	290	18.593683333333335,18.605016666666668,18.61635,18.627683333333334,18.639033333333334	t,t,t,t,t	<img class = center src='/static/experiments/beast_fmri_test/images/V.png'></img>	71,89	2750.0	test	<img class = center src='/static/experiments/beast_fmri_test/images/redV.png'></img>	stop	1250.0	1.0	31.0	stop	non-target	V	71,Green Button	89,Yellow Button	1500.0	1500.0	1250.0	1250.0	0.0	1500.0	0.0	1.0	stop_stim
154202.93404485518	508.065955145	n/a	-1	-1	2750	508.065955145	stim	stop-signal	446	1118012	0.0-17.31-1.31	beast_fmri_test	290	18.593683333333335,18.605016666666668,18.61635,18.627683333333334,18.639033333333334	t,t,t,t,t	<img class = center src='/static/experiments/beast_fmri_test/images/V.png'></img>	71,89	2750.0	test	<img class = center src='/static/experiments/beast_fmri_test/images/redV.png'></img>	stop	1250.0	1.0	31.0	stop	non-target	V	71,Green Button	89,Yellow Button	1500.0	1500.0	1250.0	1250.0	0.0	1500.0	0.0	1.0	ITI
155738.0	500.0	n/a	-1	-1	500	0.0	fixation	poldrack-single-stim	447	1119039	0.0-17.32-0.32	beast_fmri_test	290	18.65035	t	<div class = centerbox><div class = fixation>+</div></div>	none	500.0	test	n/a	n/a	n/a	n/a	n/a	n/a	n/a	n/a	n/a	n/a	n/a	n/a	n/a	n/a	n/a	n/a	n/a	n/a	fixation
152846.9275667679	2750.0	n/a	-1	-1	2750	2893.07243323	stim	stop-signal	448	1121791	0.0-17.32-1.32	beast_fmri_test	290	18.6617,18.673016666666665,18.68435,18.695683333333335,18.707016666666668,18.71835,18.72971666666667,18.741016666666667	t,t,t,t,t,t,t,t	<img class = center src='/static/experiments/beast_fmri_test/images/D.png'></img>	71,89	2750.0	test	<img class = center src='/static/experiments/beast_fmri_test/images/redD.png'></img>	go	1250.0	1.0	32.0	go	non-target	D	71,Green Button	89,Yellow Button	1500.0	1500.0	1250.0	1250.0	0.0	1500.0	0.0	n/a	go_stim
155596.9275667679	2893.07243323	n/a	-1	-1	2750	2893.07243323	stim	stop-signal	448	1121791	0.0-17.32-1.32	beast_fmri_test	290	18.6617,18.673016666666665,18.68435,18.695683333333335,18.707016666666668,18.71835,18.72971666666667,18.741016666666667	t,t,t,t,t,t,t,t	<img class = center src='/static/experiments/beast_fmri_test/images/D.png'></img>	71,89	2750.0	test	<img class = center src='/static/experiments/beast_fmri_test/images/redD.png'></img>	go	1250.0	1.0	32.0	go	non-target	D	71,Green Button	89,Yellow Button	1500.0	1500.0	1250.0	1250.0	0.0	1500.0	0.0	n/a	ITI
161902.0	500.0	n/a	-1	-1	500	0.0	fixation	poldrack-single-stim	449	1125203	0.0-17.33-0.33	beast_fmri_test	290	18.7523666666666	t	<div class = centerbox><div class = fixation>+</div></div>	none	500.0	test	n/a	n/a	n/a	n/a	n/a	n/a	n/a	n/a	n/a	n/a	n/a	n/a	n/a	n/a	n/a	n/a	n/a	n/a	fixation
161578.33759935293	1500.0	n/a	-1	-1	2750	326.662400647	stim	stop-signal	450	1127956	0.0-17.33-1.33	beast_fmri_test	290	18.763683333333333,18.775033333333333,18.786366666666666,18.7977	t,t,t,t	<img class = center src='/static/experiments/beast_fmri_test/images/P.png'></img>	71,89	2750.0	test	<img class = center src='/static/experiments/beast_fmri_test/images/redP.png'></img>	stop	1250.0	1.0	33.0	stop	non-target	P	71,Green Button	89,Yellow Button	1500.0	1500.0	1250.0	1250.0	0.0	1500.0	0.0	1.0	go_stim
162828.33759935293	1250.0	n/a	-1	-1	2750	326.662400647	stim	stop-signal	450	1127956	0.0-17.33-1.33	beast_fmri_test	290	18.763683333333333,18.775033333333333,18.786366666666666,18.7977	t,t,t,t	<img class = center src='/static/experiments/beast_fmri_test/images/P.png'></img>	71,89	2750.0	test	<img class = center src='/static/experiments/beast_fmri_test/images/redP.png'></img>	stop	1250.0	1.0	33.0	stop	non-target	P	71,Green Button	89,Yellow Button	1500.0	1500.0	1250.0	1250.0	0.0	1500.0	0.0	1.0	stop_stim
164328.33759935293	326.662400647	n/a	-1	-1	2750	326.662400647	stim	stop-signal	450	1127956	0.0-17.33-1.33	beast_fmri_test	290	18.763683333333333,18.775033333333333,18.786366666666666,18.7977	t,t,t,t	<img class = center src='/static/experiments/beast_fmri_test/images/P.png'></img>	71,89	2750.0	test	<img class = center src='/static/experiments/beast_fmri_test/images/redP.png'></img>	stop	1250.0	1.0	33.0	stop	non-target	P	71,Green Button	89,Yellow Button	1500.0	1500.0	1250.0	1250.0	0.0	1500.0	0.0	1.0	ITI
165500.0	500.0	n/a	-1	-1	500	0.0	fixation	poldrack-single-stim	451	1128801	0.0-17.34-0.34	beast_fmri_test	290	18.8090333333333	t	<div class = centerbox><div class = fixation>+</div></div>	none	500.0	test	n/a	n/a	n/a	n/a	n/a	n/a	n/a	n/a	n/a	n/a	n/a	n/a	n/a	n/a	n/a	n/a	n/a	n/a	fixation
164480.70366097754	2750.0	n/a	-1	-1	2750	1021.29633902	stim	stop-signal	452	1131553	0.0-17.34-1.34	beast_fmri_test	290	18.820366666666665,18.8317,18.843033333333334,18.854366666666667,18.8657	t,t,t,t,t	<img class = center src='/static/experiments/beast_fmri_test/images/D.png'></img>	71,89	2750.0	test	<img class = center src='/static/experiments/beast_fmri_test/images/redD.png'></img>	go	1250.0	1.0	34.0	go	non-target	D	71,Green Button	89,Yellow Button	1500.0	1500.0	1250.0	1250.0	0.0	1500.0	0.0	n/a	go_stim
167230.70366097754	1021.29633902	n/a	-1	-1	2750	1021.29633902	stim	stop-signal	452	1131553	0.0-17.34-1.34	beast_fmri_test	290	18.820366666666665,18.8317,18.843033333333334,18.854366666666667,18.8657	t,t,t,t,t	<img class = center src='/static/experiments/beast_fmri_test/images/D.png'></img>	71,89	2750.0	test	<img class = center src='/static/experiments/beast_fmri_test/images/redD.png'></img>	go	1250.0	1.0	34.0	go	non-target	D	71,Green Button	89,Yellow Button	1500.0	1500.0	1250.0	1250.0	0.0	1500.0	0.0	n/a	ITI
169792.0	500.0	n/a	-1	-1	500	0.0	fixation	poldrack-single-stim	453	1133093	0.0-17.35-0.35	beast_fmri_test	290	18.8770333333333	t	<div class = centerbox><div class = fixation>+</div></div>	none	500.0	test	n/a	n/a	n/a	n/a	n/a	n/a	n/a	n/a	n/a	n/a	n/a	n/a	n/a	n/a	n/a	n/a	n/a	n/a	fixation
169566.88086565724	2750.0	n/a	-1	-1	2750	226.119134343	stim	stop-signal	454	1135844	0.0-17.35-1.35	beast_fmri_test	290	18.888366666666666,18.899716666666666,18.911033333333332,18.922366666666665,18.9337	t,t,t,t,t	<img class = center src='/static/experiments/beast_fmri_test/images/B.png'></img>	71,89	2750.0	test	<img class = center src='/static/experiments/beast_fmri_test/images/redB.png'></img>	go	1250.0	1.0	35.0	go	non-target	B	71,Green Button	89,Yellow Button	1500.0	1500.0	1250.0	1250.0	0.0	1500.0	0.0	n/a	go_stim
172316.88086565724	226.119134343	n/a	-1	-1	2750	226.119134343	stim	stop-signal	454	1135844	0.0-17.35-1.35	beast_fmri_test	290	18.888366666666666,18.899716666666666,18.911033333333332,18.922366666666665,18.9337	t,t,t,t,t	<img class = center src='/static/experiments/beast_fmri_test/images/B.png'></img>	71,89	2750.0	test	<img class = center src='/static/experiments/beast_fmri_test/images/redB.png'></img>	go	1250.0	1.0	35.0	go	non-target	B	71,Green Button	89,Yellow Button	1500.0	1500.0	1250.0	1250.0	0.0	1500.0	0.0	n/a	ITI
173286.0	500.0	n/a	-1	-1	500	0.0	fixation	poldrack-single-stim	455	1136587	0.0-17.36-0.36	beast_fmri_test	290	n/a	n/a	<div class = centerbox><div class = fixation>+</div></div>	none	500.0	test	n/a	n/a	n/a	n/a	n/a	n/a	n/a	n/a	n/a	n/a	n/a	n/a	n/a	n/a	n/a	n/a	n/a	n/a	fixation
173222.44918253459	2750.0	n/a	-1	-1	2750	65.5508174655	stim	stop-signal	456	1139339	0.0-17.36-1.36	beast_fmri_test	290	18.945033333333335,18.956366666666668,18.9677,18.979033333333334	t,t,t,t	<img class = center src='/static/experiments/beast_fmri_test/images/B.png'></img>	71,89	2750.0	test	<img class = center src='/static/experiments/beast_fmri_test/images/redB.png'></img>	go	1250.0	1.0	36.0	go	target	B	71,Green Button	89,Yellow Button	1500.0	1500.0	1250.0	1250.0	0.0	1500.0	0.0	n/a	go_stim
175972.44918253459	65.5508174655	n/a	-1	-1	2750	65.5508174655	stim	stop-signal	456	1139339	0.0-17.36-1.36	beast_fmri_test	290	18.945033333333335,18.956366666666668,18.9677,18.979033333333334	t,t,t,t	<img class = center src='/static/experiments/beast_fmri_test/images/B.png'></img>	71,89	2750.0	test	<img class = center src='/static/experiments/beast_fmri_test/images/redB.png'></img>	go	1250.0	1.0	36.0	go	target	B	71,Green Button	89,Yellow Button	1500.0	1500.0	1250.0	1250.0	0.0	1500.0	0.0	n/a	ITI
176622.0	500.0	n/a	-1	-1	500	0.0	fixation	poldrack-single-stim	457	1139923	0.0-17.37-0.37	beast_fmri_test	290	18.9903666666666	t	<div class = centerbox><div class = fixation>+</div></div>	none	500.0	test	n/a	n/a	n/a	n/a	n/a	n/a	n/a	n/a	n/a	n/a	n/a	n/a	n/a	n/a	n/a	n/a	n/a	n/a	fixation
175907.22490929719	1500.0	n/a	-1	-1	2750	716.775090703	stim	stop-signal	458	1142675	0.0-17.37-1.37	beast_fmri_test	290	19.0017,19.013033333333333,19.024366666666666,19.0357,19.047033333333335	t,t,t,t,t	<img class = center src='/static/experiments/beast_fmri_test/images/T.png'></img>	71,89	2750.0	test	<img class = center src='/static/experiments/beast_fmri_test/images/redT.png'></img>	stop	1250.0	1.0	37.0	stop	non-target	T	71,Green Button	89,Yellow Button	1500.0	1500.0	1250.0	1250.0	0.0	1500.0	0.0	1.0	go_stim
177157.22490929719	1250.0	n/a	-1	-1	2750	716.775090703	stim	stop-signal	458	1142675	0.0-17.37-1.37	beast_fmri_test	290	19.0017,19.013033333333333,19.024366666666666,19.0357,19.047033333333335	t,t,t,t,t	<img class = center src='/static/experiments/beast_fmri_test/images/T.png'></img>	71,89	2750.0	test	<img class = center src='/static/experiments/beast_fmri_test/images/redT.png'></img>	stop	1250.0	1.0	37.0	stop	non-target	T	71,Green Button	89,Yellow Button	1500.0	1500.0	1250.0	1250.0	0.0	1500.0	0.0	1.0	stop_stim
178657.22490929719	716.775090703	n/a	-1	-1	2750	716.775090703	stim	stop-signal	458	1142675	0.0-17.37-1.37	beast_fmri_test	290	19.0017,19.013033333333333,19.024366666666666,19.0357,19.047033333333335	t,t,t,t,t	<img class = center src='/static/experiments/beast_fmri_test/images/T.png'></img>	71,89	2750.0	test	<img class = center src='/static/experiments/beast_fmri_test/images/redT.png'></img>	stop	1250.0	1.0	37.0	stop	non-target	T	71,Green Button	89,Yellow Button	1500.0	1500.0	1250.0	1250.0	0.0	1500.0	0.0	1.0	ITI
180609.0	500.0	n/a	-1	-1	500	0.0	fixation	poldrack-single-stim	459	1143910	0.0-17.38-0.38	beast_fmri_test	290	19.0583666666666	t	<div class = centerbox><div class = fixation>+</div></div>	none	500.0	test	n/a	n/a	n/a	n/a	n/a	n/a	n/a	n/a	n/a	n/a	n/a	n/a	n/a	n/a	n/a	n/a	n/a	n/a	fixation
176780.57098296587	1500.0	n/a	-1	-1	2750	3830.42901703	stim	stop-signal	460	1146662	0.0-17.38-1.38	beast_fmri_test	290	19.069716666666668,19.081033333333334,19.092366666666667,19.1037,19.115033333333333,19.126366666666666,19.1377,19.149033333333332,19.16036666666667,19.1717	t,t,t,t,t,t,t,t,t,t	<img class = center src='/static/experiments/beast_fmri_test/images/T.png'></img>	71,89	2750.0	test	<img class = center src='/static/experiments/beast_fmri_test/images/redT.png'></img>	stop	1250.0	1.0	38.0	stop	target	T	71,Green Button	89,Yellow Button	1500.0	1500.0	1250.0	1250.0	0.0	1500.0	0.0	1.0	go_stim
178030.57098296587	1250.0	n/a	-1	-1	2750	3830.42901703	stim	stop-signal	460	1146662	0.0-17.38-1.38	beast_fmri_test	290	19.069716666666668,19.081033333333334,19.092366666666667,19.1037,19.115033333333333,19.126366666666666,19.1377,19.149033333333332,19.16036666666667,19.1717	t,t,t,t,t,t,t,t,t,t	<img class = center src='/static/experiments/beast_fmri_test/images/T.png'></img>	71,89	2750.0	test	<img class = center src='/static/experiments/beast_fmri_test/images/redT.png'></img>	stop	1250.0	1.0	38.0	stop	target	T	71,Green Button	89,Yellow Button	1500.0	1500.0	1250.0	1250.0	0.0	1500.0	0.0	1.0	stop_stim
179530.57098296587	3830.42901703	n/a	-1	-1	2750	3830.42901703	stim	stop-signal	460	1146662	0.0-17.38-1.38	beast_fmri_test	290	19.069716666666668,19.081033333333334,19.092366666666667,19.1037,19.115033333333333,19.126366666666666,19.1377,19.149033333333332,19.16036666666667,19.1717	t,t,t,t,t,t,t,t,t,t	<img class = center src='/static/experiments/beast_fmri_test/images/T.png'></img>	71,89	2750.0	test	<img class = center src='/static/experiments/beast_fmri_test/images/redT.png'></img>	stop	1250.0	1.0	38.0	stop	target	T	71,Green Button	89,Yellow Button	1500.0	1500.0	1250.0	1250.0	0.0	1500.0	0.0	1.0	ITI
187713.0	500.0	n/a	-1	-1	500	0.0	fixation	poldrack-single-stim	461	1151014	0.0-17.39-0.39	beast_fmri_test	290	19.1830333333333	t	<div class = centerbox><div class = fixation>+</div></div>	none	500.0	test	n/a	n/a	n/a	n/a	n/a	n/a	n/a	n/a	n/a	n/a	n/a	n/a	n/a	n/a	n/a	n/a	n/a	n/a	fixation
185265.08434240986	2750.0	n/a	-1	-1	2750	2448.91565759	stim	stop-signal	462	1153765	0.0-17.39-1.39	beast_fmri_test	290	19.194366666666667,19.2057,19.217033333333333,19.228366666666666,19.239716666666666,19.251033333333332,19.26235	t,t,t,t,t,t,t	<img class = center src='/static/experiments/beast_fmri_test/images/T.png'></img>	71,89	2750.0	test	<img class = center src='/static/experiments/beast_fmri_test/images/redT.png'></img>	go	1250.0	1.0	39.0	go	target	T	71,Green Button	89,Yellow Button	1500.0	1500.0	1250.0	1250.0	0.0	1500.0	0.0	n/a	go_stim
188015.08434240986	2448.91565759	n/a	-1	-1	2750	2448.91565759	stim	stop-signal	462	1153765	0.0-17.39-1.39	beast_fmri_test	290	19.194366666666667,19.2057,19.217033333333333,19.228366666666666,19.239716666666666,19.251033333333332,19.26235	t,t,t,t,t,t,t	<img class = center src='/static/experiments/beast_fmri_test/images/T.png'></img>	71,89	2750.0	test	<img class = center src='/static/experiments/beast_fmri_test/images/redT.png'></img>	go	1250.0	1.0	39.0	go	target	T	71,Green Button	89,Yellow Button	1500.0	1500.0	1250.0	1250.0	0.0	1500.0	0.0	n/a	ITI
193432.0	500.0	n/a	-1	-1	500	0.0	fixation	poldrack-single-stim	463	1156733	0.0-17.40-0.40	beast_fmri_test	290	19.2737	t	<div class = centerbox><div class = fixation>+</div></div>	none	500.0	test	n/a	n/a	n/a	n/a	n/a	n/a	n/a	n/a	n/a	n/a	n/a	n/a	n/a	n/a	n/a	n/a	n/a	n/a	fixation
192127.38221519976	1500.0	n/a	-1	-1	2750	1306.6177848	stim	stop-signal	464	1159485	0.0-17.40-1.40	beast_fmri_test	290	19.285033333333335,19.296366666666668,19.3077,19.31905,19.330383333333334,19.3417	t,t,t,t,t,t	<img class = center src='/static/experiments/beast_fmri_test/images/P.png'></img>	71,89	2750.0	test	<img class = center src='/static/experiments/beast_fmri_test/images/redP.png'></img>	stop	1250.0	1.0	40.0	stop	non-target	P	71,Green Button	89,Yellow Button	1500.0	1500.0	1250.0	1250.0	0.0	1500.0	0.0	1.0	go_stim
193377.38221519976	1250.0	n/a	-1	-1	2750	1306.6177848	stim	stop-signal	464	1159485	0.0-17.40-1.40	beast_fmri_test	290	19.285033333333335,19.296366666666668,19.3077,19.31905,19.330383333333334,19.3417	t,t,t,t,t,t	<img class = center src='/static/experiments/beast_fmri_test/images/P.png'></img>	71,89	2750.0	test	<img class = center src='/static/experiments/beast_fmri_test/images/redP.png'></img>	stop	1250.0	1.0	40.0	stop	non-target	P	71,Green Button	89,Yellow Button	1500.0	1500.0	1250.0	1250.0	0.0	1500.0	0.0	1.0	stop_stim
194877.38221519976	1306.6177848	n/a	-1	-1	2750	1306.6177848	stim	stop-signal	464	1159485	0.0-17.40-1.40	beast_fmri_test	290	19.285033333333335,19.296366666666668,19.3077,19.31905,19.330383333333334,19.3417	t,t,t,t,t,t	<img class = center src='/static/experiments/beast_fmri_test/images/P.png'></img>	71,89	2750.0	test	<img class = center src='/static/experiments/beast_fmri_test/images/redP.png'></img>	stop	1250.0	1.0	40.0	stop	non-target	P	71,Green Button	89,Yellow Button	1500.0	1500.0	1250.0	1250.0	0.0	1500.0	0.0	1.0	ITI
198009.0	500.0	n/a	-1	-1	500	0.0	fixation	poldrack-single-stim	465	1161310	0.0-17.41-0.41	beast_fmri_test	290	19.35305	t	<div class = centerbox><div class = fixation>+</div></div>	none	500.0	test	n/a	n/a	n/a	n/a	n/a	n/a	n/a	n/a	n/a	n/a	n/a	n/a	n/a	n/a	n/a	n/a	n/a	n/a	fixation
197597.67533261096	2750.0	n/a	-1	-1	2750	413.324667389	stim	stop-signal	466	1164062	0.0-17.41-1.41	beast_fmri_test	290	19.364366666666665,19.375716666666666,19.387033333333335,19.398383333333335	t,t,t,t	<img class = center src='/static/experiments/beast_fmri_test/images/P.png'></img>	71,89	2750.0	test	<img class = center src='/static/experiments/beast_fmri_test/images/redP.png'></img>	go	1250.0	1.0	41.0	go	target	P	71,Green Button	89,Yellow Button	1500.0	1500.0	1250.0	1250.0	0.0	1500.0	0.0	n/a	go_stim
200347.67533261096	413.324667389	n/a	-1	-1	2750	413.324667389	stim	stop-signal	466	1164062	0.0-17.41-1.41	beast_fmri_test	290	19.364366666666665,19.375716666666666,19.387033333333335,19.398383333333335	t,t,t,t	<img class = center src='/static/experiments/beast_fmri_test/images/P.png'></img>	71,89	2750.0	test	<img class = center src='/static/experiments/beast_fmri_test/images/redP.png'></img>	go	1250.0	1.0	41.0	go	target	P	71,Green Button	89,Yellow Button	1500.0	1500.0	1250.0	1250.0	0.0	1500.0	0.0	n/a	ITI
201691.0	500.0	n/a	-1	-1	500	0.0	fixation	poldrack-single-stim	467	1164992	0.0-17.42-0.42	beast_fmri_test	290	19.4097333333333	t	<div class = centerbox><div class = fixation>+</div></div>	none	500.0	test	n/a	n/a	n/a	n/a	n/a	n/a	n/a	n/a	n/a	n/a	n/a	n/a	n/a	n/a	n/a	n/a	n/a	n/a	fixation
200230.89761882625	2750.0	n/a	-1	-1	2750	1462.10238117	stim	stop-signal	468	1167744	0.0-17.42-1.42	beast_fmri_test	290	19.42105,19.432366666666667,19.443716666666667,19.455033333333333,19.466383333333333,19.4777	t,t,t,t,t,t	<img class = center src='/static/experiments/beast_fmri_test/images/V.png'></img>	71,89	2750.0	test	<img class = center src='/static/experiments/beast_fmri_test/images/redV.png'></img>	go	1250.0	1.0	42.0	go	non-target	V	71,Green Button	89,Yellow Button	1500.0	1500.0	1250.0	1250.0	0.0	1500.0	0.0	n/a	go_stim
202980.89761882625	1462.10238117	n/a	-1	-1	2750	1462.10238117	stim	stop-signal	468	1167744	0.0-17.42-1.42	beast_fmri_test	290	19.42105,19.432366666666667,19.443716666666667,19.455033333333333,19.466383333333333,19.4777	t,t,t,t,t,t	<img class = center src='/static/experiments/beast_fmri_test/images/V.png'></img>	71,89	2750.0	test	<img class = center src='/static/experiments/beast_fmri_test/images/redV.png'></img>	go	1250.0	1.0	42.0	go	non-target	V	71,Green Button	89,Yellow Button	1500.0	1500.0	1250.0	1250.0	0.0	1500.0	0.0	n/a	ITI
206424.0	500.0	n/a	-1	-1	500	0.0	fixation	poldrack-single-stim	469	1169725	0.0-17.43-0.43	beast_fmri_test	290	19.48905	t	<div class = centerbox><div class = fixation>+</div></div>	none	500.0	test	n/a	n/a	n/a	n/a	n/a	n/a	n/a	n/a	n/a	n/a	n/a	n/a	n/a	n/a	n/a	n/a	n/a	n/a	fixation
204411.70896594552	1500.0	n/a	-1	-1	2750	2014.29103405	stim	stop-signal	470	1172477	0.0-17.43-1.43	beast_fmri_test	290	19.500383333333332,19.51171666666667,19.523033333333334,19.534366666666667,19.5457,19.55705,19.568366666666666	t,t,t,t,t,t,t	<img class = center src='/static/experiments/beast_fmri_test/images/T.png'></img>	71,89	2750.0	test	<img class = center src='/static/experiments/beast_fmri_test/images/redT.png'></img>	stop	1250.0	1.0	43.0	stop	non-target	T	71,Green Button	89,Yellow Button	1500.0	1500.0	1250.0	1250.0	0.0	1500.0	0.0	1.0	go_stim
205661.70896594552	1250.0	n/a	-1	-1	2750	2014.29103405	stim	stop-signal	470	1172477	0.0-17.43-1.43	beast_fmri_test	290	19.500383333333332,19.51171666666667,19.523033333333334,19.534366666666667,19.5457,19.55705,19.568366666666666	t,t,t,t,t,t,t	<img class = center src='/static/experiments/beast_fmri_test/images/T.png'></img>	71,89	2750.0	test	<img class = center src='/static/experiments/beast_fmri_test/images/redT.png'></img>	stop	1250.0	1.0	43.0	stop	non-target	T	71,Green Button	89,Yellow Button	1500.0	1500.0	1250.0	1250.0	0.0	1500.0	0.0	1.0	stop_stim
207161.70896594552	2014.29103405	n/a	-1	-1	2750	2014.29103405	stim	stop-signal	470	1172477	0.0-17.43-1.43	beast_fmri_test	290	19.500383333333332,19.51171666666667,19.523033333333334,19.534366666666667,19.5457,19.55705,19.568366666666666	t,t,t,t,t,t,t	<img class = center src='/static/experiments/beast_fmri_test/images/T.png'></img>	71,89	2750.0	test	<img class = center src='/static/experiments/beast_fmri_test/images/redT.png'></img>	stop	1250.0	1.0	43.0	stop	non-target	T	71,Green Button	89,Yellow Button	1500.0	1500.0	1250.0	1250.0	0.0	1500.0	0.0	1.0	ITI
211711.0	500.0	n/a	-1	-1	500	0.0	fixation	poldrack-single-stim	471	1175012	0.0-17.44-0.44	beast_fmri_test	290	19.5797333333333	t	<div class = centerbox><div class = fixation>+</div></div>	none	500.0	test	n/a	n/a	n/a	n/a	n/a	n/a	n/a	n/a	n/a	n/a	n/a	n/a	n/a	n/a	n/a	n/a	n/a	n/a	fixation
211374.75782454223	1500.0	n/a	-1	-1	2750	337.242175458	stim	stop-signal	472	1177763	0.0-17.44-1.44	beast_fmri_test	290	19.59105,19.602366666666665,19.6137,19.62505	t,t,t,t	<img class = center src='/static/experiments/beast_fmri_test/images/P.png'></img>	71,89	2750.0	test	<img class = center src='/static/experiments/beast_fmri_test/images/redP.png'></img>	stop	1250.0	1.0	44.0	stop	non-target	P	71,Green Button	89,Yellow Button	1500.0	1500.0	1250.0	1250.0	0.0	1500.0	0.0	1.0	go_stim
212624.75782454223	1250.0	n/a	-1	-1	2750	337.242175458	stim	stop-signal	472	1177763	0.0-17.44-1.44	beast_fmri_test	290	19.59105,19.602366666666665,19.6137,19.62505	t,t,t,t	<img class = center src='/static/experiments/beast_fmri_test/images/P.png'></img>	71,89	2750.0	test	<img class = center src='/static/experiments/beast_fmri_test/images/redP.png'></img>	stop	1250.0	1.0	44.0	stop	non-target	P	71,Green Button	89,Yellow Button	1500.0	1500.0	1250.0	1250.0	0.0	1500.0	0.0	1.0	stop_stim
214124.75782454223	337.242175458	n/a	-1	-1	2750	337.242175458	stim	stop-signal	472	1177763	0.0-17.44-1.44	beast_fmri_test	290	19.59105,19.602366666666665,19.6137,19.62505	t,t,t,t	<img class = center src='/static/experiments/beast_fmri_test/images/P.png'></img>	71,89	2750.0	test	<img class = center src='/static/experiments/beast_fmri_test/images/redP.png'></img>	stop	1250.0	1.0	44.0	stop	non-target	P	71,Green Button	89,Yellow Button	1500.0	1500.0	1250.0	1250.0	0.0	1500.0	0.0	1.0	ITI
215321.0	500.0	n/a	-1	-1	500	0.0	fixation	poldrack-single-stim	473	1178622	0.0-17.45-0.45	beast_fmri_test	290	19.6363833333333	t	<div class = centerbox><div class = fixation>+</div></div>	none	500.0	test	n/a	n/a	n/a	n/a	n/a	n/a	n/a	n/a	n/a	n/a	n/a	n/a	n/a	n/a	n/a	n/a	n/a	n/a	fixation
213886.73331921222	2750.0	n/a	-1	-1	2750	1436.26668079	stim	stop-signal	474	1181374	0.0-17.45-1.45	beast_fmri_test	290	19.647716666666668,19.65905,19.670366666666666,19.6817,19.693033333333332,19.704366666666665	t,t,t,t,t,t	<img class = center src='/static/experiments/beast_fmri_test/images/P.png'></img>	71,89	2750.0	test	<img class = center src='/static/experiments/beast_fmri_test/images/redP.png'></img>	go	1250.0	1.0	45.0	go	target	P	71,Green Button	89,Yellow Button	1500.0	1500.0	1250.0	1250.0	0.0	1500.0	0.0	n/a	go_stim
216636.73331921222	1436.26668079	n/a	-1	-1	2750	1436.26668079	stim	stop-signal	474	1181374	0.0-17.45-1.45	beast_fmri_test	290	19.647716666666668,19.65905,19.670366666666666,19.6817,19.693033333333332,19.704366666666665	t,t,t,t,t,t	<img class = center src='/static/experiments/beast_fmri_test/images/P.png'></img>	71,89	2750.0	test	<img class = center src='/static/experiments/beast_fmri_test/images/redP.png'></img>	go	1250.0	1.0	45.0	go	target	P	71,Green Button	89,Yellow Button	1500.0	1500.0	1250.0	1250.0	0.0	1500.0	0.0	n/a	ITI
234528.0	15000.0	n/a	-1	-1	15000	0.0	practice-no-stop-feedback	poldrack-single-stim	475	1197829	0.0-18.0	beast_fmri_test	290	19.715716666666665,19.727033333333335,19.738366666666668,19.749716666666668,19.761033333333334,19.772366666666667,19.7837,19.795033333333333,19.806366666666666,19.8177,19.829033333333335,19.840366666666668,19.8517,19.863033333333334,19.874383333333334,19.885716666666667,19.89705,19.908383333333333,19.919733333333333,19.93105,19.942383333333332,19.953716666666665	t,t,t,t,t,t,t,t,t,t,t,t,t,t,t,t,t,t,t,t,t,t	"<div class = ""centerbox""><p class = ""center-block-text"">Your delay is 1 trials.</p><p class = center-block-text>Please wait for the scanner to start the block</p></div>"	77	15000.0	n/a	n/a	n/a	n/a	n/a	n/a	n/a	n/a	n/a	n/a	n/a	n/a	n/a	n/a	n/a	n/a	n/a	n/a	n/a	practice-no-stop-feedback
235029.0	500.0	n/a	-1	-1	500	0.0	fixation	poldrack-single-stim	476	1198330	0.0-19.0-0.0	beast_fmri_test	290	19.96505	t	<div class = centerbox><div class = fixation>+</div></div>	none	500.0	test	n/a	n/a	n/a	n/a	n/a	n/a	n/a	n/a	n/a	n/a	n/a	n/a	n/a	n/a	n/a	n/a	n/a	n/a	fixation
234091.95349823637	2750.0	n/a	-1	-1	2750	939.046501764	stim	stop-signal	477	1201082	0.0-19.0-1.0	beast_fmri_test	290	19.976383333333334,19.987716666666667,19.99905,20.010383333333333,20.021716666666666,20.03305	t,t,t,t,t,t	<img class = center src='/static/experiments/beast_fmri_test/images/V.png'></img>	71,89	2750.0	test	<img class = center src='/static/experiments/beast_fmri_test/images/redV.png'></img>	go	-1.0	1.0	0.0	go	temp-non-target	V	71,Green Button	89,Yellow Button	1500.0	1500.0	1250.0	1250.0	0.0	n/a	n/a	n/a	go_stim
236841.95349823637	939.046501764	n/a	-1	-1	2750	939.046501764	stim	stop-signal	477	1201082	0.0-19.0-1.0	beast_fmri_test	290	19.976383333333334,19.987716666666667,19.99905,20.010383333333333,20.021716666666666,20.03305	t,t,t,t,t,t	<img class = center src='/static/experiments/beast_fmri_test/images/V.png'></img>	71,89	2750.0	test	<img class = center src='/static/experiments/beast_fmri_test/images/redV.png'></img>	go	-1.0	1.0	0.0	go	temp-non-target	V	71,Green Button	89,Yellow Button	1500.0	1500.0	1250.0	1250.0	0.0	n/a	n/a	n/a	ITI
239238.0	500.0	n/a	-1	-1	500	0.0	fixation	poldrack-single-stim	478	1202539	0.0-19.1-0.1	beast_fmri_test	290	n/a	n/a	<div class = centerbox><div class = fixation>+</div></div>	none	500.0	test	n/a	n/a	n/a	n/a	n/a	n/a	n/a	n/a	n/a	n/a	n/a	n/a	n/a	n/a	n/a	n/a	n/a	n/a	fixation
238551.90823694854	2750.0	n/a	-1	-1	2750	688.091763051	stim	stop-signal	479	1205291	0.0-19.1-1.1	beast_fmri_test	290	20.044383333333332,20.055716666666665,20.06705,20.078383333333335,20.089733333333335	t,t,t,t,t	<img class = center src='/static/experiments/beast_fmri_test/images/P.png'></img>	71,89	2750.0	test	<img class = center src='/static/experiments/beast_fmri_test/images/redP.png'></img>	go	1250.0	1.0	1.0	go	non-target	P	71,Green Button	89,Yellow Button	1500.0	1500.0	1250.0	1250.0	0.0	1500.0	0.0	n/a	go_stim
241301.90823694854	688.091763051	n/a	-1	-1	2750	688.091763051	stim	stop-signal	479	1205291	0.0-19.1-1.1	beast_fmri_test	290	20.044383333333332,20.055716666666665,20.06705,20.078383333333335,20.089733333333335	t,t,t,t,t	<img class = center src='/static/experiments/beast_fmri_test/images/P.png'></img>	71,89	2750.0	test	<img class = center src='/static/experiments/beast_fmri_test/images/redP.png'></img>	go	1250.0	1.0	1.0	go	non-target	P	71,Green Button	89,Yellow Button	1500.0	1500.0	1250.0	1250.0	0.0	1500.0	0.0	n/a	ITI
243198.0	500.0	n/a	-1	-1	500	0.0	fixation	poldrack-single-stim	480	1206499	0.0-19.2-0.2	beast_fmri_test	290	20.10105	t	<div class = centerbox><div class = fixation>+</div></div>	none	500.0	test	n/a	n/a	n/a	n/a	n/a	n/a	n/a	n/a	n/a	n/a	n/a	n/a	n/a	n/a	n/a	n/a	n/a	n/a	fixation
242074.48905626521	1500.0	n/a	-1	-1	2750	1125.51094373	stim	stop-signal	481	1209251	0.0-19.2-1.2	beast_fmri_test	290	20.112383333333334,20.123716666666667,20.13505,20.146383333333333,20.157716666666666,20.16905	t,t,t,t,t,t	<img class = center src='/static/experiments/beast_fmri_test/images/D.png'></img>	71,89	2750.0	test	<img class = center src='/static/experiments/beast_fmri_test/images/redD.png'></img>	stop	1250.0	1.0	2.0	stop	non-target	D	71,Green Button	89,Yellow Button	1500.0	1500.0	1250.0	1250.0	0.0	1500.0	0.0	1.0	go_stim
243324.48905626521	1250.0	n/a	-1	-1	2750	1125.51094373	stim	stop-signal	481	1209251	0.0-19.2-1.2	beast_fmri_test	290	20.112383333333334,20.123716666666667,20.13505,20.146383333333333,20.157716666666666,20.16905	t,t,t,t,t,t	<img class = center src='/static/experiments/beast_fmri_test/images/D.png'></img>	71,89	2750.0	test	<img class = center src='/static/experiments/beast_fmri_test/images/redD.png'></img>	stop	1250.0	1.0	2.0	stop	non-target	D	71,Green Button	89,Yellow Button	1500.0	1500.0	1250.0	1250.0	0.0	1500.0	0.0	1.0	stop_stim
244824.48905626521	1125.51094373	n/a	-1	-1	2750	1125.51094373	stim	stop-signal	481	1209251	0.0-19.2-1.2	beast_fmri_test	290	20.112383333333334,20.123716666666667,20.13505,20.146383333333333,20.157716666666666,20.16905	t,t,t,t,t,t	<img class = center src='/static/experiments/beast_fmri_test/images/D.png'></img>	71,89	2750.0	test	<img class = center src='/static/experiments/beast_fmri_test/images/redD.png'></img>	stop	1250.0	1.0	2.0	stop	non-target	D	71,Green Button	89,Yellow Button	1500.0	1500.0	1250.0	1250.0	0.0	1500.0	0.0	1.0	ITI
247595.0	500.0	n/a	-1	-1	500	0.0	fixation	poldrack-single-stim	482	1210896	0.0-19.3-0.3	beast_fmri_test	290	20.1803833333333	t	<div class = centerbox><div class = fixation>+</div></div>	none	500.0	test	n/a	n/a	n/a	n/a	n/a	n/a	n/a	n/a	n/a	n/a	n/a	n/a	n/a	n/a	n/a	n/a	n/a	n/a	fixation
247236.85999378283	1500.0	n/a	-1	-1	2750	360.140006217	stim	stop-signal	483	1213648	0.0-19.3-1.3	beast_fmri_test	290	20.191716666666668,20.20305,20.214383333333334,20.225716666666667	t,t,t,t	<img class = center src='/static/experiments/beast_fmri_test/images/D.png'></img>	71,89	2750.0	test	<img class = center src='/static/experiments/beast_fmri_test/images/redD.png'></img>	stop	1250.0	1.0	3.0	stop	target	D	71,Green Button	89,Yellow Button	1500.0	1500.0	1250.0	1250.0	0.0	1500.0	0.0	1.0	go_stim
248486.85999378283	1250.0	n/a	-1	-1	2750	360.140006217	stim	stop-signal	483	1213648	0.0-19.3-1.3	beast_fmri_test	290	20.191716666666668,20.20305,20.214383333333334,20.225716666666667	t,t,t,t	<img class = center src='/static/experiments/beast_fmri_test/images/D.png'></img>	71,89	2750.0	test	<img class = center src='/static/experiments/beast_fmri_test/images/redD.png'></img>	stop	1250.0	1.0	3.0	stop	target	D	71,Green Button	89,Yellow Button	1500.0	1500.0	1250.0	1250.0	0.0	1500.0	0.0	1.0	stop_stim
249986.85999378283	360.140006217	n/a	-1	-1	2750	360.140006217	stim	stop-signal	483	1213648	0.0-19.3-1.3	beast_fmri_test	290	20.191716666666668,20.20305,20.214383333333334,20.225716666666667	t,t,t,t	<img class = center src='/static/experiments/beast_fmri_test/images/D.png'></img>	71,89	2750.0	test	<img class = center src='/static/experiments/beast_fmri_test/images/redD.png'></img>	stop	1250.0	1.0	3.0	stop	target	D	71,Green Button	89,Yellow Button	1500.0	1500.0	1250.0	1250.0	0.0	1500.0	0.0	1.0	ITI
251227.0	500.0	n/a	-1	-1	500	0.0	fixation	poldrack-single-stim	484	1214528	0.0-19.4-0.4	beast_fmri_test	290	20.23705	t	<div class = centerbox><div class = fixation>+</div></div>	none	500.0	test	n/a	n/a	n/a	n/a	n/a	n/a	n/a	n/a	n/a	n/a	n/a	n/a	n/a	n/a	n/a	n/a	n/a	n/a	fixation
250910.58834031038	2750.0	n/a	-1	-1	2750	317.41165969	stim	stop-signal	485	1217279	0.0-19.4-1.4	beast_fmri_test	290	20.248383333333333,20.259733333333333,20.27105,20.282383333333332	t,t,t,t	<img class = center src='/static/experiments/beast_fmri_test/images/D.png'></img>	71,89	2750.0	test	<img class = center src='/static/experiments/beast_fmri_test/images/redD.png'></img>	go	1250.0	1.0	4.0	go	target	D	71,Green Button	89,Yellow Button	1500.0	1500.0	1250.0	1250.0	0.0	1500.0	0.0	n/a	go_stim
253660.58834031038	317.41165969	n/a	-1	-1	2750	317.41165969	stim	stop-signal	485	1217279	0.0-19.4-1.4	beast_fmri_test	290	20.248383333333333,20.259733333333333,20.27105,20.282383333333332	t,t,t,t	<img class = center src='/static/experiments/beast_fmri_test/images/D.png'></img>	71,89	2750.0	test	<img class = center src='/static/experiments/beast_fmri_test/images/redD.png'></img>	go	1250.0	1.0	4.0	go	target	D	71,Green Button	89,Yellow Button	1500.0	1500.0	1250.0	1250.0	0.0	1500.0	0.0	n/a	ITI
254816.0	500.0	n/a	-1	-1	500	0.0	fixation	poldrack-single-stim	486	1218117	0.0-19.5-0.5	beast_fmri_test	290	20.2937	t	<div class = centerbox><div class = fixation>+</div></div>	none	500.0	test	n/a	n/a	n/a	n/a	n/a	n/a	n/a	n/a	n/a	n/a	n/a	n/a	n/a	n/a	n/a	n/a	n/a	n/a	fixation
253539.81509802677	2750.0	n/a	-1	-1	2750	1278.18490197	stim	stop-signal	487	1220869	0.0-19.5-1.5	beast_fmri_test	290	20.30505,20.316383333333334,20.327716666666667,20.33905,20.350383333333333,20.361716666666666	t,t,t,t,t,t	<img class = center src='/static/experiments/beast_fmri_test/images/B.png'></img>	71,89	2750.0	test	<img class = center src='/static/experiments/beast_fmri_test/images/redB.png'></img>	go	1250.0	1.0	5.0	go	non-target	B	71,Green Button	89,Yellow Button	1500.0	1500.0	1250.0	1250.0	0.0	1500.0	0.0	n/a	go_stim
256289.81509802677	1278.18490197	n/a	-1	-1	2750	1278.18490197	stim	stop-signal	487	1220869	0.0-19.5-1.5	beast_fmri_test	290	20.30505,20.316383333333334,20.327716666666667,20.33905,20.350383333333333,20.361716666666666	t,t,t,t,t,t	<img class = center src='/static/experiments/beast_fmri_test/images/B.png'></img>	71,89	2750.0	test	<img class = center src='/static/experiments/beast_fmri_test/images/redB.png'></img>	go	1250.0	1.0	5.0	go	non-target	B	71,Green Button	89,Yellow Button	1500.0	1500.0	1250.0	1250.0	0.0	1500.0	0.0	n/a	ITI
259365.0	500.0	n/a	-1	-1	500	0.0	fixation	poldrack-single-stim	488	1222666	0.0-19.6-0.6	beast_fmri_test	290	20.37305	t	<div class = centerbox><div class = fixation>+</div></div>	none	500.0	test	n/a	n/a	n/a	n/a	n/a	n/a	n/a	n/a	n/a	n/a	n/a	n/a	n/a	n/a	n/a	n/a	n/a	n/a	fixation
259257.2696941311	1500.0	n/a	-1	-1	2750	110.730305869	stim	stop-signal	489	1225419	0.0-19.6-1.6	beast_fmri_test	290	20.384383333333332,20.395716666666665,20.40705,20.418366666666667	t,t,t,t	<img class = center src='/static/experiments/beast_fmri_test/images/D.png'></img>	71,89	2750.0	test	<img class = center src='/static/experiments/beast_fmri_test/images/redD.png'></img>	stop	1250.0	1.0	6.0	stop	non-target	D	71,Green Button	89,Yellow Button	1500.0	1500.0	1250.0	1250.0	0.0	1500.0	0.0	1.0	go_stim
260507.2696941311	1250.0	n/a	-1	-1	2750	110.730305869	stim	stop-signal	489	1225419	0.0-19.6-1.6	beast_fmri_test	290	20.384383333333332,20.395716666666665,20.40705,20.418366666666667	t,t,t,t	<img class = center src='/static/experiments/beast_fmri_test/images/D.png'></img>	71,89	2750.0	test	<img class = center src='/static/experiments/beast_fmri_test/images/redD.png'></img>	stop	1250.0	1.0	6.0	stop	non-target	D	71,Green Button	89,Yellow Button	1500.0	1500.0	1250.0	1250.0	0.0	1500.0	0.0	1.0	stop_stim
262007.2696941311	110.730305869	n/a	-1	-1	2750	110.730305869	stim	stop-signal	489	1225419	0.0-19.6-1.6	beast_fmri_test	290	20.384383333333332,20.395716666666665,20.40705,20.418366666666667	t,t,t,t	<img class = center src='/static/experiments/beast_fmri_test/images/D.png'></img>	71,89	2750.0	test	<img class = center src='/static/experiments/beast_fmri_test/images/redD.png'></img>	stop	1250.0	1.0	6.0	stop	non-target	D	71,Green Button	89,Yellow Button	1500.0	1500.0	1250.0	1250.0	0.0	1500.0	0.0	1.0	ITI
262749.0	500.0	n/a	-1	-1	500	0.0	fixation	poldrack-single-stim	490	1226050	0.0-19.7-0.7	beast_fmri_test	290	20.4297333333333	t	<div class = centerbox><div class = fixation>+</div></div>	none	500.0	test	n/a	n/a	n/a	n/a	n/a	n/a	n/a	n/a	n/a	n/a	n/a	n/a	n/a	n/a	n/a	n/a	n/a	n/a	fixation
260820.04751338181	2750.0	n/a	-1	-1	2750	1930.95248662	stim	stop-signal	491	1228802	0.0-19.7-1.7	beast_fmri_test	290	20.441066666666668,20.452383333333334,20.463733333333334,20.47505,20.486383333333333,20.497716666666665,20.50905	t,t,t,t,t,t,t	<img class = center src='/static/experiments/beast_fmri_test/images/D.png'></img>	71,89	2750.0	test	<img class = center src='/static/experiments/beast_fmri_test/images/redD.png'></img>	go	1250.0	1.0	7.0	go	target	D	71,Green Button	89,Yellow Button	1500.0	1500.0	1250.0	1250.0	0.0	1500.0	0.0	n/a	go_stim
263570.04751338181	1930.95248662	n/a	-1	-1	2750	1930.95248662	stim	stop-signal	491	1228802	0.0-19.7-1.7	beast_fmri_test	290	20.441066666666668,20.452383333333334,20.463733333333334,20.47505,20.486383333333333,20.497716666666665,20.50905	t,t,t,t,t,t,t	<img class = center src='/static/experiments/beast_fmri_test/images/D.png'></img>	71,89	2750.0	test	<img class = center src='/static/experiments/beast_fmri_test/images/redD.png'></img>	go	1250.0	1.0	7.0	go	target	D	71,Green Button	89,Yellow Button	1500.0	1500.0	1250.0	1250.0	0.0	1500.0	0.0	n/a	ITI
267949.0	500.0	n/a	-1	-1	500	0.0	fixation	poldrack-single-stim	492	1231250	0.0-19.8-0.8	beast_fmri_test	290	20.5204	t	<div class = centerbox><div class = fixation>+</div></div>	none	500.0	test	n/a	n/a	n/a	n/a	n/a	n/a	n/a	n/a	n/a	n/a	n/a	n/a	n/a	n/a	n/a	n/a	n/a	n/a	fixation
267891.32380412798	2750.0	n/a	-1	-1	2750	60.676195872	stim	stop-signal	493	1234003	0.0-19.8-1.8	beast_fmri_test	290	20.53173333333333,20.54305,20.5544,20.565733333333334	t,t,t,t	<img class = center src='/static/experiments/beast_fmri_test/images/D.png'></img>	71,89	2750.0	test	<img class = center src='/static/experiments/beast_fmri_test/images/redD.png'></img>	go	1250.0	1.0	8.0	go	target	D	71,Green Button	89,Yellow Button	1500.0	1500.0	1250.0	1250.0	0.0	1500.0	0.0	n/a	go_stim
270641.32380412798	60.676195872	n/a	-1	-1	2750	60.676195872	stim	stop-signal	493	1234003	0.0-19.8-1.8	beast_fmri_test	290	20.53173333333333,20.54305,20.5544,20.565733333333334	t,t,t,t	<img class = center src='/static/experiments/beast_fmri_test/images/D.png'></img>	71,89	2750.0	test	<img class = center src='/static/experiments/beast_fmri_test/images/redD.png'></img>	go	1250.0	1.0	8.0	go	target	D	71,Green Button	89,Yellow Button	1500.0	1500.0	1250.0	1250.0	0.0	1500.0	0.0	n/a	ITI
271282.0	500.0	n/a	-1	-1	500	0.0	fixation	poldrack-single-stim	494	1234583	0.0-19.9-0.9	beast_fmri_test	290	n/a	n/a	<div class = centerbox><div class = fixation>+</div></div>	none	500.0	test	n/a	n/a	n/a	n/a	n/a	n/a	n/a	n/a	n/a	n/a	n/a	n/a	n/a	n/a	n/a	n/a	n/a	n/a	fixation
270778.45093601895	2750.0	n/a	-1	-1	2750	505.549063981	stim	stop-signal	495	1237335	0.0-19.9-1.9	beast_fmri_test	290	20.577066666666667,20.588383333333333,20.59975,20.61105,20.62238333333333	t,t,t,t,t	<img class = center src='/static/experiments/beast_fmri_test/images/V.png'></img>	71,89	2750.0	test	<img class = center src='/static/experiments/beast_fmri_test/images/redV.png'></img>	go	1250.0	1.0	9.0	go	non-target	V	71,Green Button	89,Yellow Button	1500.0	1500.0	1250.0	1250.0	0.0	1500.0	0.0	n/a	go_stim
273528.45093601895	505.549063981	n/a	-1	-1	2750	505.549063981	stim	stop-signal	495	1237335	0.0-19.9-1.9	beast_fmri_test	290	20.577066666666667,20.588383333333333,20.59975,20.61105,20.62238333333333	t,t,t,t,t	<img class = center src='/static/experiments/beast_fmri_test/images/V.png'></img>	71,89	2750.0	test	<img class = center src='/static/experiments/beast_fmri_test/images/redV.png'></img>	go	1250.0	1.0	9.0	go	non-target	V	71,Green Button	89,Yellow Button	1500.0	1500.0	1250.0	1250.0	0.0	1500.0	0.0	n/a	ITI
275063.0	500.0	n/a	-1	-1	500	0.0	fixation	poldrack-single-stim	496	1238364	0.0-19.10-0.10	beast_fmri_test	290	20.6337166666666	t	<div class = centerbox><div class = fixation>+</div></div>	none	500.0	test	n/a	n/a	n/a	n/a	n/a	n/a	n/a	n/a	n/a	n/a	n/a	n/a	n/a	n/a	n/a	n/a	n/a	n/a	fixation
273068.95272817276	2750.0	n/a	-1	-1	2750	1996.04727183	stim	stop-signal	497	1241116	0.0-19.10-1.10	beast_fmri_test	290	20.64505,20.656383333333334,20.667716666666667,20.67905,20.690383333333333,20.701716666666666,20.71305	t,t,t,t,t,t,t	<img class = center src='/static/experiments/beast_fmri_test/images/V.png'></img>	71,89	2750.0	test	<img class = center src='/static/experiments/beast_fmri_test/images/redV.png'></img>	go	1250.0	1.0	10.0	go	target	V	71,Green Button	89,Yellow Button	1500.0	1500.0	1250.0	1250.0	0.0	1500.0	0.0	n/a	go_stim
275818.95272817276	1996.04727183	n/a	-1	-1	2750	1996.04727183	stim	stop-signal	497	1241116	0.0-19.10-1.10	beast_fmri_test	290	20.64505,20.656383333333334,20.667716666666667,20.67905,20.690383333333333,20.701716666666666,20.71305	t,t,t,t,t,t,t	<img class = center src='/static/experiments/beast_fmri_test/images/V.png'></img>	71,89	2750.0	test	<img class = center src='/static/experiments/beast_fmri_test/images/redV.png'></img>	go	1250.0	1.0	10.0	go	target	V	71,Green Button	89,Yellow Button	1500.0	1500.0	1250.0	1250.0	0.0	1500.0	0.0	n/a	ITI
280336.0	500.0	n/a	-1	-1	500	0.0	fixation	poldrack-single-stim	498	1243637	0.0-19.11-0.11	beast_fmri_test	290	20.7243833333333	t	<div class = centerbox><div class = fixation>+</div></div>	none	500.0	test	n/a	n/a	n/a	n/a	n/a	n/a	n/a	n/a	n/a	n/a	n/a	n/a	n/a	n/a	n/a	n/a	n/a	n/a	fixation
280298.7143101464	1500.0	n/a	-1	-1	2750	39.2856898537	stim	stop-signal	499	1246389	0.0-19.11-1.11	beast_fmri_test	290	20.735716666666665,20.74705,20.758383333333335,20.769733333333335	t,t,t,t	<img class = center src='/static/experiments/beast_fmri_test/images/T.png'></img>	71,89	2750.0	test	<img class = center src='/static/experiments/beast_fmri_test/images/redT.png'></img>	stop	1250.0	1.0	11.0	stop	non-target	T	71,Green Button	89,Yellow Button	1500.0	1500.0	1250.0	1250.0	0.0	1500.0	0.0	1.0	go_stim
281548.7143101464	1250.0	n/a	-1	-1	2750	39.2856898537	stim	stop-signal	499	1246389	0.0-19.11-1.11	beast_fmri_test	290	20.735716666666665,20.74705,20.758383333333335,20.769733333333335	t,t,t,t	<img class = center src='/static/experiments/beast_fmri_test/images/T.png'></img>	71,89	2750.0	test	<img class = center src='/static/experiments/beast_fmri_test/images/redT.png'></img>	stop	1250.0	1.0	11.0	stop	non-target	T	71,Green Button	89,Yellow Button	1500.0	1500.0	1250.0	1250.0	0.0	1500.0	0.0	1.0	stop_stim
283048.7143101464	39.2856898537	n/a	-1	-1	2750	39.2856898537	stim	stop-signal	499	1246389	0.0-19.11-1.11	beast_fmri_test	290	20.735716666666665,20.74705,20.758383333333335,20.769733333333335	t,t,t,t	<img class = center src='/static/experiments/beast_fmri_test/images/T.png'></img>	71,89	2750.0	test	<img class = center src='/static/experiments/beast_fmri_test/images/redT.png'></img>	stop	1250.0	1.0	11.0	stop	non-target	T	71,Green Button	89,Yellow Button	1500.0	1500.0	1250.0	1250.0	0.0	1500.0	0.0	1.0	ITI
283648.0	500.0	n/a	-1	-1	500	0.0	fixation	poldrack-single-stim	500	1246949	0.0-19.12-0.12	beast_fmri_test	290	20.78105	t	<div class = centerbox><div class = fixation>+</div></div>	none	500.0	test	n/a	n/a	n/a	n/a	n/a	n/a	n/a	n/a	n/a	n/a	n/a	n/a	n/a	n/a	n/a	n/a	n/a	n/a	fixation
282900.14706064411	1500.0	n/a	-1	-1	2750	749.852939356	stim	stop-signal	501	1249701	0.0-19.12-1.12	beast_fmri_test	290	20.792383333333333,20.803716666666666,20.81505,20.826383333333332,20.837716666666665	t,t,t,t,t	<img class = center src='/static/experiments/beast_fmri_test/images/D.png'></img>	71,89	2750.0	test	<img class = center src='/static/experiments/beast_fmri_test/images/redD.png'></img>	stop	1250.0	1.0	12.0	stop	non-target	D	71,Green Button	89,Yellow Button	1500.0	1500.0	1250.0	1250.0	0.0	1500.0	0.0	1.0	go_stim
284150.14706064411	1250.0	n/a	-1	-1	2750	749.852939356	stim	stop-signal	501	1249701	0.0-19.12-1.12	beast_fmri_test	290	20.792383333333333,20.803716666666666,20.81505,20.826383333333332,20.837716666666665	t,t,t,t,t	<img class = center src='/static/experiments/beast_fmri_test/images/D.png'></img>	71,89	2750.0	test	<img class = center src='/static/experiments/beast_fmri_test/images/redD.png'></img>	stop	1250.0	1.0	12.0	stop	non-target	D	71,Green Button	89,Yellow Button	1500.0	1500.0	1250.0	1250.0	0.0	1500.0	0.0	1.0	stop_stim
285650.14706064411	749.852939356	n/a	-1	-1	2750	749.852939356	stim	stop-signal	501	1249701	0.0-19.12-1.12	beast_fmri_test	290	20.792383333333333,20.803716666666666,20.81505,20.826383333333332,20.837716666666665	t,t,t,t,t	<img class = center src='/static/experiments/beast_fmri_test/images/D.png'></img>	71,89	2750.0	test	<img class = center src='/static/experiments/beast_fmri_test/images/redD.png'></img>	stop	1250.0	1.0	12.0	stop	non-target	D	71,Green Button	89,Yellow Button	1500.0	1500.0	1250.0	1250.0	0.0	1500.0	0.0	1.0	ITI
287672.0	500.0	n/a	-1	-1	500	0.0	fixation	poldrack-single-stim	502	1250973	0.0-19.13-0.13	beast_fmri_test	290	20.8490666666666	t	<div class = centerbox><div class = fixation>+</div></div>	none	500.0	test	n/a	n/a	n/a	n/a	n/a	n/a	n/a	n/a	n/a	n/a	n/a	n/a	n/a	n/a	n/a	n/a	n/a	n/a	fixation
285168.53983103903	2750.0	n/a	-1	-1	2750	2504.46016896	stim	stop-signal	503	1253724	0.0-19.13-1.13	beast_fmri_test	290	20.860383333333335,20.871716666666668,20.88305,20.894383333333334,20.905716666666667,20.91705,20.928383333333333	t,t,t,t,t,t,t	<img class = center src='/static/experiments/beast_fmri_test/images/T.png'></img>	71,89	2750.0	test	<img class = center src='/static/experiments/beast_fmri_test/images/redT.png'></img>	go	1250.0	1.0	13.0	go	non-target	T	71,Green Button	89,Yellow Button	1500.0	1500.0	1250.0	1250.0	0.0	1500.0	0.0	n/a	go_stim
287918.53983103903	2504.46016896	n/a	-1	-1	2750	2504.46016896	stim	stop-signal	503	1253724	0.0-19.13-1.13	beast_fmri_test	290	20.860383333333335,20.871716666666668,20.88305,20.894383333333334,20.905716666666667,20.91705,20.928383333333333	t,t,t,t,t,t,t	<img class = center src='/static/experiments/beast_fmri_test/images/T.png'></img>	71,89	2750.0	test	<img class = center src='/static/experiments/beast_fmri_test/images/redT.png'></img>	go	1250.0	1.0	13.0	go	non-target	T	71,Green Button	89,Yellow Button	1500.0	1500.0	1250.0	1250.0	0.0	1500.0	0.0	n/a	ITI
293453.0	500.0	n/a	-1	-1	500	0.0	fixation	poldrack-single-stim	504	1256754	0.0-19.14-0.14	beast_fmri_test	290	20.9397333333333	t	<div class = centerbox><div class = fixation>+</div></div>	none	500.0	test	n/a	n/a	n/a	n/a	n/a	n/a	n/a	n/a	n/a	n/a	n/a	n/a	n/a	n/a	n/a	n/a	n/a	n/a	fixation
293345.31961151678	1500.0	n/a	-1	-1	2750	108.680388483	stim	stop-signal	505	1259505	0.0-19.14-1.14	beast_fmri_test	290	20.95105,20.96238333333333,20.973716666666668,20.98505	t,t,t,t	<img class = center src='/static/experiments/beast_fmri_test/images/B.png'></img>	71,89	2750.0	test	<img class = center src='/static/experiments/beast_fmri_test/images/redB.png'></img>	stop	1250.0	1.0	14.0	stop	non-target	B	71,Green Button	89,Yellow Button	1500.0	1500.0	1250.0	1250.0	0.0	1500.0	0.0	1.0	go_stim
294595.31961151678	1250.0	n/a	-1	-1	2750	108.680388483	stim	stop-signal	505	1259505	0.0-19.14-1.14	beast_fmri_test	290	20.95105,20.96238333333333,20.973716666666668,20.98505	t,t,t,t	<img class = center src='/static/experiments/beast_fmri_test/images/B.png'></img>	71,89	2750.0	test	<img class = center src='/static/experiments/beast_fmri_test/images/redB.png'></img>	stop	1250.0	1.0	14.0	stop	non-target	B	71,Green Button	89,Yellow Button	1500.0	1500.0	1250.0	1250.0	0.0	1500.0	0.0	1.0	stop_stim
296095.31961151678	108.680388483	n/a	-1	-1	2750	108.680388483	stim	stop-signal	505	1259505	0.0-19.14-1.14	beast_fmri_test	290	20.95105,20.96238333333333,20.973716666666668,20.98505	t,t,t,t	<img class = center src='/static/experiments/beast_fmri_test/images/B.png'></img>	71,89	2750.0	test	<img class = center src='/static/experiments/beast_fmri_test/images/redB.png'></img>	stop	1250.0	1.0	14.0	stop	non-target	B	71,Green Button	89,Yellow Button	1500.0	1500.0	1250.0	1250.0	0.0	1500.0	0.0	1.0	ITI
296837.0	500.0	n/a	-1	-1	500	0.0	fixation	poldrack-single-stim	506	1260138	0.0-19.15-0.15	beast_fmri_test	290	20.9964	t	<div class = centerbox><div class = fixation>+</div></div>	none	500.0	test	n/a	n/a	n/a	n/a	n/a	n/a	n/a	n/a	n/a	n/a	n/a	n/a	n/a	n/a	n/a	n/a	n/a	n/a	fixation
295740.62370399828	1500.0	n/a	-1	-1	2750	1098.376296	stim	stop-signal	507	1262890	0.0-19.15-1.15	beast_fmri_test	290	21.007733333333334,21.019066666666667,21.0304,21.041733333333333,21.053066666666666,21.0644	t,t,t,t,t,t	<img class = center src='/static/experiments/beast_fmri_test/images/P.png'></img>	71,89	2750.0	test	<img class = center src='/static/experiments/beast_fmri_test/images/redP.png'></img>	stop	1250.0	1.0	15.0	stop	non-target	P	71,Green Button	89,Yellow Button	1500.0	1500.0	1250.0	1250.0	0.0	1500.0	0.0	1.0	go_stim
296990.62370399828	1250.0	n/a	-1	-1	2750	1098.376296	stim	stop-signal	507	1262890	0.0-19.15-1.15	beast_fmri_test	290	21.007733333333334,21.019066666666667,21.0304,21.041733333333333,21.053066666666666,21.0644	t,t,t,t,t,t	<img class = center src='/static/experiments/beast_fmri_test/images/P.png'></img>	71,89	2750.0	test	<img class = center src='/static/experiments/beast_fmri_test/images/redP.png'></img>	stop	1250.0	1.0	15.0	stop	non-target	P	71,Green Button	89,Yellow Button	1500.0	1500.0	1250.0	1250.0	0.0	1500.0	0.0	1.0	stop_stim
298490.62370399828	1098.376296	n/a	-1	-1	2750	1098.376296	stim	stop-signal	507	1262890	0.0-19.15-1.15	beast_fmri_test	290	21.007733333333334,21.019066666666667,21.0304,21.041733333333333,21.053066666666666,21.0644	t,t,t,t,t,t	<img class = center src='/static/experiments/beast_fmri_test/images/P.png'></img>	71,89	2750.0	test	<img class = center src='/static/experiments/beast_fmri_test/images/redP.png'></img>	stop	1250.0	1.0	15.0	stop	non-target	P	71,Green Button	89,Yellow Button	1500.0	1500.0	1250.0	1250.0	0.0	1500.0	0.0	1.0	ITI
301208.0	500.0	n/a	-1	-1	500	0.0	fixation	poldrack-single-stim	508	1264509	0.0-19.16-0.16	beast_fmri_test	290	n/a	n/a	<div class = centerbox><div class = fixation>+</div></div>	none	500.0	test	n/a	n/a	n/a	n/a	n/a	n/a	n/a	n/a	n/a	n/a	n/a	n/a	n/a	n/a	n/a	n/a	n/a	n/a	fixation
299435.23499213229	1500.0	n/a	-1	-1	2750	1774.76500787	stim	stop-signal	509	1267261	0.0-19.16-1.16	beast_fmri_test	290	21.075733333333332,21.087066666666665,21.0984,21.10975,21.12105,21.1324,21.143733333333333	t,t,t,t,t,t,t	<img class = center src='/static/experiments/beast_fmri_test/images/P.png'></img>	71,89	2750.0	test	<img class = center src='/static/experiments/beast_fmri_test/images/redP.png'></img>	stop	1250.0	1.0	16.0	stop	target	P	71,Green Button	89,Yellow Button	1500.0	1500.0	1250.0	1250.0	0.0	1500.0	0.0	1.0	go_stim
300685.23499213229	1250.0	n/a	-1	-1	2750	1774.76500787	stim	stop-signal	509	1267261	0.0-19.16-1.16	beast_fmri_test	290	21.075733333333332,21.087066666666665,21.0984,21.10975,21.12105,21.1324,21.143733333333333	t,t,t,t,t,t,t	<img class = center src='/static/experiments/beast_fmri_test/images/P.png'></img>	71,89	2750.0	test	<img class = center src='/static/experiments/beast_fmri_test/images/redP.png'></img>	stop	1250.0	1.0	16.0	stop	target	P	71,Green Button	89,Yellow Button	1500.0	1500.0	1250.0	1250.0	0.0	1500.0	0.0	1.0	stop_stim
302185.23499213229	1774.76500787	n/a	-1	-1	2750	1774.76500787	stim	stop-signal	509	1267261	0.0-19.16-1.16	beast_fmri_test	290	21.075733333333332,21.087066666666665,21.0984,21.10975,21.12105,21.1324,21.143733333333333	t,t,t,t,t,t,t	<img class = center src='/static/experiments/beast_fmri_test/images/P.png'></img>	71,89	2750.0	test	<img class = center src='/static/experiments/beast_fmri_test/images/redP.png'></img>	stop	1250.0	1.0	16.0	stop	target	P	71,Green Button	89,Yellow Button	1500.0	1500.0	1250.0	1250.0	0.0	1500.0	0.0	1.0	ITI
306256.0	500.0	n/a	-1	-1	500	0.0	fixation	poldrack-single-stim	510	1269557	0.0-19.17-0.17	beast_fmri_test	290	21.1550666666666	t	<div class = centerbox><div class = fixation>+</div></div>	none	500.0	test	n/a	n/a	n/a	n/a	n/a	n/a	n/a	n/a	n/a	n/a	n/a	n/a	n/a	n/a	n/a	n/a	n/a	n/a	fixation
304309.52379225451	2750.0	n/a	-1	-1	2750	1947.47620775	stim	stop-signal	511	1272308	0.0-19.17-1.17	beast_fmri_test	290	21.1664,21.177733333333332,21.189066666666665,21.2004,21.211733333333335,21.223066666666668,21.2344	t,t,t,t,t,t,t	<img class = center src='/static/experiments/beast_fmri_test/images/P.png'></img>	71,89	2750.0	test	<img class = center src='/static/experiments/beast_fmri_test/images/redP.png'></img>	go	1250.0	1.0	17.0	go	target	P	71,Green Button	89,Yellow Button	1500.0	1500.0	1250.0	1250.0	0.0	1500.0	0.0	n/a	go_stim
307059.52379225451	1947.47620775	n/a	-1	-1	2750	1947.47620775	stim	stop-signal	511	1272308	0.0-19.17-1.17	beast_fmri_test	290	21.1664,21.177733333333332,21.189066666666665,21.2004,21.211733333333335,21.223066666666668,21.2344	t,t,t,t,t,t,t	<img class = center src='/static/experiments/beast_fmri_test/images/P.png'></img>	71,89	2750.0	test	<img class = center src='/static/experiments/beast_fmri_test/images/redP.png'></img>	go	1250.0	1.0	17.0	go	target	P	71,Green Button	89,Yellow Button	1500.0	1500.0	1250.0	1250.0	0.0	1500.0	0.0	n/a	ITI
311480.0	500.0	n/a	-1	-1	500	0.0	fixation	poldrack-single-stim	512	1274781	0.0-19.18-0.18	beast_fmri_test	290	21.2457333333333	t	<div class = centerbox><div class = fixation>+</div></div>	none	500.0	test	n/a	n/a	n/a	n/a	n/a	n/a	n/a	n/a	n/a	n/a	n/a	n/a	n/a	n/a	n/a	n/a	n/a	n/a	fixation
