onset	duration	text	rt	key_press	block_duration	timing_post_trial	trial_id	trial_type	trial_index	time_elapsed	internal_node_id	exp_id	subject_id	trigger_times	triggers	stimulus	possible_responses	stim_duration	exp_stage	SS_stimulus	SS_trial_type	SS_duration	load	trial_num	stop_trial_type	adaptive_trial_type	stim	yes_response_key	no_response_key	SSD_target	SSD_non_target	SSTarget	SSNonTarget	go_acc	SS_delay	adaptive_acc	stop_acc	new_trial_type
test	10880.0	n/a	-1	-1	10880	0.0	practice-no-stop-feedback	poldrack-single-stim	570	1477821	0.0-22.0	beast_fmri_test	290	24.449,24.460333333333335,24.47165,24.482983333333333,24.494316666666666,24.50565,24.517,24.528316666666665,24.53965,24.550983333333335,24.562316666666668,24.573666666666668,24.584983333333334,24.596316666666667,24.60765,24.618983333333333	t,t,t,t,t,t,t,t,t,t,t,t,t,t,t,t	"<div class = ""centerbox""><p class = ""center-block-text"">Your delay is 1 trials.</p><p class = center-block-text>Please wait for the scanner to start the block</p></div>"	77	10880.0	n/a	n/a	n/a	n/a	n/a	n/a	n/a	n/a	n/a	n/a	n/a	n/a	n/a	n/a	n/a	n/a	n/a	n/a	n/a	start_functional_block
11382.0	500.0	n/a	-1	-1	500	0.0	fixation	poldrack-single-stim	571	1478322	0.0-23.0-0.0	beast_fmri_test	290	24.6303666666666	t	<div class = centerbox><div class = fixation>+</div></div>	none	500.0	test	n/a	n/a	n/a	n/a	n/a	n/a	n/a	n/a	n/a	n/a	n/a	n/a	n/a	n/a	n/a	n/a	n/a	n/a	fixation
9047.4736351261381	2750.0	n/a	976	89	2750	2336.52636487	stim	stop-signal	572	1481074	0.0-23.0-1.0	beast_fmri_test	290	24.64165,24.652983333333335,24.664316666666668,24.67565,24.686983333333334,24.698316666666667,24.70965,24.720983333333333	t,t,t,t,t,t,t,t	<img class = center src='/static/experiments/beast_fmri_test/images/D.png'></img>	71,89	2750.0	test	<img class = center src='/static/experiments/beast_fmri_test/images/redD.png'></img>	go	-1.0	1.0	0.0	go	temp-non-target	D	71,Green Button	89,Yellow Button	1500.0	1500.0	1250.0	1250.0	0.0	n/a	n/a	n/a	go_stim
11797.473635126138	2336.52636487	n/a	976	89	2750	2336.52636487	stim	stop-signal	572	1481074	0.0-23.0-1.0	beast_fmri_test	290	24.64165,24.652983333333335,24.664316666666668,24.67565,24.686983333333334,24.698316666666667,24.70965,24.720983333333333	t,t,t,t,t,t,t,t	<img class = center src='/static/experiments/beast_fmri_test/images/D.png'></img>	71,89	2750.0	test	<img class = center src='/static/experiments/beast_fmri_test/images/redD.png'></img>	go	-1.0	1.0	0.0	go	temp-non-target	D	71,Green Button	89,Yellow Button	1500.0	1500.0	1250.0	1250.0	0.0	n/a	n/a	n/a	ITI
16998.0	500.0	n/a	-1	-1	500	0.0	fixation	poldrack-single-stim	573	1483938	0.0-23.1-0.1	beast_fmri_test	290	n/a	n/a	<div class = centerbox><div class = fixation>+</div></div>	none	500.0	test	n/a	n/a	n/a	n/a	n/a	n/a	n/a	n/a	n/a	n/a	n/a	n/a	n/a	n/a	n/a	n/a	n/a	n/a	fixation
16420.055332077201	2750.0	n/a	1099	71	2750	579.944667923	stim	stop-signal	574	1486690	0.0-23.1-1.1	beast_fmri_test	290	24.732316666666666,24.74365,24.754983333333332,24.76631666666667,24.77765	t,t,t,t,t	<img class = center src='/static/experiments/beast_fmri_test/images/D.png'></img>	71,89	2750.0	test	<img class = center src='/static/experiments/beast_fmri_test/images/redD.png'></img>	go	1250.0	1.0	1.0	go	target	D	71,Green Button	89,Yellow Button	1500.0	1500.0	1250.0	1250.0	1.0	1500.0	1.0	n/a	go_stim
19170.055332077201	579.944667923	n/a	1099	71	2750	579.944667923	stim	stop-signal	574	1486690	0.0-23.1-1.1	beast_fmri_test	290	24.732316666666666,24.74365,24.754983333333332,24.76631666666667,24.77765	t,t,t,t,t	<img class = center src='/static/experiments/beast_fmri_test/images/D.png'></img>	71,89	2750.0	test	<img class = center src='/static/experiments/beast_fmri_test/images/redD.png'></img>	go	1250.0	1.0	1.0	go	target	D	71,Green Button	89,Yellow Button	1500.0	1500.0	1250.0	1250.0	1.0	1500.0	1.0	n/a	ITI
20854.0	500.0	n/a	-1	-1	500	0.0	fixation	poldrack-single-stim	575	1487794	0.0-23.2-0.2	beast_fmri_test	290	24.789	t	<div class = centerbox><div class = fixation>+</div></div>	none	500.0	test	n/a	n/a	n/a	n/a	n/a	n/a	n/a	n/a	n/a	n/a	n/a	n/a	n/a	n/a	n/a	n/a	n/a	n/a	fixation
20811.53254903038	2750.0	n/a	1497	89	2750	44.4674509697	stim	stop-signal	576	1490546	0.0-23.2-1.2	beast_fmri_test	290	24.80035,24.811666666666667,24.823,24.834333333333333	t,t,t,t	<img class = center src='/static/experiments/beast_fmri_test/images/P.png'></img>	71,89	2750.0	test	<img class = center src='/static/experiments/beast_fmri_test/images/redP.png'></img>	go	1250.0	1.0	2.0	go	non-target	P	71,Green Button	89,Yellow Button	1500.0	1500.0	1250.0	1250.0	1.0	1500.0	1.0	n/a	go_stim
23561.53254903038	44.4674509697	n/a	1497	89	2750	44.4674509697	stim	stop-signal	576	1490546	0.0-23.2-1.2	beast_fmri_test	290	24.80035,24.811666666666667,24.823,24.834333333333333	t,t,t,t	<img class = center src='/static/experiments/beast_fmri_test/images/P.png'></img>	71,89	2750.0	test	<img class = center src='/static/experiments/beast_fmri_test/images/redP.png'></img>	go	1250.0	1.0	2.0	go	non-target	P	71,Green Button	89,Yellow Button	1500.0	1500.0	1250.0	1250.0	1.0	1500.0	1.0	n/a	ITI
24177.0	500.0	n/a	-1	-1	500	0.0	fixation	poldrack-single-stim	577	1491117	0.0-23.3-0.3	beast_fmri_test	290	24.8456666666666	t	<div class = centerbox><div class = fixation>+</div></div>	none	500.0	test	n/a	n/a	n/a	n/a	n/a	n/a	n/a	n/a	n/a	n/a	n/a	n/a	n/a	n/a	n/a	n/a	n/a	n/a	fixation
22348.009259732906	2750.0	n/a	1724	89	2750	1829.99074027	stim	stop-signal	578	1493868	0.0-23.3-1.3	beast_fmri_test	290	24.857,24.868333333333332,24.879666666666665,24.891,24.902333333333335,24.913666666666668,24.925	t,t,t,t,t,t,t	<img class = center src='/static/experiments/beast_fmri_test/images/T.png'></img>	71,89	2750.0	test	<img class = center src='/static/experiments/beast_fmri_test/images/redT.png'></img>	go	1250.0	1.0	3.0	go	non-target	T	71,Green Button	89,Yellow Button	1500.0	1500.0	1250.0	1250.0	1.0	1500.0	1.0	n/a	go_stim
25098.009259732906	1829.99074027	n/a	1724	89	2750	1829.99074027	stim	stop-signal	578	1493868	0.0-23.3-1.3	beast_fmri_test	290	24.857,24.868333333333332,24.879666666666665,24.891,24.902333333333335,24.913666666666668,24.925	t,t,t,t,t,t,t	<img class = center src='/static/experiments/beast_fmri_test/images/T.png'></img>	71,89	2750.0	test	<img class = center src='/static/experiments/beast_fmri_test/images/redT.png'></img>	go	1250.0	1.0	3.0	go	non-target	T	71,Green Button	89,Yellow Button	1500.0	1500.0	1250.0	1250.0	1.0	1500.0	1.0	n/a	ITI
29281.0	500.0	n/a	-1	-1	500	0.0	fixation	poldrack-single-stim	579	1496221	0.0-23.4-0.4	beast_fmri_test	290	24.9363333333333	t	<div class = centerbox><div class = fixation>+</div></div>	none	500.0	test	n/a	n/a	n/a	n/a	n/a	n/a	n/a	n/a	n/a	n/a	n/a	n/a	n/a	n/a	n/a	n/a	n/a	n/a	fixation
28496.537023059092	2750.0	n/a	1419	89	2750	786.462976941	stim	stop-signal	580	1498973	0.0-23.4-1.4	beast_fmri_test	290	24.947666666666667,24.959,24.97035,24.981666666666666,24.993	t,t,t,t,t	<img class = center src='/static/experiments/beast_fmri_test/images/B.png'></img>	71,89	2750.0	test	<img class = center src='/static/experiments/beast_fmri_test/images/redB.png'></img>	go	1250.0	1.0	4.0	go	non-target	B	71,Green Button	89,Yellow Button	1500.0	1500.0	1250.0	1250.0	1.0	1500.0	1.0	n/a	go_stim
31246.537023059092	786.462976941	n/a	1419	89	2750	786.462976941	stim	stop-signal	580	1498973	0.0-23.4-1.4	beast_fmri_test	290	24.947666666666667,24.959,24.97035,24.981666666666666,24.993	t,t,t,t,t	<img class = center src='/static/experiments/beast_fmri_test/images/B.png'></img>	71,89	2750.0	test	<img class = center src='/static/experiments/beast_fmri_test/images/redB.png'></img>	go	1250.0	1.0	4.0	go	non-target	B	71,Green Button	89,Yellow Button	1500.0	1500.0	1250.0	1250.0	1.0	1500.0	1.0	n/a	ITI
33345.0	500.0	n/a	-1	-1	500	0.0	fixation	poldrack-single-stim	581	1500285	0.0-23.5-0.5	beast_fmri_test	290	25.0043333333333	t	<div class = centerbox><div class = fixation>+</div></div>	none	500.0	test	n/a	n/a	n/a	n/a	n/a	n/a	n/a	n/a	n/a	n/a	n/a	n/a	n/a	n/a	n/a	n/a	n/a	n/a	fixation
31640.185788334347	2750.0	n/a	1459	89	2750	1706.81421167	stim	stop-signal	582	1503037	0.0-23.5-1.5	beast_fmri_test	290	25.015666666666668,25.027,25.038333333333334,25.049666666666667,25.061,25.072316666666666	t,t,t,t,t,t	<img class = center src='/static/experiments/beast_fmri_test/images/T.png'></img>	71,89	2750.0	test	<img class = center src='/static/experiments/beast_fmri_test/images/redT.png'></img>	go	1250.0	1.0	5.0	go	non-target	T	71,Green Button	89,Yellow Button	1500.0	1500.0	1250.0	1250.0	1.0	1500.0	1.0	n/a	go_stim
34390.185788334347	1706.81421167	n/a	1459	89	2750	1706.81421167	stim	stop-signal	582	1503037	0.0-23.5-1.5	beast_fmri_test	290	25.015666666666668,25.027,25.038333333333334,25.049666666666667,25.061,25.072316666666666	t,t,t,t,t,t	<img class = center src='/static/experiments/beast_fmri_test/images/T.png'></img>	71,89	2750.0	test	<img class = center src='/static/experiments/beast_fmri_test/images/redT.png'></img>	go	1250.0	1.0	5.0	go	non-target	T	71,Green Button	89,Yellow Button	1500.0	1500.0	1250.0	1250.0	1.0	1500.0	1.0	n/a	ITI
38327.0	500.0	n/a	-1	-1	500	0.0	fixation	poldrack-single-stim	583	1505267	0.0-23.6-0.6	beast_fmri_test	290	25.0836666666666	t	<div class = centerbox><div class = fixation>+</div></div>	none	500.0	test	n/a	n/a	n/a	n/a	n/a	n/a	n/a	n/a	n/a	n/a	n/a	n/a	n/a	n/a	n/a	n/a	n/a	n/a	fixation
37423.970629767049	2750.0	n/a	1066	89	2750	905.029370233	stim	stop-signal	584	1508019	0.0-23.6-1.6	beast_fmri_test	290	25.095,25.106333333333332,25.11766666666667,25.128983333333334,25.140333333333334	t,t,t,t,t	<img class = center src='/static/experiments/beast_fmri_test/images/P.png'></img>	71,89	2750.0	test	<img class = center src='/static/experiments/beast_fmri_test/images/redP.png'></img>	go	1250.0	1.0	6.0	go	non-target	P	71,Green Button	89,Yellow Button	1500.0	1500.0	1250.0	1250.0	1.0	1500.0	1.0	n/a	go_stim
40173.970629767049	905.029370233	n/a	1066	89	2750	905.029370233	stim	stop-signal	584	1508019	0.0-23.6-1.6	beast_fmri_test	290	25.095,25.106333333333332,25.11766666666667,25.128983333333334,25.140333333333334	t,t,t,t,t	<img class = center src='/static/experiments/beast_fmri_test/images/P.png'></img>	71,89	2750.0	test	<img class = center src='/static/experiments/beast_fmri_test/images/redP.png'></img>	go	1250.0	1.0	6.0	go	non-target	P	71,Green Button	89,Yellow Button	1500.0	1500.0	1250.0	1250.0	1.0	1500.0	1.0	n/a	ITI
42507.0	500.0	n/a	-1	-1	500	0.0	fixation	poldrack-single-stim	585	1509447	0.0-23.7-0.7	beast_fmri_test	290	25.1516666666666	t	<div class = centerbox><div class = fixation>+</div></div>	none	500.0	test	n/a	n/a	n/a	n/a	n/a	n/a	n/a	n/a	n/a	n/a	n/a	n/a	n/a	n/a	n/a	n/a	n/a	n/a	fixation
42059.837422002805	1500.0	n/a	1460	89	2750	449.162577997	stim	stop-signal	586	1512199	0.0-23.7-1.7	beast_fmri_test	290	25.162983333333333,25.174333333333333,25.18565,25.196983333333332,25.208333333333332	t,t,t,t,t	<img class = center src='/static/experiments/beast_fmri_test/images/V.png'></img>	71,89	2750.0	test	<img class = center src='/static/experiments/beast_fmri_test/images/redV.png'></img>	stop	1250.0	1.0	7.0	stop	non-target	V	71,Green Button	89,Yellow Button	1500.0	1500.0	1250.0	1250.0	0.0	1500.0	1.0	0.0	go_stim
43309.837422002805	1250.0	n/a	1460	89	2750	449.162577997	stim	stop-signal	586	1512199	0.0-23.7-1.7	beast_fmri_test	290	25.162983333333333,25.174333333333333,25.18565,25.196983333333332,25.208333333333332	t,t,t,t,t	<img class = center src='/static/experiments/beast_fmri_test/images/V.png'></img>	71,89	2750.0	test	<img class = center src='/static/experiments/beast_fmri_test/images/redV.png'></img>	stop	1250.0	1.0	7.0	stop	non-target	V	71,Green Button	89,Yellow Button	1500.0	1500.0	1250.0	1250.0	0.0	1500.0	1.0	0.0	stop_stim
44809.837422002805	449.162577997	n/a	1460	89	2750	449.162577997	stim	stop-signal	586	1512199	0.0-23.7-1.7	beast_fmri_test	290	25.162983333333333,25.174333333333333,25.18565,25.196983333333332,25.208333333333332	t,t,t,t,t	<img class = center src='/static/experiments/beast_fmri_test/images/V.png'></img>	71,89	2750.0	test	<img class = center src='/static/experiments/beast_fmri_test/images/redV.png'></img>	stop	1250.0	1.0	7.0	stop	non-target	V	71,Green Button	89,Yellow Button	1500.0	1500.0	1250.0	1250.0	0.0	1500.0	1.0	0.0	ITI
46233.0	500.0	n/a	-1	-1	500	0.0	fixation	poldrack-single-stim	587	1513173	0.0-23.8-0.8	beast_fmri_test	290	n/a	n/a	<div class = centerbox><div class = fixation>+</div></div>	none	500.0	test	n/a	n/a	n/a	n/a	n/a	n/a	n/a	n/a	n/a	n/a	n/a	n/a	n/a	n/a	n/a	n/a	n/a	n/a	fixation
45090.490426249802	2750.0	n/a	1838	89	2750	1143.50957375	stim	stop-signal	588	1515924	0.0-23.8-1.8	beast_fmri_test	290	25.21965,25.230983333333334,25.242316666666667,25.25365,25.264983333333333,25.276316666666666	t,t,t,t,t,t	<img class = center src='/static/experiments/beast_fmri_test/images/P.png'></img>	71,89	2750.0	test	<img class = center src='/static/experiments/beast_fmri_test/images/redP.png'></img>	go	1300.0	1.0	8.0	go	non-target	P	71,Green Button	89,Yellow Button	1500.0	1450.0	1250.0	1300.0	1.0	1450.0	1.0	n/a	go_stim
47840.490426249802	1143.50957375	n/a	1838	89	2750	1143.50957375	stim	stop-signal	588	1515924	0.0-23.8-1.8	beast_fmri_test	290	25.21965,25.230983333333334,25.242316666666667,25.25365,25.264983333333333,25.276316666666666	t,t,t,t,t,t	<img class = center src='/static/experiments/beast_fmri_test/images/P.png'></img>	71,89	2750.0	test	<img class = center src='/static/experiments/beast_fmri_test/images/redP.png'></img>	go	1300.0	1.0	8.0	go	non-target	P	71,Green Button	89,Yellow Button	1500.0	1450.0	1250.0	1300.0	1.0	1450.0	1.0	n/a	ITI
50653.0	500.0	n/a	-1	-1	500	0.0	fixation	poldrack-single-stim	589	1517593	0.0-23.9-0.9	beast_fmri_test	290	25.2876666666666	t	<div class = centerbox><div class = fixation>+</div></div>	none	500.0	test	n/a	n/a	n/a	n/a	n/a	n/a	n/a	n/a	n/a	n/a	n/a	n/a	n/a	n/a	n/a	n/a	n/a	n/a	fixation
50482.968153692316	1450.0	n/a	-1	-1	2750	172.031846308	stim	stop-signal	590	1520345	0.0-23.9-1.9	beast_fmri_test	290	25.299,25.310333333333332,25.321666666666665,25.332983333333335	t,t,t,t	<img class = center src='/static/experiments/beast_fmri_test/images/V.png'></img>	71,89	2750.0	test	<img class = center src='/static/experiments/beast_fmri_test/images/redV.png'></img>	stop	1300.0	1.0	9.0	stop	non-target	V	71,Green Button	89,Yellow Button	1500.0	1450.0	1250.0	1300.0	0.0	1450.0	0.0	1.0	go_stim
51782.968153692316	1300.0	n/a	-1	-1	2750	172.031846308	stim	stop-signal	590	1520345	0.0-23.9-1.9	beast_fmri_test	290	25.299,25.310333333333332,25.321666666666665,25.332983333333335	t,t,t,t	<img class = center src='/static/experiments/beast_fmri_test/images/V.png'></img>	71,89	2750.0	test	<img class = center src='/static/experiments/beast_fmri_test/images/redV.png'></img>	stop	1300.0	1.0	9.0	stop	non-target	V	71,Green Button	89,Yellow Button	1500.0	1450.0	1250.0	1300.0	0.0	1450.0	0.0	1.0	stop_stim
53232.968153692316	172.031846308	n/a	-1	-1	2750	172.031846308	stim	stop-signal	590	1520345	0.0-23.9-1.9	beast_fmri_test	290	25.299,25.310333333333332,25.321666666666665,25.332983333333335	t,t,t,t	<img class = center src='/static/experiments/beast_fmri_test/images/V.png'></img>	71,89	2750.0	test	<img class = center src='/static/experiments/beast_fmri_test/images/redV.png'></img>	stop	1300.0	1.0	9.0	stop	non-target	V	71,Green Button	89,Yellow Button	1500.0	1450.0	1250.0	1300.0	0.0	1450.0	0.0	1.0	ITI
54102.0	500.0	n/a	-1	-1	500	0.0	fixation	poldrack-single-stim	591	1521042	0.0-23.10-0.10	beast_fmri_test	290	25.3443166666666	t	<div class = centerbox><div class = fixation>+</div></div>	none	500.0	test	n/a	n/a	n/a	n/a	n/a	n/a	n/a	n/a	n/a	n/a	n/a	n/a	n/a	n/a	n/a	n/a	n/a	n/a	fixation
53583.674991540378	2750.0	n/a	1565	89	2750	520.32500846	stim	stop-signal	592	1523794	0.0-23.10-1.10	beast_fmri_test	290	25.35568333333333,25.367,25.378333333333334,25.389666666666667,25.401	t,t,t,t,t	<img class = center src='/static/experiments/beast_fmri_test/images/T.png'></img>	71,89	2750.0	test	<img class = center src='/static/experiments/beast_fmri_test/images/redT.png'></img>	go	1250.0	1.0	10.0	go	non-target	T	71,Green Button	89,Yellow Button	1500.0	1500.0	1250.0	1250.0	1.0	1500.0	1.0	n/a	go_stim
56333.674991540378	520.32500846	n/a	1565	89	2750	520.32500846	stim	stop-signal	592	1523794	0.0-23.10-1.10	beast_fmri_test	290	25.35568333333333,25.367,25.378333333333334,25.389666666666667,25.401	t,t,t,t,t	<img class = center src='/static/experiments/beast_fmri_test/images/T.png'></img>	71,89	2750.0	test	<img class = center src='/static/experiments/beast_fmri_test/images/redT.png'></img>	go	1250.0	1.0	10.0	go	non-target	T	71,Green Button	89,Yellow Button	1500.0	1500.0	1250.0	1250.0	1.0	1500.0	1.0	n/a	ITI
57899.0	500.0	n/a	-1	-1	500	0.0	fixation	poldrack-single-stim	593	1524839	0.0-23.11-0.11	beast_fmri_test	290	25.4123333333333	t	<div class = centerbox><div class = fixation>+</div></div>	none	500.0	test	n/a	n/a	n/a	n/a	n/a	n/a	n/a	n/a	n/a	n/a	n/a	n/a	n/a	n/a	n/a	n/a	n/a	n/a	fixation
57374.810807520058	2750.0	n/a	1324	89	2750	526.18919248	stim	stop-signal	594	1527591	0.0-23.11-1.11	beast_fmri_test	290	25.423666666666666,25.435,25.44633333333333,25.457666666666668	t,t,t,t	<img class = center src='/static/experiments/beast_fmri_test/images/D.png'></img>	71,89	2750.0	test	<img class = center src='/static/experiments/beast_fmri_test/images/redD.png'></img>	go	1250.0	1.0	11.0	go	non-target	D	71,Green Button	89,Yellow Button	1500.0	1500.0	1250.0	1250.0	1.0	1500.0	1.0	n/a	go_stim
60124.810807520058	526.18919248	n/a	1324	89	2750	526.18919248	stim	stop-signal	594	1527591	0.0-23.11-1.11	beast_fmri_test	290	25.423666666666666,25.435,25.44633333333333,25.457666666666668	t,t,t,t	<img class = center src='/static/experiments/beast_fmri_test/images/D.png'></img>	71,89	2750.0	test	<img class = center src='/static/experiments/beast_fmri_test/images/redD.png'></img>	go	1250.0	1.0	11.0	go	non-target	D	71,Green Button	89,Yellow Button	1500.0	1500.0	1250.0	1250.0	1.0	1500.0	1.0	n/a	ITI
61707.0	500.0	n/a	-1	-1	500	0.0	fixation	poldrack-single-stim	595	1528647	0.0-23.12-0.12	beast_fmri_test	290	25.4691166666666	t	<div class = centerbox><div class = fixation>+</div></div>	none	500.0	test	n/a	n/a	n/a	n/a	n/a	n/a	n/a	n/a	n/a	n/a	n/a	n/a	n/a	n/a	n/a	n/a	n/a	n/a	fixation
61147.854193509091	2750.0	n/a	1706	71	2750	561.145806491	stim	stop-signal	596	1531399	0.0-23.12-1.12	beast_fmri_test	290	25.48035,25.491666666666667,25.503,25.514333333333333,25.525666666666666	t,t,t,t,t	<img class = center src='/static/experiments/beast_fmri_test/images/D.png'></img>	71,89	2750.0	test	<img class = center src='/static/experiments/beast_fmri_test/images/redD.png'></img>	go	1250.0	1.0	12.0	go	target	D	71,Green Button	89,Yellow Button	1500.0	1500.0	1250.0	1250.0	1.0	1500.0	1.0	n/a	go_stim
63897.854193509091	561.145806491	n/a	1706	71	2750	561.145806491	stim	stop-signal	596	1531399	0.0-23.12-1.12	beast_fmri_test	290	25.48035,25.491666666666667,25.503,25.514333333333333,25.525666666666666	t,t,t,t,t	<img class = center src='/static/experiments/beast_fmri_test/images/D.png'></img>	71,89	2750.0	test	<img class = center src='/static/experiments/beast_fmri_test/images/redD.png'></img>	go	1250.0	1.0	12.0	go	target	D	71,Green Button	89,Yellow Button	1500.0	1500.0	1250.0	1250.0	1.0	1500.0	1.0	n/a	ITI
65545.0	500.0	n/a	-1	-1	500	0.0	fixation	poldrack-single-stim	597	1532485	0.0-23.13-0.13	beast_fmri_test	290	25.537	t	<div class = centerbox><div class = fixation>+</div></div>	none	500.0	test	n/a	n/a	n/a	n/a	n/a	n/a	n/a	n/a	n/a	n/a	n/a	n/a	n/a	n/a	n/a	n/a	n/a	n/a	fixation
64975.486098356079	1500.0	n/a	1430	89	2750	570.513901644	stim	stop-signal	598	1535236	0.0-23.13-1.13	beast_fmri_test	290	25.548333333333332,25.559666666666665,25.571,25.582333333333334,25.593666666666667	t,t,t,t,t	<img class = center src='/static/experiments/beast_fmri_test/images/T.png'></img>	71,89	2750.0	test	<img class = center src='/static/experiments/beast_fmri_test/images/redT.png'></img>	stop	1250.0	1.0	13.0	stop	non-target	T	71,Green Button	89,Yellow Button	1500.0	1500.0	1250.0	1250.0	0.0	1500.0	1.0	0.0	go_stim
66225.486098356079	1250.0	n/a	1430	89	2750	570.513901644	stim	stop-signal	598	1535236	0.0-23.13-1.13	beast_fmri_test	290	25.548333333333332,25.559666666666665,25.571,25.582333333333334,25.593666666666667	t,t,t,t,t	<img class = center src='/static/experiments/beast_fmri_test/images/T.png'></img>	71,89	2750.0	test	<img class = center src='/static/experiments/beast_fmri_test/images/redT.png'></img>	stop	1250.0	1.0	13.0	stop	non-target	T	71,Green Button	89,Yellow Button	1500.0	1500.0	1250.0	1250.0	0.0	1500.0	1.0	0.0	stop_stim
67725.486098356079	570.513901644	n/a	1430	89	2750	570.513901644	stim	stop-signal	598	1535236	0.0-23.13-1.13	beast_fmri_test	290	25.548333333333332,25.559666666666665,25.571,25.582333333333334,25.593666666666667	t,t,t,t,t	<img class = center src='/static/experiments/beast_fmri_test/images/T.png'></img>	71,89	2750.0	test	<img class = center src='/static/experiments/beast_fmri_test/images/redT.png'></img>	stop	1250.0	1.0	13.0	stop	non-target	T	71,Green Button	89,Yellow Button	1500.0	1500.0	1250.0	1250.0	0.0	1500.0	1.0	0.0	ITI
69392.0	500.0	n/a	-1	-1	500	0.0	fixation	poldrack-single-stim	599	1536332	0.0-23.14-0.14	beast_fmri_test	290	25.605	t	<div class = centerbox><div class = fixation>+</div></div>	none	500.0	test	n/a	n/a	n/a	n/a	n/a	n/a	n/a	n/a	n/a	n/a	n/a	n/a	n/a	n/a	n/a	n/a	n/a	n/a	fixation
68869.139980616746	2750.0	n/a	1584	71	2750	524.860019383	stim	stop-signal	600	1539084	0.0-23.14-1.14	beast_fmri_test	290	25.616333333333333,25.627666666666666,25.639,25.65035	t,t,t,t	<img class = center src='/static/experiments/beast_fmri_test/images/T.png'></img>	71,89	2750.0	test	<img class = center src='/static/experiments/beast_fmri_test/images/redT.png'></img>	go	1250.0	1.0	14.0	go	target	T	71,Green Button	89,Yellow Button	1500.0	1450.0	1250.0	1250.0	1.0	1500.0	1.0	n/a	go_stim
71619.139980616746	524.860019383	n/a	1584	71	2750	524.860019383	stim	stop-signal	600	1539084	0.0-23.14-1.14	beast_fmri_test	290	25.616333333333333,25.627666666666666,25.639,25.65035	t,t,t,t	<img class = center src='/static/experiments/beast_fmri_test/images/T.png'></img>	71,89	2750.0	test	<img class = center src='/static/experiments/beast_fmri_test/images/redT.png'></img>	go	1250.0	1.0	14.0	go	target	T	71,Green Button	89,Yellow Button	1500.0	1450.0	1250.0	1250.0	1.0	1500.0	1.0	n/a	ITI
73198.0	500.0	n/a	-1	-1	500	0.0	fixation	poldrack-single-stim	601	1540138	0.0-23.15-0.15	beast_fmri_test	290	25.6616666666666	t	<div class = centerbox><div class = fixation>+</div></div>	none	500.0	test	n/a	n/a	n/a	n/a	n/a	n/a	n/a	n/a	n/a	n/a	n/a	n/a	n/a	n/a	n/a	n/a	n/a	n/a	fixation
71806.223244055407	2750.0	n/a	1784	71	2750	1393.77675594	stim	stop-signal	602	1542890	0.0-23.15-1.15	beast_fmri_test	290	25.673,25.684333333333335,25.695666666666668,25.707,25.718333333333334,25.729666666666667	t,t,t,t,t,t	<img class = center src='/static/experiments/beast_fmri_test/images/T.png'></img>	71,89	2750.0	test	<img class = center src='/static/experiments/beast_fmri_test/images/redT.png'></img>	go	1250.0	1.0	15.0	go	target	T	71,Green Button	89,Yellow Button	1500.0	1450.0	1250.0	1250.0	1.0	1500.0	1.0	n/a	go_stim
74556.223244055407	1393.77675594	n/a	1784	71	2750	1393.77675594	stim	stop-signal	602	1542890	0.0-23.15-1.15	beast_fmri_test	290	25.673,25.684333333333335,25.695666666666668,25.707,25.718333333333334,25.729666666666667	t,t,t,t,t,t	<img class = center src='/static/experiments/beast_fmri_test/images/T.png'></img>	71,89	2750.0	test	<img class = center src='/static/experiments/beast_fmri_test/images/redT.png'></img>	go	1250.0	1.0	15.0	go	target	T	71,Green Button	89,Yellow Button	1500.0	1450.0	1250.0	1250.0	1.0	1500.0	1.0	n/a	ITI
77867.0	500.0	n/a	-1	-1	500	0.0	fixation	poldrack-single-stim	603	1544807	0.0-23.16-0.16	beast_fmri_test	290	25.741	t	<div class = centerbox><div class = fixation>+</div></div>	none	500.0	test	n/a	n/a	n/a	n/a	n/a	n/a	n/a	n/a	n/a	n/a	n/a	n/a	n/a	n/a	n/a	n/a	n/a	n/a	fixation
76406.571613180917	1450.0	n/a	-1	-1	2750	1462.42838682	stim	stop-signal	604	1547559	0.0-23.16-1.16	beast_fmri_test	290	25.752333333333333,25.763666666666666,25.775,25.786333333333335,25.797666666666668,25.809	t,t,t,t,t,t	<img class = center src='/static/experiments/beast_fmri_test/images/P.png'></img>	71,89	2750.0	test	<img class = center src='/static/experiments/beast_fmri_test/images/redP.png'></img>	stop	1300.0	1.0	16.0	stop	non-target	P	71,Green Button	89,Yellow Button	1500.0	1450.0	1250.0	1300.0	0.0	1450.0	0.0	1.0	go_stim
77706.571613180917	1300.0	n/a	-1	-1	2750	1462.42838682	stim	stop-signal	604	1547559	0.0-23.16-1.16	beast_fmri_test	290	25.752333333333333,25.763666666666666,25.775,25.786333333333335,25.797666666666668,25.809	t,t,t,t,t,t	<img class = center src='/static/experiments/beast_fmri_test/images/P.png'></img>	71,89	2750.0	test	<img class = center src='/static/experiments/beast_fmri_test/images/redP.png'></img>	stop	1300.0	1.0	16.0	stop	non-target	P	71,Green Button	89,Yellow Button	1500.0	1450.0	1250.0	1300.0	0.0	1450.0	0.0	1.0	stop_stim
79156.571613180917	1462.42838682	n/a	-1	-1	2750	1462.42838682	stim	stop-signal	604	1547559	0.0-23.16-1.16	beast_fmri_test	290	25.752333333333333,25.763666666666666,25.775,25.786333333333335,25.797666666666668,25.809	t,t,t,t,t,t	<img class = center src='/static/experiments/beast_fmri_test/images/P.png'></img>	71,89	2750.0	test	<img class = center src='/static/experiments/beast_fmri_test/images/redP.png'></img>	stop	1300.0	1.0	16.0	stop	non-target	P	71,Green Button	89,Yellow Button	1500.0	1450.0	1250.0	1300.0	0.0	1450.0	0.0	1.0	ITI
82611.0	500.0	n/a	-1	-1	500	0.0	fixation	poldrack-single-stim	605	1549551	0.0-23.17-0.17	beast_fmri_test	290	25.82035	t	<div class = centerbox><div class = fixation>+</div></div>	none	500.0	test	n/a	n/a	n/a	n/a	n/a	n/a	n/a	n/a	n/a	n/a	n/a	n/a	n/a	n/a	n/a	n/a	n/a	n/a	fixation
81960.370453508338	1500.0	n/a	1524	89	2750	653.629546492	stim	stop-signal	606	1552304	0.0-23.17-1.17	beast_fmri_test	290	25.831666666666667,25.843,25.854333333333333,25.865666666666666,25.877	t,t,t,t,t	<img class = center src='/static/experiments/beast_fmri_test/images/T.png'></img>	71,89	2750.0	test	<img class = center src='/static/experiments/beast_fmri_test/images/redT.png'></img>	stop	1250.0	1.0	17.0	stop	non-target	T	71,Green Button	89,Yellow Button	1500.0	1500.0	1250.0	1250.0	0.0	1500.0	1.0	0.0	go_stim
83210.370453508338	1250.0	n/a	1524	89	2750	653.629546492	stim	stop-signal	606	1552304	0.0-23.17-1.17	beast_fmri_test	290	25.831666666666667,25.843,25.854333333333333,25.865666666666666,25.877	t,t,t,t,t	<img class = center src='/static/experiments/beast_fmri_test/images/T.png'></img>	71,89	2750.0	test	<img class = center src='/static/experiments/beast_fmri_test/images/redT.png'></img>	stop	1250.0	1.0	17.0	stop	non-target	T	71,Green Button	89,Yellow Button	1500.0	1500.0	1250.0	1250.0	0.0	1500.0	1.0	0.0	stop_stim
84710.370453508338	653.629546492	n/a	1524	89	2750	653.629546492	stim	stop-signal	606	1552304	0.0-23.17-1.17	beast_fmri_test	290	25.831666666666667,25.843,25.854333333333333,25.865666666666666,25.877	t,t,t,t,t	<img class = center src='/static/experiments/beast_fmri_test/images/T.png'></img>	71,89	2750.0	test	<img class = center src='/static/experiments/beast_fmri_test/images/redT.png'></img>	stop	1250.0	1.0	17.0	stop	non-target	T	71,Green Button	89,Yellow Button	1500.0	1500.0	1250.0	1250.0	0.0	1500.0	1.0	0.0	ITI
86542.0	500.0	n/a	-1	-1	500	0.0	fixation	poldrack-single-stim	607	1553482	0.0-23.18-0.18	beast_fmri_test	290	25.8883333333333	t	<div class = centerbox><div class = fixation>+</div></div>	none	500.0	test	n/a	n/a	n/a	n/a	n/a	n/a	n/a	n/a	n/a	n/a	n/a	n/a	n/a	n/a	n/a	n/a	n/a	n/a	fixation
86538.159510982689	2750.0	n/a	1967	89	2750	5.84048901739	stim	stop-signal	608	1556234	0.0-23.18-1.18	beast_fmri_test	290	25.89965,25.911,25.92235,25.933683333333335	t,t,t,t	<img class = center src='/static/experiments/beast_fmri_test/images/P.png'></img>	71,89	2750.0	test	<img class = center src='/static/experiments/beast_fmri_test/images/redP.png'></img>	go	1300.0	1.0	18.0	go	non-target	P	71,Green Button	89,Yellow Button	1500.0	1450.0	1250.0	1300.0	1.0	1450.0	1.0	n/a	go_stim
89288.159510982689	5.84048901739	n/a	1967	89	2750	5.84048901739	stim	stop-signal	608	1556234	0.0-23.18-1.18	beast_fmri_test	290	25.89965,25.911,25.92235,25.933683333333335	t,t,t,t	<img class = center src='/static/experiments/beast_fmri_test/images/P.png'></img>	71,89	2750.0	test	<img class = center src='/static/experiments/beast_fmri_test/images/redP.png'></img>	go	1300.0	1.0	18.0	go	non-target	P	71,Green Button	89,Yellow Button	1500.0	1450.0	1250.0	1300.0	1.0	1450.0	1.0	n/a	ITI
89825.0	500.0	n/a	-1	-1	500	0.0	fixation	poldrack-single-stim	609	1556765	0.0-23.19-0.19	beast_fmri_test	290	25.9450166666666	t	<div class = centerbox><div class = fixation>+</div></div>	none	500.0	test	n/a	n/a	n/a	n/a	n/a	n/a	n/a	n/a	n/a	n/a	n/a	n/a	n/a	n/a	n/a	n/a	n/a	n/a	fixation
85341.685466362396	1450.0	n/a	-1	-1	2750	4485.31453364	stim	stop-signal	610	1559517	0.0-23.19-1.19	beast_fmri_test	290	25.95635,25.967683333333333,25.979016666666666,25.99035,26.001683333333332,26.013,26.024333333333335,26.035683333333335,26.047,26.05835	t,t,t,t,t,t,t,t,t,t	<img class = center src='/static/experiments/beast_fmri_test/images/V.png'></img>	71,89	2750.0	test	<img class = center src='/static/experiments/beast_fmri_test/images/redV.png'></img>	stop	1300.0	1.0	19.0	stop	non-target	V	71,Green Button	89,Yellow Button	1500.0	1450.0	1250.0	1300.0	0.0	1450.0	0.0	1.0	go_stim
86641.685466362396	1300.0	n/a	-1	-1	2750	4485.31453364	stim	stop-signal	610	1559517	0.0-23.19-1.19	beast_fmri_test	290	25.95635,25.967683333333333,25.979016666666666,25.99035,26.001683333333332,26.013,26.024333333333335,26.035683333333335,26.047,26.05835	t,t,t,t,t,t,t,t,t,t	<img class = center src='/static/experiments/beast_fmri_test/images/V.png'></img>	71,89	2750.0	test	<img class = center src='/static/experiments/beast_fmri_test/images/redV.png'></img>	stop	1300.0	1.0	19.0	stop	non-target	V	71,Green Button	89,Yellow Button	1500.0	1450.0	1250.0	1300.0	0.0	1450.0	0.0	1.0	stop_stim
88091.685466362396	4485.31453364	n/a	-1	-1	2750	4485.31453364	stim	stop-signal	610	1559517	0.0-23.19-1.19	beast_fmri_test	290	25.95635,25.967683333333333,25.979016666666666,25.99035,26.001683333333332,26.013,26.024333333333335,26.035683333333335,26.047,26.05835	t,t,t,t,t,t,t,t,t,t	<img class = center src='/static/experiments/beast_fmri_test/images/V.png'></img>	71,89	2750.0	test	<img class = center src='/static/experiments/beast_fmri_test/images/redV.png'></img>	stop	1300.0	1.0	19.0	stop	non-target	V	71,Green Button	89,Yellow Button	1500.0	1450.0	1250.0	1300.0	0.0	1450.0	0.0	1.0	ITI
97588.0	500.0	n/a	-1	-1	500	0.0	fixation	poldrack-single-stim	611	1564528	0.0-23.20-0.20	beast_fmri_test	290	26.0696833333333	t	<div class = centerbox><div class = fixation>+</div></div>	none	500.0	test	n/a	n/a	n/a	n/a	n/a	n/a	n/a	n/a	n/a	n/a	n/a	n/a	n/a	n/a	n/a	n/a	n/a	n/a	fixation
93438.112481316319	2750.0	n/a	2069	89	2750	4151.88751868	stim	stop-signal	612	1567280	0.0-23.20-1.20	beast_fmri_test	290	26.081016666666667,26.09235,26.103683333333333,26.115,26.12635,26.137666666666668,26.149016666666668,26.16036666666667,26.171666666666667,26.183	t,t,t,t,t,t,t,t,t,t	<img class = center src='/static/experiments/beast_fmri_test/images/D.png'></img>	71,89	2750.0	test	<img class = center src='/static/experiments/beast_fmri_test/images/redD.png'></img>	go	1250.0	1.0	20.0	go	non-target	D	71,Green Button	89,Yellow Button	1500.0	1500.0	1250.0	1250.0	1.0	1500.0	1.0	n/a	go_stim
96188.112481316319	4151.88751868	n/a	2069	89	2750	4151.88751868	stim	stop-signal	612	1567280	0.0-23.20-1.20	beast_fmri_test	290	26.081016666666667,26.09235,26.103683333333333,26.115,26.12635,26.137666666666668,26.149016666666668,26.16036666666667,26.171666666666667,26.183	t,t,t,t,t,t,t,t,t,t	<img class = center src='/static/experiments/beast_fmri_test/images/D.png'></img>	71,89	2750.0	test	<img class = center src='/static/experiments/beast_fmri_test/images/redD.png'></img>	go	1250.0	1.0	20.0	go	non-target	D	71,Green Button	89,Yellow Button	1500.0	1500.0	1250.0	1250.0	1.0	1500.0	1.0	n/a	ITI
105019.0	500.0	n/a	-1	-1	500	0.0	fixation	poldrack-single-stim	613	1571959	0.0-23.21-0.21	beast_fmri_test	290	26.1943333333333	t	<div class = centerbox><div class = fixation>+</div></div>	none	500.0	test	n/a	n/a	n/a	n/a	n/a	n/a	n/a	n/a	n/a	n/a	n/a	n/a	n/a	n/a	n/a	n/a	n/a	n/a	fixation
104468.53131358745	1500.0	n/a	1612	71	2750	552.468686413	stim	stop-signal	614	1574711	0.0-23.21-1.21	beast_fmri_test	290	26.205666666666666,26.217,26.22835,26.23966666666667,26.251	t,t,t,t,t	<img class = center src='/static/experiments/beast_fmri_test/images/D.png'></img>	71,89	2750.0	test	<img class = center src='/static/experiments/beast_fmri_test/images/redD.png'></img>	stop	1250.0	1.0	21.0	stop	target	D	71,Green Button	89,Yellow Button	1500.0	1500.0	1250.0	1250.0	0.0	1500.0	1.0	0.0	go_stim
105718.53131358745	1250.0	n/a	1612	71	2750	552.468686413	stim	stop-signal	614	1574711	0.0-23.21-1.21	beast_fmri_test	290	26.205666666666666,26.217,26.22835,26.23966666666667,26.251	t,t,t,t,t	<img class = center src='/static/experiments/beast_fmri_test/images/D.png'></img>	71,89	2750.0	test	<img class = center src='/static/experiments/beast_fmri_test/images/redD.png'></img>	stop	1250.0	1.0	21.0	stop	target	D	71,Green Button	89,Yellow Button	1500.0	1500.0	1250.0	1250.0	0.0	1500.0	1.0	0.0	stop_stim
107218.53131358745	552.468686413	n/a	1612	71	2750	552.468686413	stim	stop-signal	614	1574711	0.0-23.21-1.21	beast_fmri_test	290	26.205666666666666,26.217,26.22835,26.23966666666667,26.251	t,t,t,t,t	<img class = center src='/static/experiments/beast_fmri_test/images/D.png'></img>	71,89	2750.0	test	<img class = center src='/static/experiments/beast_fmri_test/images/redD.png'></img>	stop	1250.0	1.0	21.0	stop	target	D	71,Green Button	89,Yellow Button	1500.0	1500.0	1250.0	1250.0	0.0	1500.0	1.0	0.0	ITI
108848.0	500.0	n/a	-1	-1	500	0.0	fixation	poldrack-single-stim	615	1575788	0.0-23.22-0.22	beast_fmri_test	290	26.26235	t	<div class = centerbox><div class = fixation>+</div></div>	none	500.0	test	n/a	n/a	n/a	n/a	n/a	n/a	n/a	n/a	n/a	n/a	n/a	n/a	n/a	n/a	n/a	n/a	n/a	n/a	fixation
108739.09342630766	2750.0	n/a	2504	89	2750	110.906573692	stim	stop-signal	616	1578540	0.0-23.22-1.22	beast_fmri_test	290	26.273666666666667,26.285,26.296333333333333,26.307683333333333	t,t,t,t	<img class = center src='/static/experiments/beast_fmri_test/images/P.png'></img>	71,89	2750.0	test	<img class = center src='/static/experiments/beast_fmri_test/images/redP.png'></img>	go	1250.0	1.0	22.0	go	non-target	P	71,Green Button	89,Yellow Button	1450.0	1500.0	1250.0	1250.0	1.0	1500.0	1.0	n/a	go_stim
111489.09342630766	110.906573692	n/a	2504	89	2750	110.906573692	stim	stop-signal	616	1578540	0.0-23.22-1.22	beast_fmri_test	290	26.273666666666667,26.285,26.296333333333333,26.307683333333333	t,t,t,t	<img class = center src='/static/experiments/beast_fmri_test/images/P.png'></img>	71,89	2750.0	test	<img class = center src='/static/experiments/beast_fmri_test/images/redP.png'></img>	go	1250.0	1.0	22.0	go	non-target	P	71,Green Button	89,Yellow Button	1450.0	1500.0	1250.0	1250.0	1.0	1500.0	1.0	n/a	ITI
112239.0	500.0	n/a	-1	-1	500	0.0	fixation	poldrack-single-stim	617	1579179	0.0-23.23-0.23	beast_fmri_test	290	26.319	t	<div class = centerbox><div class = fixation>+</div></div>	none	500.0	test	n/a	n/a	n/a	n/a	n/a	n/a	n/a	n/a	n/a	n/a	n/a	n/a	n/a	n/a	n/a	n/a	n/a	n/a	fixation
112229.1335969246	2750.0	n/a	1179	89	2750	11.8664030754	stim	stop-signal	618	1581931	0.0-23.23-1.23	beast_fmri_test	290	26.33035,26.341666666666665,26.353,26.364333333333335	t,t,t,t	<img class = center src='/static/experiments/beast_fmri_test/images/V.png'></img>	71,89	2750.0	test	<img class = center src='/static/experiments/beast_fmri_test/images/redV.png'></img>	go	1250.0	1.0	23.0	go	non-target	V	71,Green Button	89,Yellow Button	1450.0	1500.0	1250.0	1250.0	1.0	1500.0	1.0	n/a	go_stim
114979.1335969246	11.8664030754	n/a	1179	89	2750	11.8664030754	stim	stop-signal	618	1581931	0.0-23.23-1.23	beast_fmri_test	290	26.33035,26.341666666666665,26.353,26.364333333333335	t,t,t,t	<img class = center src='/static/experiments/beast_fmri_test/images/V.png'></img>	71,89	2750.0	test	<img class = center src='/static/experiments/beast_fmri_test/images/redV.png'></img>	go	1250.0	1.0	23.0	go	non-target	V	71,Green Button	89,Yellow Button	1450.0	1500.0	1250.0	1250.0	1.0	1500.0	1.0	n/a	ITI
115527.0	500.0	n/a	-1	-1	500	0.0	fixation	poldrack-single-stim	619	1582467	0.0-23.24-0.24	beast_fmri_test	290	n/a	n/a	<div class = centerbox><div class = fixation>+</div></div>	none	500.0	test	n/a	n/a	n/a	n/a	n/a	n/a	n/a	n/a	n/a	n/a	n/a	n/a	n/a	n/a	n/a	n/a	n/a	n/a	fixation
114982.66718914243	2750.0	n/a	1180	89	2750	545.332810858	stim	stop-signal	620	1585218	0.0-23.24-1.24	beast_fmri_test	290	26.375683333333335,26.387016666666668,26.398333333333333,26.409666666666666,26.421	t,t,t,t,t	<img class = center src='/static/experiments/beast_fmri_test/images/B.png'></img>	71,89	2750.0	test	<img class = center src='/static/experiments/beast_fmri_test/images/redB.png'></img>	go	1250.0	1.0	24.0	go	non-target	B	71,Green Button	89,Yellow Button	1450.0	1500.0	1250.0	1250.0	1.0	1500.0	1.0	n/a	go_stim
117732.66718914243	545.332810858	n/a	1180	89	2750	545.332810858	stim	stop-signal	620	1585218	0.0-23.24-1.24	beast_fmri_test	290	26.375683333333335,26.387016666666668,26.398333333333333,26.409666666666666,26.421	t,t,t,t,t	<img class = center src='/static/experiments/beast_fmri_test/images/B.png'></img>	71,89	2750.0	test	<img class = center src='/static/experiments/beast_fmri_test/images/redB.png'></img>	go	1250.0	1.0	24.0	go	non-target	B	71,Green Button	89,Yellow Button	1450.0	1500.0	1250.0	1250.0	1.0	1500.0	1.0	n/a	ITI
119349.0	500.0	n/a	-1	-1	500	0.0	fixation	poldrack-single-stim	621	1586289	0.0-23.25-0.25	beast_fmri_test	290	26.4323333333333	t	<div class = centerbox><div class = fixation>+</div></div>	none	500.0	test	n/a	n/a	n/a	n/a	n/a	n/a	n/a	n/a	n/a	n/a	n/a	n/a	n/a	n/a	n/a	n/a	n/a	n/a	fixation
118400.54616972059	2750.0	n/a	1009	89	2750	950.453830279	stim	stop-signal	622	1589041	0.0-23.25-1.25	beast_fmri_test	290	26.443666666666665,26.455016666666666,26.466333333333335,26.477683333333335,26.489016666666668	t,t,t,t,t	<img class = center src='/static/experiments/beast_fmri_test/images/V.png'></img>	71,89	2750.0	test	<img class = center src='/static/experiments/beast_fmri_test/images/redV.png'></img>	go	1250.0	1.0	25.0	go	non-target	V	71,Green Button	89,Yellow Button	1450.0	1500.0	1250.0	1250.0	1.0	1500.0	1.0	n/a	go_stim
121150.54616972059	950.453830279	n/a	1009	89	2750	950.453830279	stim	stop-signal	622	1589041	0.0-23.25-1.25	beast_fmri_test	290	26.443666666666665,26.455016666666666,26.466333333333335,26.477683333333335,26.489016666666668	t,t,t,t,t	<img class = center src='/static/experiments/beast_fmri_test/images/V.png'></img>	71,89	2750.0	test	<img class = center src='/static/experiments/beast_fmri_test/images/redV.png'></img>	go	1250.0	1.0	25.0	go	non-target	V	71,Green Button	89,Yellow Button	1450.0	1500.0	1250.0	1250.0	1.0	1500.0	1.0	n/a	ITI
123578.0	500.0	n/a	-1	-1	500	0.0	fixation	poldrack-single-stim	623	1590518	0.0-23.26-0.26	beast_fmri_test	290	26.5003666666666	t	<div class = centerbox><div class = fixation>+</div></div>	none	500.0	test	n/a	n/a	n/a	n/a	n/a	n/a	n/a	n/a	n/a	n/a	n/a	n/a	n/a	n/a	n/a	n/a	n/a	n/a	fixation
123256.12558223261	1500.0	n/a	1539	89	2750	323.874417767	stim	stop-signal	624	1593270	0.0-23.26-1.26	beast_fmri_test	290	26.511683333333334,26.523016666666667,26.53435,26.545683333333333,26.557016666666666	t,t,t,t,t	<img class = center src='/static/experiments/beast_fmri_test/images/D.png'></img>	71,89	2750.0	test	<img class = center src='/static/experiments/beast_fmri_test/images/redD.png'></img>	stop	1250.0	1.0	26.0	stop	non-target	D	71,Green Button	89,Yellow Button	1450.0	1500.0	1250.0	1250.0	0.0	1500.0	1.0	0.0	go_stim
124506.12558223261	1250.0	n/a	1539	89	2750	323.874417767	stim	stop-signal	624	1593270	0.0-23.26-1.26	beast_fmri_test	290	26.511683333333334,26.523016666666667,26.53435,26.545683333333333,26.557016666666666	t,t,t,t,t	<img class = center src='/static/experiments/beast_fmri_test/images/D.png'></img>	71,89	2750.0	test	<img class = center src='/static/experiments/beast_fmri_test/images/redD.png'></img>	stop	1250.0	1.0	26.0	stop	non-target	D	71,Green Button	89,Yellow Button	1450.0	1500.0	1250.0	1250.0	0.0	1500.0	1.0	0.0	stop_stim
126006.12558223261	323.874417767	n/a	1539	89	2750	323.874417767	stim	stop-signal	624	1593270	0.0-23.26-1.26	beast_fmri_test	290	26.511683333333334,26.523016666666667,26.53435,26.545683333333333,26.557016666666666	t,t,t,t,t	<img class = center src='/static/experiments/beast_fmri_test/images/D.png'></img>	71,89	2750.0	test	<img class = center src='/static/experiments/beast_fmri_test/images/redD.png'></img>	stop	1250.0	1.0	26.0	stop	non-target	D	71,Green Button	89,Yellow Button	1450.0	1500.0	1250.0	1250.0	0.0	1500.0	1.0	0.0	ITI
127180.0	500.0	n/a	-1	-1	500	0.0	fixation	poldrack-single-stim	625	1594120	0.0-23.27-0.27	beast_fmri_test	290	26.56835	t	<div class = centerbox><div class = fixation>+</div></div>	none	500.0	test	n/a	n/a	n/a	n/a	n/a	n/a	n/a	n/a	n/a	n/a	n/a	n/a	n/a	n/a	n/a	n/a	n/a	n/a	fixation
124547.53984005749	1450.0	n/a	-1	-1	2750	2634.46015994	stim	stop-signal	626	1596872	0.0-23.27-1.27	beast_fmri_test	290	26.57968333333333,26.59101666666667,26.60235,26.613683333333334,26.625016666666667,26.63635,26.647683333333333	t,t,t,t,t,t,t	<img class = center src='/static/experiments/beast_fmri_test/images/D.png'></img>	71,89	2750.0	test	<img class = center src='/static/experiments/beast_fmri_test/images/redD.png'></img>	stop	1300.0	1.0	27.0	stop	target	D	71,Green Button	89,Yellow Button	1450.0	1450.0	1300.0	1250.0	0.0	1450.0	0.0	1.0	go_stim
125847.53984005749	1300.0	n/a	-1	-1	2750	2634.46015994	stim	stop-signal	626	1596872	0.0-23.27-1.27	beast_fmri_test	290	26.57968333333333,26.59101666666667,26.60235,26.613683333333334,26.625016666666667,26.63635,26.647683333333333	t,t,t,t,t,t,t	<img class = center src='/static/experiments/beast_fmri_test/images/D.png'></img>	71,89	2750.0	test	<img class = center src='/static/experiments/beast_fmri_test/images/redD.png'></img>	stop	1300.0	1.0	27.0	stop	target	D	71,Green Button	89,Yellow Button	1450.0	1450.0	1300.0	1250.0	0.0	1450.0	0.0	1.0	stop_stim
127297.53984005749	2634.46015994	n/a	-1	-1	2750	2634.46015994	stim	stop-signal	626	1596872	0.0-23.27-1.27	beast_fmri_test	290	26.57968333333333,26.59101666666667,26.60235,26.613683333333334,26.625016666666667,26.63635,26.647683333333333	t,t,t,t,t,t,t	<img class = center src='/static/experiments/beast_fmri_test/images/D.png'></img>	71,89	2750.0	test	<img class = center src='/static/experiments/beast_fmri_test/images/redD.png'></img>	stop	1300.0	1.0	27.0	stop	target	D	71,Green Button	89,Yellow Button	1450.0	1450.0	1300.0	1250.0	0.0	1450.0	0.0	1.0	ITI
133092.0	500.0	n/a	-1	-1	500	0.0	fixation	poldrack-single-stim	627	1600032	0.0-23.28-0.28	beast_fmri_test	290	26.6590166666666	t	<div class = centerbox><div class = fixation>+</div></div>	none	500.0	test	n/a	n/a	n/a	n/a	n/a	n/a	n/a	n/a	n/a	n/a	n/a	n/a	n/a	n/a	n/a	n/a	n/a	n/a	fixation
132830.39280786202	2750.0	n/a	1799	89	2750	263.607192138	stim	stop-signal	628	1602784	0.0-23.28-1.28	beast_fmri_test	290	26.670366666666666,26.681683333333332,26.693016666666665,26.70435,26.715683333333335	t,t,t,t,t	<img class = center src='/static/experiments/beast_fmri_test/images/B.png'></img>	71,89	2750.0	test	<img class = center src='/static/experiments/beast_fmri_test/images/redB.png'></img>	go	1300.0	1.0	28.0	go	non-target	B	71,Green Button	89,Yellow Button	1500.0	1450.0	1300.0	1300.0	1.0	1450.0	1.0	n/a	go_stim
135580.39280786202	263.607192138	n/a	1799	89	2750	263.607192138	stim	stop-signal	628	1602784	0.0-23.28-1.28	beast_fmri_test	290	26.670366666666666,26.681683333333332,26.693016666666665,26.70435,26.715683333333335	t,t,t,t,t	<img class = center src='/static/experiments/beast_fmri_test/images/B.png'></img>	71,89	2750.0	test	<img class = center src='/static/experiments/beast_fmri_test/images/redB.png'></img>	go	1300.0	1.0	28.0	go	non-target	B	71,Green Button	89,Yellow Button	1500.0	1450.0	1300.0	1300.0	1.0	1450.0	1.0	n/a	ITI
136634.0	500.0	n/a	-1	-1	500	0.0	fixation	poldrack-single-stim	629	1603574	0.0-23.29-0.29	beast_fmri_test	290	n/a	n/a	<div class = centerbox><div class = fixation>+</div></div>	none	500.0	test	n/a	n/a	n/a	n/a	n/a	n/a	n/a	n/a	n/a	n/a	n/a	n/a	n/a	n/a	n/a	n/a	n/a	n/a	fixation
135666.37657101778	2750.0	n/a	1850	71	2750	968.623428982	stim	stop-signal	630	1606325	0.0-23.29-1.29	beast_fmri_test	290	26.727016666666668,26.73835,26.749683333333333,26.761016666666666,26.77235,26.783683333333332	t,t,t,t,t,t	<img class = center src='/static/experiments/beast_fmri_test/images/B.png'></img>	71,89	2750.0	test	<img class = center src='/static/experiments/beast_fmri_test/images/redB.png'></img>	go	1250.0	1.0	29.0	go	target	B	71,Green Button	89,Yellow Button	1500.0	1450.0	1250.0	1300.0	1.0	1500.0	1.0	n/a	go_stim
138416.37657101778	968.623428982	n/a	1850	71	2750	968.623428982	stim	stop-signal	630	1606325	0.0-23.29-1.29	beast_fmri_test	290	26.727016666666668,26.73835,26.749683333333333,26.761016666666666,26.77235,26.783683333333332	t,t,t,t,t,t	<img class = center src='/static/experiments/beast_fmri_test/images/B.png'></img>	71,89	2750.0	test	<img class = center src='/static/experiments/beast_fmri_test/images/redB.png'></img>	go	1250.0	1.0	29.0	go	target	B	71,Green Button	89,Yellow Button	1500.0	1450.0	1250.0	1300.0	1.0	1500.0	1.0	n/a	ITI
140881.0	500.0	n/a	-1	-1	500	0.0	fixation	poldrack-single-stim	631	1607821	0.0-23.30-0.30	beast_fmri_test	290	26.7950166666666	t	<div class = centerbox><div class = fixation>+</div></div>	none	500.0	test	n/a	n/a	n/a	n/a	n/a	n/a	n/a	n/a	n/a	n/a	n/a	n/a	n/a	n/a	n/a	n/a	n/a	n/a	fixation
140786.23196001607	2750.0	n/a	1830	71	2750	96.768039984	stim	stop-signal	632	1610573	0.0-23.30-1.30	beast_fmri_test	290	26.80635,26.817683333333335,26.829016666666668,26.840366666666668	t,t,t,t	<img class = center src='/static/experiments/beast_fmri_test/images/B.png'></img>	71,89	2750.0	test	<img class = center src='/static/experiments/beast_fmri_test/images/redB.png'></img>	go	1250.0	1.0	30.0	go	target	B	71,Green Button	89,Yellow Button	1500.0	1450.0	1250.0	1300.0	1.0	1500.0	1.0	n/a	go_stim
143536.23196001607	96.768039984	n/a	1830	71	2750	96.768039984	stim	stop-signal	632	1610573	0.0-23.30-1.30	beast_fmri_test	290	26.80635,26.817683333333335,26.829016666666668,26.840366666666668	t,t,t,t	<img class = center src='/static/experiments/beast_fmri_test/images/B.png'></img>	71,89	2750.0	test	<img class = center src='/static/experiments/beast_fmri_test/images/redB.png'></img>	go	1250.0	1.0	30.0	go	target	B	71,Green Button	89,Yellow Button	1500.0	1450.0	1250.0	1300.0	1.0	1500.0	1.0	n/a	ITI
144255.0	500.0	n/a	-1	-1	500	0.0	fixation	poldrack-single-stim	633	1611195	0.0-23.31-0.31	beast_fmri_test	290	26.8516833333333	t	<div class = centerbox><div class = fixation>+</div></div>	none	500.0	test	n/a	n/a	n/a	n/a	n/a	n/a	n/a	n/a	n/a	n/a	n/a	n/a	n/a	n/a	n/a	n/a	n/a	n/a	fixation
142472.18581698602	2750.0	n/a	1889	89	2750	1784.81418301	stim	stop-signal	634	1613947	0.0-23.31-1.31	beast_fmri_test	290	26.863016666666667,26.87435,26.885666666666665,26.897,26.90835,26.919666666666668	t,t,t,t,t,t	<img class = center src='/static/experiments/beast_fmri_test/images/P.png'></img>	71,89	2750.0	test	<img class = center src='/static/experiments/beast_fmri_test/images/redP.png'></img>	go	1300.0	1.0	31.0	go	non-target	P	71,Green Button	89,Yellow Button	1500.0	1450.0	1250.0	1300.0	1.0	1450.0	1.0	n/a	go_stim
145222.18581698602	1784.81418301	n/a	1889	89	2750	1784.81418301	stim	stop-signal	634	1613947	0.0-23.31-1.31	beast_fmri_test	290	26.863016666666667,26.87435,26.885666666666665,26.897,26.90835,26.919666666666668	t,t,t,t,t,t	<img class = center src='/static/experiments/beast_fmri_test/images/P.png'></img>	71,89	2750.0	test	<img class = center src='/static/experiments/beast_fmri_test/images/redP.png'></img>	go	1300.0	1.0	31.0	go	non-target	P	71,Green Button	89,Yellow Button	1500.0	1450.0	1250.0	1300.0	1.0	1450.0	1.0	n/a	ITI
149320.0	500.0	n/a	-1	-1	500	0.0	fixation	poldrack-single-stim	635	1616260	0.0-23.32-0.32	beast_fmri_test	290	26.9310166666666	t	<div class = centerbox><div class = fixation>+</div></div>	none	500.0	test	n/a	n/a	n/a	n/a	n/a	n/a	n/a	n/a	n/a	n/a	n/a	n/a	n/a	n/a	n/a	n/a	n/a	n/a	fixation
148846.72236652859	1500.0	n/a	-1	-1	2750	475.277633471	stim	stop-signal	636	1619012	0.0-23.32-1.32	beast_fmri_test	290	26.94235,26.953683333333334,26.965,26.97635,26.987683333333333	t,t,t,t,t	<img class = center src='/static/experiments/beast_fmri_test/images/P.png'></img>	71,89	2750.0	test	<img class = center src='/static/experiments/beast_fmri_test/images/redP.png'></img>	stop	1250.0	1.0	32.0	stop	target	P	71,Green Button	89,Yellow Button	1500.0	1450.0	1250.0	1300.0	0.0	1500.0	0.0	1.0	go_stim
150096.72236652859	1250.0	n/a	-1	-1	2750	475.277633471	stim	stop-signal	636	1619012	0.0-23.32-1.32	beast_fmri_test	290	26.94235,26.953683333333334,26.965,26.97635,26.987683333333333	t,t,t,t,t	<img class = center src='/static/experiments/beast_fmri_test/images/P.png'></img>	71,89	2750.0	test	<img class = center src='/static/experiments/beast_fmri_test/images/redP.png'></img>	stop	1250.0	1.0	32.0	stop	target	P	71,Green Button	89,Yellow Button	1500.0	1450.0	1250.0	1300.0	0.0	1500.0	0.0	1.0	stop_stim
151596.72236652859	475.277633471	n/a	-1	-1	2750	475.277633471	stim	stop-signal	636	1619012	0.0-23.32-1.32	beast_fmri_test	290	26.94235,26.953683333333334,26.965,26.97635,26.987683333333333	t,t,t,t,t	<img class = center src='/static/experiments/beast_fmri_test/images/P.png'></img>	71,89	2750.0	test	<img class = center src='/static/experiments/beast_fmri_test/images/redP.png'></img>	stop	1250.0	1.0	32.0	stop	target	P	71,Green Button	89,Yellow Button	1500.0	1450.0	1250.0	1300.0	0.0	1500.0	0.0	1.0	ITI
153075.0	500.0	n/a	-1	-1	500	0.0	fixation	poldrack-single-stim	637	1620015	0.0-23.33-0.33	beast_fmri_test	290	26.9990166666666	t	<div class = centerbox><div class = fixation>+</div></div>	none	500.0	test	n/a	n/a	n/a	n/a	n/a	n/a	n/a	n/a	n/a	n/a	n/a	n/a	n/a	n/a	n/a	n/a	n/a	n/a	fixation
151520.72244255454	2750.0	n/a	1586	89	2750	1555.27755745	stim	stop-signal	638	1622766	0.0-23.33-1.33	beast_fmri_test	290	27.01035,27.021683333333332,27.033016666666665,27.044366666666665,27.055683333333334,27.067016666666667	t,t,t,t,t,t	<img class = center src='/static/experiments/beast_fmri_test/images/T.png'></img>	71,89	2750.0	test	<img class = center src='/static/experiments/beast_fmri_test/images/redT.png'></img>	go	1300.0	1.0	33.0	go	non-target	T	71,Green Button	89,Yellow Button	1500.0	1450.0	1250.0	1300.0	1.0	1450.0	1.0	n/a	go_stim
154270.72244255454	1555.27755745	n/a	1586	89	2750	1555.27755745	stim	stop-signal	638	1622766	0.0-23.33-1.33	beast_fmri_test	290	27.01035,27.021683333333332,27.033016666666665,27.044366666666665,27.055683333333334,27.067016666666667	t,t,t,t,t,t	<img class = center src='/static/experiments/beast_fmri_test/images/T.png'></img>	71,89	2750.0	test	<img class = center src='/static/experiments/beast_fmri_test/images/redT.png'></img>	go	1300.0	1.0	33.0	go	non-target	T	71,Green Button	89,Yellow Button	1500.0	1450.0	1250.0	1300.0	1.0	1450.0	1.0	n/a	ITI
157908.0	500.0	n/a	-1	-1	500	0.0	fixation	poldrack-single-stim	639	1624848	0.0-23.34-0.34	beast_fmri_test	290	27.0783666666666	t	<div class = centerbox><div class = fixation>+</div></div>	none	500.0	test	n/a	n/a	n/a	n/a	n/a	n/a	n/a	n/a	n/a	n/a	n/a	n/a	n/a	n/a	n/a	n/a	n/a	n/a	fixation
157670.86063983827	2750.0	n/a	1637	71	2750	239.139360162	stim	stop-signal	640	1627600	0.0-23.34-1.34	beast_fmri_test	290	27.0897,27.101016666666666,27.11235,27.1237	t,t,t,t	<img class = center src='/static/experiments/beast_fmri_test/images/T.png'></img>	71,89	2750.0	test	<img class = center src='/static/experiments/beast_fmri_test/images/redT.png'></img>	go	1250.0	1.0	34.0	go	target	T	71,Green Button	89,Yellow Button	1500.0	1450.0	1250.0	1300.0	1.0	1500.0	1.0	n/a	go_stim
160420.86063983827	239.139360162	n/a	1637	71	2750	239.139360162	stim	stop-signal	640	1627600	0.0-23.34-1.34	beast_fmri_test	290	27.0897,27.101016666666666,27.11235,27.1237	t,t,t,t	<img class = center src='/static/experiments/beast_fmri_test/images/T.png'></img>	71,89	2750.0	test	<img class = center src='/static/experiments/beast_fmri_test/images/redT.png'></img>	go	1250.0	1.0	34.0	go	target	T	71,Green Button	89,Yellow Button	1500.0	1450.0	1250.0	1300.0	1.0	1500.0	1.0	n/a	ITI
161427.0	500.0	n/a	-1	-1	500	0.0	fixation	poldrack-single-stim	641	1628367	0.0-23.35-0.35	beast_fmri_test	290	27.1350166666666	t	<div class = centerbox><div class = fixation>+</div></div>	none	500.0	test	n/a	n/a	n/a	n/a	n/a	n/a	n/a	n/a	n/a	n/a	n/a	n/a	n/a	n/a	n/a	n/a	n/a	n/a	fixation
160833.45434917463	2750.0	n/a	2147	89	2750	595.545650825	stim	stop-signal	642	1631119	0.0-23.35-1.35	beast_fmri_test	290	27.14635,27.1577,27.169016666666668,27.18038333333333,27.191683333333334	t,t,t,t,t	<img class = center src='/static/experiments/beast_fmri_test/images/B.png'></img>	71,89	2750.0	test	<img class = center src='/static/experiments/beast_fmri_test/images/redB.png'></img>	go	1300.0	1.0	35.0	go	non-target	B	71,Green Button	89,Yellow Button	1500.0	1450.0	1250.0	1300.0	1.0	1450.0	1.0	n/a	go_stim
163583.45434917463	595.545650825	n/a	2147	89	2750	595.545650825	stim	stop-signal	642	1631119	0.0-23.35-1.35	beast_fmri_test	290	27.14635,27.1577,27.169016666666668,27.18038333333333,27.191683333333334	t,t,t,t,t	<img class = center src='/static/experiments/beast_fmri_test/images/B.png'></img>	71,89	2750.0	test	<img class = center src='/static/experiments/beast_fmri_test/images/redB.png'></img>	go	1300.0	1.0	35.0	go	non-target	B	71,Green Button	89,Yellow Button	1500.0	1450.0	1250.0	1300.0	1.0	1450.0	1.0	n/a	ITI
165303.0	500.0	n/a	-1	-1	500	0.0	fixation	poldrack-single-stim	643	1632243	0.0-23.36-0.36	beast_fmri_test	290	27.2030166666666	t	<div class = centerbox><div class = fixation>+</div></div>	none	500.0	test	n/a	n/a	n/a	n/a	n/a	n/a	n/a	n/a	n/a	n/a	n/a	n/a	n/a	n/a	n/a	n/a	n/a	n/a	fixation
163759.8205976421	2750.0	n/a	1676	71	2750	1544.17940236	stim	stop-signal	644	1634994	0.0-23.36-1.36	beast_fmri_test	290	27.21435,27.2257,27.237016666666666,27.24835,27.259683333333335,27.271016666666668	t,t,t,t,t,t	<img class = center src='/static/experiments/beast_fmri_test/images/B.png'></img>	71,89	2750.0	test	<img class = center src='/static/experiments/beast_fmri_test/images/redB.png'></img>	go	1250.0	1.0	36.0	go	target	B	71,Green Button	89,Yellow Button	1500.0	1450.0	1250.0	1300.0	1.0	1500.0	1.0	n/a	go_stim
166509.8205976421	1544.17940236	n/a	1676	71	2750	1544.17940236	stim	stop-signal	644	1634994	0.0-23.36-1.36	beast_fmri_test	290	27.21435,27.2257,27.237016666666666,27.24835,27.259683333333335,27.271016666666668	t,t,t,t,t,t	<img class = center src='/static/experiments/beast_fmri_test/images/B.png'></img>	71,89	2750.0	test	<img class = center src='/static/experiments/beast_fmri_test/images/redB.png'></img>	go	1250.0	1.0	36.0	go	target	B	71,Green Button	89,Yellow Button	1500.0	1450.0	1250.0	1300.0	1.0	1500.0	1.0	n/a	ITI
170127.0	500.0	n/a	-1	-1	500	0.0	fixation	poldrack-single-stim	645	1637067	0.0-23.37-0.37	beast_fmri_test	290	27.28235	t	<div class = centerbox><div class = fixation>+</div></div>	none	500.0	test	n/a	n/a	n/a	n/a	n/a	n/a	n/a	n/a	n/a	n/a	n/a	n/a	n/a	n/a	n/a	n/a	n/a	n/a	fixation
170013.09178774152	2750.0	n/a	1676	89	2750	115.908212259	stim	stop-signal	646	1639819	0.0-23.37-1.37	beast_fmri_test	290	27.293683333333334,27.305016666666667,27.31635,27.327683333333333	t,t,t,t	<img class = center src='/static/experiments/beast_fmri_test/images/D.png'></img>	71,89	2750.0	test	<img class = center src='/static/experiments/beast_fmri_test/images/redD.png'></img>	go	1300.0	1.0	37.0	go	non-target	D	71,Green Button	89,Yellow Button	1500.0	1450.0	1250.0	1300.0	1.0	1450.0	1.0	n/a	go_stim
172763.09178774152	115.908212259	n/a	1676	89	2750	115.908212259	stim	stop-signal	646	1639819	0.0-23.37-1.37	beast_fmri_test	290	27.293683333333334,27.305016666666667,27.31635,27.327683333333333	t,t,t,t	<img class = center src='/static/experiments/beast_fmri_test/images/D.png'></img>	71,89	2750.0	test	<img class = center src='/static/experiments/beast_fmri_test/images/redD.png'></img>	go	1300.0	1.0	37.0	go	non-target	D	71,Green Button	89,Yellow Button	1500.0	1450.0	1250.0	1300.0	1.0	1450.0	1.0	n/a	ITI
173522.0	500.0	n/a	-1	-1	500	0.0	fixation	poldrack-single-stim	647	1640462	0.0-23.38-0.38	beast_fmri_test	290	27.3390166666666	t	<div class = centerbox><div class = fixation>+</div></div>	none	500.0	test	n/a	n/a	n/a	n/a	n/a	n/a	n/a	n/a	n/a	n/a	n/a	n/a	n/a	n/a	n/a	n/a	n/a	n/a	fixation
172519.94252944808	1450.0	n/a	-1	-1	2750	1005.05747055	stim	stop-signal	648	1643215	0.0-23.38-1.38	beast_fmri_test	290	27.350366666666666,27.361683333333332,27.37301666666667,27.38435,27.395683333333334	t,t,t,t,t	<img class = center src='/static/experiments/beast_fmri_test/images/B.png'></img>	71,89	2750.0	test	<img class = center src='/static/experiments/beast_fmri_test/images/redB.png'></img>	stop	1300.0	1.0	38.0	stop	non-target	B	71,Green Button	89,Yellow Button	1500.0	1450.0	1250.0	1300.0	0.0	1450.0	0.0	1.0	go_stim
173819.94252944808	1300.0	n/a	-1	-1	2750	1005.05747055	stim	stop-signal	648	1643215	0.0-23.38-1.38	beast_fmri_test	290	27.350366666666666,27.361683333333332,27.37301666666667,27.38435,27.395683333333334	t,t,t,t,t	<img class = center src='/static/experiments/beast_fmri_test/images/B.png'></img>	71,89	2750.0	test	<img class = center src='/static/experiments/beast_fmri_test/images/redB.png'></img>	stop	1300.0	1.0	38.0	stop	non-target	B	71,Green Button	89,Yellow Button	1500.0	1450.0	1250.0	1300.0	0.0	1450.0	0.0	1.0	stop_stim
175269.94252944808	1005.05747055	n/a	-1	-1	2750	1005.05747055	stim	stop-signal	648	1643215	0.0-23.38-1.38	beast_fmri_test	290	27.350366666666666,27.361683333333332,27.37301666666667,27.38435,27.395683333333334	t,t,t,t,t	<img class = center src='/static/experiments/beast_fmri_test/images/B.png'></img>	71,89	2750.0	test	<img class = center src='/static/experiments/beast_fmri_test/images/redB.png'></img>	stop	1300.0	1.0	38.0	stop	non-target	B	71,Green Button	89,Yellow Button	1500.0	1450.0	1250.0	1300.0	0.0	1450.0	0.0	1.0	ITI
177807.0	500.0	n/a	-1	-1	500	0.0	fixation	poldrack-single-stim	649	1644747	0.0-23.39-0.39	beast_fmri_test	290	27.4070166666666	t	<div class = centerbox><div class = fixation>+</div></div>	none	500.0	test	n/a	n/a	n/a	n/a	n/a	n/a	n/a	n/a	n/a	n/a	n/a	n/a	n/a	n/a	n/a	n/a	n/a	n/a	fixation
177308.31171212671	1500.0	n/a	-1	-1	2750	500.688287873	stim	stop-signal	650	1647499	0.0-23.39-1.39	beast_fmri_test	290	27.41835,27.429683333333333,27.441016666666666,27.45235,27.463683333333332	t,t,t,t,t	<img class = center src='/static/experiments/beast_fmri_test/images/B.png'></img>	71,89	2750.0	test	<img class = center src='/static/experiments/beast_fmri_test/images/redB.png'></img>	stop	1250.0	1.0	39.0	stop	target	B	71,Green Button	89,Yellow Button	1500.0	1500.0	1250.0	1300.0	0.0	1500.0	0.0	1.0	go_stim
178558.31171212671	1250.0	n/a	-1	-1	2750	500.688287873	stim	stop-signal	650	1647499	0.0-23.39-1.39	beast_fmri_test	290	27.41835,27.429683333333333,27.441016666666666,27.45235,27.463683333333332	t,t,t,t,t	<img class = center src='/static/experiments/beast_fmri_test/images/B.png'></img>	71,89	2750.0	test	<img class = center src='/static/experiments/beast_fmri_test/images/redB.png'></img>	stop	1250.0	1.0	39.0	stop	target	B	71,Green Button	89,Yellow Button	1500.0	1500.0	1250.0	1300.0	0.0	1500.0	0.0	1.0	stop_stim
180058.31171212671	500.688287873	n/a	-1	-1	2750	500.688287873	stim	stop-signal	650	1647499	0.0-23.39-1.39	beast_fmri_test	290	27.41835,27.429683333333333,27.441016666666666,27.45235,27.463683333333332	t,t,t,t,t	<img class = center src='/static/experiments/beast_fmri_test/images/B.png'></img>	71,89	2750.0	test	<img class = center src='/static/experiments/beast_fmri_test/images/redB.png'></img>	stop	1250.0	1.0	39.0	stop	target	B	71,Green Button	89,Yellow Button	1500.0	1500.0	1250.0	1300.0	0.0	1500.0	0.0	1.0	ITI
181586.0	500.0	n/a	-1	-1	500	0.0	fixation	poldrack-single-stim	651	1648526	0.0-23.40-0.40	beast_fmri_test	290	27.4750333333333	t	<div class = centerbox><div class = fixation>+</div></div>	none	500.0	test	n/a	n/a	n/a	n/a	n/a	n/a	n/a	n/a	n/a	n/a	n/a	n/a	n/a	n/a	n/a	n/a	n/a	n/a	fixation
181441.47419155249	2750.0	n/a	1335	71	2750	146.525808448	stim	stop-signal	652	1651278	0.0-23.40-1.40	beast_fmri_test	290	27.48635,27.497683333333335,27.509016666666668,27.520366666666668	t,t,t,t	<img class = center src='/static/experiments/beast_fmri_test/images/B.png'></img>	71,89	2750.0	test	<img class = center src='/static/experiments/beast_fmri_test/images/redB.png'></img>	go	1250.0	1.0	40.0	go	target	B	71,Green Button	89,Yellow Button	1500.0	1500.0	1250.0	1300.0	1.0	1500.0	1.0	n/a	go_stim
184191.47419155249	146.525808448	n/a	1335	71	2750	146.525808448	stim	stop-signal	652	1651278	0.0-23.40-1.40	beast_fmri_test	290	27.48635,27.497683333333335,27.509016666666668,27.520366666666668	t,t,t,t	<img class = center src='/static/experiments/beast_fmri_test/images/B.png'></img>	71,89	2750.0	test	<img class = center src='/static/experiments/beast_fmri_test/images/redB.png'></img>	go	1250.0	1.0	40.0	go	target	B	71,Green Button	89,Yellow Button	1500.0	1500.0	1250.0	1300.0	1.0	1500.0	1.0	n/a	ITI
185011.0	500.0	n/a	-1	-1	500	0.0	fixation	poldrack-single-stim	653	1651951	0.0-23.41-0.41	beast_fmri_test	290	27.5316833333333	t	<div class = centerbox><div class = fixation>+</div></div>	none	500.0	test	n/a	n/a	n/a	n/a	n/a	n/a	n/a	n/a	n/a	n/a	n/a	n/a	n/a	n/a	n/a	n/a	n/a	n/a	fixation
184804.5282815455	2750.0	n/a	1426	89	2750	208.471718455	stim	stop-signal	654	1654703	0.0-23.41-1.41	beast_fmri_test	290	27.543016666666666,27.55435,27.565683333333332,27.577016666666665	t,t,t,t	<img class = center src='/static/experiments/beast_fmri_test/images/V.png'></img>	71,89	2750.0	test	<img class = center src='/static/experiments/beast_fmri_test/images/redV.png'></img>	go	1250.0	1.0	41.0	go	non-target	V	71,Green Button	89,Yellow Button	1500.0	1500.0	1250.0	1250.0	1.0	1500.0	1.0	n/a	go_stim
187554.5282815455	208.471718455	n/a	1426	89	2750	208.471718455	stim	stop-signal	654	1654703	0.0-23.41-1.41	beast_fmri_test	290	27.543016666666666,27.55435,27.565683333333332,27.577016666666665	t,t,t,t	<img class = center src='/static/experiments/beast_fmri_test/images/V.png'></img>	71,89	2750.0	test	<img class = center src='/static/experiments/beast_fmri_test/images/redV.png'></img>	go	1250.0	1.0	41.0	go	non-target	V	71,Green Button	89,Yellow Button	1500.0	1500.0	1250.0	1250.0	1.0	1500.0	1.0	n/a	ITI
188493.0	500.0	n/a	-1	-1	500	0.0	fixation	poldrack-single-stim	655	1655433	0.0-23.42-0.42	beast_fmri_test	290	27.58835	t	<div class = centerbox><div class = fixation>+</div></div>	none	500.0	test	n/a	n/a	n/a	n/a	n/a	n/a	n/a	n/a	n/a	n/a	n/a	n/a	n/a	n/a	n/a	n/a	n/a	n/a	fixation
188210.96603713417	1500.0	n/a	1385	89	2750	285.033962866	stim	stop-signal	656	1658186	0.0-23.42-1.42	beast_fmri_test	290	27.599683333333335,27.61105,27.622366666666668,27.6337	t,t,t,t	<img class = center src='/static/experiments/beast_fmri_test/images/D.png'></img>	71,89	2750.0	test	<img class = center src='/static/experiments/beast_fmri_test/images/redD.png'></img>	stop	1250.0	1.0	42.0	stop	non-target	D	71,Green Button	89,Yellow Button	1500.0	1500.0	1250.0	1250.0	0.0	1500.0	1.0	0.0	go_stim
189460.96603713417	1250.0	n/a	1385	89	2750	285.033962866	stim	stop-signal	656	1658186	0.0-23.42-1.42	beast_fmri_test	290	27.599683333333335,27.61105,27.622366666666668,27.6337	t,t,t,t	<img class = center src='/static/experiments/beast_fmri_test/images/D.png'></img>	71,89	2750.0	test	<img class = center src='/static/experiments/beast_fmri_test/images/redD.png'></img>	stop	1250.0	1.0	42.0	stop	non-target	D	71,Green Button	89,Yellow Button	1500.0	1500.0	1250.0	1250.0	0.0	1500.0	1.0	0.0	stop_stim
190960.96603713417	285.033962866	n/a	1385	89	2750	285.033962866	stim	stop-signal	656	1658186	0.0-23.42-1.42	beast_fmri_test	290	27.599683333333335,27.61105,27.622366666666668,27.6337	t,t,t,t	<img class = center src='/static/experiments/beast_fmri_test/images/D.png'></img>	71,89	2750.0	test	<img class = center src='/static/experiments/beast_fmri_test/images/redD.png'></img>	stop	1250.0	1.0	42.0	stop	non-target	D	71,Green Button	89,Yellow Button	1500.0	1500.0	1250.0	1250.0	0.0	1500.0	1.0	0.0	ITI
192058.0	500.0	n/a	-1	-1	500	0.0	fixation	poldrack-single-stim	657	1658998	0.0-23.43-0.43	beast_fmri_test	290	27.6450333333333	t	<div class = centerbox><div class = fixation>+</div></div>	none	500.0	test	n/a	n/a	n/a	n/a	n/a	n/a	n/a	n/a	n/a	n/a	n/a	n/a	n/a	n/a	n/a	n/a	n/a	n/a	fixation
190904.01571046282	1450.0	n/a	1435	89	2750	1155.98428954	stim	stop-signal	658	1661750	0.0-23.43-1.43	beast_fmri_test	290	27.656366666666667,27.6677,27.679033333333333,27.690383333333333,27.7017,27.713033333333332	t,t,t,t,t,t	<img class = center src='/static/experiments/beast_fmri_test/images/T.png'></img>	71,89	2750.0	test	<img class = center src='/static/experiments/beast_fmri_test/images/redT.png'></img>	stop	1300.0	1.0	43.0	stop	non-target	T	71,Green Button	89,Yellow Button	1500.0	1450.0	1250.0	1300.0	0.0	1450.0	1.0	0.0	go_stim
192204.01571046282	1300.0	n/a	1435	89	2750	1155.98428954	stim	stop-signal	658	1661750	0.0-23.43-1.43	beast_fmri_test	290	27.656366666666667,27.6677,27.679033333333333,27.690383333333333,27.7017,27.713033333333332	t,t,t,t,t,t	<img class = center src='/static/experiments/beast_fmri_test/images/T.png'></img>	71,89	2750.0	test	<img class = center src='/static/experiments/beast_fmri_test/images/redT.png'></img>	stop	1300.0	1.0	43.0	stop	non-target	T	71,Green Button	89,Yellow Button	1500.0	1450.0	1250.0	1300.0	0.0	1450.0	1.0	0.0	stop_stim
193654.01571046282	1155.98428954	n/a	1435	89	2750	1155.98428954	stim	stop-signal	658	1661750	0.0-23.43-1.43	beast_fmri_test	290	27.656366666666667,27.6677,27.679033333333333,27.690383333333333,27.7017,27.713033333333332	t,t,t,t,t,t	<img class = center src='/static/experiments/beast_fmri_test/images/T.png'></img>	71,89	2750.0	test	<img class = center src='/static/experiments/beast_fmri_test/images/redT.png'></img>	stop	1300.0	1.0	43.0	stop	non-target	T	71,Green Button	89,Yellow Button	1500.0	1450.0	1250.0	1300.0	0.0	1450.0	1.0	0.0	ITI
196490.0	500.0	n/a	-1	-1	500	0.0	fixation	poldrack-single-stim	659	1663430	0.0-23.44-0.44	beast_fmri_test	290	n/a	n/a	<div class = centerbox><div class = fixation>+</div></div>	none	500.0	test	n/a	n/a	n/a	n/a	n/a	n/a	n/a	n/a	n/a	n/a	n/a	n/a	n/a	n/a	n/a	n/a	n/a	n/a	fixation
196146.86089310213	1500.0	n/a	-1	-1	2750	345.139106898	stim	stop-signal	660	1666182	0.0-23.44-1.44	beast_fmri_test	290	27.72436666666667,27.7357,27.747033333333334,27.758366666666667,27.769716666666667	t,t,t,t,t	<img class = center src='/static/experiments/beast_fmri_test/images/T.png'></img>	71,89	2750.0	test	<img class = center src='/static/experiments/beast_fmri_test/images/redT.png'></img>	stop	1250.0	1.0	44.0	stop	target	T	71,Green Button	89,Yellow Button	1500.0	1400.0	1250.0	1300.0	0.0	1500.0	0.0	1.0	go_stim
197396.86089310213	1250.0	n/a	-1	-1	2750	345.139106898	stim	stop-signal	660	1666182	0.0-23.44-1.44	beast_fmri_test	290	27.72436666666667,27.7357,27.747033333333334,27.758366666666667,27.769716666666667	t,t,t,t,t	<img class = center src='/static/experiments/beast_fmri_test/images/T.png'></img>	71,89	2750.0	test	<img class = center src='/static/experiments/beast_fmri_test/images/redT.png'></img>	stop	1250.0	1.0	44.0	stop	target	T	71,Green Button	89,Yellow Button	1500.0	1400.0	1250.0	1300.0	0.0	1500.0	0.0	1.0	stop_stim
198896.86089310213	345.139106898	n/a	-1	-1	2750	345.139106898	stim	stop-signal	660	1666182	0.0-23.44-1.44	beast_fmri_test	290	27.72436666666667,27.7357,27.747033333333334,27.758366666666667,27.769716666666667	t,t,t,t,t	<img class = center src='/static/experiments/beast_fmri_test/images/T.png'></img>	71,89	2750.0	test	<img class = center src='/static/experiments/beast_fmri_test/images/redT.png'></img>	stop	1250.0	1.0	44.0	stop	target	T	71,Green Button	89,Yellow Button	1500.0	1400.0	1250.0	1300.0	0.0	1500.0	0.0	1.0	ITI
200113.0	500.0	n/a	-1	-1	500	0.0	fixation	poldrack-single-stim	661	1667053	0.0-23.45-0.45	beast_fmri_test	290	27.7810333333333	t	<div class = centerbox><div class = fixation>+</div></div>	none	500.0	test	n/a	n/a	n/a	n/a	n/a	n/a	n/a	n/a	n/a	n/a	n/a	n/a	n/a	n/a	n/a	n/a	n/a	n/a	fixation
199674.17045622785	2750.0	n/a	1187	71	2750	440.829543772	stim	stop-signal	662	1669805	0.0-23.45-1.45	beast_fmri_test	290	27.792366666666666,27.8037,27.815033333333332,27.826366666666665	t,t,t,t	<img class = center src='/static/experiments/beast_fmri_test/images/T.png'></img>	71,89	2750.0	test	<img class = center src='/static/experiments/beast_fmri_test/images/redT.png'></img>	go	1250.0	1.0	45.0	go	target	T	71,Green Button	89,Yellow Button	1500.0	1400.0	1250.0	1300.0	1.0	1500.0	1.0	n/a	go_stim
202424.17045622785	440.829543772	n/a	1187	71	2750	440.829543772	stim	stop-signal	662	1669805	0.0-23.45-1.45	beast_fmri_test	290	27.792366666666666,27.8037,27.815033333333332,27.826366666666665	t,t,t,t	<img class = center src='/static/experiments/beast_fmri_test/images/T.png'></img>	71,89	2750.0	test	<img class = center src='/static/experiments/beast_fmri_test/images/redT.png'></img>	go	1250.0	1.0	45.0	go	target	T	71,Green Button	89,Yellow Button	1500.0	1400.0	1250.0	1300.0	1.0	1500.0	1.0	n/a	ITI
218335.0	15000.0	n/a	-1	-1	15000	0.0	practice-no-stop-feedback	poldrack-single-stim	663	1685275	0.0-24.0	beast_fmri_test	290	27.8379,27.849033333333335,27.860366666666668,27.8717,27.883033333333334,27.894366666666667,27.9057,27.917033333333332,27.928366666666665,27.9397,27.951033333333335,27.962366666666668,27.9737,27.985016666666667,27.99635,28.007683333333333,28.019033333333333,28.030383333333333,28.041683333333335,28.053016666666668,28.06435,28.0757,28.087033333333334	t,t,t,t,t,t,t,t,t,t,t,t,t,t,t,t,t,t,t,t,t,t,t	"<div class = ""centerbox""><p class = ""center-block-text"">Your delay is 2 trials.</p><p class = center-block-text>Please wait for the scanner to start the block</p></div>"	77	15000.0	n/a	n/a	n/a	n/a	n/a	n/a	n/a	n/a	n/a	n/a	n/a	n/a	n/a	n/a	n/a	n/a	n/a	n/a	n/a	practice-no-stop-feedback
218836.0	500.0	n/a	-1	-1	500	0.0	fixation	poldrack-single-stim	664	1685776	0.0-25.0-0.0	beast_fmri_test	290	n/a	n/a	<div class = centerbox><div class = fixation>+</div></div>	none	500.0	test	n/a	n/a	n/a	n/a	n/a	n/a	n/a	n/a	n/a	n/a	n/a	n/a	n/a	n/a	n/a	n/a	n/a	n/a	fixation
216945.06579323625	2750.0	n/a	1013	89	2750	1892.93420676	stim	stop-signal	665	1688528	0.0-25.0-1.0	beast_fmri_test	290	28.098366666666667,28.109683333333333,28.121016666666666,28.13235,28.143683333333332,28.155033333333332,28.166366666666665	t,t,t,t,t,t,t	<img class = center src='/static/experiments/beast_fmri_test/images/V.png'></img>	71,89	2750.0	test	<img class = center src='/static/experiments/beast_fmri_test/images/redV.png'></img>	go	-1.0	2.0	0.0	go	temp-non-target	V	71,Green Button	89,Yellow Button	1500.0	1400.0	1250.0	1300.0	0.0	n/a	n/a	n/a	go_stim
219695.06579323625	1892.93420676	n/a	1013	89	2750	1892.93420676	stim	stop-signal	665	1688528	0.0-25.0-1.0	beast_fmri_test	290	28.098366666666667,28.109683333333333,28.121016666666666,28.13235,28.143683333333332,28.155033333333332,28.166366666666665	t,t,t,t,t,t,t	<img class = center src='/static/experiments/beast_fmri_test/images/V.png'></img>	71,89	2750.0	test	<img class = center src='/static/experiments/beast_fmri_test/images/redV.png'></img>	go	-1.0	2.0	0.0	go	temp-non-target	V	71,Green Button	89,Yellow Button	1500.0	1400.0	1250.0	1300.0	0.0	n/a	n/a	n/a	ITI
224011.0	500.0	n/a	-1	-1	500	0.0	fixation	poldrack-single-stim	666	1690951	0.0-25.1-0.1	beast_fmri_test	290	28.1777166666666	t	<div class = centerbox><div class = fixation>+</div></div>	none	500.0	test	n/a	n/a	n/a	n/a	n/a	n/a	n/a	n/a	n/a	n/a	n/a	n/a	n/a	n/a	n/a	n/a	n/a	n/a	fixation
223097.75874763145	2750.0	n/a	1271	89	2750	915.241252368	stim	stop-signal	667	1693703	0.0-25.1-1.1	beast_fmri_test	290	28.189033333333334,28.200383333333335,28.2117,28.223033333333333,28.234366666666666	t,t,t,t,t	<img class = center src='/static/experiments/beast_fmri_test/images/B.png'></img>	71,89	2750.0	test	<img class = center src='/static/experiments/beast_fmri_test/images/redB.png'></img>	go	-1.0	2.0	1.0	go	temp-non-target	B	71,Green Button	89,Yellow Button	1500.0	1400.0	1250.0	1300.0	0.0	n/a	n/a	n/a	go_stim
225847.75874763145	915.241252368	n/a	1271	89	2750	915.241252368	stim	stop-signal	667	1693703	0.0-25.1-1.1	beast_fmri_test	290	28.189033333333334,28.200383333333335,28.2117,28.223033333333333,28.234366666666666	t,t,t,t,t	<img class = center src='/static/experiments/beast_fmri_test/images/B.png'></img>	71,89	2750.0	test	<img class = center src='/static/experiments/beast_fmri_test/images/redB.png'></img>	go	-1.0	2.0	1.0	go	temp-non-target	B	71,Green Button	89,Yellow Button	1500.0	1400.0	1250.0	1300.0	0.0	n/a	n/a	n/a	ITI
228207.0	500.0	n/a	-1	-1	500	0.0	fixation	poldrack-single-stim	668	1695147	0.0-25.2-0.2	beast_fmri_test	290	28.2457	t	<div class = centerbox><div class = fixation>+</div></div>	none	500.0	test	n/a	n/a	n/a	n/a	n/a	n/a	n/a	n/a	n/a	n/a	n/a	n/a	n/a	n/a	n/a	n/a	n/a	n/a	fixation
227757.81568857632	1400.0	n/a	911	89	2750	450.184311424	stim	stop-signal	669	1697898	0.0-25.2-1.2	beast_fmri_test	290	28.257033333333332,28.268366666666665,28.2797,28.291033333333335,28.302366666666668	t,t,t,t,t	<img class = center src='/static/experiments/beast_fmri_test/images/T.png'></img>	71,89	2750.0	test	<img class = center src='/static/experiments/beast_fmri_test/images/redT.png'></img>	stop	1350.0	2.0	2.0	stop	non-target	T	71,Green Button	89,Yellow Button	1500.0	1400.0	1250.0	1350.0	0.0	1400.0	1.0	0.0	go_stim
229107.81568857632	1350.0	n/a	911	89	2750	450.184311424	stim	stop-signal	669	1697898	0.0-25.2-1.2	beast_fmri_test	290	28.257033333333332,28.268366666666665,28.2797,28.291033333333335,28.302366666666668	t,t,t,t,t	<img class = center src='/static/experiments/beast_fmri_test/images/T.png'></img>	71,89	2750.0	test	<img class = center src='/static/experiments/beast_fmri_test/images/redT.png'></img>	stop	1350.0	2.0	2.0	stop	non-target	T	71,Green Button	89,Yellow Button	1500.0	1400.0	1250.0	1350.0	0.0	1400.0	1.0	0.0	stop_stim
230507.81568857632	450.184311424	n/a	911	89	2750	450.184311424	stim	stop-signal	669	1697898	0.0-25.2-1.2	beast_fmri_test	290	28.257033333333332,28.268366666666665,28.2797,28.291033333333335,28.302366666666668	t,t,t,t,t	<img class = center src='/static/experiments/beast_fmri_test/images/T.png'></img>	71,89	2750.0	test	<img class = center src='/static/experiments/beast_fmri_test/images/redT.png'></img>	stop	1350.0	2.0	2.0	stop	non-target	T	71,Green Button	89,Yellow Button	1500.0	1400.0	1250.0	1350.0	0.0	1400.0	1.0	0.0	ITI
231934.0	500.0	n/a	-1	-1	500	0.0	fixation	poldrack-single-stim	670	1698874	0.0-25.3-0.3	beast_fmri_test	290	28.3137	t	<div class = centerbox><div class = fixation>+</div></div>	none	500.0	test	n/a	n/a	n/a	n/a	n/a	n/a	n/a	n/a	n/a	n/a	n/a	n/a	n/a	n/a	n/a	n/a	n/a	n/a	fixation
229620.20773838577	1500.0	n/a	-1	-1	2750	2315.79226161	stim	stop-signal	671	1701626	0.0-25.3-1.3	beast_fmri_test	290	28.325033333333334,28.336366666666667,28.3477,28.359033333333333,28.370383333333333,28.3817,28.39303333333333	t,t,t,t,t,t,t	<img class = center src='/static/experiments/beast_fmri_test/images/B.png'></img>	71,89	2750.0	test	<img class = center src='/static/experiments/beast_fmri_test/images/redB.png'></img>	stop	1250.0	2.0	3.0	stop	target	B	71,Green Button	89,Yellow Button	1500.0	1350.0	1250.0	1350.0	0.0	1500.0	0.0	1.0	go_stim
230870.20773838577	1250.0	n/a	-1	-1	2750	2315.79226161	stim	stop-signal	671	1701626	0.0-25.3-1.3	beast_fmri_test	290	28.325033333333334,28.336366666666667,28.3477,28.359033333333333,28.370383333333333,28.3817,28.39303333333333	t,t,t,t,t,t,t	<img class = center src='/static/experiments/beast_fmri_test/images/B.png'></img>	71,89	2750.0	test	<img class = center src='/static/experiments/beast_fmri_test/images/redB.png'></img>	stop	1250.0	2.0	3.0	stop	target	B	71,Green Button	89,Yellow Button	1500.0	1350.0	1250.0	1350.0	0.0	1500.0	0.0	1.0	stop_stim
232370.20773838577	2315.79226161	n/a	-1	-1	2750	2315.79226161	stim	stop-signal	671	1701626	0.0-25.3-1.3	beast_fmri_test	290	28.325033333333334,28.336366666666667,28.3477,28.359033333333333,28.370383333333333,28.3817,28.39303333333333	t,t,t,t,t,t,t	<img class = center src='/static/experiments/beast_fmri_test/images/B.png'></img>	71,89	2750.0	test	<img class = center src='/static/experiments/beast_fmri_test/images/redB.png'></img>	stop	1250.0	2.0	3.0	stop	target	B	71,Green Button	89,Yellow Button	1500.0	1350.0	1250.0	1350.0	0.0	1500.0	0.0	1.0	ITI
237526.0	500.0	n/a	-1	-1	500	0.0	fixation	poldrack-single-stim	672	1704466	0.0-25.4-0.4	beast_fmri_test	290	28.4043666666666	t	<div class = centerbox><div class = fixation>+</div></div>	none	500.0	test	n/a	n/a	n/a	n/a	n/a	n/a	n/a	n/a	n/a	n/a	n/a	n/a	n/a	n/a	n/a	n/a	n/a	n/a	fixation
236757.63292915071	1500.0	n/a	1201	71	2750	771.367070849	stim	stop-signal	673	1707219	0.0-25.4-1.4	beast_fmri_test	290	28.4157,28.427033333333334,28.438366666666667,28.4497,28.461033333333333	t,t,t,t,t	<img class = center src='/static/experiments/beast_fmri_test/images/T.png'></img>	71,89	2750.0	test	<img class = center src='/static/experiments/beast_fmri_test/images/redT.png'></img>	stop	1250.0	2.0	4.0	stop	target	T	71,Green Button	89,Yellow Button	1500.0	1350.0	1250.0	1350.0	0.0	1500.0	1.0	0.0	go_stim
238007.63292915071	1250.0	n/a	1201	71	2750	771.367070849	stim	stop-signal	673	1707219	0.0-25.4-1.4	beast_fmri_test	290	28.4157,28.427033333333334,28.438366666666667,28.4497,28.461033333333333	t,t,t,t,t	<img class = center src='/static/experiments/beast_fmri_test/images/T.png'></img>	71,89	2750.0	test	<img class = center src='/static/experiments/beast_fmri_test/images/redT.png'></img>	stop	1250.0	2.0	4.0	stop	target	T	71,Green Button	89,Yellow Button	1500.0	1350.0	1250.0	1350.0	0.0	1500.0	1.0	0.0	stop_stim
239507.63292915071	771.367070849	n/a	1201	71	2750	771.367070849	stim	stop-signal	673	1707219	0.0-25.4-1.4	beast_fmri_test	290	28.4157,28.427033333333334,28.438366666666667,28.4497,28.461033333333333	t,t,t,t,t	<img class = center src='/static/experiments/beast_fmri_test/images/T.png'></img>	71,89	2750.0	test	<img class = center src='/static/experiments/beast_fmri_test/images/redT.png'></img>	stop	1250.0	2.0	4.0	stop	target	T	71,Green Button	89,Yellow Button	1500.0	1350.0	1250.0	1350.0	0.0	1500.0	1.0	0.0	ITI
241578.0	500.0	n/a	-1	-1	500	0.0	fixation	poldrack-single-stim	674	1708518	0.0-25.5-0.5	beast_fmri_test	290	28.4723666666666	t	<div class = centerbox><div class = fixation>+</div></div>	none	500.0	test	n/a	n/a	n/a	n/a	n/a	n/a	n/a	n/a	n/a	n/a	n/a	n/a	n/a	n/a	n/a	n/a	n/a	n/a	fixation
241317.30901550129	1350.0	n/a	-1	-1	2750	262.690984499	stim	stop-signal	675	1711270	0.0-25.5-1.5	beast_fmri_test	290	28.4837,28.495033333333332,28.50636666666667,28.5177	t,t,t,t	<img class = center src='/static/experiments/beast_fmri_test/images/P.png'></img>	71,89	2750.0	test	<img class = center src='/static/experiments/beast_fmri_test/images/redP.png'></img>	stop	1400.0	2.0	5.0	stop	non-target	P	71,Green Button	89,Yellow Button	1450.0	1350.0	1250.0	1400.0	0.0	1350.0	0.0	1.0	go_stim
242717.30901550129	1400.0	n/a	-1	-1	2750	262.690984499	stim	stop-signal	675	1711270	0.0-25.5-1.5	beast_fmri_test	290	28.4837,28.495033333333332,28.50636666666667,28.5177	t,t,t,t	<img class = center src='/static/experiments/beast_fmri_test/images/P.png'></img>	71,89	2750.0	test	<img class = center src='/static/experiments/beast_fmri_test/images/redP.png'></img>	stop	1400.0	2.0	5.0	stop	non-target	P	71,Green Button	89,Yellow Button	1450.0	1350.0	1250.0	1400.0	0.0	1350.0	0.0	1.0	stop_stim
244067.30901550129	262.690984499	n/a	-1	-1	2750	262.690984499	stim	stop-signal	675	1711270	0.0-25.5-1.5	beast_fmri_test	290	28.4837,28.495033333333332,28.50636666666667,28.5177	t,t,t,t	<img class = center src='/static/experiments/beast_fmri_test/images/P.png'></img>	71,89	2750.0	test	<img class = center src='/static/experiments/beast_fmri_test/images/redP.png'></img>	stop	1400.0	2.0	5.0	stop	non-target	P	71,Green Button	89,Yellow Button	1450.0	1350.0	1250.0	1400.0	0.0	1350.0	0.0	1.0	ITI
245118.0	500.0	n/a	-1	-1	500	0.0	fixation	poldrack-single-stim	676	1712058	0.0-25.6-0.6	beast_fmri_test	290	28.5290333333333	t	<div class = centerbox><div class = fixation>+</div></div>	none	500.0	test	n/a	n/a	n/a	n/a	n/a	n/a	n/a	n/a	n/a	n/a	n/a	n/a	n/a	n/a	n/a	n/a	n/a	n/a	fixation
245050.28953698417	2750.0	n/a	2106	89	2750	69.7104630158	stim	stop-signal	677	1714810	0.0-25.6-1.6	beast_fmri_test	290	28.540383333333335,28.5517,28.563033333333333,28.574366666666666	t,t,t,t	<img class = center src='/static/experiments/beast_fmri_test/images/P.png'></img>	71,89	2750.0	test	<img class = center src='/static/experiments/beast_fmri_test/images/redP.png'></img>	go	1350.0	2.0	6.0	go	non-target	P	71,Green Button	89,Yellow Button	1450.0	1400.0	1250.0	1350.0	1.0	1400.0	1.0	n/a	go_stim
247800.28953698417	69.7104630158	n/a	2106	89	2750	69.7104630158	stim	stop-signal	677	1714810	0.0-25.6-1.6	beast_fmri_test	290	28.540383333333335,28.5517,28.563033333333333,28.574366666666666	t,t,t,t	<img class = center src='/static/experiments/beast_fmri_test/images/P.png'></img>	71,89	2750.0	test	<img class = center src='/static/experiments/beast_fmri_test/images/redP.png'></img>	go	1350.0	2.0	6.0	go	non-target	P	71,Green Button	89,Yellow Button	1450.0	1400.0	1250.0	1350.0	1.0	1400.0	1.0	n/a	ITI
248470.0	500.0	n/a	-1	-1	500	0.0	fixation	poldrack-single-stim	678	1715410	0.0-25.7-0.7	beast_fmri_test	290	28.5857	t	<div class = centerbox><div class = fixation>+</div></div>	none	500.0	test	n/a	n/a	n/a	n/a	n/a	n/a	n/a	n/a	n/a	n/a	n/a	n/a	n/a	n/a	n/a	n/a	n/a	n/a	fixation
247154.0243084156	2750.0	n/a	2157	89	2750	1317.97569158	stim	stop-signal	679	1718162	0.0-25.7-1.7	beast_fmri_test	290	28.597033333333332,28.608366666666665,28.6197,28.631033333333335,28.642366666666668,28.6537	t,t,t,t,t,t	<img class = center src='/static/experiments/beast_fmri_test/images/D.png'></img>	71,89	2750.0	test	<img class = center src='/static/experiments/beast_fmri_test/images/redD.png'></img>	go	1350.0	2.0	7.0	go	non-target	D	71,Green Button	89,Yellow Button	1450.0	1400.0	1250.0	1350.0	1.0	1400.0	1.0	n/a	go_stim
249904.0243084156	1317.97569158	n/a	2157	89	2750	1317.97569158	stim	stop-signal	679	1718162	0.0-25.7-1.7	beast_fmri_test	290	28.597033333333332,28.608366666666665,28.6197,28.631033333333335,28.642366666666668,28.6537	t,t,t,t,t,t	<img class = center src='/static/experiments/beast_fmri_test/images/D.png'></img>	71,89	2750.0	test	<img class = center src='/static/experiments/beast_fmri_test/images/redD.png'></img>	go	1350.0	2.0	7.0	go	non-target	D	71,Green Button	89,Yellow Button	1450.0	1400.0	1250.0	1350.0	1.0	1400.0	1.0	n/a	ITI
253066.0	500.0	n/a	-1	-1	500	0.0	fixation	poldrack-single-stim	680	1720006	0.0-25.8-0.8	beast_fmri_test	290	28.6650333333333	t	<div class = centerbox><div class = fixation>+</div></div>	none	500.0	test	n/a	n/a	n/a	n/a	n/a	n/a	n/a	n/a	n/a	n/a	n/a	n/a	n/a	n/a	n/a	n/a	n/a	n/a	fixation
252407.08990340028	2750.0	n/a	1890	71	2750	659.9100966	stim	stop-signal	681	1722757	0.0-25.8-1.8	beast_fmri_test	290	28.676366666666667,28.6877,28.699033333333333,28.7104,28.721716666666666	t,t,t,t,t	<img class = center src='/static/experiments/beast_fmri_test/images/P.png'></img>	71,89	2750.0	test	<img class = center src='/static/experiments/beast_fmri_test/images/redP.png'></img>	go	1300.0	2.0	8.0	go	target	P	71,Green Button	89,Yellow Button	1450.0	1400.0	1300.0	1350.0	1.0	1450.0	1.0	n/a	go_stim
255157.08990340028	659.9100966	n/a	1890	71	2750	659.9100966	stim	stop-signal	681	1722757	0.0-25.8-1.8	beast_fmri_test	290	28.676366666666667,28.6877,28.699033333333333,28.7104,28.721716666666666	t,t,t,t,t	<img class = center src='/static/experiments/beast_fmri_test/images/P.png'></img>	71,89	2750.0	test	<img class = center src='/static/experiments/beast_fmri_test/images/redP.png'></img>	go	1300.0	2.0	8.0	go	target	P	71,Green Button	89,Yellow Button	1450.0	1400.0	1300.0	1350.0	1.0	1450.0	1.0	n/a	ITI
257007.0	500.0	n/a	-1	-1	500	0.0	fixation	poldrack-single-stim	682	1723947	0.0-25.9-0.9	beast_fmri_test	290	n/a	n/a	<div class = centerbox><div class = fixation>+</div></div>	none	500.0	test	n/a	n/a	n/a	n/a	n/a	n/a	n/a	n/a	n/a	n/a	n/a	n/a	n/a	n/a	n/a	n/a	n/a	n/a	fixation
256691.2172261856	1400.0	n/a	-1	-1	2750	317.782773814	stim	stop-signal	683	1726699	0.0-25.9-1.9	beast_fmri_test	290	28.73305,28.74438333333333,28.755716666666668,28.76705,28.778383333333334	t,t,t,t,t	<img class = center src='/static/experiments/beast_fmri_test/images/P.png'></img>	71,89	2750.0	test	<img class = center src='/static/experiments/beast_fmri_test/images/redP.png'></img>	stop	1350.0	2.0	9.0	stop	non-target	P	71,Green Button	89,Yellow Button	1450.0	1400.0	1300.0	1350.0	0.0	1400.0	0.0	1.0	go_stim
258041.2172261856	1350.0	n/a	-1	-1	2750	317.782773814	stim	stop-signal	683	1726699	0.0-25.9-1.9	beast_fmri_test	290	28.73305,28.74438333333333,28.755716666666668,28.76705,28.778383333333334	t,t,t,t,t	<img class = center src='/static/experiments/beast_fmri_test/images/P.png'></img>	71,89	2750.0	test	<img class = center src='/static/experiments/beast_fmri_test/images/redP.png'></img>	stop	1350.0	2.0	9.0	stop	non-target	P	71,Green Button	89,Yellow Button	1450.0	1400.0	1300.0	1350.0	0.0	1400.0	0.0	1.0	stop_stim
259441.2172261856	317.782773814	n/a	-1	-1	2750	317.782773814	stim	stop-signal	683	1726699	0.0-25.9-1.9	beast_fmri_test	290	28.73305,28.74438333333333,28.755716666666668,28.76705,28.778383333333334	t,t,t,t,t	<img class = center src='/static/experiments/beast_fmri_test/images/P.png'></img>	71,89	2750.0	test	<img class = center src='/static/experiments/beast_fmri_test/images/redP.png'></img>	stop	1350.0	2.0	9.0	stop	non-target	P	71,Green Button	89,Yellow Button	1450.0	1400.0	1300.0	1350.0	0.0	1400.0	0.0	1.0	ITI
260607.0	500.0	n/a	-1	-1	500	0.0	fixation	poldrack-single-stim	684	1727547	0.0-25.10-0.10	beast_fmri_test	290	28.7897166666666	t	<div class = centerbox><div class = fixation>+</div></div>	none	500.0	test	n/a	n/a	n/a	n/a	n/a	n/a	n/a	n/a	n/a	n/a	n/a	n/a	n/a	n/a	n/a	n/a	n/a	n/a	fixation
260420.97738666786	2750.0	n/a	1208	71	2750	188.022613332	stim	stop-signal	685	1730299	0.0-25.10-1.10	beast_fmri_test	290	28.80105,28.812383333333333,28.823716666666666,28.83505	t,t,t,t	<img class = center src='/static/experiments/beast_fmri_test/images/P.png'></img>	71,89	2750.0	test	<img class = center src='/static/experiments/beast_fmri_test/images/redP.png'></img>	go	1300.0	2.0	10.0	go	target	P	71,Green Button	89,Yellow Button	1450.0	1450.0	1300.0	1350.0	1.0	1450.0	1.0	n/a	go_stim
263170.97738666786	188.022613332	n/a	1208	71	2750	188.022613332	stim	stop-signal	685	1730299	0.0-25.10-1.10	beast_fmri_test	290	28.80105,28.812383333333333,28.823716666666666,28.83505	t,t,t,t	<img class = center src='/static/experiments/beast_fmri_test/images/P.png'></img>	71,89	2750.0	test	<img class = center src='/static/experiments/beast_fmri_test/images/redP.png'></img>	go	1300.0	2.0	10.0	go	target	P	71,Green Button	89,Yellow Button	1450.0	1450.0	1300.0	1350.0	1.0	1450.0	1.0	n/a	ITI
264074.0	500.0	n/a	-1	-1	500	0.0	fixation	poldrack-single-stim	686	1731014	0.0-25.11-0.11	beast_fmri_test	290	28.8463833333333	t	<div class = centerbox><div class = fixation>+</div></div>	none	500.0	test	n/a	n/a	n/a	n/a	n/a	n/a	n/a	n/a	n/a	n/a	n/a	n/a	n/a	n/a	n/a	n/a	n/a	n/a	fixation
262810.10246934881	2750.0	n/a	1886	71	2750	1264.89753065	stim	stop-signal	687	1733765	0.0-25.11-1.11	beast_fmri_test	290	28.857716666666665,28.86905,28.8804,28.8917,28.90305,28.914366666666666	t,t,t,t,t,t	<img class = center src='/static/experiments/beast_fmri_test/images/P.png'></img>	71,89	2750.0	test	<img class = center src='/static/experiments/beast_fmri_test/images/redP.png'></img>	go	1300.0	2.0	11.0	go	target	P	71,Green Button	89,Yellow Button	1450.0	1450.0	1300.0	1350.0	1.0	1450.0	1.0	n/a	go_stim
265560.10246934881	1264.89753065	n/a	1886	71	2750	1264.89753065	stim	stop-signal	687	1733765	0.0-25.11-1.11	beast_fmri_test	290	28.857716666666665,28.86905,28.8804,28.8917,28.90305,28.914366666666666	t,t,t,t,t,t	<img class = center src='/static/experiments/beast_fmri_test/images/P.png'></img>	71,89	2750.0	test	<img class = center src='/static/experiments/beast_fmri_test/images/redP.png'></img>	go	1300.0	2.0	11.0	go	target	P	71,Green Button	89,Yellow Button	1450.0	1450.0	1300.0	1350.0	1.0	1450.0	1.0	n/a	ITI
268612.0	500.0	n/a	-1	-1	500	0.0	fixation	poldrack-single-stim	688	1735552	0.0-25.12-0.12	beast_fmri_test	290	28.9257166666666	t	<div class = centerbox><div class = fixation>+</div></div>	none	500.0	test	n/a	n/a	n/a	n/a	n/a	n/a	n/a	n/a	n/a	n/a	n/a	n/a	n/a	n/a	n/a	n/a	n/a	n/a	fixation
265222.50538967876	2750.0	n/a	1626	71	2750	3391.49461032	stim	stop-signal	689	1738304	0.0-25.12-1.12	beast_fmri_test	290	28.93705,28.948366666666665,28.959716666666665,28.971033333333335,28.982366666666667,28.9937,29.005033333333333,29.016383333333334,29.0277	t,t,t,t,t,t,t,t,t	<img class = center src='/static/experiments/beast_fmri_test/images/P.png'></img>	71,89	2750.0	test	<img class = center src='/static/experiments/beast_fmri_test/images/redP.png'></img>	go	1300.0	2.0	12.0	go	target	P	71,Green Button	89,Yellow Button	1450.0	1450.0	1300.0	1350.0	1.0	1450.0	1.0	n/a	go_stim
267972.50538967876	3391.49461032	n/a	1626	71	2750	3391.49461032	stim	stop-signal	689	1738304	0.0-25.12-1.12	beast_fmri_test	290	28.93705,28.948366666666665,28.959716666666665,28.971033333333335,28.982366666666667,28.9937,29.005033333333333,29.016383333333334,29.0277	t,t,t,t,t,t,t,t,t	<img class = center src='/static/experiments/beast_fmri_test/images/P.png'></img>	71,89	2750.0	test	<img class = center src='/static/experiments/beast_fmri_test/images/redP.png'></img>	go	1300.0	2.0	12.0	go	target	P	71,Green Button	89,Yellow Button	1450.0	1450.0	1300.0	1350.0	1.0	1450.0	1.0	n/a	ITI
275285.0	500.0	n/a	-1	-1	500	0.0	fixation	poldrack-single-stim	690	1742225	0.0-25.13-0.13	beast_fmri_test	290	n/a	n/a	<div class = centerbox><div class = fixation>+</div></div>	none	500.0	test	n/a	n/a	n/a	n/a	n/a	n/a	n/a	n/a	n/a	n/a	n/a	n/a	n/a	n/a	n/a	n/a	n/a	n/a	fixation
274941.50379303657	2750.0	n/a	1666	89	2750	344.496206964	stim	stop-signal	691	1744976	0.0-25.13-1.13	beast_fmri_test	290	29.03905,29.0504,29.061716666666666,29.073033333333335,29.084366666666668	t,t,t,t,t	<img class = center src='/static/experiments/beast_fmri_test/images/V.png'></img>	71,89	2750.0	test	<img class = center src='/static/experiments/beast_fmri_test/images/redV.png'></img>	go	1300.0	2.0	13.0	go	non-target	V	71,Green Button	89,Yellow Button	1450.0	1450.0	1300.0	1300.0	1.0	1450.0	1.0	n/a	go_stim
277691.50379303657	344.496206964	n/a	1666	89	2750	344.496206964	stim	stop-signal	691	1744976	0.0-25.13-1.13	beast_fmri_test	290	29.03905,29.0504,29.061716666666666,29.073033333333335,29.084366666666668	t,t,t,t,t	<img class = center src='/static/experiments/beast_fmri_test/images/V.png'></img>	71,89	2750.0	test	<img class = center src='/static/experiments/beast_fmri_test/images/redV.png'></img>	go	1300.0	2.0	13.0	go	non-target	V	71,Green Button	89,Yellow Button	1450.0	1450.0	1300.0	1300.0	1.0	1450.0	1.0	n/a	ITI
278907.0	500.0	n/a	-1	-1	500	0.0	fixation	poldrack-single-stim	692	1745847	0.0-25.14-0.14	beast_fmri_test	290	29.0957166666666	t	<div class = centerbox><div class = fixation>+</div></div>	none	500.0	test	n/a	n/a	n/a	n/a	n/a	n/a	n/a	n/a	n/a	n/a	n/a	n/a	n/a	n/a	n/a	n/a	n/a	n/a	fixation
278592.78504040581	2750.0	n/a	1867	89	2750	316.214959594	stim	stop-signal	693	1748599	0.0-25.14-1.14	beast_fmri_test	290	29.107033333333334,29.118383333333334,29.1297,29.141033333333333	t,t,t,t	<img class = center src='/static/experiments/beast_fmri_test/images/D.png'></img>	71,89	2750.0	test	<img class = center src='/static/experiments/beast_fmri_test/images/redD.png'></img>	go	1300.0	2.0	14.0	go	non-target	D	71,Green Button	89,Yellow Button	1450.0	1450.0	1300.0	1300.0	1.0	1450.0	1.0	n/a	go_stim
281342.78504040581	316.214959594	n/a	1867	89	2750	316.214959594	stim	stop-signal	693	1748599	0.0-25.14-1.14	beast_fmri_test	290	29.107033333333334,29.118383333333334,29.1297,29.141033333333333	t,t,t,t	<img class = center src='/static/experiments/beast_fmri_test/images/D.png'></img>	71,89	2750.0	test	<img class = center src='/static/experiments/beast_fmri_test/images/redD.png'></img>	go	1300.0	2.0	14.0	go	non-target	D	71,Green Button	89,Yellow Button	1450.0	1450.0	1300.0	1300.0	1.0	1450.0	1.0	n/a	ITI
282503.0	500.0	n/a	-1	-1	500	0.0	fixation	poldrack-single-stim	694	1749443	0.0-25.15-0.15	beast_fmri_test	290	29.1523666666666	t	<div class = centerbox><div class = fixation>+</div></div>	none	500.0	test	n/a	n/a	n/a	n/a	n/a	n/a	n/a	n/a	n/a	n/a	n/a	n/a	n/a	n/a	n/a	n/a	n/a	n/a	fixation
280632.15595599334	1450.0	n/a	1672	71	2750	1872.84404401	stim	stop-signal	695	1752195	0.0-25.15-1.15	beast_fmri_test	290	29.1637,29.17503333333333,29.186366666666668,29.1977,29.209033333333334,29.220383333333334,29.2317	t,t,t,t,t,t,t	<img class = center src='/static/experiments/beast_fmri_test/images/V.png'></img>	71,89	2750.0	test	<img class = center src='/static/experiments/beast_fmri_test/images/redV.png'></img>	stop	1300.0	2.0	15.0	stop	target	V	71,Green Button	89,Yellow Button	1450.0	1450.0	1300.0	1300.0	0.0	1450.0	1.0	0.0	go_stim
281932.15595599334	1300.0	n/a	1672	71	2750	1872.84404401	stim	stop-signal	695	1752195	0.0-25.15-1.15	beast_fmri_test	290	29.1637,29.17503333333333,29.186366666666668,29.1977,29.209033333333334,29.220383333333334,29.2317	t,t,t,t,t,t,t	<img class = center src='/static/experiments/beast_fmri_test/images/V.png'></img>	71,89	2750.0	test	<img class = center src='/static/experiments/beast_fmri_test/images/redV.png'></img>	stop	1300.0	2.0	15.0	stop	target	V	71,Green Button	89,Yellow Button	1450.0	1450.0	1300.0	1300.0	0.0	1450.0	1.0	0.0	stop_stim
283382.15595599334	1872.84404401	n/a	1672	71	2750	1872.84404401	stim	stop-signal	695	1752195	0.0-25.15-1.15	beast_fmri_test	290	29.1637,29.17503333333333,29.186366666666668,29.1977,29.209033333333334,29.220383333333334,29.2317	t,t,t,t,t,t,t	<img class = center src='/static/experiments/beast_fmri_test/images/V.png'></img>	71,89	2750.0	test	<img class = center src='/static/experiments/beast_fmri_test/images/redV.png'></img>	stop	1300.0	2.0	15.0	stop	target	V	71,Green Button	89,Yellow Button	1450.0	1450.0	1300.0	1300.0	0.0	1450.0	1.0	0.0	ITI
287652.0	500.0	n/a	-1	-1	500	0.0	fixation	poldrack-single-stim	696	1754592	0.0-25.16-0.16	beast_fmri_test	290	29.2430333333333	t	<div class = centerbox><div class = fixation>+</div></div>	none	500.0	test	n/a	n/a	n/a	n/a	n/a	n/a	n/a	n/a	n/a	n/a	n/a	n/a	n/a	n/a	n/a	n/a	n/a	n/a	fixation
286127.77850247407	1450.0	n/a	-1	-1	2750	1525.22149753	stim	stop-signal	697	1757343	0.0-25.16-1.16	beast_fmri_test	290	29.254366666666666,29.265716666666666,29.27705,29.2884,29.299733333333332,29.31105	t,t,t,t,t,t	<img class = center src='/static/experiments/beast_fmri_test/images/B.png'></img>	71,89	2750.0	test	<img class = center src='/static/experiments/beast_fmri_test/images/redB.png'></img>	stop	1300.0	2.0	16.0	stop	non-target	B	71,Green Button	89,Yellow Button	1400.0	1450.0	1300.0	1300.0	0.0	1450.0	0.0	1.0	go_stim
287427.77850247407	1300.0	n/a	-1	-1	2750	1525.22149753	stim	stop-signal	697	1757343	0.0-25.16-1.16	beast_fmri_test	290	29.254366666666666,29.265716666666666,29.27705,29.2884,29.299733333333332,29.31105	t,t,t,t,t,t	<img class = center src='/static/experiments/beast_fmri_test/images/B.png'></img>	71,89	2750.0	test	<img class = center src='/static/experiments/beast_fmri_test/images/redB.png'></img>	stop	1300.0	2.0	16.0	stop	non-target	B	71,Green Button	89,Yellow Button	1400.0	1450.0	1300.0	1300.0	0.0	1450.0	0.0	1.0	stop_stim
288877.77850247407	1525.22149753	n/a	-1	-1	2750	1525.22149753	stim	stop-signal	697	1757343	0.0-25.16-1.16	beast_fmri_test	290	29.254366666666666,29.265716666666666,29.27705,29.2884,29.299733333333332,29.31105	t,t,t,t,t,t	<img class = center src='/static/experiments/beast_fmri_test/images/B.png'></img>	71,89	2750.0	test	<img class = center src='/static/experiments/beast_fmri_test/images/redB.png'></img>	stop	1300.0	2.0	16.0	stop	non-target	B	71,Green Button	89,Yellow Button	1400.0	1450.0	1300.0	1300.0	0.0	1450.0	0.0	1.0	ITI
292454.0	500.0	n/a	-1	-1	500	0.0	fixation	poldrack-single-stim	698	1759394	0.0-25.17-0.17	beast_fmri_test	290	29.3223833333333	t	<div class = centerbox><div class = fixation>+</div></div>	none	500.0	test	n/a	n/a	n/a	n/a	n/a	n/a	n/a	n/a	n/a	n/a	n/a	n/a	n/a	n/a	n/a	n/a	n/a	n/a	fixation
291361.05791895511	1400.0	n/a	-1	-1	2750	1093.94208104	stim	stop-signal	699	1762145	0.0-25.17-1.17	beast_fmri_test	290	29.333716666666668,29.34505,29.356383333333333,29.367716666666666,29.37905	t,t,t,t,t	<img class = center src='/static/experiments/beast_fmri_test/images/V.png'></img>	71,89	2750.0	test	<img class = center src='/static/experiments/beast_fmri_test/images/redV.png'></img>	stop	1350.0	2.0	17.0	stop	target	V	71,Green Button	89,Yellow Button	1400.0	1500.0	1350.0	1300.0	0.0	1400.0	0.0	1.0	go_stim
292711.05791895511	1350.0	n/a	-1	-1	2750	1093.94208104	stim	stop-signal	699	1762145	0.0-25.17-1.17	beast_fmri_test	290	29.333716666666668,29.34505,29.356383333333333,29.367716666666666,29.37905	t,t,t,t,t	<img class = center src='/static/experiments/beast_fmri_test/images/V.png'></img>	71,89	2750.0	test	<img class = center src='/static/experiments/beast_fmri_test/images/redV.png'></img>	stop	1350.0	2.0	17.0	stop	target	V	71,Green Button	89,Yellow Button	1400.0	1500.0	1350.0	1300.0	0.0	1400.0	0.0	1.0	stop_stim
294111.05791895511	1093.94208104	n/a	-1	-1	2750	1093.94208104	stim	stop-signal	699	1762145	0.0-25.17-1.17	beast_fmri_test	290	29.333716666666668,29.34505,29.356383333333333,29.367716666666666,29.37905	t,t,t,t,t	<img class = center src='/static/experiments/beast_fmri_test/images/V.png'></img>	71,89	2750.0	test	<img class = center src='/static/experiments/beast_fmri_test/images/redV.png'></img>	stop	1350.0	2.0	17.0	stop	target	V	71,Green Button	89,Yellow Button	1400.0	1500.0	1350.0	1300.0	0.0	1400.0	0.0	1.0	ITI
296829.0	500.0	n/a	-1	-1	500	0.0	fixation	poldrack-single-stim	700	1763769	0.0-25.18-0.18	beast_fmri_test	290	29.3904166666666	t	<div class = centerbox><div class = fixation>+</div></div>	none	500.0	test	n/a	n/a	n/a	n/a	n/a	n/a	n/a	n/a	n/a	n/a	n/a	n/a	n/a	n/a	n/a	n/a	n/a	n/a	fixation
294645.31165698846	2750.0	n/a	1554	89	2750	2185.68834301	stim	stop-signal	701	1766521	0.0-25.18-1.18	beast_fmri_test	290	29.401716666666665,29.41305,29.424383333333335,29.435716666666668,29.44705,29.458383333333334,29.469716666666667	t,t,t,t,t,t,t	<img class = center src='/static/experiments/beast_fmri_test/images/D.png'></img>	71,89	2750.0	test	<img class = center src='/static/experiments/beast_fmri_test/images/redD.png'></img>	go	1250.0	2.0	18.0	go	non-target	D	71,Green Button	89,Yellow Button	1450.0	1500.0	1350.0	1250.0	1.0	1500.0	1.0	n/a	go_stim
297395.31165698846	2185.68834301	n/a	1554	89	2750	2185.68834301	stim	stop-signal	701	1766521	0.0-25.18-1.18	beast_fmri_test	290	29.401716666666665,29.41305,29.424383333333335,29.435716666666668,29.44705,29.458383333333334,29.469716666666667	t,t,t,t,t,t,t	<img class = center src='/static/experiments/beast_fmri_test/images/D.png'></img>	71,89	2750.0	test	<img class = center src='/static/experiments/beast_fmri_test/images/redD.png'></img>	go	1250.0	2.0	18.0	go	non-target	D	71,Green Button	89,Yellow Button	1450.0	1500.0	1350.0	1250.0	1.0	1500.0	1.0	n/a	ITI
