onset	duration	text	rt	key_press	block_duration	timing_post_trial	trial_id	trial_type	trial_index	time_elapsed	internal_node_id	exp_id	subject_id	trigger_times	triggers	stimulus	possible_responses	stim_duration	exp_stage	SS_stimulus	SS_trial_type	SS_duration	load	trial_num	stop_trial_type	adaptive_trial_type	stim	yes_response_key	no_response_key	SSD_target	SSD_non_target	SSTarget	SSNonTarget	go_acc	SS_delay	adaptive_acc	stop_acc	new_trial_type
test	10880	n/a	-1	-1	10880	0.0	practice-no-stop-feedback	poldrack-single-stim	194	499622	0.0-10.0	beast_fmri_test	290	8.1457,8.157016666666667,8.16835,8.179683333333333,8.191016666666666,8.20235,8.213683333333334,8.225016666666667,8.23635,8.247683333333333,8.259016666666666,8.270366666666666,8.281683333333334,8.293016666666666,8.30435,8.315683333333334,8.327016666666667	t,t,t,t,t,t,t,t,t,t,t,t,t,t,t,t,t	"<div class = ""centerbox""><p class = ""center-block-text"">Your delay is 1 trials.</p><p class = center-block-text>Please wait for the scanner to start the block</p></div>"	77	10880.0	n/a	n/a	n/a	n/a	n/a	n/a	n/a	n/a	n/a	n/a	n/a	n/a	n/a	n/a	n/a	n/a	n/a	n/a	n/a	start_functional_block
11382.0	500	n/a	-1	-1	500	0.0	fixation	poldrack-single-stim	195	500124	0.0-11.0-0.0	beast_fmri_test	290	n/a	n/a	<div class = centerbox><div class = fixation>+</div></div>	none	500.0	test	n/a	n/a	n/a	n/a	n/a	n/a	n/a	n/a	n/a	n/a	n/a	n/a	n/a	n/a	n/a	n/a	n/a	n/a	fixation
11214.252737078175	2750	n/a	-1	-1	2750	169.747262922	stim	stop-signal	196	502876	0.0-11.0-1.0	beast_fmri_test	290	8.33835,8.349683333333333,8.361016666666666,8.37235,8.383683333333334	t,t,t,t,t	<img class = center src='/static/experiments/beast_fmri_test/images/P.png'></img>	71,89	2750.0	test	<img class = center src='/static/experiments/beast_fmri_test/images/redP.png'></img>	go	-1.0	1.0	0.0	go	temp-non-target	P	71,Green Button	89,Yellow Button	1000.0	1500.0	1750.0	1300.0	0.0	n/a	n/a	n/a	go_stim
13964.252737078175	169.74726292181501	n/a	-1	-1	2750	169.747262922	stim	stop-signal	196	502876	0.0-11.0-1.0	beast_fmri_test	290	8.33835,8.349683333333333,8.361016666666666,8.37235,8.383683333333334	t,t,t,t,t	<img class = center src='/static/experiments/beast_fmri_test/images/P.png'></img>	71,89	2750.0	test	<img class = center src='/static/experiments/beast_fmri_test/images/redP.png'></img>	go	-1.0	1.0	0.0	go	temp-non-target	P	71,Green Button	89,Yellow Button	1000.0	1500.0	1750.0	1300.0	0.0	n/a	n/a	n/a	ITI
14813.0	500	n/a	-1	-1	500	0.0	fixation	poldrack-single-stim	197	503555	0.0-11.1-0.1	beast_fmri_test	290	n/a	n/a	<div class = centerbox><div class = fixation>+</div></div>	none	500.0	test	n/a	n/a	n/a	n/a	n/a	n/a	n/a	n/a	n/a	n/a	n/a	n/a	n/a	n/a	n/a	n/a	n/a	n/a	fixation
13703.498475501314	2750	n/a	-1	-1	2750	1111.5015245	stim	stop-signal	198	506307	0.0-11.1-1.1	beast_fmri_test	290	8.395016666666667,8.40635,8.417683333333333,8.429,8.440366666666666,8.451683333333333	t,t,t,t,t,t	<img class = center src='/static/experiments/beast_fmri_test/images/T.png'></img>	71,89	2750.0	test	<img class = center src='/static/experiments/beast_fmri_test/images/redT.png'></img>	go	1250.0	1.0	1.0	go	non-target	T	71,Green Button	89,Yellow Button	1000.0	1500.0	1750.0	1250.0	0.0	1500.0	0.0	n/a	go_stim
16453.498475501314	1111.5015244986801	n/a	-1	-1	2750	1111.5015245	stim	stop-signal	198	506307	0.0-11.1-1.1	beast_fmri_test	290	8.395016666666667,8.40635,8.417683333333333,8.429,8.440366666666666,8.451683333333333	t,t,t,t,t,t	<img class = center src='/static/experiments/beast_fmri_test/images/T.png'></img>	71,89	2750.0	test	<img class = center src='/static/experiments/beast_fmri_test/images/redT.png'></img>	go	1250.0	1.0	1.0	go	non-target	T	71,Green Button	89,Yellow Button	1000.0	1500.0	1750.0	1250.0	0.0	1500.0	0.0	n/a	ITI
19188.0	500	n/a	-1	-1	500	0.0	fixation	poldrack-single-stim	199	507930	0.0-11.2-0.2	beast_fmri_test	290	8.46303333333333	t	<div class = centerbox><div class = fixation>+</div></div>	none	500.0	test	n/a	n/a	n/a	n/a	n/a	n/a	n/a	n/a	n/a	n/a	n/a	n/a	n/a	n/a	n/a	n/a	n/a	n/a	fixation
19148.631494121044	2750	n/a	-1	-1	2750	41.368505879	stim	stop-signal	200	510682	0.0-11.2-1.2	beast_fmri_test	290	8.474366666666667,8.4857,8.497016666666667,8.50835	t,t,t,t	<img class = center src='/static/experiments/beast_fmri_test/images/V.png'></img>	71,89	2750.0	test	<img class = center src='/static/experiments/beast_fmri_test/images/redV.png'></img>	go	1250.0	1.0	2.0	go	non-target	V	71,Green Button	89,Yellow Button	1000.0	1500.0	1750.0	1250.0	0.0	1500.0	0.0	n/a	go_stim
21898.631494121044	41.368505878965799	n/a	-1	-1	2750	41.368505879	stim	stop-signal	200	510682	0.0-11.2-1.2	beast_fmri_test	290	8.474366666666667,8.4857,8.497016666666667,8.50835	t,t,t,t	<img class = center src='/static/experiments/beast_fmri_test/images/V.png'></img>	71,89	2750.0	test	<img class = center src='/static/experiments/beast_fmri_test/images/redV.png'></img>	go	1250.0	1.0	2.0	go	non-target	V	71,Green Button	89,Yellow Button	1000.0	1500.0	1750.0	1250.0	0.0	1500.0	0.0	n/a	ITI
22490.0	500	n/a	-1	-1	500	0.0	fixation	poldrack-single-stim	201	511232	0.0-11.3-0.3	beast_fmri_test	290	8.5197	t	<div class = centerbox><div class = fixation>+</div></div>	none	500.0	test	n/a	n/a	n/a	n/a	n/a	n/a	n/a	n/a	n/a	n/a	n/a	n/a	n/a	n/a	n/a	n/a	n/a	n/a	fixation
22284.743230509048	2750	n/a	-1	-1	2750	207.256769491	stim	stop-signal	202	513984	0.0-11.3-1.3	beast_fmri_test	290	8.531016666666666,8.542366666666666,8.5537,8.565033333333334	t,t,t,t	<img class = center src='/static/experiments/beast_fmri_test/images/V.png'></img>	71,89	2750.0	test	<img class = center src='/static/experiments/beast_fmri_test/images/redV.png'></img>	go	1750.0	1.0	3.0	go	target	V	71,Green Button	89,Yellow Button	1000.0	1500.0	1750.0	1250.0	0.0	1000.0	0.0	n/a	go_stim
25034.743230509048	207.25676949095299	n/a	-1	-1	2750	207.256769491	stim	stop-signal	202	513984	0.0-11.3-1.3	beast_fmri_test	290	8.531016666666666,8.542366666666666,8.5537,8.565033333333334	t,t,t,t	<img class = center src='/static/experiments/beast_fmri_test/images/V.png'></img>	71,89	2750.0	test	<img class = center src='/static/experiments/beast_fmri_test/images/redV.png'></img>	go	1750.0	1.0	3.0	go	target	V	71,Green Button	89,Yellow Button	1000.0	1500.0	1750.0	1250.0	0.0	1000.0	0.0	n/a	ITI
25960.0	500	n/a	-1	-1	500	0.0	fixation	poldrack-single-stim	203	514702	0.0-11.4-0.4	beast_fmri_test	290	8.57635	t	<div class = centerbox><div class = fixation>+</div></div>	none	500.0	test	n/a	n/a	n/a	n/a	n/a	n/a	n/a	n/a	n/a	n/a	n/a	n/a	n/a	n/a	n/a	n/a	n/a	n/a	fixation
25157.216804057884	2750	n/a	-1	-1	2750	804.783195942	stim	stop-signal	204	517454	0.0-11.4-1.4	beast_fmri_test	290	8.5877,8.599033333333333,8.610383333333333,8.621683333333333,8.633033333333334	t,t,t,t,t	<img class = center src='/static/experiments/beast_fmri_test/images/B.png'></img>	71,89	2750.0	test	<img class = center src='/static/experiments/beast_fmri_test/images/redB.png'></img>	go	1250.0	1.0	4.0	go	non-target	B	71,Green Button	89,Yellow Button	1000.0	1500.0	1750.0	1250.0	0.0	1500.0	0.0	n/a	go_stim
27907.216804057884	804.783195942097	n/a	-1	-1	2750	804.783195942	stim	stop-signal	204	517454	0.0-11.4-1.4	beast_fmri_test	290	8.5877,8.599033333333333,8.610383333333333,8.621683333333333,8.633033333333334	t,t,t,t,t	<img class = center src='/static/experiments/beast_fmri_test/images/B.png'></img>	71,89	2750.0	test	<img class = center src='/static/experiments/beast_fmri_test/images/redB.png'></img>	go	1250.0	1.0	4.0	go	non-target	B	71,Green Button	89,Yellow Button	1000.0	1500.0	1750.0	1250.0	0.0	1500.0	0.0	n/a	ITI
30027.0	500	n/a	-1	-1	500	0.0	fixation	poldrack-single-stim	205	518769	0.0-11.5-0.5	beast_fmri_test	290	8.64435	t	<div class = centerbox><div class = fixation>+</div></div>	none	500.0	test	n/a	n/a	n/a	n/a	n/a	n/a	n/a	n/a	n/a	n/a	n/a	n/a	n/a	n/a	n/a	n/a	n/a	n/a	fixation
29354.938271335908	2750	n/a	-1	-1	2750	674.061728664	stim	stop-signal	206	521521	0.0-11.5-1.5	beast_fmri_test	290	8.655683333333334,8.667016666666667,8.678366666666667,8.689683333333333,8.701016666666666	t,t,t,t,t	<img class = center src='/static/experiments/beast_fmri_test/images/D.png'></img>	71,89	2750.0	test	<img class = center src='/static/experiments/beast_fmri_test/images/redD.png'></img>	go	1250.0	1.0	5.0	go	non-target	D	71,Green Button	89,Yellow Button	1000.0	1500.0	1750.0	1250.0	0.0	1500.0	0.0	n/a	go_stim
32104.938271335908	674.06172866407803	n/a	-1	-1	2750	674.061728664	stim	stop-signal	206	521521	0.0-11.5-1.5	beast_fmri_test	290	8.655683333333334,8.667016666666667,8.678366666666667,8.689683333333333,8.701016666666666	t,t,t,t,t	<img class = center src='/static/experiments/beast_fmri_test/images/D.png'></img>	71,89	2750.0	test	<img class = center src='/static/experiments/beast_fmri_test/images/redD.png'></img>	go	1250.0	1.0	5.0	go	non-target	D	71,Green Button	89,Yellow Button	1000.0	1500.0	1750.0	1250.0	0.0	1500.0	0.0	n/a	ITI
33963.0	500	n/a	-1	-1	500	0.0	fixation	poldrack-single-stim	207	522705	0.0-11.6-0.6	beast_fmri_test	290	n/a	n/a	<div class = centerbox><div class = fixation>+</div></div>	none	500.0	test	n/a	n/a	n/a	n/a	n/a	n/a	n/a	n/a	n/a	n/a	n/a	n/a	n/a	n/a	n/a	n/a	n/a	n/a	fixation
32013.877452829154	1500.0	n/a	-1	-1	2750	1951.12254717	stim	stop-signal	208	525457	0.0-11.6-1.6	beast_fmri_test	290	8.71235,8.723683333333334,8.735016666666667,8.74635,8.757683333333333,8.769016666666667,8.780366666666668	t,t,t,t,t,t,t	<img class = center src='/static/experiments/beast_fmri_test/images/T.png'></img>	71,89	2750.0	test	<img class = center src='/static/experiments/beast_fmri_test/images/redT.png'></img>	stop	1250.0	1.0	6.0	stop	non-target	T	71,Green Button	89,Yellow Button	1000.0	1500.0	1750.0	1250.0	0.0	1500.0	0.0	1.0	go_stim
33263.877452829154	1250.0	n/a	-1	-1	2750	1951.12254717	stim	stop-signal	208	525457	0.0-11.6-1.6	beast_fmri_test	290	8.71235,8.723683333333334,8.735016666666667,8.74635,8.757683333333333,8.769016666666667,8.780366666666668	t,t,t,t,t,t,t	<img class = center src='/static/experiments/beast_fmri_test/images/T.png'></img>	71,89	2750.0	test	<img class = center src='/static/experiments/beast_fmri_test/images/redT.png'></img>	stop	1250.0	1.0	6.0	stop	non-target	T	71,Green Button	89,Yellow Button	1000.0	1500.0	1750.0	1250.0	0.0	1500.0	0.0	1.0	stop_stim
34763.877452829154	1951.1225471708501	n/a	-1	-1	2750	1951.12254717	stim	stop-signal	208	525457	0.0-11.6-1.6	beast_fmri_test	290	8.71235,8.723683333333334,8.735016666666667,8.74635,8.757683333333333,8.769016666666667,8.780366666666668	t,t,t,t,t,t,t	<img class = center src='/static/experiments/beast_fmri_test/images/T.png'></img>	71,89	2750.0	test	<img class = center src='/static/experiments/beast_fmri_test/images/redT.png'></img>	stop	1250.0	1.0	6.0	stop	non-target	T	71,Green Button	89,Yellow Button	1000.0	1500.0	1750.0	1250.0	0.0	1500.0	0.0	1.0	ITI
39177.0	500	n/a	-1	-1	500	0.0	fixation	poldrack-single-stim	209	527919	0.0-11.7-0.7	beast_fmri_test	290	8.7917	t	<div class = centerbox><div class = fixation>+</div></div>	none	500.0	test	n/a	n/a	n/a	n/a	n/a	n/a	n/a	n/a	n/a	n/a	n/a	n/a	n/a	n/a	n/a	n/a	n/a	n/a	fixation
39108.167317336658	2750	n/a	-1	-1	2750	70.8326826634	stim	stop-signal	210	530671	0.0-11.7-1.7	beast_fmri_test	290	8.803016666666666,8.81435,8.825683333333334,8.837016666666667	t,t,t,t	<img class = center src='/static/experiments/beast_fmri_test/images/D.png'></img>	71,89	2750.0	test	<img class = center src='/static/experiments/beast_fmri_test/images/redD.png'></img>	go	1250.0	1.0	7.0	go	non-target	D	71,Green Button	89,Yellow Button	1000.0	1500.0	1750.0	1250.0	0.0	1500.0	0.0	n/a	go_stim
41858.167317336658	70.832682663399595	n/a	-1	-1	2750	70.8326826634	stim	stop-signal	210	530671	0.0-11.7-1.7	beast_fmri_test	290	8.803016666666666,8.81435,8.825683333333334,8.837016666666667	t,t,t,t	<img class = center src='/static/experiments/beast_fmri_test/images/D.png'></img>	71,89	2750.0	test	<img class = center src='/static/experiments/beast_fmri_test/images/redD.png'></img>	go	1250.0	1.0	7.0	go	non-target	D	71,Green Button	89,Yellow Button	1000.0	1500.0	1750.0	1250.0	0.0	1500.0	0.0	n/a	ITI
42513.0	500	n/a	-1	-1	500	0.0	fixation	poldrack-single-stim	211	531255	0.0-11.8-0.8	beast_fmri_test	290	8.84835	t	<div class = centerbox><div class = fixation>+</div></div>	none	500.0	test	n/a	n/a	n/a	n/a	n/a	n/a	n/a	n/a	n/a	n/a	n/a	n/a	n/a	n/a	n/a	n/a	n/a	n/a	fixation
42446.180889720912	1500.0	n/a	-1	-1	2750	68.8191102791	stim	stop-signal	212	534007	0.0-11.8-1.8	beast_fmri_test	290	8.859683333333333,8.871016666666666,8.88235,8.893683333333334	t,t,t,t	<img class = center src='/static/experiments/beast_fmri_test/images/B.png'></img>	71,89	2750.0	test	<img class = center src='/static/experiments/beast_fmri_test/images/redB.png'></img>	stop	1250.0	1.0	8.0	stop	non-target	B	71,Green Button	89,Yellow Button	1000.0	1500.0	1750.0	1250.0	0.0	1500.0	0.0	1.0	go_stim
43696.180889720912	1250.0	n/a	-1	-1	2750	68.8191102791	stim	stop-signal	212	534007	0.0-11.8-1.8	beast_fmri_test	290	8.859683333333333,8.871016666666666,8.88235,8.893683333333334	t,t,t,t	<img class = center src='/static/experiments/beast_fmri_test/images/B.png'></img>	71,89	2750.0	test	<img class = center src='/static/experiments/beast_fmri_test/images/redB.png'></img>	stop	1250.0	1.0	8.0	stop	non-target	B	71,Green Button	89,Yellow Button	1000.0	1500.0	1750.0	1250.0	0.0	1500.0	0.0	1.0	stop_stim
45196.180889720912	68.819110279109594	n/a	-1	-1	2750	68.8191102791	stim	stop-signal	212	534007	0.0-11.8-1.8	beast_fmri_test	290	8.859683333333333,8.871016666666666,8.88235,8.893683333333334	t,t,t,t	<img class = center src='/static/experiments/beast_fmri_test/images/B.png'></img>	71,89	2750.0	test	<img class = center src='/static/experiments/beast_fmri_test/images/redB.png'></img>	stop	1250.0	1.0	8.0	stop	non-target	B	71,Green Button	89,Yellow Button	1000.0	1500.0	1750.0	1250.0	0.0	1500.0	0.0	1.0	ITI
45845.0	500	n/a	-1	-1	500	0.0	fixation	poldrack-single-stim	213	534587	0.0-11.9-0.9	beast_fmri_test	290	8.90501666666666	t	<div class = centerbox><div class = fixation>+</div></div>	none	500.0	test	n/a	n/a	n/a	n/a	n/a	n/a	n/a	n/a	n/a	n/a	n/a	n/a	n/a	n/a	n/a	n/a	n/a	n/a	fixation
44343.014287712285	2750	n/a	-1	-1	2750	1503.98571229	stim	stop-signal	214	537339	0.0-11.9-1.9	beast_fmri_test	290	8.91635,8.927683333333333,8.939016666666667,8.950383333333333,8.961683333333333,8.973016666666666	t,t,t,t,t,t	<img class = center src='/static/experiments/beast_fmri_test/images/T.png'></img>	71,89	2750.0	test	<img class = center src='/static/experiments/beast_fmri_test/images/redT.png'></img>	go	1250.0	1.0	9.0	go	non-target	T	71,Green Button	89,Yellow Button	1000.0	1500.0	1750.0	1250.0	0.0	1500.0	0.0	n/a	go_stim
47093.014287712285	1503.9857122876799	n/a	-1	-1	2750	1503.98571229	stim	stop-signal	214	537339	0.0-11.9-1.9	beast_fmri_test	290	8.91635,8.927683333333333,8.939016666666667,8.950383333333333,8.961683333333333,8.973016666666666	t,t,t,t,t,t	<img class = center src='/static/experiments/beast_fmri_test/images/T.png'></img>	71,89	2750.0	test	<img class = center src='/static/experiments/beast_fmri_test/images/redT.png'></img>	go	1250.0	1.0	9.0	go	non-target	T	71,Green Button	89,Yellow Button	1000.0	1500.0	1750.0	1250.0	0.0	1500.0	0.0	n/a	ITI
50611.0	500	n/a	-1	-1	500	0.0	fixation	poldrack-single-stim	215	539353	0.0-11.10-0.10	beast_fmri_test	290	8.98435	t	<div class = centerbox><div class = fixation>+</div></div>	none	500.0	test	n/a	n/a	n/a	n/a	n/a	n/a	n/a	n/a	n/a	n/a	n/a	n/a	n/a	n/a	n/a	n/a	n/a	n/a	fixation
49936.286907222704	2750	n/a	-1	-1	2750	676.713092777	stim	stop-signal	216	542105	0.0-11.10-1.10	beast_fmri_test	290	8.995683333333334,9.007016666666667,9.018366666666667,9.0297,9.041033333333333	t,t,t,t,t	<img class = center src='/static/experiments/beast_fmri_test/images/T.png'></img>	71,89	2750.0	test	<img class = center src='/static/experiments/beast_fmri_test/images/redT.png'></img>	go	1750.0	1.0	10.0	go	target	T	71,Green Button	89,Yellow Button	1000.0	1500.0	1750.0	1250.0	0.0	1000.0	0.0	n/a	go_stim
52686.286907222704	676.71309277726402	n/a	-1	-1	2750	676.713092777	stim	stop-signal	216	542105	0.0-11.10-1.10	beast_fmri_test	290	8.995683333333334,9.007016666666667,9.018366666666667,9.0297,9.041033333333333	t,t,t,t,t	<img class = center src='/static/experiments/beast_fmri_test/images/T.png'></img>	71,89	2750.0	test	<img class = center src='/static/experiments/beast_fmri_test/images/redT.png'></img>	go	1750.0	1.0	10.0	go	target	T	71,Green Button	89,Yellow Button	1000.0	1500.0	1750.0	1250.0	0.0	1000.0	0.0	n/a	ITI
54551.0	500	n/a	-1	-1	500	0.0	fixation	poldrack-single-stim	217	543293	0.0-11.11-0.11	beast_fmri_test	290	9.05236666666666	t	<div class = centerbox><div class = fixation>+</div></div>	none	500.0	test	n/a	n/a	n/a	n/a	n/a	n/a	n/a	n/a	n/a	n/a	n/a	n/a	n/a	n/a	n/a	n/a	n/a	n/a	fixation
53553.356225663098	1000.0	n/a	-1	-1	2750	999.643774337	stim	stop-signal	218	546045	0.0-11.11-1.11	beast_fmri_test	290	9.0637,9.075033333333334,9.086366666666667,9.0977,9.109033333333333	t,t,t,t,t	<img class = center src='/static/experiments/beast_fmri_test/images/T.png'></img>	71,89	2750.0	test	<img class = center src='/static/experiments/beast_fmri_test/images/redT.png'></img>	stop	1750.0	1.0	11.0	stop	target	T	71,Green Button	89,Yellow Button	1000.0	1500.0	1750.0	1250.0	0.0	1000.0	0.0	1.0	go_stim
55303.356225663098	1750.0	n/a	-1	-1	2750	999.643774337	stim	stop-signal	218	546045	0.0-11.11-1.11	beast_fmri_test	290	9.0637,9.075033333333334,9.086366666666667,9.0977,9.109033333333333	t,t,t,t,t	<img class = center src='/static/experiments/beast_fmri_test/images/T.png'></img>	71,89	2750.0	test	<img class = center src='/static/experiments/beast_fmri_test/images/redT.png'></img>	stop	1750.0	1.0	11.0	stop	target	T	71,Green Button	89,Yellow Button	1000.0	1500.0	1750.0	1250.0	0.0	1000.0	0.0	1.0	stop_stim
56303.356225663098	999.64377433686298	n/a	-1	-1	2750	999.643774337	stim	stop-signal	218	546045	0.0-11.11-1.11	beast_fmri_test	290	9.0637,9.075033333333334,9.086366666666667,9.0977,9.109033333333333	t,t,t,t,t	<img class = center src='/static/experiments/beast_fmri_test/images/T.png'></img>	71,89	2750.0	test	<img class = center src='/static/experiments/beast_fmri_test/images/redT.png'></img>	stop	1750.0	1.0	11.0	stop	target	T	71,Green Button	89,Yellow Button	1000.0	1500.0	1750.0	1250.0	0.0	1000.0	0.0	1.0	ITI
58815.0	500	n/a	-1	-1	500	0.0	fixation	poldrack-single-stim	219	547557	0.0-11.12-0.12	beast_fmri_test	290	9.12038333333333	t	<div class = centerbox><div class = fixation>+</div></div>	none	500.0	test	n/a	n/a	n/a	n/a	n/a	n/a	n/a	n/a	n/a	n/a	n/a	n/a	n/a	n/a	n/a	n/a	n/a	n/a	fixation
58538.969577860553	1050.0	n/a	-1	-1	2750	278.030422139	stim	stop-signal	220	550309	0.0-11.12-1.12	beast_fmri_test	290	9.1317,9.143033333333333,9.154366666666666,9.1657	t,t,t,t	<img class = center src='/static/experiments/beast_fmri_test/images/T.png'></img>	71,89	2750.0	test	<img class = center src='/static/experiments/beast_fmri_test/images/redT.png'></img>	stop	1700.0	1.0	12.0	stop	target	T	71,Green Button	89,Yellow Button	1050.0	1500.0	1700.0	1250.0	0.0	1050.0	0.0	1.0	go_stim
60238.969577860553	1700.0	n/a	-1	-1	2750	278.030422139	stim	stop-signal	220	550309	0.0-11.12-1.12	beast_fmri_test	290	9.1317,9.143033333333333,9.154366666666666,9.1657	t,t,t,t	<img class = center src='/static/experiments/beast_fmri_test/images/T.png'></img>	71,89	2750.0	test	<img class = center src='/static/experiments/beast_fmri_test/images/redT.png'></img>	stop	1700.0	1.0	12.0	stop	target	T	71,Green Button	89,Yellow Button	1050.0	1500.0	1700.0	1250.0	0.0	1050.0	0.0	1.0	stop_stim
61288.969577860553	278.03042213945002	n/a	-1	-1	2750	278.030422139	stim	stop-signal	220	550309	0.0-11.12-1.12	beast_fmri_test	290	9.1317,9.143033333333333,9.154366666666666,9.1657	t,t,t,t	<img class = center src='/static/experiments/beast_fmri_test/images/T.png'></img>	71,89	2750.0	test	<img class = center src='/static/experiments/beast_fmri_test/images/redT.png'></img>	stop	1700.0	1.0	12.0	stop	target	T	71,Green Button	89,Yellow Button	1050.0	1500.0	1700.0	1250.0	0.0	1050.0	0.0	1.0	ITI
62356.0	500	n/a	-1	-1	500	0.0	fixation	poldrack-single-stim	221	551098	0.0-11.13-0.13	beast_fmri_test	290	9.17703333333333	t	<div class = centerbox><div class = fixation>+</div></div>	none	500.0	test	n/a	n/a	n/a	n/a	n/a	n/a	n/a	n/a	n/a	n/a	n/a	n/a	n/a	n/a	n/a	n/a	n/a	n/a	fixation
60470.785871063475	2750	n/a	-1	-1	2750	1887.21412894	stim	stop-signal	222	553850	0.0-11.13-1.13	beast_fmri_test	290	9.188366666666667,9.1997,9.211033333333333,9.222366666666666,9.2337,9.245016666666666,9.256366666666667	t,t,t,t,t,t,t	<img class = center src='/static/experiments/beast_fmri_test/images/B.png'></img>	71,89	2750.0	test	<img class = center src='/static/experiments/beast_fmri_test/images/redB.png'></img>	go	1250.0	1.0	13.0	go	non-target	B	71,Green Button	89,Yellow Button	1100.0	1500.0	1700.0	1250.0	0.0	1500.0	0.0	n/a	go_stim
63220.785871063475	1887.21412893652	n/a	-1	-1	2750	1887.21412894	stim	stop-signal	222	553850	0.0-11.13-1.13	beast_fmri_test	290	9.188366666666667,9.1997,9.211033333333333,9.222366666666666,9.2337,9.245016666666666,9.256366666666667	t,t,t,t,t,t,t	<img class = center src='/static/experiments/beast_fmri_test/images/B.png'></img>	71,89	2750.0	test	<img class = center src='/static/experiments/beast_fmri_test/images/redB.png'></img>	go	1250.0	1.0	13.0	go	non-target	B	71,Green Button	89,Yellow Button	1100.0	1500.0	1700.0	1250.0	0.0	1500.0	0.0	n/a	ITI
67506.0	500	n/a	-1	-1	500	0.0	fixation	poldrack-single-stim	223	556248	0.0-11.14-0.14	beast_fmri_test	290	9.26768333333333	t	<div class = centerbox><div class = fixation>+</div></div>	none	500.0	test	n/a	n/a	n/a	n/a	n/a	n/a	n/a	n/a	n/a	n/a	n/a	n/a	n/a	n/a	n/a	n/a	n/a	n/a	fixation
67301.205657053972	1500.0	n/a	-1	-1	2750	205.794342946	stim	stop-signal	224	558999	0.0-11.14-1.14	beast_fmri_test	290	9.279033333333333,9.290366666666667,9.3017,9.313016666666666	t,t,t,t	<img class = center src='/static/experiments/beast_fmri_test/images/T.png'></img>	71,89	2750.0	test	<img class = center src='/static/experiments/beast_fmri_test/images/redT.png'></img>	stop	1250.0	1.0	14.0	stop	non-target	T	71,Green Button	89,Yellow Button	1100.0	1500.0	1700.0	1250.0	0.0	1500.0	0.0	1.0	go_stim
68551.205657053972	1250.0	n/a	-1	-1	2750	205.794342946	stim	stop-signal	224	558999	0.0-11.14-1.14	beast_fmri_test	290	9.279033333333333,9.290366666666667,9.3017,9.313016666666666	t,t,t,t	<img class = center src='/static/experiments/beast_fmri_test/images/T.png'></img>	71,89	2750.0	test	<img class = center src='/static/experiments/beast_fmri_test/images/redT.png'></img>	stop	1250.0	1.0	14.0	stop	non-target	T	71,Green Button	89,Yellow Button	1100.0	1500.0	1700.0	1250.0	0.0	1500.0	0.0	1.0	stop_stim
70051.205657053972	205.79434294603101	n/a	-1	-1	2750	205.794342946	stim	stop-signal	224	558999	0.0-11.14-1.14	beast_fmri_test	290	9.279033333333333,9.290366666666667,9.3017,9.313016666666666	t,t,t,t	<img class = center src='/static/experiments/beast_fmri_test/images/T.png'></img>	71,89	2750.0	test	<img class = center src='/static/experiments/beast_fmri_test/images/redT.png'></img>	stop	1250.0	1.0	14.0	stop	non-target	T	71,Green Button	89,Yellow Button	1100.0	1500.0	1700.0	1250.0	0.0	1500.0	0.0	1.0	ITI
70976.0	500	n/a	-1	-1	500	0.0	fixation	poldrack-single-stim	225	559718	0.0-11.15-0.15	beast_fmri_test	290	9.32436666666666	t	<div class = centerbox><div class = fixation>+</div></div>	none	500.0	test	n/a	n/a	n/a	n/a	n/a	n/a	n/a	n/a	n/a	n/a	n/a	n/a	n/a	n/a	n/a	n/a	n/a	n/a	fixation
70185.992875552038	1500.0	n/a	-1	-1	2750	793.007124448	stim	stop-signal	226	562471	0.0-11.15-1.15	beast_fmri_test	290	9.3357,9.347033333333334,9.358366666666667,9.369683333333333,9.381016666666667	t,t,t,t,t	<img class = center src='/static/experiments/beast_fmri_test/images/D.png'></img>	71,89	2750.0	test	<img class = center src='/static/experiments/beast_fmri_test/images/redD.png'></img>	stop	1250.0	1.0	15.0	stop	non-target	D	71,Green Button	89,Yellow Button	1100.0	1500.0	1700.0	1250.0	0.0	1500.0	0.0	1.0	go_stim
71435.992875552038	1250.0	n/a	-1	-1	2750	793.007124448	stim	stop-signal	226	562471	0.0-11.15-1.15	beast_fmri_test	290	9.3357,9.347033333333334,9.358366666666667,9.369683333333333,9.381016666666667	t,t,t,t,t	<img class = center src='/static/experiments/beast_fmri_test/images/D.png'></img>	71,89	2750.0	test	<img class = center src='/static/experiments/beast_fmri_test/images/redD.png'></img>	stop	1250.0	1.0	15.0	stop	non-target	D	71,Green Button	89,Yellow Button	1100.0	1500.0	1700.0	1250.0	0.0	1500.0	0.0	1.0	stop_stim
72935.992875552038	793.00712444791498	n/a	-1	-1	2750	793.007124448	stim	stop-signal	226	562471	0.0-11.15-1.15	beast_fmri_test	290	9.3357,9.347033333333334,9.358366666666667,9.369683333333333,9.381016666666667	t,t,t,t,t	<img class = center src='/static/experiments/beast_fmri_test/images/D.png'></img>	71,89	2750.0	test	<img class = center src='/static/experiments/beast_fmri_test/images/redD.png'></img>	stop	1250.0	1.0	15.0	stop	non-target	D	71,Green Button	89,Yellow Button	1100.0	1500.0	1700.0	1250.0	0.0	1500.0	0.0	1.0	ITI
75035.0	500	n/a	-1	-1	500	0.0	fixation	poldrack-single-stim	227	563777	0.0-11.16-0.16	beast_fmri_test	290	9.39236666666666	t	<div class = centerbox><div class = fixation>+</div></div>	none	500.0	test	n/a	n/a	n/a	n/a	n/a	n/a	n/a	n/a	n/a	n/a	n/a	n/a	n/a	n/a	n/a	n/a	n/a	n/a	fixation
74562.375912862248	1500.0	n/a	-1	-1	2750	473.624087138	stim	stop-signal	228	566528	0.0-11.16-1.16	beast_fmri_test	290	9.403683333333333,9.415033333333334,9.426366666666667,9.437683333333334,9.449016666666667	t,t,t,t,t	<img class = center src='/static/experiments/beast_fmri_test/images/T.png'></img>	71,89	2750.0	test	<img class = center src='/static/experiments/beast_fmri_test/images/redT.png'></img>	stop	1250.0	1.0	16.0	stop	non-target	T	71,Green Button	89,Yellow Button	1100.0	1500.0	1700.0	1250.0	0.0	1500.0	0.0	1.0	go_stim
75812.375912862248	1250.0	n/a	-1	-1	2750	473.624087138	stim	stop-signal	228	566528	0.0-11.16-1.16	beast_fmri_test	290	9.403683333333333,9.415033333333334,9.426366666666667,9.437683333333334,9.449016666666667	t,t,t,t,t	<img class = center src='/static/experiments/beast_fmri_test/images/T.png'></img>	71,89	2750.0	test	<img class = center src='/static/experiments/beast_fmri_test/images/redT.png'></img>	stop	1250.0	1.0	16.0	stop	non-target	T	71,Green Button	89,Yellow Button	1100.0	1500.0	1700.0	1250.0	0.0	1500.0	0.0	1.0	stop_stim
77312.375912862248	473.62408713780502	n/a	-1	-1	2750	473.624087138	stim	stop-signal	228	566528	0.0-11.16-1.16	beast_fmri_test	290	9.403683333333333,9.415033333333334,9.426366666666667,9.437683333333334,9.449016666666667	t,t,t,t,t	<img class = center src='/static/experiments/beast_fmri_test/images/T.png'></img>	71,89	2750.0	test	<img class = center src='/static/experiments/beast_fmri_test/images/redT.png'></img>	stop	1250.0	1.0	16.0	stop	non-target	T	71,Green Button	89,Yellow Button	1100.0	1500.0	1700.0	1250.0	0.0	1500.0	0.0	1.0	ITI
78773.0	500	n/a	-1	-1	500	0.0	fixation	poldrack-single-stim	229	567515	0.0-11.17-0.17	beast_fmri_test	290	n/a	n/a	<div class = centerbox><div class = fixation>+</div></div>	none	500.0	test	n/a	n/a	n/a	n/a	n/a	n/a	n/a	n/a	n/a	n/a	n/a	n/a	n/a	n/a	n/a	n/a	n/a	n/a	fixation
78202.99513174803	2750	n/a	-1	-1	2750	571.004868252	stim	stop-signal	230	570266	0.0-11.17-1.17	beast_fmri_test	290	9.460383333333333,9.471683333333333,9.483033333333333,9.49435,9.505683333333334	t,t,t,t,t	<img class = center src='/static/experiments/beast_fmri_test/images/T.png'></img>	71,89	2750.0	test	<img class = center src='/static/experiments/beast_fmri_test/images/redT.png'></img>	go	1650.0	1.0	17.0	go	target	T	71,Green Button	89,Yellow Button	1100.0	1500.0	1650.0	1250.0	0.0	1100.0	0.0	n/a	go_stim
80952.99513174803	571.00486825195901	n/a	-1	-1	2750	571.004868252	stim	stop-signal	230	570266	0.0-11.17-1.17	beast_fmri_test	290	9.460383333333333,9.471683333333333,9.483033333333333,9.49435,9.505683333333334	t,t,t,t,t	<img class = center src='/static/experiments/beast_fmri_test/images/T.png'></img>	71,89	2750.0	test	<img class = center src='/static/experiments/beast_fmri_test/images/redT.png'></img>	go	1650.0	1.0	17.0	go	target	T	71,Green Button	89,Yellow Button	1100.0	1500.0	1650.0	1250.0	0.0	1100.0	0.0	n/a	ITI
82608.0	500	n/a	-1	-1	500	0.0	fixation	poldrack-single-stim	231	571350	0.0-11.18-0.18	beast_fmri_test	290	9.51703333333333	t	<div class = centerbox><div class = fixation>+</div></div>	none	500.0	test	n/a	n/a	n/a	n/a	n/a	n/a	n/a	n/a	n/a	n/a	n/a	n/a	n/a	n/a	n/a	n/a	n/a	n/a	fixation
82189.658474956639	2750	n/a	-1	-1	2750	420.341525043	stim	stop-signal	232	574102	0.0-11.18-1.18	beast_fmri_test	290	9.52835,9.539683333333333,9.551016666666667,9.562366666666666,9.5737	t,t,t,t,t	<img class = center src='/static/experiments/beast_fmri_test/images/T.png'></img>	71,89	2750.0	test	<img class = center src='/static/experiments/beast_fmri_test/images/redT.png'></img>	go	1650.0	1.0	18.0	go	target	T	71,Green Button	89,Yellow Button	1100.0	1500.0	1650.0	1250.0	0.0	1100.0	0.0	n/a	go_stim
84939.658474956639	420.341525043373	n/a	-1	-1	2750	420.341525043	stim	stop-signal	232	574102	0.0-11.18-1.18	beast_fmri_test	290	9.52835,9.539683333333333,9.551016666666667,9.562366666666666,9.5737	t,t,t,t,t	<img class = center src='/static/experiments/beast_fmri_test/images/T.png'></img>	71,89	2750.0	test	<img class = center src='/static/experiments/beast_fmri_test/images/redT.png'></img>	go	1650.0	1.0	18.0	go	target	T	71,Green Button	89,Yellow Button	1100.0	1500.0	1650.0	1250.0	0.0	1100.0	0.0	n/a	ITI
86292.0	500	n/a	-1	-1	500	0.0	fixation	poldrack-single-stim	233	575034	0.0-11.19-0.19	beast_fmri_test	290	n/a	n/a	<div class = centerbox><div class = fixation>+</div></div>	none	500.0	test	n/a	n/a	n/a	n/a	n/a	n/a	n/a	n/a	n/a	n/a	n/a	n/a	n/a	n/a	n/a	n/a	n/a	n/a	fixation
85001.972629819997	2750	n/a	-1	-1	2750	1292.02737018	stim	stop-signal	234	577786	0.0-11.19-1.19	beast_fmri_test	290	9.585033333333334,9.596366666666666,9.6077,9.619033333333334,9.630383333333333,9.6417	t,t,t,t,t,t	<img class = center src='/static/experiments/beast_fmri_test/images/V.png'></img>	71,89	2750.0	test	<img class = center src='/static/experiments/beast_fmri_test/images/redV.png'></img>	go	1250.0	1.0	19.0	go	non-target	V	71,Green Button	89,Yellow Button	1100.0	1500.0	1650.0	1250.0	0.0	1500.0	0.0	n/a	go_stim
87751.972629819997	1292.0273701800199	n/a	-1	-1	2750	1292.02737018	stim	stop-signal	234	577786	0.0-11.19-1.19	beast_fmri_test	290	9.585033333333334,9.596366666666666,9.6077,9.619033333333334,9.630383333333333,9.6417	t,t,t,t,t,t	<img class = center src='/static/experiments/beast_fmri_test/images/V.png'></img>	71,89	2750.0	test	<img class = center src='/static/experiments/beast_fmri_test/images/redV.png'></img>	go	1250.0	1.0	19.0	go	non-target	V	71,Green Button	89,Yellow Button	1100.0	1500.0	1650.0	1250.0	0.0	1500.0	0.0	n/a	ITI
90847.0	500	n/a	-1	-1	500	0.0	fixation	poldrack-single-stim	235	579589	0.0-11.20-0.20	beast_fmri_test	290	9.65303333333333	t	<div class = centerbox><div class = fixation>+</div></div>	none	500.0	test	n/a	n/a	n/a	n/a	n/a	n/a	n/a	n/a	n/a	n/a	n/a	n/a	n/a	n/a	n/a	n/a	n/a	n/a	fixation
88527.140440334333	1500.0	n/a	-1	-1	2750	2321.85955967	stim	stop-signal	236	582341	0.0-11.20-1.20	beast_fmri_test	290	9.664366666666666,9.6757,9.687033333333334,9.698366666666667,9.7097,9.721033333333333,9.732366666666667,9.7437	t,t,t,t,t,t,t,t	<img class = center src='/static/experiments/beast_fmri_test/images/P.png'></img>	71,89	2750.0	test	<img class = center src='/static/experiments/beast_fmri_test/images/redP.png'></img>	stop	1250.0	1.0	20.0	stop	non-target	P	71,Green Button	89,Yellow Button	1100.0	1500.0	1650.0	1250.0	0.0	1500.0	0.0	1.0	go_stim
89777.140440334333	1250.0	n/a	-1	-1	2750	2321.85955967	stim	stop-signal	236	582341	0.0-11.20-1.20	beast_fmri_test	290	9.664366666666666,9.6757,9.687033333333334,9.698366666666667,9.7097,9.721033333333333,9.732366666666667,9.7437	t,t,t,t,t,t,t,t	<img class = center src='/static/experiments/beast_fmri_test/images/P.png'></img>	71,89	2750.0	test	<img class = center src='/static/experiments/beast_fmri_test/images/redP.png'></img>	stop	1250.0	1.0	20.0	stop	non-target	P	71,Green Button	89,Yellow Button	1100.0	1500.0	1650.0	1250.0	0.0	1500.0	0.0	1.0	stop_stim
91277.140440334333	2321.8595596657201	n/a	-1	-1	2750	2321.85955967	stim	stop-signal	236	582341	0.0-11.20-1.20	beast_fmri_test	290	9.664366666666666,9.6757,9.687033333333334,9.698366666666667,9.7097,9.721033333333333,9.732366666666667,9.7437	t,t,t,t,t,t,t,t	<img class = center src='/static/experiments/beast_fmri_test/images/P.png'></img>	71,89	2750.0	test	<img class = center src='/static/experiments/beast_fmri_test/images/redP.png'></img>	stop	1250.0	1.0	20.0	stop	non-target	P	71,Green Button	89,Yellow Button	1100.0	1500.0	1650.0	1250.0	0.0	1500.0	0.0	1.0	ITI
96432.0	500	n/a	-1	-1	500	0.0	fixation	poldrack-single-stim	237	585174	0.0-11.21-0.21	beast_fmri_test	290	n/a	n/a	<div class = centerbox><div class = fixation>+</div></div>	none	500.0	test	n/a	n/a	n/a	n/a	n/a	n/a	n/a	n/a	n/a	n/a	n/a	n/a	n/a	n/a	n/a	n/a	n/a	n/a	fixation
95847.586138386512	2750	n/a	-1	-1	2750	585.413861614	stim	stop-signal	238	587925	0.0-11.21-1.21	beast_fmri_test	290	9.755033333333333,9.766366666666666,9.7777,9.789033333333334,9.800383333333333	t,t,t,t,t	<img class = center src='/static/experiments/beast_fmri_test/images/B.png'></img>	71,89	2750.0	test	<img class = center src='/static/experiments/beast_fmri_test/images/redB.png'></img>	go	1250.0	1.0	21.0	go	non-target	B	71,Green Button	89,Yellow Button	1100.0	1500.0	1650.0	1250.0	0.0	1500.0	0.0	n/a	go_stim
98597.586138386512	585.41386161353296	n/a	-1	-1	2750	585.413861614	stim	stop-signal	238	587925	0.0-11.21-1.21	beast_fmri_test	290	9.755033333333333,9.766366666666666,9.7777,9.789033333333334,9.800383333333333	t,t,t,t,t	<img class = center src='/static/experiments/beast_fmri_test/images/B.png'></img>	71,89	2750.0	test	<img class = center src='/static/experiments/beast_fmri_test/images/redB.png'></img>	go	1250.0	1.0	21.0	go	non-target	B	71,Green Button	89,Yellow Button	1100.0	1500.0	1650.0	1250.0	0.0	1500.0	0.0	n/a	ITI
100282.0	500	n/a	-1	-1	500	0.0	fixation	poldrack-single-stim	239	589024	0.0-11.22-0.22	beast_fmri_test	290	9.8117	t	<div class = centerbox><div class = fixation>+</div></div>	none	500.0	test	n/a	n/a	n/a	n/a	n/a	n/a	n/a	n/a	n/a	n/a	n/a	n/a	n/a	n/a	n/a	n/a	n/a	n/a	fixation
99587.72008400748	1500.0	n/a	-1	-1	2750	696.279915993	stim	stop-signal	240	591776	0.0-11.22-1.22	beast_fmri_test	290	9.823033333333333,9.834366666666666,9.8457,9.857033333333334,9.868366666666667	t,t,t,t,t	<img class = center src='/static/experiments/beast_fmri_test/images/D.png'></img>	71,89	2750.0	test	<img class = center src='/static/experiments/beast_fmri_test/images/redD.png'></img>	stop	1250.0	1.0	22.0	stop	non-target	D	71,Green Button	89,Yellow Button	1100.0	1500.0	1650.0	1250.0	0.0	1500.0	0.0	1.0	go_stim
100837.72008400748	1250.0	n/a	-1	-1	2750	696.279915993	stim	stop-signal	240	591776	0.0-11.22-1.22	beast_fmri_test	290	9.823033333333333,9.834366666666666,9.8457,9.857033333333334,9.868366666666667	t,t,t,t,t	<img class = center src='/static/experiments/beast_fmri_test/images/D.png'></img>	71,89	2750.0	test	<img class = center src='/static/experiments/beast_fmri_test/images/redD.png'></img>	stop	1250.0	1.0	22.0	stop	non-target	D	71,Green Button	89,Yellow Button	1100.0	1500.0	1650.0	1250.0	0.0	1500.0	0.0	1.0	stop_stim
102337.72008400748	696.27991599255699	n/a	-1	-1	2750	696.279915993	stim	stop-signal	240	591776	0.0-11.22-1.22	beast_fmri_test	290	9.823033333333333,9.834366666666666,9.8457,9.857033333333334,9.868366666666667	t,t,t,t,t	<img class = center src='/static/experiments/beast_fmri_test/images/D.png'></img>	71,89	2750.0	test	<img class = center src='/static/experiments/beast_fmri_test/images/redD.png'></img>	stop	1250.0	1.0	22.0	stop	non-target	D	71,Green Button	89,Yellow Button	1100.0	1500.0	1650.0	1250.0	0.0	1500.0	0.0	1.0	ITI
104243.0	500	n/a	-1	-1	500	0.0	fixation	poldrack-single-stim	241	592985	0.0-11.23-0.23	beast_fmri_test	290	9.8797	t	<div class = centerbox><div class = fixation>+</div></div>	none	500.0	test	n/a	n/a	n/a	n/a	n/a	n/a	n/a	n/a	n/a	n/a	n/a	n/a	n/a	n/a	n/a	n/a	n/a	n/a	fixation
103172.55838498194	1100.0	n/a	-1	-1	2750	1072.44161502	stim	stop-signal	242	595737	0.0-11.23-1.23	beast_fmri_test	290	9.891033333333333,9.902366666666667,9.9137,9.925033333333333,9.936366666666666	t,t,t,t,t	<img class = center src='/static/experiments/beast_fmri_test/images/D.png'></img>	71,89	2750.0	test	<img class = center src='/static/experiments/beast_fmri_test/images/redD.png'></img>	stop	1650.0	1.0	23.0	stop	target	D	71,Green Button	89,Yellow Button	1100.0	1500.0	1650.0	1250.0	0.0	1100.0	0.0	1.0	go_stim
104822.55838498194	1650.0	n/a	-1	-1	2750	1072.44161502	stim	stop-signal	242	595737	0.0-11.23-1.23	beast_fmri_test	290	9.891033333333333,9.902366666666667,9.9137,9.925033333333333,9.936366666666666	t,t,t,t,t	<img class = center src='/static/experiments/beast_fmri_test/images/D.png'></img>	71,89	2750.0	test	<img class = center src='/static/experiments/beast_fmri_test/images/redD.png'></img>	stop	1650.0	1.0	23.0	stop	target	D	71,Green Button	89,Yellow Button	1100.0	1500.0	1650.0	1250.0	0.0	1100.0	0.0	1.0	stop_stim
105922.55838498194	1072.44161501802	n/a	-1	-1	2750	1072.44161502	stim	stop-signal	242	595737	0.0-11.23-1.23	beast_fmri_test	290	9.891033333333333,9.902366666666667,9.9137,9.925033333333333,9.936366666666666	t,t,t,t,t	<img class = center src='/static/experiments/beast_fmri_test/images/D.png'></img>	71,89	2750.0	test	<img class = center src='/static/experiments/beast_fmri_test/images/redD.png'></img>	stop	1650.0	1.0	23.0	stop	target	D	71,Green Button	89,Yellow Button	1100.0	1500.0	1650.0	1250.0	0.0	1100.0	0.0	1.0	ITI
108580.0	500	n/a	-1	-1	500	0.0	fixation	poldrack-single-stim	243	597322	0.0-11.24-0.24	beast_fmri_test	290	9.9477	t	<div class = centerbox><div class = fixation>+</div></div>	none	500.0	test	n/a	n/a	n/a	n/a	n/a	n/a	n/a	n/a	n/a	n/a	n/a	n/a	n/a	n/a	n/a	n/a	n/a	n/a	fixation
106951.70823294518	2750	n/a	-1	-1	2750	1629.29176705	stim	stop-signal	244	600073	0.0-11.24-1.24	beast_fmri_test	290	9.959033333333334,9.970383333333332,9.9817,9.993033333333333,10.004366666666666,10.0157,10.027033333333334	t,t,t,t,t,t,t	<img class = center src='/static/experiments/beast_fmri_test/images/D.png'></img>	71,89	2750.0	test	<img class = center src='/static/experiments/beast_fmri_test/images/redD.png'></img>	go	1600.0	1.0	24.0	go	target	D	71,Green Button	89,Yellow Button	1150.0	1500.0	1600.0	1250.0	0.0	1150.0	0.0	n/a	go_stim
109701.70823294518	1629.2917670547999	n/a	-1	-1	2750	1629.29176705	stim	stop-signal	244	600073	0.0-11.24-1.24	beast_fmri_test	290	9.959033333333334,9.970383333333332,9.9817,9.993033333333333,10.004366666666666,10.0157,10.027033333333334	t,t,t,t,t,t,t	<img class = center src='/static/experiments/beast_fmri_test/images/D.png'></img>	71,89	2750.0	test	<img class = center src='/static/experiments/beast_fmri_test/images/redD.png'></img>	go	1600.0	1.0	24.0	go	target	D	71,Green Button	89,Yellow Button	1150.0	1500.0	1600.0	1250.0	0.0	1150.0	0.0	n/a	ITI
113472.0	500	n/a	-1	-1	500	0.0	fixation	poldrack-single-stim	245	602214	0.0-11.25-0.25	beast_fmri_test	290	n/a	n/a	<div class = centerbox><div class = fixation>+</div></div>	none	500.0	test	n/a	n/a	n/a	n/a	n/a	n/a	n/a	n/a	n/a	n/a	n/a	n/a	n/a	n/a	n/a	n/a	n/a	n/a	fixation
112374.94071664719	2750	n/a	-1	-1	2750	1100.05928335	stim	stop-signal	246	604967	0.0-11.25-1.25	beast_fmri_test	290	10.038366666666667,10.0497,10.061016666666667,10.072366666666667,10.083683333333333,10.095033333333333	t,t,t,t,t,t	<img class = center src='/static/experiments/beast_fmri_test/images/D.png'></img>	71,89	2750.0	test	<img class = center src='/static/experiments/beast_fmri_test/images/redD.png'></img>	go	1600.0	1.0	25.0	go	target	D	71,Green Button	89,Yellow Button	1150.0	1500.0	1600.0	1250.0	0.0	1150.0	0.0	n/a	go_stim
115124.94071664719	1100.0592833528201	n/a	-1	-1	2750	1100.05928335	stim	stop-signal	246	604967	0.0-11.25-1.25	beast_fmri_test	290	10.038366666666667,10.0497,10.061016666666667,10.072366666666667,10.083683333333333,10.095033333333333	t,t,t,t,t,t	<img class = center src='/static/experiments/beast_fmri_test/images/D.png'></img>	71,89	2750.0	test	<img class = center src='/static/experiments/beast_fmri_test/images/redD.png'></img>	go	1600.0	1.0	25.0	go	target	D	71,Green Button	89,Yellow Button	1150.0	1500.0	1600.0	1250.0	0.0	1150.0	0.0	n/a	ITI
117838.0	500	n/a	-1	-1	500	0.0	fixation	poldrack-single-stim	247	606580	0.0-11.26-0.26	beast_fmri_test	290	10.1063666666666	t	<div class = centerbox><div class = fixation>+</div></div>	none	500.0	test	n/a	n/a	n/a	n/a	n/a	n/a	n/a	n/a	n/a	n/a	n/a	n/a	n/a	n/a	n/a	n/a	n/a	n/a	fixation
116878.85689303593	2750	n/a	-1	-1	2750	961.143106964	stim	stop-signal	248	609332	0.0-11.26-1.26	beast_fmri_test	290	10.1177,10.12905,10.1404,10.151716666666667,10.16305	t,t,t,t,t	<img class = center src='/static/experiments/beast_fmri_test/images/B.png'></img>	71,89	2750.0	test	<img class = center src='/static/experiments/beast_fmri_test/images/redB.png'></img>	go	1250.0	1.0	26.0	go	non-target	B	71,Green Button	89,Yellow Button	1150.0	1500.0	1600.0	1250.0	0.0	1500.0	0.0	n/a	go_stim
119628.85689303593	961.14310696412099	n/a	-1	-1	2750	961.143106964	stim	stop-signal	248	609332	0.0-11.26-1.26	beast_fmri_test	290	10.1177,10.12905,10.1404,10.151716666666667,10.16305	t,t,t,t,t	<img class = center src='/static/experiments/beast_fmri_test/images/B.png'></img>	71,89	2750.0	test	<img class = center src='/static/experiments/beast_fmri_test/images/redB.png'></img>	go	1250.0	1.0	26.0	go	non-target	B	71,Green Button	89,Yellow Button	1150.0	1500.0	1600.0	1250.0	0.0	1500.0	0.0	n/a	ITI
122063.0	500	n/a	-1	-1	500	0.0	fixation	poldrack-single-stim	249	610805	0.0-11.27-0.27	beast_fmri_test	290	10.1743833333333	t	<div class = centerbox><div class = fixation>+</div></div>	none	500.0	test	n/a	n/a	n/a	n/a	n/a	n/a	n/a	n/a	n/a	n/a	n/a	n/a	n/a	n/a	n/a	n/a	n/a	n/a	fixation
121141.20086647512	2750	n/a	-1	-1	2750	924.799133525	stim	stop-signal	250	613558	0.0-11.27-1.27	beast_fmri_test	290	10.185716666666666,10.19705,10.208383333333334,10.2197,10.231033333333333	t,t,t,t,t	<img class = center src='/static/experiments/beast_fmri_test/images/D.png'></img>	71,89	2750.0	test	<img class = center src='/static/experiments/beast_fmri_test/images/redD.png'></img>	go	1250.0	1.0	27.0	go	non-target	D	71,Green Button	89,Yellow Button	1150.0	1500.0	1600.0	1250.0	0.0	1500.0	0.0	n/a	go_stim
123891.20086647512	924.799133524838	n/a	-1	-1	2750	924.799133525	stim	stop-signal	250	613558	0.0-11.27-1.27	beast_fmri_test	290	10.185716666666666,10.19705,10.208383333333334,10.2197,10.231033333333333	t,t,t,t,t	<img class = center src='/static/experiments/beast_fmri_test/images/D.png'></img>	71,89	2750.0	test	<img class = center src='/static/experiments/beast_fmri_test/images/redD.png'></img>	go	1250.0	1.0	27.0	go	non-target	D	71,Green Button	89,Yellow Button	1150.0	1500.0	1600.0	1250.0	0.0	1500.0	0.0	n/a	ITI
126252.0	500	n/a	-1	-1	500	0.0	fixation	poldrack-single-stim	251	614994	0.0-11.28-0.28	beast_fmri_test	290	10.2423666666666	t	<div class = centerbox><div class = fixation>+</div></div>	none	500.0	test	n/a	n/a	n/a	n/a	n/a	n/a	n/a	n/a	n/a	n/a	n/a	n/a	n/a	n/a	n/a	n/a	n/a	n/a	fixation
126179.61977203272	2750	n/a	-1	-1	2750	74.3802279672	stim	stop-signal	252	617746	0.0-11.28-1.28	beast_fmri_test	290	10.253716666666667,10.265033333333333,10.276366666666666,10.287716666666666	t,t,t,t	<img class = center src='/static/experiments/beast_fmri_test/images/B.png'></img>	71,89	2750.0	test	<img class = center src='/static/experiments/beast_fmri_test/images/redB.png'></img>	go	1250.0	1.0	28.0	go	non-target	B	71,Green Button	89,Yellow Button	1150.0	1500.0	1600.0	1250.0	0.0	1500.0	0.0	n/a	go_stim
128929.61977203272	74.380227967248899	n/a	-1	-1	2750	74.3802279672	stim	stop-signal	252	617746	0.0-11.28-1.28	beast_fmri_test	290	10.253716666666667,10.265033333333333,10.276366666666666,10.287716666666666	t,t,t,t	<img class = center src='/static/experiments/beast_fmri_test/images/B.png'></img>	71,89	2750.0	test	<img class = center src='/static/experiments/beast_fmri_test/images/redB.png'></img>	go	1250.0	1.0	28.0	go	non-target	B	71,Green Button	89,Yellow Button	1150.0	1500.0	1600.0	1250.0	0.0	1500.0	0.0	n/a	ITI
129590.0	500	n/a	-1	-1	500	0.0	fixation	poldrack-single-stim	253	618332	0.0-11.29-0.29	beast_fmri_test	290	10.29905	t	<div class = centerbox><div class = fixation>+</div></div>	none	500.0	test	n/a	n/a	n/a	n/a	n/a	n/a	n/a	n/a	n/a	n/a	n/a	n/a	n/a	n/a	n/a	n/a	n/a	n/a	fixation
124592.0	2750	n/a	-1	-1	2750	5000.0	stim	stop-signal	254	621084	0.0-11.29-1.29	beast_fmri_test	290	10.310383333333334,10.321716666666667,10.333033333333333,10.344366666666666,10.3557,10.367033333333334,10.378366666666667,10.3897,10.401033333333332,10.412366666666667,10.4237	t,t,t,t,t,t,t,t,t,t,t	<img class = center src='/static/experiments/beast_fmri_test/images/B.png'></img>	71,89	2750.0	test	<img class = center src='/static/experiments/beast_fmri_test/images/redB.png'></img>	go	1600.0	1.0	29.0	go	target	B	71,Green Button	89,Yellow Button	1150.0	1500.0	1600.0	1250.0	0.0	1150.0	0.0	n/a	go_stim
127342.0	5000.0	n/a	-1	-1	2750	5000.0	stim	stop-signal	254	621084	0.0-11.29-1.29	beast_fmri_test	290	10.310383333333334,10.321716666666667,10.333033333333333,10.344366666666666,10.3557,10.367033333333334,10.378366666666667,10.3897,10.401033333333332,10.412366666666667,10.4237	t,t,t,t,t,t,t,t,t,t,t	<img class = center src='/static/experiments/beast_fmri_test/images/B.png'></img>	71,89	2750.0	test	<img class = center src='/static/experiments/beast_fmri_test/images/redB.png'></img>	go	1600.0	1.0	29.0	go	target	B	71,Green Button	89,Yellow Button	1150.0	1500.0	1600.0	1250.0	0.0	1150.0	0.0	n/a	ITI
137855.0	500	n/a	-1	-1	500	0.0	fixation	poldrack-single-stim	255	626597	0.0-11.30-0.30	beast_fmri_test	290	10.4350333333333	t	<div class = centerbox><div class = fixation>+</div></div>	none	500.0	test	n/a	n/a	n/a	n/a	n/a	n/a	n/a	n/a	n/a	n/a	n/a	n/a	n/a	n/a	n/a	n/a	n/a	n/a	fixation
137402.04551429988	2750	n/a	-1	-1	2750	453.9544857	stim	stop-signal	256	629348	0.0-11.30-1.30	beast_fmri_test	290	10.446366666666666,10.4577,10.469033333333334,10.480383333333334,10.4917	t,t,t,t,t	<img class = center src='/static/experiments/beast_fmri_test/images/B.png'></img>	71,89	2750.0	test	<img class = center src='/static/experiments/beast_fmri_test/images/redB.png'></img>	go	1600.0	1.0	30.0	go	target	B	71,Green Button	89,Yellow Button	1150.0	1500.0	1600.0	1250.0	0.0	1150.0	0.0	n/a	go_stim
140152.04551429988	453.95448570009802	n/a	-1	-1	2750	453.9544857	stim	stop-signal	256	629348	0.0-11.30-1.30	beast_fmri_test	290	10.446366666666666,10.4577,10.469033333333334,10.480383333333334,10.4917	t,t,t,t,t	<img class = center src='/static/experiments/beast_fmri_test/images/B.png'></img>	71,89	2750.0	test	<img class = center src='/static/experiments/beast_fmri_test/images/redB.png'></img>	go	1600.0	1.0	30.0	go	target	B	71,Green Button	89,Yellow Button	1150.0	1500.0	1600.0	1250.0	0.0	1150.0	0.0	n/a	ITI
141573.0	500	n/a	-1	-1	500	0.0	fixation	poldrack-single-stim	257	630315	0.0-11.31-0.31	beast_fmri_test	290	10.5030333333333	t	<div class = centerbox><div class = fixation>+</div></div>	none	500.0	test	n/a	n/a	n/a	n/a	n/a	n/a	n/a	n/a	n/a	n/a	n/a	n/a	n/a	n/a	n/a	n/a	n/a	n/a	fixation
141463.79216885159	1500.0	n/a	-1	-1	2750	110.207831148	stim	stop-signal	258	633066	0.0-11.31-1.31	beast_fmri_test	290	10.514366666666668,10.5257,10.537033333333333,10.548366666666666	t,t,t,t	<img class = center src='/static/experiments/beast_fmri_test/images/D.png'></img>	71,89	2750.0	test	<img class = center src='/static/experiments/beast_fmri_test/images/redD.png'></img>	stop	1250.0	1.0	31.0	stop	non-target	D	71,Green Button	89,Yellow Button	1150.0	1500.0	1600.0	1250.0	0.0	1500.0	0.0	1.0	go_stim
142713.79216885159	1250.0	n/a	-1	-1	2750	110.207831148	stim	stop-signal	258	633066	0.0-11.31-1.31	beast_fmri_test	290	10.514366666666668,10.5257,10.537033333333333,10.548366666666666	t,t,t,t	<img class = center src='/static/experiments/beast_fmri_test/images/D.png'></img>	71,89	2750.0	test	<img class = center src='/static/experiments/beast_fmri_test/images/redD.png'></img>	stop	1250.0	1.0	31.0	stop	non-target	D	71,Green Button	89,Yellow Button	1150.0	1500.0	1600.0	1250.0	0.0	1500.0	0.0	1.0	stop_stim
144213.79216885159	110.20783114841799	n/a	-1	-1	2750	110.207831148	stim	stop-signal	258	633066	0.0-11.31-1.31	beast_fmri_test	290	10.514366666666668,10.5257,10.537033333333333,10.548366666666666	t,t,t,t	<img class = center src='/static/experiments/beast_fmri_test/images/D.png'></img>	71,89	2750.0	test	<img class = center src='/static/experiments/beast_fmri_test/images/redD.png'></img>	stop	1250.0	1.0	31.0	stop	non-target	D	71,Green Button	89,Yellow Button	1150.0	1500.0	1600.0	1250.0	0.0	1500.0	0.0	1.0	ITI
144946.0	500	n/a	-1	-1	500	0.0	fixation	poldrack-single-stim	259	633688	0.0-11.32-0.32	beast_fmri_test	290	10.5597	t	<div class = centerbox><div class = fixation>+</div></div>	none	500.0	test	n/a	n/a	n/a	n/a	n/a	n/a	n/a	n/a	n/a	n/a	n/a	n/a	n/a	n/a	n/a	n/a	n/a	n/a	fixation
144875.84254098719	1500.0	n/a	-1	-1	2750	71.1574590128	stim	stop-signal	260	636439	0.0-11.32-1.32	beast_fmri_test	290	10.571033333333334,10.582366666666667,10.5937,10.605033333333333	t,t,t,t	<img class = center src='/static/experiments/beast_fmri_test/images/V.png'></img>	71,89	2750.0	test	<img class = center src='/static/experiments/beast_fmri_test/images/redV.png'></img>	stop	1250.0	1.0	32.0	stop	non-target	V	71,Green Button	89,Yellow Button	1150.0	1500.0	1600.0	1250.0	0.0	1500.0	0.0	1.0	go_stim
146125.84254098719	1250.0	n/a	-1	-1	2750	71.1574590128	stim	stop-signal	260	636439	0.0-11.32-1.32	beast_fmri_test	290	10.571033333333334,10.582366666666667,10.5937,10.605033333333333	t,t,t,t	<img class = center src='/static/experiments/beast_fmri_test/images/V.png'></img>	71,89	2750.0	test	<img class = center src='/static/experiments/beast_fmri_test/images/redV.png'></img>	stop	1250.0	1.0	32.0	stop	non-target	V	71,Green Button	89,Yellow Button	1150.0	1500.0	1600.0	1250.0	0.0	1500.0	0.0	1.0	stop_stim
147625.84254098719	71.157459012826095	n/a	-1	-1	2750	71.1574590128	stim	stop-signal	260	636439	0.0-11.32-1.32	beast_fmri_test	290	10.571033333333334,10.582366666666667,10.5937,10.605033333333333	t,t,t,t	<img class = center src='/static/experiments/beast_fmri_test/images/V.png'></img>	71,89	2750.0	test	<img class = center src='/static/experiments/beast_fmri_test/images/redV.png'></img>	stop	1250.0	1.0	32.0	stop	non-target	V	71,Green Button	89,Yellow Button	1150.0	1500.0	1600.0	1250.0	0.0	1500.0	0.0	1.0	ITI
148280.0	500	n/a	-1	-1	500	0.0	fixation	poldrack-single-stim	261	637022	0.0-11.33-0.33	beast_fmri_test	290	10.6163666666666	t	<div class = centerbox><div class = fixation>+</div></div>	none	500.0	test	n/a	n/a	n/a	n/a	n/a	n/a	n/a	n/a	n/a	n/a	n/a	n/a	n/a	n/a	n/a	n/a	n/a	n/a	fixation
147193.98826350749	2750	n/a	-1	-1	2750	1088.01173649	stim	stop-signal	262	639774	0.0-11.33-1.33	beast_fmri_test	290	10.6277,10.639033333333334,10.650383333333334,10.6617,10.673033333333333	t,t,t,t,t	<img class = center src='/static/experiments/beast_fmri_test/images/B.png'></img>	71,89	2750.0	test	<img class = center src='/static/experiments/beast_fmri_test/images/redB.png'></img>	go	1250.0	1.0	33.0	go	non-target	B	71,Green Button	89,Yellow Button	1150.0	1500.0	1600.0	1250.0	0.0	1500.0	0.0	n/a	go_stim
149943.98826350749	1088.01173649255	n/a	-1	-1	2750	1088.01173649	stim	stop-signal	262	639774	0.0-11.33-1.33	beast_fmri_test	290	10.6277,10.639033333333334,10.650383333333334,10.6617,10.673033333333333	t,t,t,t,t	<img class = center src='/static/experiments/beast_fmri_test/images/B.png'></img>	71,89	2750.0	test	<img class = center src='/static/experiments/beast_fmri_test/images/redB.png'></img>	go	1250.0	1.0	33.0	go	non-target	B	71,Green Button	89,Yellow Button	1150.0	1500.0	1600.0	1250.0	0.0	1500.0	0.0	n/a	ITI
152633.0	500	n/a	-1	-1	500	0.0	fixation	poldrack-single-stim	263	641375	0.0-11.34-0.34	beast_fmri_test	290	10.6843833333333	t	<div class = centerbox><div class = fixation>+</div></div>	none	500.0	test	n/a	n/a	n/a	n/a	n/a	n/a	n/a	n/a	n/a	n/a	n/a	n/a	n/a	n/a	n/a	n/a	n/a	n/a	fixation
151792.28392838605	1150.0	n/a	-1	-1	2750	843.716071614	stim	stop-signal	264	644128	0.0-11.34-1.34	beast_fmri_test	290	10.695716666666666,10.70705,10.718383333333334,10.729716666666667,10.74105	t,t,t,t,t	<img class = center src='/static/experiments/beast_fmri_test/images/B.png'></img>	71,89	2750.0	test	<img class = center src='/static/experiments/beast_fmri_test/images/redB.png'></img>	stop	1600.0	1.0	34.0	stop	target	B	71,Green Button	89,Yellow Button	1150.0	1500.0	1600.0	1250.0	0.0	1150.0	0.0	1.0	go_stim
153392.28392838605	1600.0	n/a	-1	-1	2750	843.716071614	stim	stop-signal	264	644128	0.0-11.34-1.34	beast_fmri_test	290	10.695716666666666,10.70705,10.718383333333334,10.729716666666667,10.74105	t,t,t,t,t	<img class = center src='/static/experiments/beast_fmri_test/images/B.png'></img>	71,89	2750.0	test	<img class = center src='/static/experiments/beast_fmri_test/images/redB.png'></img>	stop	1600.0	1.0	34.0	stop	target	B	71,Green Button	89,Yellow Button	1150.0	1500.0	1600.0	1250.0	0.0	1150.0	0.0	1.0	stop_stim
154542.28392838605	843.71607161390796	n/a	-1	-1	2750	843.716071614	stim	stop-signal	264	644128	0.0-11.34-1.34	beast_fmri_test	290	10.695716666666666,10.70705,10.718383333333334,10.729716666666667,10.74105	t,t,t,t,t	<img class = center src='/static/experiments/beast_fmri_test/images/B.png'></img>	71,89	2750.0	test	<img class = center src='/static/experiments/beast_fmri_test/images/redB.png'></img>	stop	1600.0	1.0	34.0	stop	target	B	71,Green Button	89,Yellow Button	1150.0	1500.0	1600.0	1250.0	0.0	1150.0	0.0	1.0	ITI
156742.0	500	n/a	-1	-1	500	0.0	fixation	poldrack-single-stim	265	645484	0.0-11.35-0.35	beast_fmri_test	290	10.7523833333333	t	<div class = centerbox><div class = fixation>+</div></div>	none	500.0	test	n/a	n/a	n/a	n/a	n/a	n/a	n/a	n/a	n/a	n/a	n/a	n/a	n/a	n/a	n/a	n/a	n/a	n/a	fixation
156495.10501168144	1500.0	n/a	-1	-1	2750	248.894988319	stim	stop-signal	266	648236	0.0-11.35-1.35	beast_fmri_test	290	10.763716666666667,10.77505,10.786383333333333,10.797716666666666	t,t,t,t	<img class = center src='/static/experiments/beast_fmri_test/images/P.png'></img>	71,89	2750.0	test	<img class = center src='/static/experiments/beast_fmri_test/images/redP.png'></img>	stop	1250.0	1.0	35.0	stop	non-target	P	71,Green Button	89,Yellow Button	1200.0	1500.0	1600.0	1250.0	0.0	1500.0	0.0	1.0	go_stim
157745.10501168144	1250.0	n/a	-1	-1	2750	248.894988319	stim	stop-signal	266	648236	0.0-11.35-1.35	beast_fmri_test	290	10.763716666666667,10.77505,10.786383333333333,10.797716666666666	t,t,t,t	<img class = center src='/static/experiments/beast_fmri_test/images/P.png'></img>	71,89	2750.0	test	<img class = center src='/static/experiments/beast_fmri_test/images/redP.png'></img>	stop	1250.0	1.0	35.0	stop	non-target	P	71,Green Button	89,Yellow Button	1200.0	1500.0	1600.0	1250.0	0.0	1500.0	0.0	1.0	stop_stim
159245.10501168144	248.894988318537	n/a	-1	-1	2750	248.894988319	stim	stop-signal	266	648236	0.0-11.35-1.35	beast_fmri_test	290	10.763716666666667,10.77505,10.786383333333333,10.797716666666666	t,t,t,t	<img class = center src='/static/experiments/beast_fmri_test/images/P.png'></img>	71,89	2750.0	test	<img class = center src='/static/experiments/beast_fmri_test/images/redP.png'></img>	stop	1250.0	1.0	35.0	stop	non-target	P	71,Green Button	89,Yellow Button	1200.0	1500.0	1600.0	1250.0	0.0	1500.0	0.0	1.0	ITI
160256.0	500	n/a	-1	-1	500	0.0	fixation	poldrack-single-stim	267	648998	0.0-11.36-0.36	beast_fmri_test	290	10.80905	t	<div class = centerbox><div class = fixation>+</div></div>	none	500.0	test	n/a	n/a	n/a	n/a	n/a	n/a	n/a	n/a	n/a	n/a	n/a	n/a	n/a	n/a	n/a	n/a	n/a	n/a	fixation
160199.90733304154	2750	n/a	-1	-1	2750	872.092666958	stim	stop-signal	268	652564	0.0-11.36-1.36	beast_fmri_test	290	10.833983333333334,10.8453,10.856616666666667,10.86795,10.879283333333333,10.890616666666666	t,t,t,t,t,t	<img class = center src='/static/experiments/beast_fmri_test/images/B.png'></img>	71,89	2750.0	test	<img class = center src='/static/experiments/beast_fmri_test/images/redB.png'></img>	go	1250.0	1.0	36.0	go	non-target	B	71,Green Button	89,Yellow Button	1200.0	1500.0	1600.0	1250.0	0.0	1500.0	0.0	n/a	go_stim
162949.90733304154	872.092666958422	n/a	-1	-1	2750	872.092666958	stim	stop-signal	268	652564	0.0-11.36-1.36	beast_fmri_test	290	10.833983333333334,10.8453,10.856616666666667,10.86795,10.879283333333333,10.890616666666666	t,t,t,t,t,t	<img class = center src='/static/experiments/beast_fmri_test/images/B.png'></img>	71,89	2750.0	test	<img class = center src='/static/experiments/beast_fmri_test/images/redB.png'></img>	go	1250.0	1.0	36.0	go	non-target	B	71,Green Button	89,Yellow Button	1200.0	1500.0	1600.0	1250.0	0.0	1500.0	0.0	n/a	ITI
165207.0	500	n/a	-1	-1	500	0.0	fixation	poldrack-single-stim	269	653949	0.0-11.37-0.37	beast_fmri_test	290	n/a	n/a	<div class = centerbox><div class = fixation>+</div></div>	none	500.0	test	n/a	n/a	n/a	n/a	n/a	n/a	n/a	n/a	n/a	n/a	n/a	n/a	n/a	n/a	n/a	n/a	n/a	n/a	fixation
161930.03896947356	2750	n/a	-1	-1	2750	3278.96103053	stim	stop-signal	270	656701	0.0-11.37-1.37	beast_fmri_test	290	10.901966666666667,10.913283333333334,10.924633333333333,10.935966666666667,10.947283333333333,10.958616666666666,10.969966666666666,10.981283333333334,10.992616666666667	t,t,t,t,t,t,t,t,t	<img class = center src='/static/experiments/beast_fmri_test/images/D.png'></img>	71,89	2750.0	test	<img class = center src='/static/experiments/beast_fmri_test/images/redD.png'></img>	go	1250.0	1.0	37.0	go	non-target	D	71,Green Button	89,Yellow Button	1200.0	1500.0	1600.0	1250.0	0.0	1500.0	0.0	n/a	go_stim
164680.03896947356	3278.96103052644	n/a	-1	-1	2750	3278.96103053	stim	stop-signal	270	656701	0.0-11.37-1.37	beast_fmri_test	290	10.901966666666667,10.913283333333334,10.924633333333333,10.935966666666667,10.947283333333333,10.958616666666666,10.969966666666666,10.981283333333334,10.992616666666667	t,t,t,t,t,t,t,t,t	<img class = center src='/static/experiments/beast_fmri_test/images/D.png'></img>	71,89	2750.0	test	<img class = center src='/static/experiments/beast_fmri_test/images/redD.png'></img>	go	1250.0	1.0	37.0	go	non-target	D	71,Green Button	89,Yellow Button	1200.0	1500.0	1600.0	1250.0	0.0	1500.0	0.0	n/a	ITI
171752.0	500	n/a	-1	-1	500	0.0	fixation	poldrack-single-stim	271	660494	0.0-11.38-0.38	beast_fmri_test	290	11.0039833333333	t	<div class = centerbox><div class = fixation>+</div></div>	none	500.0	test	n/a	n/a	n/a	n/a	n/a	n/a	n/a	n/a	n/a	n/a	n/a	n/a	n/a	n/a	n/a	n/a	n/a	n/a	fixation
169825.14339217485	2750	n/a	-1	-1	2750	1928.85660783	stim	stop-signal	272	663246	0.0-11.38-1.38	beast_fmri_test	290	11.0153,11.026616666666667,11.037966666666666,11.049283333333333,11.060633333333334,11.07195,11.0833	t,t,t,t,t,t,t	<img class = center src='/static/experiments/beast_fmri_test/images/P.png'></img>	71,89	2750.0	test	<img class = center src='/static/experiments/beast_fmri_test/images/redP.png'></img>	go	1250.0	1.0	38.0	go	non-target	P	71,Green Button	89,Yellow Button	1200.0	1500.0	1600.0	1250.0	0.0	1500.0	0.0	n/a	go_stim
172575.14339217485	1928.8566078251799	n/a	-1	-1	2750	1928.85660783	stim	stop-signal	272	663246	0.0-11.38-1.38	beast_fmri_test	290	11.0153,11.026616666666667,11.037966666666666,11.049283333333333,11.060633333333334,11.07195,11.0833	t,t,t,t,t,t,t	<img class = center src='/static/experiments/beast_fmri_test/images/P.png'></img>	71,89	2750.0	test	<img class = center src='/static/experiments/beast_fmri_test/images/redP.png'></img>	go	1250.0	1.0	38.0	go	non-target	P	71,Green Button	89,Yellow Button	1200.0	1500.0	1600.0	1250.0	0.0	1500.0	0.0	n/a	ITI
176947.0	500	n/a	-1	-1	500	0.0	fixation	poldrack-single-stim	273	665689	0.0-11.39-0.39	beast_fmri_test	290	11.0946166666666	t	<div class = centerbox><div class = fixation>+</div></div>	none	500.0	test	n/a	n/a	n/a	n/a	n/a	n/a	n/a	n/a	n/a	n/a	n/a	n/a	n/a	n/a	n/a	n/a	n/a	n/a	fixation
172916.51025410614	2750	n/a	-1	-1	2750	4032.48974589	stim	stop-signal	274	668441	0.0-11.39-1.39	beast_fmri_test	290	11.10595,11.1173,11.128616666666666,11.139966666666666,11.151283333333334,11.162616666666667,11.173983333333334,11.185283333333333,11.196616666666667	t,t,t,t,t,t,t,t,t	<img class = center src='/static/experiments/beast_fmri_test/images/D.png'></img>	71,89	2750.0	test	<img class = center src='/static/experiments/beast_fmri_test/images/redD.png'></img>	go	1250.0	1.0	39.0	go	non-target	D	71,Green Button	89,Yellow Button	1200.0	1500.0	1600.0	1250.0	0.0	1500.0	0.0	n/a	go_stim
175666.51025410614	4032.4897458938999	n/a	-1	-1	2750	4032.48974589	stim	stop-signal	274	668441	0.0-11.39-1.39	beast_fmri_test	290	11.10595,11.1173,11.128616666666666,11.139966666666666,11.151283333333334,11.162616666666667,11.173983333333334,11.185283333333333,11.196616666666667	t,t,t,t,t,t,t,t,t	<img class = center src='/static/experiments/beast_fmri_test/images/D.png'></img>	71,89	2750.0	test	<img class = center src='/static/experiments/beast_fmri_test/images/redD.png'></img>	go	1250.0	1.0	39.0	go	non-target	D	71,Green Button	89,Yellow Button	1200.0	1500.0	1600.0	1250.0	0.0	1500.0	0.0	n/a	ITI
184244.0	500	n/a	-1	-1	500	0.0	fixation	poldrack-single-stim	275	672986	0.0-11.40-0.40	beast_fmri_test	290	11.2081	t	<div class = centerbox><div class = fixation>+</div></div>	none	500.0	test	n/a	n/a	n/a	n/a	n/a	n/a	n/a	n/a	n/a	n/a	n/a	n/a	n/a	n/a	n/a	n/a	n/a	n/a	fixation
183500.16582119919	2750	n/a	-1	-1	2750	745.834178801	stim	stop-signal	276	675738	0.0-11.40-1.40	beast_fmri_test	290	11.219283333333333,11.230616666666666,11.24195,11.2533,11.264633333333334	t,t,t,t,t	<img class = center src='/static/experiments/beast_fmri_test/images/T.png'></img>	71,89	2750.0	test	<img class = center src='/static/experiments/beast_fmri_test/images/redT.png'></img>	go	1250.0	1.0	40.0	go	non-target	T	71,Green Button	89,Yellow Button	1200.0	1500.0	1600.0	1250.0	0.0	1500.0	0.0	n/a	go_stim
186250.16582119919	745.83417880082004	n/a	-1	-1	2750	745.834178801	stim	stop-signal	276	675738	0.0-11.40-1.40	beast_fmri_test	290	11.219283333333333,11.230616666666666,11.24195,11.2533,11.264633333333334	t,t,t,t,t	<img class = center src='/static/experiments/beast_fmri_test/images/T.png'></img>	71,89	2750.0	test	<img class = center src='/static/experiments/beast_fmri_test/images/redT.png'></img>	go	1250.0	1.0	40.0	go	non-target	T	71,Green Button	89,Yellow Button	1200.0	1500.0	1600.0	1250.0	0.0	1500.0	0.0	n/a	ITI
188256.0	500	n/a	-1	-1	500	0.0	fixation	poldrack-single-stim	277	676998	0.0-11.41-0.41	beast_fmri_test	290	11.2759666666666	t	<div class = centerbox><div class = fixation>+</div></div>	none	500.0	test	n/a	n/a	n/a	n/a	n/a	n/a	n/a	n/a	n/a	n/a	n/a	n/a	n/a	n/a	n/a	n/a	n/a	n/a	fixation
188125.3388505528	2750	n/a	-1	-1	2750	131.661149447	stim	stop-signal	278	679749	0.0-11.41-1.41	beast_fmri_test	290	11.2873,11.298633333333333,11.309966666666666,11.3213	t,t,t,t	<img class = center src='/static/experiments/beast_fmri_test/images/T.png'></img>	71,89	2750.0	test	<img class = center src='/static/experiments/beast_fmri_test/images/redT.png'></img>	go	1550.0	1.0	41.0	go	target	T	71,Green Button	89,Yellow Button	1200.0	1500.0	1550.0	1250.0	0.0	1200.0	0.0	n/a	go_stim
190875.3388505528	131.66114944714599	n/a	-1	-1	2750	131.661149447	stim	stop-signal	278	679749	0.0-11.41-1.41	beast_fmri_test	290	11.2873,11.298633333333333,11.309966666666666,11.3213	t,t,t,t	<img class = center src='/static/experiments/beast_fmri_test/images/T.png'></img>	71,89	2750.0	test	<img class = center src='/static/experiments/beast_fmri_test/images/redT.png'></img>	go	1550.0	1.0	41.0	go	target	T	71,Green Button	89,Yellow Button	1200.0	1500.0	1550.0	1250.0	0.0	1200.0	0.0	n/a	ITI
191651.0	500	n/a	-1	-1	500	0.0	fixation	poldrack-single-stim	279	680393	0.0-11.42-0.42	beast_fmri_test	290	11.3326333333333	t	<div class = centerbox><div class = fixation>+</div></div>	none	500.0	test	n/a	n/a	n/a	n/a	n/a	n/a	n/a	n/a	n/a	n/a	n/a	n/a	n/a	n/a	n/a	n/a	n/a	n/a	fixation
191533.32235887647	2750	n/a	-1	-1	2750	119.677641124	stim	stop-signal	280	683145	0.0-11.42-1.42	beast_fmri_test	290	11.343983333333334,11.3553,11.366633333333333,11.377966666666667	t,t,t,t	<img class = center src='/static/experiments/beast_fmri_test/images/V.png'></img>	71,89	2750.0	test	<img class = center src='/static/experiments/beast_fmri_test/images/redV.png'></img>	go	1250.0	1.0	42.0	go	non-target	V	71,Green Button	89,Yellow Button	1200.0	1500.0	1550.0	1250.0	0.0	1500.0	0.0	n/a	go_stim
194283.32235887647	119.67764112355199	n/a	-1	-1	2750	119.677641124	stim	stop-signal	280	683145	0.0-11.42-1.42	beast_fmri_test	290	11.343983333333334,11.3553,11.366633333333333,11.377966666666667	t,t,t,t	<img class = center src='/static/experiments/beast_fmri_test/images/V.png'></img>	71,89	2750.0	test	<img class = center src='/static/experiments/beast_fmri_test/images/redV.png'></img>	go	1250.0	1.0	42.0	go	non-target	V	71,Green Button	89,Yellow Button	1200.0	1500.0	1550.0	1250.0	0.0	1500.0	0.0	n/a	ITI
195039.0	500	n/a	-1	-1	500	0.0	fixation	poldrack-single-stim	281	683781	0.0-11.43-0.43	beast_fmri_test	290	11.3893	t	<div class = centerbox><div class = fixation>+</div></div>	none	500.0	test	n/a	n/a	n/a	n/a	n/a	n/a	n/a	n/a	n/a	n/a	n/a	n/a	n/a	n/a	n/a	n/a	n/a	n/a	fixation
190041.0	1200.0	n/a	-1	-1	2750	5000.0	stim	stop-signal	282	686533	0.0-11.43-1.43	beast_fmri_test	290	11.400633333333333,11.411966666666666,11.4233,11.434633333333334,11.445966666666667,11.4573,11.468633333333333,11.479966666666666,11.4913,11.502633333333334,11.513983333333334,11.5253	t,t,t,t,t,t,t,t,t,t,t,t	<img class = center src='/static/experiments/beast_fmri_test/images/V.png'></img>	71,89	2750.0	test	<img class = center src='/static/experiments/beast_fmri_test/images/redV.png'></img>	stop	1550.0	1.0	43.0	stop	target	V	71,Green Button	89,Yellow Button	1200.0	1500.0	1550.0	1250.0	0.0	1200.0	0.0	1.0	go_stim
191591.0	1550.0	n/a	-1	-1	2750	5000.0	stim	stop-signal	282	686533	0.0-11.43-1.43	beast_fmri_test	290	11.400633333333333,11.411966666666666,11.4233,11.434633333333334,11.445966666666667,11.4573,11.468633333333333,11.479966666666666,11.4913,11.502633333333334,11.513983333333334,11.5253	t,t,t,t,t,t,t,t,t,t,t,t	<img class = center src='/static/experiments/beast_fmri_test/images/V.png'></img>	71,89	2750.0	test	<img class = center src='/static/experiments/beast_fmri_test/images/redV.png'></img>	stop	1550.0	1.0	43.0	stop	target	V	71,Green Button	89,Yellow Button	1200.0	1500.0	1550.0	1250.0	0.0	1200.0	0.0	1.0	stop_stim
192791.0	5000.0	n/a	-1	-1	2750	5000.0	stim	stop-signal	282	686533	0.0-11.43-1.43	beast_fmri_test	290	11.400633333333333,11.411966666666666,11.4233,11.434633333333334,11.445966666666667,11.4573,11.468633333333333,11.479966666666666,11.4913,11.502633333333334,11.513983333333334,11.5253	t,t,t,t,t,t,t,t,t,t,t,t	<img class = center src='/static/experiments/beast_fmri_test/images/V.png'></img>	71,89	2750.0	test	<img class = center src='/static/experiments/beast_fmri_test/images/redV.png'></img>	stop	1550.0	1.0	43.0	stop	target	V	71,Green Button	89,Yellow Button	1200.0	1500.0	1550.0	1250.0	0.0	1200.0	0.0	1.0	ITI
203305.0	500	n/a	-1	-1	500	0.0	fixation	poldrack-single-stim	283	692047	0.0-11.44-0.44	beast_fmri_test	290	n/a	n/a	<div class = centerbox><div class = fixation>+</div></div>	none	500.0	test	n/a	n/a	n/a	n/a	n/a	n/a	n/a	n/a	n/a	n/a	n/a	n/a	n/a	n/a	n/a	n/a	n/a	n/a	fixation
203208.87468531844	2750	n/a	-1	-1	2750	98.1253146816	stim	stop-signal	284	694799	0.0-11.44-1.44	beast_fmri_test	290	11.536633333333333,11.547966666666667,11.5593,11.570633333333333	t,t,t,t	<img class = center src='/static/experiments/beast_fmri_test/images/V.png'></img>	71,89	2750.0	test	<img class = center src='/static/experiments/beast_fmri_test/images/redV.png'></img>	go	1500.0	1.0	44.0	go	target	V	71,Green Button	89,Yellow Button	1250.0	1500.0	1500.0	1250.0	0.0	1250.0	0.0	n/a	go_stim
205958.87468531844	98.125314681603498	n/a	-1	-1	2750	98.1253146816	stim	stop-signal	284	694799	0.0-11.44-1.44	beast_fmri_test	290	11.536633333333333,11.547966666666667,11.5593,11.570633333333333	t,t,t,t	<img class = center src='/static/experiments/beast_fmri_test/images/V.png'></img>	71,89	2750.0	test	<img class = center src='/static/experiments/beast_fmri_test/images/redV.png'></img>	go	1500.0	1.0	44.0	go	target	V	71,Green Button	89,Yellow Button	1250.0	1500.0	1500.0	1250.0	0.0	1250.0	0.0	n/a	ITI
206670.0	500	n/a	-1	-1	500	0.0	fixation	poldrack-single-stim	285	695412	0.0-11.45-0.45	beast_fmri_test	290	11.5819666666666	t	<div class = centerbox><div class = fixation>+</div></div>	none	500.0	test	n/a	n/a	n/a	n/a	n/a	n/a	n/a	n/a	n/a	n/a	n/a	n/a	n/a	n/a	n/a	n/a	n/a	n/a	fixation
206481.82722488628	2750	n/a	-1	-1	2750	190.172775114	stim	stop-signal	286	698164	0.0-11.45-1.45	beast_fmri_test	290	11.5933,11.604633333333334,11.615966666666667,11.6273,11.638633333333333	t,t,t,t,t	<img class = center src='/static/experiments/beast_fmri_test/images/T.png'></img>	71,89	2750.0	test	<img class = center src='/static/experiments/beast_fmri_test/images/redT.png'></img>	go	1250.0	1.0	45.0	go	non-target	T	71,Green Button	89,Yellow Button	1250.0	1500.0	1500.0	1250.0	0.0	1500.0	0.0	n/a	go_stim
209231.82722488628	190.17277511371699	n/a	-1	-1	2750	190.172775114	stim	stop-signal	286	698164	0.0-11.45-1.45	beast_fmri_test	290	11.5933,11.604633333333334,11.615966666666667,11.6273,11.638633333333333	t,t,t,t,t	<img class = center src='/static/experiments/beast_fmri_test/images/T.png'></img>	71,89	2750.0	test	<img class = center src='/static/experiments/beast_fmri_test/images/redT.png'></img>	go	1250.0	1.0	45.0	go	non-target	T	71,Green Button	89,Yellow Button	1250.0	1500.0	1500.0	1250.0	0.0	1500.0	0.0	n/a	ITI
224628.0	15000	n/a	-1	-1	15000	0.0	practice-no-stop-feedback	poldrack-single-stim	287	713370	0.0-12.0	beast_fmri_test	290	11.649966666666666,11.6613,11.672633333333334,11.683983333333334,11.6953,11.706633333333333,11.717966666666667,11.7293,11.740633333333333,11.751966666666666,11.7633,11.774633333333334,11.785966666666667,11.797316666666667,11.808633333333333,11.819983333333333,11.8313,11.84265,11.854,11.865316666666667,11.876633333333332,11.887983333333333	t,t,t,t,t,t,t,t,t,t,t,t,t,t,t,t,t,t,t,t,t,t	"<div class = ""centerbox""><p class = ""center-block-text"">Your delay is 1 trials.</p><p class = center-block-text>Please wait for the scanner to start the block</p></div>"	77	15000.0	n/a	n/a	n/a	n/a	n/a	n/a	n/a	n/a	n/a	n/a	n/a	n/a	n/a	n/a	n/a	n/a	n/a	n/a	n/a	practice-no-stop-feedback
225129.0	500	n/a	-1	-1	500	0.0	fixation	poldrack-single-stim	288	713871	0.0-13.0-0.0	beast_fmri_test	290	n/a	n/a	<div class = centerbox><div class = fixation>+</div></div>	none	500.0	test	n/a	n/a	n/a	n/a	n/a	n/a	n/a	n/a	n/a	n/a	n/a	n/a	n/a	n/a	n/a	n/a	n/a	n/a	fixation
224517.0894141593	temp_go_duration	n/a	-1	-1	2750	613.910585841	stim	stop-signal	289	716623	0.0-13.0-1.0	beast_fmri_test	290	11.899316666666667,11.910633333333333,11.921966666666666,11.933316666666666,11.944633333333334	t,t,t,t,t	<img class = center src='/static/experiments/beast_fmri_test/images/T.png'></img>	71,89	2750.0	test	<img class = center src='/static/experiments/beast_fmri_test/images/redT.png'></img>	stop	-1.0	1.0	0.0	stop	temp-non-target	T	71,Green Button	89,Yellow Button	1250.0	1500.0	1500.0	1250.0	0.0	n/a	n/a	1.0	go_stim
temp-non-target	temp_stop_duration	n/a	-1	-1	2750	613.910585841	stim	stop-signal	289	716623	0.0-13.0-1.0	beast_fmri_test	290	11.899316666666667,11.910633333333333,11.921966666666666,11.933316666666666,11.944633333333334	t,t,t,t,t	<img class = center src='/static/experiments/beast_fmri_test/images/T.png'></img>	71,89	2750.0	test	<img class = center src='/static/experiments/beast_fmri_test/images/redT.png'></img>	stop	-1.0	1.0	0.0	stop	temp-non-target	T	71,Green Button	89,Yellow Button	1250.0	1500.0	1500.0	1250.0	0.0	n/a	n/a	1.0	stop_stim
227267.0894141593	613.91058584074904	n/a	-1	-1	2750	613.910585841	stim	stop-signal	289	716623	0.0-13.0-1.0	beast_fmri_test	290	11.899316666666667,11.910633333333333,11.921966666666666,11.933316666666666,11.944633333333334	t,t,t,t,t	<img class = center src='/static/experiments/beast_fmri_test/images/T.png'></img>	71,89	2750.0	test	<img class = center src='/static/experiments/beast_fmri_test/images/redT.png'></img>	stop	-1.0	1.0	0.0	stop	temp-non-target	T	71,Green Button	89,Yellow Button	1250.0	1500.0	1500.0	1250.0	0.0	n/a	n/a	1.0	ITI
229007.0	500	n/a	-1	-1	500	0.0	fixation	poldrack-single-stim	290	717749	0.0-13.1-0.1	beast_fmri_test	290	11.9559833333333	t	<div class = centerbox><div class = fixation>+</div></div>	none	500.0	test	n/a	n/a	n/a	n/a	n/a	n/a	n/a	n/a	n/a	n/a	n/a	n/a	n/a	n/a	n/a	n/a	n/a	n/a	fixation
228307.34784608032	2750	n/a	-1	-1	2750	701.65215392	stim	stop-signal	291	720501	0.0-13.1-1.1	beast_fmri_test	290	11.9673,11.97865,11.989966666666668,12.0013,12.012633333333333	t,t,t,t,t	<img class = center src='/static/experiments/beast_fmri_test/images/T.png'></img>	71,89	2750.0	test	<img class = center src='/static/experiments/beast_fmri_test/images/redT.png'></img>	go	1500.0	1.0	1.0	go	target	T	71,Green Button	89,Yellow Button	1250.0	1500.0	1500.0	1250.0	0.0	1250.0	0.0	n/a	go_stim
231057.34784608032	701.65215391965296	n/a	-1	-1	2750	701.65215392	stim	stop-signal	291	720501	0.0-13.1-1.1	beast_fmri_test	290	11.9673,11.97865,11.989966666666668,12.0013,12.012633333333333	t,t,t,t,t	<img class = center src='/static/experiments/beast_fmri_test/images/T.png'></img>	71,89	2750.0	test	<img class = center src='/static/experiments/beast_fmri_test/images/redT.png'></img>	go	1500.0	1.0	1.0	go	target	T	71,Green Button	89,Yellow Button	1250.0	1500.0	1500.0	1250.0	0.0	1250.0	0.0	n/a	ITI
232974.0	500	n/a	-1	-1	500	0.0	fixation	poldrack-single-stim	292	721716	0.0-13.2-0.2	beast_fmri_test	290	12.024	t	<div class = centerbox><div class = fixation>+</div></div>	none	500.0	test	n/a	n/a	n/a	n/a	n/a	n/a	n/a	n/a	n/a	n/a	n/a	n/a	n/a	n/a	n/a	n/a	n/a	n/a	fixation
231353.21909590333	2750	n/a	-1	-1	2750	1621.7809041	stim	stop-signal	293	724467	0.0-13.2-1.2	beast_fmri_test	290	12.0353,12.046633333333334,12.057966666666667,12.0693,12.080633333333333,12.091966666666666	t,t,t,t,t,t	<img class = center src='/static/experiments/beast_fmri_test/images/T.png'></img>	71,89	2750.0	test	<img class = center src='/static/experiments/beast_fmri_test/images/redT.png'></img>	go	1500.0	1.0	2.0	go	target	T	71,Green Button	89,Yellow Button	1250.0	1500.0	1500.0	1250.0	0.0	1250.0	0.0	n/a	go_stim
234103.21909590333	1621.7809040966999	n/a	-1	-1	2750	1621.7809041	stim	stop-signal	293	724467	0.0-13.2-1.2	beast_fmri_test	290	12.0353,12.046633333333334,12.057966666666667,12.0693,12.080633333333333,12.091966666666666	t,t,t,t,t,t	<img class = center src='/static/experiments/beast_fmri_test/images/T.png'></img>	71,89	2750.0	test	<img class = center src='/static/experiments/beast_fmri_test/images/redT.png'></img>	go	1500.0	1.0	2.0	go	target	T	71,Green Button	89,Yellow Button	1250.0	1500.0	1500.0	1250.0	0.0	1250.0	0.0	n/a	ITI
237861.0	500	n/a	-1	-1	500	0.0	fixation	poldrack-single-stim	294	726603	0.0-13.3-0.3	beast_fmri_test	290	12.1033	t	<div class = centerbox><div class = fixation>+</div></div>	none	500.0	test	n/a	n/a	n/a	n/a	n/a	n/a	n/a	n/a	n/a	n/a	n/a	n/a	n/a	n/a	n/a	n/a	n/a	n/a	fixation
236241.61334852641	2750	n/a	-1	-1	2750	1621.38665147	stim	stop-signal	295	729355	0.0-13.3-1.3	beast_fmri_test	290	12.114633333333334,12.125966666666667,12.1373,12.148633333333333,12.159966666666667,12.1713,12.182633333333333	t,t,t,t,t,t,t	<img class = center src='/static/experiments/beast_fmri_test/images/V.png'></img>	71,89	2750.0	test	<img class = center src='/static/experiments/beast_fmri_test/images/redV.png'></img>	go	1250.0	1.0	3.0	go	non-target	V	71,Green Button	89,Yellow Button	1250.0	1500.0	1500.0	1250.0	0.0	1500.0	0.0	n/a	go_stim
238991.61334852641	1621.3866514736201	n/a	-1	-1	2750	1621.38665147	stim	stop-signal	295	729355	0.0-13.3-1.3	beast_fmri_test	290	12.114633333333334,12.125966666666667,12.1373,12.148633333333333,12.159966666666667,12.1713,12.182633333333333	t,t,t,t,t,t,t	<img class = center src='/static/experiments/beast_fmri_test/images/V.png'></img>	71,89	2750.0	test	<img class = center src='/static/experiments/beast_fmri_test/images/redV.png'></img>	go	1250.0	1.0	3.0	go	non-target	V	71,Green Button	89,Yellow Button	1250.0	1500.0	1500.0	1250.0	0.0	1500.0	0.0	n/a	ITI
242747.0	500	n/a	-1	-1	500	0.0	fixation	poldrack-single-stim	296	731489	0.0-13.4-0.4	beast_fmri_test	290	n/a	n/a	<div class = centerbox><div class = fixation>+</div></div>	none	500.0	test	n/a	n/a	n/a	n/a	n/a	n/a	n/a	n/a	n/a	n/a	n/a	n/a	n/a	n/a	n/a	n/a	n/a	n/a	fixation
242624.62931403017	1250.0	n/a	-1	-1	2750	124.37068597	stim	stop-signal	297	734241	0.0-13.4-1.4	beast_fmri_test	290	12.193983333333334,12.2053,12.216633333333334,12.227966666666667,12.2393	t,t,t,t,t	<img class = center src='/static/experiments/beast_fmri_test/images/V.png'></img>	71,89	2750.0	test	<img class = center src='/static/experiments/beast_fmri_test/images/redV.png'></img>	stop	1500.0	1.0	4.0	stop	target	V	71,Green Button	89,Yellow Button	1250.0	1500.0	1500.0	1250.0	0.0	1250.0	0.0	1.0	go_stim
244124.62931403017	1500.0	n/a	-1	-1	2750	124.37068597	stim	stop-signal	297	734241	0.0-13.4-1.4	beast_fmri_test	290	12.193983333333334,12.2053,12.216633333333334,12.227966666666667,12.2393	t,t,t,t,t	<img class = center src='/static/experiments/beast_fmri_test/images/V.png'></img>	71,89	2750.0	test	<img class = center src='/static/experiments/beast_fmri_test/images/redV.png'></img>	stop	1500.0	1.0	4.0	stop	target	V	71,Green Button	89,Yellow Button	1250.0	1500.0	1500.0	1250.0	0.0	1250.0	0.0	1.0	stop_stim
245374.62931403017	124.37068596982201	n/a	-1	-1	2750	124.37068597	stim	stop-signal	297	734241	0.0-13.4-1.4	beast_fmri_test	290	12.193983333333334,12.2053,12.216633333333334,12.227966666666667,12.2393	t,t,t,t,t	<img class = center src='/static/experiments/beast_fmri_test/images/V.png'></img>	71,89	2750.0	test	<img class = center src='/static/experiments/beast_fmri_test/images/redV.png'></img>	stop	1500.0	1.0	4.0	stop	target	V	71,Green Button	89,Yellow Button	1250.0	1500.0	1500.0	1250.0	0.0	1250.0	0.0	1.0	ITI
246136.0	500	n/a	-1	-1	500	0.0	fixation	poldrack-single-stim	298	734878	0.0-13.5-0.5	beast_fmri_test	290	n/a	n/a	<div class = centerbox><div class = fixation>+</div></div>	none	500.0	test	n/a	n/a	n/a	n/a	n/a	n/a	n/a	n/a	n/a	n/a	n/a	n/a	n/a	n/a	n/a	n/a	n/a	n/a	fixation
245922.86688573356	2750	n/a	-1	-1	2750	214.133114266	stim	stop-signal	299	737629	0.0-13.5-1.5	beast_fmri_test	290	12.250633333333333,12.261966666666666,12.2733,12.284633333333334,12.295966666666667	t,t,t,t,t	<img class = center src='/static/experiments/beast_fmri_test/images/V.png'></img>	71,89	2750.0	test	<img class = center src='/static/experiments/beast_fmri_test/images/redV.png'></img>	go	1450.0	1.0	5.0	go	target	V	71,Green Button	89,Yellow Button	1300.0	1500.0	1450.0	1250.0	0.0	1300.0	0.0	n/a	go_stim
248672.86688573356	214.133114266413	n/a	-1	-1	2750	214.133114266	stim	stop-signal	299	737629	0.0-13.5-1.5	beast_fmri_test	290	12.250633333333333,12.261966666666666,12.2733,12.284633333333334,12.295966666666667	t,t,t,t,t	<img class = center src='/static/experiments/beast_fmri_test/images/V.png'></img>	71,89	2750.0	test	<img class = center src='/static/experiments/beast_fmri_test/images/redV.png'></img>	go	1450.0	1.0	5.0	go	target	V	71,Green Button	89,Yellow Button	1300.0	1500.0	1450.0	1250.0	0.0	1300.0	0.0	n/a	ITI
249613.0	500	n/a	-1	-1	500	0.0	fixation	poldrack-single-stim	300	738355	0.0-13.6-0.6	beast_fmri_test	290	n/a	n/a	<div class = centerbox><div class = fixation>+</div></div>	none	500.0	test	n/a	n/a	n/a	n/a	n/a	n/a	n/a	n/a	n/a	n/a	n/a	n/a	n/a	n/a	n/a	n/a	n/a	n/a	fixation
249482.16923856665	1500.0	n/a	-1	-1	2750	131.830761433	stim	stop-signal	301	741106	0.0-13.6-1.6	beast_fmri_test	290	12.3073,12.318633333333333,12.329966666666667,12.3413,12.35265	t,t,t,t,t	<img class = center src='/static/experiments/beast_fmri_test/images/D.png'></img>	71,89	2750.0	test	<img class = center src='/static/experiments/beast_fmri_test/images/redD.png'></img>	stop	1250.0	1.0	6.0	stop	non-target	D	71,Green Button	89,Yellow Button	1300.0	1500.0	1450.0	1250.0	0.0	1500.0	0.0	1.0	go_stim
250732.16923856665	1250.0	n/a	-1	-1	2750	131.830761433	stim	stop-signal	301	741106	0.0-13.6-1.6	beast_fmri_test	290	12.3073,12.318633333333333,12.329966666666667,12.3413,12.35265	t,t,t,t,t	<img class = center src='/static/experiments/beast_fmri_test/images/D.png'></img>	71,89	2750.0	test	<img class = center src='/static/experiments/beast_fmri_test/images/redD.png'></img>	stop	1250.0	1.0	6.0	stop	non-target	D	71,Green Button	89,Yellow Button	1300.0	1500.0	1450.0	1250.0	0.0	1500.0	0.0	1.0	stop_stim
252232.16923856665	131.83076143334	n/a	-1	-1	2750	131.830761433	stim	stop-signal	301	741106	0.0-13.6-1.6	beast_fmri_test	290	12.3073,12.318633333333333,12.329966666666667,12.3413,12.35265	t,t,t,t,t	<img class = center src='/static/experiments/beast_fmri_test/images/D.png'></img>	71,89	2750.0	test	<img class = center src='/static/experiments/beast_fmri_test/images/redD.png'></img>	stop	1250.0	1.0	6.0	stop	non-target	D	71,Green Button	89,Yellow Button	1300.0	1500.0	1450.0	1250.0	0.0	1500.0	0.0	1.0	ITI
253009.0	500	n/a	-1	-1	500	0.0	fixation	poldrack-single-stim	302	741751	0.0-13.7-0.7	beast_fmri_test	290	n/a	n/a	<div class = centerbox><div class = fixation>+</div></div>	none	500.0	test	n/a	n/a	n/a	n/a	n/a	n/a	n/a	n/a	n/a	n/a	n/a	n/a	n/a	n/a	n/a	n/a	n/a	n/a	fixation
252240.08267970628	2750	n/a	-1	-1	2750	769.917320294	stim	stop-signal	303	744502	0.0-13.7-1.7	beast_fmri_test	290	12.363983333333334,12.3753,12.38665,12.397983333333332,12.409316666666667,12.42065	t,t,t,t,t,t	<img class = center src='/static/experiments/beast_fmri_test/images/P.png'></img>	71,89	2750.0	test	<img class = center src='/static/experiments/beast_fmri_test/images/redP.png'></img>	go	1250.0	1.0	7.0	go	non-target	P	71,Green Button	89,Yellow Button	1300.0	1500.0	1450.0	1250.0	0.0	1500.0	0.0	n/a	go_stim
254990.08267970628	769.91732029367597	n/a	-1	-1	2750	769.917320294	stim	stop-signal	303	744502	0.0-13.7-1.7	beast_fmri_test	290	12.363983333333334,12.3753,12.38665,12.397983333333332,12.409316666666667,12.42065	t,t,t,t,t,t	<img class = center src='/static/experiments/beast_fmri_test/images/P.png'></img>	71,89	2750.0	test	<img class = center src='/static/experiments/beast_fmri_test/images/redP.png'></img>	go	1250.0	1.0	7.0	go	non-target	P	71,Green Button	89,Yellow Button	1300.0	1500.0	1450.0	1250.0	0.0	1500.0	0.0	n/a	ITI
257044.0	500	n/a	-1	-1	500	0.0	fixation	poldrack-single-stim	304	745786	0.0-13.8-0.8	beast_fmri_test	290	n/a	n/a	<div class = centerbox><div class = fixation>+</div></div>	none	500.0	test	n/a	n/a	n/a	n/a	n/a	n/a	n/a	n/a	n/a	n/a	n/a	n/a	n/a	n/a	n/a	n/a	n/a	n/a	fixation
252717.44576271274	2750	n/a	-1	-1	2750	4327.55423729	stim	stop-signal	305	748537	0.0-13.8-1.8	beast_fmri_test	290	12.431983333333333,12.443316666666666,12.45465,12.465983333333334,12.477316666666667,12.48865,12.499983333333333,12.511316666666668,12.52265,12.534016666666666,12.545316666666666	t,t,t,t,t,t,t,t,t,t,t	<img class = center src='/static/experiments/beast_fmri_test/images/P.png'></img>	71,89	2750.0	test	<img class = center src='/static/experiments/beast_fmri_test/images/redP.png'></img>	go	1450.0	1.0	8.0	go	target	P	71,Green Button	89,Yellow Button	1300.0	1500.0	1450.0	1250.0	0.0	1300.0	0.0	n/a	go_stim
255467.44576271274	4327.5542372872696	n/a	-1	-1	2750	4327.55423729	stim	stop-signal	305	748537	0.0-13.8-1.8	beast_fmri_test	290	12.431983333333333,12.443316666666666,12.45465,12.465983333333334,12.477316666666667,12.48865,12.499983333333333,12.511316666666668,12.52265,12.534016666666666,12.545316666666666	t,t,t,t,t,t,t,t,t,t,t	<img class = center src='/static/experiments/beast_fmri_test/images/P.png'></img>	71,89	2750.0	test	<img class = center src='/static/experiments/beast_fmri_test/images/redP.png'></img>	go	1450.0	1.0	8.0	go	target	P	71,Green Button	89,Yellow Button	1300.0	1500.0	1450.0	1250.0	0.0	1300.0	0.0	n/a	ITI
264639.0	500	n/a	-1	-1	500	0.0	fixation	poldrack-single-stim	306	753381	0.0-13.9-0.9	beast_fmri_test	290	n/a	n/a	<div class = centerbox><div class = fixation>+</div></div>	none	500.0	test	n/a	n/a	n/a	n/a	n/a	n/a	n/a	n/a	n/a	n/a	n/a	n/a	n/a	n/a	n/a	n/a	n/a	n/a	fixation
262839.80240968824	2750	n/a	-1	-1	2750	1800.19759031	stim	stop-signal	307	756132	0.0-13.9-1.9	beast_fmri_test	290	12.55665,12.567983333333334,12.579316666666667,12.59065,12.601983333333333,12.613316666666666,12.62465	t,t,t,t,t,t,t	<img class = center src='/static/experiments/beast_fmri_test/images/D.png'></img>	71,89	2750.0	test	<img class = center src='/static/experiments/beast_fmri_test/images/redD.png'></img>	go	1250.0	1.0	9.0	go	non-target	D	71,Green Button	89,Yellow Button	1300.0	1500.0	1450.0	1250.0	0.0	1500.0	0.0	n/a	go_stim
265589.80240968824	1800.19759031181	n/a	-1	-1	2750	1800.19759031	stim	stop-signal	307	756132	0.0-13.9-1.9	beast_fmri_test	290	12.55665,12.567983333333334,12.579316666666667,12.59065,12.601983333333333,12.613316666666666,12.62465	t,t,t,t,t,t,t	<img class = center src='/static/experiments/beast_fmri_test/images/D.png'></img>	71,89	2750.0	test	<img class = center src='/static/experiments/beast_fmri_test/images/redD.png'></img>	go	1250.0	1.0	9.0	go	non-target	D	71,Green Button	89,Yellow Button	1300.0	1500.0	1450.0	1250.0	0.0	1500.0	0.0	n/a	ITI
269708.0	500	n/a	-1	-1	500	0.0	fixation	poldrack-single-stim	308	758450	0.0-13.10-0.10	beast_fmri_test	290	12.6359833333333	t	<div class = centerbox><div class = fixation>+</div></div>	none	500.0	test	n/a	n/a	n/a	n/a	n/a	n/a	n/a	n/a	n/a	n/a	n/a	n/a	n/a	n/a	n/a	n/a	n/a	n/a	fixation
268291.98256822594	2750	n/a	-1	-1	2750	1417.01743177	stim	stop-signal	309	761201	0.0-13.10-1.10	beast_fmri_test	290	12.647316666666667,12.65865,12.669983333333333,12.681316666666667,12.692633333333333,12.704	t,t,t,t,t,t	<img class = center src='/static/experiments/beast_fmri_test/images/P.png'></img>	71,89	2750.0	test	<img class = center src='/static/experiments/beast_fmri_test/images/redP.png'></img>	go	1250.0	1.0	10.0	go	non-target	P	71,Green Button	89,Yellow Button	1300.0	1500.0	1450.0	1250.0	0.0	1500.0	0.0	n/a	go_stim
271041.98256822594	1417.01743177402	n/a	-1	-1	2750	1417.01743177	stim	stop-signal	309	761201	0.0-13.10-1.10	beast_fmri_test	290	12.647316666666667,12.65865,12.669983333333333,12.681316666666667,12.692633333333333,12.704	t,t,t,t,t,t	<img class = center src='/static/experiments/beast_fmri_test/images/P.png'></img>	71,89	2750.0	test	<img class = center src='/static/experiments/beast_fmri_test/images/redP.png'></img>	go	1250.0	1.0	10.0	go	non-target	P	71,Green Button	89,Yellow Button	1300.0	1500.0	1450.0	1250.0	0.0	1500.0	0.0	n/a	ITI
274392.0	500	n/a	-1	-1	500	0.0	fixation	poldrack-single-stim	310	763134	0.0-13.11-0.11	beast_fmri_test	290	12.7153166666666	t	<div class = centerbox><div class = fixation>+</div></div>	none	500.0	test	n/a	n/a	n/a	n/a	n/a	n/a	n/a	n/a	n/a	n/a	n/a	n/a	n/a	n/a	n/a	n/a	n/a	n/a	fixation
274301.97021235665	1500.0	n/a	-1	-1	2750	93.0297876434	stim	stop-signal	311	765887	0.0-13.11-1.11	beast_fmri_test	290	12.72665,12.737983333333334,12.749316666666667,12.76065	t,t,t,t	<img class = center src='/static/experiments/beast_fmri_test/images/B.png'></img>	71,89	2750.0	test	<img class = center src='/static/experiments/beast_fmri_test/images/redB.png'></img>	stop	1250.0	1.0	11.0	stop	non-target	B	71,Green Button	89,Yellow Button	1300.0	1500.0	1450.0	1250.0	0.0	1500.0	0.0	1.0	go_stim
275551.97021235665	1250.0	n/a	-1	-1	2750	93.0297876434	stim	stop-signal	311	765887	0.0-13.11-1.11	beast_fmri_test	290	12.72665,12.737983333333334,12.749316666666667,12.76065	t,t,t,t	<img class = center src='/static/experiments/beast_fmri_test/images/B.png'></img>	71,89	2750.0	test	<img class = center src='/static/experiments/beast_fmri_test/images/redB.png'></img>	stop	1250.0	1.0	11.0	stop	non-target	B	71,Green Button	89,Yellow Button	1300.0	1500.0	1450.0	1250.0	0.0	1500.0	0.0	1.0	stop_stim
277051.97021235665	93.029787643379905	n/a	-1	-1	2750	93.0297876434	stim	stop-signal	311	765887	0.0-13.11-1.11	beast_fmri_test	290	12.72665,12.737983333333334,12.749316666666667,12.76065	t,t,t,t	<img class = center src='/static/experiments/beast_fmri_test/images/B.png'></img>	71,89	2750.0	test	<img class = center src='/static/experiments/beast_fmri_test/images/redB.png'></img>	stop	1250.0	1.0	11.0	stop	non-target	B	71,Green Button	89,Yellow Button	1300.0	1500.0	1450.0	1250.0	0.0	1500.0	0.0	1.0	ITI
277752.0	500	n/a	-1	-1	500	0.0	fixation	poldrack-single-stim	312	766494	0.0-13.12-0.12	beast_fmri_test	290	12.7719833333333	t	<div class = centerbox><div class = fixation>+</div></div>	none	500.0	test	n/a	n/a	n/a	n/a	n/a	n/a	n/a	n/a	n/a	n/a	n/a	n/a	n/a	n/a	n/a	n/a	n/a	n/a	fixation
276843.04033653671	1300.0	n/a	-1	-1	2750	910.959663463	stim	stop-signal	313	769246	0.0-13.12-1.12	beast_fmri_test	290	12.7833,12.79465,12.805966666666666,12.817316666666667,12.82865	t,t,t,t,t	<img class = center src='/static/experiments/beast_fmri_test/images/B.png'></img>	71,89	2750.0	test	<img class = center src='/static/experiments/beast_fmri_test/images/redB.png'></img>	stop	1450.0	1.0	12.0	stop	target	B	71,Green Button	89,Yellow Button	1300.0	1500.0	1450.0	1250.0	0.0	1300.0	0.0	1.0	go_stim
278293.04033653671	1450.0	n/a	-1	-1	2750	910.959663463	stim	stop-signal	313	769246	0.0-13.12-1.12	beast_fmri_test	290	12.7833,12.79465,12.805966666666666,12.817316666666667,12.82865	t,t,t,t,t	<img class = center src='/static/experiments/beast_fmri_test/images/B.png'></img>	71,89	2750.0	test	<img class = center src='/static/experiments/beast_fmri_test/images/redB.png'></img>	stop	1450.0	1.0	12.0	stop	target	B	71,Green Button	89,Yellow Button	1300.0	1500.0	1450.0	1250.0	0.0	1300.0	0.0	1.0	stop_stim
279593.04033653671	910.95966346332204	n/a	-1	-1	2750	910.959663463	stim	stop-signal	313	769246	0.0-13.12-1.12	beast_fmri_test	290	12.7833,12.79465,12.805966666666666,12.817316666666667,12.82865	t,t,t,t,t	<img class = center src='/static/experiments/beast_fmri_test/images/B.png'></img>	71,89	2750.0	test	<img class = center src='/static/experiments/beast_fmri_test/images/redB.png'></img>	stop	1450.0	1.0	12.0	stop	target	B	71,Green Button	89,Yellow Button	1300.0	1500.0	1450.0	1250.0	0.0	1300.0	0.0	1.0	ITI
281929.0	500	n/a	-1	-1	500	0.0	fixation	poldrack-single-stim	314	770671	0.0-13.13-0.13	beast_fmri_test	290	12.8399666666666	t	<div class = centerbox><div class = fixation>+</div></div>	none	500.0	test	n/a	n/a	n/a	n/a	n/a	n/a	n/a	n/a	n/a	n/a	n/a	n/a	n/a	n/a	n/a	n/a	n/a	n/a	fixation
280609.33147879562	2750	n/a	-1	-1	2750	1320.6685212	stim	stop-signal	315	773422	0.0-13.13-1.13	beast_fmri_test	290	12.8513,12.86265,12.874,12.885316666666666,12.896633333333334,12.907983333333334	t,t,t,t,t,t	<img class = center src='/static/experiments/beast_fmri_test/images/B.png'></img>	71,89	2750.0	test	<img class = center src='/static/experiments/beast_fmri_test/images/redB.png'></img>	go	1400.0	1.0	13.0	go	target	B	71,Green Button	89,Yellow Button	1350.0	1500.0	1400.0	1250.0	0.0	1350.0	0.0	n/a	go_stim
283359.33147879562	1320.6685212043999	n/a	-1	-1	2750	1320.6685212	stim	stop-signal	315	773422	0.0-13.13-1.13	beast_fmri_test	290	12.8513,12.86265,12.874,12.885316666666666,12.896633333333334,12.907983333333334	t,t,t,t,t,t	<img class = center src='/static/experiments/beast_fmri_test/images/B.png'></img>	71,89	2750.0	test	<img class = center src='/static/experiments/beast_fmri_test/images/redB.png'></img>	go	1400.0	1.0	13.0	go	target	B	71,Green Button	89,Yellow Button	1350.0	1500.0	1400.0	1250.0	0.0	1350.0	0.0	n/a	ITI
286516.0	500	n/a	-1	-1	500	0.0	fixation	poldrack-single-stim	316	775258	0.0-13.14-0.14	beast_fmri_test	290	12.9193166666666	t	<div class = centerbox><div class = fixation>+</div></div>	none	500.0	test	n/a	n/a	n/a	n/a	n/a	n/a	n/a	n/a	n/a	n/a	n/a	n/a	n/a	n/a	n/a	n/a	n/a	n/a	fixation
284857.47721604456	1500.0	n/a	-1	-1	2750	1659.52278396	stim	stop-signal	317	778009	0.0-13.14-1.14	beast_fmri_test	290	12.93065,12.941983333333333,12.953333333333333,12.96465,12.975983333333334,12.987316666666667	t,t,t,t,t,t	<img class = center src='/static/experiments/beast_fmri_test/images/P.png'></img>	71,89	2750.0	test	<img class = center src='/static/experiments/beast_fmri_test/images/redP.png'></img>	stop	1250.0	1.0	14.0	stop	non-target	P	71,Green Button	89,Yellow Button	1350.0	1500.0	1400.0	1250.0	0.0	1500.0	0.0	1.0	go_stim
286107.47721604456	1250.0	n/a	-1	-1	2750	1659.52278396	stim	stop-signal	317	778009	0.0-13.14-1.14	beast_fmri_test	290	12.93065,12.941983333333333,12.953333333333333,12.96465,12.975983333333334,12.987316666666667	t,t,t,t,t,t	<img class = center src='/static/experiments/beast_fmri_test/images/P.png'></img>	71,89	2750.0	test	<img class = center src='/static/experiments/beast_fmri_test/images/redP.png'></img>	stop	1250.0	1.0	14.0	stop	non-target	P	71,Green Button	89,Yellow Button	1350.0	1500.0	1400.0	1250.0	0.0	1500.0	0.0	1.0	stop_stim
287607.47721604456	1659.52278395545	n/a	-1	-1	2750	1659.52278396	stim	stop-signal	317	778009	0.0-13.14-1.14	beast_fmri_test	290	12.93065,12.941983333333333,12.953333333333333,12.96465,12.975983333333334,12.987316666666667	t,t,t,t,t,t	<img class = center src='/static/experiments/beast_fmri_test/images/P.png'></img>	71,89	2750.0	test	<img class = center src='/static/experiments/beast_fmri_test/images/redP.png'></img>	stop	1250.0	1.0	14.0	stop	non-target	P	71,Green Button	89,Yellow Button	1350.0	1500.0	1400.0	1250.0	0.0	1500.0	0.0	1.0	ITI
291443.0	500	n/a	-1	-1	500	0.0	fixation	poldrack-single-stim	318	780185	0.0-13.15-0.15	beast_fmri_test	290	12.99865	t	<div class = centerbox><div class = fixation>+</div></div>	none	500.0	test	n/a	n/a	n/a	n/a	n/a	n/a	n/a	n/a	n/a	n/a	n/a	n/a	n/a	n/a	n/a	n/a	n/a	n/a	fixation
290829.70079716831	1500.0	n/a	-1	-1	2750	615.299202832	stim	stop-signal	319	782937	0.0-13.15-1.15	beast_fmri_test	290	13.01,13.021316666666667,13.03265,13.044,13.055316666666666	t,t,t,t,t	<img class = center src='/static/experiments/beast_fmri_test/images/B.png'></img>	71,89	2750.0	test	<img class = center src='/static/experiments/beast_fmri_test/images/redB.png'></img>	stop	1250.0	1.0	15.0	stop	non-target	B	71,Green Button	89,Yellow Button	1350.0	1500.0	1400.0	1250.0	0.0	1500.0	0.0	1.0	go_stim
292079.70079716831	1250.0	n/a	-1	-1	2750	615.299202832	stim	stop-signal	319	782937	0.0-13.15-1.15	beast_fmri_test	290	13.01,13.021316666666667,13.03265,13.044,13.055316666666666	t,t,t,t,t	<img class = center src='/static/experiments/beast_fmri_test/images/B.png'></img>	71,89	2750.0	test	<img class = center src='/static/experiments/beast_fmri_test/images/redB.png'></img>	stop	1250.0	1.0	15.0	stop	non-target	B	71,Green Button	89,Yellow Button	1350.0	1500.0	1400.0	1250.0	0.0	1500.0	0.0	1.0	stop_stim
293579.70079716831	615.29920283174499	n/a	-1	-1	2750	615.299202832	stim	stop-signal	319	782937	0.0-13.15-1.15	beast_fmri_test	290	13.01,13.021316666666667,13.03265,13.044,13.055316666666666	t,t,t,t,t	<img class = center src='/static/experiments/beast_fmri_test/images/B.png'></img>	71,89	2750.0	test	<img class = center src='/static/experiments/beast_fmri_test/images/redB.png'></img>	stop	1250.0	1.0	15.0	stop	non-target	B	71,Green Button	89,Yellow Button	1350.0	1500.0	1400.0	1250.0	0.0	1500.0	0.0	1.0	ITI
295325.0	500	n/a	-1	-1	500	0.0	fixation	poldrack-single-stim	320	784067	0.0-13.16-0.16	beast_fmri_test	290	13.0666666666666	t	<div class = centerbox><div class = fixation>+</div></div>	none	500.0	test	n/a	n/a	n/a	n/a	n/a	n/a	n/a	n/a	n/a	n/a	n/a	n/a	n/a	n/a	n/a	n/a	n/a	n/a	fixation
295300.92860256601	1350.0	n/a	-1	-1	2750	27.071397434	stim	stop-signal	321	786820	0.0-13.16-1.16	beast_fmri_test	290	13.077983333333334,13.089316666666667,13.100666666666667,13.111983333333333	t,t,t,t	<img class = center src='/static/experiments/beast_fmri_test/images/B.png'></img>	71,89	2750.0	test	<img class = center src='/static/experiments/beast_fmri_test/images/redB.png'></img>	stop	1400.0	1.0	16.0	stop	target	B	71,Green Button	89,Yellow Button	1350.0	1500.0	1400.0	1250.0	0.0	1350.0	0.0	1.0	go_stim
296700.92860256601	1400.0	n/a	-1	-1	2750	27.071397434	stim	stop-signal	321	786820	0.0-13.16-1.16	beast_fmri_test	290	13.077983333333334,13.089316666666667,13.100666666666667,13.111983333333333	t,t,t,t	<img class = center src='/static/experiments/beast_fmri_test/images/B.png'></img>	71,89	2750.0	test	<img class = center src='/static/experiments/beast_fmri_test/images/redB.png'></img>	stop	1400.0	1.0	16.0	stop	target	B	71,Green Button	89,Yellow Button	1350.0	1500.0	1400.0	1250.0	0.0	1350.0	0.0	1.0	stop_stim
298050.92860256601	27.071397433972901	n/a	-1	-1	2750	27.071397434	stim	stop-signal	321	786820	0.0-13.16-1.16	beast_fmri_test	290	13.077983333333334,13.089316666666667,13.100666666666667,13.111983333333333	t,t,t,t	<img class = center src='/static/experiments/beast_fmri_test/images/B.png'></img>	71,89	2750.0	test	<img class = center src='/static/experiments/beast_fmri_test/images/redB.png'></img>	stop	1400.0	1.0	16.0	stop	target	B	71,Green Button	89,Yellow Button	1350.0	1500.0	1400.0	1250.0	0.0	1350.0	0.0	1.0	ITI
298617.0	500	n/a	-1	-1	500	0.0	fixation	poldrack-single-stim	322	787359	0.0-13.17-0.17	beast_fmri_test	290	n/a	n/a	<div class = centerbox><div class = fixation>+</div></div>	none	500.0	test	n/a	n/a	n/a	n/a	n/a	n/a	n/a	n/a	n/a	n/a	n/a	n/a	n/a	n/a	n/a	n/a	n/a	n/a	fixation
298207.65080130112	2750	n/a	-1	-1	2750	411.349198699	stim	stop-signal	323	790111	0.0-13.17-1.17	beast_fmri_test	290	13.123316666666666,13.13465,13.145983333333334,13.157316666666667,13.16865	t,t,t,t,t	<img class = center src='/static/experiments/beast_fmri_test/images/B.png'></img>	71,89	2750.0	test	<img class = center src='/static/experiments/beast_fmri_test/images/redB.png'></img>	go	1350.0	1.0	17.0	go	target	B	71,Green Button	89,Yellow Button	1400.0	1500.0	1350.0	1250.0	0.0	1400.0	0.0	n/a	go_stim
300957.65080130112	411.34919869885601	n/a	-1	-1	2750	411.349198699	stim	stop-signal	323	790111	0.0-13.17-1.17	beast_fmri_test	290	13.123316666666666,13.13465,13.145983333333334,13.157316666666667,13.16865	t,t,t,t,t	<img class = center src='/static/experiments/beast_fmri_test/images/B.png'></img>	71,89	2750.0	test	<img class = center src='/static/experiments/beast_fmri_test/images/redB.png'></img>	go	1350.0	1.0	17.0	go	target	B	71,Green Button	89,Yellow Button	1400.0	1500.0	1350.0	1250.0	0.0	1400.0	0.0	n/a	ITI
302295.0	500	n/a	-1	-1	500	0.0	fixation	poldrack-single-stim	324	791037	0.0-13.18-0.18	beast_fmri_test	290	13.1799833333333	t	<div class = centerbox><div class = fixation>+</div></div>	none	500.0	test	n/a	n/a	n/a	n/a	n/a	n/a	n/a	n/a	n/a	n/a	n/a	n/a	n/a	n/a	n/a	n/a	n/a	n/a	fixation
301318.96956660086	1500.0	n/a	-1	-1	2750	978.030433399	stim	stop-signal	325	793789	0.0-13.18-1.18	beast_fmri_test	290	13.191316666666667,13.20265,13.213983333333333,13.225316666666666,13.23665	t,t,t,t,t	<img class = center src='/static/experiments/beast_fmri_test/images/D.png'></img>	71,89	2750.0	test	<img class = center src='/static/experiments/beast_fmri_test/images/redD.png'></img>	stop	1250.0	1.0	18.0	stop	non-target	D	71,Green Button	89,Yellow Button	1400.0	1500.0	1350.0	1250.0	0.0	1500.0	0.0	1.0	go_stim
302568.96956660086	1250.0	n/a	-1	-1	2750	978.030433399	stim	stop-signal	325	793789	0.0-13.18-1.18	beast_fmri_test	290	13.191316666666667,13.20265,13.213983333333333,13.225316666666666,13.23665	t,t,t,t,t	<img class = center src='/static/experiments/beast_fmri_test/images/D.png'></img>	71,89	2750.0	test	<img class = center src='/static/experiments/beast_fmri_test/images/redD.png'></img>	stop	1250.0	1.0	18.0	stop	non-target	D	71,Green Button	89,Yellow Button	1400.0	1500.0	1350.0	1250.0	0.0	1500.0	0.0	1.0	stop_stim
