onset	duration	text	rt	key_press	block_duration	timing_post_trial	trial_id	trial_type	trial_index	time_elapsed	internal_node_id	exp_id	subject_id	trigger_times	triggers	stimulus	possible_responses	stim_duration	exp_stage	SS_stimulus	SS_trial_type	SS_duration	load	trial_num	stop_trial_type	adaptive_trial_type	stim	yes_response_key	no_response_key	SSD_target	SSD_non_target	SSTarget	SSNonTarget	go_acc	stop_acc	SS_delay	adaptive_acc	new_trial_type
test	10880	n/a	-1	-1	10880	0.0	practice-no-stop-feedback	poldrack-single-stim	6	34576	0.0-6.0	beast_fmri_test	329	23699,/,24377,/,25056,/,25735,/,26416,/,27094,/,27775,/,28453,/,29134,/,29813,/,30494,/,31173,/,31853,/,32533,/,33212,/,33892,/,34572,/	t,t,t,t,t,t,t,t,t,t,t,t,t,t,t,t,t	"<div class = ""centerbox""><p class = ""block-text"">Your delay is 2 trials.</p><p class = block-text>Please wait for the scanner to start the block</p></div>"	77	10880.0	n/a	n/a	n/a	n/a	n/a	n/a	n/a	n/a	n/a	n/a	n/a	n/a	n/a	n/a	n/a	n/a	n/a	n/a	n/a	start_functional_block
11380	500	n/a	-1	-1	500	0.0	fixation	poldrack-single-stim	7	35079	0.0-7.0-0.0	beast_fmri_test	329	n/a	n/a	<div class = centerbox2><div class = fixation>+</div></div>	none	500.0	test	n/a	n/a	n/a	n/a	n/a	n/a	n/a	n/a	n/a	n/a	n/a	n/a	n/a	n/a	n/a	n/a	n/a	n/a	fixation
8175.4677995414822	2750	n/a	1146	71	2750	3209.53220046	stim	stop-signal	8	37834	0.0-7.0-1.0	beast_fmri_test	329	35251,/,35930,/,36611,/,37290,/,37970,/,38649,/,39330,/,40009,/,40690,/	t,t,t,t,t,t,t,t,t	<img class = center src='/static/experiments/beast_fmri_test/images/D.png'></img>	89,71	2750.0	test	<img class = center src='/static/experiments/beast_fmri_test/images/redD.png'></img>	go	-1.0	2.0	0.0	go	temp-non-target	D	89,Middle Finger	71,Index Finger	500.0	500.0	0.0	0.0	0.0	n/a	n/a	n/a	go_stim
10925.467799541482	3209.5322004585169	n/a	1146	71	2750	3209.53220046	stim	stop-signal	8	37834	0.0-7.0-1.0	beast_fmri_test	329	35251,/,35930,/,36611,/,37290,/,37970,/,38649,/,39330,/,40009,/,40690,/	t,t,t,t,t,t,t,t,t	<img class = center src='/static/experiments/beast_fmri_test/images/D.png'></img>	89,71	2750.0	test	<img class = center src='/static/experiments/beast_fmri_test/images/redD.png'></img>	go	-1.0	2.0	0.0	go	temp-non-target	D	89,Middle Finger	71,Index Finger	500.0	500.0	0.0	0.0	0.0	n/a	n/a	n/a	ITI
17853	500	n/a	-1	-1	500	0.0	fixation	poldrack-single-stim	9	41552	0.0-7.1-0.1	beast_fmri_test	329	41369,/	t	<div class = centerbox2><div class = fixation>+</div></div>	none	500.0	test	n/a	n/a	n/a	n/a	n/a	n/a	n/a	n/a	n/a	n/a	n/a	n/a	n/a	n/a	n/a	n/a	n/a	n/a	fixation
17347.945010553216	temp_go_duration	n/a	700	71	2750	508.054989447	stim	stop-signal	10	44305	0.0-7.1-1.1	beast_fmri_test	329	42049,/,42728,/,43408,/,44088,/,44767,/	t,t,t,t,t	<img class = center src='/static/experiments/beast_fmri_test/images/B.png'></img>	89,71	2750.0	test	<img class = center src='/static/experiments/beast_fmri_test/images/redB.png'></img>	stop	-1.0	2.0	1.0	stop	temp-non-target	B	89,Middle Finger	71,Index Finger	500.0	500.0	0.0	0.0	0.0	0.0	n/a	n/a	go_stim
temp-non-target	temp_stop_duration	n/a	700	71	2750	508.054989447	stim	stop-signal	10	44305	0.0-7.1-1.1	beast_fmri_test	329	42049,/,42728,/,43408,/,44088,/,44767,/	t,t,t,t,t	<img class = center src='/static/experiments/beast_fmri_test/images/B.png'></img>	89,71	2750.0	test	<img class = center src='/static/experiments/beast_fmri_test/images/redB.png'></img>	stop	-1.0	2.0	1.0	stop	temp-non-target	B	89,Middle Finger	71,Index Finger	500.0	500.0	0.0	0.0	0.0	0.0	n/a	n/a	stop_stim
20097.945010553216	508.05498944678658	n/a	700	71	2750	508.054989447	stim	stop-signal	10	44305	0.0-7.1-1.1	beast_fmri_test	329	42049,/,42728,/,43408,/,44088,/,44767,/	t,t,t,t,t	<img class = center src='/static/experiments/beast_fmri_test/images/B.png'></img>	89,71	2750.0	test	<img class = center src='/static/experiments/beast_fmri_test/images/redB.png'></img>	stop	-1.0	2.0	1.0	stop	temp-non-target	B	89,Middle Finger	71,Index Finger	500.0	500.0	0.0	0.0	0.0	0.0	n/a	n/a	ITI
21619	500	n/a	-1	-1	500	0.0	fixation	poldrack-single-stim	11	45318	0.0-7.2-0.2	beast_fmri_test	329	n/a	n/a	<div class = centerbox2><div class = fixation>+</div></div>	none	500.0	test	n/a	n/a	n/a	n/a	n/a	n/a	n/a	n/a	n/a	n/a	n/a	n/a	n/a	n/a	n/a	n/a	n/a	n/a	fixation
21520.849516904258	2750	n/a	810	71	2750	101.150483096	stim	stop-signal	12	48071	0.0-7.2-1.2	beast_fmri_test	329	45447,/,46126,/,46806,/,47485,/,48165,/	t,t,t,t,t	<img class = center src='/static/experiments/beast_fmri_test/images/P.png'></img>	89,71	2750.0	test	<img class = center src='/static/experiments/beast_fmri_test/images/redP.png'></img>	go	2250.0	2.0	2.0	go	non-target	P	89,Middle Finger	71,Index Finger	500.0	500.0	0.0	2250.0	1.0	n/a	500.0	1.0	go_stim
24270.849516904258	101.15048309574051	n/a	810	71	2750	101.150483096	stim	stop-signal	12	48071	0.0-7.2-1.2	beast_fmri_test	329	45447,/,46126,/,46806,/,47485,/,48165,/	t,t,t,t,t	<img class = center src='/static/experiments/beast_fmri_test/images/P.png'></img>	89,71	2750.0	test	<img class = center src='/static/experiments/beast_fmri_test/images/redP.png'></img>	go	2250.0	2.0	2.0	go	non-target	P	89,Middle Finger	71,Index Finger	500.0	500.0	0.0	2250.0	1.0	n/a	500.0	1.0	ITI
24981	500	n/a	-1	-1	500	0.0	fixation	poldrack-single-stim	13	48680	0.0-7.3-0.3	beast_fmri_test	329	n/a	n/a	<div class = centerbox2><div class = fixation>+</div></div>	none	500.0	test	n/a	n/a	n/a	n/a	n/a	n/a	n/a	n/a	n/a	n/a	n/a	n/a	n/a	n/a	n/a	n/a	n/a	n/a	fixation
24527.551659870784	500.0	n/a	836	71	2750	453.448340129	stim	stop-signal	14	51430	0.0-7.3-1.3	beast_fmri_test	329	48844,/,49523,/,50205,/,50884,/,51563,/	t,t,t,t,t	<img class = center src='/static/experiments/beast_fmri_test/images/V.png'></img>	89,71	2750.0	test	<img class = center src='/static/experiments/beast_fmri_test/images/redV.png'></img>	stop	2250.0	2.0	3.0	stop	non-target	V	89,Middle Finger	71,Index Finger	500.0	500.0	0.0	2250.0	0.0	0.0	500.0	n/a	go_stim
26777.551659870784	2250.0	n/a	836	71	2750	453.448340129	stim	stop-signal	14	51430	0.0-7.3-1.3	beast_fmri_test	329	48844,/,49523,/,50205,/,50884,/,51563,/	t,t,t,t,t	<img class = center src='/static/experiments/beast_fmri_test/images/V.png'></img>	89,71	2750.0	test	<img class = center src='/static/experiments/beast_fmri_test/images/redV.png'></img>	stop	2250.0	2.0	3.0	stop	non-target	V	89,Middle Finger	71,Index Finger	500.0	500.0	0.0	2250.0	0.0	0.0	500.0	n/a	stop_stim
27277.551659870784	453.44834012921285	n/a	836	71	2750	453.448340129	stim	stop-signal	14	51430	0.0-7.3-1.3	beast_fmri_test	329	48844,/,49523,/,50205,/,50884,/,51563,/	t,t,t,t,t	<img class = center src='/static/experiments/beast_fmri_test/images/V.png'></img>	89,71	2750.0	test	<img class = center src='/static/experiments/beast_fmri_test/images/redV.png'></img>	stop	2250.0	2.0	3.0	stop	non-target	V	89,Middle Finger	71,Index Finger	500.0	500.0	0.0	2250.0	0.0	0.0	500.0	n/a	ITI
28690	500	n/a	-1	-1	500	0.0	fixation	poldrack-single-stim	15	52389	0.0-7.4-0.4	beast_fmri_test	329	52244,/	t	<div class = centerbox2><div class = fixation>+</div></div>	none	500.0	test	n/a	n/a	n/a	n/a	n/a	n/a	n/a	n/a	n/a	n/a	n/a	n/a	n/a	n/a	n/a	n/a	n/a	n/a	fixation
28666.577280761827	2750	n/a	1026	71	2750	25.4227192382	stim	stop-signal	16	55141	0.0-7.4-1.4	beast_fmri_test	329	52924,/,53603,/,54284,/,54963,/	t,t,t,t	<img class = center src='/static/experiments/beast_fmri_test/images/V.png'></img>	89,71	2750.0	test	<img class = center src='/static/experiments/beast_fmri_test/images/redV.png'></img>	go	2300.0	2.0	4.0	go	non-target	V	89,Middle Finger	71,Index Finger	500.0	450.0	0.0	2300.0	1.0	n/a	450.0	1.0	go_stim
31416.577280761827	25.422719238172068	n/a	1026	71	2750	25.4227192382	stim	stop-signal	16	55141	0.0-7.4-1.4	beast_fmri_test	329	52924,/,53603,/,54284,/,54963,/	t,t,t,t	<img class = center src='/static/experiments/beast_fmri_test/images/V.png'></img>	89,71	2750.0	test	<img class = center src='/static/experiments/beast_fmri_test/images/redV.png'></img>	go	2300.0	2.0	4.0	go	non-target	V	89,Middle Finger	71,Index Finger	500.0	450.0	0.0	2300.0	1.0	n/a	450.0	1.0	ITI
31973	500	n/a	-1	-1	500	0.0	fixation	poldrack-single-stim	17	55672	0.0-7.5-0.5	beast_fmri_test	329	55642,/	t	<div class = centerbox2><div class = fixation>+</div></div>	none	500.0	test	n/a	n/a	n/a	n/a	n/a	n/a	n/a	n/a	n/a	n/a	n/a	n/a	n/a	n/a	n/a	n/a	n/a	n/a	fixation
31383.025697768186	450.0	n/a	677	71	2750	590.974302232	stim	stop-signal	18	58423	0.0-7.5-1.5	beast_fmri_test	329	56320,/,57001,/,57680,/,58361,/	t,t,t,t	<img class = center src='/static/experiments/beast_fmri_test/images/D.png'></img>	89,71	2750.0	test	<img class = center src='/static/experiments/beast_fmri_test/images/redD.png'></img>	stop	2300.0	2.0	5.0	stop	non-target	D	89,Middle Finger	71,Index Finger	500.0	450.0	0.0	2300.0	0.0	0.0	450.0	n/a	go_stim
33683.025697768186	2300.0	n/a	677	71	2750	590.974302232	stim	stop-signal	18	58423	0.0-7.5-1.5	beast_fmri_test	329	56320,/,57001,/,57680,/,58361,/	t,t,t,t	<img class = center src='/static/experiments/beast_fmri_test/images/D.png'></img>	89,71	2750.0	test	<img class = center src='/static/experiments/beast_fmri_test/images/redD.png'></img>	stop	2300.0	2.0	5.0	stop	non-target	D	89,Middle Finger	71,Index Finger	500.0	450.0	0.0	2300.0	0.0	0.0	450.0	n/a	stop_stim
34133.025697768186	590.97430223181345	n/a	677	71	2750	590.974302232	stim	stop-signal	18	58423	0.0-7.5-1.5	beast_fmri_test	329	56320,/,57001,/,57680,/,58361,/	t,t,t,t	<img class = center src='/static/experiments/beast_fmri_test/images/D.png'></img>	89,71	2750.0	test	<img class = center src='/static/experiments/beast_fmri_test/images/redD.png'></img>	stop	2300.0	2.0	5.0	stop	non-target	D	89,Middle Finger	71,Index Finger	500.0	450.0	0.0	2300.0	0.0	0.0	450.0	n/a	ITI
35822	500	n/a	-1	-1	500	0.0	fixation	poldrack-single-stim	19	59521	0.0-7.6-0.6	beast_fmri_test	329	59040,/	t	<div class = centerbox2><div class = fixation>+</div></div>	none	500.0	test	n/a	n/a	n/a	n/a	n/a	n/a	n/a	n/a	n/a	n/a	n/a	n/a	n/a	n/a	n/a	n/a	n/a	n/a	fixation
35706.53401640548	2750	n/a	744	89	2750	116.465983595	stim	stop-signal	20	62272	0.0-7.6-1.6	beast_fmri_test	329	59719,/,60400,/,61079,/,61759,/	t,t,t,t	<img class = center src='/static/experiments/beast_fmri_test/images/V.png'></img>	89,71	2750.0	test	<img class = center src='/static/experiments/beast_fmri_test/images/redV.png'></img>	go	2250.0	2.0	6.0	go	target	V	89,Middle Finger	71,Index Finger	500.0	400.0	2250.0	2300.0	1.0	n/a	500.0	1.0	go_stim
38456.53401640548	116.46598359452101	n/a	744	89	2750	116.465983595	stim	stop-signal	20	62272	0.0-7.6-1.6	beast_fmri_test	329	59719,/,60400,/,61079,/,61759,/	t,t,t,t	<img class = center src='/static/experiments/beast_fmri_test/images/V.png'></img>	89,71	2750.0	test	<img class = center src='/static/experiments/beast_fmri_test/images/redV.png'></img>	go	2250.0	2.0	6.0	go	target	V	89,Middle Finger	71,Index Finger	500.0	400.0	2250.0	2300.0	1.0	n/a	500.0	1.0	ITI
39196	500	n/a	-1	-1	500	0.0	fixation	poldrack-single-stim	21	62895	0.0-7.7-0.7	beast_fmri_test	329	62439,/	t	<div class = centerbox2><div class = fixation>+</div></div>	none	500.0	test	n/a	n/a	n/a	n/a	n/a	n/a	n/a	n/a	n/a	n/a	n/a	n/a	n/a	n/a	n/a	n/a	n/a	n/a	fixation
38792.583214258717	2750	n/a	879	89	2750	405.416785741	stim	stop-signal	22	65647	0.0-7.7-1.7	beast_fmri_test	329	63119,/,63797,/,64478,/,65156,/,65838,/	t,t,t,t,t	<img class = center src='/static/experiments/beast_fmri_test/images/D.png'></img>	89,71	2750.0	test	<img class = center src='/static/experiments/beast_fmri_test/images/redD.png'></img>	go	2250.0	2.0	7.0	go	target	D	89,Middle Finger	71,Index Finger	500.0	400.0	2250.0	2300.0	1.0	n/a	500.0	1.0	go_stim
41542.583214258717	405.41678574127968	n/a	879	89	2750	405.416785741	stim	stop-signal	22	65647	0.0-7.7-1.7	beast_fmri_test	329	63119,/,63797,/,64478,/,65156,/,65838,/	t,t,t,t,t	<img class = center src='/static/experiments/beast_fmri_test/images/D.png'></img>	89,71	2750.0	test	<img class = center src='/static/experiments/beast_fmri_test/images/redD.png'></img>	go	2250.0	2.0	7.0	go	target	D	89,Middle Finger	71,Index Finger	500.0	400.0	2250.0	2300.0	1.0	n/a	500.0	1.0	ITI
42861	500	n/a	-1	-1	500	0.0	fixation	poldrack-single-stim	23	66560	0.0-7.8-0.8	beast_fmri_test	329	66517,/	t	<div class = centerbox2><div class = fixation>+</div></div>	none	500.0	test	n/a	n/a	n/a	n/a	n/a	n/a	n/a	n/a	n/a	n/a	n/a	n/a	n/a	n/a	n/a	n/a	n/a	n/a	fixation
42583.846748351119	400.0	n/a	698	71	2750	278.153251649	stim	stop-signal	24	69311	0.0-7.8-1.8	beast_fmri_test	329	67197,/,67875,/,68557,/,69235,/	t,t,t,t	<img class = center src='/static/experiments/beast_fmri_test/images/T.png'></img>	89,71	2750.0	test	<img class = center src='/static/experiments/beast_fmri_test/images/redT.png'></img>	stop	2350.0	2.0	8.0	stop	non-target	T	89,Middle Finger	71,Index Finger	500.0	400.0	2250.0	2350.0	0.0	0.0	400.0	n/a	go_stim
44933.846748351119	2350.0	n/a	698	71	2750	278.153251649	stim	stop-signal	24	69311	0.0-7.8-1.8	beast_fmri_test	329	67197,/,67875,/,68557,/,69235,/	t,t,t,t	<img class = center src='/static/experiments/beast_fmri_test/images/T.png'></img>	89,71	2750.0	test	<img class = center src='/static/experiments/beast_fmri_test/images/redT.png'></img>	stop	2350.0	2.0	8.0	stop	non-target	T	89,Middle Finger	71,Index Finger	500.0	400.0	2250.0	2350.0	0.0	0.0	400.0	n/a	stop_stim
45333.846748351119	278.15325164887412	n/a	698	71	2750	278.153251649	stim	stop-signal	24	69311	0.0-7.8-1.8	beast_fmri_test	329	67197,/,67875,/,68557,/,69235,/	t,t,t,t	<img class = center src='/static/experiments/beast_fmri_test/images/T.png'></img>	89,71	2750.0	test	<img class = center src='/static/experiments/beast_fmri_test/images/redT.png'></img>	stop	2350.0	2.0	8.0	stop	non-target	T	89,Middle Finger	71,Index Finger	500.0	400.0	2250.0	2350.0	0.0	0.0	400.0	n/a	ITI
46396	500	n/a	-1	-1	500	0.0	fixation	poldrack-single-stim	25	70095	0.0-7.9-0.9	beast_fmri_test	329	69916,/	t	<div class = centerbox2><div class = fixation>+</div></div>	none	500.0	test	n/a	n/a	n/a	n/a	n/a	n/a	n/a	n/a	n/a	n/a	n/a	n/a	n/a	n/a	n/a	n/a	n/a	n/a	fixation
45485.239508453858	350.0	n/a	-1	-1	2750	912.760491546	stim	stop-signal	26	72847	0.0-7.9-1.9	beast_fmri_test	329	70595,/,71275,/,71954,/,72635,/,73314,/	t,t,t,t,t	<img class = center src='/static/experiments/beast_fmri_test/images/P.png'></img>	89,71	2750.0	test	<img class = center src='/static/experiments/beast_fmri_test/images/redP.png'></img>	stop	2400.0	2.0	9.0	stop	non-target	P	89,Middle Finger	71,Index Finger	500.0	350.0	2250.0	2400.0	0.0	1.0	350.0	n/a	go_stim
47885.239508453858	2400.0	n/a	-1	-1	2750	912.760491546	stim	stop-signal	26	72847	0.0-7.9-1.9	beast_fmri_test	329	70595,/,71275,/,71954,/,72635,/,73314,/	t,t,t,t,t	<img class = center src='/static/experiments/beast_fmri_test/images/P.png'></img>	89,71	2750.0	test	<img class = center src='/static/experiments/beast_fmri_test/images/redP.png'></img>	stop	2400.0	2.0	9.0	stop	non-target	P	89,Middle Finger	71,Index Finger	500.0	350.0	2250.0	2400.0	0.0	1.0	350.0	n/a	stop_stim
48235.239508453858	912.7604915461352	n/a	-1	-1	2750	912.760491546	stim	stop-signal	26	72847	0.0-7.9-1.9	beast_fmri_test	329	70595,/,71275,/,71954,/,72635,/,73314,/	t,t,t,t,t	<img class = center src='/static/experiments/beast_fmri_test/images/P.png'></img>	89,71	2750.0	test	<img class = center src='/static/experiments/beast_fmri_test/images/redP.png'></img>	stop	2400.0	2.0	9.0	stop	non-target	P	89,Middle Finger	71,Index Finger	500.0	350.0	2250.0	2400.0	0.0	1.0	350.0	n/a	ITI
50567	500	n/a	-1	-1	500	0.0	fixation	poldrack-single-stim	27	74266	0.0-7.10-0.10	beast_fmri_test	329	73994,/	t	<div class = centerbox2><div class = fixation>+</div></div>	none	500.0	test	n/a	n/a	n/a	n/a	n/a	n/a	n/a	n/a	n/a	n/a	n/a	n/a	n/a	n/a	n/a	n/a	n/a	n/a	fixation
50501.784327428206	400.0	n/a	-1	-1	2750	67.2156725718	stim	stop-signal	28	77018	0.0-7.10-1.10	beast_fmri_test	329	74673,/,75353,/,76033,/,76713,/	t,t,t,t	<img class = center src='/static/experiments/beast_fmri_test/images/V.png'></img>	89,71	2750.0	test	<img class = center src='/static/experiments/beast_fmri_test/images/redV.png'></img>	stop	2350.0	2.0	10.0	stop	non-target	V	89,Middle Finger	71,Index Finger	500.0	400.0	2250.0	2350.0	0.0	1.0	400.0	n/a	go_stim
52851.784327428206	2350.0	n/a	-1	-1	2750	67.2156725718	stim	stop-signal	28	77018	0.0-7.10-1.10	beast_fmri_test	329	74673,/,75353,/,76033,/,76713,/	t,t,t,t	<img class = center src='/static/experiments/beast_fmri_test/images/V.png'></img>	89,71	2750.0	test	<img class = center src='/static/experiments/beast_fmri_test/images/redV.png'></img>	stop	2350.0	2.0	10.0	stop	non-target	V	89,Middle Finger	71,Index Finger	500.0	400.0	2250.0	2350.0	0.0	1.0	400.0	n/a	stop_stim
53251.784327428206	67.215672571792652	n/a	-1	-1	2750	67.2156725718	stim	stop-signal	28	77018	0.0-7.10-1.10	beast_fmri_test	329	74673,/,75353,/,76033,/,76713,/	t,t,t,t	<img class = center src='/static/experiments/beast_fmri_test/images/V.png'></img>	89,71	2750.0	test	<img class = center src='/static/experiments/beast_fmri_test/images/redV.png'></img>	stop	2350.0	2.0	10.0	stop	non-target	V	89,Middle Finger	71,Index Finger	500.0	400.0	2250.0	2350.0	0.0	1.0	400.0	n/a	ITI
53896	500	n/a	-1	-1	500	0.0	fixation	poldrack-single-stim	29	77595	0.0-7.11-0.11	beast_fmri_test	329	77392,/	t	<div class = centerbox2><div class = fixation>+</div></div>	none	500.0	test	n/a	n/a	n/a	n/a	n/a	n/a	n/a	n/a	n/a	n/a	n/a	n/a	n/a	n/a	n/a	n/a	n/a	n/a	fixation
53830.1955314644	2750	n/a	852	89	2750	66.8044685356	stim	stop-signal	30	80346	0.0-7.11-1.11	beast_fmri_test	329	78072,/,78752,/,79430,/,80111,/	t,t,t,t	<img class = center src='/static/experiments/beast_fmri_test/images/P.png'></img>	89,71	2750.0	test	<img class = center src='/static/experiments/beast_fmri_test/images/redP.png'></img>	go	2250.0	2.0	11.0	go	target	P	89,Middle Finger	71,Index Finger	500.0	450.0	2250.0	2350.0	1.0	n/a	500.0	1.0	go_stim
56580.1955314644	66.804468535600435	n/a	852	89	2750	66.8044685356	stim	stop-signal	30	80346	0.0-7.11-1.11	beast_fmri_test	329	78072,/,78752,/,79430,/,80111,/	t,t,t,t	<img class = center src='/static/experiments/beast_fmri_test/images/P.png'></img>	89,71	2750.0	test	<img class = center src='/static/experiments/beast_fmri_test/images/redP.png'></img>	go	2250.0	2.0	11.0	go	target	P	89,Middle Finger	71,Index Finger	500.0	450.0	2250.0	2350.0	1.0	n/a	500.0	1.0	ITI
57221	500	n/a	-1	-1	500	0.0	fixation	poldrack-single-stim	31	80920	0.0-7.12-0.12	beast_fmri_test	329	80789,/	t	<div class = centerbox2><div class = fixation>+</div></div>	none	500.0	test	n/a	n/a	n/a	n/a	n/a	n/a	n/a	n/a	n/a	n/a	n/a	n/a	n/a	n/a	n/a	n/a	n/a	n/a	fixation
57133.851064787566	2750	n/a	1595	71	2750	90.1489352124	stim	stop-signal	32	83673	0.0-7.12-1.12	beast_fmri_test	329	81470,/,82149,/,82829,/,83509,/	t,t,t,t	<img class = center src='/static/experiments/beast_fmri_test/images/P.png'></img>	89,71	2750.0	test	<img class = center src='/static/experiments/beast_fmri_test/images/redP.png'></img>	go	2300.0	2.0	12.0	go	non-target	P	89,Middle Finger	71,Index Finger	500.0	450.0	2250.0	2300.0	1.0	n/a	450.0	1.0	go_stim
59883.851064787566	90.148935212431169	n/a	1595	71	2750	90.1489352124	stim	stop-signal	32	83673	0.0-7.12-1.12	beast_fmri_test	329	81470,/,82149,/,82829,/,83509,/	t,t,t,t	<img class = center src='/static/experiments/beast_fmri_test/images/P.png'></img>	89,71	2750.0	test	<img class = center src='/static/experiments/beast_fmri_test/images/redP.png'></img>	go	2300.0	2.0	12.0	go	non-target	P	89,Middle Finger	71,Index Finger	500.0	450.0	2250.0	2300.0	1.0	n/a	450.0	1.0	ITI
60574	500	n/a	-1	-1	500	0.0	fixation	poldrack-single-stim	33	84273	0.0-7.13-0.13	beast_fmri_test	329	84189,/	t	<div class = centerbox2><div class = fixation>+</div></div>	none	500.0	test	n/a	n/a	n/a	n/a	n/a	n/a	n/a	n/a	n/a	n/a	n/a	n/a	n/a	n/a	n/a	n/a	n/a	n/a	fixation
60155.497554668123	2750	n/a	994	71	2750	419.502445332	stim	stop-signal	34	87024	0.0-7.13-1.13	beast_fmri_test	329	84868,/,85548,/,86228,/,86907,/	t,t,t,t	<img class = center src='/static/experiments/beast_fmri_test/images/V.png'></img>	89,71	2750.0	test	<img class = center src='/static/experiments/beast_fmri_test/images/redV.png'></img>	go	2300.0	2.0	13.0	go	non-target	V	89,Middle Finger	71,Index Finger	500.0	450.0	2250.0	2300.0	1.0	n/a	450.0	1.0	go_stim
62905.497554668123	419.50244533187117	n/a	994	71	2750	419.502445332	stim	stop-signal	34	87024	0.0-7.13-1.13	beast_fmri_test	329	84868,/,85548,/,86228,/,86907,/	t,t,t,t	<img class = center src='/static/experiments/beast_fmri_test/images/V.png'></img>	89,71	2750.0	test	<img class = center src='/static/experiments/beast_fmri_test/images/redV.png'></img>	go	2300.0	2.0	13.0	go	non-target	V	89,Middle Finger	71,Index Finger	500.0	450.0	2250.0	2300.0	1.0	n/a	450.0	1.0	ITI
64253	500	n/a	-1	-1	500	0.0	fixation	poldrack-single-stim	35	87952	0.0-7.14-0.14	beast_fmri_test	329	87587,/	t	<div class = centerbox2><div class = fixation>+</div></div>	none	500.0	test	n/a	n/a	n/a	n/a	n/a	n/a	n/a	n/a	n/a	n/a	n/a	n/a	n/a	n/a	n/a	n/a	n/a	n/a	fixation
63834.766139450352	2750	n/a	753	71	2750	420.23386055	stim	stop-signal	36	90704	0.0-7.14-1.14	beast_fmri_test	329	88267,/,88946,/,89625,/,90305,/,90984,/	t,t,t,t,t	<img class = center src='/static/experiments/beast_fmri_test/images/T.png'></img>	89,71	2750.0	test	<img class = center src='/static/experiments/beast_fmri_test/images/redT.png'></img>	go	2300.0	2.0	14.0	go	non-target	T	89,Middle Finger	71,Index Finger	500.0	450.0	2250.0	2300.0	1.0	n/a	450.0	1.0	go_stim
66584.766139450352	420.23386054964686	n/a	753	71	2750	420.23386055	stim	stop-signal	36	90704	0.0-7.14-1.14	beast_fmri_test	329	88267,/,88946,/,89625,/,90305,/,90984,/	t,t,t,t,t	<img class = center src='/static/experiments/beast_fmri_test/images/T.png'></img>	89,71	2750.0	test	<img class = center src='/static/experiments/beast_fmri_test/images/redT.png'></img>	go	2300.0	2.0	14.0	go	non-target	T	89,Middle Finger	71,Index Finger	500.0	450.0	2250.0	2300.0	1.0	n/a	450.0	1.0	ITI
67933	500	n/a	-1	-1	500	0.0	fixation	poldrack-single-stim	37	91632	0.0-7.15-0.15	beast_fmri_test	329	n/a	n/a	<div class = centerbox2><div class = fixation>+</div></div>	none	500.0	test	n/a	n/a	n/a	n/a	n/a	n/a	n/a	n/a	n/a	n/a	n/a	n/a	n/a	n/a	n/a	n/a	n/a	n/a	fixation
67764.687374604706	2750	n/a	2088	71	2750	170.312625395	stim	stop-signal	38	94384	0.0-7.15-1.15	beast_fmri_test	329	91675,/,92344,/,93024,/,93704,/,94384,/	t,t,t,t,t	<img class = center src='/static/experiments/beast_fmri_test/images/P.png'></img>	89,71	2750.0	test	<img class = center src='/static/experiments/beast_fmri_test/images/redP.png'></img>	go	2300.0	2.0	15.0	go	non-target	P	89,Middle Finger	71,Index Finger	500.0	450.0	2250.0	2300.0	1.0	n/a	450.0	1.0	go_stim
70514.687374604706	170.31262539529041	n/a	2088	71	2750	170.312625395	stim	stop-signal	38	94384	0.0-7.15-1.15	beast_fmri_test	329	91675,/,92344,/,93024,/,93704,/,94384,/	t,t,t,t,t	<img class = center src='/static/experiments/beast_fmri_test/images/P.png'></img>	89,71	2750.0	test	<img class = center src='/static/experiments/beast_fmri_test/images/redP.png'></img>	go	2300.0	2.0	15.0	go	non-target	P	89,Middle Finger	71,Index Finger	500.0	450.0	2250.0	2300.0	1.0	n/a	450.0	1.0	ITI
71365	500	n/a	-1	-1	500	0.0	fixation	poldrack-single-stim	39	95064	0.0-7.16-0.16	beast_fmri_test	329	95063,/	t	<div class = centerbox2><div class = fixation>+</div></div>	none	500.0	test	n/a	n/a	n/a	n/a	n/a	n/a	n/a	n/a	n/a	n/a	n/a	n/a	n/a	n/a	n/a	n/a	n/a	n/a	fixation
70636.298663794892	2750	n/a	884	71	2750	730.701336205	stim	stop-signal	40	97816	0.0-7.16-1.16	beast_fmri_test	329	95743,/,96424,/,97103,/,97782,/,98463,/	t,t,t,t,t	<img class = center src='/static/experiments/beast_fmri_test/images/V.png'></img>	89,71	2750.0	test	<img class = center src='/static/experiments/beast_fmri_test/images/redV.png'></img>	go	2300.0	2.0	16.0	go	non-target	V	89,Middle Finger	71,Index Finger	500.0	450.0	2250.0	2300.0	1.0	n/a	450.0	1.0	go_stim
73386.298663794892	730.70133620511137	n/a	884	71	2750	730.701336205	stim	stop-signal	40	97816	0.0-7.16-1.16	beast_fmri_test	329	95743,/,96424,/,97103,/,97782,/,98463,/	t,t,t,t,t	<img class = center src='/static/experiments/beast_fmri_test/images/V.png'></img>	89,71	2750.0	test	<img class = center src='/static/experiments/beast_fmri_test/images/redV.png'></img>	go	2300.0	2.0	16.0	go	non-target	V	89,Middle Finger	71,Index Finger	500.0	450.0	2250.0	2300.0	1.0	n/a	450.0	1.0	ITI
75355	500	n/a	-1	-1	500	0.0	fixation	poldrack-single-stim	41	99054	0.0-7.17-0.17	beast_fmri_test	329	n/a	n/a	<div class = centerbox2><div class = fixation>+</div></div>	none	500.0	test	n/a	n/a	n/a	n/a	n/a	n/a	n/a	n/a	n/a	n/a	n/a	n/a	n/a	n/a	n/a	n/a	n/a	n/a	fixation
75206.070195606138	2750	n/a	854	71	2750	150.929804394	stim	stop-signal	42	101806	0.0-7.17-1.17	beast_fmri_test	329	99142,/,99821,/,100502,/,101180,/,101860,/	t,t,t,t,t	<img class = center src='/static/experiments/beast_fmri_test/images/P.png'></img>	89,71	2750.0	test	<img class = center src='/static/experiments/beast_fmri_test/images/redP.png'></img>	go	2250.0	2.0	17.0	go	target	P	89,Middle Finger	71,Index Finger	500.0	450.0	2250.0	2300.0	0.0	n/a	500.0	0.0	go_stim
77956.070195606138	150.9298043938627	n/a	854	71	2750	150.929804394	stim	stop-signal	42	101806	0.0-7.17-1.17	beast_fmri_test	329	99142,/,99821,/,100502,/,101180,/,101860,/	t,t,t,t,t	<img class = center src='/static/experiments/beast_fmri_test/images/P.png'></img>	89,71	2750.0	test	<img class = center src='/static/experiments/beast_fmri_test/images/redP.png'></img>	go	2250.0	2.0	17.0	go	target	P	89,Middle Finger	71,Index Finger	500.0	450.0	2250.0	2300.0	0.0	n/a	500.0	0.0	ITI
78768	500	n/a	-1	-1	500	0.0	fixation	poldrack-single-stim	43	102467	0.0-7.18-0.18	beast_fmri_test	329	n/a	n/a	<div class = centerbox2><div class = fixation>+</div></div>	none	500.0	test	n/a	n/a	n/a	n/a	n/a	n/a	n/a	n/a	n/a	n/a	n/a	n/a	n/a	n/a	n/a	n/a	n/a	n/a	fixation
74733.105073415238	500.0	n/a	753	71	2750	4035.89492658	stim	stop-signal	44	105218	0.0-7.18-1.18	beast_fmri_test	329	102541,/,103219,/,103900,/,104578,/,105258,/,105938,/,106619,/,107298,/,107977,/,108658,/	t,t,t,t,t,t,t,t,t,t	<img class = center src='/static/experiments/beast_fmri_test/images/V.png'></img>	89,71	2750.0	test	<img class = center src='/static/experiments/beast_fmri_test/images/redV.png'></img>	stop	2250.0	2.0	18.0	stop	target	V	89,Middle Finger	71,Index Finger	500.0	450.0	2250.0	2300.0	0.0	0.0	500.0	n/a	go_stim
76983.105073415238	2250.0	n/a	753	71	2750	4035.89492658	stim	stop-signal	44	105218	0.0-7.18-1.18	beast_fmri_test	329	102541,/,103219,/,103900,/,104578,/,105258,/,105938,/,106619,/,107298,/,107977,/,108658,/	t,t,t,t,t,t,t,t,t,t	<img class = center src='/static/experiments/beast_fmri_test/images/V.png'></img>	89,71	2750.0	test	<img class = center src='/static/experiments/beast_fmri_test/images/redV.png'></img>	stop	2250.0	2.0	18.0	stop	target	V	89,Middle Finger	71,Index Finger	500.0	450.0	2250.0	2300.0	0.0	0.0	500.0	n/a	stop_stim
77483.105073415238	4035.89492658476	n/a	753	71	2750	4035.89492658	stim	stop-signal	44	105218	0.0-7.18-1.18	beast_fmri_test	329	102541,/,103219,/,103900,/,104578,/,105258,/,105938,/,106619,/,107298,/,107977,/,108658,/	t,t,t,t,t,t,t,t,t,t	<img class = center src='/static/experiments/beast_fmri_test/images/V.png'></img>	89,71	2750.0	test	<img class = center src='/static/experiments/beast_fmri_test/images/redV.png'></img>	stop	2250.0	2.0	18.0	stop	target	V	89,Middle Finger	71,Index Finger	500.0	450.0	2250.0	2300.0	0.0	0.0	500.0	n/a	ITI
86060	500	n/a	-1	-1	500	0.0	fixation	poldrack-single-stim	45	109759	0.0-7.19-0.19	beast_fmri_test	329	109336,/	t	<div class = centerbox2><div class = fixation>+</div></div>	none	500.0	test	n/a	n/a	n/a	n/a	n/a	n/a	n/a	n/a	n/a	n/a	n/a	n/a	n/a	n/a	n/a	n/a	n/a	n/a	fixation
84119.994435340501	450.0	n/a	-1	-1	2750	1942.00556466	stim	stop-signal	46	112511	0.0-7.19-1.19	beast_fmri_test	329	110017,/,110696,/,111376,/,112055,/,112736,/,113414,/,114094,/	t,t,t,t,t,t,t	<img class = center src='/static/experiments/beast_fmri_test/images/V.png'></img>	89,71	2750.0	test	<img class = center src='/static/experiments/beast_fmri_test/images/redV.png'></img>	stop	2300.0	2.0	19.0	stop	non-target	V	89,Middle Finger	71,Index Finger	450.0	450.0	2250.0	2300.0	0.0	1.0	450.0	n/a	go_stim
86419.994435340501	2300.0	n/a	-1	-1	2750	1942.00556466	stim	stop-signal	46	112511	0.0-7.19-1.19	beast_fmri_test	329	110017,/,110696,/,111376,/,112055,/,112736,/,113414,/,114094,/	t,t,t,t,t,t,t	<img class = center src='/static/experiments/beast_fmri_test/images/V.png'></img>	89,71	2750.0	test	<img class = center src='/static/experiments/beast_fmri_test/images/redV.png'></img>	stop	2300.0	2.0	19.0	stop	non-target	V	89,Middle Finger	71,Index Finger	450.0	450.0	2250.0	2300.0	0.0	1.0	450.0	n/a	stop_stim
86869.994435340501	1942.0055646594967	n/a	-1	-1	2750	1942.00556466	stim	stop-signal	46	112511	0.0-7.19-1.19	beast_fmri_test	329	110017,/,110696,/,111376,/,112055,/,112736,/,113414,/,114094,/	t,t,t,t,t,t,t	<img class = center src='/static/experiments/beast_fmri_test/images/V.png'></img>	89,71	2750.0	test	<img class = center src='/static/experiments/beast_fmri_test/images/redV.png'></img>	stop	2300.0	2.0	19.0	stop	non-target	V	89,Middle Finger	71,Index Finger	450.0	450.0	2250.0	2300.0	0.0	1.0	450.0	n/a	ITI
91265	500	n/a	-1	-1	500	0.0	fixation	poldrack-single-stim	47	114964	0.0-7.20-0.20	beast_fmri_test	329	114774,/	t	<div class = centerbox2><div class = fixation>+</div></div>	none	500.0	test	n/a	n/a	n/a	n/a	n/a	n/a	n/a	n/a	n/a	n/a	n/a	n/a	n/a	n/a	n/a	n/a	n/a	n/a	fixation
90240.618641398367	2750	n/a	781	71	2750	1025.3813586	stim	stop-signal	48	117715	0.0-7.20-1.20	beast_fmri_test	329	115455,/,116133,/,116813,/,117492,/,118173,/	t,t,t,t,t	<img class = center src='/static/experiments/beast_fmri_test/images/P.png'></img>	89,71	2750.0	test	<img class = center src='/static/experiments/beast_fmri_test/images/redP.png'></img>	go	2250.0	2.0	20.0	go	non-target	P	89,Middle Finger	71,Index Finger	450.0	500.0	2250.0	2250.0	1.0	n/a	500.0	1.0	go_stim
92990.618641398367	1025.3813586016395	n/a	781	71	2750	1025.3813586	stim	stop-signal	48	117715	0.0-7.20-1.20	beast_fmri_test	329	115455,/,116133,/,116813,/,117492,/,118173,/	t,t,t,t,t	<img class = center src='/static/experiments/beast_fmri_test/images/P.png'></img>	89,71	2750.0	test	<img class = center src='/static/experiments/beast_fmri_test/images/redP.png'></img>	go	2250.0	2.0	20.0	go	non-target	P	89,Middle Finger	71,Index Finger	450.0	500.0	2250.0	2250.0	1.0	n/a	500.0	1.0	ITI
95552	500	n/a	-1	-1	500	0.0	fixation	poldrack-single-stim	49	119251	0.0-7.21-0.21	beast_fmri_test	329	118852,/	t	<div class = centerbox2><div class = fixation>+</div></div>	none	500.0	test	n/a	n/a	n/a	n/a	n/a	n/a	n/a	n/a	n/a	n/a	n/a	n/a	n/a	n/a	n/a	n/a	n/a	n/a	fixation
94841.024236833124	2750	n/a	1614	71	2750	711.975763167	stim	stop-signal	50	122002	0.0-7.21-1.21	beast_fmri_test	329	119532,/,120212,/,120892,/,121571,/,122250,/	t,t,t,t,t	<img class = center src='/static/experiments/beast_fmri_test/images/P.png'></img>	89,71	2750.0	test	<img class = center src='/static/experiments/beast_fmri_test/images/redP.png'></img>	go	2250.0	2.0	21.0	go	non-target	P	89,Middle Finger	71,Index Finger	450.0	500.0	2250.0	2250.0	1.0	n/a	500.0	1.0	go_stim
97591.024236833124	711.97576316687639	n/a	1614	71	2750	711.975763167	stim	stop-signal	50	122002	0.0-7.21-1.21	beast_fmri_test	329	119532,/,120212,/,120892,/,121571,/,122250,/	t,t,t,t,t	<img class = center src='/static/experiments/beast_fmri_test/images/P.png'></img>	89,71	2750.0	test	<img class = center src='/static/experiments/beast_fmri_test/images/redP.png'></img>	go	2250.0	2.0	21.0	go	non-target	P	89,Middle Finger	71,Index Finger	450.0	500.0	2250.0	2250.0	1.0	n/a	500.0	1.0	ITI
99524	500	n/a	-1	-1	500	0.0	fixation	poldrack-single-stim	51	123223	0.0-7.22-0.22	beast_fmri_test	329	122932,/	t	<div class = centerbox2><div class = fixation>+</div></div>	none	500.0	test	n/a	n/a	n/a	n/a	n/a	n/a	n/a	n/a	n/a	n/a	n/a	n/a	n/a	n/a	n/a	n/a	n/a	n/a	fixation
98754.226561761039	2750	n/a	928	71	2750	771.773438239	stim	stop-signal	52	125975	0.0-7.22-1.22	beast_fmri_test	329	123611,/,124290,/,124969,/,125650,/,126328,/	t,t,t,t,t	<img class = center src='/static/experiments/beast_fmri_test/images/V.png'></img>	89,71	2750.0	test	<img class = center src='/static/experiments/beast_fmri_test/images/redV.png'></img>	go	2250.0	2.0	22.0	go	non-target	V	89,Middle Finger	71,Index Finger	450.0	500.0	2250.0	2250.0	1.0	n/a	500.0	1.0	go_stim
101504.22656176104	771.77343823896626	n/a	928	71	2750	771.773438239	stim	stop-signal	52	125975	0.0-7.22-1.22	beast_fmri_test	329	123611,/,124290,/,124969,/,125650,/,126328,/	t,t,t,t,t	<img class = center src='/static/experiments/beast_fmri_test/images/V.png'></img>	89,71	2750.0	test	<img class = center src='/static/experiments/beast_fmri_test/images/redV.png'></img>	go	2250.0	2.0	22.0	go	non-target	V	89,Middle Finger	71,Index Finger	450.0	500.0	2250.0	2250.0	1.0	n/a	500.0	1.0	ITI
103558	500	n/a	-1	-1	500	0.0	fixation	poldrack-single-stim	53	127257	0.0-7.23-0.23	beast_fmri_test	329	127009,/	t	<div class = centerbox2><div class = fixation>+</div></div>	none	500.0	test	n/a	n/a	n/a	n/a	n/a	n/a	n/a	n/a	n/a	n/a	n/a	n/a	n/a	n/a	n/a	n/a	n/a	n/a	fixation
102860.06233162152	450.0	n/a	-1	-1	2750	698.937668378	stim	stop-signal	54	130008	0.0-7.23-1.23	beast_fmri_test	329	127688,/,128369,/,129047,/,129729,/,130407,/	t,t,t,t,t	<img class = center src='/static/experiments/beast_fmri_test/images/P.png'></img>	89,71	2750.0	test	<img class = center src='/static/experiments/beast_fmri_test/images/redP.png'></img>	stop	2300.0	2.0	23.0	stop	target	P	89,Middle Finger	71,Index Finger	450.0	500.0	2300.0	2250.0	0.0	1.0	450.0	n/a	go_stim
105160.06233162152	2300.0	n/a	-1	-1	2750	698.937668378	stim	stop-signal	54	130008	0.0-7.23-1.23	beast_fmri_test	329	127688,/,128369,/,129047,/,129729,/,130407,/	t,t,t,t,t	<img class = center src='/static/experiments/beast_fmri_test/images/P.png'></img>	89,71	2750.0	test	<img class = center src='/static/experiments/beast_fmri_test/images/redP.png'></img>	stop	2300.0	2.0	23.0	stop	target	P	89,Middle Finger	71,Index Finger	450.0	500.0	2300.0	2250.0	0.0	1.0	450.0	n/a	stop_stim
105610.06233162152	698.93766837847545	n/a	-1	-1	2750	698.937668378	stim	stop-signal	54	130008	0.0-7.23-1.23	beast_fmri_test	329	127688,/,128369,/,129047,/,129729,/,130407,/	t,t,t,t,t	<img class = center src='/static/experiments/beast_fmri_test/images/P.png'></img>	89,71	2750.0	test	<img class = center src='/static/experiments/beast_fmri_test/images/redP.png'></img>	stop	2300.0	2.0	23.0	stop	target	P	89,Middle Finger	71,Index Finger	450.0	500.0	2300.0	2250.0	0.0	1.0	450.0	n/a	ITI
107519	500	n/a	-1	-1	500	0.0	fixation	poldrack-single-stim	55	131218	0.0-7.24-0.24	beast_fmri_test	329	131087,/	t	<div class = centerbox2><div class = fixation>+</div></div>	none	500.0	test	n/a	n/a	n/a	n/a	n/a	n/a	n/a	n/a	n/a	n/a	n/a	n/a	n/a	n/a	n/a	n/a	n/a	n/a	fixation
107364.50037647062	2750	n/a	936	89	2750	156.499623529	stim	stop-signal	56	133970	0.0-7.24-1.24	beast_fmri_test	329	131767,/,132447,/,133127,/,133806,/	t,t,t,t	<img class = center src='/static/experiments/beast_fmri_test/images/V.png'></img>	89,71	2750.0	test	<img class = center src='/static/experiments/beast_fmri_test/images/redV.png'></img>	go	2250.0	2.0	24.0	go	target	V	89,Middle Finger	71,Index Finger	500.0	500.0	2250.0	2250.0	1.0	n/a	500.0	1.0	go_stim
110114.50037647062	156.4996235293946	n/a	936	89	2750	156.499623529	stim	stop-signal	56	133970	0.0-7.24-1.24	beast_fmri_test	329	131767,/,132447,/,133127,/,133806,/	t,t,t,t	<img class = center src='/static/experiments/beast_fmri_test/images/V.png'></img>	89,71	2750.0	test	<img class = center src='/static/experiments/beast_fmri_test/images/redV.png'></img>	go	2250.0	2.0	24.0	go	target	V	89,Middle Finger	71,Index Finger	500.0	500.0	2250.0	2250.0	1.0	n/a	500.0	1.0	ITI
110938	500	n/a	-1	-1	500	0.0	fixation	poldrack-single-stim	57	134637	0.0-7.25-0.25	beast_fmri_test	329	134486,/	t	<div class = centerbox2><div class = fixation>+</div></div>	none	500.0	test	n/a	n/a	n/a	n/a	n/a	n/a	n/a	n/a	n/a	n/a	n/a	n/a	n/a	n/a	n/a	n/a	n/a	n/a	fixation
109082.05163966515	500.0	n/a	1779	71	2750	1856.94836033	stim	stop-signal	58	137388	0.0-7.25-1.25	beast_fmri_test	329	135164,/,135845,/,136524,/,137204,/,137883,/,138564,/,139242,/	t,t,t,t,t,t,t	<img class = center src='/static/experiments/beast_fmri_test/images/V.png'></img>	89,71	2750.0	test	<img class = center src='/static/experiments/beast_fmri_test/images/redV.png'></img>	stop	2250.0	2.0	25.0	stop	non-target	V	89,Middle Finger	71,Index Finger	500.0	500.0	2250.0	2250.0	0.0	0.0	500.0	n/a	go_stim
111332.05163966515	2250.0	n/a	1779	71	2750	1856.94836033	stim	stop-signal	58	137388	0.0-7.25-1.25	beast_fmri_test	329	135164,/,135845,/,136524,/,137204,/,137883,/,138564,/,139242,/	t,t,t,t,t,t,t	<img class = center src='/static/experiments/beast_fmri_test/images/V.png'></img>	89,71	2750.0	test	<img class = center src='/static/experiments/beast_fmri_test/images/redV.png'></img>	stop	2250.0	2.0	25.0	stop	non-target	V	89,Middle Finger	71,Index Finger	500.0	500.0	2250.0	2250.0	0.0	0.0	500.0	n/a	stop_stim
111832.05163966515	1856.9483603348465	n/a	1779	71	2750	1856.94836033	stim	stop-signal	58	137388	0.0-7.25-1.25	beast_fmri_test	329	135164,/,135845,/,136524,/,137204,/,137883,/,138564,/,139242,/	t,t,t,t,t,t,t	<img class = center src='/static/experiments/beast_fmri_test/images/V.png'></img>	89,71	2750.0	test	<img class = center src='/static/experiments/beast_fmri_test/images/redV.png'></img>	stop	2250.0	2.0	25.0	stop	non-target	V	89,Middle Finger	71,Index Finger	500.0	500.0	2250.0	2250.0	0.0	0.0	500.0	n/a	ITI
116052	500	n/a	-1	-1	500	0.0	fixation	poldrack-single-stim	59	139751	0.0-7.26-0.26	beast_fmri_test	329	n/a	n/a	<div class = centerbox2><div class = fixation>+</div></div>	none	500.0	test	n/a	n/a	n/a	n/a	n/a	n/a	n/a	n/a	n/a	n/a	n/a	n/a	n/a	n/a	n/a	n/a	n/a	n/a	fixation
115165.46961591707	2750	n/a	925	71	2750	889.530384083	stim	stop-signal	60	142504	0.0-7.26-1.26	beast_fmri_test	329	139923,/,140602,/,141282,/,141961,/,142642,/,143321,/	t,t,t,t,t,t	<img class = center src='/static/experiments/beast_fmri_test/images/T.png'></img>	89,71	2750.0	test	<img class = center src='/static/experiments/beast_fmri_test/images/redT.png'></img>	go	2300.0	2.0	26.0	go	non-target	T	89,Middle Finger	71,Index Finger	500.0	450.0	2250.0	2300.0	1.0	n/a	450.0	1.0	go_stim
117915.46961591707	889.53038408294003	n/a	925	71	2750	889.530384083	stim	stop-signal	60	142504	0.0-7.26-1.26	beast_fmri_test	329	139923,/,140602,/,141282,/,141961,/,142642,/,143321,/	t,t,t,t,t,t	<img class = center src='/static/experiments/beast_fmri_test/images/T.png'></img>	89,71	2750.0	test	<img class = center src='/static/experiments/beast_fmri_test/images/redT.png'></img>	go	2300.0	2.0	26.0	go	non-target	T	89,Middle Finger	71,Index Finger	500.0	450.0	2250.0	2300.0	1.0	n/a	450.0	1.0	ITI
120207	500	n/a	-1	-1	500	0.0	fixation	poldrack-single-stim	61	143906	0.0-7.27-0.27	beast_fmri_test	329	n/a	n/a	<div class = centerbox2><div class = fixation>+</div></div>	none	500.0	test	n/a	n/a	n/a	n/a	n/a	n/a	n/a	n/a	n/a	n/a	n/a	n/a	n/a	n/a	n/a	n/a	n/a	n/a	fixation
119760.10663187716	500.0	n/a	742	89	2750	448.893368123	stim	stop-signal	62	146658	0.0-7.27-1.27	beast_fmri_test	329	144000,/,144679,/,145359,/,146040,/,146719,/	t,t,t,t,t	<img class = center src='/static/experiments/beast_fmri_test/images/V.png'></img>	89,71	2750.0	test	<img class = center src='/static/experiments/beast_fmri_test/images/redV.png'></img>	stop	2250.0	2.0	27.0	stop	target	V	89,Middle Finger	71,Index Finger	500.0	450.0	2250.0	2300.0	0.0	0.0	500.0	n/a	go_stim
122010.10663187716	2250.0	n/a	742	89	2750	448.893368123	stim	stop-signal	62	146658	0.0-7.27-1.27	beast_fmri_test	329	144000,/,144679,/,145359,/,146040,/,146719,/	t,t,t,t,t	<img class = center src='/static/experiments/beast_fmri_test/images/V.png'></img>	89,71	2750.0	test	<img class = center src='/static/experiments/beast_fmri_test/images/redV.png'></img>	stop	2250.0	2.0	27.0	stop	target	V	89,Middle Finger	71,Index Finger	500.0	450.0	2250.0	2300.0	0.0	0.0	500.0	n/a	stop_stim
122510.10663187716	448.89336812283148	n/a	742	89	2750	448.893368123	stim	stop-signal	62	146658	0.0-7.27-1.27	beast_fmri_test	329	144000,/,144679,/,145359,/,146040,/,146719,/	t,t,t,t,t	<img class = center src='/static/experiments/beast_fmri_test/images/V.png'></img>	89,71	2750.0	test	<img class = center src='/static/experiments/beast_fmri_test/images/redV.png'></img>	stop	2250.0	2.0	27.0	stop	target	V	89,Middle Finger	71,Index Finger	500.0	450.0	2250.0	2300.0	0.0	0.0	500.0	n/a	ITI
123915	500	n/a	-1	-1	500	0.0	fixation	poldrack-single-stim	63	147614	0.0-7.28-0.28	beast_fmri_test	329	147400,/	t	<div class = centerbox2><div class = fixation>+</div></div>	none	500.0	test	n/a	n/a	n/a	n/a	n/a	n/a	n/a	n/a	n/a	n/a	n/a	n/a	n/a	n/a	n/a	n/a	n/a	n/a	fixation
120678.71631675275	2750	n/a	1146	89	2750	3237.28368325	stim	stop-signal	64	150365	0.0-7.28-1.28	beast_fmri_test	329	148078,/,148759,/,149438,/,150118,/,150797,/,151476,/,152157,/,152836,/,153518,/	t,t,t,t,t,t,t,t,t	<img class = center src='/static/experiments/beast_fmri_test/images/T.png'></img>	89,71	2750.0	test	<img class = center src='/static/experiments/beast_fmri_test/images/redT.png'></img>	go	2300.0	2.0	28.0	go	target	T	89,Middle Finger	71,Index Finger	450.0	450.0	2300.0	2300.0	1.0	n/a	450.0	1.0	go_stim
123428.71631675275	3237.2836832472449	n/a	1146	89	2750	3237.28368325	stim	stop-signal	64	150365	0.0-7.28-1.28	beast_fmri_test	329	148078,/,148759,/,149438,/,150118,/,150797,/,151476,/,152157,/,152836,/,153518,/	t,t,t,t,t,t,t,t,t	<img class = center src='/static/experiments/beast_fmri_test/images/T.png'></img>	89,71	2750.0	test	<img class = center src='/static/experiments/beast_fmri_test/images/redT.png'></img>	go	2300.0	2.0	28.0	go	target	T	89,Middle Finger	71,Index Finger	450.0	450.0	2300.0	2300.0	1.0	n/a	450.0	1.0	ITI
130413	500	n/a	-1	-1	500	0.0	fixation	poldrack-single-stim	65	154112	0.0-7.29-0.29	beast_fmri_test	329	n/a	n/a	<div class = centerbox2><div class = fixation>+</div></div>	none	500.0	test	n/a	n/a	n/a	n/a	n/a	n/a	n/a	n/a	n/a	n/a	n/a	n/a	n/a	n/a	n/a	n/a	n/a	n/a	fixation
127399.04238438859	2750	n/a	1181	71	2750	3015.95761561	stim	stop-signal	66	156864	0.0-7.29-1.29	beast_fmri_test	329	154196,/,154876,/,155556,/,156236,/,156914,/,157596,/,158274,/,158953,/,159634,/	t,t,t,t,t,t,t,t,t	<img class = center src='/static/experiments/beast_fmri_test/images/V.png'></img>	89,71	2750.0	test	<img class = center src='/static/experiments/beast_fmri_test/images/redV.png'></img>	go	2300.0	2.0	29.0	go	target	V	89,Middle Finger	71,Index Finger	450.0	450.0	2300.0	2300.0	0.0	n/a	450.0	0.0	go_stim
130149.04238438859	3015.9576156113958	n/a	1181	71	2750	3015.95761561	stim	stop-signal	66	156864	0.0-7.29-1.29	beast_fmri_test	329	154196,/,154876,/,155556,/,156236,/,156914,/,157596,/,158274,/,158953,/,159634,/	t,t,t,t,t,t,t,t,t	<img class = center src='/static/experiments/beast_fmri_test/images/V.png'></img>	89,71	2750.0	test	<img class = center src='/static/experiments/beast_fmri_test/images/redV.png'></img>	go	2300.0	2.0	29.0	go	target	V	89,Middle Finger	71,Index Finger	450.0	450.0	2300.0	2300.0	0.0	n/a	450.0	0.0	ITI
136688	500	n/a	-1	-1	500	0.0	fixation	poldrack-single-stim	67	160387	0.0-7.30-0.30	beast_fmri_test	329	160313,/	t	<div class = centerbox2><div class = fixation>+</div></div>	none	500.0	test	n/a	n/a	n/a	n/a	n/a	n/a	n/a	n/a	n/a	n/a	n/a	n/a	n/a	n/a	n/a	n/a	n/a	n/a	fixation
135683.76063185697	2750	n/a	742	71	2750	1006.23936814	stim	stop-signal	68	163139	0.0-7.30-1.30	beast_fmri_test	329	160994,/,161672,/,162353,/,163032,/,163712,/	t,t,t,t,t	<img class = center src='/static/experiments/beast_fmri_test/images/D.png'></img>	89,71	2750.0	test	<img class = center src='/static/experiments/beast_fmri_test/images/redD.png'></img>	go	2300.0	2.0	30.0	go	non-target	D	89,Middle Finger	71,Index Finger	450.0	450.0	2300.0	2300.0	1.0	n/a	450.0	1.0	go_stim
138433.76063185697	1006.2393681430386	n/a	742	71	2750	1006.23936814	stim	stop-signal	68	163139	0.0-7.30-1.30	beast_fmri_test	329	160994,/,161672,/,162353,/,163032,/,163712,/	t,t,t,t,t	<img class = center src='/static/experiments/beast_fmri_test/images/D.png'></img>	89,71	2750.0	test	<img class = center src='/static/experiments/beast_fmri_test/images/redD.png'></img>	go	2300.0	2.0	30.0	go	non-target	D	89,Middle Finger	71,Index Finger	450.0	450.0	2300.0	2300.0	1.0	n/a	450.0	1.0	ITI
140958	500	n/a	-1	-1	500	0.0	fixation	poldrack-single-stim	69	164657	0.0-7.31-0.31	beast_fmri_test	329	164392,/	t	<div class = centerbox2><div class = fixation>+</div></div>	none	500.0	test	n/a	n/a	n/a	n/a	n/a	n/a	n/a	n/a	n/a	n/a	n/a	n/a	n/a	n/a	n/a	n/a	n/a	n/a	fixation
140476.0706247584	450.0	n/a	-1	-1	2750	484.929375242	stim	stop-signal	70	167410	0.0-7.31-1.31	beast_fmri_test	329	165072,/,165752,/,166430,/,167111,/,167789,/	t,t,t,t,t	<img class = center src='/static/experiments/beast_fmri_test/images/V.png'></img>	89,71	2750.0	test	<img class = center src='/static/experiments/beast_fmri_test/images/redV.png'></img>	stop	2300.0	2.0	31.0	stop	target	V	89,Middle Finger	71,Index Finger	450.0	450.0	2300.0	2300.0	0.0	1.0	450.0	n/a	go_stim
142776.0706247584	2300.0	n/a	-1	-1	2750	484.929375242	stim	stop-signal	70	167410	0.0-7.31-1.31	beast_fmri_test	329	165072,/,165752,/,166430,/,167111,/,167789,/	t,t,t,t,t	<img class = center src='/static/experiments/beast_fmri_test/images/V.png'></img>	89,71	2750.0	test	<img class = center src='/static/experiments/beast_fmri_test/images/redV.png'></img>	stop	2300.0	2.0	31.0	stop	target	V	89,Middle Finger	71,Index Finger	450.0	450.0	2300.0	2300.0	0.0	1.0	450.0	n/a	stop_stim
143226.0706247584	484.92937524159009	n/a	-1	-1	2750	484.929375242	stim	stop-signal	70	167410	0.0-7.31-1.31	beast_fmri_test	329	165072,/,165752,/,166430,/,167111,/,167789,/	t,t,t,t,t	<img class = center src='/static/experiments/beast_fmri_test/images/V.png'></img>	89,71	2750.0	test	<img class = center src='/static/experiments/beast_fmri_test/images/redV.png'></img>	stop	2300.0	2.0	31.0	stop	target	V	89,Middle Finger	71,Index Finger	450.0	450.0	2300.0	2300.0	0.0	1.0	450.0	n/a	ITI
144706	500	n/a	-1	-1	500	0.0	fixation	poldrack-single-stim	71	168405	0.0-7.32-0.32	beast_fmri_test	329	n/a	n/a	<div class = centerbox2><div class = fixation>+</div></div>	none	500.0	test	n/a	n/a	n/a	n/a	n/a	n/a	n/a	n/a	n/a	n/a	n/a	n/a	n/a	n/a	n/a	n/a	n/a	n/a	fixation
141577.89500156991	2750	n/a	817	71	2750	3129.10499843	stim	stop-signal	72	171156	0.0-7.32-1.32	beast_fmri_test	329	168470,/,169148,/,169829,/,170508,/,171187,/,171868,/,172548,/,173227,/,173906,/	t,t,t,t,t,t,t,t,t	<img class = center src='/static/experiments/beast_fmri_test/images/P.png'></img>	89,71	2750.0	test	<img class = center src='/static/experiments/beast_fmri_test/images/redP.png'></img>	go	2300.0	2.0	32.0	go	non-target	P	89,Middle Finger	71,Index Finger	500.0	450.0	2300.0	2300.0	1.0	n/a	450.0	1.0	go_stim
144327.89500156991	3129.1049984300903	n/a	817	71	2750	3129.10499843	stim	stop-signal	72	171156	0.0-7.32-1.32	beast_fmri_test	329	168470,/,169148,/,169829,/,170508,/,171187,/,171868,/,172548,/,173227,/,173906,/	t,t,t,t,t,t,t,t,t	<img class = center src='/static/experiments/beast_fmri_test/images/P.png'></img>	89,71	2750.0	test	<img class = center src='/static/experiments/beast_fmri_test/images/redP.png'></img>	go	2300.0	2.0	32.0	go	non-target	P	89,Middle Finger	71,Index Finger	500.0	450.0	2300.0	2300.0	1.0	n/a	450.0	1.0	ITI
151097	500	n/a	-1	-1	500	0.0	fixation	poldrack-single-stim	73	174796	0.0-7.33-0.33	beast_fmri_test	329	174587,/	t	<div class = centerbox2><div class = fixation>+</div></div>	none	500.0	test	n/a	n/a	n/a	n/a	n/a	n/a	n/a	n/a	n/a	n/a	n/a	n/a	n/a	n/a	n/a	n/a	n/a	n/a	fixation
149996.23296972722	2750	n/a	1125	71	2750	1102.76703027	stim	stop-signal	74	177548	0.0-7.33-1.33	beast_fmri_test	329	175267,/,175946,/,176625,/,177306,/,177984,/	t,t,t,t,t	<img class = center src='/static/experiments/beast_fmri_test/images/P.png'></img>	89,71	2750.0	test	<img class = center src='/static/experiments/beast_fmri_test/images/redP.png'></img>	go	2300.0	2.0	33.0	go	non-target	P	89,Middle Finger	71,Index Finger	500.0	450.0	2300.0	2300.0	1.0	n/a	450.0	1.0	go_stim
152746.23296972722	1102.7670302727802	n/a	1125	71	2750	1102.76703027	stim	stop-signal	74	177548	0.0-7.33-1.33	beast_fmri_test	329	175267,/,175946,/,176625,/,177306,/,177984,/	t,t,t,t,t	<img class = center src='/static/experiments/beast_fmri_test/images/P.png'></img>	89,71	2750.0	test	<img class = center src='/static/experiments/beast_fmri_test/images/redP.png'></img>	go	2300.0	2.0	33.0	go	non-target	P	89,Middle Finger	71,Index Finger	500.0	450.0	2300.0	2300.0	1.0	n/a	450.0	1.0	ITI
155464	500	n/a	-1	-1	500	0.0	fixation	poldrack-single-stim	75	179163	0.0-7.34-0.34	beast_fmri_test	329	178666,/	t	<div class = centerbox2><div class = fixation>+</div></div>	none	500.0	test	n/a	n/a	n/a	n/a	n/a	n/a	n/a	n/a	n/a	n/a	n/a	n/a	n/a	n/a	n/a	n/a	n/a	n/a	fixation
153539.91366068131	2750	n/a	751	89	2750	1925.08633932	stim	stop-signal	76	181914	0.0-7.34-1.34	beast_fmri_test	329	179344,/,180024,/,180704,/,181385,/,182063,/,182742,/,183423,/	t,t,t,t,t,t,t	<img class = center src='/static/experiments/beast_fmri_test/images/P.png'></img>	89,71	2750.0	test	<img class = center src='/static/experiments/beast_fmri_test/images/redP.png'></img>	go	2250.0	2.0	34.0	go	target	P	89,Middle Finger	71,Index Finger	500.0	450.0	2250.0	2300.0	1.0	n/a	500.0	1.0	go_stim
156289.91366068131	1925.086339318688	n/a	751	89	2750	1925.08633932	stim	stop-signal	76	181914	0.0-7.34-1.34	beast_fmri_test	329	179344,/,180024,/,180704,/,181385,/,182063,/,182742,/,183423,/	t,t,t,t,t,t,t	<img class = center src='/static/experiments/beast_fmri_test/images/P.png'></img>	89,71	2750.0	test	<img class = center src='/static/experiments/beast_fmri_test/images/redP.png'></img>	go	2250.0	2.0	34.0	go	target	P	89,Middle Finger	71,Index Finger	500.0	450.0	2250.0	2300.0	1.0	n/a	500.0	1.0	ITI
160654	500	n/a	-1	-1	500	0.0	fixation	poldrack-single-stim	77	184353	0.0-7.35-0.35	beast_fmri_test	329	184103,/	t	<div class = centerbox2><div class = fixation>+</div></div>	none	500.0	test	n/a	n/a	n/a	n/a	n/a	n/a	n/a	n/a	n/a	n/a	n/a	n/a	n/a	n/a	n/a	n/a	n/a	n/a	fixation
158290.35888761887	450.0	n/a	-1	-1	2750	2364.64111238	stim	stop-signal	78	187104	0.0-7.35-1.35	beast_fmri_test	329	184783,/,185463,/,186142,/,186821,/,187501,/,188180,/,188861,/	t,t,t,t,t,t,t	<img class = center src='/static/experiments/beast_fmri_test/images/V.png'></img>	89,71	2750.0	test	<img class = center src='/static/experiments/beast_fmri_test/images/redV.png'></img>	stop	2300.0	2.0	35.0	stop	non-target	V	89,Middle Finger	71,Index Finger	500.0	450.0	2250.0	2300.0	0.0	1.0	450.0	n/a	go_stim
160590.35888761887	2300.0	n/a	-1	-1	2750	2364.64111238	stim	stop-signal	78	187104	0.0-7.35-1.35	beast_fmri_test	329	184783,/,185463,/,186142,/,186821,/,187501,/,188180,/,188861,/	t,t,t,t,t,t,t	<img class = center src='/static/experiments/beast_fmri_test/images/V.png'></img>	89,71	2750.0	test	<img class = center src='/static/experiments/beast_fmri_test/images/redV.png'></img>	stop	2300.0	2.0	35.0	stop	non-target	V	89,Middle Finger	71,Index Finger	500.0	450.0	2250.0	2300.0	0.0	1.0	450.0	n/a	stop_stim
161040.35888761887	2364.641112381124	n/a	-1	-1	2750	2364.64111238	stim	stop-signal	78	187104	0.0-7.35-1.35	beast_fmri_test	329	184783,/,185463,/,186142,/,186821,/,187501,/,188180,/,188861,/	t,t,t,t,t,t,t	<img class = center src='/static/experiments/beast_fmri_test/images/V.png'></img>	89,71	2750.0	test	<img class = center src='/static/experiments/beast_fmri_test/images/redV.png'></img>	stop	2300.0	2.0	35.0	stop	non-target	V	89,Middle Finger	71,Index Finger	500.0	450.0	2250.0	2300.0	0.0	1.0	450.0	n/a	ITI
166282	500	n/a	-1	-1	500	0.0	fixation	poldrack-single-stim	79	189981	0.0-7.36-0.36	beast_fmri_test	329	189540,/	t	<div class = centerbox2><div class = fixation>+</div></div>	none	500.0	test	n/a	n/a	n/a	n/a	n/a	n/a	n/a	n/a	n/a	n/a	n/a	n/a	n/a	n/a	n/a	n/a	n/a	n/a	fixation
165918.2604678052	2750	n/a	932	71	2750	365.739532195	stim	stop-signal	80	192733	0.0-7.36-1.36	beast_fmri_test	329	190220,/,190899,/,191578,/,192258,/,192937,/	t,t,t,t,t	<img class = center src='/static/experiments/beast_fmri_test/images/P.png'></img>	89,71	2750.0	test	<img class = center src='/static/experiments/beast_fmri_test/images/redP.png'></img>	go	2250.0	2.0	36.0	go	target	P	89,Middle Finger	71,Index Finger	500.0	500.0	2250.0	2300.0	0.0	n/a	500.0	0.0	go_stim
168668.2604678052	365.73953219480973	n/a	932	71	2750	365.739532195	stim	stop-signal	80	192733	0.0-7.36-1.36	beast_fmri_test	329	190220,/,190899,/,191578,/,192258,/,192937,/	t,t,t,t,t	<img class = center src='/static/experiments/beast_fmri_test/images/P.png'></img>	89,71	2750.0	test	<img class = center src='/static/experiments/beast_fmri_test/images/redP.png'></img>	go	2250.0	2.0	36.0	go	target	P	89,Middle Finger	71,Index Finger	500.0	500.0	2250.0	2300.0	0.0	n/a	500.0	0.0	ITI
169913	500	n/a	-1	-1	500	0.0	fixation	poldrack-single-stim	81	193612	0.0-7.37-0.37	beast_fmri_test	329	n/a	n/a	<div class = centerbox2><div class = fixation>+</div></div>	none	500.0	test	n/a	n/a	n/a	n/a	n/a	n/a	n/a	n/a	n/a	n/a	n/a	n/a	n/a	n/a	n/a	n/a	n/a	n/a	fixation
167293.19669594587	2750	n/a	850	89	2750	2619.80330405	stim	stop-signal	82	196362	0.0-7.37-1.37	beast_fmri_test	329	193618,/,194299,/,194978,/,195658,/,196337,/,197017,/,197696,/,198375,/	t,t,t,t,t,t,t,t	<img class = center src='/static/experiments/beast_fmri_test/images/V.png'></img>	89,71	2750.0	test	<img class = center src='/static/experiments/beast_fmri_test/images/redV.png'></img>	go	2250.0	2.0	37.0	go	target	V	89,Middle Finger	71,Index Finger	500.0	500.0	2250.0	2300.0	1.0	n/a	500.0	1.0	go_stim
170043.19669594587	2619.8033040541195	n/a	850	89	2750	2619.80330405	stim	stop-signal	82	196362	0.0-7.37-1.37	beast_fmri_test	329	193618,/,194299,/,194978,/,195658,/,196337,/,197017,/,197696,/,198375,/	t,t,t,t,t,t,t,t	<img class = center src='/static/experiments/beast_fmri_test/images/V.png'></img>	89,71	2750.0	test	<img class = center src='/static/experiments/beast_fmri_test/images/redV.png'></img>	go	2250.0	2.0	37.0	go	target	V	89,Middle Finger	71,Index Finger	500.0	500.0	2250.0	2300.0	1.0	n/a	500.0	1.0	ITI
175795	500	n/a	-1	-1	500	0.0	fixation	poldrack-single-stim	83	199494	0.0-7.38-0.38	beast_fmri_test	329	199056,/	t	<div class = centerbox2><div class = fixation>+</div></div>	none	500.0	test	n/a	n/a	n/a	n/a	n/a	n/a	n/a	n/a	n/a	n/a	n/a	n/a	n/a	n/a	n/a	n/a	n/a	n/a	fixation
175254.39599460614	2750	n/a	1006	71	2750	542.604005394	stim	stop-signal	84	202246	0.0-7.38-1.38	beast_fmri_test	329	199734,/,200415,/,201095,/,201774,/,202454,/	t,t,t,t,t	<img class = center src='/static/experiments/beast_fmri_test/images/B.png'></img>	89,71	2750.0	test	<img class = center src='/static/experiments/beast_fmri_test/images/redB.png'></img>	go	2250.0	2.0	38.0	go	non-target	B	89,Middle Finger	71,Index Finger	500.0	500.0	2250.0	2250.0	1.0	n/a	500.0	1.0	go_stim
178004.39599460614	542.60400539387297	n/a	1006	71	2750	542.604005394	stim	stop-signal	84	202246	0.0-7.38-1.38	beast_fmri_test	329	199734,/,200415,/,201095,/,201774,/,202454,/	t,t,t,t,t	<img class = center src='/static/experiments/beast_fmri_test/images/B.png'></img>	89,71	2750.0	test	<img class = center src='/static/experiments/beast_fmri_test/images/redB.png'></img>	go	2250.0	2.0	38.0	go	non-target	B	89,Middle Finger	71,Index Finger	500.0	500.0	2250.0	2250.0	1.0	n/a	500.0	1.0	ITI
179603	500	n/a	-1	-1	500	0.0	fixation	poldrack-single-stim	85	203302	0.0-7.39-0.39	beast_fmri_test	329	203134,/	t	<div class = centerbox2><div class = fixation>+</div></div>	none	500.0	test	n/a	n/a	n/a	n/a	n/a	n/a	n/a	n/a	n/a	n/a	n/a	n/a	n/a	n/a	n/a	n/a	n/a	n/a	fixation
179540.78832123399	2750	n/a	926	71	2750	63.211678766	stim	stop-signal	86	206053	0.0-7.39-1.39	beast_fmri_test	329	203814,/,204494,/,205172,/,205852,/	t,t,t,t	<img class = center src='/static/experiments/beast_fmri_test/images/D.png'></img>	89,71	2750.0	test	<img class = center src='/static/experiments/beast_fmri_test/images/redD.png'></img>	go	2250.0	2.0	39.0	go	non-target	D	89,Middle Finger	71,Index Finger	500.0	500.0	2250.0	2250.0	1.0	n/a	500.0	1.0	go_stim
182290.78832123399	63.211678766018323	n/a	926	71	2750	63.211678766	stim	stop-signal	86	206053	0.0-7.39-1.39	beast_fmri_test	329	203814,/,204494,/,205172,/,205852,/	t,t,t,t	<img class = center src='/static/experiments/beast_fmri_test/images/D.png'></img>	89,71	2750.0	test	<img class = center src='/static/experiments/beast_fmri_test/images/redD.png'></img>	go	2250.0	2.0	39.0	go	non-target	D	89,Middle Finger	71,Index Finger	500.0	500.0	2250.0	2250.0	1.0	n/a	500.0	1.0	ITI
182932	500	n/a	-1	-1	500	0.0	fixation	poldrack-single-stim	87	206631	0.0-7.40-0.40	beast_fmri_test	329	206531,/	t	<div class = centerbox2><div class = fixation>+</div></div>	none	500.0	test	n/a	n/a	n/a	n/a	n/a	n/a	n/a	n/a	n/a	n/a	n/a	n/a	n/a	n/a	n/a	n/a	n/a	n/a	fixation
182495.13348685307	500.0	n/a	1180	89	2750	438.866513147	stim	stop-signal	88	209383	0.0-7.40-1.40	beast_fmri_test	329	207210,/,207891,/,208571,/,209251,/	t,t,t,t	<img class = center src='/static/experiments/beast_fmri_test/images/V.png'></img>	89,71	2750.0	test	<img class = center src='/static/experiments/beast_fmri_test/images/redV.png'></img>	stop	2250.0	2.0	40.0	stop	non-target	V	89,Middle Finger	71,Index Finger	500.0	500.0	2250.0	2250.0	0.0	0.0	500.0	n/a	go_stim
184745.13348685307	2250.0	n/a	1180	89	2750	438.866513147	stim	stop-signal	88	209383	0.0-7.40-1.40	beast_fmri_test	329	207210,/,207891,/,208571,/,209251,/	t,t,t,t	<img class = center src='/static/experiments/beast_fmri_test/images/V.png'></img>	89,71	2750.0	test	<img class = center src='/static/experiments/beast_fmri_test/images/redV.png'></img>	stop	2250.0	2.0	40.0	stop	non-target	V	89,Middle Finger	71,Index Finger	500.0	500.0	2250.0	2250.0	0.0	0.0	500.0	n/a	stop_stim
185245.13348685307	438.86651314694086	n/a	1180	89	2750	438.866513147	stim	stop-signal	88	209383	0.0-7.40-1.40	beast_fmri_test	329	207210,/,207891,/,208571,/,209251,/	t,t,t,t	<img class = center src='/static/experiments/beast_fmri_test/images/V.png'></img>	89,71	2750.0	test	<img class = center src='/static/experiments/beast_fmri_test/images/redV.png'></img>	stop	2250.0	2.0	40.0	stop	non-target	V	89,Middle Finger	71,Index Finger	500.0	500.0	2250.0	2250.0	0.0	0.0	500.0	n/a	ITI
186638	500	n/a	-1	-1	500	0.0	fixation	poldrack-single-stim	89	210337	0.0-7.41-0.41	beast_fmri_test	329	209931,/	t	<div class = centerbox2><div class = fixation>+</div></div>	none	500.0	test	n/a	n/a	n/a	n/a	n/a	n/a	n/a	n/a	n/a	n/a	n/a	n/a	n/a	n/a	n/a	n/a	n/a	n/a	fixation
186489.42746170136	2750	n/a	1149	71	2750	149.572538299	stim	stop-signal	90	213088	0.0-7.41-1.41	beast_fmri_test	329	210610,/,211290,/,211969,/,212650,/	t,t,t,t	<img class = center src='/static/experiments/beast_fmri_test/images/B.png'></img>	89,71	2750.0	test	<img class = center src='/static/experiments/beast_fmri_test/images/redB.png'></img>	go	2300.0	2.0	41.0	go	non-target	B	89,Middle Finger	71,Index Finger	500.0	450.0	2250.0	2300.0	1.0	n/a	450.0	1.0	go_stim
189239.42746170136	149.57253829864268	n/a	1149	71	2750	149.572538299	stim	stop-signal	90	213088	0.0-7.41-1.41	beast_fmri_test	329	210610,/,211290,/,211969,/,212650,/	t,t,t,t	<img class = center src='/static/experiments/beast_fmri_test/images/B.png'></img>	89,71	2750.0	test	<img class = center src='/static/experiments/beast_fmri_test/images/redB.png'></img>	go	2300.0	2.0	41.0	go	non-target	B	89,Middle Finger	71,Index Finger	500.0	450.0	2250.0	2300.0	1.0	n/a	450.0	1.0	ITI
190050	500	n/a	-1	-1	500	0.0	fixation	poldrack-single-stim	91	213749	0.0-7.42-0.42	beast_fmri_test	329	213329,/	t	<div class = centerbox2><div class = fixation>+</div></div>	none	500.0	test	n/a	n/a	n/a	n/a	n/a	n/a	n/a	n/a	n/a	n/a	n/a	n/a	n/a	n/a	n/a	n/a	n/a	n/a	fixation
189300.64086555471	2750	n/a	1619	71	2750	750.359134445	stim	stop-signal	92	216500	0.0-7.42-1.42	beast_fmri_test	329	214010,/,214688,/,215370,/,216047,/,216726,/	t,t,t,t,t	<img class = center src='/static/experiments/beast_fmri_test/images/B.png'></img>	89,71	2750.0	test	<img class = center src='/static/experiments/beast_fmri_test/images/redB.png'></img>	go	2300.0	2.0	42.0	go	non-target	B	89,Middle Finger	71,Index Finger	500.0	450.0	2250.0	2300.0	1.0	n/a	450.0	1.0	go_stim
192050.64086555471	750.35913444528148	n/a	1619	71	2750	750.359134445	stim	stop-signal	92	216500	0.0-7.42-1.42	beast_fmri_test	329	214010,/,214688,/,215370,/,216047,/,216726,/	t,t,t,t,t	<img class = center src='/static/experiments/beast_fmri_test/images/B.png'></img>	89,71	2750.0	test	<img class = center src='/static/experiments/beast_fmri_test/images/redB.png'></img>	go	2300.0	2.0	42.0	go	non-target	B	89,Middle Finger	71,Index Finger	500.0	450.0	2250.0	2300.0	1.0	n/a	450.0	1.0	ITI
194063	500	n/a	-1	-1	500	0.0	fixation	poldrack-single-stim	93	217762	0.0-7.43-0.43	beast_fmri_test	329	217407,/	t	<div class = centerbox2><div class = fixation>+</div></div>	none	500.0	test	n/a	n/a	n/a	n/a	n/a	n/a	n/a	n/a	n/a	n/a	n/a	n/a	n/a	n/a	n/a	n/a	n/a	n/a	fixation
193260.20764689735	2750	n/a	1303	71	2750	805.792353103	stim	stop-signal	94	220515	0.0-7.43-1.43	beast_fmri_test	329	218087,/,218766,/,219447,/,220126,/,220805,/	t,t,t,t,t	<img class = center src='/static/experiments/beast_fmri_test/images/T.png'></img>	89,71	2750.0	test	<img class = center src='/static/experiments/beast_fmri_test/images/redT.png'></img>	go	2300.0	2.0	43.0	go	non-target	T	89,Middle Finger	71,Index Finger	500.0	450.0	2250.0	2300.0	1.0	n/a	450.0	1.0	go_stim
196010.20764689735	805.79235310263232	n/a	1303	71	2750	805.792353103	stim	stop-signal	94	220515	0.0-7.43-1.43	beast_fmri_test	329	218087,/,218766,/,219447,/,220126,/,220805,/	t,t,t,t,t	<img class = center src='/static/experiments/beast_fmri_test/images/T.png'></img>	89,71	2750.0	test	<img class = center src='/static/experiments/beast_fmri_test/images/redT.png'></img>	go	2300.0	2.0	43.0	go	non-target	T	89,Middle Finger	71,Index Finger	500.0	450.0	2250.0	2300.0	1.0	n/a	450.0	1.0	ITI
198135	500	n/a	-1	-1	500	0.0	fixation	poldrack-single-stim	95	221834	0.0-7.44-0.44	beast_fmri_test	329	221486,/	t	<div class = centerbox2><div class = fixation>+</div></div>	none	500.0	test	n/a	n/a	n/a	n/a	n/a	n/a	n/a	n/a	n/a	n/a	n/a	n/a	n/a	n/a	n/a	n/a	n/a	n/a	fixation
197525.25097552984	450.0	n/a	713	71	2750	611.74902447	stim	stop-signal	96	224586	0.0-7.44-1.44	beast_fmri_test	329	222165,/,222845,/,223524,/,224204,/,224882,/	t,t,t,t,t	<img class = center src='/static/experiments/beast_fmri_test/images/V.png'></img>	89,71	2750.0	test	<img class = center src='/static/experiments/beast_fmri_test/images/redV.png'></img>	stop	2300.0	2.0	44.0	stop	non-target	V	89,Middle Finger	71,Index Finger	500.0	450.0	2250.0	2300.0	0.0	0.0	450.0	n/a	go_stim
199825.25097552984	2300.0	n/a	713	71	2750	611.74902447	stim	stop-signal	96	224586	0.0-7.44-1.44	beast_fmri_test	329	222165,/,222845,/,223524,/,224204,/,224882,/	t,t,t,t,t	<img class = center src='/static/experiments/beast_fmri_test/images/V.png'></img>	89,71	2750.0	test	<img class = center src='/static/experiments/beast_fmri_test/images/redV.png'></img>	stop	2300.0	2.0	44.0	stop	non-target	V	89,Middle Finger	71,Index Finger	500.0	450.0	2250.0	2300.0	0.0	0.0	450.0	n/a	stop_stim
200275.25097552984	611.74902447016132	n/a	713	71	2750	611.74902447	stim	stop-signal	96	224586	0.0-7.44-1.44	beast_fmri_test	329	222165,/,222845,/,223524,/,224204,/,224882,/	t,t,t,t,t	<img class = center src='/static/experiments/beast_fmri_test/images/V.png'></img>	89,71	2750.0	test	<img class = center src='/static/experiments/beast_fmri_test/images/redV.png'></img>	stop	2300.0	2.0	44.0	stop	non-target	V	89,Middle Finger	71,Index Finger	500.0	450.0	2250.0	2300.0	0.0	0.0	450.0	n/a	ITI
202013	500	n/a	-1	-1	500	0.0	fixation	poldrack-single-stim	97	225712	0.0-7.45-0.45	beast_fmri_test	329	225564,/	t	<div class = centerbox2><div class = fixation>+</div></div>	none	500.0	test	n/a	n/a	n/a	n/a	n/a	n/a	n/a	n/a	n/a	n/a	n/a	n/a	n/a	n/a	n/a	n/a	n/a	n/a	fixation
201253.56163470171	500.0	n/a	-1	-1	2750	762.438365298	stim	stop-signal	98	228465	0.0-7.45-1.45	beast_fmri_test	329	226243,/,226923,/,227603,/,228281,/,228962,/	t,t,t,t,t	<img class = center src='/static/experiments/beast_fmri_test/images/T.png'></img>	89,71	2750.0	test	<img class = center src='/static/experiments/beast_fmri_test/images/redT.png'></img>	stop	2250.0	2.0	45.0	stop	target	T	89,Middle Finger	71,Index Finger	500.0	400.0	2250.0	2300.0	0.0	1.0	500.0	n/a	go_stim
203503.56163470171	2250.0	n/a	-1	-1	2750	762.438365298	stim	stop-signal	98	228465	0.0-7.45-1.45	beast_fmri_test	329	226243,/,226923,/,227603,/,228281,/,228962,/	t,t,t,t,t	<img class = center src='/static/experiments/beast_fmri_test/images/T.png'></img>	89,71	2750.0	test	<img class = center src='/static/experiments/beast_fmri_test/images/redT.png'></img>	stop	2250.0	2.0	45.0	stop	target	T	89,Middle Finger	71,Index Finger	500.0	400.0	2250.0	2300.0	0.0	1.0	500.0	n/a	stop_stim
204003.56163470171	762.43836529829196	n/a	-1	-1	2750	762.438365298	stim	stop-signal	98	228465	0.0-7.45-1.45	beast_fmri_test	329	226243,/,226923,/,227603,/,228281,/,228962,/	t,t,t,t,t	<img class = center src='/static/experiments/beast_fmri_test/images/T.png'></img>	89,71	2750.0	test	<img class = center src='/static/experiments/beast_fmri_test/images/redT.png'></img>	stop	2250.0	2.0	45.0	stop	target	T	89,Middle Finger	71,Index Finger	500.0	400.0	2250.0	2300.0	0.0	1.0	500.0	n/a	ITI
206044	500	n/a	-1	-1	500	0.0	fixation	poldrack-single-stim	99	229743	0.0-7.46-0.46	beast_fmri_test	329	229642,/	t	<div class = centerbox2><div class = fixation>+</div></div>	none	500.0	test	n/a	n/a	n/a	n/a	n/a	n/a	n/a	n/a	n/a	n/a	n/a	n/a	n/a	n/a	n/a	n/a	n/a	n/a	fixation
205523.64875466886	2750	n/a	989	71	2750	521.351245331	stim	stop-signal	100	232494	0.0-7.46-1.46	beast_fmri_test	329	230321,/,231000,/,231680,/,232359,/	t,t,t,t	<img class = center src='/static/experiments/beast_fmri_test/images/T.png'></img>	89,71	2750.0	test	<img class = center src='/static/experiments/beast_fmri_test/images/redT.png'></img>	go	2350.0	2.0	46.0	go	non-target	T	89,Middle Finger	71,Index Finger	550.0	400.0	2250.0	2350.0	1.0	n/a	400.0	1.0	go_stim
208273.64875466886	521.35124533113583	n/a	989	71	2750	521.351245331	stim	stop-signal	100	232494	0.0-7.46-1.46	beast_fmri_test	329	230321,/,231000,/,231680,/,232359,/	t,t,t,t	<img class = center src='/static/experiments/beast_fmri_test/images/T.png'></img>	89,71	2750.0	test	<img class = center src='/static/experiments/beast_fmri_test/images/redT.png'></img>	go	2350.0	2.0	46.0	go	non-target	T	89,Middle Finger	71,Index Finger	550.0	400.0	2250.0	2350.0	1.0	n/a	400.0	1.0	ITI
224325	15000	n/a	-1	-1	15000	0.0	practice-no-stop-feedback	poldrack-single-stim	101	248024	0.0-8.0	beast_fmri_test	329	233041,/,233718,/,234399,/,235079,/,235758,/,236438,/,237117,/,237797,/,238477,/,239158,/,239836,/,240516,/,241196,/,241876,/,242555,/,243236,/,243915,/,244594,/,245274,/,245955,/,246634,/,247313,/,247993,/	t,t,t,t,t,t,t,t,t,t,t,t,t,t,t,t,t,t,t,t,t,t,t	"<div class = ""centerbox""><p class = ""block-text"">Your delay is 2 trials.</p><p class = block-text>Please wait for the scanner to start the block</p></div>"	77	15000.0	n/a	n/a	n/a	n/a	n/a	n/a	n/a	n/a	n/a	n/a	n/a	n/a	n/a	n/a	n/a	n/a	n/a	n/a	n/a	practice-no-stop-feedback
224827	500	n/a	-1	-1	500	0.0	fixation	poldrack-single-stim	102	248526	0.0-9.0-0.0	beast_fmri_test	329	n/a	n/a	<div class = centerbox2><div class = fixation>+</div></div>	none	500.0	test	n/a	n/a	n/a	n/a	n/a	n/a	n/a	n/a	n/a	n/a	n/a	n/a	n/a	n/a	n/a	n/a	n/a	n/a	fixation
224281.42194288559	2750	n/a	916	71	2750	545.578057114	stim	stop-signal	103	251276	0.0-9.0-1.0	beast_fmri_test	329	248672,/,249353,/,250031,/,250712,/,251391,/	t,t,t,t,t	<img class = center src='/static/experiments/beast_fmri_test/images/P.png'></img>	89,71	2750.0	test	<img class = center src='/static/experiments/beast_fmri_test/images/redP.png'></img>	go	-1.0	2.0	0.0	go	temp-non-target	P	89,Middle Finger	71,Index Finger	550.0	400.0	2250.0	2350.0	0.0	n/a	n/a	n/a	go_stim
227031.42194288559	545.57805711440483	n/a	916	71	2750	545.578057114	stim	stop-signal	103	251276	0.0-9.0-1.0	beast_fmri_test	329	248672,/,249353,/,250031,/,250712,/,251391,/	t,t,t,t,t	<img class = center src='/static/experiments/beast_fmri_test/images/P.png'></img>	89,71	2750.0	test	<img class = center src='/static/experiments/beast_fmri_test/images/redP.png'></img>	go	-1.0	2.0	0.0	go	temp-non-target	P	89,Middle Finger	71,Index Finger	550.0	400.0	2250.0	2350.0	0.0	n/a	n/a	n/a	ITI
228636	500	n/a	-1	-1	500	0.0	fixation	poldrack-single-stim	104	252335	0.0-9.1-0.1	beast_fmri_test	329	252070,/	t	<div class = centerbox2><div class = fixation>+</div></div>	none	500.0	test	n/a	n/a	n/a	n/a	n/a	n/a	n/a	n/a	n/a	n/a	n/a	n/a	n/a	n/a	n/a	n/a	n/a	n/a	fixation
224758.90263724228	2750	n/a	841	71	2750	3879.09736276	stim	stop-signal	105	255087	0.0-9.1-1.1	beast_fmri_test	329	252750,/,253430,/,254110,/,254788,/,255469,/,256150,/,256829,/,257508,/,258188,/,258866,/	t,t,t,t,t,t,t,t,t,t	<img class = center src='/static/experiments/beast_fmri_test/images/V.png'></img>	89,71	2750.0	test	<img class = center src='/static/experiments/beast_fmri_test/images/redV.png'></img>	go	-1.0	2.0	1.0	go	temp-non-target	V	89,Middle Finger	71,Index Finger	550.0	400.0	2250.0	2350.0	0.0	n/a	n/a	n/a	go_stim
227508.90263724228	3879.0973627577241	n/a	841	71	2750	3879.09736276	stim	stop-signal	105	255087	0.0-9.1-1.1	beast_fmri_test	329	252750,/,253430,/,254110,/,254788,/,255469,/,256150,/,256829,/,257508,/,258188,/,258866,/	t,t,t,t,t,t,t,t,t,t	<img class = center src='/static/experiments/beast_fmri_test/images/V.png'></img>	89,71	2750.0	test	<img class = center src='/static/experiments/beast_fmri_test/images/redV.png'></img>	go	-1.0	2.0	1.0	go	temp-non-target	V	89,Middle Finger	71,Index Finger	550.0	400.0	2250.0	2350.0	0.0	n/a	n/a	n/a	ITI
235781	500	n/a	-1	-1	500	0.0	fixation	poldrack-single-stim	106	259480	0.0-9.2-0.2	beast_fmri_test	329	n/a	n/a	<div class = centerbox2><div class = fixation>+</div></div>	none	500.0	test	n/a	n/a	n/a	n/a	n/a	n/a	n/a	n/a	n/a	n/a	n/a	n/a	n/a	n/a	n/a	n/a	n/a	n/a	fixation
235389.74911722046	550.0	n/a	-1	-1	2750	393.25088278	stim	stop-signal	107	262232	0.0-9.2-1.2	beast_fmri_test	329	259546,/,260227,/,260907,/,261586,/,262266,/	t,t,t,t,t	<img class = center src='/static/experiments/beast_fmri_test/images/P.png'></img>	89,71	2750.0	test	<img class = center src='/static/experiments/beast_fmri_test/images/redP.png'></img>	stop	2200.0	2.0	2.0	stop	target	P	89,Middle Finger	71,Index Finger	550.0	400.0	2200.0	2350.0	0.0	1.0	550.0	n/a	go_stim
237589.74911722046	2200.0	n/a	-1	-1	2750	393.25088278	stim	stop-signal	107	262232	0.0-9.2-1.2	beast_fmri_test	329	259546,/,260227,/,260907,/,261586,/,262266,/	t,t,t,t,t	<img class = center src='/static/experiments/beast_fmri_test/images/P.png'></img>	89,71	2750.0	test	<img class = center src='/static/experiments/beast_fmri_test/images/redP.png'></img>	stop	2200.0	2.0	2.0	stop	target	P	89,Middle Finger	71,Index Finger	550.0	400.0	2200.0	2350.0	0.0	1.0	550.0	n/a	stop_stim
238139.74911722046	393.25088277954734	n/a	-1	-1	2750	393.25088278	stim	stop-signal	107	262232	0.0-9.2-1.2	beast_fmri_test	329	259546,/,260227,/,260907,/,261586,/,262266,/	t,t,t,t,t	<img class = center src='/static/experiments/beast_fmri_test/images/P.png'></img>	89,71	2750.0	test	<img class = center src='/static/experiments/beast_fmri_test/images/redP.png'></img>	stop	2200.0	2.0	2.0	stop	target	P	89,Middle Finger	71,Index Finger	550.0	400.0	2200.0	2350.0	0.0	1.0	550.0	n/a	ITI
239443	500	n/a	-1	-1	500	0.0	fixation	poldrack-single-stim	108	263142	0.0-9.3-0.3	beast_fmri_test	329	262945,/	t	<div class = centerbox2><div class = fixation>+</div></div>	none	500.0	test	n/a	n/a	n/a	n/a	n/a	n/a	n/a	n/a	n/a	n/a	n/a	n/a	n/a	n/a	n/a	n/a	n/a	n/a	fixation
239070.26101516897	2750	n/a	757	71	2750	373.738984831	stim	stop-signal	109	265893	0.0-9.3-1.3	beast_fmri_test	329	263626,/,264305,/,264985,/,265665,/	t,t,t,t	<img class = center src='/static/experiments/beast_fmri_test/images/T.png'></img>	89,71	2750.0	test	<img class = center src='/static/experiments/beast_fmri_test/images/redT.png'></img>	go	2350.0	2.0	3.0	go	non-target	T	89,Middle Finger	71,Index Finger	600.0	400.0	2200.0	2350.0	1.0	n/a	400.0	1.0	go_stim
241820.26101516897	373.73898483103181	n/a	757	71	2750	373.738984831	stim	stop-signal	109	265893	0.0-9.3-1.3	beast_fmri_test	329	263626,/,264305,/,264985,/,265665,/	t,t,t,t	<img class = center src='/static/experiments/beast_fmri_test/images/T.png'></img>	89,71	2750.0	test	<img class = center src='/static/experiments/beast_fmri_test/images/redT.png'></img>	go	2350.0	2.0	3.0	go	non-target	T	89,Middle Finger	71,Index Finger	600.0	400.0	2200.0	2350.0	1.0	n/a	400.0	1.0	ITI
243083	500	n/a	-1	-1	500	0.0	fixation	poldrack-single-stim	110	266782	0.0-9.4-0.4	beast_fmri_test	329	266345,/	t	<div class = centerbox2><div class = fixation>+</div></div>	none	500.0	test	n/a	n/a	n/a	n/a	n/a	n/a	n/a	n/a	n/a	n/a	n/a	n/a	n/a	n/a	n/a	n/a	n/a	n/a	fixation
243052.53902223759	2750	n/a	1019	71	2750	33.4609777624	stim	stop-signal	111	269535	0.0-9.4-1.4	beast_fmri_test	329	267024,/,267702,/,268384,/,269063,/	t,t,t,t	<img class = center src='/static/experiments/beast_fmri_test/images/T.png'></img>	89,71	2750.0	test	<img class = center src='/static/experiments/beast_fmri_test/images/redT.png'></img>	go	2350.0	2.0	4.0	go	non-target	T	89,Middle Finger	71,Index Finger	600.0	400.0	2200.0	2350.0	1.0	n/a	400.0	1.0	go_stim
245802.53902223759	33.460977762417606	n/a	1019	71	2750	33.4609777624	stim	stop-signal	111	269535	0.0-9.4-1.4	beast_fmri_test	329	267024,/,267702,/,268384,/,269063,/	t,t,t,t	<img class = center src='/static/experiments/beast_fmri_test/images/T.png'></img>	89,71	2750.0	test	<img class = center src='/static/experiments/beast_fmri_test/images/redT.png'></img>	go	2350.0	2.0	4.0	go	non-target	T	89,Middle Finger	71,Index Finger	600.0	400.0	2200.0	2350.0	1.0	n/a	400.0	1.0	ITI
246382	500	n/a	-1	-1	500	0.0	fixation	poldrack-single-stim	112	270081	0.0-9.5-0.5	beast_fmri_test	329	269744,/	t	<div class = centerbox2><div class = fixation>+</div></div>	none	500.0	test	n/a	n/a	n/a	n/a	n/a	n/a	n/a	n/a	n/a	n/a	n/a	n/a	n/a	n/a	n/a	n/a	n/a	n/a	fixation
244813.15265143965	2750	n/a	1285	71	2750	1569.84734856	stim	stop-signal	113	272832	0.0-9.5-1.5	beast_fmri_test	329	270423,/,271103,/,271781,/,272462,/,273141,/,273820,/	t,t,t,t,t,t	<img class = center src='/static/experiments/beast_fmri_test/images/V.png'></img>	89,71	2750.0	test	<img class = center src='/static/experiments/beast_fmri_test/images/redV.png'></img>	go	2350.0	2.0	5.0	go	non-target	V	89,Middle Finger	71,Index Finger	600.0	400.0	2200.0	2350.0	1.0	n/a	400.0	1.0	go_stim
247563.15265143965	1569.8473485603283	n/a	1285	71	2750	1569.84734856	stim	stop-signal	113	272832	0.0-9.5-1.5	beast_fmri_test	329	270423,/,271103,/,271781,/,272462,/,273141,/,273820,/	t,t,t,t,t,t	<img class = center src='/static/experiments/beast_fmri_test/images/V.png'></img>	89,71	2750.0	test	<img class = center src='/static/experiments/beast_fmri_test/images/redV.png'></img>	go	2350.0	2.0	5.0	go	non-target	V	89,Middle Finger	71,Index Finger	600.0	400.0	2200.0	2350.0	1.0	n/a	400.0	1.0	ITI
251218	500	n/a	-1	-1	500	0.0	fixation	poldrack-single-stim	114	274917	0.0-9.6-0.6	beast_fmri_test	329	274501,/	t	<div class = centerbox2><div class = fixation>+</div></div>	none	500.0	test	n/a	n/a	n/a	n/a	n/a	n/a	n/a	n/a	n/a	n/a	n/a	n/a	n/a	n/a	n/a	n/a	n/a	n/a	fixation
250922.28534678492	400.0	n/a	-1	-1	2750	297.714653215	stim	stop-signal	115	277669	0.0-9.6-1.6	beast_fmri_test	329	275181,/,275860,/,276541,/,277220,/,277899,/	t,t,t,t,t	<img class = center src='/static/experiments/beast_fmri_test/images/V.png'></img>	89,71	2750.0	test	<img class = center src='/static/experiments/beast_fmri_test/images/redV.png'></img>	stop	2350.0	2.0	6.0	stop	non-target	V	89,Middle Finger	71,Index Finger	600.0	400.0	2200.0	2350.0	0.0	1.0	400.0	n/a	go_stim
253272.28534678492	2350.0	n/a	-1	-1	2750	297.714653215	stim	stop-signal	115	277669	0.0-9.6-1.6	beast_fmri_test	329	275181,/,275860,/,276541,/,277220,/,277899,/	t,t,t,t,t	<img class = center src='/static/experiments/beast_fmri_test/images/V.png'></img>	89,71	2750.0	test	<img class = center src='/static/experiments/beast_fmri_test/images/redV.png'></img>	stop	2350.0	2.0	6.0	stop	non-target	V	89,Middle Finger	71,Index Finger	600.0	400.0	2200.0	2350.0	0.0	1.0	400.0	n/a	stop_stim
253672.28534678492	297.71465321507685	n/a	-1	-1	2750	297.714653215	stim	stop-signal	115	277669	0.0-9.6-1.6	beast_fmri_test	329	275181,/,275860,/,276541,/,277220,/,277899,/	t,t,t,t,t	<img class = center src='/static/experiments/beast_fmri_test/images/V.png'></img>	89,71	2750.0	test	<img class = center src='/static/experiments/beast_fmri_test/images/redV.png'></img>	stop	2350.0	2.0	6.0	stop	non-target	V	89,Middle Finger	71,Index Finger	600.0	400.0	2200.0	2350.0	0.0	1.0	400.0	n/a	ITI
254788	500	n/a	-1	-1	500	0.0	fixation	poldrack-single-stim	116	278487	0.0-9.7-0.7	beast_fmri_test	329	n/a	n/a	<div class = centerbox2><div class = fixation>+</div></div>	none	500.0	test	n/a	n/a	n/a	n/a	n/a	n/a	n/a	n/a	n/a	n/a	n/a	n/a	n/a	n/a	n/a	n/a	n/a	n/a	fixation
253461.53493076208	450.0	n/a	-1	-1	2750	1328.46506924	stim	stop-signal	117	281239	0.0-9.7-1.7	beast_fmri_test	329	278580,/,279258,/,279939,/,280617,/,281298,/,281976,/	t,t,t,t,t,t	<img class = center src='/static/experiments/beast_fmri_test/images/T.png'></img>	89,71	2750.0	test	<img class = center src='/static/experiments/beast_fmri_test/images/redT.png'></img>	stop	2300.0	2.0	7.0	stop	non-target	T	89,Middle Finger	71,Index Finger	600.0	450.0	2200.0	2300.0	0.0	1.0	450.0	n/a	go_stim
255761.53493076208	2300.0	n/a	-1	-1	2750	1328.46506924	stim	stop-signal	117	281239	0.0-9.7-1.7	beast_fmri_test	329	278580,/,279258,/,279939,/,280617,/,281298,/,281976,/	t,t,t,t,t,t	<img class = center src='/static/experiments/beast_fmri_test/images/T.png'></img>	89,71	2750.0	test	<img class = center src='/static/experiments/beast_fmri_test/images/redT.png'></img>	stop	2300.0	2.0	7.0	stop	non-target	T	89,Middle Finger	71,Index Finger	600.0	450.0	2200.0	2300.0	0.0	1.0	450.0	n/a	stop_stim
256211.53493076208	1328.4650692379225	n/a	-1	-1	2750	1328.46506924	stim	stop-signal	117	281239	0.0-9.7-1.7	beast_fmri_test	329	278580,/,279258,/,279939,/,280617,/,281298,/,281976,/	t,t,t,t,t,t	<img class = center src='/static/experiments/beast_fmri_test/images/T.png'></img>	89,71	2750.0	test	<img class = center src='/static/experiments/beast_fmri_test/images/redT.png'></img>	stop	2300.0	2.0	7.0	stop	non-target	T	89,Middle Finger	71,Index Finger	600.0	450.0	2200.0	2300.0	0.0	1.0	450.0	n/a	ITI
259384	500	n/a	-1	-1	500	0.0	fixation	poldrack-single-stim	118	283083	0.0-9.8-0.8	beast_fmri_test	329	282656,/	t	<div class = centerbox2><div class = fixation>+</div></div>	none	500.0	test	n/a	n/a	n/a	n/a	n/a	n/a	n/a	n/a	n/a	n/a	n/a	n/a	n/a	n/a	n/a	n/a	n/a	n/a	fixation
258956.18108265655	2750	n/a	759	71	2750	429.818917343	stim	stop-signal	119	285835	0.0-9.8-1.8	beast_fmri_test	329	283336,/,284017,/,284696,/,285376,/,286055,/	t,t,t,t,t	<img class = center src='/static/experiments/beast_fmri_test/images/P.png'></img>	89,71	2750.0	test	<img class = center src='/static/experiments/beast_fmri_test/images/redP.png'></img>	go	2250.0	2.0	8.0	go	non-target	P	89,Middle Finger	71,Index Finger	600.0	500.0	2200.0	2250.0	1.0	n/a	500.0	1.0	go_stim
261706.18108265655	429.81891734343787	n/a	759	71	2750	429.818917343	stim	stop-signal	119	285835	0.0-9.8-1.8	beast_fmri_test	329	283336,/,284017,/,284696,/,285376,/,286055,/	t,t,t,t,t	<img class = center src='/static/experiments/beast_fmri_test/images/P.png'></img>	89,71	2750.0	test	<img class = center src='/static/experiments/beast_fmri_test/images/redP.png'></img>	go	2250.0	2.0	8.0	go	non-target	P	89,Middle Finger	71,Index Finger	600.0	500.0	2200.0	2250.0	1.0	n/a	500.0	1.0	ITI
263081	500	n/a	-1	-1	500	0.0	fixation	poldrack-single-stim	120	286780	0.0-9.9-0.9	beast_fmri_test	329	286735,/	t	<div class = centerbox2><div class = fixation>+</div></div>	none	500.0	test	n/a	n/a	n/a	n/a	n/a	n/a	n/a	n/a	n/a	n/a	n/a	n/a	n/a	n/a	n/a	n/a	n/a	n/a	fixation
262999.17821530922	2750	n/a	917	89	2750	84.8217846908	stim	stop-signal	121	289533	0.0-9.9-1.9	beast_fmri_test	329	287414,/,288093,/,288774,/,289454,/	t,t,t,t	<img class = center src='/static/experiments/beast_fmri_test/images/T.png'></img>	89,71	2750.0	test	<img class = center src='/static/experiments/beast_fmri_test/images/redT.png'></img>	go	2150.0	2.0	9.0	go	target	T	89,Middle Finger	71,Index Finger	600.0	500.0	2150.0	2250.0	1.0	n/a	600.0	1.0	go_stim
265749.17821530922	84.821784690807249	n/a	917	89	2750	84.8217846908	stim	stop-signal	121	289533	0.0-9.9-1.9	beast_fmri_test	329	287414,/,288093,/,288774,/,289454,/	t,t,t,t	<img class = center src='/static/experiments/beast_fmri_test/images/T.png'></img>	89,71	2750.0	test	<img class = center src='/static/experiments/beast_fmri_test/images/redT.png'></img>	go	2150.0	2.0	9.0	go	target	T	89,Middle Finger	71,Index Finger	600.0	500.0	2150.0	2250.0	1.0	n/a	600.0	1.0	ITI
266435	500	n/a	-1	-1	500	0.0	fixation	poldrack-single-stim	122	290134	0.0-9.10-0.10	beast_fmri_test	329	290133,/	t	<div class = centerbox2><div class = fixation>+</div></div>	none	500.0	test	n/a	n/a	n/a	n/a	n/a	n/a	n/a	n/a	n/a	n/a	n/a	n/a	n/a	n/a	n/a	n/a	n/a	n/a	fixation
265671.23667676462	2750	n/a	811	71	2750	764.763323235	stim	stop-signal	123	292885	0.0-9.10-1.10	beast_fmri_test	329	290813,/,291493,/,292171,/,292852,/,293531,/	t,t,t,t,t	<img class = center src='/static/experiments/beast_fmri_test/images/V.png'></img>	89,71	2750.0	test	<img class = center src='/static/experiments/beast_fmri_test/images/redV.png'></img>	go	2250.0	2.0	10.0	go	non-target	V	89,Middle Finger	71,Index Finger	600.0	500.0	2150.0	2250.0	1.0	n/a	500.0	1.0	go_stim
268421.23667676462	764.76332323540271	n/a	811	71	2750	764.763323235	stim	stop-signal	123	292885	0.0-9.10-1.10	beast_fmri_test	329	290813,/,291493,/,292171,/,292852,/,293531,/	t,t,t,t,t	<img class = center src='/static/experiments/beast_fmri_test/images/V.png'></img>	89,71	2750.0	test	<img class = center src='/static/experiments/beast_fmri_test/images/redV.png'></img>	go	2250.0	2.0	10.0	go	non-target	V	89,Middle Finger	71,Index Finger	600.0	500.0	2150.0	2250.0	1.0	n/a	500.0	1.0	ITI
270469	500	n/a	-1	-1	500	0.0	fixation	poldrack-single-stim	124	294168	0.0-9.11-0.11	beast_fmri_test	329	n/a	n/a	<div class = centerbox2><div class = fixation>+</div></div>	none	500.0	test	n/a	n/a	n/a	n/a	n/a	n/a	n/a	n/a	n/a	n/a	n/a	n/a	n/a	n/a	n/a	n/a	n/a	n/a	fixation
268011.8904003143	2750	n/a	850	89	2750	2460.10959969	stim	stop-signal	125	296921	0.0-9.11-1.11	beast_fmri_test	329	294210,/,294891,/,295571,/,296251,/,296930,/,297611,/,298291,/,298970,/	t,t,t,t,t,t,t,t	<img class = center src='/static/experiments/beast_fmri_test/images/T.png'></img>	89,71	2750.0	test	<img class = center src='/static/experiments/beast_fmri_test/images/redT.png'></img>	go	2150.0	2.0	11.0	go	target	T	89,Middle Finger	71,Index Finger	600.0	500.0	2150.0	2250.0	1.0	n/a	600.0	1.0	go_stim
270761.8904003143	2460.1095996857221	n/a	850	89	2750	2460.10959969	stim	stop-signal	125	296921	0.0-9.11-1.11	beast_fmri_test	329	294210,/,294891,/,295571,/,296251,/,296930,/,297611,/,298291,/,298970,/	t,t,t,t,t,t,t,t	<img class = center src='/static/experiments/beast_fmri_test/images/T.png'></img>	89,71	2750.0	test	<img class = center src='/static/experiments/beast_fmri_test/images/redT.png'></img>	go	2150.0	2.0	11.0	go	target	T	89,Middle Finger	71,Index Finger	600.0	500.0	2150.0	2250.0	1.0	n/a	600.0	1.0	ITI
276201	500	n/a	-1	-1	500	0.0	fixation	poldrack-single-stim	126	299900	0.0-9.12-0.12	beast_fmri_test	329	299649,/	t	<div class = centerbox2><div class = fixation>+</div></div>	none	500.0	test	n/a	n/a	n/a	n/a	n/a	n/a	n/a	n/a	n/a	n/a	n/a	n/a	n/a	n/a	n/a	n/a	n/a	n/a	fixation
273217.00551590201	2750	n/a	735	71	2750	2985.9944841	stim	stop-signal	127	302652	0.0-9.12-1.12	beast_fmri_test	329	300329,/,301008,/,301689,/,302367,/,303047,/,303726,/,304407,/,305087,/	t,t,t,t,t,t,t,t	<img class = center src='/static/experiments/beast_fmri_test/images/B.png'></img>	89,71	2750.0	test	<img class = center src='/static/experiments/beast_fmri_test/images/redB.png'></img>	go	2250.0	2.0	12.0	go	non-target	B	89,Middle Finger	71,Index Finger	600.0	500.0	2150.0	2250.0	1.0	n/a	500.0	1.0	go_stim
275967.00551590201	2985.9944840979606	n/a	735	71	2750	2985.9944841	stim	stop-signal	127	302652	0.0-9.12-1.12	beast_fmri_test	329	300329,/,301008,/,301689,/,302367,/,303047,/,303726,/,304407,/,305087,/	t,t,t,t,t,t,t,t	<img class = center src='/static/experiments/beast_fmri_test/images/B.png'></img>	89,71	2750.0	test	<img class = center src='/static/experiments/beast_fmri_test/images/redB.png'></img>	go	2250.0	2.0	12.0	go	non-target	B	89,Middle Finger	71,Index Finger	600.0	500.0	2150.0	2250.0	1.0	n/a	500.0	1.0	ITI
282456	500	n/a	-1	-1	500	0.0	fixation	poldrack-single-stim	128	306155	0.0-9.13-0.13	beast_fmri_test	329	305767,/	t	<div class = centerbox2><div class = fixation>+</div></div>	none	500.0	test	n/a	n/a	n/a	n/a	n/a	n/a	n/a	n/a	n/a	n/a	n/a	n/a	n/a	n/a	n/a	n/a	n/a	n/a	fixation
282234.2396916119	2750	n/a	859	71	2750	223.760308388	stim	stop-signal	129	308907	0.0-9.13-1.13	beast_fmri_test	329	306447,/,307125,/,307806,/,308485,/	t,t,t,t	<img class = center src='/static/experiments/beast_fmri_test/images/B.png'></img>	89,71	2750.0	test	<img class = center src='/static/experiments/beast_fmri_test/images/redB.png'></img>	go	2250.0	2.0	13.0	go	non-target	B	89,Middle Finger	71,Index Finger	600.0	500.0	2150.0	2250.0	1.0	n/a	500.0	1.0	go_stim
284984.2396916119	223.76030838808327	n/a	859	71	2750	223.760308388	stim	stop-signal	129	308907	0.0-9.13-1.13	beast_fmri_test	329	306447,/,307125,/,307806,/,308485,/	t,t,t,t	<img class = center src='/static/experiments/beast_fmri_test/images/B.png'></img>	89,71	2750.0	test	<img class = center src='/static/experiments/beast_fmri_test/images/redB.png'></img>	go	2250.0	2.0	13.0	go	non-target	B	89,Middle Finger	71,Index Finger	600.0	500.0	2150.0	2250.0	1.0	n/a	500.0	1.0	ITI
285950	500	n/a	-1	-1	500	0.0	fixation	poldrack-single-stim	130	309649	0.0-9.14-0.14	beast_fmri_test	329	309165,/	t	<div class = centerbox2><div class = fixation>+</div></div>	none	500.0	test	n/a	n/a	n/a	n/a	n/a	n/a	n/a	n/a	n/a	n/a	n/a	n/a	n/a	n/a	n/a	n/a	n/a	n/a	fixation
285588.45742102026	500.0	n/a	751	71	2750	364.54257898	stim	stop-signal	131	312402	0.0-9.14-1.14	beast_fmri_test	329	309843,/,310524,/,311203,/,311883,/,312562,/	t,t,t,t,t	<img class = center src='/static/experiments/beast_fmri_test/images/D.png'></img>	89,71	2750.0	test	<img class = center src='/static/experiments/beast_fmri_test/images/redD.png'></img>	stop	2250.0	2.0	14.0	stop	non-target	D	89,Middle Finger	71,Index Finger	600.0	500.0	2150.0	2250.0	0.0	0.0	500.0	n/a	go_stim
287838.45742102026	2250.0	n/a	751	71	2750	364.54257898	stim	stop-signal	131	312402	0.0-9.14-1.14	beast_fmri_test	329	309843,/,310524,/,311203,/,311883,/,312562,/	t,t,t,t,t	<img class = center src='/static/experiments/beast_fmri_test/images/D.png'></img>	89,71	2750.0	test	<img class = center src='/static/experiments/beast_fmri_test/images/redD.png'></img>	stop	2250.0	2.0	14.0	stop	non-target	D	89,Middle Finger	71,Index Finger	600.0	500.0	2150.0	2250.0	0.0	0.0	500.0	n/a	stop_stim
288338.45742102026	364.54257897973838	n/a	751	71	2750	364.54257898	stim	stop-signal	131	312402	0.0-9.14-1.14	beast_fmri_test	329	309843,/,310524,/,311203,/,311883,/,312562,/	t,t,t,t,t	<img class = center src='/static/experiments/beast_fmri_test/images/D.png'></img>	89,71	2750.0	test	<img class = center src='/static/experiments/beast_fmri_test/images/redD.png'></img>	stop	2250.0	2.0	14.0	stop	non-target	D	89,Middle Finger	71,Index Finger	600.0	500.0	2150.0	2250.0	0.0	0.0	500.0	n/a	ITI
289585	500	n/a	-1	-1	500	0.0	fixation	poldrack-single-stim	132	313284	0.0-9.15-0.15	beast_fmri_test	329	313243,/	t	<div class = centerbox2><div class = fixation>+</div></div>	none	500.0	test	n/a	n/a	n/a	n/a	n/a	n/a	n/a	n/a	n/a	n/a	n/a	n/a	n/a	n/a	n/a	n/a	n/a	n/a	fixation
289014.7306016935	450.0	n/a	-1	-1	2750	571.269398306	stim	stop-signal	133	316035	0.0-9.15-1.15	beast_fmri_test	329	313922,/,314603,/,315281,/,315962,/	t,t,t,t	<img class = center src='/static/experiments/beast_fmri_test/images/P.png'></img>	89,71	2750.0	test	<img class = center src='/static/experiments/beast_fmri_test/images/redP.png'></img>	stop	2300.0	2.0	15.0	stop	non-target	P	89,Middle Finger	71,Index Finger	600.0	450.0	2150.0	2300.0	0.0	1.0	450.0	n/a	go_stim
291314.7306016935	2300.0	n/a	-1	-1	2750	571.269398306	stim	stop-signal	133	316035	0.0-9.15-1.15	beast_fmri_test	329	313922,/,314603,/,315281,/,315962,/	t,t,t,t	<img class = center src='/static/experiments/beast_fmri_test/images/P.png'></img>	89,71	2750.0	test	<img class = center src='/static/experiments/beast_fmri_test/images/redP.png'></img>	stop	2300.0	2.0	15.0	stop	non-target	P	89,Middle Finger	71,Index Finger	600.0	450.0	2150.0	2300.0	0.0	1.0	450.0	n/a	stop_stim
291764.7306016935	571.26939830648632	n/a	-1	-1	2750	571.269398306	stim	stop-signal	133	316035	0.0-9.15-1.15	beast_fmri_test	329	313922,/,314603,/,315281,/,315962,/	t,t,t,t	<img class = center src='/static/experiments/beast_fmri_test/images/P.png'></img>	89,71	2750.0	test	<img class = center src='/static/experiments/beast_fmri_test/images/redP.png'></img>	stop	2300.0	2.0	15.0	stop	non-target	P	89,Middle Finger	71,Index Finger	600.0	450.0	2150.0	2300.0	0.0	1.0	450.0	n/a	ITI
293424	500	n/a	-1	-1	500	0.0	fixation	poldrack-single-stim	134	317123	0.0-9.16-0.16	beast_fmri_test	329	316642,/	t	<div class = centerbox2><div class = fixation>+</div></div>	none	500.0	test	n/a	n/a	n/a	n/a	n/a	n/a	n/a	n/a	n/a	n/a	n/a	n/a	n/a	n/a	n/a	n/a	n/a	n/a	fixation
292572.59089639393	2750	n/a	956	71	2750	852.409103606	stim	stop-signal	135	319874	0.0-9.16-1.16	beast_fmri_test	329	317320,/,318001,/,318679,/,319359,/,320039,/,320719,/	t,t,t,t,t,t	<img class = center src='/static/experiments/beast_fmri_test/images/V.png'></img>	89,71	2750.0	test	<img class = center src='/static/experiments/beast_fmri_test/images/redV.png'></img>	go	2250.0	2.0	16.0	go	non-target	V	89,Middle Finger	71,Index Finger	600.0	500.0	2150.0	2250.0	1.0	n/a	500.0	1.0	go_stim
295322.59089639393	852.40910360609416	n/a	956	71	2750	852.409103606	stim	stop-signal	135	319874	0.0-9.16-1.16	beast_fmri_test	329	317320,/,318001,/,318679,/,319359,/,320039,/,320719,/	t,t,t,t,t,t	<img class = center src='/static/experiments/beast_fmri_test/images/V.png'></img>	89,71	2750.0	test	<img class = center src='/static/experiments/beast_fmri_test/images/redV.png'></img>	go	2250.0	2.0	16.0	go	non-target	V	89,Middle Finger	71,Index Finger	600.0	500.0	2150.0	2250.0	1.0	n/a	500.0	1.0	ITI
297544	500	n/a	-1	-1	500	0.0	fixation	poldrack-single-stim	136	321243	0.0-9.17-0.17	beast_fmri_test	329	n/a	n/a	<div class = centerbox2><div class = fixation>+</div></div>	none	500.0	test	n/a	n/a	n/a	n/a	n/a	n/a	n/a	n/a	n/a	n/a	n/a	n/a	n/a	n/a	n/a	n/a	n/a	n/a	fixation
292927.30964333337	500.0	n/a	-1	-1	2750	4617.69035667	stim	stop-signal	137	323994	0.0-9.17-1.17	beast_fmri_test	329	321398,/,322079,/,322757,/,323438,/,324117,/,324798,/,325477,/,326156,/,326836,/,327517,/,328195,/	t,t,t,t,t,t,t,t,t,t,t	<img class = center src='/static/experiments/beast_fmri_test/images/T.png'></img>	89,71	2750.0	test	<img class = center src='/static/experiments/beast_fmri_test/images/redT.png'></img>	stop	2250.0	2.0	17.0	stop	non-target	T	89,Middle Finger	71,Index Finger	600.0	500.0	2150.0	2250.0	0.0	1.0	500.0	n/a	go_stim
295177.30964333337	2250.0	n/a	-1	-1	2750	4617.69035667	stim	stop-signal	137	323994	0.0-9.17-1.17	beast_fmri_test	329	321398,/,322079,/,322757,/,323438,/,324117,/,324798,/,325477,/,326156,/,326836,/,327517,/,328195,/	t,t,t,t,t,t,t,t,t,t,t	<img class = center src='/static/experiments/beast_fmri_test/images/T.png'></img>	89,71	2750.0	test	<img class = center src='/static/experiments/beast_fmri_test/images/redT.png'></img>	stop	2250.0	2.0	17.0	stop	non-target	T	89,Middle Finger	71,Index Finger	600.0	500.0	2150.0	2250.0	0.0	1.0	500.0	n/a	stop_stim
295677.30964333337	4617.6903566666415	n/a	-1	-1	2750	4617.69035667	stim	stop-signal	137	323994	0.0-9.17-1.17	beast_fmri_test	329	321398,/,322079,/,322757,/,323438,/,324117,/,324798,/,325477,/,326156,/,326836,/,327517,/,328195,/	t,t,t,t,t,t,t,t,t,t,t	<img class = center src='/static/experiments/beast_fmri_test/images/T.png'></img>	89,71	2750.0	test	<img class = center src='/static/experiments/beast_fmri_test/images/redT.png'></img>	stop	2250.0	2.0	17.0	stop	non-target	T	89,Middle Finger	71,Index Finger	600.0	500.0	2150.0	2250.0	0.0	1.0	500.0	n/a	ITI
305429	500	n/a	-1	-1	500	0.0	fixation	poldrack-single-stim	138	329128	0.0-9.18-0.18	beast_fmri_test	329	328875,/	t	<div class = centerbox2><div class = fixation>+</div></div>	none	500.0	test	n/a	n/a	n/a	n/a	n/a	n/a	n/a	n/a	n/a	n/a	n/a	n/a	n/a	n/a	n/a	n/a	n/a	n/a	fixation
305424.06595979125	2750	n/a	720	71	2750	5.93404020876	stim	stop-signal	139	331879	0.0-9.18-1.18	beast_fmri_test	329	329556,/,330234,/,330915,/,331594,/	t,t,t,t	<img class = center src='/static/experiments/beast_fmri_test/images/B.png'></img>	89,71	2750.0	test	<img class = center src='/static/experiments/beast_fmri_test/images/redB.png'></img>	go	2200.0	2.0	18.0	go	non-target	B	89,Middle Finger	71,Index Finger	600.0	550.0	2150.0	2200.0	1.0	n/a	550.0	1.0	go_stim
308174.06595979125	5.9340402087582147	n/a	720	71	2750	5.93404020876	stim	stop-signal	139	331879	0.0-9.18-1.18	beast_fmri_test	329	329556,/,330234,/,330915,/,331594,/	t,t,t,t	<img class = center src='/static/experiments/beast_fmri_test/images/B.png'></img>	89,71	2750.0	test	<img class = center src='/static/experiments/beast_fmri_test/images/redB.png'></img>	go	2200.0	2.0	18.0	go	non-target	B	89,Middle Finger	71,Index Finger	600.0	550.0	2150.0	2200.0	1.0	n/a	550.0	1.0	ITI
308705	500	n/a	-1	-1	500	0.0	fixation	poldrack-single-stim	140	332404	0.0-9.19-0.19	beast_fmri_test	329	332275,/	t	<div class = centerbox2><div class = fixation>+</div></div>	none	500.0	test	n/a	n/a	n/a	n/a	n/a	n/a	n/a	n/a	n/a	n/a	n/a	n/a	n/a	n/a	n/a	n/a	n/a	n/a	fixation
306006.97684820276	2750	n/a	2152	71	2750	2698.0231518	stim	stop-signal	141	335154	0.0-9.19-1.19	beast_fmri_test	329	332953,/,333634,/,334312,/,334993,/,335672,/,336352,/,337031,/,337711,/	t,t,t,t,t,t,t,t	<img class = center src='/static/experiments/beast_fmri_test/images/D.png'></img>	89,71	2750.0	test	<img class = center src='/static/experiments/beast_fmri_test/images/redD.png'></img>	go	2200.0	2.0	19.0	go	non-target	D	89,Middle Finger	71,Index Finger	600.0	550.0	2150.0	2200.0	1.0	n/a	550.0	1.0	go_stim
308756.97684820276	2698.0231517972666	n/a	2152	71	2750	2698.0231518	stim	stop-signal	141	335154	0.0-9.19-1.19	beast_fmri_test	329	332953,/,333634,/,334312,/,334993,/,335672,/,336352,/,337031,/,337711,/	t,t,t,t,t,t,t,t	<img class = center src='/static/experiments/beast_fmri_test/images/D.png'></img>	89,71	2750.0	test	<img class = center src='/static/experiments/beast_fmri_test/images/redD.png'></img>	go	2200.0	2.0	19.0	go	non-target	D	89,Middle Finger	71,Index Finger	600.0	550.0	2150.0	2200.0	1.0	n/a	550.0	1.0	ITI
314672	500	n/a	-1	-1	500	0.0	fixation	poldrack-single-stim	142	338371	0.0-9.20-0.20	beast_fmri_test	329	n/a	n/a	<div class = centerbox2><div class = fixation>+</div></div>	none	500.0	test	n/a	n/a	n/a	n/a	n/a	n/a	n/a	n/a	n/a	n/a	n/a	n/a	n/a	n/a	n/a	n/a	n/a	n/a	fixation
313938.31803734927	2750	n/a	1431	71	2750	734.681962651	stim	stop-signal	143	341122	0.0-9.20-1.20	beast_fmri_test	329	338391,/,339070,/,339751,/,340430,/,341110,/,341788,/	t,t,t,t,t,t	<img class = center src='/static/experiments/beast_fmri_test/images/D.png'></img>	89,71	2750.0	test	<img class = center src='/static/experiments/beast_fmri_test/images/redD.png'></img>	go	2200.0	2.0	20.0	go	non-target	D	89,Middle Finger	71,Index Finger	600.0	550.0	2150.0	2200.0	1.0	n/a	550.0	1.0	go_stim
316688.31803734927	734.6819626507488	n/a	1431	71	2750	734.681962651	stim	stop-signal	143	341122	0.0-9.20-1.20	beast_fmri_test	329	338391,/,339070,/,339751,/,340430,/,341110,/,341788,/	t,t,t,t,t,t	<img class = center src='/static/experiments/beast_fmri_test/images/D.png'></img>	89,71	2750.0	test	<img class = center src='/static/experiments/beast_fmri_test/images/redD.png'></img>	go	2200.0	2.0	20.0	go	non-target	D	89,Middle Finger	71,Index Finger	600.0	550.0	2150.0	2200.0	1.0	n/a	550.0	1.0	ITI
318676	500	n/a	-1	-1	500	0.0	fixation	poldrack-single-stim	144	342375	0.0-9.21-0.21	beast_fmri_test	329	n/a	n/a	<div class = centerbox2><div class = fixation>+</div></div>	none	500.0	test	n/a	n/a	n/a	n/a	n/a	n/a	n/a	n/a	n/a	n/a	n/a	n/a	n/a	n/a	n/a	n/a	n/a	n/a	fixation
315525.98851074581	600.0	n/a	733	89	2750	3152.01148925	stim	stop-signal	145	345127	0.0-9.21-1.21	beast_fmri_test	329	342469,/,343148,/,343828,/,344507,/,345189,/,345867,/,346548,/,347226,/,347905,/	t,t,t,t,t,t,t,t,t	<img class = center src='/static/experiments/beast_fmri_test/images/D.png'></img>	89,71	2750.0	test	<img class = center src='/static/experiments/beast_fmri_test/images/redD.png'></img>	stop	2150.0	2.0	21.0	stop	target	D	89,Middle Finger	71,Index Finger	600.0	550.0	2150.0	2200.0	0.0	0.0	600.0	n/a	go_stim
317675.98851074581	2150.0	n/a	733	89	2750	3152.01148925	stim	stop-signal	145	345127	0.0-9.21-1.21	beast_fmri_test	329	342469,/,343148,/,343828,/,344507,/,345189,/,345867,/,346548,/,347226,/,347905,/	t,t,t,t,t,t,t,t,t	<img class = center src='/static/experiments/beast_fmri_test/images/D.png'></img>	89,71	2750.0	test	<img class = center src='/static/experiments/beast_fmri_test/images/redD.png'></img>	stop	2150.0	2.0	21.0	stop	target	D	89,Middle Finger	71,Index Finger	600.0	550.0	2150.0	2200.0	0.0	0.0	600.0	n/a	stop_stim
318275.98851074581	3152.0114892542051	n/a	733	89	2750	3152.01148925	stim	stop-signal	145	345127	0.0-9.21-1.21	beast_fmri_test	329	342469,/,343148,/,343828,/,344507,/,345189,/,345867,/,346548,/,347226,/,347905,/	t,t,t,t,t,t,t,t,t	<img class = center src='/static/experiments/beast_fmri_test/images/D.png'></img>	89,71	2750.0	test	<img class = center src='/static/experiments/beast_fmri_test/images/redD.png'></img>	stop	2150.0	2.0	21.0	stop	target	D	89,Middle Finger	71,Index Finger	600.0	550.0	2150.0	2200.0	0.0	0.0	600.0	n/a	ITI
325099	500	n/a	-1	-1	500	0.0	fixation	poldrack-single-stim	146	348798	0.0-9.22-0.22	beast_fmri_test	329	348586,/	t	<div class = centerbox2><div class = fixation>+</div></div>	none	500.0	test	n/a	n/a	n/a	n/a	n/a	n/a	n/a	n/a	n/a	n/a	n/a	n/a	n/a	n/a	n/a	n/a	n/a	n/a	fixation
324089.90146673418	550.0	n/a	-1	-1	2750	1010.09853327	stim	stop-signal	147	351549	0.0-9.22-1.22	beast_fmri_test	329	349266,/,349946,/,350626,/,351305,/,351983,/	t,t,t,t,t	<img class = center src='/static/experiments/beast_fmri_test/images/B.png'></img>	89,71	2750.0	test	<img class = center src='/static/experiments/beast_fmri_test/images/redB.png'></img>	stop	2200.0	2.0	22.0	stop	non-target	B	89,Middle Finger	71,Index Finger	550.0	550.0	2150.0	2200.0	0.0	1.0	550.0	n/a	go_stim
326289.90146673418	2200.0	n/a	-1	-1	2750	1010.09853327	stim	stop-signal	147	351549	0.0-9.22-1.22	beast_fmri_test	329	349266,/,349946,/,350626,/,351305,/,351983,/	t,t,t,t,t	<img class = center src='/static/experiments/beast_fmri_test/images/B.png'></img>	89,71	2750.0	test	<img class = center src='/static/experiments/beast_fmri_test/images/redB.png'></img>	stop	2200.0	2.0	22.0	stop	non-target	B	89,Middle Finger	71,Index Finger	550.0	550.0	2150.0	2200.0	0.0	1.0	550.0	n/a	stop_stim
