onset	duration	text	rt	key_press	block_duration	timing_post_trial	trial_id	trial_type	trial_index	time_elapsed	internal_node_id	exp_id	subject_id	trigger_times	triggers	stimulus	possible_responses	stim_duration	exp_stage	SS_stimulus	SS_trial_type	SS_duration	load	trial_num	stop_trial_type	adaptive_trial_type	stim	yes_response_key	no_response_key	SSD_target	SSD_non_target	SSTarget	SSNonTarget	go_acc	stop_acc	SS_delay	adaptive_acc	new_trial_type
test	10880.0	n/a	-1	-1	10880	0.0	practice-no-stop-feedback	poldrack-single-stim	392	1060725	0.0-18.0	beast_fmri_test	329	1049849,/,1050526,/,1051207,/,1051887,/,1052566,/,1053246,/,1053925,/,1054605,/,1055284,/,1055964,/,1056644,/,1057323,/,1058002,/,1058684,/,1059362,/,1060041,/,1060722,/	t,t,t,t,t,t,t,t,t,t,t,t,t,t,t,t,t	"<div class = ""centerbox""><p class = ""block-text"">Your delay is 3 trials.</p><p class = block-text>Please wait for the scanner to start the block</p></div>"	77	10880.0	n/a	n/a	n/a	n/a	n/a	n/a	n/a	n/a	n/a	n/a	n/a	n/a	n/a	n/a	n/a	n/a	n/a	n/a	n/a	start_functional_block
11380	500.0	n/a	-1	-1	500	0.0	fixation	poldrack-single-stim	393	1061229	0.0-19.0-0.0	beast_fmri_test	329	n/a	n/a	<div class = centerbox2><div class = fixation>+</div></div>	none	500.0	test	n/a	n/a	n/a	n/a	n/a	n/a	n/a	n/a	n/a	n/a	n/a	n/a	n/a	n/a	n/a	n/a	n/a	n/a	fixation
11245.797139878152	2750.0	n/a	1040	71	2750	136.202860122	stim	stop-signal	394	1063981	0.0-19.0-1.0	beast_fmri_test	329	1061402,/,1062082,/,1062762,/,1063441,/	t,t,t,t	<img class = center src='/static/experiments/beast_fmri_test/images/B.png'></img>	89,71	2750.0	test	<img class = center src='/static/experiments/beast_fmri_test/images/redB.png'></img>	go	-1.0	3.0	0.0	go	temp-non-target	B	89,Middle Finger	71,Index Finger	700.0	800.0	2100.0	1950.0	0.0	n/a	n/a	n/a	go_stim
13995.797139878152	136.202860122	n/a	1040	71	2750	136.202860122	stim	stop-signal	394	1063981	0.0-19.0-1.0	beast_fmri_test	329	1061402,/,1062082,/,1062762,/,1063441,/	t,t,t,t	<img class = center src='/static/experiments/beast_fmri_test/images/B.png'></img>	89,71	2750.0	test	<img class = center src='/static/experiments/beast_fmri_test/images/redB.png'></img>	go	-1.0	3.0	0.0	go	temp-non-target	B	89,Middle Finger	71,Index Finger	700.0	800.0	2100.0	1950.0	0.0	n/a	n/a	n/a	ITI
14816	500.0	n/a	-1	-1	500	0.0	fixation	poldrack-single-stim	395	1064665	0.0-19.1-0.1	beast_fmri_test	329	1064164,/	t	<div class = centerbox2><div class = fixation>+</div></div>	none	500.0	test	n/a	n/a	n/a	n/a	n/a	n/a	n/a	n/a	n/a	n/a	n/a	n/a	n/a	n/a	n/a	n/a	n/a	n/a	fixation
13269.752052092925	2750.0	n/a	1155	71	2750	1547.24794791	stim	stop-signal	396	1067416	0.0-19.1-1.1	beast_fmri_test	329	1064801,/,1065481,/,1066160,/,1066839,/,1067519,/,1068198,/,1068879,/	t,t,t,t,t,t,t	<img class = center src='/static/experiments/beast_fmri_test/images/B.png'></img>	89,71	2750.0	test	<img class = center src='/static/experiments/beast_fmri_test/images/redB.png'></img>	go	-1.0	3.0	1.0	go	temp-non-target	B	89,Middle Finger	71,Index Finger	700.0	800.0	2100.0	1950.0	0.0	n/a	n/a	n/a	go_stim
16019.752052092925	1547.24794791	n/a	1155	71	2750	1547.24794791	stim	stop-signal	396	1067416	0.0-19.1-1.1	beast_fmri_test	329	1064801,/,1065481,/,1066160,/,1066839,/,1067519,/,1068198,/,1068879,/	t,t,t,t,t,t,t	<img class = center src='/static/experiments/beast_fmri_test/images/B.png'></img>	89,71	2750.0	test	<img class = center src='/static/experiments/beast_fmri_test/images/redB.png'></img>	go	-1.0	3.0	1.0	go	temp-non-target	B	89,Middle Finger	71,Index Finger	700.0	800.0	2100.0	1950.0	0.0	n/a	n/a	n/a	ITI
19664	500.0	n/a	-1	-1	500	0.0	fixation	poldrack-single-stim	397	1069513	0.0-19.2-0.2	beast_fmri_test	329	n/a	n/a	<div class = centerbox2><div class = fixation>+</div></div>	none	500.0	test	n/a	n/a	n/a	n/a	n/a	n/a	n/a	n/a	n/a	n/a	n/a	n/a	n/a	n/a	n/a	n/a	n/a	n/a	fixation
19621.140707970597	2750.0	n/a	960	71	2750	44.8592920295	stim	stop-signal	398	1072265	0.0-19.2-1.2	beast_fmri_test	329	1069557,/,1070239,/,1070917,/,1071597,/,1072276,/	t,t,t,t,t	<img class = center src='/static/experiments/beast_fmri_test/images/D.png'></img>	89,71	2750.0	test	<img class = center src='/static/experiments/beast_fmri_test/images/redD.png'></img>	go	-1.0	3.0	2.0	go	temp-non-target	D	89,Middle Finger	71,Index Finger	700.0	800.0	2100.0	1950.0	0.0	n/a	n/a	n/a	go_stim
22371.140707970597	44.8592920295	n/a	960	71	2750	44.8592920295	stim	stop-signal	398	1072265	0.0-19.2-1.2	beast_fmri_test	329	1069557,/,1070239,/,1070917,/,1071597,/,1072276,/	t,t,t,t,t	<img class = center src='/static/experiments/beast_fmri_test/images/D.png'></img>	89,71	2750.0	test	<img class = center src='/static/experiments/beast_fmri_test/images/redD.png'></img>	go	-1.0	3.0	2.0	go	temp-non-target	D	89,Middle Finger	71,Index Finger	700.0	800.0	2100.0	1950.0	0.0	n/a	n/a	n/a	ITI
23011	500.0	n/a	-1	-1	500	0.0	fixation	poldrack-single-stim	399	1072860	0.0-19.3-0.3	beast_fmri_test	329	n/a	n/a	<div class = centerbox2><div class = fixation>+</div></div>	none	500.0	test	n/a	n/a	n/a	n/a	n/a	n/a	n/a	n/a	n/a	n/a	n/a	n/a	n/a	n/a	n/a	n/a	n/a	n/a	fixation
21066.1280488763	2750.0	n/a	970	89	2750	1945.87195112	stim	stop-signal	400	1075611	0.0-19.3-1.3	beast_fmri_test	329	1072957,/,1073637,/,1074316,/,1074996,/,1075674,/,1076355,/,1077035,/	t,t,t,t,t,t,t	<img class = center src='/static/experiments/beast_fmri_test/images/B.png'></img>	89,71	2750.0	test	<img class = center src='/static/experiments/beast_fmri_test/images/redB.png'></img>	go	2050.0	3.0	3.0	go	target	B	89,Middle Finger	71,Index Finger	700.0	800.0	2050.0	1950.0	1.0	n/a	700.0	1.0	go_stim
23816.1280488763	1945.87195112	n/a	970	89	2750	1945.87195112	stim	stop-signal	400	1075611	0.0-19.3-1.3	beast_fmri_test	329	1072957,/,1073637,/,1074316,/,1074996,/,1075674,/,1076355,/,1077035,/	t,t,t,t,t,t,t	<img class = center src='/static/experiments/beast_fmri_test/images/B.png'></img>	89,71	2750.0	test	<img class = center src='/static/experiments/beast_fmri_test/images/redB.png'></img>	go	2050.0	3.0	3.0	go	target	B	89,Middle Finger	71,Index Finger	700.0	800.0	2050.0	1950.0	1.0	n/a	700.0	1.0	ITI
28256	500.0	n/a	-1	-1	500	0.0	fixation	poldrack-single-stim	401	1078105	0.0-19.4-0.4	beast_fmri_test	329	1077715,/	t	<div class = centerbox2><div class = fixation>+</div></div>	none	500.0	test	n/a	n/a	n/a	n/a	n/a	n/a	n/a	n/a	n/a	n/a	n/a	n/a	n/a	n/a	n/a	n/a	n/a	n/a	fixation
28150.236620653654	700.0	n/a	-1	-1	2750	106.763379346	stim	stop-signal	402	1080856	0.0-19.4-1.4	beast_fmri_test	329	1078393,/,1079074,/,1079753,/,1080433,/	t,t,t,t	<img class = center src='/static/experiments/beast_fmri_test/images/B.png'></img>	89,71	2750.0	test	<img class = center src='/static/experiments/beast_fmri_test/images/redB.png'></img>	stop	2050.0	3.0	4.0	stop	target	B	89,Middle Finger	71,Index Finger	700.0	800.0	2050.0	1950.0	0.0	1.0	700.0	n/a	go_stim
30200.236620653654	2050.0	n/a	-1	-1	2750	106.763379346	stim	stop-signal	402	1080856	0.0-19.4-1.4	beast_fmri_test	329	1078393,/,1079074,/,1079753,/,1080433,/	t,t,t,t	<img class = center src='/static/experiments/beast_fmri_test/images/B.png'></img>	89,71	2750.0	test	<img class = center src='/static/experiments/beast_fmri_test/images/redB.png'></img>	stop	2050.0	3.0	4.0	stop	target	B	89,Middle Finger	71,Index Finger	700.0	800.0	2050.0	1950.0	0.0	1.0	700.0	n/a	stop_stim
30900.236620653654	106.763379346	n/a	-1	-1	2750	106.763379346	stim	stop-signal	402	1080856	0.0-19.4-1.4	beast_fmri_test	329	1078393,/,1079074,/,1079753,/,1080433,/	t,t,t,t	<img class = center src='/static/experiments/beast_fmri_test/images/B.png'></img>	89,71	2750.0	test	<img class = center src='/static/experiments/beast_fmri_test/images/redB.png'></img>	stop	2050.0	3.0	4.0	stop	target	B	89,Middle Finger	71,Index Finger	700.0	800.0	2050.0	1950.0	0.0	1.0	700.0	n/a	ITI
31662	500.0	n/a	-1	-1	500	0.0	fixation	poldrack-single-stim	403	1081511	0.0-19.5-0.5	beast_fmri_test	329	1081112,/	t	<div class = centerbox2><div class = fixation>+</div></div>	none	500.0	test	n/a	n/a	n/a	n/a	n/a	n/a	n/a	n/a	n/a	n/a	n/a	n/a	n/a	n/a	n/a	n/a	n/a	n/a	fixation
29307.240952083841	750.0	n/a	-1	-1	2750	2357.75904792	stim	stop-signal	404	1084264	0.0-19.5-1.5	beast_fmri_test	329	1081792,/,1082471,/,1083152,/,1083832,/,1084511,/,1085191,/,1085870,/,1086550,/	t,t,t,t,t,t,t,t	<img class = center src='/static/experiments/beast_fmri_test/images/D.png'></img>	89,71	2750.0	test	<img class = center src='/static/experiments/beast_fmri_test/images/redD.png'></img>	stop	2000.0	3.0	5.0	stop	target	D	89,Middle Finger	71,Index Finger	750.0	800.0	2000.0	1950.0	0.0	1.0	750.0	n/a	go_stim
31307.240952083841	2000.0	n/a	-1	-1	2750	2357.75904792	stim	stop-signal	404	1084264	0.0-19.5-1.5	beast_fmri_test	329	1081792,/,1082471,/,1083152,/,1083832,/,1084511,/,1085191,/,1085870,/,1086550,/	t,t,t,t,t,t,t,t	<img class = center src='/static/experiments/beast_fmri_test/images/D.png'></img>	89,71	2750.0	test	<img class = center src='/static/experiments/beast_fmri_test/images/redD.png'></img>	stop	2000.0	3.0	5.0	stop	target	D	89,Middle Finger	71,Index Finger	750.0	800.0	2000.0	1950.0	0.0	1.0	750.0	n/a	stop_stim
32057.240952083841	2357.75904792	n/a	-1	-1	2750	2357.75904792	stim	stop-signal	404	1084264	0.0-19.5-1.5	beast_fmri_test	329	1081792,/,1082471,/,1083152,/,1083832,/,1084511,/,1085191,/,1085870,/,1086550,/	t,t,t,t,t,t,t,t	<img class = center src='/static/experiments/beast_fmri_test/images/D.png'></img>	89,71	2750.0	test	<img class = center src='/static/experiments/beast_fmri_test/images/redD.png'></img>	stop	2000.0	3.0	5.0	stop	target	D	89,Middle Finger	71,Index Finger	750.0	800.0	2000.0	1950.0	0.0	1.0	750.0	n/a	ITI
37321	500.0	n/a	-1	-1	500	0.0	fixation	poldrack-single-stim	405	1087170	0.0-19.6-0.6	beast_fmri_test	329	n/a	n/a	<div class = centerbox2><div class = fixation>+</div></div>	none	500.0	test	n/a	n/a	n/a	n/a	n/a	n/a	n/a	n/a	n/a	n/a	n/a	n/a	n/a	n/a	n/a	n/a	n/a	n/a	fixation
37112.772987205302	2750.0	n/a	984	71	2750	210.227012795	stim	stop-signal	406	1089922	0.0-19.6-1.6	beast_fmri_test	329	1087229,/,1087910,/,1088589,/,1089269,/,1089948,/	t,t,t,t,t	<img class = center src='/static/experiments/beast_fmri_test/images/D.png'></img>	89,71	2750.0	test	<img class = center src='/static/experiments/beast_fmri_test/images/redD.png'></img>	go	1950.0	3.0	6.0	go	non-target	D	89,Middle Finger	71,Index Finger	800.0	800.0	2000.0	1950.0	1.0	n/a	800.0	1.0	go_stim
39862.772987205302	210.227012795	n/a	984	71	2750	210.227012795	stim	stop-signal	406	1089922	0.0-19.6-1.6	beast_fmri_test	329	1087229,/,1087910,/,1088589,/,1089269,/,1089948,/	t,t,t,t,t	<img class = center src='/static/experiments/beast_fmri_test/images/D.png'></img>	89,71	2750.0	test	<img class = center src='/static/experiments/beast_fmri_test/images/redD.png'></img>	go	1950.0	3.0	6.0	go	non-target	D	89,Middle Finger	71,Index Finger	800.0	800.0	2000.0	1950.0	1.0	n/a	800.0	1.0	ITI
40839	500.0	n/a	-1	-1	500	0.0	fixation	poldrack-single-stim	407	1090688	0.0-19.7-0.7	beast_fmri_test	329	1090630,/	t	<div class = centerbox2><div class = fixation>+</div></div>	none	500.0	test	n/a	n/a	n/a	n/a	n/a	n/a	n/a	n/a	n/a	n/a	n/a	n/a	n/a	n/a	n/a	n/a	n/a	n/a	fixation
40067.440191718983	2750.0	n/a	1341	71	2750	774.559808281	stim	stop-signal	408	1093441	0.0-19.7-1.7	beast_fmri_test	329	1091308,/,1091989,/,1092667,/,1093346,/,1094028,/	t,t,t,t,t	<img class = center src='/static/experiments/beast_fmri_test/images/T.png'></img>	89,71	2750.0	test	<img class = center src='/static/experiments/beast_fmri_test/images/redT.png'></img>	go	1950.0	3.0	7.0	go	non-target	T	89,Middle Finger	71,Index Finger	800.0	800.0	2000.0	1950.0	1.0	n/a	800.0	1.0	go_stim
42817.440191718983	774.559808281	n/a	1341	71	2750	774.559808281	stim	stop-signal	408	1093441	0.0-19.7-1.7	beast_fmri_test	329	1091308,/,1091989,/,1092667,/,1093346,/,1094028,/	t,t,t,t,t	<img class = center src='/static/experiments/beast_fmri_test/images/T.png'></img>	89,71	2750.0	test	<img class = center src='/static/experiments/beast_fmri_test/images/redT.png'></img>	go	1950.0	3.0	7.0	go	non-target	T	89,Middle Finger	71,Index Finger	800.0	800.0	2000.0	1950.0	1.0	n/a	800.0	1.0	ITI
44913	500.0	n/a	-1	-1	500	0.0	fixation	poldrack-single-stim	409	1094762	0.0-19.8-0.8	beast_fmri_test	329	1094707,/	t	<div class = centerbox2><div class = fixation>+</div></div>	none	500.0	test	n/a	n/a	n/a	n/a	n/a	n/a	n/a	n/a	n/a	n/a	n/a	n/a	n/a	n/a	n/a	n/a	n/a	n/a	fixation
44153.276770714205	2750.0	n/a	1169	89	2750	761.723229286	stim	stop-signal	410	1097514	0.0-19.8-1.8	beast_fmri_test	329	1095389,/,1096065,/,1096746,/,1097424,/,1098106,/	t,t,t,t,t	<img class = center src='/static/experiments/beast_fmri_test/images/B.png'></img>	89,71	2750.0	test	<img class = center src='/static/experiments/beast_fmri_test/images/redB.png'></img>	go	1950.0	3.0	8.0	go	non-target	B	89,Middle Finger	71,Index Finger	800.0	800.0	2000.0	1950.0	0.0	n/a	800.0	0.0	go_stim
46903.276770714205	761.723229286	n/a	1169	89	2750	761.723229286	stim	stop-signal	410	1097514	0.0-19.8-1.8	beast_fmri_test	329	1095389,/,1096065,/,1096746,/,1097424,/,1098106,/	t,t,t,t,t	<img class = center src='/static/experiments/beast_fmri_test/images/B.png'></img>	89,71	2750.0	test	<img class = center src='/static/experiments/beast_fmri_test/images/redB.png'></img>	go	1950.0	3.0	8.0	go	non-target	B	89,Middle Finger	71,Index Finger	800.0	800.0	2000.0	1950.0	0.0	n/a	800.0	0.0	ITI
48970	500.0	n/a	-1	-1	500	0.0	fixation	poldrack-single-stim	411	1098819	0.0-19.9-0.9	beast_fmri_test	329	1098784,/	t	<div class = centerbox2><div class = fixation>+</div></div>	none	500.0	test	n/a	n/a	n/a	n/a	n/a	n/a	n/a	n/a	n/a	n/a	n/a	n/a	n/a	n/a	n/a	n/a	n/a	n/a	fixation
46688.33862129366	2750.0	n/a	1211	71	2750	2282.66137871	stim	stop-signal	412	1101570	0.0-19.9-1.9	beast_fmri_test	329	1099465,/,1100143,/,1100824,/,1101502,/,1102184,/,1102863,/,1103543,/	t,t,t,t,t,t,t	<img class = center src='/static/experiments/beast_fmri_test/images/T.png'></img>	89,71	2750.0	test	<img class = center src='/static/experiments/beast_fmri_test/images/redT.png'></img>	go	1950.0	3.0	9.0	go	non-target	T	89,Middle Finger	71,Index Finger	800.0	800.0	2000.0	1950.0	1.0	n/a	800.0	1.0	go_stim
49438.33862129366	2282.66137871	n/a	1211	71	2750	2282.66137871	stim	stop-signal	412	1101570	0.0-19.9-1.9	beast_fmri_test	329	1099465,/,1100143,/,1100824,/,1101502,/,1102184,/,1102863,/,1103543,/	t,t,t,t,t,t,t	<img class = center src='/static/experiments/beast_fmri_test/images/T.png'></img>	89,71	2750.0	test	<img class = center src='/static/experiments/beast_fmri_test/images/redT.png'></img>	go	1950.0	3.0	9.0	go	non-target	T	89,Middle Finger	71,Index Finger	800.0	800.0	2000.0	1950.0	1.0	n/a	800.0	1.0	ITI
54547	500.0	n/a	-1	-1	500	0.0	fixation	poldrack-single-stim	413	1104396	0.0-19.10-0.10	beast_fmri_test	329	1104223,/	t	<div class = centerbox2><div class = fixation>+</div></div>	none	500.0	test	n/a	n/a	n/a	n/a	n/a	n/a	n/a	n/a	n/a	n/a	n/a	n/a	n/a	n/a	n/a	n/a	n/a	n/a	fixation
53383.464929221198	2750.0	n/a	1960	71	2750	1165.53507078	stim	stop-signal	414	1107148	0.0-19.10-1.10	beast_fmri_test	329	1104902,/,1105582,/,1106262,/,1106941,/,1107619,/,1108300,/	t,t,t,t,t,t	<img class = center src='/static/experiments/beast_fmri_test/images/D.png'></img>	89,71	2750.0	test	<img class = center src='/static/experiments/beast_fmri_test/images/redD.png'></img>	go	1950.0	3.0	10.0	go	non-target	D	89,Middle Finger	71,Index Finger	800.0	800.0	2000.0	1950.0	1.0	n/a	800.0	1.0	go_stim
56133.464929221198	1165.53507078	n/a	1960	71	2750	1165.53507078	stim	stop-signal	414	1107148	0.0-19.10-1.10	beast_fmri_test	329	1104902,/,1105582,/,1106262,/,1106941,/,1107619,/,1108300,/	t,t,t,t,t,t	<img class = center src='/static/experiments/beast_fmri_test/images/D.png'></img>	89,71	2750.0	test	<img class = center src='/static/experiments/beast_fmri_test/images/redD.png'></img>	go	1950.0	3.0	10.0	go	non-target	D	89,Middle Finger	71,Index Finger	800.0	800.0	2000.0	1950.0	1.0	n/a	800.0	1.0	ITI
59012	500.0	n/a	-1	-1	500	0.0	fixation	poldrack-single-stim	415	1108861	0.0-19.11-0.11	beast_fmri_test	329	n/a	n/a	<div class = centerbox2><div class = fixation>+</div></div>	none	500.0	test	n/a	n/a	n/a	n/a	n/a	n/a	n/a	n/a	n/a	n/a	n/a	n/a	n/a	n/a	n/a	n/a	n/a	n/a	fixation
58983.287400559988	800.0	n/a	-1	-1	2750	30.7125994401	stim	stop-signal	416	1111613	0.0-19.11-1.11	beast_fmri_test	329	1108980,/,1109660,/,1110338,/,1111019,/	t,t,t,t	<img class = center src='/static/experiments/beast_fmri_test/images/B.png'></img>	89,71	2750.0	test	<img class = center src='/static/experiments/beast_fmri_test/images/redB.png'></img>	stop	1950.0	3.0	11.0	stop	target	B	89,Middle Finger	71,Index Finger	800.0	800.0	1950.0	1950.0	0.0	1.0	800.0	n/a	go_stim
60933.287400559988	1950.0	n/a	-1	-1	2750	30.7125994401	stim	stop-signal	416	1111613	0.0-19.11-1.11	beast_fmri_test	329	1108980,/,1109660,/,1110338,/,1111019,/	t,t,t,t	<img class = center src='/static/experiments/beast_fmri_test/images/B.png'></img>	89,71	2750.0	test	<img class = center src='/static/experiments/beast_fmri_test/images/redB.png'></img>	stop	1950.0	3.0	11.0	stop	target	B	89,Middle Finger	71,Index Finger	800.0	800.0	1950.0	1950.0	0.0	1.0	800.0	n/a	stop_stim
61733.287400559988	30.7125994401	n/a	-1	-1	2750	30.7125994401	stim	stop-signal	416	1111613	0.0-19.11-1.11	beast_fmri_test	329	1108980,/,1109660,/,1110338,/,1111019,/	t,t,t,t	<img class = center src='/static/experiments/beast_fmri_test/images/B.png'></img>	89,71	2750.0	test	<img class = center src='/static/experiments/beast_fmri_test/images/redB.png'></img>	stop	1950.0	3.0	11.0	stop	target	B	89,Middle Finger	71,Index Finger	800.0	800.0	1950.0	1950.0	0.0	1.0	800.0	n/a	ITI
62337	500.0	n/a	-1	-1	500	0.0	fixation	poldrack-single-stim	417	1112186	0.0-19.12-0.12	beast_fmri_test	329	1111698,/	t	<div class = centerbox2><div class = fixation>+</div></div>	none	500.0	test	n/a	n/a	n/a	n/a	n/a	n/a	n/a	n/a	n/a	n/a	n/a	n/a	n/a	n/a	n/a	n/a	n/a	n/a	fixation
61542.308353184024	2750.0	n/a	1486	71	2750	796.691646816	stim	stop-signal	418	1114938	0.0-19.12-1.12	beast_fmri_test	329	1112378,/,1113057,/,1113738,/,1114416,/,1115098,/	t,t,t,t,t	<img class = center src='/static/experiments/beast_fmri_test/images/V.png'></img>	89,71	2750.0	test	<img class = center src='/static/experiments/beast_fmri_test/images/redV.png'></img>	go	1950.0	3.0	12.0	go	non-target	V	89,Middle Finger	71,Index Finger	850.0	800.0	1950.0	1950.0	1.0	n/a	800.0	1.0	go_stim
64292.308353184024	796.691646816	n/a	1486	71	2750	796.691646816	stim	stop-signal	418	1114938	0.0-19.12-1.12	beast_fmri_test	329	1112378,/,1113057,/,1113738,/,1114416,/,1115098,/	t,t,t,t,t	<img class = center src='/static/experiments/beast_fmri_test/images/V.png'></img>	89,71	2750.0	test	<img class = center src='/static/experiments/beast_fmri_test/images/redV.png'></img>	go	1950.0	3.0	12.0	go	non-target	V	89,Middle Finger	71,Index Finger	850.0	800.0	1950.0	1950.0	1.0	n/a	800.0	1.0	ITI
66433	500.0	n/a	-1	-1	500	0.0	fixation	poldrack-single-stim	419	1116282	0.0-19.13-0.13	beast_fmri_test	329	1115780,/	t	<div class = centerbox2><div class = fixation>+</div></div>	none	500.0	test	n/a	n/a	n/a	n/a	n/a	n/a	n/a	n/a	n/a	n/a	n/a	n/a	n/a	n/a	n/a	n/a	n/a	n/a	fixation
66416.213527930668	800.0	n/a	1753	71	2750	17.7864720693	stim	stop-signal	420	1119033	0.0-19.13-1.13	beast_fmri_test	329	1116457,/,1117136,/,1117816,/,1118496,/	t,t,t,t	<img class = center src='/static/experiments/beast_fmri_test/images/B.png'></img>	89,71	2750.0	test	<img class = center src='/static/experiments/beast_fmri_test/images/redB.png'></img>	stop	1950.0	3.0	13.0	stop	non-target	B	89,Middle Finger	71,Index Finger	850.0	800.0	1950.0	1950.0	0.0	0.0	800.0	n/a	go_stim
68366.213527930668	1950.0	n/a	1753	71	2750	17.7864720693	stim	stop-signal	420	1119033	0.0-19.13-1.13	beast_fmri_test	329	1116457,/,1117136,/,1117816,/,1118496,/	t,t,t,t	<img class = center src='/static/experiments/beast_fmri_test/images/B.png'></img>	89,71	2750.0	test	<img class = center src='/static/experiments/beast_fmri_test/images/redB.png'></img>	stop	1950.0	3.0	13.0	stop	non-target	B	89,Middle Finger	71,Index Finger	850.0	800.0	1950.0	1950.0	0.0	0.0	800.0	n/a	stop_stim
69166.213527930668	17.7864720693	n/a	1753	71	2750	17.7864720693	stim	stop-signal	420	1119033	0.0-19.13-1.13	beast_fmri_test	329	1116457,/,1117136,/,1117816,/,1118496,/	t,t,t,t	<img class = center src='/static/experiments/beast_fmri_test/images/B.png'></img>	89,71	2750.0	test	<img class = center src='/static/experiments/beast_fmri_test/images/redB.png'></img>	stop	1950.0	3.0	13.0	stop	non-target	B	89,Middle Finger	71,Index Finger	850.0	800.0	1950.0	1950.0	0.0	0.0	800.0	n/a	ITI
69749	500.0	n/a	-1	-1	500	0.0	fixation	poldrack-single-stim	421	1119598	0.0-19.14-0.14	beast_fmri_test	329	1119175,/	t	<div class = centerbox2><div class = fixation>+</div></div>	none	500.0	test	n/a	n/a	n/a	n/a	n/a	n/a	n/a	n/a	n/a	n/a	n/a	n/a	n/a	n/a	n/a	n/a	n/a	n/a	fixation
69641.491941283923	2750.0	n/a	1311	71	2750	109.508058716	stim	stop-signal	422	1122350	0.0-19.14-1.14	beast_fmri_test	329	1119855,/,1120534,/,1121214,/,1121893,/	t,t,t,t	<img class = center src='/static/experiments/beast_fmri_test/images/D.png'></img>	89,71	2750.0	test	<img class = center src='/static/experiments/beast_fmri_test/images/redD.png'></img>	go	2000.0	3.0	14.0	go	non-target	D	89,Middle Finger	71,Index Finger	850.0	750.0	1950.0	2000.0	1.0	n/a	750.0	1.0	go_stim
72391.491941283923	109.508058716	n/a	1311	71	2750	109.508058716	stim	stop-signal	422	1122350	0.0-19.14-1.14	beast_fmri_test	329	1119855,/,1120534,/,1121214,/,1121893,/	t,t,t,t	<img class = center src='/static/experiments/beast_fmri_test/images/D.png'></img>	89,71	2750.0	test	<img class = center src='/static/experiments/beast_fmri_test/images/redD.png'></img>	go	2000.0	3.0	14.0	go	non-target	D	89,Middle Finger	71,Index Finger	850.0	750.0	1950.0	2000.0	1.0	n/a	750.0	1.0	ITI
73159	500.0	n/a	-1	-1	500	0.0	fixation	poldrack-single-stim	423	1123008	0.0-19.15-0.15	beast_fmri_test	329	1122573,/	t	<div class = centerbox2><div class = fixation>+</div></div>	none	500.0	test	n/a	n/a	n/a	n/a	n/a	n/a	n/a	n/a	n/a	n/a	n/a	n/a	n/a	n/a	n/a	n/a	n/a	n/a	fixation
72785.862535415217	2750.0	n/a	1030	71	2750	374.137464585	stim	stop-signal	424	1125759	0.0-19.15-1.15	beast_fmri_test	329	1123253,/,1123934,/,1124612,/,1125291,/,1125973,/	t,t,t,t,t	<img class = center src='/static/experiments/beast_fmri_test/images/P.png'></img>	89,71	2750.0	test	<img class = center src='/static/experiments/beast_fmri_test/images/redP.png'></img>	go	2000.0	3.0	15.0	go	non-target	P	89,Middle Finger	71,Index Finger	850.0	750.0	1950.0	2000.0	1.0	n/a	750.0	1.0	go_stim
75535.862535415217	374.137464585	n/a	1030	71	2750	374.137464585	stim	stop-signal	424	1125759	0.0-19.15-1.15	beast_fmri_test	329	1123253,/,1123934,/,1124612,/,1125291,/,1125973,/	t,t,t,t,t	<img class = center src='/static/experiments/beast_fmri_test/images/P.png'></img>	89,71	2750.0	test	<img class = center src='/static/experiments/beast_fmri_test/images/redP.png'></img>	go	2000.0	3.0	15.0	go	non-target	P	89,Middle Finger	71,Index Finger	850.0	750.0	1950.0	2000.0	1.0	n/a	750.0	1.0	ITI
76834	500.0	n/a	-1	-1	500	0.0	fixation	poldrack-single-stim	425	1126683	0.0-19.16-0.16	beast_fmri_test	329	1126652,/	t	<div class = centerbox2><div class = fixation>+</div></div>	none	500.0	test	n/a	n/a	n/a	n/a	n/a	n/a	n/a	n/a	n/a	n/a	n/a	n/a	n/a	n/a	n/a	n/a	n/a	n/a	fixation
76163.388207177399	750.0	n/a	-1	-1	2750	670.611792823	stim	stop-signal	426	1129433	0.0-19.16-1.16	beast_fmri_test	329	1127332,/,1128010,/,1128690,/,1129370,/,1130051,/	t,t,t,t,t	<img class = center src='/static/experiments/beast_fmri_test/images/V.png'></img>	89,71	2750.0	test	<img class = center src='/static/experiments/beast_fmri_test/images/redV.png'></img>	stop	2000.0	3.0	16.0	stop	non-target	V	89,Middle Finger	71,Index Finger	850.0	750.0	1950.0	2000.0	0.0	1.0	750.0	n/a	go_stim
78163.388207177399	2000.0	n/a	-1	-1	2750	670.611792823	stim	stop-signal	426	1129433	0.0-19.16-1.16	beast_fmri_test	329	1127332,/,1128010,/,1128690,/,1129370,/,1130051,/	t,t,t,t,t	<img class = center src='/static/experiments/beast_fmri_test/images/V.png'></img>	89,71	2750.0	test	<img class = center src='/static/experiments/beast_fmri_test/images/redV.png'></img>	stop	2000.0	3.0	16.0	stop	non-target	V	89,Middle Finger	71,Index Finger	850.0	750.0	1950.0	2000.0	0.0	1.0	750.0	n/a	stop_stim
78913.388207177399	670.611792823	n/a	-1	-1	2750	670.611792823	stim	stop-signal	426	1129433	0.0-19.16-1.16	beast_fmri_test	329	1127332,/,1128010,/,1128690,/,1129370,/,1130051,/	t,t,t,t,t	<img class = center src='/static/experiments/beast_fmri_test/images/V.png'></img>	89,71	2750.0	test	<img class = center src='/static/experiments/beast_fmri_test/images/redV.png'></img>	stop	2000.0	3.0	16.0	stop	non-target	V	89,Middle Finger	71,Index Finger	850.0	750.0	1950.0	2000.0	0.0	1.0	750.0	n/a	ITI
80804	500.0	n/a	-1	-1	500	0.0	fixation	poldrack-single-stim	427	1130653	0.0-19.17-0.17	beast_fmri_test	329	n/a	n/a	<div class = centerbox2><div class = fixation>+</div></div>	none	500.0	test	n/a	n/a	n/a	n/a	n/a	n/a	n/a	n/a	n/a	n/a	n/a	n/a	n/a	n/a	n/a	n/a	n/a	n/a	fixation
79438.946190675488	800.0	n/a	1010	71	2750	1367.05380932	stim	stop-signal	428	1133405	0.0-19.17-1.17	beast_fmri_test	329	1130730,/,1131410,/,1132090,/,1132769,/,1133449,/,1134127,/	t,t,t,t,t,t	<img class = center src='/static/experiments/beast_fmri_test/images/T.png'></img>	89,71	2750.0	test	<img class = center src='/static/experiments/beast_fmri_test/images/redT.png'></img>	stop	1950.0	3.0	17.0	stop	non-target	T	89,Middle Finger	71,Index Finger	850.0	800.0	1950.0	1950.0	0.0	0.0	800.0	n/a	go_stim
81388.946190675488	1950.0	n/a	1010	71	2750	1367.05380932	stim	stop-signal	428	1133405	0.0-19.17-1.17	beast_fmri_test	329	1130730,/,1131410,/,1132090,/,1132769,/,1133449,/,1134127,/	t,t,t,t,t,t	<img class = center src='/static/experiments/beast_fmri_test/images/T.png'></img>	89,71	2750.0	test	<img class = center src='/static/experiments/beast_fmri_test/images/redT.png'></img>	stop	1950.0	3.0	17.0	stop	non-target	T	89,Middle Finger	71,Index Finger	850.0	800.0	1950.0	1950.0	0.0	0.0	800.0	n/a	stop_stim
82188.946190675488	1367.05380932	n/a	1010	71	2750	1367.05380932	stim	stop-signal	428	1133405	0.0-19.17-1.17	beast_fmri_test	329	1130730,/,1131410,/,1132090,/,1132769,/,1133449,/,1134127,/	t,t,t,t,t,t	<img class = center src='/static/experiments/beast_fmri_test/images/T.png'></img>	89,71	2750.0	test	<img class = center src='/static/experiments/beast_fmri_test/images/redT.png'></img>	stop	1950.0	3.0	17.0	stop	non-target	T	89,Middle Finger	71,Index Finger	850.0	800.0	1950.0	1950.0	0.0	0.0	800.0	n/a	ITI
85473	500.0	n/a	-1	-1	500	0.0	fixation	poldrack-single-stim	429	1135322	0.0-19.18-0.18	beast_fmri_test	329	1134821,/	t	<div class = centerbox2><div class = fixation>+</div></div>	none	500.0	test	n/a	n/a	n/a	n/a	n/a	n/a	n/a	n/a	n/a	n/a	n/a	n/a	n/a	n/a	n/a	n/a	n/a	n/a	fixation
83229.247693316545	2750.0	n/a	1604	71	2750	2244.75230668	stim	stop-signal	430	1138073	0.0-19.18-1.18	beast_fmri_test	329	1135488,/,1136168,/,1136847,/,1137527,/,1138205,/,1138885,/,1139565,/,1140245,/	t,t,t,t,t,t,t,t	<img class = center src='/static/experiments/beast_fmri_test/images/P.png'></img>	89,71	2750.0	test	<img class = center src='/static/experiments/beast_fmri_test/images/redP.png'></img>	go	1900.0	3.0	18.0	go	target	P	89,Middle Finger	71,Index Finger	850.0	750.0	1900.0	1950.0	0.0	n/a	850.0	0.0	go_stim
85979.247693316545	2244.75230668	n/a	1604	71	2750	2244.75230668	stim	stop-signal	430	1138073	0.0-19.18-1.18	beast_fmri_test	329	1135488,/,1136168,/,1136847,/,1137527,/,1138205,/,1138885,/,1139565,/,1140245,/	t,t,t,t,t,t,t,t	<img class = center src='/static/experiments/beast_fmri_test/images/P.png'></img>	89,71	2750.0	test	<img class = center src='/static/experiments/beast_fmri_test/images/redP.png'></img>	go	1900.0	3.0	18.0	go	target	P	89,Middle Finger	71,Index Finger	850.0	750.0	1900.0	1950.0	0.0	n/a	850.0	0.0	ITI
91017	500.0	n/a	-1	-1	500	0.0	fixation	poldrack-single-stim	431	1140866	0.0-19.19-0.19	beast_fmri_test	329	n/a	n/a	<div class = centerbox2><div class = fixation>+</div></div>	none	500.0	test	n/a	n/a	n/a	n/a	n/a	n/a	n/a	n/a	n/a	n/a	n/a	n/a	n/a	n/a	n/a	n/a	n/a	n/a	fixation
89409.984798097517	2750.0	n/a	848	71	2750	1608.0152019	stim	stop-signal	432	1143617	0.0-19.19-1.19	beast_fmri_test	329	1140924,/,1141604,/,1142284,/,1142963,/,1143644,/,1144322,/,1145003,/	t,t,t,t,t,t,t	<img class = center src='/static/experiments/beast_fmri_test/images/V.png'></img>	89,71	2750.0	test	<img class = center src='/static/experiments/beast_fmri_test/images/redV.png'></img>	go	1900.0	3.0	19.0	go	target	V	89,Middle Finger	71,Index Finger	850.0	750.0	1900.0	1950.0	0.0	n/a	850.0	0.0	go_stim
92159.984798097517	1608.0152019	n/a	848	71	2750	1608.0152019	stim	stop-signal	432	1143617	0.0-19.19-1.19	beast_fmri_test	329	1140924,/,1141604,/,1142284,/,1142963,/,1143644,/,1144322,/,1145003,/	t,t,t,t,t,t,t	<img class = center src='/static/experiments/beast_fmri_test/images/V.png'></img>	89,71	2750.0	test	<img class = center src='/static/experiments/beast_fmri_test/images/redV.png'></img>	go	1900.0	3.0	19.0	go	target	V	89,Middle Finger	71,Index Finger	850.0	750.0	1900.0	1950.0	0.0	n/a	850.0	0.0	ITI
95927	500.0	n/a	-1	-1	500	0.0	fixation	poldrack-single-stim	433	1145776	0.0-19.20-0.20	beast_fmri_test	329	1145682,/	t	<div class = centerbox2><div class = fixation>+</div></div>	none	500.0	test	n/a	n/a	n/a	n/a	n/a	n/a	n/a	n/a	n/a	n/a	n/a	n/a	n/a	n/a	n/a	n/a	n/a	n/a	fixation
95852.353994940175	2750.0	n/a	1137	71	2750	76.6460050598	stim	stop-signal	434	1148528	0.0-19.20-1.20	beast_fmri_test	329	1146363,/,1147042,/,1147722,/,1148401,/	t,t,t,t	<img class = center src='/static/experiments/beast_fmri_test/images/T.png'></img>	89,71	2750.0	test	<img class = center src='/static/experiments/beast_fmri_test/images/redT.png'></img>	go	1900.0	3.0	20.0	go	target	T	89,Middle Finger	71,Index Finger	850.0	750.0	1900.0	1950.0	0.0	n/a	850.0	0.0	go_stim
98602.353994940175	76.6460050598	n/a	1137	71	2750	76.6460050598	stim	stop-signal	434	1148528	0.0-19.20-1.20	beast_fmri_test	329	1146363,/,1147042,/,1147722,/,1148401,/	t,t,t,t	<img class = center src='/static/experiments/beast_fmri_test/images/T.png'></img>	89,71	2750.0	test	<img class = center src='/static/experiments/beast_fmri_test/images/redT.png'></img>	go	1900.0	3.0	20.0	go	target	T	89,Middle Finger	71,Index Finger	850.0	750.0	1900.0	1950.0	0.0	n/a	850.0	0.0	ITI
99311	500.0	n/a	-1	-1	500	0.0	fixation	poldrack-single-stim	435	1149160	0.0-19.21-0.21	beast_fmri_test	329	1149083,/	t	<div class = centerbox2><div class = fixation>+</div></div>	none	500.0	test	n/a	n/a	n/a	n/a	n/a	n/a	n/a	n/a	n/a	n/a	n/a	n/a	n/a	n/a	n/a	n/a	n/a	n/a	fixation
98792.595778493676	2750.0	n/a	1136	89	2750	520.404221506	stim	stop-signal	436	1151912	0.0-19.21-1.21	beast_fmri_test	329	1149762,/,1150441,/,1151121,/,1151801,/	t,t,t,t	<img class = center src='/static/experiments/beast_fmri_test/images/P.png'></img>	89,71	2750.0	test	<img class = center src='/static/experiments/beast_fmri_test/images/redP.png'></img>	go	1900.0	3.0	21.0	go	target	P	89,Middle Finger	71,Index Finger	850.0	750.0	1900.0	1950.0	1.0	n/a	850.0	1.0	go_stim
101542.59577849368	520.404221506	n/a	1136	89	2750	520.404221506	stim	stop-signal	436	1151912	0.0-19.21-1.21	beast_fmri_test	329	1149762,/,1150441,/,1151121,/,1151801,/	t,t,t,t	<img class = center src='/static/experiments/beast_fmri_test/images/P.png'></img>	89,71	2750.0	test	<img class = center src='/static/experiments/beast_fmri_test/images/redP.png'></img>	go	1900.0	3.0	21.0	go	target	P	89,Middle Finger	71,Index Finger	850.0	750.0	1900.0	1950.0	1.0	n/a	850.0	1.0	ITI
103133	500.0	n/a	-1	-1	500	0.0	fixation	poldrack-single-stim	437	1152982	0.0-19.22-0.22	beast_fmri_test	329	1152481,/	t	<div class = centerbox2><div class = fixation>+</div></div>	none	500.0	test	n/a	n/a	n/a	n/a	n/a	n/a	n/a	n/a	n/a	n/a	n/a	n/a	n/a	n/a	n/a	n/a	n/a	n/a	fixation
101896.08111387328	2750.0	n/a	1180	71	2750	1237.91888613	stim	stop-signal	438	1155733	0.0-19.22-1.22	beast_fmri_test	329	1153159,/,1153840,/,1154518,/,1155199,/,1155878,/,1156558,/	t,t,t,t,t,t	<img class = center src='/static/experiments/beast_fmri_test/images/P.png'></img>	89,71	2750.0	test	<img class = center src='/static/experiments/beast_fmri_test/images/redP.png'></img>	go	2000.0	3.0	22.0	go	non-target	P	89,Middle Finger	71,Index Finger	850.0	750.0	1900.0	2000.0	1.0	n/a	750.0	1.0	go_stim
104646.08111387328	1237.91888613	n/a	1180	71	2750	1237.91888613	stim	stop-signal	438	1155733	0.0-19.22-1.22	beast_fmri_test	329	1153159,/,1153840,/,1154518,/,1155199,/,1155878,/,1156558,/	t,t,t,t,t,t	<img class = center src='/static/experiments/beast_fmri_test/images/P.png'></img>	89,71	2750.0	test	<img class = center src='/static/experiments/beast_fmri_test/images/redP.png'></img>	go	2000.0	3.0	22.0	go	non-target	P	89,Middle Finger	71,Index Finger	850.0	750.0	1900.0	2000.0	1.0	n/a	750.0	1.0	ITI
107671	500.0	n/a	-1	-1	500	0.0	fixation	poldrack-single-stim	439	1157520	0.0-19.23-0.23	beast_fmri_test	329	1157237,/	t	<div class = centerbox2><div class = fixation>+</div></div>	none	500.0	test	n/a	n/a	n/a	n/a	n/a	n/a	n/a	n/a	n/a	n/a	n/a	n/a	n/a	n/a	n/a	n/a	n/a	n/a	fixation
107527.11272835522	2750.0	n/a	1519	71	2750	144.887271645	stim	stop-signal	440	1160271	0.0-19.23-1.23	beast_fmri_test	329	1157918,/,1158597,/,1159276,/,1159956,/	t,t,t,t	<img class = center src='/static/experiments/beast_fmri_test/images/V.png'></img>	89,71	2750.0	test	<img class = center src='/static/experiments/beast_fmri_test/images/redV.png'></img>	go	2000.0	3.0	23.0	go	non-target	V	89,Middle Finger	71,Index Finger	850.0	750.0	1900.0	2000.0	1.0	n/a	750.0	1.0	go_stim
110277.11272835522	144.887271645	n/a	1519	71	2750	144.887271645	stim	stop-signal	440	1160271	0.0-19.23-1.23	beast_fmri_test	329	1157918,/,1158597,/,1159276,/,1159956,/	t,t,t,t	<img class = center src='/static/experiments/beast_fmri_test/images/V.png'></img>	89,71	2750.0	test	<img class = center src='/static/experiments/beast_fmri_test/images/redV.png'></img>	go	2000.0	3.0	23.0	go	non-target	V	89,Middle Finger	71,Index Finger	850.0	750.0	1900.0	2000.0	1.0	n/a	750.0	1.0	ITI
111113	500.0	n/a	-1	-1	500	0.0	fixation	poldrack-single-stim	441	1160962	0.0-19.24-0.24	beast_fmri_test	329	1160635,/	t	<div class = centerbox2><div class = fixation>+</div></div>	none	500.0	test	n/a	n/a	n/a	n/a	n/a	n/a	n/a	n/a	n/a	n/a	n/a	n/a	n/a	n/a	n/a	n/a	n/a	n/a	fixation
111049.95248313528	2750.0	n/a	1069	71	2750	65.0475168647	stim	stop-signal	442	1163714	0.0-19.24-1.24	beast_fmri_test	329	1161316,/,1161996,/,1162675,/,1163353,/	t,t,t,t	<img class = center src='/static/experiments/beast_fmri_test/images/B.png'></img>	89,71	2750.0	test	<img class = center src='/static/experiments/beast_fmri_test/images/redB.png'></img>	go	2000.0	3.0	24.0	go	non-target	B	89,Middle Finger	71,Index Finger	850.0	750.0	1900.0	2000.0	1.0	n/a	750.0	1.0	go_stim
113799.95248313528	65.0475168647	n/a	1069	71	2750	65.0475168647	stim	stop-signal	442	1163714	0.0-19.24-1.24	beast_fmri_test	329	1161316,/,1161996,/,1162675,/,1163353,/	t,t,t,t	<img class = center src='/static/experiments/beast_fmri_test/images/B.png'></img>	89,71	2750.0	test	<img class = center src='/static/experiments/beast_fmri_test/images/redB.png'></img>	go	2000.0	3.0	24.0	go	non-target	B	89,Middle Finger	71,Index Finger	850.0	750.0	1900.0	2000.0	1.0	n/a	750.0	1.0	ITI
114477	500.0	n/a	-1	-1	500	0.0	fixation	poldrack-single-stim	443	1164326	0.0-19.25-0.25	beast_fmri_test	329	1164034,/	t	<div class = centerbox2><div class = fixation>+</div></div>	none	500.0	test	n/a	n/a	n/a	n/a	n/a	n/a	n/a	n/a	n/a	n/a	n/a	n/a	n/a	n/a	n/a	n/a	n/a	n/a	fixation
113447.72133792494	850.0	n/a	-1	-1	2750	1031.27866207	stim	stop-signal	444	1167078	0.0-19.25-1.25	beast_fmri_test	329	1164715,/,1165394,/,1166073,/,1166753,/,1167431,/	t,t,t,t,t	<img class = center src='/static/experiments/beast_fmri_test/images/P.png'></img>	89,71	2750.0	test	<img class = center src='/static/experiments/beast_fmri_test/images/redP.png'></img>	stop	1900.0	3.0	25.0	stop	target	P	89,Middle Finger	71,Index Finger	850.0	750.0	1900.0	2000.0	0.0	1.0	850.0	n/a	go_stim
115347.72133792494	1900.0	n/a	-1	-1	2750	1031.27866207	stim	stop-signal	444	1167078	0.0-19.25-1.25	beast_fmri_test	329	1164715,/,1165394,/,1166073,/,1166753,/,1167431,/	t,t,t,t,t	<img class = center src='/static/experiments/beast_fmri_test/images/P.png'></img>	89,71	2750.0	test	<img class = center src='/static/experiments/beast_fmri_test/images/redP.png'></img>	stop	1900.0	3.0	25.0	stop	target	P	89,Middle Finger	71,Index Finger	850.0	750.0	1900.0	2000.0	0.0	1.0	850.0	n/a	stop_stim
116197.72133792494	1031.27866207	n/a	-1	-1	2750	1031.27866207	stim	stop-signal	444	1167078	0.0-19.25-1.25	beast_fmri_test	329	1164715,/,1165394,/,1166073,/,1166753,/,1167431,/	t,t,t,t,t	<img class = center src='/static/experiments/beast_fmri_test/images/P.png'></img>	89,71	2750.0	test	<img class = center src='/static/experiments/beast_fmri_test/images/redP.png'></img>	stop	1900.0	3.0	25.0	stop	target	P	89,Middle Finger	71,Index Finger	850.0	750.0	1900.0	2000.0	0.0	1.0	850.0	n/a	ITI
118815	500.0	n/a	-1	-1	500	0.0	fixation	poldrack-single-stim	445	1168664	0.0-19.26-0.26	beast_fmri_test	329	1168163,/	t	<div class = centerbox2><div class = fixation>+</div></div>	none	500.0	test	n/a	n/a	n/a	n/a	n/a	n/a	n/a	n/a	n/a	n/a	n/a	n/a	n/a	n/a	n/a	n/a	n/a	n/a	fixation
118333.86647485942	2750.0	n/a	670	89	2750	482.133525141	stim	stop-signal	446	1171415	0.0-19.26-1.26	beast_fmri_test	329	1168791,/,1169471,/,1170152,/,1170830,/,1171511,/	t,t,t,t,t	<img class = center src='/static/experiments/beast_fmri_test/images/V.png'></img>	89,71	2750.0	test	<img class = center src='/static/experiments/beast_fmri_test/images/redV.png'></img>	go	1850.0	3.0	26.0	go	target	V	89,Middle Finger	71,Index Finger	900.0	750.0	1850.0	2000.0	1.0	n/a	900.0	1.0	go_stim
121083.86647485942	482.133525141	n/a	670	89	2750	482.133525141	stim	stop-signal	446	1171415	0.0-19.26-1.26	beast_fmri_test	329	1168791,/,1169471,/,1170152,/,1170830,/,1171511,/	t,t,t,t,t	<img class = center src='/static/experiments/beast_fmri_test/images/V.png'></img>	89,71	2750.0	test	<img class = center src='/static/experiments/beast_fmri_test/images/redV.png'></img>	go	1850.0	3.0	26.0	go	target	V	89,Middle Finger	71,Index Finger	900.0	750.0	1850.0	2000.0	1.0	n/a	900.0	1.0	ITI
122594	500.0	n/a	-1	-1	500	0.0	fixation	poldrack-single-stim	447	1172443	0.0-19.27-0.27	beast_fmri_test	329	1172190,/	t	<div class = centerbox2><div class = fixation>+</div></div>	none	500.0	test	n/a	n/a	n/a	n/a	n/a	n/a	n/a	n/a	n/a	n/a	n/a	n/a	n/a	n/a	n/a	n/a	n/a	n/a	fixation
122268.38172271335	2750.0	n/a	1914	71	2750	328.618277287	stim	stop-signal	448	1175196	0.0-19.27-1.27	beast_fmri_test	329	1172869,/,1173550,/,1174230,/,1174910,/	t,t,t,t	<img class = center src='/static/experiments/beast_fmri_test/images/P.png'></img>	89,71	2750.0	test	<img class = center src='/static/experiments/beast_fmri_test/images/redP.png'></img>	go	2000.0	3.0	27.0	go	non-target	P	89,Middle Finger	71,Index Finger	900.0	750.0	1850.0	2000.0	1.0	n/a	750.0	1.0	go_stim
125018.38172271335	328.618277287	n/a	1914	71	2750	328.618277287	stim	stop-signal	448	1175196	0.0-19.27-1.27	beast_fmri_test	329	1172869,/,1173550,/,1174230,/,1174910,/	t,t,t,t	<img class = center src='/static/experiments/beast_fmri_test/images/P.png'></img>	89,71	2750.0	test	<img class = center src='/static/experiments/beast_fmri_test/images/redP.png'></img>	go	2000.0	3.0	27.0	go	non-target	P	89,Middle Finger	71,Index Finger	900.0	750.0	1850.0	2000.0	1.0	n/a	750.0	1.0	ITI
126225	500.0	n/a	-1	-1	500	0.0	fixation	poldrack-single-stim	449	1176074	0.0-19.28-0.28	beast_fmri_test	329	1175592,/	t	<div class = centerbox2><div class = fixation>+</div></div>	none	500.0	test	n/a	n/a	n/a	n/a	n/a	n/a	n/a	n/a	n/a	n/a	n/a	n/a	n/a	n/a	n/a	n/a	n/a	n/a	fixation
124757.96773501625	900.0	n/a	1054	71	2750	1469.03226498	stim	stop-signal	450	1178826	0.0-19.28-1.28	beast_fmri_test	329	1176270,/,1176948,/,1177628,/,1178307,/,1178988,/,1179667,/	t,t,t,t,t,t	<img class = center src='/static/experiments/beast_fmri_test/images/P.png'></img>	89,71	2750.0	test	<img class = center src='/static/experiments/beast_fmri_test/images/redP.png'></img>	stop	1850.0	3.0	28.0	stop	target	P	89,Middle Finger	71,Index Finger	900.0	750.0	1850.0	2000.0	0.0	0.0	900.0	n/a	go_stim
126607.96773501625	1850.0	n/a	1054	71	2750	1469.03226498	stim	stop-signal	450	1178826	0.0-19.28-1.28	beast_fmri_test	329	1176270,/,1176948,/,1177628,/,1178307,/,1178988,/,1179667,/	t,t,t,t,t,t	<img class = center src='/static/experiments/beast_fmri_test/images/P.png'></img>	89,71	2750.0	test	<img class = center src='/static/experiments/beast_fmri_test/images/redP.png'></img>	stop	1850.0	3.0	28.0	stop	target	P	89,Middle Finger	71,Index Finger	900.0	750.0	1850.0	2000.0	0.0	0.0	900.0	n/a	stop_stim
127507.96773501625	1469.03226498	n/a	1054	71	2750	1469.03226498	stim	stop-signal	450	1178826	0.0-19.28-1.28	beast_fmri_test	329	1176270,/,1176948,/,1177628,/,1178307,/,1178988,/,1179667,/	t,t,t,t,t,t	<img class = center src='/static/experiments/beast_fmri_test/images/P.png'></img>	89,71	2750.0	test	<img class = center src='/static/experiments/beast_fmri_test/images/redP.png'></img>	stop	1850.0	3.0	28.0	stop	target	P	89,Middle Finger	71,Index Finger	900.0	750.0	1850.0	2000.0	0.0	0.0	900.0	n/a	ITI
130998	500.0	n/a	-1	-1	500	0.0	fixation	poldrack-single-stim	451	1180847	0.0-19.29-0.29	beast_fmri_test	329	1180346,/	t	<div class = centerbox2><div class = fixation>+</div></div>	none	500.0	test	n/a	n/a	n/a	n/a	n/a	n/a	n/a	n/a	n/a	n/a	n/a	n/a	n/a	n/a	n/a	n/a	n/a	n/a	fixation
130301.00509759109	2750.0	n/a	645	71	2750	698.994902409	stim	stop-signal	452	1183599	0.0-19.29-1.29	beast_fmri_test	329	1181026,/,1181707,/,1182386,/,1183067,/,1183746,/	t,t,t,t,t	<img class = center src='/static/experiments/beast_fmri_test/images/V.png'></img>	89,71	2750.0	test	<img class = center src='/static/experiments/beast_fmri_test/images/redV.png'></img>	go	1900.0	3.0	29.0	go	target	V	89,Middle Finger	71,Index Finger	850.0	750.0	1900.0	2000.0	0.0	n/a	850.0	0.0	go_stim
133051.00509759109	698.994902409	n/a	645	71	2750	698.994902409	stim	stop-signal	452	1183599	0.0-19.29-1.29	beast_fmri_test	329	1181026,/,1181707,/,1182386,/,1183067,/,1183746,/	t,t,t,t,t	<img class = center src='/static/experiments/beast_fmri_test/images/V.png'></img>	89,71	2750.0	test	<img class = center src='/static/experiments/beast_fmri_test/images/redV.png'></img>	go	1900.0	3.0	29.0	go	target	V	89,Middle Finger	71,Index Finger	850.0	750.0	1900.0	2000.0	0.0	n/a	850.0	0.0	ITI
135007	500.0	n/a	-1	-1	500	0.0	fixation	poldrack-single-stim	453	1184856	0.0-19.30-0.30	beast_fmri_test	329	1184424,/	t	<div class = centerbox2><div class = fixation>+</div></div>	none	500.0	test	n/a	n/a	n/a	n/a	n/a	n/a	n/a	n/a	n/a	n/a	n/a	n/a	n/a	n/a	n/a	n/a	n/a	n/a	fixation
133067.86086835549	750.0	n/a	1382	71	2750	1940.13913164	stim	stop-signal	454	1187607	0.0-19.30-1.30	beast_fmri_test	329	1185105,/,1185785,/,1186465,/,1187143,/,1187824,/,1188502,/,1189183,/	t,t,t,t,t,t,t	<img class = center src='/static/experiments/beast_fmri_test/images/B.png'></img>	89,71	2750.0	test	<img class = center src='/static/experiments/beast_fmri_test/images/redB.png'></img>	stop	2000.0	3.0	30.0	stop	non-target	B	89,Middle Finger	71,Index Finger	850.0	750.0	1900.0	2000.0	0.0	0.0	750.0	n/a	go_stim
135067.86086835549	2000.0	n/a	1382	71	2750	1940.13913164	stim	stop-signal	454	1187607	0.0-19.30-1.30	beast_fmri_test	329	1185105,/,1185785,/,1186465,/,1187143,/,1187824,/,1188502,/,1189183,/	t,t,t,t,t,t,t	<img class = center src='/static/experiments/beast_fmri_test/images/B.png'></img>	89,71	2750.0	test	<img class = center src='/static/experiments/beast_fmri_test/images/redB.png'></img>	stop	2000.0	3.0	30.0	stop	non-target	B	89,Middle Finger	71,Index Finger	850.0	750.0	1900.0	2000.0	0.0	0.0	750.0	n/a	stop_stim
135817.86086835549	1940.13913164	n/a	1382	71	2750	1940.13913164	stim	stop-signal	454	1187607	0.0-19.30-1.30	beast_fmri_test	329	1185105,/,1185785,/,1186465,/,1187143,/,1187824,/,1188502,/,1189183,/	t,t,t,t,t,t,t	<img class = center src='/static/experiments/beast_fmri_test/images/B.png'></img>	89,71	2750.0	test	<img class = center src='/static/experiments/beast_fmri_test/images/redB.png'></img>	stop	2000.0	3.0	30.0	stop	non-target	B	89,Middle Finger	71,Index Finger	850.0	750.0	1900.0	2000.0	0.0	0.0	750.0	n/a	ITI
140254	500.0	n/a	-1	-1	500	0.0	fixation	poldrack-single-stim	455	1190103	0.0-19.31-0.31	beast_fmri_test	329	1189862,/	t	<div class = centerbox2><div class = fixation>+</div></div>	none	500.0	test	n/a	n/a	n/a	n/a	n/a	n/a	n/a	n/a	n/a	n/a	n/a	n/a	n/a	n/a	n/a	n/a	n/a	n/a	fixation
139672.07526321802	2750.0	n/a	884	71	2750	582.924736782	stim	stop-signal	456	1192854	0.0-19.31-1.31	beast_fmri_test	329	1190542,/,1191221,/,1191901,/,1192580,/,1193261,/	t,t,t,t,t	<img class = center src='/static/experiments/beast_fmri_test/images/P.png'></img>	89,71	2750.0	test	<img class = center src='/static/experiments/beast_fmri_test/images/redP.png'></img>	go	1900.0	3.0	31.0	go	target	P	89,Middle Finger	71,Index Finger	850.0	700.0	1900.0	2000.0	0.0	n/a	850.0	0.0	go_stim
142422.07526321802	582.924736782	n/a	884	71	2750	582.924736782	stim	stop-signal	456	1192854	0.0-19.31-1.31	beast_fmri_test	329	1190542,/,1191221,/,1191901,/,1192580,/,1193261,/	t,t,t,t,t	<img class = center src='/static/experiments/beast_fmri_test/images/P.png'></img>	89,71	2750.0	test	<img class = center src='/static/experiments/beast_fmri_test/images/redP.png'></img>	go	1900.0	3.0	31.0	go	target	P	89,Middle Finger	71,Index Finger	850.0	700.0	1900.0	2000.0	0.0	n/a	850.0	0.0	ITI
144142	500.0	n/a	-1	-1	500	0.0	fixation	poldrack-single-stim	457	1193991	0.0-19.32-0.32	beast_fmri_test	329	1193940,/	t	<div class = centerbox2><div class = fixation>+</div></div>	none	500.0	test	n/a	n/a	n/a	n/a	n/a	n/a	n/a	n/a	n/a	n/a	n/a	n/a	n/a	n/a	n/a	n/a	n/a	n/a	fixation
142476.63821457373	700.0	n/a	-1	-1	2750	1666.36178543	stim	stop-signal	458	1196742	0.0-19.32-1.32	beast_fmri_test	329	1194620,/,1195300,/,1195980,/,1196660,/,1197339,/,1198019,/	t,t,t,t,t,t	<img class = center src='/static/experiments/beast_fmri_test/images/D.png'></img>	89,71	2750.0	test	<img class = center src='/static/experiments/beast_fmri_test/images/redD.png'></img>	stop	2050.0	3.0	32.0	stop	non-target	D	89,Middle Finger	71,Index Finger	850.0	700.0	1900.0	2050.0	0.0	1.0	700.0	n/a	go_stim
144526.63821457373	2050.0	n/a	-1	-1	2750	1666.36178543	stim	stop-signal	458	1196742	0.0-19.32-1.32	beast_fmri_test	329	1194620,/,1195300,/,1195980,/,1196660,/,1197339,/,1198019,/	t,t,t,t,t,t	<img class = center src='/static/experiments/beast_fmri_test/images/D.png'></img>	89,71	2750.0	test	<img class = center src='/static/experiments/beast_fmri_test/images/redD.png'></img>	stop	2050.0	3.0	32.0	stop	non-target	D	89,Middle Finger	71,Index Finger	850.0	700.0	1900.0	2050.0	0.0	1.0	700.0	n/a	stop_stim
145226.63821457373	1666.36178543	n/a	-1	-1	2750	1666.36178543	stim	stop-signal	458	1196742	0.0-19.32-1.32	beast_fmri_test	329	1194620,/,1195300,/,1195980,/,1196660,/,1197339,/,1198019,/	t,t,t,t,t,t	<img class = center src='/static/experiments/beast_fmri_test/images/D.png'></img>	89,71	2750.0	test	<img class = center src='/static/experiments/beast_fmri_test/images/redD.png'></img>	stop	2050.0	3.0	32.0	stop	non-target	D	89,Middle Finger	71,Index Finger	850.0	700.0	1900.0	2050.0	0.0	1.0	700.0	n/a	ITI
149114	500.0	n/a	-1	-1	500	0.0	fixation	poldrack-single-stim	459	1198963	0.0-19.33-0.33	beast_fmri_test	329	1198699,/	t	<div class = centerbox2><div class = fixation>+</div></div>	none	500.0	test	n/a	n/a	n/a	n/a	n/a	n/a	n/a	n/a	n/a	n/a	n/a	n/a	n/a	n/a	n/a	n/a	n/a	n/a	fixation
148837.65478837793	750.0	n/a	-1	-1	2750	277.345211622	stim	stop-signal	460	1201714	0.0-19.33-1.33	beast_fmri_test	329	1199378,/,1200058,/,1200738,/,1201416,/	t,t,t,t	<img class = center src='/static/experiments/beast_fmri_test/images/T.png'></img>	89,71	2750.0	test	<img class = center src='/static/experiments/beast_fmri_test/images/redT.png'></img>	stop	2000.0	3.0	33.0	stop	non-target	T	89,Middle Finger	71,Index Finger	850.0	750.0	1900.0	2000.0	0.0	1.0	750.0	n/a	go_stim
150837.65478837793	2000.0	n/a	-1	-1	2750	277.345211622	stim	stop-signal	460	1201714	0.0-19.33-1.33	beast_fmri_test	329	1199378,/,1200058,/,1200738,/,1201416,/	t,t,t,t	<img class = center src='/static/experiments/beast_fmri_test/images/T.png'></img>	89,71	2750.0	test	<img class = center src='/static/experiments/beast_fmri_test/images/redT.png'></img>	stop	2000.0	3.0	33.0	stop	non-target	T	89,Middle Finger	71,Index Finger	850.0	750.0	1900.0	2000.0	0.0	1.0	750.0	n/a	stop_stim
151587.65478837793	277.345211622	n/a	-1	-1	2750	277.345211622	stim	stop-signal	460	1201714	0.0-19.33-1.33	beast_fmri_test	329	1199378,/,1200058,/,1200738,/,1201416,/	t,t,t,t	<img class = center src='/static/experiments/beast_fmri_test/images/T.png'></img>	89,71	2750.0	test	<img class = center src='/static/experiments/beast_fmri_test/images/redT.png'></img>	stop	2000.0	3.0	33.0	stop	non-target	T	89,Middle Finger	71,Index Finger	850.0	750.0	1900.0	2000.0	0.0	1.0	750.0	n/a	ITI
152700	500.0	n/a	-1	-1	500	0.0	fixation	poldrack-single-stim	461	1202549	0.0-19.34-0.34	beast_fmri_test	329	1202099,/	t	<div class = centerbox2><div class = fixation>+</div></div>	none	500.0	test	n/a	n/a	n/a	n/a	n/a	n/a	n/a	n/a	n/a	n/a	n/a	n/a	n/a	n/a	n/a	n/a	n/a	n/a	fixation
151644.33512150799	2750.0	n/a	2169	71	2750	1057.66487849	stim	stop-signal	462	1205301	0.0-19.34-1.34	beast_fmri_test	329	1202775,/,1203456,/,1204136,/,1204815,/,1205495,/,1206175,/	t,t,t,t,t,t	<img class = center src='/static/experiments/beast_fmri_test/images/V.png'></img>	89,71	2750.0	test	<img class = center src='/static/experiments/beast_fmri_test/images/redV.png'></img>	go	1950.0	3.0	34.0	go	non-target	V	89,Middle Finger	71,Index Finger	850.0	800.0	1900.0	1950.0	1.0	n/a	800.0	1.0	go_stim
154394.33512150799	1057.66487849	n/a	2169	71	2750	1057.66487849	stim	stop-signal	462	1205301	0.0-19.34-1.34	beast_fmri_test	329	1202775,/,1203456,/,1204136,/,1204815,/,1205495,/,1206175,/	t,t,t,t,t,t	<img class = center src='/static/experiments/beast_fmri_test/images/V.png'></img>	89,71	2750.0	test	<img class = center src='/static/experiments/beast_fmri_test/images/redV.png'></img>	go	1950.0	3.0	34.0	go	non-target	V	89,Middle Finger	71,Index Finger	850.0	800.0	1900.0	1950.0	1.0	n/a	800.0	1.0	ITI
157060	500.0	n/a	-1	-1	500	0.0	fixation	poldrack-single-stim	463	1206909	0.0-19.35-0.35	beast_fmri_test	329	1206856,/	t	<div class = centerbox2><div class = fixation>+</div></div>	none	500.0	test	n/a	n/a	n/a	n/a	n/a	n/a	n/a	n/a	n/a	n/a	n/a	n/a	n/a	n/a	n/a	n/a	n/a	n/a	fixation
156025.52103513991	800.0	n/a	-1	-1	2750	1036.47896486	stim	stop-signal	464	1209661	0.0-19.35-1.35	beast_fmri_test	329	1207538,/,1208216,/,1208895,/,1209573,/,1210254,/	t,t,t,t,t	<img class = center src='/static/experiments/beast_fmri_test/images/T.png'></img>	89,71	2750.0	test	<img class = center src='/static/experiments/beast_fmri_test/images/redT.png'></img>	stop	1950.0	3.0	35.0	stop	non-target	T	89,Middle Finger	71,Index Finger	850.0	800.0	1900.0	1950.0	0.0	1.0	800.0	n/a	go_stim
157975.52103513991	1950.0	n/a	-1	-1	2750	1036.47896486	stim	stop-signal	464	1209661	0.0-19.35-1.35	beast_fmri_test	329	1207538,/,1208216,/,1208895,/,1209573,/,1210254,/	t,t,t,t,t	<img class = center src='/static/experiments/beast_fmri_test/images/T.png'></img>	89,71	2750.0	test	<img class = center src='/static/experiments/beast_fmri_test/images/redT.png'></img>	stop	1950.0	3.0	35.0	stop	non-target	T	89,Middle Finger	71,Index Finger	850.0	800.0	1900.0	1950.0	0.0	1.0	800.0	n/a	stop_stim
158775.52103513991	1036.47896486	n/a	-1	-1	2750	1036.47896486	stim	stop-signal	464	1209661	0.0-19.35-1.35	beast_fmri_test	329	1207538,/,1208216,/,1208895,/,1209573,/,1210254,/	t,t,t,t,t	<img class = center src='/static/experiments/beast_fmri_test/images/T.png'></img>	89,71	2750.0	test	<img class = center src='/static/experiments/beast_fmri_test/images/redT.png'></img>	stop	1950.0	3.0	35.0	stop	non-target	T	89,Middle Finger	71,Index Finger	850.0	800.0	1900.0	1950.0	0.0	1.0	800.0	n/a	ITI
161397	500.0	n/a	-1	-1	500	0.0	fixation	poldrack-single-stim	465	1211246	0.0-19.36-0.36	beast_fmri_test	329	1210933,/	t	<div class = centerbox2><div class = fixation>+</div></div>	none	500.0	test	n/a	n/a	n/a	n/a	n/a	n/a	n/a	n/a	n/a	n/a	n/a	n/a	n/a	n/a	n/a	n/a	n/a	n/a	fixation
159222.47717234725	2750.0	n/a	839	71	2750	2175.52282765	stim	stop-signal	466	1213997	0.0-19.36-1.36	beast_fmri_test	329	1211614,/,1212293,/,1212972,/,1213651,/,1214332,/,1215011,/,1215690,/	t,t,t,t,t,t,t	<img class = center src='/static/experiments/beast_fmri_test/images/B.png'></img>	89,71	2750.0	test	<img class = center src='/static/experiments/beast_fmri_test/images/redB.png'></img>	go	1900.0	3.0	36.0	go	non-target	B	89,Middle Finger	71,Index Finger	850.0	850.0	1900.0	1900.0	1.0	n/a	850.0	1.0	go_stim
161972.47717234725	2175.52282765	n/a	839	71	2750	2175.52282765	stim	stop-signal	466	1213997	0.0-19.36-1.36	beast_fmri_test	329	1211614,/,1212293,/,1212972,/,1213651,/,1214332,/,1215011,/,1215690,/	t,t,t,t,t,t,t	<img class = center src='/static/experiments/beast_fmri_test/images/B.png'></img>	89,71	2750.0	test	<img class = center src='/static/experiments/beast_fmri_test/images/redB.png'></img>	go	1900.0	3.0	36.0	go	non-target	B	89,Middle Finger	71,Index Finger	850.0	850.0	1900.0	1900.0	1.0	n/a	850.0	1.0	ITI
166868	500.0	n/a	-1	-1	500	0.0	fixation	poldrack-single-stim	467	1216717	0.0-19.37-0.37	beast_fmri_test	329	1216370,/	t	<div class = centerbox2><div class = fixation>+</div></div>	none	500.0	test	n/a	n/a	n/a	n/a	n/a	n/a	n/a	n/a	n/a	n/a	n/a	n/a	n/a	n/a	n/a	n/a	n/a	n/a	fixation
166115.56997714494	850.0	n/a	-1	-1	2750	753.430022855	stim	stop-signal	468	1219468	0.0-19.37-1.37	beast_fmri_test	329	1217051,/,1217729,/,1218409,/,1219090,/,1219769,/	t,t,t,t,t	<img class = center src='/static/experiments/beast_fmri_test/images/B.png'></img>	89,71	2750.0	test	<img class = center src='/static/experiments/beast_fmri_test/images/redB.png'></img>	stop	1900.0	3.0	37.0	stop	non-target	B	89,Middle Finger	71,Index Finger	850.0	850.0	1900.0	1900.0	0.0	1.0	850.0	n/a	go_stim
168015.56997714494	1900.0	n/a	-1	-1	2750	753.430022855	stim	stop-signal	468	1219468	0.0-19.37-1.37	beast_fmri_test	329	1217051,/,1217729,/,1218409,/,1219090,/,1219769,/	t,t,t,t,t	<img class = center src='/static/experiments/beast_fmri_test/images/B.png'></img>	89,71	2750.0	test	<img class = center src='/static/experiments/beast_fmri_test/images/redB.png'></img>	stop	1900.0	3.0	37.0	stop	non-target	B	89,Middle Finger	71,Index Finger	850.0	850.0	1900.0	1900.0	0.0	1.0	850.0	n/a	stop_stim
168865.56997714494	753.430022855	n/a	-1	-1	2750	753.430022855	stim	stop-signal	468	1219468	0.0-19.37-1.37	beast_fmri_test	329	1217051,/,1217729,/,1218409,/,1219090,/,1219769,/	t,t,t,t,t	<img class = center src='/static/experiments/beast_fmri_test/images/B.png'></img>	89,71	2750.0	test	<img class = center src='/static/experiments/beast_fmri_test/images/redB.png'></img>	stop	1900.0	3.0	37.0	stop	non-target	B	89,Middle Finger	71,Index Finger	850.0	850.0	1900.0	1900.0	0.0	1.0	850.0	n/a	ITI
170920	500.0	n/a	-1	-1	500	0.0	fixation	poldrack-single-stim	469	1220769	0.0-19.38-0.38	beast_fmri_test	329	1220448,/	t	<div class = centerbox2><div class = fixation>+</div></div>	none	500.0	test	n/a	n/a	n/a	n/a	n/a	n/a	n/a	n/a	n/a	n/a	n/a	n/a	n/a	n/a	n/a	n/a	n/a	n/a	fixation
170105.97573831491	2750.0	n/a	1033	71	2750	816.024261685	stim	stop-signal	470	1223521	0.0-19.38-1.38	beast_fmri_test	329	1221128,/,1221807,/,1222488,/,1223168,/,1223846,/	t,t,t,t,t	<img class = center src='/static/experiments/beast_fmri_test/images/V.png'></img>	89,71	2750.0	test	<img class = center src='/static/experiments/beast_fmri_test/images/redV.png'></img>	go	1850.0	3.0	38.0	go	non-target	V	89,Middle Finger	71,Index Finger	850.0	900.0	1900.0	1850.0	1.0	n/a	900.0	1.0	go_stim
172855.97573831491	816.024261685	n/a	1033	71	2750	816.024261685	stim	stop-signal	470	1223521	0.0-19.38-1.38	beast_fmri_test	329	1221128,/,1221807,/,1222488,/,1223168,/,1223846,/	t,t,t,t,t	<img class = center src='/static/experiments/beast_fmri_test/images/V.png'></img>	89,71	2750.0	test	<img class = center src='/static/experiments/beast_fmri_test/images/redV.png'></img>	go	1850.0	3.0	38.0	go	non-target	V	89,Middle Finger	71,Index Finger	850.0	900.0	1900.0	1850.0	1.0	n/a	900.0	1.0	ITI
175035	500.0	n/a	-1	-1	500	0.0	fixation	poldrack-single-stim	471	1224884	0.0-19.39-0.39	beast_fmri_test	329	1224527,/	t	<div class = centerbox2><div class = fixation>+</div></div>	none	500.0	test	n/a	n/a	n/a	n/a	n/a	n/a	n/a	n/a	n/a	n/a	n/a	n/a	n/a	n/a	n/a	n/a	n/a	n/a	fixation
174264.91104426607	900.0	n/a	843	71	2750	771.088955734	stim	stop-signal	472	1227635	0.0-19.39-1.39	beast_fmri_test	329	1225206,/,1225887,/,1226565,/,1227244,/,1227924,/	t,t,t,t,t	<img class = center src='/static/experiments/beast_fmri_test/images/P.png'></img>	89,71	2750.0	test	<img class = center src='/static/experiments/beast_fmri_test/images/redP.png'></img>	stop	1850.0	3.0	39.0	stop	non-target	P	89,Middle Finger	71,Index Finger	850.0	900.0	1900.0	1850.0	0.0	0.0	900.0	n/a	go_stim
176114.91104426607	1850.0	n/a	843	71	2750	771.088955734	stim	stop-signal	472	1227635	0.0-19.39-1.39	beast_fmri_test	329	1225206,/,1225887,/,1226565,/,1227244,/,1227924,/	t,t,t,t,t	<img class = center src='/static/experiments/beast_fmri_test/images/P.png'></img>	89,71	2750.0	test	<img class = center src='/static/experiments/beast_fmri_test/images/redP.png'></img>	stop	1850.0	3.0	39.0	stop	non-target	P	89,Middle Finger	71,Index Finger	850.0	900.0	1900.0	1850.0	0.0	0.0	900.0	n/a	stop_stim
177014.91104426607	771.088955734	n/a	843	71	2750	771.088955734	stim	stop-signal	472	1227635	0.0-19.39-1.39	beast_fmri_test	329	1225206,/,1225887,/,1226565,/,1227244,/,1227924,/	t,t,t,t,t	<img class = center src='/static/experiments/beast_fmri_test/images/P.png'></img>	89,71	2750.0	test	<img class = center src='/static/experiments/beast_fmri_test/images/redP.png'></img>	stop	1850.0	3.0	39.0	stop	non-target	P	89,Middle Finger	71,Index Finger	850.0	900.0	1900.0	1850.0	0.0	0.0	900.0	n/a	ITI
179107	500.0	n/a	-1	-1	500	0.0	fixation	poldrack-single-stim	473	1228956	0.0-19.40-0.40	beast_fmri_test	329	1228605,/	t	<div class = centerbox2><div class = fixation>+</div></div>	none	500.0	test	n/a	n/a	n/a	n/a	n/a	n/a	n/a	n/a	n/a	n/a	n/a	n/a	n/a	n/a	n/a	n/a	n/a	n/a	fixation
174964.91284094169	2750.0	n/a	1780	71	2750	4143.08715906	stim	stop-signal	474	1231707	0.0-19.40-1.40	beast_fmri_test	329	1229285,/,1229965,/,1230644,/,1231322,/,1232003,/,1232683,/,1233362,/,1234041,/,1234722,/,1235401,/	t,t,t,t,t,t,t,t,t,t	<img class = center src='/static/experiments/beast_fmri_test/images/P.png'></img>	89,71	2750.0	test	<img class = center src='/static/experiments/beast_fmri_test/images/redP.png'></img>	go	1900.0	3.0	40.0	go	non-target	P	89,Middle Finger	71,Index Finger	850.0	850.0	1900.0	1900.0	1.0	n/a	850.0	1.0	go_stim
177714.91284094169	4143.08715906	n/a	1780	71	2750	4143.08715906	stim	stop-signal	474	1231707	0.0-19.40-1.40	beast_fmri_test	329	1229285,/,1229965,/,1230644,/,1231322,/,1232003,/,1232683,/,1233362,/,1234041,/,1234722,/,1235401,/	t,t,t,t,t,t,t,t,t,t	<img class = center src='/static/experiments/beast_fmri_test/images/P.png'></img>	89,71	2750.0	test	<img class = center src='/static/experiments/beast_fmri_test/images/redP.png'></img>	go	1900.0	3.0	40.0	go	non-target	P	89,Middle Finger	71,Index Finger	850.0	850.0	1900.0	1900.0	1.0	n/a	850.0	1.0	ITI
186552	500.0	n/a	-1	-1	500	0.0	fixation	poldrack-single-stim	475	1236401	0.0-19.41-0.41	beast_fmri_test	329	1236082,/	t	<div class = centerbox2><div class = fixation>+</div></div>	none	500.0	test	n/a	n/a	n/a	n/a	n/a	n/a	n/a	n/a	n/a	n/a	n/a	n/a	n/a	n/a	n/a	n/a	n/a	n/a	fixation
185209.21443669358	850.0	n/a	676	71	2750	1344.78556331	stim	stop-signal	476	1239153	0.0-19.41-1.41	beast_fmri_test	329	1236761,/,1237441,/,1238120,/,1238801,/,1239479,/,1240161,/	t,t,t,t,t,t	<img class = center src='/static/experiments/beast_fmri_test/images/D.png'></img>	89,71	2750.0	test	<img class = center src='/static/experiments/beast_fmri_test/images/redD.png'></img>	stop	1900.0	3.0	41.0	stop	non-target	D	89,Middle Finger	71,Index Finger	850.0	850.0	1900.0	1900.0	0.0	0.0	850.0	n/a	go_stim
187109.21443669358	1900.0	n/a	676	71	2750	1344.78556331	stim	stop-signal	476	1239153	0.0-19.41-1.41	beast_fmri_test	329	1236761,/,1237441,/,1238120,/,1238801,/,1239479,/,1240161,/	t,t,t,t,t,t	<img class = center src='/static/experiments/beast_fmri_test/images/D.png'></img>	89,71	2750.0	test	<img class = center src='/static/experiments/beast_fmri_test/images/redD.png'></img>	stop	1900.0	3.0	41.0	stop	non-target	D	89,Middle Finger	71,Index Finger	850.0	850.0	1900.0	1900.0	0.0	0.0	850.0	n/a	stop_stim
187959.21443669358	1344.78556331	n/a	676	71	2750	1344.78556331	stim	stop-signal	476	1239153	0.0-19.41-1.41	beast_fmri_test	329	1236761,/,1237441,/,1238120,/,1238801,/,1239479,/,1240161,/	t,t,t,t,t,t	<img class = center src='/static/experiments/beast_fmri_test/images/D.png'></img>	89,71	2750.0	test	<img class = center src='/static/experiments/beast_fmri_test/images/redD.png'></img>	stop	1900.0	3.0	41.0	stop	non-target	D	89,Middle Finger	71,Index Finger	850.0	850.0	1900.0	1900.0	0.0	0.0	850.0	n/a	ITI
191201	500.0	n/a	-1	-1	500	0.0	fixation	poldrack-single-stim	477	1241050	0.0-19.42-0.42	beast_fmri_test	329	1240839,/	t	<div class = centerbox2><div class = fixation>+</div></div>	none	500.0	test	n/a	n/a	n/a	n/a	n/a	n/a	n/a	n/a	n/a	n/a	n/a	n/a	n/a	n/a	n/a	n/a	n/a	n/a	fixation
187749.26795337792	2750.0	n/a	949	71	2750	3453.73204662	stim	stop-signal	478	1243802	0.0-19.42-1.42	beast_fmri_test	329	1241519,/,1242199,/,1242879,/,1243558,/,1244237,/,1244918,/,1245597,/,1246277,/,1246956,/	t,t,t,t,t,t,t,t,t	<img class = center src='/static/experiments/beast_fmri_test/images/T.png'></img>	89,71	2750.0	test	<img class = center src='/static/experiments/beast_fmri_test/images/redT.png'></img>	go	1950.0	3.0	42.0	go	non-target	T	89,Middle Finger	71,Index Finger	850.0	800.0	1900.0	1950.0	1.0	n/a	800.0	1.0	go_stim
190499.26795337792	3453.73204662	n/a	949	71	2750	3453.73204662	stim	stop-signal	478	1243802	0.0-19.42-1.42	beast_fmri_test	329	1241519,/,1242199,/,1242879,/,1243558,/,1244237,/,1244918,/,1245597,/,1246277,/,1246956,/	t,t,t,t,t,t,t,t,t	<img class = center src='/static/experiments/beast_fmri_test/images/T.png'></img>	89,71	2750.0	test	<img class = center src='/static/experiments/beast_fmri_test/images/redT.png'></img>	go	1950.0	3.0	42.0	go	non-target	T	89,Middle Finger	71,Index Finger	850.0	800.0	1900.0	1950.0	1.0	n/a	800.0	1.0	ITI
197958	500.0	n/a	-1	-1	500	0.0	fixation	poldrack-single-stim	479	1247807	0.0-19.43-0.43	beast_fmri_test	329	1247637,/	t	<div class = centerbox2><div class = fixation>+</div></div>	none	500.0	test	n/a	n/a	n/a	n/a	n/a	n/a	n/a	n/a	n/a	n/a	n/a	n/a	n/a	n/a	n/a	n/a	n/a	n/a	fixation
197191.46865286794	2750.0	n/a	744	71	2750	768.531347132	stim	stop-signal	480	1250559	0.0-19.43-1.43	beast_fmri_test	329	1248315,/,1248996,/,1249674,/,1250355,/,1251034,/	t,t,t,t,t	<img class = center src='/static/experiments/beast_fmri_test/images/B.png'></img>	89,71	2750.0	test	<img class = center src='/static/experiments/beast_fmri_test/images/redB.png'></img>	go	1950.0	3.0	43.0	go	non-target	B	89,Middle Finger	71,Index Finger	850.0	800.0	1900.0	1950.0	1.0	n/a	800.0	1.0	go_stim
199941.46865286794	768.531347132	n/a	744	71	2750	768.531347132	stim	stop-signal	480	1250559	0.0-19.43-1.43	beast_fmri_test	329	1248315,/,1248996,/,1249674,/,1250355,/,1251034,/	t,t,t,t,t	<img class = center src='/static/experiments/beast_fmri_test/images/B.png'></img>	89,71	2750.0	test	<img class = center src='/static/experiments/beast_fmri_test/images/redB.png'></img>	go	1950.0	3.0	43.0	go	non-target	B	89,Middle Finger	71,Index Finger	850.0	800.0	1900.0	1950.0	1.0	n/a	800.0	1.0	ITI
202028	500.0	n/a	-1	-1	500	0.0	fixation	poldrack-single-stim	481	1251877	0.0-19.44-0.44	beast_fmri_test	329	1251715,/	t	<div class = centerbox2><div class = fixation>+</div></div>	none	500.0	test	n/a	n/a	n/a	n/a	n/a	n/a	n/a	n/a	n/a	n/a	n/a	n/a	n/a	n/a	n/a	n/a	n/a	n/a	fixation
198270.88992365659	2750.0	n/a	1173	71	2750	3758.11007634	stim	stop-signal	482	1254628	0.0-19.44-1.44	beast_fmri_test	329	1252394,/,1253073,/,1253754,/,1254433,/,1255113,/,1255791,/,1256472,/,1257151,/,1257832,/	t,t,t,t,t,t,t,t,t	<img class = center src='/static/experiments/beast_fmri_test/images/T.png'></img>	89,71	2750.0	test	<img class = center src='/static/experiments/beast_fmri_test/images/redT.png'></img>	go	1950.0	3.0	44.0	go	non-target	T	89,Middle Finger	71,Index Finger	850.0	800.0	1900.0	1950.0	1.0	n/a	800.0	1.0	go_stim
201020.88992365659	3758.11007634	n/a	1173	71	2750	3758.11007634	stim	stop-signal	482	1254628	0.0-19.44-1.44	beast_fmri_test	329	1252394,/,1253073,/,1253754,/,1254433,/,1255113,/,1255791,/,1256472,/,1257151,/,1257832,/	t,t,t,t,t,t,t,t,t	<img class = center src='/static/experiments/beast_fmri_test/images/T.png'></img>	89,71	2750.0	test	<img class = center src='/static/experiments/beast_fmri_test/images/redT.png'></img>	go	1950.0	3.0	44.0	go	non-target	T	89,Middle Finger	71,Index Finger	850.0	800.0	1900.0	1950.0	1.0	n/a	800.0	1.0	ITI
209089	500.0	n/a	-1	-1	500	0.0	fixation	poldrack-single-stim	483	1258938	0.0-19.45-0.45	beast_fmri_test	329	1258510,/	t	<div class = centerbox2><div class = fixation>+</div></div>	none	500.0	test	n/a	n/a	n/a	n/a	n/a	n/a	n/a	n/a	n/a	n/a	n/a	n/a	n/a	n/a	n/a	n/a	n/a	n/a	fixation
208299.28100449056	2750.0	n/a	1490	89	2750	791.718995509	stim	stop-signal	484	1261690	0.0-19.45-1.45	beast_fmri_test	329	1259191,/,1259869,/,1260550,/,1261228,/,1261908,/	t,t,t,t,t	<img class = center src='/static/experiments/beast_fmri_test/images/T.png'></img>	89,71	2750.0	test	<img class = center src='/static/experiments/beast_fmri_test/images/redT.png'></img>	go	1900.0	3.0	45.0	go	target	T	89,Middle Finger	71,Index Finger	850.0	800.0	1900.0	1950.0	1.0	n/a	850.0	1.0	go_stim
211049.28100449056	791.718995509	n/a	1490	89	2750	791.718995509	stim	stop-signal	484	1261690	0.0-19.45-1.45	beast_fmri_test	329	1259191,/,1259869,/,1260550,/,1261228,/,1261908,/	t,t,t,t,t	<img class = center src='/static/experiments/beast_fmri_test/images/T.png'></img>	89,71	2750.0	test	<img class = center src='/static/experiments/beast_fmri_test/images/redT.png'></img>	go	1900.0	3.0	45.0	go	target	T	89,Middle Finger	71,Index Finger	850.0	800.0	1900.0	1950.0	1.0	n/a	850.0	1.0	ITI
213187	500.0	n/a	-1	-1	500	0.0	fixation	poldrack-single-stim	485	1263036	0.0-19.46-0.46	beast_fmri_test	329	1262591,/	t	<div class = centerbox2><div class = fixation>+</div></div>	none	500.0	test	n/a	n/a	n/a	n/a	n/a	n/a	n/a	n/a	n/a	n/a	n/a	n/a	n/a	n/a	n/a	n/a	n/a	n/a	fixation
211087.84828516748	2750.0	n/a	1761	71	2750	2101.15171483	stim	stop-signal	486	1265788	0.0-19.46-1.46	beast_fmri_test	329	1263269,/,1263949,/,1264629,/,1265309,/,1265988,/,1266669,/,1267347,/	t,t,t,t,t,t,t	<img class = center src='/static/experiments/beast_fmri_test/images/V.png'></img>	89,71	2750.0	test	<img class = center src='/static/experiments/beast_fmri_test/images/redV.png'></img>	go	1950.0	3.0	46.0	go	non-target	V	89,Middle Finger	71,Index Finger	850.0	800.0	1900.0	1950.0	1.0	n/a	800.0	1.0	go_stim
213837.84828516748	2101.15171483	n/a	1761	71	2750	2101.15171483	stim	stop-signal	486	1265788	0.0-19.46-1.46	beast_fmri_test	329	1263269,/,1263949,/,1264629,/,1265309,/,1265988,/,1266669,/,1267347,/	t,t,t,t,t,t,t	<img class = center src='/static/experiments/beast_fmri_test/images/V.png'></img>	89,71	2750.0	test	<img class = center src='/static/experiments/beast_fmri_test/images/redV.png'></img>	go	1950.0	3.0	46.0	go	non-target	V	89,Middle Finger	71,Index Finger	850.0	800.0	1900.0	1950.0	1.0	n/a	800.0	1.0	ITI
218593	500.0	n/a	-1	-1	500	0.0	fixation	poldrack-single-stim	487	1268442	0.0-19.47-0.47	beast_fmri_test	329	1268028,/	t	<div class = centerbox2><div class = fixation>+</div></div>	none	500.0	test	n/a	n/a	n/a	n/a	n/a	n/a	n/a	n/a	n/a	n/a	n/a	n/a	n/a	n/a	n/a	n/a	n/a	n/a	fixation
217970.11137139867	2750.0	n/a	785	89	2750	623.888628601	stim	stop-signal	488	1271193	0.0-19.47-1.47	beast_fmri_test	329	1268706,/,1269387,/,1270066,/,1270747,/,1271426,/	t,t,t,t,t	<img class = center src='/static/experiments/beast_fmri_test/images/T.png'></img>	89,71	2750.0	test	<img class = center src='/static/experiments/beast_fmri_test/images/redT.png'></img>	go	1900.0	3.0	47.0	go	target	T	89,Middle Finger	71,Index Finger	850.0	800.0	1900.0	1950.0	1.0	n/a	850.0	1.0	go_stim
220720.11137139867	623.888628601	n/a	785	89	2750	623.888628601	stim	stop-signal	488	1271193	0.0-19.47-1.47	beast_fmri_test	329	1268706,/,1269387,/,1270066,/,1270747,/,1271426,/	t,t,t,t,t	<img class = center src='/static/experiments/beast_fmri_test/images/T.png'></img>	89,71	2750.0	test	<img class = center src='/static/experiments/beast_fmri_test/images/redT.png'></img>	go	1900.0	3.0	47.0	go	target	T	89,Middle Finger	71,Index Finger	850.0	800.0	1900.0	1950.0	1.0	n/a	850.0	1.0	ITI
237020	15000.0	n/a	-1	-1	15000	0.0	practice-no-stop-feedback	poldrack-single-stim	489	1286869	0.0-20.0	beast_fmri_test	329	1272107,/,1272786,/,1273465,/,1274145,/,1274824,/,1275504,/,1276183,/,1276864,/,1277542,/,1278222,/,1278902,/,1279582,/,1280261,/,1280942,/,1281621,/,1282300,/,1282980,/,1283659,/,1284338,/,1285019,/,1285699,/,1286378,/	t,t,t,t,t,t,t,t,t,t,t,t,t,t,t,t,t,t,t,t,t,t	"<div class = ""centerbox""><p class = ""block-text"">Your delay is 2 trials.</p><p class = block-text>Please wait for the scanner to start the block</p></div>"	77	15000.0	n/a	n/a	n/a	n/a	n/a	n/a	n/a	n/a	n/a	n/a	n/a	n/a	n/a	n/a	n/a	n/a	n/a	n/a	n/a	practice-no-stop-feedback
237521	500.0	n/a	-1	-1	500	0.0	fixation	poldrack-single-stim	490	1287370	0.0-21.0-0.0	beast_fmri_test	329	1287059,/	t	<div class = centerbox2><div class = fixation>+</div></div>	none	500.0	test	n/a	n/a	n/a	n/a	n/a	n/a	n/a	n/a	n/a	n/a	n/a	n/a	n/a	n/a	n/a	n/a	n/a	n/a	fixation
237216.273423217	2750.0	n/a	1478	71	2750	306.726576783	stim	stop-signal	491	1290122	0.0-21.0-1.0	beast_fmri_test	329	1287737,/,1288418,/,1289099,/,1289777,/	t,t,t,t	<img class = center src='/static/experiments/beast_fmri_test/images/P.png'></img>	89,71	2750.0	test	<img class = center src='/static/experiments/beast_fmri_test/images/redP.png'></img>	go	-1.0	2.0	0.0	go	temp-non-target	P	89,Middle Finger	71,Index Finger	850.0	800.0	1900.0	1950.0	0.0	n/a	n/a	n/a	go_stim
239966.273423217	306.726576783	n/a	1478	71	2750	306.726576783	stim	stop-signal	491	1290122	0.0-21.0-1.0	beast_fmri_test	329	1287737,/,1288418,/,1289099,/,1289777,/	t,t,t,t	<img class = center src='/static/experiments/beast_fmri_test/images/P.png'></img>	89,71	2750.0	test	<img class = center src='/static/experiments/beast_fmri_test/images/redP.png'></img>	go	-1.0	2.0	0.0	go	temp-non-target	P	89,Middle Finger	71,Index Finger	850.0	800.0	1900.0	1950.0	0.0	n/a	n/a	n/a	ITI
241137	500.0	n/a	-1	-1	500	0.0	fixation	poldrack-single-stim	492	1290986	0.0-21.1-0.1	beast_fmri_test	329	1290485,/	t	<div class = centerbox2><div class = fixation>+</div></div>	none	500.0	test	n/a	n/a	n/a	n/a	n/a	n/a	n/a	n/a	n/a	n/a	n/a	n/a	n/a	n/a	n/a	n/a	n/a	n/a	fixation
238097.16360424436	2750.0	n/a	1088	71	2750	3041.83639576	stim	stop-signal	493	1293738	0.0-21.1-1.1	beast_fmri_test	329	1291136,/,1291816,/,1292495,/,1293175,/,1293857,/,1294533,/,1295214,/,1295895,/,1296574,/	t,t,t,t,t,t,t,t,t	<img class = center src='/static/experiments/beast_fmri_test/images/T.png'></img>	89,71	2750.0	test	<img class = center src='/static/experiments/beast_fmri_test/images/redT.png'></img>	go	-1.0	2.0	1.0	go	temp-non-target	T	89,Middle Finger	71,Index Finger	850.0	800.0	1900.0	1950.0	0.0	n/a	n/a	n/a	go_stim
240847.16360424436	3041.83639576	n/a	1088	71	2750	3041.83639576	stim	stop-signal	493	1293738	0.0-21.1-1.1	beast_fmri_test	329	1291136,/,1291816,/,1292495,/,1293175,/,1293857,/,1294533,/,1295214,/,1295895,/,1296574,/	t,t,t,t,t,t,t,t,t	<img class = center src='/static/experiments/beast_fmri_test/images/T.png'></img>	89,71	2750.0	test	<img class = center src='/static/experiments/beast_fmri_test/images/redT.png'></img>	go	-1.0	2.0	1.0	go	temp-non-target	T	89,Middle Finger	71,Index Finger	850.0	800.0	1900.0	1950.0	0.0	n/a	n/a	n/a	ITI
247484	500.0	n/a	-1	-1	500	0.0	fixation	poldrack-single-stim	494	1297333	0.0-21.2-0.2	beast_fmri_test	329	1297255,/	t	<div class = centerbox2><div class = fixation>+</div></div>	none	500.0	test	n/a	n/a	n/a	n/a	n/a	n/a	n/a	n/a	n/a	n/a	n/a	n/a	n/a	n/a	n/a	n/a	n/a	n/a	fixation
247070.4282955057	800.0	n/a	835	71	2750	414.571704494	stim	stop-signal	495	1300084	0.0-21.2-1.2	beast_fmri_test	329	1297933,/,1298614,/,1299293,/,1299973,/	t,t,t,t	<img class = center src='/static/experiments/beast_fmri_test/images/V.png'></img>	89,71	2750.0	test	<img class = center src='/static/experiments/beast_fmri_test/images/redV.png'></img>	stop	1950.0	2.0	2.0	stop	non-target	V	89,Middle Finger	71,Index Finger	850.0	800.0	1900.0	1950.0	0.0	0.0	800.0	n/a	go_stim
249020.4282955057	1950.0	n/a	835	71	2750	414.571704494	stim	stop-signal	495	1300084	0.0-21.2-1.2	beast_fmri_test	329	1297933,/,1298614,/,1299293,/,1299973,/	t,t,t,t	<img class = center src='/static/experiments/beast_fmri_test/images/V.png'></img>	89,71	2750.0	test	<img class = center src='/static/experiments/beast_fmri_test/images/redV.png'></img>	stop	1950.0	2.0	2.0	stop	non-target	V	89,Middle Finger	71,Index Finger	850.0	800.0	1900.0	1950.0	0.0	0.0	800.0	n/a	stop_stim
249820.4282955057	414.571704494	n/a	835	71	2750	414.571704494	stim	stop-signal	495	1300084	0.0-21.2-1.2	beast_fmri_test	329	1297933,/,1298614,/,1299293,/,1299973,/	t,t,t,t	<img class = center src='/static/experiments/beast_fmri_test/images/V.png'></img>	89,71	2750.0	test	<img class = center src='/static/experiments/beast_fmri_test/images/redV.png'></img>	stop	1950.0	2.0	2.0	stop	non-target	V	89,Middle Finger	71,Index Finger	850.0	800.0	1900.0	1950.0	0.0	0.0	800.0	n/a	ITI
251203	500.0	n/a	-1	-1	500	0.0	fixation	poldrack-single-stim	496	1301052	0.0-21.3-0.3	beast_fmri_test	329	1300653,/	t	<div class = centerbox2><div class = fixation>+</div></div>	none	500.0	test	n/a	n/a	n/a	n/a	n/a	n/a	n/a	n/a	n/a	n/a	n/a	n/a	n/a	n/a	n/a	n/a	n/a	n/a	fixation
250120.10625182558	2750.0	n/a	1767	71	2750	1083.89374817	stim	stop-signal	497	1303803	0.0-21.3-1.3	beast_fmri_test	329	1301332,/,1302012,/,1302691,/,1303371,/,1304050,/,1304731,/	t,t,t,t,t,t	<img class = center src='/static/experiments/beast_fmri_test/images/B.png'></img>	89,71	2750.0	test	<img class = center src='/static/experiments/beast_fmri_test/images/redB.png'></img>	go	2000.0	2.0	3.0	go	non-target	B	89,Middle Finger	71,Index Finger	850.0	750.0	1900.0	2000.0	1.0	n/a	750.0	1.0	go_stim
252870.10625182558	1083.89374817	n/a	1767	71	2750	1083.89374817	stim	stop-signal	497	1303803	0.0-21.3-1.3	beast_fmri_test	329	1301332,/,1302012,/,1302691,/,1303371,/,1304050,/,1304731,/	t,t,t,t,t,t	<img class = center src='/static/experiments/beast_fmri_test/images/B.png'></img>	89,71	2750.0	test	<img class = center src='/static/experiments/beast_fmri_test/images/redB.png'></img>	go	2000.0	2.0	3.0	go	non-target	B	89,Middle Finger	71,Index Finger	850.0	750.0	1900.0	2000.0	1.0	n/a	750.0	1.0	ITI
255595	500.0	n/a	-1	-1	500	0.0	fixation	poldrack-single-stim	498	1305444	0.0-21.4-0.4	beast_fmri_test	329	1305410,/	t	<div class = centerbox2><div class = fixation>+</div></div>	none	500.0	test	n/a	n/a	n/a	n/a	n/a	n/a	n/a	n/a	n/a	n/a	n/a	n/a	n/a	n/a	n/a	n/a	n/a	n/a	fixation
254393.46775504295	2750.0	n/a	1469	71	2750	1202.53224496	stim	stop-signal	499	1308195	0.0-21.4-1.4	beast_fmri_test	329	1306090,/,1306769,/,1307449,/,1308129,/,1308808,/	t,t,t,t,t	<img class = center src='/static/experiments/beast_fmri_test/images/B.png'></img>	89,71	2750.0	test	<img class = center src='/static/experiments/beast_fmri_test/images/redB.png'></img>	go	2000.0	2.0	4.0	go	non-target	B	89,Middle Finger	71,Index Finger	850.0	750.0	1900.0	2000.0	1.0	n/a	750.0	1.0	go_stim
257143.46775504295	1202.53224496	n/a	1469	71	2750	1202.53224496	stim	stop-signal	499	1308195	0.0-21.4-1.4	beast_fmri_test	329	1306090,/,1306769,/,1307449,/,1308129,/,1308808,/	t,t,t,t,t	<img class = center src='/static/experiments/beast_fmri_test/images/B.png'></img>	89,71	2750.0	test	<img class = center src='/static/experiments/beast_fmri_test/images/redB.png'></img>	go	2000.0	2.0	4.0	go	non-target	B	89,Middle Finger	71,Index Finger	850.0	750.0	1900.0	2000.0	1.0	n/a	750.0	1.0	ITI
260104	500.0	n/a	-1	-1	500	0.0	fixation	poldrack-single-stim	500	1309953	0.0-21.5-0.5	beast_fmri_test	329	1309487,/	t	<div class = centerbox2><div class = fixation>+</div></div>	none	500.0	test	n/a	n/a	n/a	n/a	n/a	n/a	n/a	n/a	n/a	n/a	n/a	n/a	n/a	n/a	n/a	n/a	n/a	n/a	fixation
259110.2875715876	2750.0	n/a	1005	71	2750	995.712428413	stim	stop-signal	501	1312705	0.0-21.5-1.5	beast_fmri_test	329	1310167,/,1310847,/,1311526,/,1312207,/,1312885,/,1313566,/	t,t,t,t,t,t	<img class = center src='/static/experiments/beast_fmri_test/images/P.png'></img>	89,71	2750.0	test	<img class = center src='/static/experiments/beast_fmri_test/images/redP.png'></img>	go	2000.0	2.0	5.0	go	non-target	P	89,Middle Finger	71,Index Finger	850.0	750.0	1900.0	2000.0	1.0	n/a	750.0	1.0	go_stim
261860.2875715876	995.712428413	n/a	1005	71	2750	995.712428413	stim	stop-signal	501	1312705	0.0-21.5-1.5	beast_fmri_test	329	1310167,/,1310847,/,1311526,/,1312207,/,1312885,/,1313566,/	t,t,t,t,t,t	<img class = center src='/static/experiments/beast_fmri_test/images/P.png'></img>	89,71	2750.0	test	<img class = center src='/static/experiments/beast_fmri_test/images/redP.png'></img>	go	2000.0	2.0	5.0	go	non-target	P	89,Middle Finger	71,Index Finger	850.0	750.0	1900.0	2000.0	1.0	n/a	750.0	1.0	ITI
264405	500.0	n/a	-1	-1	500	0.0	fixation	poldrack-single-stim	502	1314254	0.0-21.6-0.6	beast_fmri_test	329	1314245,/	t	<div class = centerbox2><div class = fixation>+</div></div>	none	500.0	test	n/a	n/a	n/a	n/a	n/a	n/a	n/a	n/a	n/a	n/a	n/a	n/a	n/a	n/a	n/a	n/a	n/a	n/a	fixation
263037.01528605144	2750.0	n/a	1206	71	2750	1369.98471395	stim	stop-signal	503	1317006	0.0-21.6-1.6	beast_fmri_test	329	1314926,/,1315604,/,1316285,/,1316964,/,1317644,/,1318324,/	t,t,t,t,t,t	<img class = center src='/static/experiments/beast_fmri_test/images/T.png'></img>	89,71	2750.0	test	<img class = center src='/static/experiments/beast_fmri_test/images/redT.png'></img>	go	2000.0	2.0	6.0	go	non-target	T	89,Middle Finger	71,Index Finger	850.0	750.0	1900.0	2000.0	1.0	n/a	750.0	1.0	go_stim
265787.01528605144	1369.98471395	n/a	1206	71	2750	1369.98471395	stim	stop-signal	503	1317006	0.0-21.6-1.6	beast_fmri_test	329	1314926,/,1315604,/,1316285,/,1316964,/,1317644,/,1318324,/	t,t,t,t,t,t	<img class = center src='/static/experiments/beast_fmri_test/images/T.png'></img>	89,71	2750.0	test	<img class = center src='/static/experiments/beast_fmri_test/images/redT.png'></img>	go	2000.0	2.0	6.0	go	non-target	T	89,Middle Finger	71,Index Finger	850.0	750.0	1900.0	2000.0	1.0	n/a	750.0	1.0	ITI
269080	500.0	n/a	-1	-1	500	0.0	fixation	poldrack-single-stim	504	1318929	0.0-21.7-0.7	beast_fmri_test	329	n/a	n/a	<div class = centerbox2><div class = fixation>+</div></div>	none	500.0	test	n/a	n/a	n/a	n/a	n/a	n/a	n/a	n/a	n/a	n/a	n/a	n/a	n/a	n/a	n/a	n/a	n/a	n/a	fixation
268144.6928615123	2750.0	n/a	1010	71	2750	937.307138488	stim	stop-signal	505	1321681	0.0-21.7-1.7	beast_fmri_test	329	1319004,/,1319683,/,1320362,/,1321044,/,1321722,/,1322401,/	t,t,t,t,t,t	<img class = center src='/static/experiments/beast_fmri_test/images/T.png'></img>	89,71	2750.0	test	<img class = center src='/static/experiments/beast_fmri_test/images/redT.png'></img>	go	2000.0	2.0	7.0	go	non-target	T	89,Middle Finger	71,Index Finger	850.0	750.0	1900.0	2000.0	1.0	n/a	750.0	1.0	go_stim
270894.6928615123	937.307138488	n/a	1010	71	2750	937.307138488	stim	stop-signal	505	1321681	0.0-21.7-1.7	beast_fmri_test	329	1319004,/,1319683,/,1320362,/,1321044,/,1321722,/,1322401,/	t,t,t,t,t,t	<img class = center src='/static/experiments/beast_fmri_test/images/T.png'></img>	89,71	2750.0	test	<img class = center src='/static/experiments/beast_fmri_test/images/redT.png'></img>	go	2000.0	2.0	7.0	go	non-target	T	89,Middle Finger	71,Index Finger	850.0	750.0	1900.0	2000.0	1.0	n/a	750.0	1.0	ITI
273323	500.0	n/a	-1	-1	500	0.0	fixation	poldrack-single-stim	506	1323172	0.0-21.8-0.8	beast_fmri_test	329	1323081,/	t	<div class = centerbox2><div class = fixation>+</div></div>	none	500.0	test	n/a	n/a	n/a	n/a	n/a	n/a	n/a	n/a	n/a	n/a	n/a	n/a	n/a	n/a	n/a	n/a	n/a	n/a	fixation
271167.96203814656	850.0	n/a	-1	-1	2750	2159.03796185	stim	stop-signal	507	1325926	0.0-21.8-1.8	beast_fmri_test	329	1323763,/,1324441,/,1325121,/,1325801,/,1326481,/,1327160,/,1327841,/	t,t,t,t,t,t,t	<img class = center src='/static/experiments/beast_fmri_test/images/T.png'></img>	89,71	2750.0	test	<img class = center src='/static/experiments/beast_fmri_test/images/redT.png'></img>	stop	1900.0	2.0	8.0	stop	target	T	89,Middle Finger	71,Index Finger	850.0	750.0	1900.0	2000.0	0.0	1.0	850.0	n/a	go_stim
273067.96203814656	1900.0	n/a	-1	-1	2750	2159.03796185	stim	stop-signal	507	1325926	0.0-21.8-1.8	beast_fmri_test	329	1323763,/,1324441,/,1325121,/,1325801,/,1326481,/,1327160,/,1327841,/	t,t,t,t,t,t,t	<img class = center src='/static/experiments/beast_fmri_test/images/T.png'></img>	89,71	2750.0	test	<img class = center src='/static/experiments/beast_fmri_test/images/redT.png'></img>	stop	1900.0	2.0	8.0	stop	target	T	89,Middle Finger	71,Index Finger	850.0	750.0	1900.0	2000.0	0.0	1.0	850.0	n/a	stop_stim
273917.96203814656	2159.03796185	n/a	-1	-1	2750	2159.03796185	stim	stop-signal	507	1325926	0.0-21.8-1.8	beast_fmri_test	329	1323763,/,1324441,/,1325121,/,1325801,/,1326481,/,1327160,/,1327841,/	t,t,t,t,t,t,t	<img class = center src='/static/experiments/beast_fmri_test/images/T.png'></img>	89,71	2750.0	test	<img class = center src='/static/experiments/beast_fmri_test/images/redT.png'></img>	stop	1900.0	2.0	8.0	stop	target	T	89,Middle Finger	71,Index Finger	850.0	750.0	1900.0	2000.0	0.0	1.0	850.0	n/a	ITI
278790	500.0	n/a	-1	-1	500	0.0	fixation	poldrack-single-stim	508	1328639	0.0-21.9-0.9	beast_fmri_test	329	1328519,/	t	<div class = centerbox2><div class = fixation>+</div></div>	none	500.0	test	n/a	n/a	n/a	n/a	n/a	n/a	n/a	n/a	n/a	n/a	n/a	n/a	n/a	n/a	n/a	n/a	n/a	n/a	fixation
278387.6999060167	2750.0	n/a	2487	71	2750	403.300093983	stim	stop-signal	509	1331390	0.0-21.9-1.9	beast_fmri_test	329	1329200,/,1329879,/,1330560,/,1331239,/	t,t,t,t	<img class = center src='/static/experiments/beast_fmri_test/images/D.png'></img>	89,71	2750.0	test	<img class = center src='/static/experiments/beast_fmri_test/images/redD.png'></img>	go	2000.0	2.0	9.0	go	non-target	D	89,Middle Finger	71,Index Finger	900.0	750.0	1900.0	2000.0	1.0	n/a	750.0	1.0	go_stim
281137.6999060167	403.300093983	n/a	2487	71	2750	403.300093983	stim	stop-signal	509	1331390	0.0-21.9-1.9	beast_fmri_test	329	1329200,/,1329879,/,1330560,/,1331239,/	t,t,t,t	<img class = center src='/static/experiments/beast_fmri_test/images/D.png'></img>	89,71	2750.0	test	<img class = center src='/static/experiments/beast_fmri_test/images/redD.png'></img>	go	2000.0	2.0	9.0	go	non-target	D	89,Middle Finger	71,Index Finger	900.0	750.0	1900.0	2000.0	1.0	n/a	750.0	1.0	ITI
282500	500.0	n/a	-1	-1	500	0.0	fixation	poldrack-single-stim	510	1332349	0.0-21.10-0.10	beast_fmri_test	329	1331918,/	t	<div class = centerbox2><div class = fixation>+</div></div>	none	500.0	test	n/a	n/a	n/a	n/a	n/a	n/a	n/a	n/a	n/a	n/a	n/a	n/a	n/a	n/a	n/a	n/a	n/a	n/a	fixation
281706.51609350904	2750.0	n/a	2734	71	2750	795.483906491	stim	stop-signal	511	1335101	0.0-21.10-1.10	beast_fmri_test	329	1332597,/,1333277,/,1333958,/,1334636,/,1335317,/	t,t,t,t,t	<img class = center src='/static/experiments/beast_fmri_test/images/B.png'></img>	89,71	2750.0	test	<img class = center src='/static/experiments/beast_fmri_test/images/redB.png'></img>	go	2000.0	2.0	10.0	go	non-target	B	89,Middle Finger	71,Index Finger	900.0	750.0	1900.0	2000.0	1.0	n/a	750.0	1.0	go_stim
284456.51609350904	795.483906491	n/a	2734	71	2750	795.483906491	stim	stop-signal	511	1335101	0.0-21.10-1.10	beast_fmri_test	329	1332597,/,1333277,/,1333958,/,1334636,/,1335317,/	t,t,t,t,t	<img class = center src='/static/experiments/beast_fmri_test/images/B.png'></img>	89,71	2750.0	test	<img class = center src='/static/experiments/beast_fmri_test/images/redB.png'></img>	go	2000.0	2.0	10.0	go	non-target	B	89,Middle Finger	71,Index Finger	900.0	750.0	1900.0	2000.0	1.0	n/a	750.0	1.0	ITI
286604	500.0	n/a	-1	-1	500	0.0	fixation	poldrack-single-stim	512	1336453	0.0-21.11-0.11	beast_fmri_test	329	1335995,/	t	<div class = centerbox2><div class = fixation>+</div></div>	none	500.0	test	n/a	n/a	n/a	n/a	n/a	n/a	n/a	n/a	n/a	n/a	n/a	n/a	n/a	n/a	n/a	n/a	n/a	n/a	fixation
285966.19272686355	2750.0	n/a	1597	71	2750	639.807273136	stim	stop-signal	513	1339205	0.0-21.11-1.11	beast_fmri_test	329	1336677,/,1337355,/,1338035,/,1338714,/,1339395,/	t,t,t,t,t	<img class = center src='/static/experiments/beast_fmri_test/images/P.png'></img>	89,71	2750.0	test	<img class = center src='/static/experiments/beast_fmri_test/images/redP.png'></img>	go	2000.0	2.0	11.0	go	non-target	P	89,Middle Finger	71,Index Finger	900.0	750.0	1900.0	2000.0	1.0	n/a	750.0	1.0	go_stim
288716.19272686355	639.807273136	n/a	1597	71	2750	639.807273136	stim	stop-signal	513	1339205	0.0-21.11-1.11	beast_fmri_test	329	1336677,/,1337355,/,1338035,/,1338714,/,1339395,/	t,t,t,t,t	<img class = center src='/static/experiments/beast_fmri_test/images/P.png'></img>	89,71	2750.0	test	<img class = center src='/static/experiments/beast_fmri_test/images/redP.png'></img>	go	2000.0	2.0	11.0	go	non-target	P	89,Middle Finger	71,Index Finger	900.0	750.0	1900.0	2000.0	1.0	n/a	750.0	1.0	ITI
290551	500.0	n/a	-1	-1	500	0.0	fixation	poldrack-single-stim	514	1340400	0.0-21.12-0.12	beast_fmri_test	329	1340074,/	t	<div class = centerbox2><div class = fixation>+</div></div>	none	500.0	test	n/a	n/a	n/a	n/a	n/a	n/a	n/a	n/a	n/a	n/a	n/a	n/a	n/a	n/a	n/a	n/a	n/a	n/a	fixation
290530.64468285791	2750.0	n/a	913	71	2750	23.3553171421	stim	stop-signal	515	1343153	0.0-21.12-1.12	beast_fmri_test	329	1340754,/,1341434,/,1342114,/,1342793,/	t,t,t,t	<img class = center src='/static/experiments/beast_fmri_test/images/D.png'></img>	89,71	2750.0	test	<img class = center src='/static/experiments/beast_fmri_test/images/redD.png'></img>	go	2000.0	2.0	12.0	go	non-target	D	89,Middle Finger	71,Index Finger	900.0	750.0	1900.0	2000.0	1.0	n/a	750.0	1.0	go_stim
293280.64468285791	23.3553171421	n/a	913	71	2750	23.3553171421	stim	stop-signal	515	1343153	0.0-21.12-1.12	beast_fmri_test	329	1340754,/,1341434,/,1342114,/,1342793,/	t,t,t,t	<img class = center src='/static/experiments/beast_fmri_test/images/D.png'></img>	89,71	2750.0	test	<img class = center src='/static/experiments/beast_fmri_test/images/redD.png'></img>	go	2000.0	2.0	12.0	go	non-target	D	89,Middle Finger	71,Index Finger	900.0	750.0	1900.0	2000.0	1.0	n/a	750.0	1.0	ITI
293884	500.0	n/a	-1	-1	500	0.0	fixation	poldrack-single-stim	516	1343733	0.0-21.13-0.13	beast_fmri_test	329	1343472,/	t	<div class = centerbox2><div class = fixation>+</div></div>	none	500.0	test	n/a	n/a	n/a	n/a	n/a	n/a	n/a	n/a	n/a	n/a	n/a	n/a	n/a	n/a	n/a	n/a	n/a	n/a	fixation
293391.12049467769	750.0	n/a	-1	-1	2750	494.879505322	stim	stop-signal	517	1346485	0.0-21.13-1.13	beast_fmri_test	329	1344153,/,1344831,/,1345512,/,1346190,/,1346871,/	t,t,t,t,t	<img class = center src='/static/experiments/beast_fmri_test/images/V.png'></img>	89,71	2750.0	test	<img class = center src='/static/experiments/beast_fmri_test/images/redV.png'></img>	stop	2000.0	2.0	13.0	stop	non-target	V	89,Middle Finger	71,Index Finger	900.0	750.0	1900.0	2000.0	0.0	1.0	750.0	n/a	go_stim
295391.12049467769	2000.0	n/a	-1	-1	2750	494.879505322	stim	stop-signal	517	1346485	0.0-21.13-1.13	beast_fmri_test	329	1344153,/,1344831,/,1345512,/,1346190,/,1346871,/	t,t,t,t,t	<img class = center src='/static/experiments/beast_fmri_test/images/V.png'></img>	89,71	2750.0	test	<img class = center src='/static/experiments/beast_fmri_test/images/redV.png'></img>	stop	2000.0	2.0	13.0	stop	non-target	V	89,Middle Finger	71,Index Finger	900.0	750.0	1900.0	2000.0	0.0	1.0	750.0	n/a	stop_stim
296141.12049467769	494.879505322	n/a	-1	-1	2750	494.879505322	stim	stop-signal	517	1346485	0.0-21.13-1.13	beast_fmri_test	329	1344153,/,1344831,/,1345512,/,1346190,/,1346871,/	t,t,t,t,t	<img class = center src='/static/experiments/beast_fmri_test/images/V.png'></img>	89,71	2750.0	test	<img class = center src='/static/experiments/beast_fmri_test/images/redV.png'></img>	stop	2000.0	2.0	13.0	stop	non-target	V	89,Middle Finger	71,Index Finger	900.0	750.0	1900.0	2000.0	0.0	1.0	750.0	n/a	ITI
297684	500.0	n/a	-1	-1	500	0.0	fixation	poldrack-single-stim	518	1347533	0.0-21.14-0.14	beast_fmri_test	329	n/a	n/a	<div class = centerbox2><div class = fixation>+</div></div>	none	500.0	test	n/a	n/a	n/a	n/a	n/a	n/a	n/a	n/a	n/a	n/a	n/a	n/a	n/a	n/a	n/a	n/a	n/a	n/a	fixation
297605.22265018732	900.0	n/a	1130	71	2750	81.7773498127	stim	stop-signal	519	1350286	0.0-21.14-1.14	beast_fmri_test	329	1347550,/,1348231,/,1348910,/,1349588,/,1350271,/	t,t,t,t,t	<img class = center src='/static/experiments/beast_fmri_test/images/D.png'></img>	89,71	2750.0	test	<img class = center src='/static/experiments/beast_fmri_test/images/redD.png'></img>	stop	1850.0	2.0	14.0	stop	target	D	89,Middle Finger	71,Index Finger	900.0	800.0	1850.0	2000.0	0.0	0.0	900.0	n/a	go_stim
299455.22265018732	1850.0	n/a	1130	71	2750	81.7773498127	stim	stop-signal	519	1350286	0.0-21.14-1.14	beast_fmri_test	329	1347550,/,1348231,/,1348910,/,1349588,/,1350271,/	t,t,t,t,t	<img class = center src='/static/experiments/beast_fmri_test/images/D.png'></img>	89,71	2750.0	test	<img class = center src='/static/experiments/beast_fmri_test/images/redD.png'></img>	stop	1850.0	2.0	14.0	stop	target	D	89,Middle Finger	71,Index Finger	900.0	800.0	1850.0	2000.0	0.0	0.0	900.0	n/a	stop_stim
300355.22265018732	81.7773498127	n/a	1130	71	2750	81.7773498127	stim	stop-signal	519	1350286	0.0-21.14-1.14	beast_fmri_test	329	1347550,/,1348231,/,1348910,/,1349588,/,1350271,/	t,t,t,t,t	<img class = center src='/static/experiments/beast_fmri_test/images/D.png'></img>	89,71	2750.0	test	<img class = center src='/static/experiments/beast_fmri_test/images/redD.png'></img>	stop	1850.0	2.0	14.0	stop	target	D	89,Middle Finger	71,Index Finger	900.0	800.0	1850.0	2000.0	0.0	0.0	900.0	n/a	ITI
301072	500.0	n/a	-1	-1	500	0.0	fixation	poldrack-single-stim	520	1350921	0.0-21.15-0.15	beast_fmri_test	329	n/a	n/a	<div class = centerbox2><div class = fixation>+</div></div>	none	500.0	test	n/a	n/a	n/a	n/a	n/a	n/a	n/a	n/a	n/a	n/a	n/a	n/a	n/a	n/a	n/a	n/a	n/a	n/a	fixation
299147.6888548003	850.0	n/a	979	89	2750	1925.3111452	stim	stop-signal	521	1353672	0.0-21.15-1.15	beast_fmri_test	329	1350949,/,1351628,/,1352308,/,1352987,/,1353669,/,1354348,/,1355027,/	t,t,t,t,t,t,t	<img class = center src='/static/experiments/beast_fmri_test/images/V.png'></img>	89,71	2750.0	test	<img class = center src='/static/experiments/beast_fmri_test/images/redV.png'></img>	stop	1900.0	2.0	15.0	stop	target	V	89,Middle Finger	71,Index Finger	850.0	800.0	1900.0	2000.0	0.0	0.0	850.0	n/a	go_stim
301047.6888548003	1900.0	n/a	979	89	2750	1925.3111452	stim	stop-signal	521	1353672	0.0-21.15-1.15	beast_fmri_test	329	1350949,/,1351628,/,1352308,/,1352987,/,1353669,/,1354348,/,1355027,/	t,t,t,t,t,t,t	<img class = center src='/static/experiments/beast_fmri_test/images/V.png'></img>	89,71	2750.0	test	<img class = center src='/static/experiments/beast_fmri_test/images/redV.png'></img>	stop	1900.0	2.0	15.0	stop	target	V	89,Middle Finger	71,Index Finger	850.0	800.0	1900.0	2000.0	0.0	0.0	850.0	n/a	stop_stim
301897.6888548003	1925.3111452	n/a	979	89	2750	1925.3111452	stim	stop-signal	521	1353672	0.0-21.15-1.15	beast_fmri_test	329	1350949,/,1351628,/,1352308,/,1352987,/,1353669,/,1354348,/,1355027,/	t,t,t,t,t,t,t	<img class = center src='/static/experiments/beast_fmri_test/images/V.png'></img>	89,71	2750.0	test	<img class = center src='/static/experiments/beast_fmri_test/images/redV.png'></img>	stop	1900.0	2.0	15.0	stop	target	V	89,Middle Finger	71,Index Finger	850.0	800.0	1900.0	2000.0	0.0	0.0	850.0	n/a	ITI
306303	500.0	n/a	-1	-1	500	0.0	fixation	poldrack-single-stim	522	1356152	0.0-21.16-0.16	beast_fmri_test	329	1355707,/	t	<div class = centerbox2><div class = fixation>+</div></div>	none	500.0	test	n/a	n/a	n/a	n/a	n/a	n/a	n/a	n/a	n/a	n/a	n/a	n/a	n/a	n/a	n/a	n/a	n/a	n/a	fixation
305826.70518854749	800.0	n/a	-1	-1	2750	478.294811452	stim	stop-signal	523	1358904	0.0-21.16-1.16	beast_fmri_test	329	1356388,/,1357067,/,1357747,/,1358425,/,1359106,/	t,t,t,t,t	<img class = center src='/static/experiments/beast_fmri_test/images/V.png'></img>	89,71	2750.0	test	<img class = center src='/static/experiments/beast_fmri_test/images/redV.png'></img>	stop	1950.0	2.0	16.0	stop	non-target	V	89,Middle Finger	71,Index Finger	800.0	800.0	1900.0	1950.0	0.0	1.0	800.0	n/a	go_stim
307776.70518854749	1950.0	n/a	-1	-1	2750	478.294811452	stim	stop-signal	523	1358904	0.0-21.16-1.16	beast_fmri_test	329	1356388,/,1357067,/,1357747,/,1358425,/,1359106,/	t,t,t,t,t	<img class = center src='/static/experiments/beast_fmri_test/images/V.png'></img>	89,71	2750.0	test	<img class = center src='/static/experiments/beast_fmri_test/images/redV.png'></img>	stop	1950.0	2.0	16.0	stop	non-target	V	89,Middle Finger	71,Index Finger	800.0	800.0	1900.0	1950.0	0.0	1.0	800.0	n/a	stop_stim
308576.70518854749	478.294811452	n/a	-1	-1	2750	478.294811452	stim	stop-signal	523	1358904	0.0-21.16-1.16	beast_fmri_test	329	1356388,/,1357067,/,1357747,/,1358425,/,1359106,/	t,t,t,t,t	<img class = center src='/static/experiments/beast_fmri_test/images/V.png'></img>	89,71	2750.0	test	<img class = center src='/static/experiments/beast_fmri_test/images/redV.png'></img>	stop	1950.0	2.0	16.0	stop	non-target	V	89,Middle Finger	71,Index Finger	800.0	800.0	1900.0	1950.0	0.0	1.0	800.0	n/a	ITI
310098	500.0	n/a	-1	-1	500	0.0	fixation	poldrack-single-stim	524	1359947	0.0-21.17-0.17	beast_fmri_test	329	1359785,/	t	<div class = centerbox2><div class = fixation>+</div></div>	none	500.0	test	n/a	n/a	n/a	n/a	n/a	n/a	n/a	n/a	n/a	n/a	n/a	n/a	n/a	n/a	n/a	n/a	n/a	n/a	fixation
309644.30926359352	2750.0	n/a	2464	89	2750	456.690736406	stim	stop-signal	525	1362700	0.0-21.17-1.17	beast_fmri_test	329	1360466,/,1361144,/,1361825,/,1362504,/	t,t,t,t	<img class = center src='/static/experiments/beast_fmri_test/images/V.png'></img>	89,71	2750.0	test	<img class = center src='/static/experiments/beast_fmri_test/images/redV.png'></img>	go	1950.0	2.0	17.0	go	target	V	89,Middle Finger	71,Index Finger	800.0	850.0	1950.0	1950.0	1.0	n/a	800.0	1.0	go_stim
312394.30926359352	456.690736406	n/a	2464	89	2750	456.690736406	stim	stop-signal	525	1362700	0.0-21.17-1.17	beast_fmri_test	329	1360466,/,1361144,/,1361825,/,1362504,/	t,t,t,t	<img class = center src='/static/experiments/beast_fmri_test/images/V.png'></img>	89,71	2750.0	test	<img class = center src='/static/experiments/beast_fmri_test/images/redV.png'></img>	go	1950.0	2.0	17.0	go	target	V	89,Middle Finger	71,Index Finger	800.0	850.0	1950.0	1950.0	1.0	n/a	800.0	1.0	ITI
313864	500.0	n/a	-1	-1	500	0.0	fixation	poldrack-single-stim	526	1363713	0.0-21.18-0.18	beast_fmri_test	329	1363211,/	t	<div class = centerbox2><div class = fixation>+</div></div>	none	500.0	test	n/a	n/a	n/a	n/a	n/a	n/a	n/a	n/a	n/a	n/a	n/a	n/a	n/a	n/a	n/a	n/a	n/a	n/a	fixation
313486.31660939544	2750.0	n/a	1196	89	2750	379.683390604	stim	stop-signal	527	1366465	0.0-21.18-1.18	beast_fmri_test	329	1363864,/,1364543,/,1365223,/,1365902,/,1366582,/	t,t,t,t,t	<img class = center src='/static/experiments/beast_fmri_test/images/V.png'></img>	89,71	2750.0	test	<img class = center src='/static/experiments/beast_fmri_test/images/redV.png'></img>	go	1950.0	2.0	18.0	go	target	V	89,Middle Finger	71,Index Finger	800.0	850.0	1950.0	1950.0	1.0	n/a	800.0	1.0	go_stim
316236.31660939544	379.683390604	n/a	1196	89	2750	379.683390604	stim	stop-signal	527	1366465	0.0-21.18-1.18	beast_fmri_test	329	1363864,/,1364543,/,1365223,/,1365902,/,1366582,/	t,t,t,t,t	<img class = center src='/static/experiments/beast_fmri_test/images/V.png'></img>	89,71	2750.0	test	<img class = center src='/static/experiments/beast_fmri_test/images/redV.png'></img>	go	1950.0	2.0	18.0	go	target	V	89,Middle Finger	71,Index Finger	800.0	850.0	1950.0	1950.0	1.0	n/a	800.0	1.0	ITI
317551	500.0	n/a	-1	-1	500	0.0	fixation	poldrack-single-stim	528	1367400	0.0-21.19-0.19	beast_fmri_test	329	1367261,/	t	<div class = centerbox2><div class = fixation>+</div></div>	none	500.0	test	n/a	n/a	n/a	n/a	n/a	n/a	n/a	n/a	n/a	n/a	n/a	n/a	n/a	n/a	n/a	n/a	n/a	n/a	fixation
317316.16579747992	850.0	n/a	925	71	2750	236.83420252	stim	stop-signal	529	1370152	0.0-21.19-1.19	beast_fmri_test	329	1367942,/,1368620,/,1369301,/,1369980,/	t,t,t,t	<img class = center src='/static/experiments/beast_fmri_test/images/P.png'></img>	89,71	2750.0	test	<img class = center src='/static/experiments/beast_fmri_test/images/redP.png'></img>	stop	1900.0	2.0	19.0	stop	non-target	P	89,Middle Finger	71,Index Finger	800.0	850.0	1950.0	1900.0	0.0	0.0	850.0	n/a	go_stim
319216.16579747992	1900.0	n/a	925	71	2750	236.83420252	stim	stop-signal	529	1370152	0.0-21.19-1.19	beast_fmri_test	329	1367942,/,1368620,/,1369301,/,1369980,/	t,t,t,t	<img class = center src='/static/experiments/beast_fmri_test/images/P.png'></img>	89,71	2750.0	test	<img class = center src='/static/experiments/beast_fmri_test/images/redP.png'></img>	stop	1900.0	2.0	19.0	stop	non-target	P	89,Middle Finger	71,Index Finger	800.0	850.0	1950.0	1900.0	0.0	0.0	850.0	n/a	stop_stim
320066.16579747992	236.83420252	n/a	925	71	2750	236.83420252	stim	stop-signal	529	1370152	0.0-21.19-1.19	beast_fmri_test	329	1367942,/,1368620,/,1369301,/,1369980,/	t,t,t,t	<img class = center src='/static/experiments/beast_fmri_test/images/P.png'></img>	89,71	2750.0	test	<img class = center src='/static/experiments/beast_fmri_test/images/redP.png'></img>	stop	1900.0	2.0	19.0	stop	non-target	P	89,Middle Finger	71,Index Finger	800.0	850.0	1950.0	1900.0	0.0	0.0	850.0	n/a	ITI
321096	500.0	n/a	-1	-1	500	0.0	fixation	poldrack-single-stim	530	1370945	0.0-21.20-0.20	beast_fmri_test	329	1370661,/	t	<div class = centerbox2><div class = fixation>+</div></div>	none	500.0	test	n/a	n/a	n/a	n/a	n/a	n/a	n/a	n/a	n/a	n/a	n/a	n/a	n/a	n/a	n/a	n/a	n/a	n/a	fixation
320957.9517626157	2750.0	n/a	1137	71	2750	140.048237384	stim	stop-signal	531	1373697	0.0-21.20-1.20	beast_fmri_test	329	1371339,/,1372020,/,1372699,/,1373379,/	t,t,t,t	<img class = center src='/static/experiments/beast_fmri_test/images/V.png'></img>	89,71	2750.0	test	<img class = center src='/static/experiments/beast_fmri_test/images/redV.png'></img>	go	1950.0	2.0	20.0	go	target	V	89,Middle Finger	71,Index Finger	800.0	800.0	1950.0	1900.0	0.0	n/a	800.0	0.0	go_stim
323707.9517626157	140.048237384	n/a	1137	71	2750	140.048237384	stim	stop-signal	531	1373697	0.0-21.20-1.20	beast_fmri_test	329	1371339,/,1372020,/,1372699,/,1373379,/	t,t,t,t	<img class = center src='/static/experiments/beast_fmri_test/images/V.png'></img>	89,71	2750.0	test	<img class = center src='/static/experiments/beast_fmri_test/images/redV.png'></img>	go	1950.0	2.0	20.0	go	target	V	89,Middle Finger	71,Index Finger	800.0	800.0	1950.0	1900.0	0.0	n/a	800.0	0.0	ITI
324546	500.0	n/a	-1	-1	500	0.0	fixation	poldrack-single-stim	532	1374395	0.0-21.21-0.21	beast_fmri_test	329	1374059,/	t	<div class = centerbox2><div class = fixation>+</div></div>	none	500.0	test	n/a	n/a	n/a	n/a	n/a	n/a	n/a	n/a	n/a	n/a	n/a	n/a	n/a	n/a	n/a	n/a	n/a	n/a	fixation
