onset	duration	text	rt	key_press	block_duration	timing_post_trial	trial_id	trial_type	trial_index	time_elapsed	internal_node_id	exp_id	subject_id	trigger_times	triggers	stimulus	possible_responses	stim_duration	exp_stage	SS_stimulus	SS_trial_type	SS_duration	load	trial_num	stop_trial_type	adaptive_trial_type	stim	yes_response_key	no_response_key	SSD_target	SSD_non_target	SSTarget	SSNonTarget	go_acc	stop_acc	SS_delay	adaptive_acc	new_trial_type
test	10880.0	n/a	-1	-1	10880	0.0	practice-no-stop-feedback	poldrack-single-stim	586	1584954	0.0-24.0	beast_fmri_test	329	1574078,/,1574755,/,1575435,/,1576114,/,1576795,/,1577474,/,1578154,/,1578833,/,1579514,/,1580193,/,1580872,/,1581553,/,1582231,/,1582912,/,1583590,/,1584272,/,1584950,/	t,t,t,t,t,t,t,t,t,t,t,t,t,t,t,t,t	"<div class = ""centerbox""><p class = ""block-text"">Your delay is 1 trials.</p><p class = block-text>Please wait for the scanner to start the block</p></div>"	77	10880.0	n/a	n/a	n/a	n/a	n/a	n/a	n/a	n/a	n/a	n/a	n/a	n/a	n/a	n/a	n/a	n/a	n/a	n/a	n/a	start_functional_block
11378	500.0	n/a	-1	-1	500	0.0	fixation	poldrack-single-stim	587	1585456	0.0-25.0-0.0	beast_fmri_test	329	n/a	n/a	<div class = centerbox2><div class = fixation>+</div></div>	none	500.0	test	n/a	n/a	n/a	n/a	n/a	n/a	n/a	n/a	n/a	n/a	n/a	n/a	n/a	n/a	n/a	n/a	n/a	n/a	fixation
10875.616662863642	2750.0	n/a	1201	71	2750	503.383337136	stim	stop-signal	588	1588207	0.0-25.0-1.0	beast_fmri_test	329	1585631,/,1586309,/,1586990,/,1587670,/,1588349,/	t,t,t,t,t	<img class = center src='/static/experiments/beast_fmri_test/images/D.png'></img>	89,71	2750.0	test	<img class = center src='/static/experiments/beast_fmri_test/images/redD.png'></img>	go	-1.0	1.0	0.0	go	temp-non-target	D	89,Middle Finger	71,Index Finger	800.0	700.0	1950.0	2050.0	0.0	n/a	n/a	n/a	go_stim
13625.616662863642	503.383337136	n/a	1201	71	2750	503.383337136	stim	stop-signal	588	1588207	0.0-25.0-1.0	beast_fmri_test	329	1585631,/,1586309,/,1586990,/,1587670,/,1588349,/	t,t,t,t,t	<img class = center src='/static/experiments/beast_fmri_test/images/D.png'></img>	89,71	2750.0	test	<img class = center src='/static/experiments/beast_fmri_test/images/redD.png'></img>	go	-1.0	1.0	0.0	go	temp-non-target	D	89,Middle Finger	71,Index Finger	800.0	700.0	1950.0	2050.0	0.0	n/a	n/a	n/a	ITI
15196	500.0	n/a	-1	-1	500	0.0	fixation	poldrack-single-stim	589	1589274	0.0-25.1-0.1	beast_fmri_test	329	1589029,/	t	<div class = centerbox2><div class = fixation>+</div></div>	none	500.0	test	n/a	n/a	n/a	n/a	n/a	n/a	n/a	n/a	n/a	n/a	n/a	n/a	n/a	n/a	n/a	n/a	n/a	n/a	fixation
12602.073893443448	700.0	n/a	-1	-1	2750	2596.92610656	stim	stop-signal	590	1592027	0.0-25.1-1.1	beast_fmri_test	329	1589709,/,1590389,/,1591068,/,1591749,/,1592427,/,1593108,/,1593786,/,1594467,/	t,t,t,t,t,t,t,t	<img class = center src='/static/experiments/beast_fmri_test/images/P.png'></img>	89,71	2750.0	test	<img class = center src='/static/experiments/beast_fmri_test/images/redP.png'></img>	stop	2050.0	1.0	1.0	stop	non-target	P	89,Middle Finger	71,Index Finger	800.0	700.0	1950.0	2050.0	0.0	1.0	700.0	n/a	go_stim
14652.073893443448	2050.0	n/a	-1	-1	2750	2596.92610656	stim	stop-signal	590	1592027	0.0-25.1-1.1	beast_fmri_test	329	1589709,/,1590389,/,1591068,/,1591749,/,1592427,/,1593108,/,1593786,/,1594467,/	t,t,t,t,t,t,t,t	<img class = center src='/static/experiments/beast_fmri_test/images/P.png'></img>	89,71	2750.0	test	<img class = center src='/static/experiments/beast_fmri_test/images/redP.png'></img>	stop	2050.0	1.0	1.0	stop	non-target	P	89,Middle Finger	71,Index Finger	800.0	700.0	1950.0	2050.0	0.0	1.0	700.0	n/a	stop_stim
15352.073893443448	2596.92610656	n/a	-1	-1	2750	2596.92610656	stim	stop-signal	590	1592027	0.0-25.1-1.1	beast_fmri_test	329	1589709,/,1590389,/,1591068,/,1591749,/,1592427,/,1593108,/,1593786,/,1594467,/	t,t,t,t,t,t,t,t	<img class = center src='/static/experiments/beast_fmri_test/images/P.png'></img>	89,71	2750.0	test	<img class = center src='/static/experiments/beast_fmri_test/images/redP.png'></img>	stop	2050.0	1.0	1.0	stop	non-target	P	89,Middle Finger	71,Index Finger	800.0	700.0	1950.0	2050.0	0.0	1.0	700.0	n/a	ITI
21109	500.0	n/a	-1	-1	500	0.0	fixation	poldrack-single-stim	591	1595187	0.0-25.2-0.2	beast_fmri_test	329	1595146,/	t	<div class = centerbox2><div class = fixation>+</div></div>	none	500.0	test	n/a	n/a	n/a	n/a	n/a	n/a	n/a	n/a	n/a	n/a	n/a	n/a	n/a	n/a	n/a	n/a	n/a	n/a	fixation
20024.140050326008	800.0	n/a	993	89	2750	1086.85994967	stim	stop-signal	592	1597939	0.0-25.2-1.2	beast_fmri_test	329	1595826,/,1596505,/,1597186,/,1597866,/,1598544,/	t,t,t,t,t	<img class = center src='/static/experiments/beast_fmri_test/images/P.png'></img>	89,71	2750.0	test	<img class = center src='/static/experiments/beast_fmri_test/images/redP.png'></img>	stop	1950.0	1.0	2.0	stop	target	P	89,Middle Finger	71,Index Finger	800.0	750.0	1950.0	2050.0	0.0	0.0	800.0	n/a	go_stim
21974.140050326008	1950.0	n/a	993	89	2750	1086.85994967	stim	stop-signal	592	1597939	0.0-25.2-1.2	beast_fmri_test	329	1595826,/,1596505,/,1597186,/,1597866,/,1598544,/	t,t,t,t,t	<img class = center src='/static/experiments/beast_fmri_test/images/P.png'></img>	89,71	2750.0	test	<img class = center src='/static/experiments/beast_fmri_test/images/redP.png'></img>	stop	1950.0	1.0	2.0	stop	target	P	89,Middle Finger	71,Index Finger	800.0	750.0	1950.0	2050.0	0.0	0.0	800.0	n/a	stop_stim
22774.140050326008	1086.85994967	n/a	993	89	2750	1086.85994967	stim	stop-signal	592	1597939	0.0-25.2-1.2	beast_fmri_test	329	1595826,/,1596505,/,1597186,/,1597866,/,1598544,/	t,t,t,t,t	<img class = center src='/static/experiments/beast_fmri_test/images/P.png'></img>	89,71	2750.0	test	<img class = center src='/static/experiments/beast_fmri_test/images/redP.png'></img>	stop	1950.0	1.0	2.0	stop	target	P	89,Middle Finger	71,Index Finger	800.0	750.0	1950.0	2050.0	0.0	0.0	800.0	n/a	ITI
25512	500.0	n/a	-1	-1	500	0.0	fixation	poldrack-single-stim	593	1599590	0.0-25.3-0.3	beast_fmri_test	329	1599225,/	t	<div class = centerbox2><div class = fixation>+</div></div>	none	500.0	test	n/a	n/a	n/a	n/a	n/a	n/a	n/a	n/a	n/a	n/a	n/a	n/a	n/a	n/a	n/a	n/a	n/a	n/a	fixation
25417.280043536564	2750.0	n/a	1638	89	2750	95.7199564634	stim	stop-signal	594	1602341	0.0-25.3-1.3	beast_fmri_test	329	1599905,/,1600584,/,1601264,/,1601944,/	t,t,t,t	<img class = center src='/static/experiments/beast_fmri_test/images/P.png'></img>	89,71	2750.0	test	<img class = center src='/static/experiments/beast_fmri_test/images/redP.png'></img>	go	2000.0	1.0	3.0	go	target	P	89,Middle Finger	71,Index Finger	750.0	750.0	2000.0	2050.0	1.0	n/a	750.0	1.0	go_stim
28167.280043536564	95.7199564634	n/a	1638	89	2750	95.7199564634	stim	stop-signal	594	1602341	0.0-25.3-1.3	beast_fmri_test	329	1599905,/,1600584,/,1601264,/,1601944,/	t,t,t,t	<img class = center src='/static/experiments/beast_fmri_test/images/P.png'></img>	89,71	2750.0	test	<img class = center src='/static/experiments/beast_fmri_test/images/redP.png'></img>	go	2000.0	1.0	3.0	go	target	P	89,Middle Finger	71,Index Finger	750.0	750.0	2000.0	2050.0	1.0	n/a	750.0	1.0	ITI
28922	500.0	n/a	-1	-1	500	0.0	fixation	poldrack-single-stim	595	1603000	0.0-25.4-0.4	beast_fmri_test	329	1602622,/	t	<div class = centerbox2><div class = fixation>+</div></div>	none	500.0	test	n/a	n/a	n/a	n/a	n/a	n/a	n/a	n/a	n/a	n/a	n/a	n/a	n/a	n/a	n/a	n/a	n/a	n/a	fixation
28150.784510044847	2750.0	n/a	925	71	2750	772.215489955	stim	stop-signal	596	1605751	0.0-25.4-1.4	beast_fmri_test	329	1603303,/,1603982,/,1604662,/,1605341,/,1606021,/	t,t,t,t,t	<img class = center src='/static/experiments/beast_fmri_test/images/B.png'></img>	89,71	2750.0	test	<img class = center src='/static/experiments/beast_fmri_test/images/redB.png'></img>	go	2000.0	1.0	4.0	go	non-target	B	89,Middle Finger	71,Index Finger	750.0	750.0	2000.0	2000.0	1.0	n/a	750.0	1.0	go_stim
30900.784510044847	772.215489955	n/a	925	71	2750	772.215489955	stim	stop-signal	596	1605751	0.0-25.4-1.4	beast_fmri_test	329	1603303,/,1603982,/,1604662,/,1605341,/,1606021,/	t,t,t,t,t	<img class = center src='/static/experiments/beast_fmri_test/images/B.png'></img>	89,71	2750.0	test	<img class = center src='/static/experiments/beast_fmri_test/images/redB.png'></img>	go	2000.0	1.0	4.0	go	non-target	B	89,Middle Finger	71,Index Finger	750.0	750.0	2000.0	2000.0	1.0	n/a	750.0	1.0	ITI
33015	500.0	n/a	-1	-1	500	0.0	fixation	poldrack-single-stim	597	1607093	0.0-25.5-0.5	beast_fmri_test	329	1606701,/	t	<div class = centerbox2><div class = fixation>+</div></div>	none	500.0	test	n/a	n/a	n/a	n/a	n/a	n/a	n/a	n/a	n/a	n/a	n/a	n/a	n/a	n/a	n/a	n/a	n/a	n/a	fixation
32177.172664608108	2750.0	n/a	800	89	2750	840.827335392	stim	stop-signal	598	1609846	0.0-25.5-1.5	beast_fmri_test	329	1607381,/,1608061,/,1608740,/,1609419,/,1610099,/	t,t,t,t,t	<img class = center src='/static/experiments/beast_fmri_test/images/B.png'></img>	89,71	2750.0	test	<img class = center src='/static/experiments/beast_fmri_test/images/redB.png'></img>	go	2000.0	1.0	5.0	go	target	B	89,Middle Finger	71,Index Finger	750.0	750.0	2000.0	2000.0	1.0	n/a	750.0	1.0	go_stim
34927.172664608108	840.827335392	n/a	800	89	2750	840.827335392	stim	stop-signal	598	1609846	0.0-25.5-1.5	beast_fmri_test	329	1607381,/,1608061,/,1608740,/,1609419,/,1610099,/	t,t,t,t,t	<img class = center src='/static/experiments/beast_fmri_test/images/B.png'></img>	89,71	2750.0	test	<img class = center src='/static/experiments/beast_fmri_test/images/redB.png'></img>	go	2000.0	1.0	5.0	go	target	B	89,Middle Finger	71,Index Finger	750.0	750.0	2000.0	2000.0	1.0	n/a	750.0	1.0	ITI
37173	500.0	n/a	-1	-1	500	0.0	fixation	poldrack-single-stim	599	1611251	0.0-25.6-0.6	beast_fmri_test	329	1610778,/	t	<div class = centerbox2><div class = fixation>+</div></div>	none	500.0	test	n/a	n/a	n/a	n/a	n/a	n/a	n/a	n/a	n/a	n/a	n/a	n/a	n/a	n/a	n/a	n/a	n/a	n/a	fixation
36208.358115552459	2750.0	n/a	1191	89	2750	966.641884447	stim	stop-signal	600	1614003	0.0-25.6-1.6	beast_fmri_test	329	1611458,/,1612138,/,1612817,/,1613498,/,1614176,/,1614857,/	t,t,t,t,t,t	<img class = center src='/static/experiments/beast_fmri_test/images/B.png'></img>	89,71	2750.0	test	<img class = center src='/static/experiments/beast_fmri_test/images/redB.png'></img>	go	2000.0	1.0	6.0	go	target	B	89,Middle Finger	71,Index Finger	750.0	750.0	2000.0	2000.0	1.0	n/a	750.0	1.0	go_stim
38958.358115552459	966.641884447	n/a	1191	89	2750	966.641884447	stim	stop-signal	600	1614003	0.0-25.6-1.6	beast_fmri_test	329	1611458,/,1612138,/,1612817,/,1613498,/,1614176,/,1614857,/	t,t,t,t,t,t	<img class = center src='/static/experiments/beast_fmri_test/images/B.png'></img>	89,71	2750.0	test	<img class = center src='/static/experiments/beast_fmri_test/images/redB.png'></img>	go	2000.0	1.0	6.0	go	target	B	89,Middle Finger	71,Index Finger	750.0	750.0	2000.0	2000.0	1.0	n/a	750.0	1.0	ITI
41457	500.0	n/a	-1	-1	500	0.0	fixation	poldrack-single-stim	601	1615535	0.0-25.7-0.7	beast_fmri_test	329	n/a	n/a	<div class = centerbox2><div class = fixation>+</div></div>	none	500.0	test	n/a	n/a	n/a	n/a	n/a	n/a	n/a	n/a	n/a	n/a	n/a	n/a	n/a	n/a	n/a	n/a	n/a	n/a	fixation
41274.703694937518	750.0	n/a	-1	-1	2750	185.296305062	stim	stop-signal	602	1618288	0.0-25.7-1.7	beast_fmri_test	329	1615537,/,1616216,/,1616896,/,1617576,/,1618255,/	t,t,t,t,t	<img class = center src='/static/experiments/beast_fmri_test/images/P.png'></img>	89,71	2750.0	test	<img class = center src='/static/experiments/beast_fmri_test/images/redP.png'></img>	stop	2000.0	1.0	7.0	stop	non-target	P	89,Middle Finger	71,Index Finger	750.0	750.0	2000.0	2000.0	0.0	1.0	750.0	n/a	go_stim
43274.703694937518	2000.0	n/a	-1	-1	2750	185.296305062	stim	stop-signal	602	1618288	0.0-25.7-1.7	beast_fmri_test	329	1615537,/,1616216,/,1616896,/,1617576,/,1618255,/	t,t,t,t,t	<img class = center src='/static/experiments/beast_fmri_test/images/P.png'></img>	89,71	2750.0	test	<img class = center src='/static/experiments/beast_fmri_test/images/redP.png'></img>	stop	2000.0	1.0	7.0	stop	non-target	P	89,Middle Finger	71,Index Finger	750.0	750.0	2000.0	2000.0	0.0	1.0	750.0	n/a	stop_stim
44024.703694937518	185.296305062	n/a	-1	-1	2750	185.296305062	stim	stop-signal	602	1618288	0.0-25.7-1.7	beast_fmri_test	329	1615537,/,1616216,/,1616896,/,1617576,/,1618255,/	t,t,t,t,t	<img class = center src='/static/experiments/beast_fmri_test/images/P.png'></img>	89,71	2750.0	test	<img class = center src='/static/experiments/beast_fmri_test/images/redP.png'></img>	stop	2000.0	1.0	7.0	stop	non-target	P	89,Middle Finger	71,Index Finger	750.0	750.0	2000.0	2000.0	0.0	1.0	750.0	n/a	ITI
44969	500.0	n/a	-1	-1	500	0.0	fixation	poldrack-single-stim	603	1619047	0.0-25.8-0.8	beast_fmri_test	329	1618936,/	t	<div class = centerbox2><div class = fixation>+</div></div>	none	500.0	test	n/a	n/a	n/a	n/a	n/a	n/a	n/a	n/a	n/a	n/a	n/a	n/a	n/a	n/a	n/a	n/a	n/a	n/a	fixation
43152.479445967823	800.0	n/a	-1	-1	2750	1817.52055403	stim	stop-signal	604	1621798	0.0-25.8-1.8	beast_fmri_test	329	1619615,/,1620294,/,1620974,/,1621653,/,1622333,/,1623013,/	t,t,t,t,t,t	<img class = center src='/static/experiments/beast_fmri_test/images/T.png'></img>	89,71	2750.0	test	<img class = center src='/static/experiments/beast_fmri_test/images/redT.png'></img>	stop	1950.0	1.0	8.0	stop	non-target	T	89,Middle Finger	71,Index Finger	750.0	800.0	2000.0	1950.0	0.0	1.0	800.0	n/a	go_stim
45102.479445967823	1950.0	n/a	-1	-1	2750	1817.52055403	stim	stop-signal	604	1621798	0.0-25.8-1.8	beast_fmri_test	329	1619615,/,1620294,/,1620974,/,1621653,/,1622333,/,1623013,/	t,t,t,t,t,t	<img class = center src='/static/experiments/beast_fmri_test/images/T.png'></img>	89,71	2750.0	test	<img class = center src='/static/experiments/beast_fmri_test/images/redT.png'></img>	stop	1950.0	1.0	8.0	stop	non-target	T	89,Middle Finger	71,Index Finger	750.0	800.0	2000.0	1950.0	0.0	1.0	800.0	n/a	stop_stim
45902.479445967823	1817.52055403	n/a	-1	-1	2750	1817.52055403	stim	stop-signal	604	1621798	0.0-25.8-1.8	beast_fmri_test	329	1619615,/,1620294,/,1620974,/,1621653,/,1622333,/,1623013,/	t,t,t,t,t,t	<img class = center src='/static/experiments/beast_fmri_test/images/T.png'></img>	89,71	2750.0	test	<img class = center src='/static/experiments/beast_fmri_test/images/redT.png'></img>	stop	1950.0	1.0	8.0	stop	non-target	T	89,Middle Finger	71,Index Finger	750.0	800.0	2000.0	1950.0	0.0	1.0	800.0	n/a	ITI
50107	500.0	n/a	-1	-1	500	0.0	fixation	poldrack-single-stim	605	1624185	0.0-25.9-0.9	beast_fmri_test	329	1623694,/	t	<div class = centerbox2><div class = fixation>+</div></div>	none	500.0	test	n/a	n/a	n/a	n/a	n/a	n/a	n/a	n/a	n/a	n/a	n/a	n/a	n/a	n/a	n/a	n/a	n/a	n/a	fixation
49480.946479727747	2750.0	n/a	1213	71	2750	629.053520272	stim	stop-signal	606	1626938	0.0-25.9-1.9	beast_fmri_test	329	1624372,/,1625053,/,1625732,/,1626412,/,1627091,/	t,t,t,t,t	<img class = center src='/static/experiments/beast_fmri_test/images/D.png'></img>	89,71	2750.0	test	<img class = center src='/static/experiments/beast_fmri_test/images/redD.png'></img>	go	1900.0	1.0	9.0	go	non-target	D	89,Middle Finger	71,Index Finger	750.0	850.0	2000.0	1900.0	1.0	n/a	850.0	1.0	go_stim
52230.946479727747	629.053520272	n/a	1213	71	2750	629.053520272	stim	stop-signal	606	1626938	0.0-25.9-1.9	beast_fmri_test	329	1624372,/,1625053,/,1625732,/,1626412,/,1627091,/	t,t,t,t,t	<img class = center src='/static/experiments/beast_fmri_test/images/D.png'></img>	89,71	2750.0	test	<img class = center src='/static/experiments/beast_fmri_test/images/redD.png'></img>	go	1900.0	1.0	9.0	go	non-target	D	89,Middle Finger	71,Index Finger	750.0	850.0	2000.0	1900.0	1.0	n/a	850.0	1.0	ITI
54067	500.0	n/a	-1	-1	500	0.0	fixation	poldrack-single-stim	607	1628145	0.0-25.10-0.10	beast_fmri_test	329	1627771,/	t	<div class = centerbox2><div class = fixation>+</div></div>	none	500.0	test	n/a	n/a	n/a	n/a	n/a	n/a	n/a	n/a	n/a	n/a	n/a	n/a	n/a	n/a	n/a	n/a	n/a	n/a	fixation
53537.917419532081	2750.0	n/a	1505	89	2750	530.082580468	stim	stop-signal	608	1630896	0.0-25.10-1.10	beast_fmri_test	329	1628451,/,1629130,/,1629810,/,1630489,/,1631170,/	t,t,t,t,t	<img class = center src='/static/experiments/beast_fmri_test/images/D.png'></img>	89,71	2750.0	test	<img class = center src='/static/experiments/beast_fmri_test/images/redD.png'></img>	go	2000.0	1.0	10.0	go	target	D	89,Middle Finger	71,Index Finger	750.0	850.0	2000.0	1900.0	1.0	n/a	750.0	1.0	go_stim
56287.917419532081	530.082580468	n/a	1505	89	2750	530.082580468	stim	stop-signal	608	1630896	0.0-25.10-1.10	beast_fmri_test	329	1628451,/,1629130,/,1629810,/,1630489,/,1631170,/	t,t,t,t,t	<img class = center src='/static/experiments/beast_fmri_test/images/D.png'></img>	89,71	2750.0	test	<img class = center src='/static/experiments/beast_fmri_test/images/redD.png'></img>	go	2000.0	1.0	10.0	go	target	D	89,Middle Finger	71,Index Finger	750.0	850.0	2000.0	1900.0	1.0	n/a	750.0	1.0	ITI
57917	500.0	n/a	-1	-1	500	0.0	fixation	poldrack-single-stim	609	1631995	0.0-25.11-0.11	beast_fmri_test	329	1631850,/	t	<div class = centerbox2><div class = fixation>+</div></div>	none	500.0	test	n/a	n/a	n/a	n/a	n/a	n/a	n/a	n/a	n/a	n/a	n/a	n/a	n/a	n/a	n/a	n/a	n/a	n/a	fixation
57088.737501527416	2750.0	n/a	2328	89	2750	830.262498473	stim	stop-signal	610	1634747	0.0-25.11-1.11	beast_fmri_test	329	1632529,/,1633209,/,1633889,/,1634567,/,1635248,/	t,t,t,t,t	<img class = center src='/static/experiments/beast_fmri_test/images/V.png'></img>	89,71	2750.0	test	<img class = center src='/static/experiments/beast_fmri_test/images/redV.png'></img>	go	1900.0	1.0	11.0	go	non-target	V	89,Middle Finger	71,Index Finger	750.0	850.0	2000.0	1900.0	0.0	n/a	850.0	0.0	go_stim
59838.737501527416	830.262498473	n/a	2328	89	2750	830.262498473	stim	stop-signal	610	1634747	0.0-25.11-1.11	beast_fmri_test	329	1632529,/,1633209,/,1633889,/,1634567,/,1635248,/	t,t,t,t,t	<img class = center src='/static/experiments/beast_fmri_test/images/V.png'></img>	89,71	2750.0	test	<img class = center src='/static/experiments/beast_fmri_test/images/redV.png'></img>	go	1900.0	1.0	11.0	go	non-target	V	89,Middle Finger	71,Index Finger	750.0	850.0	2000.0	1900.0	0.0	n/a	850.0	0.0	ITI
62072	500.0	n/a	-1	-1	500	0.0	fixation	poldrack-single-stim	611	1636150	0.0-25.12-0.12	beast_fmri_test	329	1635927,/	t	<div class = centerbox2><div class = fixation>+</div></div>	none	500.0	test	n/a	n/a	n/a	n/a	n/a	n/a	n/a	n/a	n/a	n/a	n/a	n/a	n/a	n/a	n/a	n/a	n/a	n/a	fixation
60221.944088971475	850.0	n/a	767	71	2750	1852.05591103	stim	stop-signal	612	1638902	0.0-25.12-1.12	beast_fmri_test	329	1636607,/,1637286,/,1637967,/,1638646,/,1639326,/,1640005,/,1640686,/	t,t,t,t,t,t,t	<img class = center src='/static/experiments/beast_fmri_test/images/P.png'></img>	89,71	2750.0	test	<img class = center src='/static/experiments/beast_fmri_test/images/redP.png'></img>	stop	1900.0	1.0	12.0	stop	non-target	P	89,Middle Finger	71,Index Finger	750.0	850.0	2000.0	1900.0	0.0	0.0	850.0	n/a	go_stim
62121.944088971475	1900.0	n/a	767	71	2750	1852.05591103	stim	stop-signal	612	1638902	0.0-25.12-1.12	beast_fmri_test	329	1636607,/,1637286,/,1637967,/,1638646,/,1639326,/,1640005,/,1640686,/	t,t,t,t,t,t,t	<img class = center src='/static/experiments/beast_fmri_test/images/P.png'></img>	89,71	2750.0	test	<img class = center src='/static/experiments/beast_fmri_test/images/redP.png'></img>	stop	1900.0	1.0	12.0	stop	non-target	P	89,Middle Finger	71,Index Finger	750.0	850.0	2000.0	1900.0	0.0	0.0	850.0	n/a	stop_stim
62971.944088971475	1852.05591103	n/a	767	71	2750	1852.05591103	stim	stop-signal	612	1638902	0.0-25.12-1.12	beast_fmri_test	329	1636607,/,1637286,/,1637967,/,1638646,/,1639326,/,1640005,/,1640686,/	t,t,t,t,t,t,t	<img class = center src='/static/experiments/beast_fmri_test/images/P.png'></img>	89,71	2750.0	test	<img class = center src='/static/experiments/beast_fmri_test/images/redP.png'></img>	stop	1900.0	1.0	12.0	stop	non-target	P	89,Middle Finger	71,Index Finger	750.0	850.0	2000.0	1900.0	0.0	0.0	850.0	n/a	ITI
67247	500.0	n/a	-1	-1	500	0.0	fixation	poldrack-single-stim	613	1641325	0.0-25.13-0.13	beast_fmri_test	329	n/a	n/a	<div class = centerbox2><div class = fixation>+</div></div>	none	500.0	test	n/a	n/a	n/a	n/a	n/a	n/a	n/a	n/a	n/a	n/a	n/a	n/a	n/a	n/a	n/a	n/a	n/a	n/a	fixation
65986.019072385505	750.0	n/a	797	89	2750	1261.98092761	stim	stop-signal	614	1644076	0.0-25.13-1.13	beast_fmri_test	329	1641364,/,1642044,/,1642724,/,1643403,/,1644083,/,1644762,/	t,t,t,t,t,t	<img class = center src='/static/experiments/beast_fmri_test/images/P.png'></img>	89,71	2750.0	test	<img class = center src='/static/experiments/beast_fmri_test/images/redP.png'></img>	stop	2000.0	1.0	13.0	stop	target	P	89,Middle Finger	71,Index Finger	750.0	800.0	2000.0	1900.0	0.0	0.0	750.0	n/a	go_stim
67986.019072385505	2000.0	n/a	797	89	2750	1261.98092761	stim	stop-signal	614	1644076	0.0-25.13-1.13	beast_fmri_test	329	1641364,/,1642044,/,1642724,/,1643403,/,1644083,/,1644762,/	t,t,t,t,t,t	<img class = center src='/static/experiments/beast_fmri_test/images/P.png'></img>	89,71	2750.0	test	<img class = center src='/static/experiments/beast_fmri_test/images/redP.png'></img>	stop	2000.0	1.0	13.0	stop	target	P	89,Middle Finger	71,Index Finger	750.0	800.0	2000.0	1900.0	0.0	0.0	750.0	n/a	stop_stim
68736.019072385505	1261.98092761	n/a	797	89	2750	1261.98092761	stim	stop-signal	614	1644076	0.0-25.13-1.13	beast_fmri_test	329	1641364,/,1642044,/,1642724,/,1643403,/,1644083,/,1644762,/	t,t,t,t,t,t	<img class = center src='/static/experiments/beast_fmri_test/images/P.png'></img>	89,71	2750.0	test	<img class = center src='/static/experiments/beast_fmri_test/images/redP.png'></img>	stop	2000.0	1.0	13.0	stop	target	P	89,Middle Finger	71,Index Finger	750.0	800.0	2000.0	1900.0	0.0	0.0	750.0	n/a	ITI
71835	500.0	n/a	-1	-1	500	0.0	fixation	poldrack-single-stim	615	1645913	0.0-25.14-0.14	beast_fmri_test	329	1645441,/	t	<div class = centerbox2><div class = fixation>+</div></div>	none	500.0	test	n/a	n/a	n/a	n/a	n/a	n/a	n/a	n/a	n/a	n/a	n/a	n/a	n/a	n/a	n/a	n/a	n/a	n/a	fixation
71830.571522229817	2750.0	n/a	1088	89	2750	5.42847777019	stim	stop-signal	616	1648664	0.0-25.14-1.14	beast_fmri_test	329	1646122,/,1646803,/,1647482,/,1648161,/	t,t,t,t	<img class = center src='/static/experiments/beast_fmri_test/images/P.png'></img>	89,71	2750.0	test	<img class = center src='/static/experiments/beast_fmri_test/images/redP.png'></img>	go	2050.0	1.0	14.0	go	target	P	89,Middle Finger	71,Index Finger	700.0	800.0	2050.0	1900.0	1.0	n/a	700.0	1.0	go_stim
74580.571522229817	5.42847777019	n/a	1088	89	2750	5.42847777019	stim	stop-signal	616	1648664	0.0-25.14-1.14	beast_fmri_test	329	1646122,/,1646803,/,1647482,/,1648161,/	t,t,t,t	<img class = center src='/static/experiments/beast_fmri_test/images/P.png'></img>	89,71	2750.0	test	<img class = center src='/static/experiments/beast_fmri_test/images/redP.png'></img>	go	2050.0	1.0	14.0	go	target	P	89,Middle Finger	71,Index Finger	700.0	800.0	2050.0	1900.0	1.0	n/a	700.0	1.0	ITI
75171	500.0	n/a	-1	-1	500	0.0	fixation	poldrack-single-stim	617	1649249	0.0-25.15-0.15	beast_fmri_test	329	1648842,/	t	<div class = centerbox2><div class = fixation>+</div></div>	none	500.0	test	n/a	n/a	n/a	n/a	n/a	n/a	n/a	n/a	n/a	n/a	n/a	n/a	n/a	n/a	n/a	n/a	n/a	n/a	fixation
73444.406248523155	800.0	n/a	2223	71	2750	1728.59375148	stim	stop-signal	618	1652001	0.0-25.15-1.15	beast_fmri_test	329	1649521,/,1650201,/,1650879,/,1651561,/,1652239,/,1652920,/,1653598,/	t,t,t,t,t,t,t	<img class = center src='/static/experiments/beast_fmri_test/images/D.png'></img>	89,71	2750.0	test	<img class = center src='/static/experiments/beast_fmri_test/images/redD.png'></img>	stop	1950.0	1.0	15.0	stop	non-target	D	89,Middle Finger	71,Index Finger	700.0	800.0	2050.0	1950.0	0.0	0.0	800.0	n/a	go_stim
75394.406248523155	1950.0	n/a	2223	71	2750	1728.59375148	stim	stop-signal	618	1652001	0.0-25.15-1.15	beast_fmri_test	329	1649521,/,1650201,/,1650879,/,1651561,/,1652239,/,1652920,/,1653598,/	t,t,t,t,t,t,t	<img class = center src='/static/experiments/beast_fmri_test/images/D.png'></img>	89,71	2750.0	test	<img class = center src='/static/experiments/beast_fmri_test/images/redD.png'></img>	stop	1950.0	1.0	15.0	stop	non-target	D	89,Middle Finger	71,Index Finger	700.0	800.0	2050.0	1950.0	0.0	0.0	800.0	n/a	stop_stim
76194.406248523155	1728.59375148	n/a	2223	71	2750	1728.59375148	stim	stop-signal	618	1652001	0.0-25.15-1.15	beast_fmri_test	329	1649521,/,1650201,/,1650879,/,1651561,/,1652239,/,1652920,/,1653598,/	t,t,t,t,t,t,t	<img class = center src='/static/experiments/beast_fmri_test/images/D.png'></img>	89,71	2750.0	test	<img class = center src='/static/experiments/beast_fmri_test/images/redD.png'></img>	stop	1950.0	1.0	15.0	stop	non-target	D	89,Middle Finger	71,Index Finger	700.0	800.0	2050.0	1950.0	0.0	0.0	800.0	n/a	ITI
80218	500.0	n/a	-1	-1	500	0.0	fixation	poldrack-single-stim	619	1654296	0.0-25.16-0.16	beast_fmri_test	329	1654282,/	t	<div class = centerbox2><div class = fixation>+</div></div>	none	500.0	test	n/a	n/a	n/a	n/a	n/a	n/a	n/a	n/a	n/a	n/a	n/a	n/a	n/a	n/a	n/a	n/a	n/a	n/a	fixation
80012.275705599226	2750.0	n/a	1103	89	2750	207.724294401	stim	stop-signal	620	1657048	0.0-25.16-1.16	beast_fmri_test	329	1654960,/,1655638,/,1656317,/,1656998,/	t,t,t,t	<img class = center src='/static/experiments/beast_fmri_test/images/D.png'></img>	89,71	2750.0	test	<img class = center src='/static/experiments/beast_fmri_test/images/redD.png'></img>	go	2050.0	1.0	16.0	go	target	D	89,Middle Finger	71,Index Finger	700.0	750.0	2050.0	1950.0	1.0	n/a	700.0	1.0	go_stim
82762.275705599226	207.724294401	n/a	1103	89	2750	207.724294401	stim	stop-signal	620	1657048	0.0-25.16-1.16	beast_fmri_test	329	1654960,/,1655638,/,1656317,/,1656998,/	t,t,t,t	<img class = center src='/static/experiments/beast_fmri_test/images/D.png'></img>	89,71	2750.0	test	<img class = center src='/static/experiments/beast_fmri_test/images/redD.png'></img>	go	2050.0	1.0	16.0	go	target	D	89,Middle Finger	71,Index Finger	700.0	750.0	2050.0	1950.0	1.0	n/a	700.0	1.0	ITI
83743	500.0	n/a	-1	-1	500	0.0	fixation	poldrack-single-stim	621	1657821	0.0-25.17-0.17	beast_fmri_test	329	1657678,/	t	<div class = centerbox2><div class = fixation>+</div></div>	none	500.0	test	n/a	n/a	n/a	n/a	n/a	n/a	n/a	n/a	n/a	n/a	n/a	n/a	n/a	n/a	n/a	n/a	n/a	n/a	fixation
81779.39924527402	2750.0	n/a	1504	71	2750	1964.60075473	stim	stop-signal	622	1660572	0.0-25.17-1.17	beast_fmri_test	329	1658356,/,1659037,/,1659715,/,1660396,/,1661075,/,1661755,/,1662435,/	t,t,t,t,t,t,t	<img class = center src='/static/experiments/beast_fmri_test/images/B.png'></img>	89,71	2750.0	test	<img class = center src='/static/experiments/beast_fmri_test/images/redB.png'></img>	go	2000.0	1.0	17.0	go	non-target	B	89,Middle Finger	71,Index Finger	700.0	750.0	2050.0	2000.0	1.0	n/a	750.0	1.0	go_stim
84529.39924527402	1964.60075473	n/a	1504	71	2750	1964.60075473	stim	stop-signal	622	1660572	0.0-25.17-1.17	beast_fmri_test	329	1658356,/,1659037,/,1659715,/,1660396,/,1661075,/,1661755,/,1662435,/	t,t,t,t,t,t,t	<img class = center src='/static/experiments/beast_fmri_test/images/B.png'></img>	89,71	2750.0	test	<img class = center src='/static/experiments/beast_fmri_test/images/redB.png'></img>	go	2000.0	1.0	17.0	go	non-target	B	89,Middle Finger	71,Index Finger	700.0	750.0	2050.0	2000.0	1.0	n/a	750.0	1.0	ITI
89022	500.0	n/a	-1	-1	500	0.0	fixation	poldrack-single-stim	623	1663100	0.0-25.18-0.18	beast_fmri_test	329	n/a	n/a	<div class = centerbox2><div class = fixation>+</div></div>	none	500.0	test	n/a	n/a	n/a	n/a	n/a	n/a	n/a	n/a	n/a	n/a	n/a	n/a	n/a	n/a	n/a	n/a	n/a	n/a	fixation
88126.755131006707	2750.0	n/a	1484	71	2750	898.244868993	stim	stop-signal	624	1665853	0.0-25.18-1.18	beast_fmri_test	329	1663115,/,1663794,/,1664475,/,1665154,/,1665833,/,1666513,/	t,t,t,t,t,t	<img class = center src='/static/experiments/beast_fmri_test/images/P.png'></img>	89,71	2750.0	test	<img class = center src='/static/experiments/beast_fmri_test/images/redP.png'></img>	go	2000.0	1.0	18.0	go	non-target	P	89,Middle Finger	71,Index Finger	700.0	750.0	2050.0	2000.0	1.0	n/a	750.0	1.0	go_stim
90876.755131006707	898.244868993	n/a	1484	71	2750	898.244868993	stim	stop-signal	624	1665853	0.0-25.18-1.18	beast_fmri_test	329	1663115,/,1663794,/,1664475,/,1665154,/,1665833,/,1666513,/	t,t,t,t,t,t	<img class = center src='/static/experiments/beast_fmri_test/images/P.png'></img>	89,71	2750.0	test	<img class = center src='/static/experiments/beast_fmri_test/images/redP.png'></img>	go	2000.0	1.0	18.0	go	non-target	P	89,Middle Finger	71,Index Finger	700.0	750.0	2050.0	2000.0	1.0	n/a	750.0	1.0	ITI
93237	500.0	n/a	-1	-1	500	0.0	fixation	poldrack-single-stim	625	1667315	0.0-25.19-0.19	beast_fmri_test	329	1667192,/	t	<div class = centerbox2><div class = fixation>+</div></div>	none	500.0	test	n/a	n/a	n/a	n/a	n/a	n/a	n/a	n/a	n/a	n/a	n/a	n/a	n/a	n/a	n/a	n/a	n/a	n/a	fixation
92503.752074439777	2750.0	n/a	1342	71	2750	735.24792556	stim	stop-signal	626	1670067	0.0-25.19-1.19	beast_fmri_test	329	1667873,/,1668551,/,1669232,/,1669911,/,1670591,/	t,t,t,t,t	<img class = center src='/static/experiments/beast_fmri_test/images/D.png'></img>	89,71	2750.0	test	<img class = center src='/static/experiments/beast_fmri_test/images/redD.png'></img>	go	2000.0	1.0	19.0	go	non-target	D	89,Middle Finger	71,Index Finger	700.0	750.0	2050.0	2000.0	1.0	n/a	750.0	1.0	go_stim
95253.752074439777	735.24792556	n/a	1342	71	2750	735.24792556	stim	stop-signal	626	1670067	0.0-25.19-1.19	beast_fmri_test	329	1667873,/,1668551,/,1669232,/,1669911,/,1670591,/	t,t,t,t,t	<img class = center src='/static/experiments/beast_fmri_test/images/D.png'></img>	89,71	2750.0	test	<img class = center src='/static/experiments/beast_fmri_test/images/redD.png'></img>	go	2000.0	1.0	19.0	go	non-target	D	89,Middle Finger	71,Index Finger	700.0	750.0	2050.0	2000.0	1.0	n/a	750.0	1.0	ITI
97294	500.0	n/a	-1	-1	500	0.0	fixation	poldrack-single-stim	627	1671372	0.0-25.20-0.20	beast_fmri_test	329	1671270,/	t	<div class = centerbox2><div class = fixation>+</div></div>	none	500.0	test	n/a	n/a	n/a	n/a	n/a	n/a	n/a	n/a	n/a	n/a	n/a	n/a	n/a	n/a	n/a	n/a	n/a	n/a	fixation
97104.340336536756	750.0	n/a	-1	-1	2750	191.659663463	stim	stop-signal	628	1674124	0.0-25.20-1.20	beast_fmri_test	329	1671951,/,1672630,/,1673310,/,1673990,/	t,t,t,t	<img class = center src='/static/experiments/beast_fmri_test/images/T.png'></img>	89,71	2750.0	test	<img class = center src='/static/experiments/beast_fmri_test/images/redT.png'></img>	stop	2000.0	1.0	20.0	stop	non-target	T	89,Middle Finger	71,Index Finger	700.0	750.0	2050.0	2000.0	0.0	1.0	750.0	n/a	go_stim
99104.340336536756	2000.0	n/a	-1	-1	2750	191.659663463	stim	stop-signal	628	1674124	0.0-25.20-1.20	beast_fmri_test	329	1671951,/,1672630,/,1673310,/,1673990,/	t,t,t,t	<img class = center src='/static/experiments/beast_fmri_test/images/T.png'></img>	89,71	2750.0	test	<img class = center src='/static/experiments/beast_fmri_test/images/redT.png'></img>	stop	2000.0	1.0	20.0	stop	non-target	T	89,Middle Finger	71,Index Finger	700.0	750.0	2050.0	2000.0	0.0	1.0	750.0	n/a	stop_stim
99854.340336536756	191.659663463	n/a	-1	-1	2750	191.659663463	stim	stop-signal	628	1674124	0.0-25.20-1.20	beast_fmri_test	329	1671951,/,1672630,/,1673310,/,1673990,/	t,t,t,t	<img class = center src='/static/experiments/beast_fmri_test/images/T.png'></img>	89,71	2750.0	test	<img class = center src='/static/experiments/beast_fmri_test/images/redT.png'></img>	stop	2000.0	1.0	20.0	stop	non-target	T	89,Middle Finger	71,Index Finger	700.0	750.0	2050.0	2000.0	0.0	1.0	750.0	n/a	ITI
100804	500.0	n/a	-1	-1	500	0.0	fixation	poldrack-single-stim	629	1674882	0.0-25.21-0.21	beast_fmri_test	329	1674669,/	t	<div class = centerbox2><div class = fixation>+</div></div>	none	500.0	test	n/a	n/a	n/a	n/a	n/a	n/a	n/a	n/a	n/a	n/a	n/a	n/a	n/a	n/a	n/a	n/a	n/a	n/a	fixation
100723.01846557832	2750.0	n/a	2097	71	2750	82.9815344217	stim	stop-signal	630	1677634	0.0-25.21-1.21	beast_fmri_test	329	1675349,/,1676029,/,1676709,/,1677387,/	t,t,t,t	<img class = center src='/static/experiments/beast_fmri_test/images/D.png'></img>	89,71	2750.0	test	<img class = center src='/static/experiments/beast_fmri_test/images/redD.png'></img>	go	1950.0	1.0	21.0	go	non-target	D	89,Middle Finger	71,Index Finger	700.0	800.0	2050.0	1950.0	1.0	n/a	800.0	1.0	go_stim
103473.01846557832	82.9815344217	n/a	2097	71	2750	82.9815344217	stim	stop-signal	630	1677634	0.0-25.21-1.21	beast_fmri_test	329	1675349,/,1676029,/,1676709,/,1677387,/	t,t,t,t	<img class = center src='/static/experiments/beast_fmri_test/images/D.png'></img>	89,71	2750.0	test	<img class = center src='/static/experiments/beast_fmri_test/images/redD.png'></img>	go	1950.0	1.0	21.0	go	non-target	D	89,Middle Finger	71,Index Finger	700.0	800.0	2050.0	1950.0	1.0	n/a	800.0	1.0	ITI
104205	500.0	n/a	-1	-1	500	0.0	fixation	poldrack-single-stim	631	1678283	0.0-25.22-0.22	beast_fmri_test	329	1678068,/	t	<div class = centerbox2><div class = fixation>+</div></div>	none	500.0	test	n/a	n/a	n/a	n/a	n/a	n/a	n/a	n/a	n/a	n/a	n/a	n/a	n/a	n/a	n/a	n/a	n/a	n/a	fixation
102786.85234791762	2750.0	n/a	1395	89	2750	1419.14765208	stim	stop-signal	632	1681034	0.0-25.22-1.22	beast_fmri_test	329	1678747,/,1679428,/,1680106,/,1680786,/,1681466,/,1682146,/	t,t,t,t,t,t	<img class = center src='/static/experiments/beast_fmri_test/images/D.png'></img>	89,71	2750.0	test	<img class = center src='/static/experiments/beast_fmri_test/images/redD.png'></img>	go	2050.0	1.0	22.0	go	target	D	89,Middle Finger	71,Index Finger	700.0	800.0	2050.0	1950.0	1.0	n/a	700.0	1.0	go_stim
105536.85234791762	1419.14765208	n/a	1395	89	2750	1419.14765208	stim	stop-signal	632	1681034	0.0-25.22-1.22	beast_fmri_test	329	1678747,/,1679428,/,1680106,/,1680786,/,1681466,/,1682146,/	t,t,t,t,t,t	<img class = center src='/static/experiments/beast_fmri_test/images/D.png'></img>	89,71	2750.0	test	<img class = center src='/static/experiments/beast_fmri_test/images/redD.png'></img>	go	2050.0	1.0	22.0	go	target	D	89,Middle Finger	71,Index Finger	700.0	800.0	2050.0	1950.0	1.0	n/a	700.0	1.0	ITI
108938	500.0	n/a	-1	-1	500	0.0	fixation	poldrack-single-stim	633	1683016	0.0-25.23-0.23	beast_fmri_test	329	1682825,/	t	<div class = centerbox2><div class = fixation>+</div></div>	none	500.0	test	n/a	n/a	n/a	n/a	n/a	n/a	n/a	n/a	n/a	n/a	n/a	n/a	n/a	n/a	n/a	n/a	n/a	n/a	fixation
108545.17016548803	2750.0	n/a	1016	71	2750	394.829834512	stim	stop-signal	634	1685768	0.0-25.23-1.23	beast_fmri_test	329	1683507,/,1684186,/,1684865,/,1685545,/	t,t,t,t	<img class = center src='/static/experiments/beast_fmri_test/images/P.png'></img>	89,71	2750.0	test	<img class = center src='/static/experiments/beast_fmri_test/images/redP.png'></img>	go	1950.0	1.0	23.0	go	non-target	P	89,Middle Finger	71,Index Finger	700.0	800.0	2050.0	1950.0	1.0	n/a	800.0	1.0	go_stim
111295.17016548803	394.829834512	n/a	1016	71	2750	394.829834512	stim	stop-signal	634	1685768	0.0-25.23-1.23	beast_fmri_test	329	1683507,/,1684186,/,1684865,/,1685545,/	t,t,t,t	<img class = center src='/static/experiments/beast_fmri_test/images/P.png'></img>	89,71	2750.0	test	<img class = center src='/static/experiments/beast_fmri_test/images/redP.png'></img>	go	1950.0	1.0	23.0	go	non-target	P	89,Middle Finger	71,Index Finger	700.0	800.0	2050.0	1950.0	1.0	n/a	800.0	1.0	ITI
112653	500.0	n/a	-1	-1	500	0.0	fixation	poldrack-single-stim	635	1686731	0.0-25.24-0.24	beast_fmri_test	329	1686229,/	t	<div class = centerbox2><div class = fixation>+</div></div>	none	500.0	test	n/a	n/a	n/a	n/a	n/a	n/a	n/a	n/a	n/a	n/a	n/a	n/a	n/a	n/a	n/a	n/a	n/a	n/a	fixation
112264.96570585715	2750.0	n/a	1203	71	2750	390.034294143	stim	stop-signal	636	1689483	0.0-25.24-1.24	beast_fmri_test	329	1686905,/,1687583,/,1688264,/,1688944,/,1689624,/	t,t,t,t,t	<img class = center src='/static/experiments/beast_fmri_test/images/T.png'></img>	89,71	2750.0	test	<img class = center src='/static/experiments/beast_fmri_test/images/redT.png'></img>	go	1950.0	1.0	24.0	go	non-target	T	89,Middle Finger	71,Index Finger	700.0	800.0	2050.0	1950.0	1.0	n/a	800.0	1.0	go_stim
115014.96570585715	390.034294143	n/a	1203	71	2750	390.034294143	stim	stop-signal	636	1689483	0.0-25.24-1.24	beast_fmri_test	329	1686905,/,1687583,/,1688264,/,1688944,/,1689624,/	t,t,t,t,t	<img class = center src='/static/experiments/beast_fmri_test/images/T.png'></img>	89,71	2750.0	test	<img class = center src='/static/experiments/beast_fmri_test/images/redT.png'></img>	go	1950.0	1.0	24.0	go	non-target	T	89,Middle Finger	71,Index Finger	700.0	800.0	2050.0	1950.0	1.0	n/a	800.0	1.0	ITI
116364	500.0	n/a	-1	-1	500	0.0	fixation	poldrack-single-stim	637	1690442	0.0-25.25-0.25	beast_fmri_test	329	1690302,/	t	<div class = centerbox2><div class = fixation>+</div></div>	none	500.0	test	n/a	n/a	n/a	n/a	n/a	n/a	n/a	n/a	n/a	n/a	n/a	n/a	n/a	n/a	n/a	n/a	n/a	n/a	fixation
113797.83094843756	2750.0	n/a	-1	-1	2750	2568.16905156	stim	stop-signal	638	1693194	0.0-25.25-1.25	beast_fmri_test	329	1690983,/,1691661,/,1692342,/,1693021,/,1693702,/,1694381,/,1695059,/,1695740,/	t,t,t,t,t,t,t,t	<img class = center src='/static/experiments/beast_fmri_test/images/B.png'></img>	89,71	2750.0	test	<img class = center src='/static/experiments/beast_fmri_test/images/redB.png'></img>	go	1950.0	1.0	25.0	go	non-target	B	89,Middle Finger	71,Index Finger	700.0	800.0	2050.0	1950.0	0.0	n/a	800.0	0.0	go_stim
116547.83094843756	2568.16905156	n/a	-1	-1	2750	2568.16905156	stim	stop-signal	638	1693194	0.0-25.25-1.25	beast_fmri_test	329	1690983,/,1691661,/,1692342,/,1693021,/,1693702,/,1694381,/,1695059,/,1695740,/	t,t,t,t,t,t,t,t	<img class = center src='/static/experiments/beast_fmri_test/images/B.png'></img>	89,71	2750.0	test	<img class = center src='/static/experiments/beast_fmri_test/images/redB.png'></img>	go	1950.0	1.0	25.0	go	non-target	B	89,Middle Finger	71,Index Finger	700.0	800.0	2050.0	1950.0	0.0	n/a	800.0	0.0	ITI
122256	500.0	n/a	-1	-1	500	0.0	fixation	poldrack-single-stim	639	1696334	0.0-25.26-0.26	beast_fmri_test	329	n/a	n/a	<div class = centerbox2><div class = fixation>+</div></div>	none	500.0	test	n/a	n/a	n/a	n/a	n/a	n/a	n/a	n/a	n/a	n/a	n/a	n/a	n/a	n/a	n/a	n/a	n/a	n/a	fixation
121505.04447446787	2750.0	n/a	717	89	2750	752.955525532	stim	stop-signal	640	1699086	0.0-25.26-1.26	beast_fmri_test	329	1696420,/,1697100,/,1697779,/,1698458,/,1699137,/,1699819,/	t,t,t,t,t,t	<img class = center src='/static/experiments/beast_fmri_test/images/B.png'></img>	89,71	2750.0	test	<img class = center src='/static/experiments/beast_fmri_test/images/redB.png'></img>	go	2050.0	1.0	26.0	go	target	B	89,Middle Finger	71,Index Finger	700.0	800.0	2050.0	1950.0	1.0	n/a	700.0	1.0	go_stim
124255.04447446787	752.955525532	n/a	717	89	2750	752.955525532	stim	stop-signal	640	1699086	0.0-25.26-1.26	beast_fmri_test	329	1696420,/,1697100,/,1697779,/,1698458,/,1699137,/,1699819,/	t,t,t,t,t,t	<img class = center src='/static/experiments/beast_fmri_test/images/B.png'></img>	89,71	2750.0	test	<img class = center src='/static/experiments/beast_fmri_test/images/redB.png'></img>	go	2050.0	1.0	26.0	go	target	B	89,Middle Finger	71,Index Finger	700.0	800.0	2050.0	1950.0	1.0	n/a	700.0	1.0	ITI
126334	500.0	n/a	-1	-1	500	0.0	fixation	poldrack-single-stim	641	1700412	0.0-25.27-0.27	beast_fmri_test	329	n/a	n/a	<div class = centerbox2><div class = fixation>+</div></div>	none	500.0	test	n/a	n/a	n/a	n/a	n/a	n/a	n/a	n/a	n/a	n/a	n/a	n/a	n/a	n/a	n/a	n/a	n/a	n/a	fixation
125592.41127305687	700.0	n/a	853	89	2750	743.588726943	stim	stop-signal	642	1703164	0.0-25.27-1.27	beast_fmri_test	329	1700497,/,1701178,/,1701858,/,1702536,/,1703216,/,1703895,/	t,t,t,t,t,t	<img class = center src='/static/experiments/beast_fmri_test/images/B.png'></img>	89,71	2750.0	test	<img class = center src='/static/experiments/beast_fmri_test/images/redB.png'></img>	stop	2050.0	1.0	27.0	stop	target	B	89,Middle Finger	71,Index Finger	700.0	800.0	2050.0	1950.0	0.0	0.0	700.0	n/a	go_stim
127642.41127305687	2050.0	n/a	853	89	2750	743.588726943	stim	stop-signal	642	1703164	0.0-25.27-1.27	beast_fmri_test	329	1700497,/,1701178,/,1701858,/,1702536,/,1703216,/,1703895,/	t,t,t,t,t,t	<img class = center src='/static/experiments/beast_fmri_test/images/B.png'></img>	89,71	2750.0	test	<img class = center src='/static/experiments/beast_fmri_test/images/redB.png'></img>	stop	2050.0	1.0	27.0	stop	target	B	89,Middle Finger	71,Index Finger	700.0	800.0	2050.0	1950.0	0.0	0.0	700.0	n/a	stop_stim
128342.41127305687	743.588726943	n/a	853	89	2750	743.588726943	stim	stop-signal	642	1703164	0.0-25.27-1.27	beast_fmri_test	329	1700497,/,1701178,/,1701858,/,1702536,/,1703216,/,1703895,/	t,t,t,t,t,t	<img class = center src='/static/experiments/beast_fmri_test/images/B.png'></img>	89,71	2750.0	test	<img class = center src='/static/experiments/beast_fmri_test/images/redB.png'></img>	stop	2050.0	1.0	27.0	stop	target	B	89,Middle Finger	71,Index Finger	700.0	800.0	2050.0	1950.0	0.0	0.0	700.0	n/a	ITI
130398	500.0	n/a	-1	-1	500	0.0	fixation	poldrack-single-stim	643	1704476	0.0-25.28-0.28	beast_fmri_test	329	n/a	n/a	<div class = centerbox2><div class = fixation>+</div></div>	none	500.0	test	n/a	n/a	n/a	n/a	n/a	n/a	n/a	n/a	n/a	n/a	n/a	n/a	n/a	n/a	n/a	n/a	n/a	n/a	fixation
129957.81975850184	2750.0	n/a	1109	89	2750	442.180241498	stim	stop-signal	644	1707228	0.0-25.28-1.28	beast_fmri_test	329	1704576,/,1705254,/,1705935,/,1706615,/,1707293,/	t,t,t,t,t	<img class = center src='/static/experiments/beast_fmri_test/images/B.png'></img>	89,71	2750.0	test	<img class = center src='/static/experiments/beast_fmri_test/images/redB.png'></img>	go	2100.0	1.0	28.0	go	target	B	89,Middle Finger	71,Index Finger	650.0	800.0	2100.0	1950.0	1.0	n/a	650.0	1.0	go_stim
132707.81975850184	442.180241498	n/a	1109	89	2750	442.180241498	stim	stop-signal	644	1707228	0.0-25.28-1.28	beast_fmri_test	329	1704576,/,1705254,/,1705935,/,1706615,/,1707293,/	t,t,t,t,t	<img class = center src='/static/experiments/beast_fmri_test/images/B.png'></img>	89,71	2750.0	test	<img class = center src='/static/experiments/beast_fmri_test/images/redB.png'></img>	go	2100.0	1.0	28.0	go	target	B	89,Middle Finger	71,Index Finger	650.0	800.0	2100.0	1950.0	1.0	n/a	650.0	1.0	ITI
134161	500.0	n/a	-1	-1	500	0.0	fixation	poldrack-single-stim	645	1708239	0.0-25.29-0.29	beast_fmri_test	329	1707976,/	t	<div class = centerbox2><div class = fixation>+</div></div>	none	500.0	test	n/a	n/a	n/a	n/a	n/a	n/a	n/a	n/a	n/a	n/a	n/a	n/a	n/a	n/a	n/a	n/a	n/a	n/a	fixation
133280.3826015119	2750.0	n/a	1153	71	2750	882.617398488	stim	stop-signal	646	1710991	0.0-25.29-1.29	beast_fmri_test	329	1708654,/,1709334,/,1710014,/,1710694,/,1711372,/	t,t,t,t,t	<img class = center src='/static/experiments/beast_fmri_test/images/V.png'></img>	89,71	2750.0	test	<img class = center src='/static/experiments/beast_fmri_test/images/redV.png'></img>	go	1950.0	1.0	29.0	go	non-target	V	89,Middle Finger	71,Index Finger	650.0	800.0	2100.0	1950.0	1.0	n/a	800.0	1.0	go_stim
136030.3826015119	882.617398488	n/a	1153	71	2750	882.617398488	stim	stop-signal	646	1710991	0.0-25.29-1.29	beast_fmri_test	329	1708654,/,1709334,/,1710014,/,1710694,/,1711372,/	t,t,t,t,t	<img class = center src='/static/experiments/beast_fmri_test/images/V.png'></img>	89,71	2750.0	test	<img class = center src='/static/experiments/beast_fmri_test/images/redV.png'></img>	go	1950.0	1.0	29.0	go	non-target	V	89,Middle Finger	71,Index Finger	650.0	800.0	2100.0	1950.0	1.0	n/a	800.0	1.0	ITI
138357	500.0	n/a	-1	-1	500	0.0	fixation	poldrack-single-stim	647	1712435	0.0-25.30-0.30	beast_fmri_test	329	1712053,/	t	<div class = centerbox2><div class = fixation>+</div></div>	none	500.0	test	n/a	n/a	n/a	n/a	n/a	n/a	n/a	n/a	n/a	n/a	n/a	n/a	n/a	n/a	n/a	n/a	n/a	n/a	fixation
137072.41647590324	2750.0	n/a	1105	89	2750	1285.5835241	stim	stop-signal	648	1715186	0.0-25.30-1.30	beast_fmri_test	329	1712732,/,1713412,/,1714091,/,1714772,/,1715450,/,1716131,/	t,t,t,t,t,t	<img class = center src='/static/experiments/beast_fmri_test/images/B.png'></img>	89,71	2750.0	test	<img class = center src='/static/experiments/beast_fmri_test/images/redB.png'></img>	go	1950.0	1.0	30.0	go	non-target	B	89,Middle Finger	71,Index Finger	650.0	800.0	2100.0	1950.0	0.0	n/a	800.0	0.0	go_stim
139822.41647590324	1285.5835241	n/a	1105	89	2750	1285.5835241	stim	stop-signal	648	1715186	0.0-25.30-1.30	beast_fmri_test	329	1712732,/,1713412,/,1714091,/,1714772,/,1715450,/,1716131,/	t,t,t,t,t,t	<img class = center src='/static/experiments/beast_fmri_test/images/B.png'></img>	89,71	2750.0	test	<img class = center src='/static/experiments/beast_fmri_test/images/redB.png'></img>	go	1950.0	1.0	30.0	go	non-target	B	89,Middle Finger	71,Index Finger	650.0	800.0	2100.0	1950.0	0.0	n/a	800.0	0.0	ITI
142962	500.0	n/a	-1	-1	500	0.0	fixation	poldrack-single-stim	649	1717040	0.0-25.31-0.31	beast_fmri_test	329	1716810,/	t	<div class = centerbox2><div class = fixation>+</div></div>	none	500.0	test	n/a	n/a	n/a	n/a	n/a	n/a	n/a	n/a	n/a	n/a	n/a	n/a	n/a	n/a	n/a	n/a	n/a	n/a	fixation
140932.42917492264	800.0	n/a	-1	-1	2750	2030.57082508	stim	stop-signal	650	1719791	0.0-25.31-1.31	beast_fmri_test	329	1717491,/,1718170,/,1718850,/,1719530,/,1720208,/,1720889,/,1721568,/	t,t,t,t,t,t,t	<img class = center src='/static/experiments/beast_fmri_test/images/P.png'></img>	89,71	2750.0	test	<img class = center src='/static/experiments/beast_fmri_test/images/redP.png'></img>	stop	1950.0	1.0	31.0	stop	non-target	P	89,Middle Finger	71,Index Finger	650.0	800.0	2100.0	1950.0	0.0	1.0	800.0	n/a	go_stim
142882.42917492264	1950.0	n/a	-1	-1	2750	2030.57082508	stim	stop-signal	650	1719791	0.0-25.31-1.31	beast_fmri_test	329	1717491,/,1718170,/,1718850,/,1719530,/,1720208,/,1720889,/,1721568,/	t,t,t,t,t,t,t	<img class = center src='/static/experiments/beast_fmri_test/images/P.png'></img>	89,71	2750.0	test	<img class = center src='/static/experiments/beast_fmri_test/images/redP.png'></img>	stop	1950.0	1.0	31.0	stop	non-target	P	89,Middle Finger	71,Index Finger	650.0	800.0	2100.0	1950.0	0.0	1.0	800.0	n/a	stop_stim
143682.42917492264	2030.57082508	n/a	-1	-1	2750	2030.57082508	stim	stop-signal	650	1719791	0.0-25.31-1.31	beast_fmri_test	329	1717491,/,1718170,/,1718850,/,1719530,/,1720208,/,1720889,/,1721568,/	t,t,t,t,t,t,t	<img class = center src='/static/experiments/beast_fmri_test/images/P.png'></img>	89,71	2750.0	test	<img class = center src='/static/experiments/beast_fmri_test/images/redP.png'></img>	stop	1950.0	1.0	31.0	stop	non-target	P	89,Middle Finger	71,Index Finger	650.0	800.0	2100.0	1950.0	0.0	1.0	800.0	n/a	ITI
148312	500.0	n/a	-1	-1	500	0.0	fixation	poldrack-single-stim	651	1722390	0.0-25.32-0.32	beast_fmri_test	329	1722248,/	t	<div class = centerbox2><div class = fixation>+</div></div>	none	500.0	test	n/a	n/a	n/a	n/a	n/a	n/a	n/a	n/a	n/a	n/a	n/a	n/a	n/a	n/a	n/a	n/a	n/a	n/a	fixation
147380.63881141692	2750.0	n/a	2251	71	2750	931.361188583	stim	stop-signal	652	1725140	0.0-25.32-1.32	beast_fmri_test	329	1722927,/,1723607,/,1724287,/,1724965,/,1725647,/	t,t,t,t,t	<img class = center src='/static/experiments/beast_fmri_test/images/V.png'></img>	89,71	2750.0	test	<img class = center src='/static/experiments/beast_fmri_test/images/redV.png'></img>	go	1900.0	1.0	32.0	go	non-target	V	89,Middle Finger	71,Index Finger	650.0	850.0	2100.0	1900.0	1.0	n/a	850.0	1.0	go_stim
150130.63881141692	931.361188583	n/a	2251	71	2750	931.361188583	stim	stop-signal	652	1725140	0.0-25.32-1.32	beast_fmri_test	329	1722927,/,1723607,/,1724287,/,1724965,/,1725647,/	t,t,t,t,t	<img class = center src='/static/experiments/beast_fmri_test/images/V.png'></img>	89,71	2750.0	test	<img class = center src='/static/experiments/beast_fmri_test/images/redV.png'></img>	go	1900.0	1.0	32.0	go	non-target	V	89,Middle Finger	71,Index Finger	650.0	850.0	2100.0	1900.0	1.0	n/a	850.0	1.0	ITI
152563	500.0	n/a	-1	-1	500	0.0	fixation	poldrack-single-stim	653	1726641	0.0-25.33-0.33	beast_fmri_test	329	1726325,/	t	<div class = centerbox2><div class = fixation>+</div></div>	none	500.0	test	n/a	n/a	n/a	n/a	n/a	n/a	n/a	n/a	n/a	n/a	n/a	n/a	n/a	n/a	n/a	n/a	n/a	n/a	fixation
152384.45122125396	2750.0	n/a	-1	-1	2750	179.548778746	stim	stop-signal	654	1729392	0.0-25.33-1.33	beast_fmri_test	329	1727005,/,1727685,/,1728365,/,1729044,/	t,t,t,t	<img class = center src='/static/experiments/beast_fmri_test/images/D.png'></img>	89,71	2750.0	test	<img class = center src='/static/experiments/beast_fmri_test/images/redD.png'></img>	go	1900.0	1.0	33.0	go	non-target	D	89,Middle Finger	71,Index Finger	650.0	850.0	2100.0	1900.0	0.0	n/a	850.0	0.0	go_stim
155134.45122125396	179.548778746	n/a	-1	-1	2750	179.548778746	stim	stop-signal	654	1729392	0.0-25.33-1.33	beast_fmri_test	329	1727005,/,1727685,/,1728365,/,1729044,/	t,t,t,t	<img class = center src='/static/experiments/beast_fmri_test/images/D.png'></img>	89,71	2750.0	test	<img class = center src='/static/experiments/beast_fmri_test/images/redD.png'></img>	go	1900.0	1.0	33.0	go	non-target	D	89,Middle Finger	71,Index Finger	650.0	850.0	2100.0	1900.0	0.0	n/a	850.0	0.0	ITI
156066	500.0	n/a	-1	-1	500	0.0	fixation	poldrack-single-stim	655	1730144	0.0-25.34-0.34	beast_fmri_test	329	1729723,/	t	<div class = centerbox2><div class = fixation>+</div></div>	none	500.0	test	n/a	n/a	n/a	n/a	n/a	n/a	n/a	n/a	n/a	n/a	n/a	n/a	n/a	n/a	n/a	n/a	n/a	n/a	fixation
155417.63762970362	2750.0	n/a	904	89	2750	649.362370296	stim	stop-signal	656	1732895	0.0-25.34-1.34	beast_fmri_test	329	1730404,/,1731083,/,1731763,/,1732442,/,1733121,/	t,t,t,t,t	<img class = center src='/static/experiments/beast_fmri_test/images/D.png'></img>	89,71	2750.0	test	<img class = center src='/static/experiments/beast_fmri_test/images/redD.png'></img>	go	2100.0	1.0	34.0	go	target	D	89,Middle Finger	71,Index Finger	650.0	850.0	2100.0	1900.0	1.0	n/a	650.0	1.0	go_stim
158167.63762970362	649.362370296	n/a	904	89	2750	649.362370296	stim	stop-signal	656	1732895	0.0-25.34-1.34	beast_fmri_test	329	1730404,/,1731083,/,1731763,/,1732442,/,1733121,/	t,t,t,t,t	<img class = center src='/static/experiments/beast_fmri_test/images/D.png'></img>	89,71	2750.0	test	<img class = center src='/static/experiments/beast_fmri_test/images/redD.png'></img>	go	2100.0	1.0	34.0	go	target	D	89,Middle Finger	71,Index Finger	650.0	850.0	2100.0	1900.0	1.0	n/a	650.0	1.0	ITI
160040	500.0	n/a	-1	-1	500	0.0	fixation	poldrack-single-stim	657	1734118	0.0-25.35-0.35	beast_fmri_test	329	1733802,/	t	<div class = centerbox2><div class = fixation>+</div></div>	none	500.0	test	n/a	n/a	n/a	n/a	n/a	n/a	n/a	n/a	n/a	n/a	n/a	n/a	n/a	n/a	n/a	n/a	n/a	n/a	fixation
159784.42782016029	2750.0	n/a	1224	71	2750	257.57217984	stim	stop-signal	658	1736870	0.0-25.35-1.35	beast_fmri_test	329	1734482,/,1735160,/,1735842,/,1736521,/	t,t,t,t	<img class = center src='/static/experiments/beast_fmri_test/images/V.png'></img>	89,71	2750.0	test	<img class = center src='/static/experiments/beast_fmri_test/images/redV.png'></img>	go	1900.0	1.0	35.0	go	non-target	V	89,Middle Finger	71,Index Finger	650.0	850.0	2100.0	1900.0	1.0	n/a	850.0	1.0	go_stim
162534.42782016029	257.57217984	n/a	1224	71	2750	257.57217984	stim	stop-signal	658	1736870	0.0-25.35-1.35	beast_fmri_test	329	1734482,/,1735160,/,1735842,/,1736521,/	t,t,t,t	<img class = center src='/static/experiments/beast_fmri_test/images/V.png'></img>	89,71	2750.0	test	<img class = center src='/static/experiments/beast_fmri_test/images/redV.png'></img>	go	1900.0	1.0	35.0	go	non-target	V	89,Middle Finger	71,Index Finger	650.0	850.0	2100.0	1900.0	1.0	n/a	850.0	1.0	ITI
163621	500.0	n/a	-1	-1	500	0.0	fixation	poldrack-single-stim	659	1737699	0.0-25.36-0.36	beast_fmri_test	329	1737201,/	t	<div class = centerbox2><div class = fixation>+</div></div>	none	500.0	test	n/a	n/a	n/a	n/a	n/a	n/a	n/a	n/a	n/a	n/a	n/a	n/a	n/a	n/a	n/a	n/a	n/a	n/a	fixation
163289.09858733555	2750.0	n/a	-1	-1	2750	333.901412664	stim	stop-signal	660	1740451	0.0-25.36-1.36	beast_fmri_test	329	1737881,/,1738561,/,1739241,/,1739920,/,1740600,/	t,t,t,t,t	<img class = center src='/static/experiments/beast_fmri_test/images/P.png'></img>	89,71	2750.0	test	<img class = center src='/static/experiments/beast_fmri_test/images/redP.png'></img>	go	1900.0	1.0	36.0	go	non-target	P	89,Middle Finger	71,Index Finger	650.0	850.0	2100.0	1900.0	0.0	n/a	850.0	0.0	go_stim
166039.09858733555	333.901412664	n/a	-1	-1	2750	333.901412664	stim	stop-signal	660	1740451	0.0-25.36-1.36	beast_fmri_test	329	1737881,/,1738561,/,1739241,/,1739920,/,1740600,/	t,t,t,t,t	<img class = center src='/static/experiments/beast_fmri_test/images/P.png'></img>	89,71	2750.0	test	<img class = center src='/static/experiments/beast_fmri_test/images/redP.png'></img>	go	1900.0	1.0	36.0	go	non-target	P	89,Middle Finger	71,Index Finger	650.0	850.0	2100.0	1900.0	0.0	n/a	850.0	0.0	ITI
167286	500.0	n/a	-1	-1	500	0.0	fixation	poldrack-single-stim	661	1741364	0.0-25.37-0.37	beast_fmri_test	329	1741280,/	t	<div class = centerbox2><div class = fixation>+</div></div>	none	500.0	test	n/a	n/a	n/a	n/a	n/a	n/a	n/a	n/a	n/a	n/a	n/a	n/a	n/a	n/a	n/a	n/a	n/a	n/a	fixation
166944.10520823882	650.0	n/a	808	89	2750	344.894791761	stim	stop-signal	662	1744117	0.0-25.37-1.37	beast_fmri_test	329	1741958,/,1742639,/,1743319,/,1743997,/	t,t,t,t	<img class = center src='/static/experiments/beast_fmri_test/images/P.png'></img>	89,71	2750.0	test	<img class = center src='/static/experiments/beast_fmri_test/images/redP.png'></img>	stop	2100.0	1.0	37.0	stop	target	P	89,Middle Finger	71,Index Finger	650.0	850.0	2100.0	1900.0	0.0	0.0	650.0	n/a	go_stim
169044.10520823882	2100.0	n/a	808	89	2750	344.894791761	stim	stop-signal	662	1744117	0.0-25.37-1.37	beast_fmri_test	329	1741958,/,1742639,/,1743319,/,1743997,/	t,t,t,t	<img class = center src='/static/experiments/beast_fmri_test/images/P.png'></img>	89,71	2750.0	test	<img class = center src='/static/experiments/beast_fmri_test/images/redP.png'></img>	stop	2100.0	1.0	37.0	stop	target	P	89,Middle Finger	71,Index Finger	650.0	850.0	2100.0	1900.0	0.0	0.0	650.0	n/a	stop_stim
169694.10520823882	344.894791761	n/a	808	89	2750	344.894791761	stim	stop-signal	662	1744117	0.0-25.37-1.37	beast_fmri_test	329	1741958,/,1742639,/,1743319,/,1743997,/	t,t,t,t	<img class = center src='/static/experiments/beast_fmri_test/images/P.png'></img>	89,71	2750.0	test	<img class = center src='/static/experiments/beast_fmri_test/images/redP.png'></img>	stop	2100.0	1.0	37.0	stop	target	P	89,Middle Finger	71,Index Finger	650.0	850.0	2100.0	1900.0	0.0	0.0	650.0	n/a	ITI
170951	500.0	n/a	-1	-1	500	0.0	fixation	poldrack-single-stim	663	1745029	0.0-25.38-0.38	beast_fmri_test	329	1744679,/	t	<div class = centerbox2><div class = fixation>+</div></div>	none	500.0	test	n/a	n/a	n/a	n/a	n/a	n/a	n/a	n/a	n/a	n/a	n/a	n/a	n/a	n/a	n/a	n/a	n/a	n/a	fixation
169557.65992975119	850.0	n/a	1142	71	2750	1396.34007025	stim	stop-signal	664	1747782	0.0-25.38-1.38	beast_fmri_test	329	1745357,/,1746038,/,1746716,/,1747397,/,1748076,/,1748757,/	t,t,t,t,t,t	<img class = center src='/static/experiments/beast_fmri_test/images/T.png'></img>	89,71	2750.0	test	<img class = center src='/static/experiments/beast_fmri_test/images/redT.png'></img>	stop	1900.0	1.0	38.0	stop	non-target	T	89,Middle Finger	71,Index Finger	600.0	850.0	2100.0	1900.0	0.0	0.0	850.0	n/a	go_stim
171457.65992975119	1900.0	n/a	1142	71	2750	1396.34007025	stim	stop-signal	664	1747782	0.0-25.38-1.38	beast_fmri_test	329	1745357,/,1746038,/,1746716,/,1747397,/,1748076,/,1748757,/	t,t,t,t,t,t	<img class = center src='/static/experiments/beast_fmri_test/images/T.png'></img>	89,71	2750.0	test	<img class = center src='/static/experiments/beast_fmri_test/images/redT.png'></img>	stop	1900.0	1.0	38.0	stop	non-target	T	89,Middle Finger	71,Index Finger	600.0	850.0	2100.0	1900.0	0.0	0.0	850.0	n/a	stop_stim
172307.65992975119	1396.34007025	n/a	1142	71	2750	1396.34007025	stim	stop-signal	664	1747782	0.0-25.38-1.38	beast_fmri_test	329	1745357,/,1746038,/,1746716,/,1747397,/,1748076,/,1748757,/	t,t,t,t,t,t	<img class = center src='/static/experiments/beast_fmri_test/images/T.png'></img>	89,71	2750.0	test	<img class = center src='/static/experiments/beast_fmri_test/images/redT.png'></img>	stop	1900.0	1.0	38.0	stop	non-target	T	89,Middle Finger	71,Index Finger	600.0	850.0	2100.0	1900.0	0.0	0.0	850.0	n/a	ITI
175674	500.0	n/a	-1	-1	500	0.0	fixation	poldrack-single-stim	665	1749752	0.0-25.39-0.39	beast_fmri_test	329	1749436,/	t	<div class = centerbox2><div class = fixation>+</div></div>	none	500.0	test	n/a	n/a	n/a	n/a	n/a	n/a	n/a	n/a	n/a	n/a	n/a	n/a	n/a	n/a	n/a	n/a	n/a	n/a	fixation
175566.8688723722	2750.0	n/a	827	71	2750	109.131127628	stim	stop-signal	666	1752504	0.0-25.39-1.39	beast_fmri_test	329	1750115,/,1750796,/,1751474,/,1752155,/	t,t,t,t	<img class = center src='/static/experiments/beast_fmri_test/images/V.png'></img>	89,71	2750.0	test	<img class = center src='/static/experiments/beast_fmri_test/images/redV.png'></img>	go	1950.0	1.0	39.0	go	non-target	V	89,Middle Finger	71,Index Finger	600.0	800.0	2100.0	1950.0	1.0	n/a	800.0	1.0	go_stim
178316.8688723722	109.131127628	n/a	827	71	2750	109.131127628	stim	stop-signal	666	1752504	0.0-25.39-1.39	beast_fmri_test	329	1750115,/,1750796,/,1751474,/,1752155,/	t,t,t,t	<img class = center src='/static/experiments/beast_fmri_test/images/V.png'></img>	89,71	2750.0	test	<img class = center src='/static/experiments/beast_fmri_test/images/redV.png'></img>	go	1950.0	1.0	39.0	go	non-target	V	89,Middle Finger	71,Index Finger	600.0	800.0	2100.0	1950.0	1.0	n/a	800.0	1.0	ITI
179104	500.0	n/a	-1	-1	500	0.0	fixation	poldrack-single-stim	667	1753182	0.0-25.40-0.40	beast_fmri_test	329	1752834,/	t	<div class = centerbox2><div class = fixation>+</div></div>	none	500.0	test	n/a	n/a	n/a	n/a	n/a	n/a	n/a	n/a	n/a	n/a	n/a	n/a	n/a	n/a	n/a	n/a	n/a	n/a	fixation
177551.09024022822	800.0	n/a	901	71	2750	1555.90975977	stim	stop-signal	668	1755935	0.0-25.40-1.40	beast_fmri_test	329	1753515,/,1754192,/,1754874,/,1755552,/,1756233,/,1756911,/	t,t,t,t,t,t	<img class = center src='/static/experiments/beast_fmri_test/images/P.png'></img>	89,71	2750.0	test	<img class = center src='/static/experiments/beast_fmri_test/images/redP.png'></img>	stop	1950.0	1.0	40.0	stop	non-target	P	89,Middle Finger	71,Index Finger	600.0	800.0	2100.0	1950.0	0.0	0.0	800.0	n/a	go_stim
179501.09024022822	1950.0	n/a	901	71	2750	1555.90975977	stim	stop-signal	668	1755935	0.0-25.40-1.40	beast_fmri_test	329	1753515,/,1754192,/,1754874,/,1755552,/,1756233,/,1756911,/	t,t,t,t,t,t	<img class = center src='/static/experiments/beast_fmri_test/images/P.png'></img>	89,71	2750.0	test	<img class = center src='/static/experiments/beast_fmri_test/images/redP.png'></img>	stop	1950.0	1.0	40.0	stop	non-target	P	89,Middle Finger	71,Index Finger	600.0	800.0	2100.0	1950.0	0.0	0.0	800.0	n/a	stop_stim
180301.09024022822	1555.90975977	n/a	901	71	2750	1555.90975977	stim	stop-signal	668	1755935	0.0-25.40-1.40	beast_fmri_test	329	1753515,/,1754192,/,1754874,/,1755552,/,1756233,/,1756911,/	t,t,t,t,t,t	<img class = center src='/static/experiments/beast_fmri_test/images/P.png'></img>	89,71	2750.0	test	<img class = center src='/static/experiments/beast_fmri_test/images/redP.png'></img>	stop	1950.0	1.0	40.0	stop	non-target	P	89,Middle Finger	71,Index Finger	600.0	800.0	2100.0	1950.0	0.0	0.0	800.0	n/a	ITI
183975	500.0	n/a	-1	-1	500	0.0	fixation	poldrack-single-stim	669	1758053	0.0-25.41-0.41	beast_fmri_test	329	1757591,/	t	<div class = centerbox2><div class = fixation>+</div></div>	none	500.0	test	n/a	n/a	n/a	n/a	n/a	n/a	n/a	n/a	n/a	n/a	n/a	n/a	n/a	n/a	n/a	n/a	n/a	n/a	fixation
178977.0	2750.0	n/a	843	71	2750	5000.0	stim	stop-signal	670	1760805	0.0-25.41-1.41	beast_fmri_test	329	1758272,/,1758950,/,1759631,/,1760311,/,1760989,/,1761670,/,1762350,/,1763028,/,1763709,/,1764388,/,1765068,/,1765748,/	t,t,t,t,t,t,t,t,t,t,t,t	<img class = center src='/static/experiments/beast_fmri_test/images/D.png'></img>	89,71	2750.0	test	<img class = center src='/static/experiments/beast_fmri_test/images/redD.png'></img>	go	2000.0	1.0	41.0	go	non-target	D	89,Middle Finger	71,Index Finger	600.0	750.0	2100.0	2000.0	1.0	n/a	750.0	1.0	go_stim
181727.0	5000.0	n/a	843	71	2750	5000.0	stim	stop-signal	670	1760805	0.0-25.41-1.41	beast_fmri_test	329	1758272,/,1758950,/,1759631,/,1760311,/,1760989,/,1761670,/,1762350,/,1763028,/,1763709,/,1764388,/,1765068,/,1765748,/	t,t,t,t,t,t,t,t,t,t,t,t	<img class = center src='/static/experiments/beast_fmri_test/images/D.png'></img>	89,71	2750.0	test	<img class = center src='/static/experiments/beast_fmri_test/images/redD.png'></img>	go	2000.0	1.0	41.0	go	non-target	D	89,Middle Finger	71,Index Finger	600.0	750.0	2100.0	2000.0	1.0	n/a	750.0	1.0	ITI
192287	500.0	n/a	-1	-1	500	0.0	fixation	poldrack-single-stim	671	1766365	0.0-25.42-0.42	beast_fmri_test	329	n/a	n/a	<div class = centerbox2><div class = fixation>+</div></div>	none	500.0	test	n/a	n/a	n/a	n/a	n/a	n/a	n/a	n/a	n/a	n/a	n/a	n/a	n/a	n/a	n/a	n/a	n/a	n/a	fixation
191666.86425098567	2750.0	n/a	1089	71	2750	620.135749014	stim	stop-signal	672	1769115	0.0-25.42-1.42	beast_fmri_test	329	1766429,/,1767107,/,1767786,/,1768466,/,1769145,/	t,t,t,t,t	<img class = center src='/static/experiments/beast_fmri_test/images/V.png'></img>	89,71	2750.0	test	<img class = center src='/static/experiments/beast_fmri_test/images/redV.png'></img>	go	2000.0	1.0	42.0	go	non-target	V	89,Middle Finger	71,Index Finger	600.0	750.0	2100.0	2000.0	1.0	n/a	750.0	1.0	go_stim
194416.86425098567	620.135749014	n/a	1089	71	2750	620.135749014	stim	stop-signal	672	1769115	0.0-25.42-1.42	beast_fmri_test	329	1766429,/,1767107,/,1767786,/,1768466,/,1769145,/	t,t,t,t,t	<img class = center src='/static/experiments/beast_fmri_test/images/V.png'></img>	89,71	2750.0	test	<img class = center src='/static/experiments/beast_fmri_test/images/redV.png'></img>	go	2000.0	1.0	42.0	go	non-target	V	89,Middle Finger	71,Index Finger	600.0	750.0	2100.0	2000.0	1.0	n/a	750.0	1.0	ITI
196228	500.0	n/a	-1	-1	500	0.0	fixation	poldrack-single-stim	673	1770306	0.0-25.43-0.43	beast_fmri_test	329	1769826,/	t	<div class = centerbox2><div class = fixation>+</div></div>	none	500.0	test	n/a	n/a	n/a	n/a	n/a	n/a	n/a	n/a	n/a	n/a	n/a	n/a	n/a	n/a	n/a	n/a	n/a	n/a	fixation
195898.80883456417	600.0	n/a	-1	-1	2750	330.191165436	stim	stop-signal	674	1773057	0.0-25.43-1.43	beast_fmri_test	329	1770507,/,1771186,/,1771865,/,1772546,/,1773224,/	t,t,t,t,t	<img class = center src='/static/experiments/beast_fmri_test/images/V.png'></img>	89,71	2750.0	test	<img class = center src='/static/experiments/beast_fmri_test/images/redV.png'></img>	stop	2150.0	1.0	43.0	stop	target	V	89,Middle Finger	71,Index Finger	600.0	750.0	2150.0	2000.0	0.0	1.0	600.0	n/a	go_stim
198048.80883456417	2150.0	n/a	-1	-1	2750	330.191165436	stim	stop-signal	674	1773057	0.0-25.43-1.43	beast_fmri_test	329	1770507,/,1771186,/,1771865,/,1772546,/,1773224,/	t,t,t,t,t	<img class = center src='/static/experiments/beast_fmri_test/images/V.png'></img>	89,71	2750.0	test	<img class = center src='/static/experiments/beast_fmri_test/images/redV.png'></img>	stop	2150.0	1.0	43.0	stop	target	V	89,Middle Finger	71,Index Finger	600.0	750.0	2150.0	2000.0	0.0	1.0	600.0	n/a	stop_stim
198648.80883456417	330.191165436	n/a	-1	-1	2750	330.191165436	stim	stop-signal	674	1773057	0.0-25.43-1.43	beast_fmri_test	329	1770507,/,1771186,/,1771865,/,1772546,/,1773224,/	t,t,t,t,t	<img class = center src='/static/experiments/beast_fmri_test/images/V.png'></img>	89,71	2750.0	test	<img class = center src='/static/experiments/beast_fmri_test/images/redV.png'></img>	stop	2150.0	1.0	43.0	stop	target	V	89,Middle Finger	71,Index Finger	600.0	750.0	2150.0	2000.0	0.0	1.0	600.0	n/a	ITI
199879	500.0	n/a	-1	-1	500	0.0	fixation	poldrack-single-stim	675	1773957	0.0-25.44-0.44	beast_fmri_test	329	1773905,/	t	<div class = centerbox2><div class = fixation>+</div></div>	none	500.0	test	n/a	n/a	n/a	n/a	n/a	n/a	n/a	n/a	n/a	n/a	n/a	n/a	n/a	n/a	n/a	n/a	n/a	n/a	fixation
199290.47111481428	2750.0	n/a	840	71	2750	590.528885186	stim	stop-signal	676	1776709	0.0-25.44-1.44	beast_fmri_test	329	1774584,/,1775264,/,1775943,/,1776622,/	t,t,t,t	<img class = center src='/static/experiments/beast_fmri_test/images/P.png'></img>	89,71	2750.0	test	<img class = center src='/static/experiments/beast_fmri_test/images/redP.png'></img>	go	2000.0	1.0	44.0	go	non-target	P	89,Middle Finger	71,Index Finger	650.0	750.0	2150.0	2000.0	1.0	n/a	750.0	1.0	go_stim
202040.47111481428	590.528885186	n/a	840	71	2750	590.528885186	stim	stop-signal	676	1776709	0.0-25.44-1.44	beast_fmri_test	329	1774584,/,1775264,/,1775943,/,1776622,/	t,t,t,t	<img class = center src='/static/experiments/beast_fmri_test/images/P.png'></img>	89,71	2750.0	test	<img class = center src='/static/experiments/beast_fmri_test/images/redP.png'></img>	go	2000.0	1.0	44.0	go	non-target	P	89,Middle Finger	71,Index Finger	650.0	750.0	2150.0	2000.0	1.0	n/a	750.0	1.0	ITI
203793	500.0	n/a	-1	-1	500	0.0	fixation	poldrack-single-stim	677	1777871	0.0-25.45-0.45	beast_fmri_test	329	1777368,/	t	<div class = centerbox2><div class = fixation>+</div></div>	none	500.0	test	n/a	n/a	n/a	n/a	n/a	n/a	n/a	n/a	n/a	n/a	n/a	n/a	n/a	n/a	n/a	n/a	n/a	n/a	fixation
202948.16497982154	750.0	n/a	-1	-1	2750	846.835020179	stim	stop-signal	678	1780623	0.0-25.45-1.45	beast_fmri_test	329	1777984,/,1778662,/,1779342,/,1780022,/,1780702,/,1781381,/	t,t,t,t,t,t	<img class = center src='/static/experiments/beast_fmri_test/images/D.png'></img>	89,71	2750.0	test	<img class = center src='/static/experiments/beast_fmri_test/images/redD.png'></img>	stop	2000.0	1.0	45.0	stop	non-target	D	89,Middle Finger	71,Index Finger	650.0	750.0	2150.0	2000.0	0.0	1.0	750.0	n/a	go_stim
204948.16497982154	2000.0	n/a	-1	-1	2750	846.835020179	stim	stop-signal	678	1780623	0.0-25.45-1.45	beast_fmri_test	329	1777984,/,1778662,/,1779342,/,1780022,/,1780702,/,1781381,/	t,t,t,t,t,t	<img class = center src='/static/experiments/beast_fmri_test/images/D.png'></img>	89,71	2750.0	test	<img class = center src='/static/experiments/beast_fmri_test/images/redD.png'></img>	stop	2000.0	1.0	45.0	stop	non-target	D	89,Middle Finger	71,Index Finger	650.0	750.0	2150.0	2000.0	0.0	1.0	750.0	n/a	stop_stim
205698.16497982154	846.835020179	n/a	-1	-1	2750	846.835020179	stim	stop-signal	678	1780623	0.0-25.45-1.45	beast_fmri_test	329	1777984,/,1778662,/,1779342,/,1780022,/,1780702,/,1781381,/	t,t,t,t,t,t	<img class = center src='/static/experiments/beast_fmri_test/images/D.png'></img>	89,71	2750.0	test	<img class = center src='/static/experiments/beast_fmri_test/images/redD.png'></img>	stop	2000.0	1.0	45.0	stop	non-target	D	89,Middle Finger	71,Index Finger	650.0	750.0	2150.0	2000.0	0.0	1.0	750.0	n/a	ITI
222456	15000.0	n/a	-1	-1	15000	0.0	practice-no-stop-feedback	poldrack-single-stim	679	1796534	0.0-26.0	beast_fmri_test	329	1782060,/,1782741,/,1783419,/,1784100,/,1784779,/,1785459,/,1786138,/,1786819,/,1787499,/,1788177,/,1788858,/,1789536,/,1790217,/,1790896,/,1791577,/,1792255,/,1792936,/,1793614,/,1794295,/,1794973,/,1795654,/,1796334,/	t,t,t,t,t,t,t,t,t,t,t,t,t,t,t,t,t,t,t,t,t,t	"<div class = ""centerbox""><p class = ""block-text"">Your delay is 1 trials.</p><p class = block-text>Please wait for the scanner to start the block</p></div>"	77	15000.0	n/a	n/a	n/a	n/a	n/a	n/a	n/a	n/a	n/a	n/a	n/a	n/a	n/a	n/a	n/a	n/a	n/a	n/a	n/a	practice-no-stop-feedback
222958	500.0	n/a	-1	-1	500	0.0	fixation	poldrack-single-stim	680	1797036	0.0-27.0-0.0	beast_fmri_test	329	1797012,/	t	<div class = centerbox2><div class = fixation>+</div></div>	none	500.0	test	n/a	n/a	n/a	n/a	n/a	n/a	n/a	n/a	n/a	n/a	n/a	n/a	n/a	n/a	n/a	n/a	n/a	n/a	fixation
221883.74477421655	2750.0	n/a	730	71	2750	1075.25522578	stim	stop-signal	681	1799787	0.0-27.0-1.0	beast_fmri_test	329	1797694,/,1798372,/,1799053,/,1799732,/,1800413,/	t,t,t,t,t	<img class = center src='/static/experiments/beast_fmri_test/images/D.png'></img>	89,71	2750.0	test	<img class = center src='/static/experiments/beast_fmri_test/images/redD.png'></img>	go	-1.0	1.0	0.0	go	temp-non-target	D	89,Middle Finger	71,Index Finger	650.0	800.0	2150.0	2000.0	0.0	n/a	n/a	n/a	go_stim
224633.74477421655	1075.25522578	n/a	730	71	2750	1075.25522578	stim	stop-signal	681	1799787	0.0-27.0-1.0	beast_fmri_test	329	1797694,/,1798372,/,1799053,/,1799732,/,1800413,/	t,t,t,t,t	<img class = center src='/static/experiments/beast_fmri_test/images/D.png'></img>	89,71	2750.0	test	<img class = center src='/static/experiments/beast_fmri_test/images/redD.png'></img>	go	-1.0	1.0	0.0	go	temp-non-target	D	89,Middle Finger	71,Index Finger	650.0	800.0	2150.0	2000.0	0.0	n/a	n/a	n/a	ITI
227352	500.0	n/a	-1	-1	500	0.0	fixation	poldrack-single-stim	682	1801430	0.0-27.1-0.1	beast_fmri_test	329	1801091,/	t	<div class = centerbox2><div class = fixation>+</div></div>	none	500.0	test	n/a	n/a	n/a	n/a	n/a	n/a	n/a	n/a	n/a	n/a	n/a	n/a	n/a	n/a	n/a	n/a	n/a	n/a	fixation
226421.51169530838	2750.0	n/a	-1	-1	2750	932.488304692	stim	stop-signal	683	1804182	0.0-27.1-1.1	beast_fmri_test	329	1801771,/,1802451,/,1803131,/,1803812,/,1804491,/	t,t,t,t,t	<img class = center src='/static/experiments/beast_fmri_test/images/P.png'></img>	89,71	2750.0	test	<img class = center src='/static/experiments/beast_fmri_test/images/redP.png'></img>	go	1950.0	1.0	1.0	go	non-target	P	89,Middle Finger	71,Index Finger	650.0	800.0	2150.0	1950.0	0.0	n/a	800.0	0.0	go_stim
229171.51169530838	932.488304692	n/a	-1	-1	2750	932.488304692	stim	stop-signal	683	1804182	0.0-27.1-1.1	beast_fmri_test	329	1801771,/,1802451,/,1803131,/,1803812,/,1804491,/	t,t,t,t,t	<img class = center src='/static/experiments/beast_fmri_test/images/P.png'></img>	89,71	2750.0	test	<img class = center src='/static/experiments/beast_fmri_test/images/redP.png'></img>	go	1950.0	1.0	1.0	go	non-target	P	89,Middle Finger	71,Index Finger	650.0	800.0	2150.0	1950.0	0.0	n/a	800.0	0.0	ITI
231611	500.0	n/a	-1	-1	500	0.0	fixation	poldrack-single-stim	684	1805689	0.0-27.2-0.2	beast_fmri_test	329	1805189,/	t	<div class = centerbox2><div class = fixation>+</div></div>	none	500.0	test	n/a	n/a	n/a	n/a	n/a	n/a	n/a	n/a	n/a	n/a	n/a	n/a	n/a	n/a	n/a	n/a	n/a	n/a	fixation
230502.76431988622	650.0	n/a	768	89	2750	1110.23568011	stim	stop-signal	685	1808441	0.0-27.2-1.2	beast_fmri_test	329	1805852,/,1806530,/,1807210,/,1807890,/,1808568,/,1809249,/	t,t,t,t,t,t	<img class = center src='/static/experiments/beast_fmri_test/images/P.png'></img>	89,71	2750.0	test	<img class = center src='/static/experiments/beast_fmri_test/images/redP.png'></img>	stop	2100.0	1.0	2.0	stop	target	P	89,Middle Finger	71,Index Finger	650.0	800.0	2100.0	1950.0	0.0	0.0	650.0	n/a	go_stim
232602.76431988622	2100.0	n/a	768	89	2750	1110.23568011	stim	stop-signal	685	1808441	0.0-27.2-1.2	beast_fmri_test	329	1805852,/,1806530,/,1807210,/,1807890,/,1808568,/,1809249,/	t,t,t,t,t,t	<img class = center src='/static/experiments/beast_fmri_test/images/P.png'></img>	89,71	2750.0	test	<img class = center src='/static/experiments/beast_fmri_test/images/redP.png'></img>	stop	2100.0	1.0	2.0	stop	target	P	89,Middle Finger	71,Index Finger	650.0	800.0	2100.0	1950.0	0.0	0.0	650.0	n/a	stop_stim
233252.76431988622	1110.23568011	n/a	768	89	2750	1110.23568011	stim	stop-signal	685	1808441	0.0-27.2-1.2	beast_fmri_test	329	1805852,/,1806530,/,1807210,/,1807890,/,1808568,/,1809249,/	t,t,t,t,t,t	<img class = center src='/static/experiments/beast_fmri_test/images/P.png'></img>	89,71	2750.0	test	<img class = center src='/static/experiments/beast_fmri_test/images/redP.png'></img>	stop	2100.0	1.0	2.0	stop	target	P	89,Middle Finger	71,Index Finger	650.0	800.0	2100.0	1950.0	0.0	0.0	650.0	n/a	ITI
236045	500.0	n/a	-1	-1	500	0.0	fixation	poldrack-single-stim	686	1810123	0.0-27.3-0.3	beast_fmri_test	329	1809927,/	t	<div class = centerbox2><div class = fixation>+</div></div>	none	500.0	test	n/a	n/a	n/a	n/a	n/a	n/a	n/a	n/a	n/a	n/a	n/a	n/a	n/a	n/a	n/a	n/a	n/a	n/a	fixation
235573.76774438983	2750.0	n/a	824	71	2750	472.23225561	stim	stop-signal	687	1812874	0.0-27.3-1.3	beast_fmri_test	329	1810608,/,1811287,/,1811967,/,1812647,/,1813327,/	t,t,t,t,t	<img class = center src='/static/experiments/beast_fmri_test/images/D.png'></img>	89,71	2750.0	test	<img class = center src='/static/experiments/beast_fmri_test/images/redD.png'></img>	go	1950.0	1.0	3.0	go	non-target	D	89,Middle Finger	71,Index Finger	600.0	800.0	2100.0	1950.0	1.0	n/a	800.0	1.0	go_stim
238323.76774438983	472.23225561	n/a	824	71	2750	472.23225561	stim	stop-signal	687	1812874	0.0-27.3-1.3	beast_fmri_test	329	1810608,/,1811287,/,1811967,/,1812647,/,1813327,/	t,t,t,t,t	<img class = center src='/static/experiments/beast_fmri_test/images/D.png'></img>	89,71	2750.0	test	<img class = center src='/static/experiments/beast_fmri_test/images/redD.png'></img>	go	1950.0	1.0	3.0	go	non-target	D	89,Middle Finger	71,Index Finger	600.0	800.0	2100.0	1950.0	1.0	n/a	800.0	1.0	ITI
239846	500.0	n/a	-1	-1	500	0.0	fixation	poldrack-single-stim	688	1813924	0.0-27.4-0.4	beast_fmri_test	329	n/a	n/a	<div class = centerbox2><div class = fixation>+</div></div>	none	500.0	test	n/a	n/a	n/a	n/a	n/a	n/a	n/a	n/a	n/a	n/a	n/a	n/a	n/a	n/a	n/a	n/a	n/a	n/a	fixation
239819.94754323945	800.0	n/a	1323	71	2750	28.0524567606	stim	stop-signal	689	1816676	0.0-27.4-1.4	beast_fmri_test	329	1814005,/,1814687,/,1815365,/,1816045,/	t,t,t,t	<img class = center src='/static/experiments/beast_fmri_test/images/V.png'></img>	89,71	2750.0	test	<img class = center src='/static/experiments/beast_fmri_test/images/redV.png'></img>	stop	1950.0	1.0	4.0	stop	non-target	V	89,Middle Finger	71,Index Finger	600.0	800.0	2100.0	1950.0	0.0	0.0	800.0	n/a	go_stim
241769.94754323945	1950.0	n/a	1323	71	2750	28.0524567606	stim	stop-signal	689	1816676	0.0-27.4-1.4	beast_fmri_test	329	1814005,/,1814687,/,1815365,/,1816045,/	t,t,t,t	<img class = center src='/static/experiments/beast_fmri_test/images/V.png'></img>	89,71	2750.0	test	<img class = center src='/static/experiments/beast_fmri_test/images/redV.png'></img>	stop	1950.0	1.0	4.0	stop	non-target	V	89,Middle Finger	71,Index Finger	600.0	800.0	2100.0	1950.0	0.0	0.0	800.0	n/a	stop_stim
242569.94754323945	28.0524567606	n/a	1323	71	2750	28.0524567606	stim	stop-signal	689	1816676	0.0-27.4-1.4	beast_fmri_test	329	1814005,/,1814687,/,1815365,/,1816045,/	t,t,t,t	<img class = center src='/static/experiments/beast_fmri_test/images/V.png'></img>	89,71	2750.0	test	<img class = center src='/static/experiments/beast_fmri_test/images/redV.png'></img>	stop	1950.0	1.0	4.0	stop	non-target	V	89,Middle Finger	71,Index Finger	600.0	800.0	2100.0	1950.0	0.0	0.0	800.0	n/a	ITI
243215	500.0	n/a	-1	-1	500	0.0	fixation	poldrack-single-stim	690	1817293	0.0-27.5-0.5	beast_fmri_test	329	1816792,/	t	<div class = centerbox2><div class = fixation>+</div></div>	none	500.0	test	n/a	n/a	n/a	n/a	n/a	n/a	n/a	n/a	n/a	n/a	n/a	n/a	n/a	n/a	n/a	n/a	n/a	n/a	fixation
242214.10728052445	2750.0	n/a	1136	71	2750	1002.89271948	stim	stop-signal	691	1820045	0.0-27.5-1.5	beast_fmri_test	329	1817405,/,1818084,/,1818763,/,1819444,/,1820122,/,1820803,/	t,t,t,t,t,t	<img class = center src='/static/experiments/beast_fmri_test/images/V.png'></img>	89,71	2750.0	test	<img class = center src='/static/experiments/beast_fmri_test/images/redV.png'></img>	go	2150.0	1.0	5.0	go	target	V	89,Middle Finger	71,Index Finger	600.0	750.0	2150.0	1950.0	0.0	n/a	600.0	0.0	go_stim
244964.10728052445	1002.89271948	n/a	1136	71	2750	1002.89271948	stim	stop-signal	691	1820045	0.0-27.5-1.5	beast_fmri_test	329	1817405,/,1818084,/,1818763,/,1819444,/,1820122,/,1820803,/	t,t,t,t,t,t	<img class = center src='/static/experiments/beast_fmri_test/images/V.png'></img>	89,71	2750.0	test	<img class = center src='/static/experiments/beast_fmri_test/images/redV.png'></img>	go	2150.0	1.0	5.0	go	target	V	89,Middle Finger	71,Index Finger	600.0	750.0	2150.0	1950.0	0.0	n/a	600.0	0.0	ITI
247538	500.0	n/a	-1	-1	500	0.0	fixation	poldrack-single-stim	692	1821616	0.0-27.6-0.6	beast_fmri_test	329	1821482,/	t	<div class = centerbox2><div class = fixation>+</div></div>	none	500.0	test	n/a	n/a	n/a	n/a	n/a	n/a	n/a	n/a	n/a	n/a	n/a	n/a	n/a	n/a	n/a	n/a	n/a	n/a	fixation
247038.54423924536	2750.0	n/a	1596	71	2750	501.455760755	stim	stop-signal	693	1824368	0.0-27.6-1.6	beast_fmri_test	329	1822163,/,1822842,/,1823522,/,1824202,/	t,t,t,t	<img class = center src='/static/experiments/beast_fmri_test/images/P.png'></img>	89,71	2750.0	test	<img class = center src='/static/experiments/beast_fmri_test/images/redP.png'></img>	go	2000.0	1.0	6.0	go	non-target	P	89,Middle Finger	71,Index Finger	600.0	750.0	2150.0	2000.0	1.0	n/a	750.0	1.0	go_stim
249788.54423924536	501.455760755	n/a	1596	71	2750	501.455760755	stim	stop-signal	693	1824368	0.0-27.6-1.6	beast_fmri_test	329	1822163,/,1822842,/,1823522,/,1824202,/	t,t,t,t	<img class = center src='/static/experiments/beast_fmri_test/images/P.png'></img>	89,71	2750.0	test	<img class = center src='/static/experiments/beast_fmri_test/images/redP.png'></img>	go	2000.0	1.0	6.0	go	non-target	P	89,Middle Finger	71,Index Finger	600.0	750.0	2150.0	2000.0	1.0	n/a	750.0	1.0	ITI
251366	500.0	n/a	-1	-1	500	0.0	fixation	poldrack-single-stim	694	1825444	0.0-27.7-0.7	beast_fmri_test	329	1824942,/	t	<div class = centerbox2><div class = fixation>+</div></div>	none	500.0	test	n/a	n/a	n/a	n/a	n/a	n/a	n/a	n/a	n/a	n/a	n/a	n/a	n/a	n/a	n/a	n/a	n/a	n/a	fixation
251195.60848495527	2750.0	n/a	731	89	2750	171.391515045	stim	stop-signal	695	1828195	0.0-27.7-1.7	beast_fmri_test	329	1825561,/,1826241,/,1826921,/,1827600,/,1828281,/	t,t,t,t,t	<img class = center src='/static/experiments/beast_fmri_test/images/P.png'></img>	89,71	2750.0	test	<img class = center src='/static/experiments/beast_fmri_test/images/redP.png'></img>	go	2150.0	1.0	7.0	go	target	P	89,Middle Finger	71,Index Finger	600.0	750.0	2150.0	2000.0	1.0	n/a	600.0	1.0	go_stim
253945.60848495527	171.391515045	n/a	731	89	2750	171.391515045	stim	stop-signal	695	1828195	0.0-27.7-1.7	beast_fmri_test	329	1825561,/,1826241,/,1826921,/,1827600,/,1828281,/	t,t,t,t,t	<img class = center src='/static/experiments/beast_fmri_test/images/P.png'></img>	89,71	2750.0	test	<img class = center src='/static/experiments/beast_fmri_test/images/redP.png'></img>	go	2150.0	1.0	7.0	go	target	P	89,Middle Finger	71,Index Finger	600.0	750.0	2150.0	2000.0	1.0	n/a	600.0	1.0	ITI
254862	500.0	n/a	-1	-1	500	0.0	fixation	poldrack-single-stim	696	1828940	0.0-27.8-0.8	beast_fmri_test	329	n/a	n/a	<div class = centerbox2><div class = fixation>+</div></div>	none	500.0	test	n/a	n/a	n/a	n/a	n/a	n/a	n/a	n/a	n/a	n/a	n/a	n/a	n/a	n/a	n/a	n/a	n/a	n/a	fixation
253676.16830407851	2750.0	n/a	1070	71	2750	1187.83169592	stim	stop-signal	697	1831692	0.0-27.8-1.8	beast_fmri_test	329	1828959,/,1829640,/,1830318,/,1830999,/,1831677,/,1832358,/	t,t,t,t,t,t	<img class = center src='/static/experiments/beast_fmri_test/images/B.png'></img>	89,71	2750.0	test	<img class = center src='/static/experiments/beast_fmri_test/images/redB.png'></img>	go	2000.0	1.0	8.0	go	non-target	B	89,Middle Finger	71,Index Finger	600.0	750.0	2150.0	2000.0	1.0	n/a	750.0	1.0	go_stim
256426.16830407851	1187.83169592	n/a	1070	71	2750	1187.83169592	stim	stop-signal	697	1831692	0.0-27.8-1.8	beast_fmri_test	329	1828959,/,1829640,/,1830318,/,1830999,/,1831677,/,1832358,/	t,t,t,t,t,t	<img class = center src='/static/experiments/beast_fmri_test/images/B.png'></img>	89,71	2750.0	test	<img class = center src='/static/experiments/beast_fmri_test/images/redB.png'></img>	go	2000.0	1.0	8.0	go	non-target	B	89,Middle Finger	71,Index Finger	600.0	750.0	2150.0	2000.0	1.0	n/a	750.0	1.0	ITI
259378	500.0	n/a	-1	-1	500	0.0	fixation	poldrack-single-stim	698	1833456	0.0-27.9-0.9	beast_fmri_test	329	1833037,/	t	<div class = centerbox2><div class = fixation>+</div></div>	none	500.0	test	n/a	n/a	n/a	n/a	n/a	n/a	n/a	n/a	n/a	n/a	n/a	n/a	n/a	n/a	n/a	n/a	n/a	n/a	fixation
258817.38800835144	2750.0	n/a	1228	71	2750	561.611991649	stim	stop-signal	699	1836207	0.0-27.9-1.9	beast_fmri_test	329	1833717,/,1834397,/,1835075,/,1835756,/,1836435,/	t,t,t,t,t	<img class = center src='/static/experiments/beast_fmri_test/images/P.png'></img>	89,71	2750.0	test	<img class = center src='/static/experiments/beast_fmri_test/images/redP.png'></img>	go	2000.0	1.0	9.0	go	non-target	P	89,Middle Finger	71,Index Finger	600.0	750.0	2150.0	2000.0	1.0	n/a	750.0	1.0	go_stim
261567.38800835144	561.611991649	n/a	1228	71	2750	561.611991649	stim	stop-signal	699	1836207	0.0-27.9-1.9	beast_fmri_test	329	1833717,/,1834397,/,1835075,/,1835756,/,1836435,/	t,t,t,t,t	<img class = center src='/static/experiments/beast_fmri_test/images/P.png'></img>	89,71	2750.0	test	<img class = center src='/static/experiments/beast_fmri_test/images/redP.png'></img>	go	2000.0	1.0	9.0	go	non-target	P	89,Middle Finger	71,Index Finger	600.0	750.0	2150.0	2000.0	1.0	n/a	750.0	1.0	ITI
263267	500.0	n/a	-1	-1	500	0.0	fixation	poldrack-single-stim	700	1837345	0.0-27.10-0.10	beast_fmri_test	329	1837116,/	t	<div class = centerbox2><div class = fixation>+</div></div>	none	500.0	test	n/a	n/a	n/a	n/a	n/a	n/a	n/a	n/a	n/a	n/a	n/a	n/a	n/a	n/a	n/a	n/a	n/a	n/a	fixation
263241.35336754052	2750.0	n/a	736	71	2750	27.6466324596	stim	stop-signal	701	1840097	0.0-27.10-1.10	beast_fmri_test	329	1837795,/,1838476,/,1839155,/,1839835,/	t,t,t,t	<img class = center src='/static/experiments/beast_fmri_test/images/D.png'></img>	89,71	2750.0	test	<img class = center src='/static/experiments/beast_fmri_test/images/redD.png'></img>	go	2000.0	1.0	10.0	go	non-target	D	89,Middle Finger	71,Index Finger	600.0	750.0	2150.0	2000.0	1.0	n/a	750.0	1.0	go_stim
265991.35336754052	27.6466324596	n/a	736	71	2750	27.6466324596	stim	stop-signal	701	1840097	0.0-27.10-1.10	beast_fmri_test	329	1837795,/,1838476,/,1839155,/,1839835,/	t,t,t,t	<img class = center src='/static/experiments/beast_fmri_test/images/D.png'></img>	89,71	2750.0	test	<img class = center src='/static/experiments/beast_fmri_test/images/redD.png'></img>	go	2000.0	1.0	10.0	go	non-target	D	89,Middle Finger	71,Index Finger	600.0	750.0	2150.0	2000.0	1.0	n/a	750.0	1.0	ITI
266621	500.0	n/a	-1	-1	500	0.0	fixation	poldrack-single-stim	702	1840699	0.0-27.11-0.11	beast_fmri_test	329	1840515,/	t	<div class = centerbox2><div class = fixation>+</div></div>	none	500.0	test	n/a	n/a	n/a	n/a	n/a	n/a	n/a	n/a	n/a	n/a	n/a	n/a	n/a	n/a	n/a	n/a	n/a	n/a	fixation
265052.51372409775	2750.0	n/a	1562	71	2750	1569.4862759	stim	stop-signal	703	1843450	0.0-27.11-1.11	beast_fmri_test	329	1841193,/,1841873,/,1842553,/,1843232,/,1843913,/,1844591,/	t,t,t,t,t,t	<img class = center src='/static/experiments/beast_fmri_test/images/D.png'></img>	89,71	2750.0	test	<img class = center src='/static/experiments/beast_fmri_test/images/redD.png'></img>	go	2150.0	1.0	11.0	go	target	D	89,Middle Finger	71,Index Finger	600.0	750.0	2150.0	2000.0	0.0	n/a	600.0	0.0	go_stim
267802.51372409775	1569.4862759	n/a	1562	71	2750	1569.4862759	stim	stop-signal	703	1843450	0.0-27.11-1.11	beast_fmri_test	329	1841193,/,1841873,/,1842553,/,1843232,/,1843913,/,1844591,/	t,t,t,t,t,t	<img class = center src='/static/experiments/beast_fmri_test/images/D.png'></img>	89,71	2750.0	test	<img class = center src='/static/experiments/beast_fmri_test/images/redD.png'></img>	go	2150.0	1.0	11.0	go	target	D	89,Middle Finger	71,Index Finger	600.0	750.0	2150.0	2000.0	0.0	n/a	600.0	0.0	ITI
271516	500.0	n/a	-1	-1	500	0.0	fixation	poldrack-single-stim	704	1845594	0.0-27.12-0.12	beast_fmri_test	329	1845272,/	t	<div class = centerbox2><div class = fixation>+</div></div>	none	500.0	test	n/a	n/a	n/a	n/a	n/a	n/a	n/a	n/a	n/a	n/a	n/a	n/a	n/a	n/a	n/a	n/a	n/a	n/a	fixation
266518.0	2750.0	n/a	-1	-1	2750	5000.0	stim	stop-signal	705	1848346	0.0-27.12-1.12	beast_fmri_test	329	1845950,/,1846632,/,1847311,/,1847991,/,1848670,/,1849350,/,1850029,/,1850709,/,1851389,/,1852067,/,1852749,/	t,t,t,t,t,t,t,t,t,t,t	<img class = center src='/static/experiments/beast_fmri_test/images/B.png'></img>	89,71	2750.0	test	<img class = center src='/static/experiments/beast_fmri_test/images/redB.png'></img>	go	2000.0	1.0	12.0	go	non-target	B	89,Middle Finger	71,Index Finger	600.0	750.0	2150.0	2000.0	0.0	n/a	750.0	0.0	go_stim
269268.0	5000.0	n/a	-1	-1	2750	5000.0	stim	stop-signal	705	1848346	0.0-27.12-1.12	beast_fmri_test	329	1845950,/,1846632,/,1847311,/,1847991,/,1848670,/,1849350,/,1850029,/,1850709,/,1851389,/,1852067,/,1852749,/	t,t,t,t,t,t,t,t,t,t,t	<img class = center src='/static/experiments/beast_fmri_test/images/B.png'></img>	89,71	2750.0	test	<img class = center src='/static/experiments/beast_fmri_test/images/redB.png'></img>	go	2000.0	1.0	12.0	go	non-target	B	89,Middle Finger	71,Index Finger	600.0	750.0	2150.0	2000.0	0.0	n/a	750.0	0.0	ITI
279843	500.0	n/a	-1	-1	500	0.0	fixation	poldrack-single-stim	706	1853921	0.0-27.13-0.13	beast_fmri_test	329	1853428,/	t	<div class = centerbox2><div class = fixation>+</div></div>	none	500.0	test	n/a	n/a	n/a	n/a	n/a	n/a	n/a	n/a	n/a	n/a	n/a	n/a	n/a	n/a	n/a	n/a	n/a	n/a	fixation
277058.37507318286	2750.0	n/a	757	71	2750	2785.62492682	stim	stop-signal	707	1856672	0.0-27.13-1.13	beast_fmri_test	329	1854108,/,1854787,/,1855467,/,1856146,/,1856828,/,1857507,/,1858187,/,1858866,/	t,t,t,t,t,t,t,t	<img class = center src='/static/experiments/beast_fmri_test/images/D.png'></img>	89,71	2750.0	test	<img class = center src='/static/experiments/beast_fmri_test/images/redD.png'></img>	go	2000.0	1.0	13.0	go	non-target	D	89,Middle Finger	71,Index Finger	600.0	750.0	2150.0	2000.0	1.0	n/a	750.0	1.0	go_stim
279808.37507318286	2785.62492682	n/a	757	71	2750	2785.62492682	stim	stop-signal	707	1856672	0.0-27.13-1.13	beast_fmri_test	329	1854108,/,1854787,/,1855467,/,1856146,/,1856828,/,1857507,/,1858187,/,1858866,/	t,t,t,t,t,t,t,t	<img class = center src='/static/experiments/beast_fmri_test/images/D.png'></img>	89,71	2750.0	test	<img class = center src='/static/experiments/beast_fmri_test/images/redD.png'></img>	go	2000.0	1.0	13.0	go	non-target	D	89,Middle Finger	71,Index Finger	600.0	750.0	2150.0	2000.0	1.0	n/a	750.0	1.0	ITI
285959	500.0	n/a	-1	-1	500	0.0	fixation	poldrack-single-stim	708	1860037	0.0-27.14-0.14	beast_fmri_test	329	1859545,/	t	<div class = centerbox2><div class = fixation>+</div></div>	none	500.0	test	n/a	n/a	n/a	n/a	n/a	n/a	n/a	n/a	n/a	n/a	n/a	n/a	n/a	n/a	n/a	n/a	n/a	n/a	fixation
283083.84785227384	600.0	n/a	538	89	2750	2878.15214773	stim	stop-signal	709	1862790	0.0-27.14-1.14	beast_fmri_test	329	1860226,/,1860905,/,1861585,/,1862263,/,1862944,/,1863624,/,1864304,/,1864982,/,1865663,/	t,t,t,t,t,t,t,t,t	<img class = center src='/static/experiments/beast_fmri_test/images/D.png'></img>	89,71	2750.0	test	<img class = center src='/static/experiments/beast_fmri_test/images/redD.png'></img>	stop	2150.0	1.0	14.0	stop	target	D	89,Middle Finger	71,Index Finger	600.0	750.0	2150.0	2000.0	0.0	0.0	600.0	n/a	go_stim
285233.84785227384	2150.0	n/a	538	89	2750	2878.15214773	stim	stop-signal	709	1862790	0.0-27.14-1.14	beast_fmri_test	329	1860226,/,1860905,/,1861585,/,1862263,/,1862944,/,1863624,/,1864304,/,1864982,/,1865663,/	t,t,t,t,t,t,t,t,t	<img class = center src='/static/experiments/beast_fmri_test/images/D.png'></img>	89,71	2750.0	test	<img class = center src='/static/experiments/beast_fmri_test/images/redD.png'></img>	stop	2150.0	1.0	14.0	stop	target	D	89,Middle Finger	71,Index Finger	600.0	750.0	2150.0	2000.0	0.0	0.0	600.0	n/a	stop_stim
285833.84785227384	2878.15214773	n/a	538	89	2750	2878.15214773	stim	stop-signal	709	1862790	0.0-27.14-1.14	beast_fmri_test	329	1860226,/,1860905,/,1861585,/,1862263,/,1862944,/,1863624,/,1864304,/,1864982,/,1865663,/	t,t,t,t,t,t,t,t,t	<img class = center src='/static/experiments/beast_fmri_test/images/D.png'></img>	89,71	2750.0	test	<img class = center src='/static/experiments/beast_fmri_test/images/redD.png'></img>	stop	2150.0	1.0	14.0	stop	target	D	89,Middle Finger	71,Index Finger	600.0	750.0	2150.0	2000.0	0.0	0.0	600.0	n/a	ITI
292164	500.0	n/a	-1	-1	500	0.0	fixation	poldrack-single-stim	710	1866242	0.0-27.15-0.15	beast_fmri_test	329	n/a	n/a	<div class = centerbox2><div class = fixation>+</div></div>	none	500.0	test	n/a	n/a	n/a	n/a	n/a	n/a	n/a	n/a	n/a	n/a	n/a	n/a	n/a	n/a	n/a	n/a	n/a	n/a	fixation
291965.71801046492	2750.0	n/a	777	89	2750	199.281989535	stim	stop-signal	711	1868993	0.0-27.15-1.15	beast_fmri_test	329	1866343,/,1867022,/,1867702,/,1868382,/,1869060,/	t,t,t,t,t	<img class = center src='/static/experiments/beast_fmri_test/images/D.png'></img>	89,71	2750.0	test	<img class = center src='/static/experiments/beast_fmri_test/images/redD.png'></img>	go	2200.0	1.0	15.0	go	target	D	89,Middle Finger	71,Index Finger	550.0	750.0	2200.0	2000.0	1.0	n/a	550.0	1.0	go_stim
294715.71801046492	199.281989535	n/a	777	89	2750	199.281989535	stim	stop-signal	711	1868993	0.0-27.15-1.15	beast_fmri_test	329	1866343,/,1867022,/,1867702,/,1868382,/,1869060,/	t,t,t,t,t	<img class = center src='/static/experiments/beast_fmri_test/images/D.png'></img>	89,71	2750.0	test	<img class = center src='/static/experiments/beast_fmri_test/images/redD.png'></img>	go	2200.0	1.0	15.0	go	target	D	89,Middle Finger	71,Index Finger	550.0	750.0	2200.0	2000.0	1.0	n/a	550.0	1.0	ITI
295690	500.0	n/a	-1	-1	500	0.0	fixation	poldrack-single-stim	712	1869768	0.0-27.16-0.16	beast_fmri_test	329	1869742,/	t	<div class = centerbox2><div class = fixation>+</div></div>	none	500.0	test	n/a	n/a	n/a	n/a	n/a	n/a	n/a	n/a	n/a	n/a	n/a	n/a	n/a	n/a	n/a	n/a	n/a	n/a	fixation
294086.392129916	2750.0	n/a	737	71	2750	1604.60787008	stim	stop-signal	713	1872519	0.0-27.16-1.16	beast_fmri_test	329	1870421,/,1871101,/,1871781,/,1872460,/,1873140,/,1873818,/	t,t,t,t,t,t	<img class = center src='/static/experiments/beast_fmri_test/images/B.png'></img>	89,71	2750.0	test	<img class = center src='/static/experiments/beast_fmri_test/images/redB.png'></img>	go	2000.0	1.0	16.0	go	non-target	B	89,Middle Finger	71,Index Finger	550.0	750.0	2200.0	2000.0	1.0	n/a	750.0	1.0	go_stim
296836.392129916	1604.60787008	n/a	737	71	2750	1604.60787008	stim	stop-signal	713	1872519	0.0-27.16-1.16	beast_fmri_test	329	1870421,/,1871101,/,1871781,/,1872460,/,1873140,/,1873818,/	t,t,t,t,t,t	<img class = center src='/static/experiments/beast_fmri_test/images/B.png'></img>	89,71	2750.0	test	<img class = center src='/static/experiments/beast_fmri_test/images/redB.png'></img>	go	2000.0	1.0	16.0	go	non-target	B	89,Middle Finger	71,Index Finger	550.0	750.0	2200.0	2000.0	1.0	n/a	750.0	1.0	ITI
300625	500.0	n/a	-1	-1	500	0.0	fixation	poldrack-single-stim	714	1874703	0.0-27.17-0.17	beast_fmri_test	329	1874500,/	t	<div class = centerbox2><div class = fixation>+</div></div>	none	500.0	test	n/a	n/a	n/a	n/a	n/a	n/a	n/a	n/a	n/a	n/a	n/a	n/a	n/a	n/a	n/a	n/a	n/a	n/a	fixation
300277.9851927429	2750.0	n/a	1053	71	2750	349.014807257	stim	stop-signal	715	1877455	0.0-27.17-1.17	beast_fmri_test	329	1875177,/,1875859,/,1876537,/,1877218,/	t,t,t,t	<img class = center src='/static/experiments/beast_fmri_test/images/T.png'></img>	89,71	2750.0	test	<img class = center src='/static/experiments/beast_fmri_test/images/redT.png'></img>	go	2000.0	1.0	17.0	go	non-target	T	89,Middle Finger	71,Index Finger	550.0	750.0	2200.0	2000.0	1.0	n/a	750.0	1.0	go_stim
303027.9851927429	349.014807257	n/a	1053	71	2750	349.014807257	stim	stop-signal	715	1877455	0.0-27.17-1.17	beast_fmri_test	329	1875177,/,1875859,/,1876537,/,1877218,/	t,t,t,t	<img class = center src='/static/experiments/beast_fmri_test/images/T.png'></img>	89,71	2750.0	test	<img class = center src='/static/experiments/beast_fmri_test/images/redT.png'></img>	go	2000.0	1.0	17.0	go	non-target	T	89,Middle Finger	71,Index Finger	550.0	750.0	2200.0	2000.0	1.0	n/a	750.0	1.0	ITI
304306	500.0	n/a	-1	-1	500	0.0	fixation	poldrack-single-stim	716	1878384	0.0-27.18-0.18	beast_fmri_test	329	1877897,/	t	<div class = centerbox2><div class = fixation>+</div></div>	none	500.0	test	n/a	n/a	n/a	n/a	n/a	n/a	n/a	n/a	n/a	n/a	n/a	n/a	n/a	n/a	n/a	n/a	n/a	n/a	fixation
302402.05409375275	2750.0	n/a	830	71	2750	1904.94590625	stim	stop-signal	717	1881135	0.0-27.18-1.18	beast_fmri_test	329	1878576,/,1879257,/,1879935,/,1880615,/,1881296,/,1881975,/,1882654,/	t,t,t,t,t,t,t	<img class = center src='/static/experiments/beast_fmri_test/images/P.png'></img>	89,71	2750.0	test	<img class = center src='/static/experiments/beast_fmri_test/images/redP.png'></img>	go	2000.0	1.0	18.0	go	non-target	P	89,Middle Finger	71,Index Finger	550.0	750.0	2200.0	2000.0	1.0	n/a	750.0	1.0	go_stim
305152.05409375275	1904.94590625	n/a	830	71	2750	1904.94590625	stim	stop-signal	717	1881135	0.0-27.18-1.18	beast_fmri_test	329	1878576,/,1879257,/,1879935,/,1880615,/,1881296,/,1881975,/,1882654,/	t,t,t,t,t,t,t	<img class = center src='/static/experiments/beast_fmri_test/images/P.png'></img>	89,71	2750.0	test	<img class = center src='/static/experiments/beast_fmri_test/images/redP.png'></img>	go	2000.0	1.0	18.0	go	non-target	P	89,Middle Finger	71,Index Finger	550.0	750.0	2200.0	2000.0	1.0	n/a	750.0	1.0	ITI
309539	500.0	n/a	-1	-1	500	0.0	fixation	poldrack-single-stim	718	1883617	0.0-27.19-0.19	beast_fmri_test	329	1883335,/	t	<div class = centerbox2><div class = fixation>+</div></div>	none	500.0	test	n/a	n/a	n/a	n/a	n/a	n/a	n/a	n/a	n/a	n/a	n/a	n/a	n/a	n/a	n/a	n/a	n/a	n/a	fixation
308738.85993623524	750.0	n/a	844	71	2750	801.140063765	stim	stop-signal	719	1886368	0.0-27.19-1.19	beast_fmri_test	329	1884015,/,1884694,/,1885374,/,1886054,/,1886733,/	t,t,t,t,t	<img class = center src='/static/experiments/beast_fmri_test/images/D.png'></img>	89,71	2750.0	test	<img class = center src='/static/experiments/beast_fmri_test/images/redD.png'></img>	stop	2000.0	1.0	19.0	stop	non-target	D	89,Middle Finger	71,Index Finger	550.0	750.0	2200.0	2000.0	0.0	0.0	750.0	n/a	go_stim
310738.85993623524	2000.0	n/a	844	71	2750	801.140063765	stim	stop-signal	719	1886368	0.0-27.19-1.19	beast_fmri_test	329	1884015,/,1884694,/,1885374,/,1886054,/,1886733,/	t,t,t,t,t	<img class = center src='/static/experiments/beast_fmri_test/images/D.png'></img>	89,71	2750.0	test	<img class = center src='/static/experiments/beast_fmri_test/images/redD.png'></img>	stop	2000.0	1.0	19.0	stop	non-target	D	89,Middle Finger	71,Index Finger	550.0	750.0	2200.0	2000.0	0.0	0.0	750.0	n/a	stop_stim
311488.85993623524	801.140063765	n/a	844	71	2750	801.140063765	stim	stop-signal	719	1886368	0.0-27.19-1.19	beast_fmri_test	329	1884015,/,1884694,/,1885374,/,1886054,/,1886733,/	t,t,t,t,t	<img class = center src='/static/experiments/beast_fmri_test/images/D.png'></img>	89,71	2750.0	test	<img class = center src='/static/experiments/beast_fmri_test/images/redD.png'></img>	stop	2000.0	1.0	19.0	stop	non-target	D	89,Middle Finger	71,Index Finger	550.0	750.0	2200.0	2000.0	0.0	0.0	750.0	n/a	ITI
313670	500.0	n/a	-1	-1	500	0.0	fixation	poldrack-single-stim	720	1887748	0.0-27.20-0.20	beast_fmri_test	329	1887414,/	t	<div class = centerbox2><div class = fixation>+</div></div>	none	500.0	test	n/a	n/a	n/a	n/a	n/a	n/a	n/a	n/a	n/a	n/a	n/a	n/a	n/a	n/a	n/a	n/a	n/a	n/a	fixation
311450.03302421747	2750.0	n/a	717	89	2750	2221.96697578	stim	stop-signal	721	1890500	0.0-27.20-1.20	beast_fmri_test	329	1888092,/,1888773,/,1889451,/,1890131,/,1890812,/,1891492,/,1892171,/	t,t,t,t,t,t,t	<img class = center src='/static/experiments/beast_fmri_test/images/D.png'></img>	89,71	2750.0	test	<img class = center src='/static/experiments/beast_fmri_test/images/redD.png'></img>	go	2200.0	1.0	20.0	go	target	D	89,Middle Finger	71,Index Finger	550.0	700.0	2200.0	2000.0	1.0	n/a	550.0	1.0	go_stim
314200.03302421747	2221.96697578	n/a	717	89	2750	2221.96697578	stim	stop-signal	721	1890500	0.0-27.20-1.20	beast_fmri_test	329	1888092,/,1888773,/,1889451,/,1890131,/,1890812,/,1891492,/,1892171,/	t,t,t,t,t,t,t	<img class = center src='/static/experiments/beast_fmri_test/images/D.png'></img>	89,71	2750.0	test	<img class = center src='/static/experiments/beast_fmri_test/images/redD.png'></img>	go	2200.0	1.0	20.0	go	target	D	89,Middle Finger	71,Index Finger	550.0	700.0	2200.0	2000.0	1.0	n/a	550.0	1.0	ITI
319217	500.0	n/a	-1	-1	500	0.0	fixation	poldrack-single-stim	722	1893295	0.0-27.21-0.21	beast_fmri_test	329	1892851,/	t	<div class = centerbox2><div class = fixation>+</div></div>	none	500.0	test	n/a	n/a	n/a	n/a	n/a	n/a	n/a	n/a	n/a	n/a	n/a	n/a	n/a	n/a	n/a	n/a	n/a	n/a	fixation
318618.32249265769	2750.0	n/a	985	71	2750	600.677507342	stim	stop-signal	723	1896047	0.0-27.21-1.21	beast_fmri_test	329	1893531,/,1894209,/,1894890,/,1895570,/,1896249,/	t,t,t,t,t	<img class = center src='/static/experiments/beast_fmri_test/images/T.png'></img>	89,71	2750.0	test	<img class = center src='/static/experiments/beast_fmri_test/images/redT.png'></img>	go	2050.0	1.0	21.0	go	non-target	T	89,Middle Finger	71,Index Finger	550.0	700.0	2200.0	2050.0	1.0	n/a	700.0	1.0	go_stim
321368.32249265769	600.677507342	n/a	985	71	2750	600.677507342	stim	stop-signal	723	1896047	0.0-27.21-1.21	beast_fmri_test	329	1893531,/,1894209,/,1894890,/,1895570,/,1896249,/	t,t,t,t,t	<img class = center src='/static/experiments/beast_fmri_test/images/T.png'></img>	89,71	2750.0	test	<img class = center src='/static/experiments/beast_fmri_test/images/redT.png'></img>	go	2050.0	1.0	21.0	go	non-target	T	89,Middle Finger	71,Index Finger	550.0	700.0	2200.0	2050.0	1.0	n/a	700.0	1.0	ITI
323140	500.0	n/a	-1	-1	500	0.0	fixation	poldrack-single-stim	724	1897218	0.0-27.22-0.22	beast_fmri_test	329	1896928,/	t	<div class = centerbox2><div class = fixation>+</div></div>	none	500.0	test	n/a	n/a	n/a	n/a	n/a	n/a	n/a	n/a	n/a	n/a	n/a	n/a	n/a	n/a	n/a	n/a	n/a	n/a	fixation
320861.47395501821	700.0	n/a	-1	-1	2750	2279.52604498	stim	stop-signal	725	1899969	0.0-27.22-1.22	beast_fmri_test	329	1897609,/,1898287,/,1898968,/,1899647,/,1900328,/,1901006,/,1901687,/	t,t,t,t,t,t,t	<img class = center src='/static/experiments/beast_fmri_test/images/D.png'></img>	89,71	2750.0	test	<img class = center src='/static/experiments/beast_fmri_test/images/redD.png'></img>	stop	2050.0	1.0	22.0	stop	non-target	D	89,Middle Finger	71,Index Finger	550.0	700.0	2200.0	2050.0	0.0	1.0	700.0	n/a	go_stim
322911.47395501821	2050.0	n/a	-1	-1	2750	2279.52604498	stim	stop-signal	725	1899969	0.0-27.22-1.22	beast_fmri_test	329	1897609,/,1898287,/,1898968,/,1899647,/,1900328,/,1901006,/,1901687,/	t,t,t,t,t,t,t	<img class = center src='/static/experiments/beast_fmri_test/images/D.png'></img>	89,71	2750.0	test	<img class = center src='/static/experiments/beast_fmri_test/images/redD.png'></img>	stop	2050.0	1.0	22.0	stop	non-target	D	89,Middle Finger	71,Index Finger	550.0	700.0	2200.0	2050.0	0.0	1.0	700.0	n/a	stop_stim
323611.47395501821	2279.52604498	n/a	-1	-1	2750	2279.52604498	stim	stop-signal	725	1899969	0.0-27.22-1.22	beast_fmri_test	329	1897609,/,1898287,/,1898968,/,1899647,/,1900328,/,1901006,/,1901687,/	t,t,t,t,t,t,t	<img class = center src='/static/experiments/beast_fmri_test/images/D.png'></img>	89,71	2750.0	test	<img class = center src='/static/experiments/beast_fmri_test/images/redD.png'></img>	stop	2050.0	1.0	22.0	stop	non-target	D	89,Middle Finger	71,Index Finger	550.0	700.0	2200.0	2050.0	0.0	1.0	700.0	n/a	ITI
328754	500.0	n/a	-1	-1	500	0.0	fixation	poldrack-single-stim	726	1902832	0.0-27.23-0.23	beast_fmri_test	329	1902365,/	t	<div class = centerbox2><div class = fixation>+</div></div>	none	500.0	test	n/a	n/a	n/a	n/a	n/a	n/a	n/a	n/a	n/a	n/a	n/a	n/a	n/a	n/a	n/a	n/a	n/a	n/a	fixation
326797.12844364648	750.0	n/a	1023	71	2750	1958.87155635	stim	stop-signal	727	1905584	0.0-27.23-1.23	beast_fmri_test	329	1903045,/,1903726,/,1904405,/,1905085,/,1905764,/,1906444,/,1907123,/	t,t,t,t,t,t,t	<img class = center src='/static/experiments/beast_fmri_test/images/B.png'></img>	89,71	2750.0	test	<img class = center src='/static/experiments/beast_fmri_test/images/redB.png'></img>	stop	2000.0	1.0	23.0	stop	non-target	B	89,Middle Finger	71,Index Finger	550.0	750.0	2200.0	2000.0	0.0	0.0	750.0	n/a	go_stim
328797.12844364648	2000.0	n/a	1023	71	2750	1958.87155635	stim	stop-signal	727	1905584	0.0-27.23-1.23	beast_fmri_test	329	1903045,/,1903726,/,1904405,/,1905085,/,1905764,/,1906444,/,1907123,/	t,t,t,t,t,t,t	<img class = center src='/static/experiments/beast_fmri_test/images/B.png'></img>	89,71	2750.0	test	<img class = center src='/static/experiments/beast_fmri_test/images/redB.png'></img>	stop	2000.0	1.0	23.0	stop	non-target	B	89,Middle Finger	71,Index Finger	550.0	750.0	2200.0	2000.0	0.0	0.0	750.0	n/a	stop_stim
