onset	duration	text	rt	key_press	block_duration	timing_post_trial	trial_id	trial_type	trial_index	time_elapsed	internal_node_id	exp_id	subject_id	trigger_times	triggers	stimulus	possible_responses	stim_duration	exp_stage	SS_stimulus	SS_trial_type	SS_duration	load	trial_num	stop_trial_type	adaptive_trial_type	stim	yes_response_key	no_response_key	SSD_target	SSD_non_target	SSTarget	SSNonTarget	go_acc	stop_acc	SS_delay	adaptive_acc	new_trial_type
test	10880	n/a	-1	-1	10880	0.0	practice-no-stop-feedback	poldrack-single-stim	198	551856	0.0-12.0	beast_fmri_test	329	540980,/,541657,/,542338,/,543017,/,543697,/,544376,/,545057,/,545735,/,546417,/,547095,/,547775,/,548455,/,549135,/,549815,/,550493,/,551173,/,551852,/	t,t,t,t,t,t,t,t,t,t,t,t,t,t,t,t,t	"<div class = ""centerbox""><p class = ""block-text"">Your delay is 3 trials.</p><p class = block-text>Please wait for the scanner to start the block</p></div>"	77	10880.0	n/a	n/a	n/a	n/a	n/a	n/a	n/a	n/a	n/a	n/a	n/a	n/a	n/a	n/a	n/a	n/a	n/a	n/a	n/a	start_functional_block
11378	500	n/a	-1	-1	500	0.0	fixation	poldrack-single-stim	199	552358	0.0-13.0-0.0	beast_fmri_test	329	n/a	n/a	<div class = centerbox2><div class = fixation>+</div></div>	none	500.0	test	n/a	n/a	n/a	n/a	n/a	n/a	n/a	n/a	n/a	n/a	n/a	n/a	n/a	n/a	n/a	n/a	n/a	n/a	fixation
11153.91069119412	2750	n/a	1262	71	2750	225.089308806	stim	stop-signal	200	555109	0.0-13.0-1.0	beast_fmri_test	329	552533,/,553212,/,553892,/,554571,/,555252,/	t,t,t,t,t	<img class = center src='/static/experiments/beast_fmri_test/images/V.png'></img>	89,71	2750.0	test	<img class = center src='/static/experiments/beast_fmri_test/images/redV.png'></img>	go	-1.0	3.0	0.0	go	temp-non-target	V	89,Middle Finger	71,Index Finger	600.0	600.0	2200.0	2150.0	0.0	n/a	n/a	n/a	go_stim
13903.91069119412	225.08930880590651	n/a	1262	71	2750	225.089308806	stim	stop-signal	200	555109	0.0-13.0-1.0	beast_fmri_test	329	552533,/,553212,/,553892,/,554571,/,555252,/	t,t,t,t,t	<img class = center src='/static/experiments/beast_fmri_test/images/V.png'></img>	89,71	2750.0	test	<img class = center src='/static/experiments/beast_fmri_test/images/redV.png'></img>	go	-1.0	3.0	0.0	go	temp-non-target	V	89,Middle Finger	71,Index Finger	600.0	600.0	2200.0	2150.0	0.0	n/a	n/a	n/a	ITI
14880	500	n/a	-1	-1	500	0.0	fixation	poldrack-single-stim	201	555860	0.0-13.1-0.1	beast_fmri_test	329	n/a	n/a	<div class = centerbox2><div class = fixation>+</div></div>	none	500.0	test	n/a	n/a	n/a	n/a	n/a	n/a	n/a	n/a	n/a	n/a	n/a	n/a	n/a	n/a	n/a	n/a	n/a	n/a	fixation
14712.228396989754	temp_go_duration	n/a	757	71	2750	169.77160301	stim	stop-signal	202	558612	0.0-13.1-1.1	beast_fmri_test	329	555930,/,556610,/,557290,/,557970,/,558650,/	t,t,t,t,t	<img class = center src='/static/experiments/beast_fmri_test/images/P.png'></img>	89,71	2750.0	test	<img class = center src='/static/experiments/beast_fmri_test/images/redP.png'></img>	stop	-1.0	3.0	1.0	stop	temp-non-target	P	89,Middle Finger	71,Index Finger	600.0	600.0	2200.0	2150.0	0.0	0.0	n/a	n/a	go_stim
temp-non-target	temp_stop_duration	n/a	757	71	2750	169.77160301	stim	stop-signal	202	558612	0.0-13.1-1.1	beast_fmri_test	329	555930,/,556610,/,557290,/,557970,/,558650,/	t,t,t,t,t	<img class = center src='/static/experiments/beast_fmri_test/images/P.png'></img>	89,71	2750.0	test	<img class = center src='/static/experiments/beast_fmri_test/images/redP.png'></img>	stop	-1.0	3.0	1.0	stop	temp-non-target	P	89,Middle Finger	71,Index Finger	600.0	600.0	2200.0	2150.0	0.0	0.0	n/a	n/a	stop_stim
17462.228396989754	169.77160301026422	n/a	757	71	2750	169.77160301	stim	stop-signal	202	558612	0.0-13.1-1.1	beast_fmri_test	329	555930,/,556610,/,557290,/,557970,/,558650,/	t,t,t,t,t	<img class = center src='/static/experiments/beast_fmri_test/images/P.png'></img>	89,71	2750.0	test	<img class = center src='/static/experiments/beast_fmri_test/images/redP.png'></img>	stop	-1.0	3.0	1.0	stop	temp-non-target	P	89,Middle Finger	71,Index Finger	600.0	600.0	2200.0	2150.0	0.0	0.0	n/a	n/a	ITI
18329	500	n/a	-1	-1	500	0.0	fixation	poldrack-single-stim	203	559309	0.0-13.2-0.2	beast_fmri_test	329	n/a	n/a	<div class = centerbox2><div class = fixation>+</div></div>	none	500.0	test	n/a	n/a	n/a	n/a	n/a	n/a	n/a	n/a	n/a	n/a	n/a	n/a	n/a	n/a	n/a	n/a	n/a	n/a	fixation
18319.422382460325	2750	n/a	897	71	2750	10.5776175396	stim	stop-signal	204	562060	0.0-13.2-1.2	beast_fmri_test	329	559330,/,560008,/,560687,/,561369,/,562047,/	t,t,t,t,t	<img class = center src='/static/experiments/beast_fmri_test/images/P.png'></img>	89,71	2750.0	test	<img class = center src='/static/experiments/beast_fmri_test/images/redP.png'></img>	go	-1.0	3.0	2.0	go	temp-non-target	P	89,Middle Finger	71,Index Finger	600.0	600.0	2200.0	2150.0	0.0	n/a	n/a	n/a	go_stim
21069.422382460325	10.577617539647694	n/a	897	71	2750	10.5776175396	stim	stop-signal	204	562060	0.0-13.2-1.2	beast_fmri_test	329	559330,/,560008,/,560687,/,561369,/,562047,/	t,t,t,t,t	<img class = center src='/static/experiments/beast_fmri_test/images/P.png'></img>	89,71	2750.0	test	<img class = center src='/static/experiments/beast_fmri_test/images/redP.png'></img>	go	-1.0	3.0	2.0	go	temp-non-target	P	89,Middle Finger	71,Index Finger	600.0	600.0	2200.0	2150.0	0.0	n/a	n/a	n/a	ITI
21613	500	n/a	-1	-1	500	0.0	fixation	poldrack-single-stim	205	562593	0.0-13.3-0.3	beast_fmri_test	329	n/a	n/a	<div class = centerbox2><div class = fixation>+</div></div>	none	500.0	test	n/a	n/a	n/a	n/a	n/a	n/a	n/a	n/a	n/a	n/a	n/a	n/a	n/a	n/a	n/a	n/a	n/a	n/a	fixation
20545.394631155068	2750	n/a	861	71	2750	1069.60536884	stim	stop-signal	206	565345	0.0-13.3-1.3	beast_fmri_test	329	562728,/,563407,/,564087,/,564766,/,565447,/,566126,/	t,t,t,t,t,t	<img class = center src='/static/experiments/beast_fmri_test/images/D.png'></img>	89,71	2750.0	test	<img class = center src='/static/experiments/beast_fmri_test/images/redD.png'></img>	go	2150.0	3.0	3.0	go	non-target	D	89,Middle Finger	71,Index Finger	600.0	600.0	2200.0	2150.0	1.0	n/a	600.0	1.0	go_stim
23295.394631155068	1069.6053688449285	n/a	861	71	2750	1069.60536884	stim	stop-signal	206	565345	0.0-13.3-1.3	beast_fmri_test	329	562728,/,563407,/,564087,/,564766,/,565447,/,566126,/	t,t,t,t,t,t	<img class = center src='/static/experiments/beast_fmri_test/images/D.png'></img>	89,71	2750.0	test	<img class = center src='/static/experiments/beast_fmri_test/images/redD.png'></img>	go	2150.0	3.0	3.0	go	non-target	D	89,Middle Finger	71,Index Finger	600.0	600.0	2200.0	2150.0	1.0	n/a	600.0	1.0	ITI
25958	500	n/a	-1	-1	500	0.0	fixation	poldrack-single-stim	207	566938	0.0-13.4-0.4	beast_fmri_test	329	566807,/	t	<div class = centerbox2><div class = fixation>+</div></div>	none	500.0	test	n/a	n/a	n/a	n/a	n/a	n/a	n/a	n/a	n/a	n/a	n/a	n/a	n/a	n/a	n/a	n/a	n/a	n/a	fixation
25893.427429431118	2750	n/a	813	71	2750	65.5725705689	stim	stop-signal	208	569689	0.0-13.4-1.4	beast_fmri_test	329	567487,/,568166,/,568846,/,569524,/	t,t,t,t	<img class = center src='/static/experiments/beast_fmri_test/images/V.png'></img>	89,71	2750.0	test	<img class = center src='/static/experiments/beast_fmri_test/images/redV.png'></img>	go	2150.0	3.0	4.0	go	non-target	V	89,Middle Finger	71,Index Finger	600.0	600.0	2200.0	2150.0	1.0	n/a	600.0	1.0	go_stim
28643.427429431118	65.57257056888993	n/a	813	71	2750	65.5725705689	stim	stop-signal	208	569689	0.0-13.4-1.4	beast_fmri_test	329	567487,/,568166,/,568846,/,569524,/	t,t,t,t	<img class = center src='/static/experiments/beast_fmri_test/images/V.png'></img>	89,71	2750.0	test	<img class = center src='/static/experiments/beast_fmri_test/images/redV.png'></img>	go	2150.0	3.0	4.0	go	non-target	V	89,Middle Finger	71,Index Finger	600.0	600.0	2200.0	2150.0	1.0	n/a	600.0	1.0	ITI
29302	500	n/a	-1	-1	500	0.0	fixation	poldrack-single-stim	209	570282	0.0-13.5-0.5	beast_fmri_test	329	570204,/	t	<div class = centerbox2><div class = fixation>+</div></div>	none	500.0	test	n/a	n/a	n/a	n/a	n/a	n/a	n/a	n/a	n/a	n/a	n/a	n/a	n/a	n/a	n/a	n/a	n/a	n/a	fixation
29045.047509568161	2750	n/a	984	71	2750	256.952490432	stim	stop-signal	210	573032	0.0-13.5-1.5	beast_fmri_test	329	570884,/,571565,/,572244,/,572924,/	t,t,t,t	<img class = center src='/static/experiments/beast_fmri_test/images/P.png'></img>	89,71	2750.0	test	<img class = center src='/static/experiments/beast_fmri_test/images/redP.png'></img>	go	2150.0	3.0	5.0	go	target	P	89,Middle Finger	71,Index Finger	600.0	600.0	2150.0	2150.0	0.0	n/a	600.0	0.0	go_stim
31795.047509568161	256.95249043187783	n/a	984	71	2750	256.952490432	stim	stop-signal	210	573032	0.0-13.5-1.5	beast_fmri_test	329	570884,/,571565,/,572244,/,572924,/	t,t,t,t	<img class = center src='/static/experiments/beast_fmri_test/images/P.png'></img>	89,71	2750.0	test	<img class = center src='/static/experiments/beast_fmri_test/images/redP.png'></img>	go	2150.0	3.0	5.0	go	target	P	89,Middle Finger	71,Index Finger	600.0	600.0	2150.0	2150.0	0.0	n/a	600.0	0.0	ITI
32836	500	n/a	-1	-1	500	0.0	fixation	poldrack-single-stim	211	573816	0.0-13.6-0.6	beast_fmri_test	329	573602,/	t	<div class = centerbox2><div class = fixation>+</div></div>	none	500.0	test	n/a	n/a	n/a	n/a	n/a	n/a	n/a	n/a	n/a	n/a	n/a	n/a	n/a	n/a	n/a	n/a	n/a	n/a	fixation
30692.201786113903	2750	n/a	1302	89	2750	2145.79821389	stim	stop-signal	212	576568	0.0-13.6-1.6	beast_fmri_test	329	574284,/,574962,/,575642,/,576321,/,577001,/,577681,/,578361,/	t,t,t,t,t,t,t	<img class = center src='/static/experiments/beast_fmri_test/images/V.png'></img>	89,71	2750.0	test	<img class = center src='/static/experiments/beast_fmri_test/images/redV.png'></img>	go	2150.0	3.0	6.0	go	non-target	V	89,Middle Finger	71,Index Finger	600.0	600.0	2150.0	2150.0	0.0	n/a	600.0	0.0	go_stim
33442.201786113903	2145.7982138860598	n/a	1302	89	2750	2145.79821389	stim	stop-signal	212	576568	0.0-13.6-1.6	beast_fmri_test	329	574284,/,574962,/,575642,/,576321,/,577001,/,577681,/,578361,/	t,t,t,t,t,t,t	<img class = center src='/static/experiments/beast_fmri_test/images/V.png'></img>	89,71	2750.0	test	<img class = center src='/static/experiments/beast_fmri_test/images/redV.png'></img>	go	2150.0	3.0	6.0	go	non-target	V	89,Middle Finger	71,Index Finger	600.0	600.0	2150.0	2150.0	0.0	n/a	600.0	0.0	ITI
38259	500	n/a	-1	-1	500	0.0	fixation	poldrack-single-stim	213	579239	0.0-13.7-0.7	beast_fmri_test	329	579041,/	t	<div class = centerbox2><div class = fixation>+</div></div>	none	500.0	test	n/a	n/a	n/a	n/a	n/a	n/a	n/a	n/a	n/a	n/a	n/a	n/a	n/a	n/a	n/a	n/a	n/a	n/a	fixation
36146.720191029715	2750	n/a	657	71	2750	2113.27980897	stim	stop-signal	214	581990	0.0-13.7-1.7	beast_fmri_test	329	579721,/,580400,/,581080,/,581759,/,582438,/,583119,/,583797,/	t,t,t,t,t,t,t	<img class = center src='/static/experiments/beast_fmri_test/images/B.png'></img>	89,71	2750.0	test	<img class = center src='/static/experiments/beast_fmri_test/images/redB.png'></img>	go	2150.0	3.0	7.0	go	non-target	B	89,Middle Finger	71,Index Finger	600.0	600.0	2150.0	2150.0	1.0	n/a	600.0	1.0	go_stim
38896.720191029715	2113.279808970301	n/a	657	71	2750	2113.27980897	stim	stop-signal	214	581990	0.0-13.7-1.7	beast_fmri_test	329	579721,/,580400,/,581080,/,581759,/,582438,/,583119,/,583797,/	t,t,t,t,t,t,t	<img class = center src='/static/experiments/beast_fmri_test/images/B.png'></img>	89,71	2750.0	test	<img class = center src='/static/experiments/beast_fmri_test/images/redB.png'></img>	go	2150.0	3.0	7.0	go	non-target	B	89,Middle Finger	71,Index Finger	600.0	600.0	2150.0	2150.0	1.0	n/a	600.0	1.0	ITI
43652	500	n/a	-1	-1	500	0.0	fixation	poldrack-single-stim	215	584632	0.0-13.8-0.8	beast_fmri_test	329	584479,/	t	<div class = centerbox2><div class = fixation>+</div></div>	none	500.0	test	n/a	n/a	n/a	n/a	n/a	n/a	n/a	n/a	n/a	n/a	n/a	n/a	n/a	n/a	n/a	n/a	n/a	n/a	fixation
42904.880162733141	600.0	n/a	798	71	2750	749.119837267	stim	stop-signal	216	587384	0.0-13.8-1.8	beast_fmri_test	329	585157,/,585837,/,586517,/,587197,/,587876,/	t,t,t,t,t	<img class = center src='/static/experiments/beast_fmri_test/images/T.png'></img>	89,71	2750.0	test	<img class = center src='/static/experiments/beast_fmri_test/images/redT.png'></img>	stop	2150.0	3.0	8.0	stop	non-target	T	89,Middle Finger	71,Index Finger	600.0	600.0	2150.0	2150.0	0.0	0.0	600.0	n/a	go_stim
45054.880162733141	2150.0	n/a	798	71	2750	749.119837267	stim	stop-signal	216	587384	0.0-13.8-1.8	beast_fmri_test	329	585157,/,585837,/,586517,/,587197,/,587876,/	t,t,t,t,t	<img class = center src='/static/experiments/beast_fmri_test/images/T.png'></img>	89,71	2750.0	test	<img class = center src='/static/experiments/beast_fmri_test/images/redT.png'></img>	stop	2150.0	3.0	8.0	stop	non-target	T	89,Middle Finger	71,Index Finger	600.0	600.0	2150.0	2150.0	0.0	0.0	600.0	n/a	stop_stim
45654.880162733141	749.11983726690448	n/a	798	71	2750	749.119837267	stim	stop-signal	216	587384	0.0-13.8-1.8	beast_fmri_test	329	585157,/,585837,/,586517,/,587197,/,587876,/	t,t,t,t,t	<img class = center src='/static/experiments/beast_fmri_test/images/T.png'></img>	89,71	2750.0	test	<img class = center src='/static/experiments/beast_fmri_test/images/redT.png'></img>	stop	2150.0	3.0	8.0	stop	non-target	T	89,Middle Finger	71,Index Finger	600.0	600.0	2150.0	2150.0	0.0	0.0	600.0	n/a	ITI
47677	500	n/a	-1	-1	500	0.0	fixation	poldrack-single-stim	217	588657	0.0-13.9-0.9	beast_fmri_test	329	588556,/	t	<div class = centerbox2><div class = fixation>+</div></div>	none	500.0	test	n/a	n/a	n/a	n/a	n/a	n/a	n/a	n/a	n/a	n/a	n/a	n/a	n/a	n/a	n/a	n/a	n/a	n/a	fixation
46720.076037551276	2750	n/a	1165	71	2750	957.923962449	stim	stop-signal	218	591408	0.0-13.9-1.9	beast_fmri_test	329	589236,/,589915,/,590595,/,591274,/,591954,/	t,t,t,t,t	<img class = center src='/static/experiments/beast_fmri_test/images/V.png'></img>	89,71	2750.0	test	<img class = center src='/static/experiments/beast_fmri_test/images/redV.png'></img>	go	2150.0	3.0	9.0	go	target	V	89,Middle Finger	71,Index Finger	600.0	550.0	2150.0	2150.0	0.0	n/a	600.0	0.0	go_stim
49470.076037551276	957.92396244878012	n/a	1165	71	2750	957.923962449	stim	stop-signal	218	591408	0.0-13.9-1.9	beast_fmri_test	329	589236,/,589915,/,590595,/,591274,/,591954,/	t,t,t,t,t	<img class = center src='/static/experiments/beast_fmri_test/images/V.png'></img>	89,71	2750.0	test	<img class = center src='/static/experiments/beast_fmri_test/images/redV.png'></img>	go	2150.0	3.0	9.0	go	target	V	89,Middle Finger	71,Index Finger	600.0	550.0	2150.0	2150.0	0.0	n/a	600.0	0.0	ITI
51910	500	n/a	-1	-1	500	0.0	fixation	poldrack-single-stim	219	592890	0.0-13.10-0.10	beast_fmri_test	329	592634,/	t	<div class = centerbox2><div class = fixation>+</div></div>	none	500.0	test	n/a	n/a	n/a	n/a	n/a	n/a	n/a	n/a	n/a	n/a	n/a	n/a	n/a	n/a	n/a	n/a	n/a	n/a	fixation
51828.774431725033	600.0	n/a	781	71	2750	82.2255682749	stim	stop-signal	220	595641	0.0-13.10-1.10	beast_fmri_test	329	593313,/,593994,/,594672,/,595353,/	t,t,t,t	<img class = center src='/static/experiments/beast_fmri_test/images/B.png'></img>	89,71	2750.0	test	<img class = center src='/static/experiments/beast_fmri_test/images/redB.png'></img>	stop	2150.0	3.0	10.0	stop	target	B	89,Middle Finger	71,Index Finger	600.0	550.0	2150.0	2150.0	0.0	0.0	600.0	n/a	go_stim
53978.774431725033	2150.0	n/a	781	71	2750	82.2255682749	stim	stop-signal	220	595641	0.0-13.10-1.10	beast_fmri_test	329	593313,/,593994,/,594672,/,595353,/	t,t,t,t	<img class = center src='/static/experiments/beast_fmri_test/images/B.png'></img>	89,71	2750.0	test	<img class = center src='/static/experiments/beast_fmri_test/images/redB.png'></img>	stop	2150.0	3.0	10.0	stop	target	B	89,Middle Finger	71,Index Finger	600.0	550.0	2150.0	2150.0	0.0	0.0	600.0	n/a	stop_stim
54578.774431725033	82.225568274944308	n/a	781	71	2750	82.2255682749	stim	stop-signal	220	595641	0.0-13.10-1.10	beast_fmri_test	329	593313,/,593994,/,594672,/,595353,/	t,t,t,t	<img class = center src='/static/experiments/beast_fmri_test/images/B.png'></img>	89,71	2750.0	test	<img class = center src='/static/experiments/beast_fmri_test/images/redB.png'></img>	stop	2150.0	3.0	10.0	stop	target	B	89,Middle Finger	71,Index Finger	600.0	550.0	2150.0	2150.0	0.0	0.0	600.0	n/a	ITI
55266	500	n/a	-1	-1	500	0.0	fixation	poldrack-single-stim	221	596246	0.0-13.11-0.11	beast_fmri_test	329	596034,/	t	<div class = centerbox2><div class = fixation>+</div></div>	none	500.0	test	n/a	n/a	n/a	n/a	n/a	n/a	n/a	n/a	n/a	n/a	n/a	n/a	n/a	n/a	n/a	n/a	n/a	n/a	fixation
54595.533524302067	2750	n/a	1278	89	2750	672.466475698	stim	stop-signal	222	598998	0.0-13.11-1.11	beast_fmri_test	329	596713,/,597392,/,598073,/,598751,/,599432,/	t,t,t,t,t	<img class = center src='/static/experiments/beast_fmri_test/images/V.png'></img>	89,71	2750.0	test	<img class = center src='/static/experiments/beast_fmri_test/images/redV.png'></img>	go	2200.0	3.0	11.0	go	non-target	V	89,Middle Finger	71,Index Finger	550.0	550.0	2150.0	2200.0	0.0	n/a	550.0	0.0	go_stim
57345.533524302067	672.46647569792492	n/a	1278	89	2750	672.466475698	stim	stop-signal	222	598998	0.0-13.11-1.11	beast_fmri_test	329	596713,/,597392,/,598073,/,598751,/,599432,/	t,t,t,t,t	<img class = center src='/static/experiments/beast_fmri_test/images/V.png'></img>	89,71	2750.0	test	<img class = center src='/static/experiments/beast_fmri_test/images/redV.png'></img>	go	2200.0	3.0	11.0	go	non-target	V	89,Middle Finger	71,Index Finger	550.0	550.0	2150.0	2200.0	0.0	n/a	550.0	0.0	ITI
59220	500	n/a	-1	-1	500	0.0	fixation	poldrack-single-stim	223	600200	0.0-13.12-0.12	beast_fmri_test	329	600111,/	t	<div class = centerbox2><div class = fixation>+</div></div>	none	500.0	test	n/a	n/a	n/a	n/a	n/a	n/a	n/a	n/a	n/a	n/a	n/a	n/a	n/a	n/a	n/a	n/a	n/a	n/a	fixation
59115.406751054805	2750	n/a	1133	71	2750	106.593248945	stim	stop-signal	224	602952	0.0-13.12-1.12	beast_fmri_test	329	600791,/,601470,/,602150,/,602829,/	t,t,t,t	<img class = center src='/static/experiments/beast_fmri_test/images/D.png'></img>	89,71	2750.0	test	<img class = center src='/static/experiments/beast_fmri_test/images/redD.png'></img>	go	2200.0	3.0	12.0	go	non-target	D	89,Middle Finger	71,Index Finger	550.0	550.0	2150.0	2200.0	1.0	n/a	550.0	1.0	go_stim
61865.406751054805	106.59324894522214	n/a	1133	71	2750	106.593248945	stim	stop-signal	224	602952	0.0-13.12-1.12	beast_fmri_test	329	600791,/,601470,/,602150,/,602829,/	t,t,t,t	<img class = center src='/static/experiments/beast_fmri_test/images/D.png'></img>	89,71	2750.0	test	<img class = center src='/static/experiments/beast_fmri_test/images/redD.png'></img>	go	2200.0	3.0	12.0	go	non-target	D	89,Middle Finger	71,Index Finger	550.0	550.0	2150.0	2200.0	1.0	n/a	550.0	1.0	ITI
62604	500	n/a	-1	-1	500	0.0	fixation	poldrack-single-stim	225	603584	0.0-13.13-0.13	beast_fmri_test	329	603510,/	t	<div class = centerbox2><div class = fixation>+</div></div>	none	500.0	test	n/a	n/a	n/a	n/a	n/a	n/a	n/a	n/a	n/a	n/a	n/a	n/a	n/a	n/a	n/a	n/a	n/a	n/a	fixation
60061.771402336657	2750	n/a	1358	71	2750	2544.22859766	stim	stop-signal	226	606336	0.0-13.13-1.13	beast_fmri_test	329	604188,/,604869,/,605548,/,606228,/,606908,/,607588,/,608268,/	t,t,t,t,t,t,t	<img class = center src='/static/experiments/beast_fmri_test/images/P.png'></img>	89,71	2750.0	test	<img class = center src='/static/experiments/beast_fmri_test/images/redP.png'></img>	go	2200.0	3.0	13.0	go	non-target	P	89,Middle Finger	71,Index Finger	550.0	550.0	2150.0	2200.0	1.0	n/a	550.0	1.0	go_stim
62811.771402336657	2544.2285976632998	n/a	1358	71	2750	2544.22859766	stim	stop-signal	226	606336	0.0-13.13-1.13	beast_fmri_test	329	604188,/,604869,/,605548,/,606228,/,606908,/,607588,/,608268,/	t,t,t,t,t,t,t	<img class = center src='/static/experiments/beast_fmri_test/images/P.png'></img>	89,71	2750.0	test	<img class = center src='/static/experiments/beast_fmri_test/images/redP.png'></img>	go	2200.0	3.0	13.0	go	non-target	P	89,Middle Finger	71,Index Finger	550.0	550.0	2150.0	2200.0	1.0	n/a	550.0	1.0	ITI
68426	500	n/a	-1	-1	500	0.0	fixation	poldrack-single-stim	227	609406	0.0-13.14-0.14	beast_fmri_test	329	608946,/	t	<div class = centerbox2><div class = fixation>+</div></div>	none	500.0	test	n/a	n/a	n/a	n/a	n/a	n/a	n/a	n/a	n/a	n/a	n/a	n/a	n/a	n/a	n/a	n/a	n/a	n/a	fixation
67661.667199083488	2750	n/a	964	71	2750	765.332800917	stim	stop-signal	228	612157	0.0-13.14-1.14	beast_fmri_test	329	609627,/,610305,/,610986,/,611664,/,612345,/	t,t,t,t,t	<img class = center src='/static/experiments/beast_fmri_test/images/P.png'></img>	89,71	2750.0	test	<img class = center src='/static/experiments/beast_fmri_test/images/redP.png'></img>	go	2200.0	3.0	14.0	go	non-target	P	89,Middle Finger	71,Index Finger	550.0	550.0	2150.0	2200.0	1.0	n/a	550.0	1.0	go_stim
70411.667199083488	765.33280091656081	n/a	964	71	2750	765.332800917	stim	stop-signal	228	612157	0.0-13.14-1.14	beast_fmri_test	329	609627,/,610305,/,610986,/,611664,/,612345,/	t,t,t,t,t	<img class = center src='/static/experiments/beast_fmri_test/images/P.png'></img>	89,71	2750.0	test	<img class = center src='/static/experiments/beast_fmri_test/images/redP.png'></img>	go	2200.0	3.0	14.0	go	non-target	P	89,Middle Finger	71,Index Finger	550.0	550.0	2150.0	2200.0	1.0	n/a	550.0	1.0	ITI
72469	500	n/a	-1	-1	500	0.0	fixation	poldrack-single-stim	229	613449	0.0-13.15-0.15	beast_fmri_test	329	613024,/	t	<div class = centerbox2><div class = fixation>+</div></div>	none	500.0	test	n/a	n/a	n/a	n/a	n/a	n/a	n/a	n/a	n/a	n/a	n/a	n/a	n/a	n/a	n/a	n/a	n/a	n/a	fixation
70778.422024252126	2750	n/a	1160	71	2750	1691.57797575	stim	stop-signal	230	616200	0.0-13.15-1.15	beast_fmri_test	329	613705,/,614384,/,615064,/,615743,/,616423,/,617103,/,617783,/	t,t,t,t,t,t,t	<img class = center src='/static/experiments/beast_fmri_test/images/D.png'></img>	89,71	2750.0	test	<img class = center src='/static/experiments/beast_fmri_test/images/redD.png'></img>	go	2200.0	3.0	15.0	go	target	D	89,Middle Finger	71,Index Finger	550.0	550.0	2200.0	2200.0	0.0	n/a	550.0	0.0	go_stim
73528.422024252126	1691.5779757479304	n/a	1160	71	2750	1691.57797575	stim	stop-signal	230	616200	0.0-13.15-1.15	beast_fmri_test	329	613705,/,614384,/,615064,/,615743,/,616423,/,617103,/,617783,/	t,t,t,t,t,t,t	<img class = center src='/static/experiments/beast_fmri_test/images/D.png'></img>	89,71	2750.0	test	<img class = center src='/static/experiments/beast_fmri_test/images/redD.png'></img>	go	2200.0	3.0	15.0	go	target	D	89,Middle Finger	71,Index Finger	550.0	550.0	2200.0	2200.0	0.0	n/a	550.0	0.0	ITI
77439	500	n/a	-1	-1	500	0.0	fixation	poldrack-single-stim	231	618419	0.0-13.16-0.16	beast_fmri_test	329	n/a	n/a	<div class = centerbox2><div class = fixation>+</div></div>	none	500.0	test	n/a	n/a	n/a	n/a	n/a	n/a	n/a	n/a	n/a	n/a	n/a	n/a	n/a	n/a	n/a	n/a	n/a	n/a	fixation
77345.382532417658	2750	n/a	828	71	2750	95.6174675823	stim	stop-signal	232	621171	0.0-13.16-1.16	beast_fmri_test	329	618463,/,619141,/,619821,/,620500,/,621181,/	t,t,t,t,t	<img class = center src='/static/experiments/beast_fmri_test/images/T.png'></img>	89,71	2750.0	test	<img class = center src='/static/experiments/beast_fmri_test/images/redT.png'></img>	go	2200.0	3.0	16.0	go	non-target	T	89,Middle Finger	71,Index Finger	550.0	550.0	2200.0	2200.0	1.0	n/a	550.0	1.0	go_stim
80095.382532417658	95.61746758234257	n/a	828	71	2750	95.6174675823	stim	stop-signal	232	621171	0.0-13.16-1.16	beast_fmri_test	329	618463,/,619141,/,619821,/,620500,/,621181,/	t,t,t,t,t	<img class = center src='/static/experiments/beast_fmri_test/images/T.png'></img>	89,71	2750.0	test	<img class = center src='/static/experiments/beast_fmri_test/images/redT.png'></img>	go	2200.0	3.0	16.0	go	non-target	T	89,Middle Finger	71,Index Finger	550.0	550.0	2200.0	2200.0	1.0	n/a	550.0	1.0	ITI
80814	500	n/a	-1	-1	500	0.0	fixation	poldrack-single-stim	233	621794	0.0-13.17-0.17	beast_fmri_test	329	n/a	n/a	<div class = centerbox2><div class = fixation>+</div></div>	none	500.0	test	n/a	n/a	n/a	n/a	n/a	n/a	n/a	n/a	n/a	n/a	n/a	n/a	n/a	n/a	n/a	n/a	n/a	n/a	fixation
80590.057593480335	2750	n/a	1173	71	2750	225.94240652	stim	stop-signal	234	624546	0.0-13.17-1.17	beast_fmri_test	329	621859,/,622540,/,623220,/,623899,/,624578,/	t,t,t,t,t	<img class = center src='/static/experiments/beast_fmri_test/images/P.png'></img>	89,71	2750.0	test	<img class = center src='/static/experiments/beast_fmri_test/images/redP.png'></img>	go	2200.0	3.0	17.0	go	target	P	89,Middle Finger	71,Index Finger	550.0	550.0	2200.0	2200.0	0.0	n/a	550.0	0.0	go_stim
83340.057593480335	225.94240651969741	n/a	1173	71	2750	225.94240652	stim	stop-signal	234	624546	0.0-13.17-1.17	beast_fmri_test	329	621859,/,622540,/,623220,/,623899,/,624578,/	t,t,t,t,t	<img class = center src='/static/experiments/beast_fmri_test/images/P.png'></img>	89,71	2750.0	test	<img class = center src='/static/experiments/beast_fmri_test/images/redP.png'></img>	go	2200.0	3.0	17.0	go	target	P	89,Middle Finger	71,Index Finger	550.0	550.0	2200.0	2200.0	0.0	n/a	550.0	0.0	ITI
84320	500	n/a	-1	-1	500	0.0	fixation	poldrack-single-stim	235	625300	0.0-13.18-0.18	beast_fmri_test	329	625259,/	t	<div class = centerbox2><div class = fixation>+</div></div>	none	500.0	test	n/a	n/a	n/a	n/a	n/a	n/a	n/a	n/a	n/a	n/a	n/a	n/a	n/a	n/a	n/a	n/a	n/a	n/a	fixation
84274.080463705584	2750	n/a	1184	71	2750	47.9195362944	stim	stop-signal	236	628052	0.0-13.18-1.18	beast_fmri_test	329	625940,/,626619,/,627299,/,627979,/	t,t,t,t	<img class = center src='/static/experiments/beast_fmri_test/images/P.png'></img>	89,71	2750.0	test	<img class = center src='/static/experiments/beast_fmri_test/images/redP.png'></img>	go	2200.0	3.0	18.0	go	non-target	P	89,Middle Finger	71,Index Finger	550.0	550.0	2200.0	2200.0	1.0	n/a	550.0	1.0	go_stim
87024.080463705584	47.919536294422905	n/a	1184	71	2750	47.9195362944	stim	stop-signal	236	628052	0.0-13.18-1.18	beast_fmri_test	329	625940,/,626619,/,627299,/,627979,/	t,t,t,t	<img class = center src='/static/experiments/beast_fmri_test/images/P.png'></img>	89,71	2750.0	test	<img class = center src='/static/experiments/beast_fmri_test/images/redP.png'></img>	go	2200.0	3.0	18.0	go	non-target	P	89,Middle Finger	71,Index Finger	550.0	550.0	2200.0	2200.0	1.0	n/a	550.0	1.0	ITI
87646	500	n/a	-1	-1	500	0.0	fixation	poldrack-single-stim	237	628626	0.0-13.19-0.19	beast_fmri_test	329	n/a	n/a	<div class = centerbox2><div class = fixation>+</div></div>	none	500.0	test	n/a	n/a	n/a	n/a	n/a	n/a	n/a	n/a	n/a	n/a	n/a	n/a	n/a	n/a	n/a	n/a	n/a	n/a	fixation
86470.901653589448	2750	n/a	811	71	2750	1176.09834641	stim	stop-signal	238	631377	0.0-13.19-1.19	beast_fmri_test	329	628656,/,629337,/,630017,/,630696,/,631378,/,632056,/	t,t,t,t,t,t	<img class = center src='/static/experiments/beast_fmri_test/images/D.png'></img>	89,71	2750.0	test	<img class = center src='/static/experiments/beast_fmri_test/images/redD.png'></img>	go	2200.0	3.0	19.0	go	non-target	D	89,Middle Finger	71,Index Finger	550.0	550.0	2200.0	2200.0	1.0	n/a	550.0	1.0	go_stim
89220.901653589448	1176.0983464105686	n/a	811	71	2750	1176.09834641	stim	stop-signal	238	631377	0.0-13.19-1.19	beast_fmri_test	329	628656,/,629337,/,630017,/,630696,/,631378,/,632056,/	t,t,t,t,t,t	<img class = center src='/static/experiments/beast_fmri_test/images/D.png'></img>	89,71	2750.0	test	<img class = center src='/static/experiments/beast_fmri_test/images/redD.png'></img>	go	2200.0	3.0	19.0	go	non-target	D	89,Middle Finger	71,Index Finger	550.0	550.0	2200.0	2200.0	1.0	n/a	550.0	1.0	ITI
92098	500	n/a	-1	-1	500	0.0	fixation	poldrack-single-stim	239	633078	0.0-13.20-0.20	beast_fmri_test	329	632736,/	t	<div class = centerbox2><div class = fixation>+</div></div>	none	500.0	test	n/a	n/a	n/a	n/a	n/a	n/a	n/a	n/a	n/a	n/a	n/a	n/a	n/a	n/a	n/a	n/a	n/a	n/a	fixation
91960.794577815686	550.0	n/a	-1	-1	2750	139.205422184	stim	stop-signal	240	635830	0.0-13.20-1.20	beast_fmri_test	329	633415,/,634096,/,634774,/,635455,/	t,t,t,t	<img class = center src='/static/experiments/beast_fmri_test/images/P.png'></img>	89,71	2750.0	test	<img class = center src='/static/experiments/beast_fmri_test/images/redP.png'></img>	stop	2200.0	3.0	20.0	stop	target	P	89,Middle Finger	71,Index Finger	550.0	550.0	2200.0	2200.0	0.0	1.0	550.0	n/a	go_stim
94160.794577815686	2200.0	n/a	-1	-1	2750	139.205422184	stim	stop-signal	240	635830	0.0-13.20-1.20	beast_fmri_test	329	633415,/,634096,/,634774,/,635455,/	t,t,t,t	<img class = center src='/static/experiments/beast_fmri_test/images/P.png'></img>	89,71	2750.0	test	<img class = center src='/static/experiments/beast_fmri_test/images/redP.png'></img>	stop	2200.0	3.0	20.0	stop	target	P	89,Middle Finger	71,Index Finger	550.0	550.0	2200.0	2200.0	0.0	1.0	550.0	n/a	stop_stim
94710.794577815686	139.20542218430086	n/a	-1	-1	2750	139.205422184	stim	stop-signal	240	635830	0.0-13.20-1.20	beast_fmri_test	329	633415,/,634096,/,634774,/,635455,/	t,t,t,t	<img class = center src='/static/experiments/beast_fmri_test/images/P.png'></img>	89,71	2750.0	test	<img class = center src='/static/experiments/beast_fmri_test/images/redP.png'></img>	stop	2200.0	3.0	20.0	stop	target	P	89,Middle Finger	71,Index Finger	550.0	550.0	2200.0	2200.0	0.0	1.0	550.0	n/a	ITI
95517	500	n/a	-1	-1	500	0.0	fixation	poldrack-single-stim	241	636497	0.0-13.21-0.21	beast_fmri_test	329	636135,/	t	<div class = centerbox2><div class = fixation>+</div></div>	none	500.0	test	n/a	n/a	n/a	n/a	n/a	n/a	n/a	n/a	n/a	n/a	n/a	n/a	n/a	n/a	n/a	n/a	n/a	n/a	fixation
95382.963084848598	2750	n/a	735	71	2750	136.036915151	stim	stop-signal	242	639249	0.0-13.21-1.21	beast_fmri_test	329	636814,/,637494,/,638174,/,638853,/	t,t,t,t	<img class = center src='/static/experiments/beast_fmri_test/images/V.png'></img>	89,71	2750.0	test	<img class = center src='/static/experiments/beast_fmri_test/images/redV.png'></img>	go	2200.0	3.0	21.0	go	non-target	V	89,Middle Finger	71,Index Finger	600.0	550.0	2200.0	2200.0	1.0	n/a	550.0	1.0	go_stim
98132.963084848598	136.03691515143959	n/a	735	71	2750	136.036915151	stim	stop-signal	242	639249	0.0-13.21-1.21	beast_fmri_test	329	636814,/,637494,/,638174,/,638853,/	t,t,t,t	<img class = center src='/static/experiments/beast_fmri_test/images/V.png'></img>	89,71	2750.0	test	<img class = center src='/static/experiments/beast_fmri_test/images/redV.png'></img>	go	2200.0	3.0	21.0	go	non-target	V	89,Middle Finger	71,Index Finger	600.0	550.0	2200.0	2200.0	1.0	n/a	550.0	1.0	ITI
98932	500	n/a	-1	-1	500	0.0	fixation	poldrack-single-stim	243	639912	0.0-13.22-0.22	beast_fmri_test	329	639533,/	t	<div class = centerbox2><div class = fixation>+</div></div>	none	500.0	test	n/a	n/a	n/a	n/a	n/a	n/a	n/a	n/a	n/a	n/a	n/a	n/a	n/a	n/a	n/a	n/a	n/a	n/a	fixation
98620.020843680366	550.0	n/a	-1	-1	2750	312.97915632	stim	stop-signal	244	642663	0.0-13.22-1.22	beast_fmri_test	329	640212,/,640891,/,641572,/,642250,/,642931,/	t,t,t,t,t	<img class = center src='/static/experiments/beast_fmri_test/images/P.png'></img>	89,71	2750.0	test	<img class = center src='/static/experiments/beast_fmri_test/images/redP.png'></img>	stop	2200.0	3.0	22.0	stop	non-target	P	89,Middle Finger	71,Index Finger	600.0	550.0	2200.0	2200.0	0.0	1.0	550.0	n/a	go_stim
100820.02084368037	2200.0	n/a	-1	-1	2750	312.97915632	stim	stop-signal	244	642663	0.0-13.22-1.22	beast_fmri_test	329	640212,/,640891,/,641572,/,642250,/,642931,/	t,t,t,t,t	<img class = center src='/static/experiments/beast_fmri_test/images/P.png'></img>	89,71	2750.0	test	<img class = center src='/static/experiments/beast_fmri_test/images/redP.png'></img>	stop	2200.0	3.0	22.0	stop	non-target	P	89,Middle Finger	71,Index Finger	600.0	550.0	2200.0	2200.0	0.0	1.0	550.0	n/a	stop_stim
101370.02084368037	312.97915631960495	n/a	-1	-1	2750	312.97915632	stim	stop-signal	244	642663	0.0-13.22-1.22	beast_fmri_test	329	640212,/,640891,/,641572,/,642250,/,642931,/	t,t,t,t,t	<img class = center src='/static/experiments/beast_fmri_test/images/P.png'></img>	89,71	2750.0	test	<img class = center src='/static/experiments/beast_fmri_test/images/redP.png'></img>	stop	2200.0	3.0	22.0	stop	non-target	P	89,Middle Finger	71,Index Finger	600.0	550.0	2200.0	2200.0	0.0	1.0	550.0	n/a	ITI
102524	500	n/a	-1	-1	500	0.0	fixation	poldrack-single-stim	245	643504	0.0-13.23-0.23	beast_fmri_test	329	n/a	n/a	<div class = centerbox2><div class = fixation>+</div></div>	none	500.0	test	n/a	n/a	n/a	n/a	n/a	n/a	n/a	n/a	n/a	n/a	n/a	n/a	n/a	n/a	n/a	n/a	n/a	n/a	fixation
101152.33185196086	2750	n/a	898	89	2750	1372.66814804	stim	stop-signal	246	646255	0.0-13.23-1.23	beast_fmri_test	329	643609,/,644291,/,644969,/,645650,/,646329,/,647008,/	t,t,t,t,t,t	<img class = center src='/static/experiments/beast_fmri_test/images/V.png'></img>	89,71	2750.0	test	<img class = center src='/static/experiments/beast_fmri_test/images/redV.png'></img>	go	2150.0	3.0	23.0	go	non-target	V	89,Middle Finger	71,Index Finger	600.0	600.0	2200.0	2150.0	0.0	n/a	600.0	0.0	go_stim
103902.33185196086	1372.6681480391064	n/a	898	89	2750	1372.66814804	stim	stop-signal	246	646255	0.0-13.23-1.23	beast_fmri_test	329	643609,/,644291,/,644969,/,645650,/,646329,/,647008,/	t,t,t,t,t,t	<img class = center src='/static/experiments/beast_fmri_test/images/V.png'></img>	89,71	2750.0	test	<img class = center src='/static/experiments/beast_fmri_test/images/redV.png'></img>	go	2150.0	3.0	23.0	go	non-target	V	89,Middle Finger	71,Index Finger	600.0	600.0	2200.0	2150.0	0.0	n/a	600.0	0.0	ITI
107172	500	n/a	-1	-1	500	0.0	fixation	poldrack-single-stim	247	648152	0.0-13.24-0.24	beast_fmri_test	329	647687,/	t	<div class = centerbox2><div class = fixation>+</div></div>	none	500.0	test	n/a	n/a	n/a	n/a	n/a	n/a	n/a	n/a	n/a	n/a	n/a	n/a	n/a	n/a	n/a	n/a	n/a	n/a	fixation
106189.58787236072	2750	n/a	1276	71	2750	983.412127639	stim	stop-signal	248	650903	0.0-13.24-1.24	beast_fmri_test	329	648369,/,649048,/,649726,/,650408,/,651086,/,651767,/	t,t,t,t,t,t	<img class = center src='/static/experiments/beast_fmri_test/images/V.png'></img>	89,71	2750.0	test	<img class = center src='/static/experiments/beast_fmri_test/images/redV.png'></img>	go	2150.0	3.0	24.0	go	target	V	89,Middle Finger	71,Index Finger	600.0	600.0	2150.0	2150.0	0.0	n/a	600.0	0.0	go_stim
108939.58787236072	983.41212763933277	n/a	1276	71	2750	983.412127639	stim	stop-signal	248	650903	0.0-13.24-1.24	beast_fmri_test	329	648369,/,649048,/,649726,/,650408,/,651086,/,651767,/	t,t,t,t,t,t	<img class = center src='/static/experiments/beast_fmri_test/images/V.png'></img>	89,71	2750.0	test	<img class = center src='/static/experiments/beast_fmri_test/images/redV.png'></img>	go	2150.0	3.0	24.0	go	target	V	89,Middle Finger	71,Index Finger	600.0	600.0	2150.0	2150.0	0.0	n/a	600.0	0.0	ITI
111436	500	n/a	-1	-1	500	0.0	fixation	poldrack-single-stim	249	652416	0.0-13.25-0.25	beast_fmri_test	329	n/a	n/a	<div class = centerbox2><div class = fixation>+</div></div>	none	500.0	test	n/a	n/a	n/a	n/a	n/a	n/a	n/a	n/a	n/a	n/a	n/a	n/a	n/a	n/a	n/a	n/a	n/a	n/a	fixation
111201.96993353171	2750	n/a	1352	71	2750	234.030066468	stim	stop-signal	250	655166	0.0-13.25-1.25	beast_fmri_test	329	652446,/,653127,/,653805,/,654486,/,655165,/	t,t,t,t,t	<img class = center src='/static/experiments/beast_fmri_test/images/T.png'></img>	89,71	2750.0	test	<img class = center src='/static/experiments/beast_fmri_test/images/redT.png'></img>	go	2150.0	3.0	25.0	go	non-target	T	89,Middle Finger	71,Index Finger	600.0	600.0	2150.0	2150.0	1.0	n/a	600.0	1.0	go_stim
113951.96993353171	234.03006646832733	n/a	1352	71	2750	234.030066468	stim	stop-signal	250	655166	0.0-13.25-1.25	beast_fmri_test	329	652446,/,653127,/,653805,/,654486,/,655165,/	t,t,t,t,t	<img class = center src='/static/experiments/beast_fmri_test/images/T.png'></img>	89,71	2750.0	test	<img class = center src='/static/experiments/beast_fmri_test/images/redT.png'></img>	go	2150.0	3.0	25.0	go	non-target	T	89,Middle Finger	71,Index Finger	600.0	600.0	2150.0	2150.0	1.0	n/a	600.0	1.0	ITI
114950	500	n/a	-1	-1	500	0.0	fixation	poldrack-single-stim	251	655930	0.0-13.26-0.26	beast_fmri_test	329	655846,/	t	<div class = centerbox2><div class = fixation>+</div></div>	none	500.0	test	n/a	n/a	n/a	n/a	n/a	n/a	n/a	n/a	n/a	n/a	n/a	n/a	n/a	n/a	n/a	n/a	n/a	n/a	fixation
114936.00589418423	600.0	n/a	-1	-1	2750	14.9941058158	stim	stop-signal	252	658681	0.0-13.26-1.26	beast_fmri_test	329	656526,/,657204,/,657885,/,658563,/	t,t,t,t	<img class = center src='/static/experiments/beast_fmri_test/images/V.png'></img>	89,71	2750.0	test	<img class = center src='/static/experiments/beast_fmri_test/images/redV.png'></img>	stop	2150.0	3.0	26.0	stop	target	V	89,Middle Finger	71,Index Finger	600.0	600.0	2150.0	2150.0	0.0	1.0	600.0	n/a	go_stim
117086.00589418423	2150.0	n/a	-1	-1	2750	14.9941058158	stim	stop-signal	252	658681	0.0-13.26-1.26	beast_fmri_test	329	656526,/,657204,/,657885,/,658563,/	t,t,t,t	<img class = center src='/static/experiments/beast_fmri_test/images/V.png'></img>	89,71	2750.0	test	<img class = center src='/static/experiments/beast_fmri_test/images/redV.png'></img>	stop	2150.0	3.0	26.0	stop	target	V	89,Middle Finger	71,Index Finger	600.0	600.0	2150.0	2150.0	0.0	1.0	600.0	n/a	stop_stim
117686.00589418423	14.994105815803573	n/a	-1	-1	2750	14.9941058158	stim	stop-signal	252	658681	0.0-13.26-1.26	beast_fmri_test	329	656526,/,657204,/,657885,/,658563,/	t,t,t,t	<img class = center src='/static/experiments/beast_fmri_test/images/V.png'></img>	89,71	2750.0	test	<img class = center src='/static/experiments/beast_fmri_test/images/redV.png'></img>	stop	2150.0	3.0	26.0	stop	target	V	89,Middle Finger	71,Index Finger	600.0	600.0	2150.0	2150.0	0.0	1.0	600.0	n/a	ITI
118244	500	n/a	-1	-1	500	0.0	fixation	poldrack-single-stim	253	659224	0.0-13.27-0.27	beast_fmri_test	329	n/a	n/a	<div class = centerbox2><div class = fixation>+</div></div>	none	500.0	test	n/a	n/a	n/a	n/a	n/a	n/a	n/a	n/a	n/a	n/a	n/a	n/a	n/a	n/a	n/a	n/a	n/a	n/a	fixation
117894.7629223034	650.0	n/a	1513	89	2750	350.237077697	stim	stop-signal	254	661975	0.0-13.27-1.27	beast_fmri_test	329	659243,/,659923,/,660603,/,661282,/,661963,/	t,t,t,t,t	<img class = center src='/static/experiments/beast_fmri_test/images/V.png'></img>	89,71	2750.0	test	<img class = center src='/static/experiments/beast_fmri_test/images/redV.png'></img>	stop	2100.0	3.0	27.0	stop	target	V	89,Middle Finger	71,Index Finger	650.0	600.0	2100.0	2150.0	0.0	0.0	650.0	n/a	go_stim
119994.7629223034	2100.0	n/a	1513	89	2750	350.237077697	stim	stop-signal	254	661975	0.0-13.27-1.27	beast_fmri_test	329	659243,/,659923,/,660603,/,661282,/,661963,/	t,t,t,t,t	<img class = center src='/static/experiments/beast_fmri_test/images/V.png'></img>	89,71	2750.0	test	<img class = center src='/static/experiments/beast_fmri_test/images/redV.png'></img>	stop	2100.0	3.0	27.0	stop	target	V	89,Middle Finger	71,Index Finger	650.0	600.0	2100.0	2150.0	0.0	0.0	650.0	n/a	stop_stim
120644.7629223034	350.23707769663321	n/a	1513	89	2750	350.237077697	stim	stop-signal	254	661975	0.0-13.27-1.27	beast_fmri_test	329	659243,/,659923,/,660603,/,661282,/,661963,/	t,t,t,t,t	<img class = center src='/static/experiments/beast_fmri_test/images/V.png'></img>	89,71	2750.0	test	<img class = center src='/static/experiments/beast_fmri_test/images/redV.png'></img>	stop	2100.0	3.0	27.0	stop	target	V	89,Middle Finger	71,Index Finger	650.0	600.0	2100.0	2150.0	0.0	0.0	650.0	n/a	ITI
121874	500	n/a	-1	-1	500	0.0	fixation	poldrack-single-stim	255	662854	0.0-13.28-0.28	beast_fmri_test	329	662641,/	t	<div class = centerbox2><div class = fixation>+</div></div>	none	500.0	test	n/a	n/a	n/a	n/a	n/a	n/a	n/a	n/a	n/a	n/a	n/a	n/a	n/a	n/a	n/a	n/a	n/a	n/a	fixation
120858.69355457812	600.0	n/a	-1	-1	2750	1018.30644542	stim	stop-signal	256	665607	0.0-13.28-1.28	beast_fmri_test	329	663322,/,664001,/,664682,/,665361,/,666040,/	t,t,t,t,t	<img class = center src='/static/experiments/beast_fmri_test/images/V.png'></img>	89,71	2750.0	test	<img class = center src='/static/experiments/beast_fmri_test/images/redV.png'></img>	stop	2150.0	3.0	28.0	stop	non-target	V	89,Middle Finger	71,Index Finger	600.0	600.0	2100.0	2150.0	0.0	1.0	600.0	n/a	go_stim
123008.69355457812	2150.0	n/a	-1	-1	2750	1018.30644542	stim	stop-signal	256	665607	0.0-13.28-1.28	beast_fmri_test	329	663322,/,664001,/,664682,/,665361,/,666040,/	t,t,t,t,t	<img class = center src='/static/experiments/beast_fmri_test/images/V.png'></img>	89,71	2750.0	test	<img class = center src='/static/experiments/beast_fmri_test/images/redV.png'></img>	stop	2150.0	3.0	28.0	stop	non-target	V	89,Middle Finger	71,Index Finger	600.0	600.0	2100.0	2150.0	0.0	1.0	600.0	n/a	stop_stim
123608.69355457812	1018.3064454218883	n/a	-1	-1	2750	1018.30644542	stim	stop-signal	256	665607	0.0-13.28-1.28	beast_fmri_test	329	663322,/,664001,/,664682,/,665361,/,666040,/	t,t,t,t,t	<img class = center src='/static/experiments/beast_fmri_test/images/V.png'></img>	89,71	2750.0	test	<img class = center src='/static/experiments/beast_fmri_test/images/redV.png'></img>	stop	2150.0	3.0	28.0	stop	non-target	V	89,Middle Finger	71,Index Finger	600.0	600.0	2100.0	2150.0	0.0	1.0	600.0	n/a	ITI
126174	500	n/a	-1	-1	500	0.0	fixation	poldrack-single-stim	257	667154	0.0-13.29-0.29	beast_fmri_test	329	666720,/	t	<div class = centerbox2><div class = fixation>+</div></div>	none	500.0	test	n/a	n/a	n/a	n/a	n/a	n/a	n/a	n/a	n/a	n/a	n/a	n/a	n/a	n/a	n/a	n/a	n/a	n/a	fixation
124446.32119901758	650.0	n/a	-1	-1	2750	1729.67880098	stim	stop-signal	258	669906	0.0-13.29-1.29	beast_fmri_test	329	667400,/,668080,/,668759,/,669438,/,670119,/,670798,/,671477,/	t,t,t,t,t,t,t	<img class = center src='/static/experiments/beast_fmri_test/images/T.png'></img>	89,71	2750.0	test	<img class = center src='/static/experiments/beast_fmri_test/images/redT.png'></img>	stop	2100.0	3.0	29.0	stop	non-target	T	89,Middle Finger	71,Index Finger	600.0	650.0	2100.0	2100.0	0.0	1.0	650.0	n/a	go_stim
126546.32119901758	2100.0	n/a	-1	-1	2750	1729.67880098	stim	stop-signal	258	669906	0.0-13.29-1.29	beast_fmri_test	329	667400,/,668080,/,668759,/,669438,/,670119,/,670798,/,671477,/	t,t,t,t,t,t,t	<img class = center src='/static/experiments/beast_fmri_test/images/T.png'></img>	89,71	2750.0	test	<img class = center src='/static/experiments/beast_fmri_test/images/redT.png'></img>	stop	2100.0	3.0	29.0	stop	non-target	T	89,Middle Finger	71,Index Finger	600.0	650.0	2100.0	2100.0	0.0	1.0	650.0	n/a	stop_stim
127196.32119901758	1729.6788009824422	n/a	-1	-1	2750	1729.67880098	stim	stop-signal	258	669906	0.0-13.29-1.29	beast_fmri_test	329	667400,/,668080,/,668759,/,669438,/,670119,/,670798,/,671477,/	t,t,t,t,t,t,t	<img class = center src='/static/experiments/beast_fmri_test/images/T.png'></img>	89,71	2750.0	test	<img class = center src='/static/experiments/beast_fmri_test/images/redT.png'></img>	stop	2100.0	3.0	29.0	stop	non-target	T	89,Middle Finger	71,Index Finger	600.0	650.0	2100.0	2100.0	0.0	1.0	650.0	n/a	ITI
131182	500	n/a	-1	-1	500	0.0	fixation	poldrack-single-stim	259	672162	0.0-13.30-0.30	beast_fmri_test	329	672158,/	t	<div class = centerbox2><div class = fixation>+</div></div>	none	500.0	test	n/a	n/a	n/a	n/a	n/a	n/a	n/a	n/a	n/a	n/a	n/a	n/a	n/a	n/a	n/a	n/a	n/a	n/a	fixation
130667.1362489548	2750	n/a	1263	71	2750	515.863751045	stim	stop-signal	260	674913	0.0-13.30-1.30	beast_fmri_test	329	672836,/,673517,/,674195,/,674876,/	t,t,t,t	<img class = center src='/static/experiments/beast_fmri_test/images/V.png'></img>	89,71	2750.0	test	<img class = center src='/static/experiments/beast_fmri_test/images/redV.png'></img>	go	2150.0	3.0	30.0	go	target	V	89,Middle Finger	71,Index Finger	600.0	700.0	2150.0	2100.0	0.0	n/a	600.0	0.0	go_stim
133417.1362489548	515.86375104524927	n/a	1263	71	2750	515.863751045	stim	stop-signal	260	674913	0.0-13.30-1.30	beast_fmri_test	329	672836,/,673517,/,674195,/,674876,/	t,t,t,t	<img class = center src='/static/experiments/beast_fmri_test/images/V.png'></img>	89,71	2750.0	test	<img class = center src='/static/experiments/beast_fmri_test/images/redV.png'></img>	go	2150.0	3.0	30.0	go	target	V	89,Middle Finger	71,Index Finger	600.0	700.0	2150.0	2100.0	0.0	n/a	600.0	0.0	ITI
134981	500	n/a	-1	-1	500	0.0	fixation	poldrack-single-stim	261	675961	0.0-13.31-0.31	beast_fmri_test	329	675555,/	t	<div class = centerbox2><div class = fixation>+</div></div>	none	500.0	test	n/a	n/a	n/a	n/a	n/a	n/a	n/a	n/a	n/a	n/a	n/a	n/a	n/a	n/a	n/a	n/a	n/a	n/a	fixation
130468.93782826257	2750	n/a	962	71	2750	4514.06217174	stim	stop-signal	262	678713	0.0-13.31-1.31	beast_fmri_test	329	676236,/,676915,/,677594,/,678275,/,678953,/,679634,/,680314,/,680993,/,681672,/,682352,/,683032,/	t,t,t,t,t,t,t,t,t,t,t	<img class = center src='/static/experiments/beast_fmri_test/images/D.png'></img>	89,71	2750.0	test	<img class = center src='/static/experiments/beast_fmri_test/images/redD.png'></img>	go	2050.0	3.0	31.0	go	non-target	D	89,Middle Finger	71,Index Finger	600.0	700.0	2150.0	2050.0	1.0	n/a	700.0	1.0	go_stim
133218.93782826257	4514.0621717373842	n/a	962	71	2750	4514.06217174	stim	stop-signal	262	678713	0.0-13.31-1.31	beast_fmri_test	329	676236,/,676915,/,677594,/,678275,/,678953,/,679634,/,680314,/,680993,/,681672,/,682352,/,683032,/	t,t,t,t,t,t,t,t,t,t,t	<img class = center src='/static/experiments/beast_fmri_test/images/D.png'></img>	89,71	2750.0	test	<img class = center src='/static/experiments/beast_fmri_test/images/redD.png'></img>	go	2050.0	3.0	31.0	go	non-target	D	89,Middle Finger	71,Index Finger	600.0	700.0	2150.0	2050.0	1.0	n/a	700.0	1.0	ITI
142775	500	n/a	-1	-1	500	0.0	fixation	poldrack-single-stim	263	683755	0.0-13.32-0.32	beast_fmri_test	329	683713,/	t	<div class = centerbox2><div class = fixation>+</div></div>	none	500.0	test	n/a	n/a	n/a	n/a	n/a	n/a	n/a	n/a	n/a	n/a	n/a	n/a	n/a	n/a	n/a	n/a	n/a	n/a	fixation
142697.72869781824	2750	n/a	1008	71	2750	79.2713021817	stim	stop-signal	264	686507	0.0-13.32-1.32	beast_fmri_test	329	684392,/,685072,/,685751,/,686432,/	t,t,t,t	<img class = center src='/static/experiments/beast_fmri_test/images/D.png'></img>	89,71	2750.0	test	<img class = center src='/static/experiments/beast_fmri_test/images/redD.png'></img>	go	2050.0	3.0	32.0	go	non-target	D	89,Middle Finger	71,Index Finger	600.0	700.0	2150.0	2050.0	1.0	n/a	700.0	1.0	go_stim
145447.72869781824	79.27130218173447	n/a	1008	71	2750	79.2713021817	stim	stop-signal	264	686507	0.0-13.32-1.32	beast_fmri_test	329	684392,/,685072,/,685751,/,686432,/	t,t,t,t	<img class = center src='/static/experiments/beast_fmri_test/images/D.png'></img>	89,71	2750.0	test	<img class = center src='/static/experiments/beast_fmri_test/images/redD.png'></img>	go	2050.0	3.0	32.0	go	non-target	D	89,Middle Finger	71,Index Finger	600.0	700.0	2150.0	2050.0	1.0	n/a	700.0	1.0	ITI
146137	500	n/a	-1	-1	500	0.0	fixation	poldrack-single-stim	265	687117	0.0-13.33-0.33	beast_fmri_test	329	687111,/	t	<div class = centerbox2><div class = fixation>+</div></div>	none	500.0	test	n/a	n/a	n/a	n/a	n/a	n/a	n/a	n/a	n/a	n/a	n/a	n/a	n/a	n/a	n/a	n/a	n/a	n/a	fixation
145097.00653961976	2750	n/a	1146	71	2750	1041.99346038	stim	stop-signal	266	689869	0.0-13.33-1.33	beast_fmri_test	329	687791,/,688471,/,689150,/,689830,/,690508,/	t,t,t,t,t	<img class = center src='/static/experiments/beast_fmri_test/images/P.png'></img>	89,71	2750.0	test	<img class = center src='/static/experiments/beast_fmri_test/images/redP.png'></img>	go	2050.0	3.0	33.0	go	non-target	P	89,Middle Finger	71,Index Finger	600.0	700.0	2150.0	2050.0	1.0	n/a	700.0	1.0	go_stim
147847.00653961976	1041.9934603802471	n/a	1146	71	2750	1041.99346038	stim	stop-signal	266	689869	0.0-13.33-1.33	beast_fmri_test	329	687791,/,688471,/,689150,/,689830,/,690508,/	t,t,t,t,t	<img class = center src='/static/experiments/beast_fmri_test/images/P.png'></img>	89,71	2750.0	test	<img class = center src='/static/experiments/beast_fmri_test/images/redP.png'></img>	go	2050.0	3.0	33.0	go	non-target	P	89,Middle Finger	71,Index Finger	600.0	700.0	2150.0	2050.0	1.0	n/a	700.0	1.0	ITI
150461	500	n/a	-1	-1	500	0.0	fixation	poldrack-single-stim	267	691441	0.0-13.34-0.34	beast_fmri_test	329	691189,/	t	<div class = centerbox2><div class = fixation>+</div></div>	none	500.0	test	n/a	n/a	n/a	n/a	n/a	n/a	n/a	n/a	n/a	n/a	n/a	n/a	n/a	n/a	n/a	n/a	n/a	n/a	fixation
148188.30546473619	2750	n/a	1273	71	2750	2274.69453526	stim	stop-signal	268	694193	0.0-13.34-1.34	beast_fmri_test	329	691868,/,692548,/,693227,/,693908,/,694586,/,695267,/,695946,/	t,t,t,t,t,t,t	<img class = center src='/static/experiments/beast_fmri_test/images/D.png'></img>	89,71	2750.0	test	<img class = center src='/static/experiments/beast_fmri_test/images/redD.png'></img>	go	2150.0	3.0	34.0	go	target	D	89,Middle Finger	71,Index Finger	600.0	700.0	2150.0	2050.0	0.0	n/a	600.0	0.0	go_stim
150938.30546473619	2274.6945352638722	n/a	1273	71	2750	2274.69453526	stim	stop-signal	268	694193	0.0-13.34-1.34	beast_fmri_test	329	691868,/,692548,/,693227,/,693908,/,694586,/,695267,/,695946,/	t,t,t,t,t,t,t	<img class = center src='/static/experiments/beast_fmri_test/images/D.png'></img>	89,71	2750.0	test	<img class = center src='/static/experiments/beast_fmri_test/images/redD.png'></img>	go	2150.0	3.0	34.0	go	target	D	89,Middle Finger	71,Index Finger	600.0	700.0	2150.0	2050.0	0.0	n/a	600.0	0.0	ITI
156014	500	n/a	-1	-1	500	0.0	fixation	poldrack-single-stim	269	696994	0.0-13.35-0.35	beast_fmri_test	329	696625,/	t	<div class = centerbox2><div class = fixation>+</div></div>	none	500.0	test	n/a	n/a	n/a	n/a	n/a	n/a	n/a	n/a	n/a	n/a	n/a	n/a	n/a	n/a	n/a	n/a	n/a	n/a	fixation
155543.95149841707	700.0	n/a	982	71	2750	471.048501583	stim	stop-signal	270	699745	0.0-13.35-1.35	beast_fmri_test	329	697307,/,697984,/,698665,/,699345,/,700025,/	t,t,t,t,t	<img class = center src='/static/experiments/beast_fmri_test/images/P.png'></img>	89,71	2750.0	test	<img class = center src='/static/experiments/beast_fmri_test/images/redP.png'></img>	stop	2050.0	3.0	35.0	stop	non-target	P	89,Middle Finger	71,Index Finger	600.0	700.0	2150.0	2050.0	0.0	0.0	700.0	n/a	go_stim
157593.95149841707	2050.0	n/a	982	71	2750	471.048501583	stim	stop-signal	270	699745	0.0-13.35-1.35	beast_fmri_test	329	697307,/,697984,/,698665,/,699345,/,700025,/	t,t,t,t,t	<img class = center src='/static/experiments/beast_fmri_test/images/P.png'></img>	89,71	2750.0	test	<img class = center src='/static/experiments/beast_fmri_test/images/redP.png'></img>	stop	2050.0	3.0	35.0	stop	non-target	P	89,Middle Finger	71,Index Finger	600.0	700.0	2150.0	2050.0	0.0	0.0	700.0	n/a	stop_stim
158293.95149841707	471.04850158287712	n/a	982	71	2750	471.048501583	stim	stop-signal	270	699745	0.0-13.35-1.35	beast_fmri_test	329	697307,/,697984,/,698665,/,699345,/,700025,/	t,t,t,t,t	<img class = center src='/static/experiments/beast_fmri_test/images/P.png'></img>	89,71	2750.0	test	<img class = center src='/static/experiments/beast_fmri_test/images/redP.png'></img>	stop	2050.0	3.0	35.0	stop	non-target	P	89,Middle Finger	71,Index Finger	600.0	700.0	2150.0	2050.0	0.0	0.0	700.0	n/a	ITI
159767	500	n/a	-1	-1	500	0.0	fixation	poldrack-single-stim	271	700747	0.0-13.36-0.36	beast_fmri_test	329	700703,/	t	<div class = centerbox2><div class = fixation>+</div></div>	none	500.0	test	n/a	n/a	n/a	n/a	n/a	n/a	n/a	n/a	n/a	n/a	n/a	n/a	n/a	n/a	n/a	n/a	n/a	n/a	fixation
157844.61191757291	650.0	n/a	-1	-1	2750	1924.38808243	stim	stop-signal	272	703499	0.0-13.36-1.36	beast_fmri_test	329	701384,/,702063,/,702743,/,703422,/,704103,/,704781,/	t,t,t,t,t,t	<img class = center src='/static/experiments/beast_fmri_test/images/B.png'></img>	89,71	2750.0	test	<img class = center src='/static/experiments/beast_fmri_test/images/redB.png'></img>	stop	2100.0	3.0	36.0	stop	non-target	B	89,Middle Finger	71,Index Finger	600.0	650.0	2150.0	2100.0	0.0	1.0	650.0	n/a	go_stim
159944.61191757291	2100.0	n/a	-1	-1	2750	1924.38808243	stim	stop-signal	272	703499	0.0-13.36-1.36	beast_fmri_test	329	701384,/,702063,/,702743,/,703422,/,704103,/,704781,/	t,t,t,t,t,t	<img class = center src='/static/experiments/beast_fmri_test/images/B.png'></img>	89,71	2750.0	test	<img class = center src='/static/experiments/beast_fmri_test/images/redB.png'></img>	stop	2100.0	3.0	36.0	stop	non-target	B	89,Middle Finger	71,Index Finger	600.0	650.0	2150.0	2100.0	0.0	1.0	650.0	n/a	stop_stim
160594.61191757291	1924.3880824270361	n/a	-1	-1	2750	1924.38808243	stim	stop-signal	272	703499	0.0-13.36-1.36	beast_fmri_test	329	701384,/,702063,/,702743,/,703422,/,704103,/,704781,/	t,t,t,t,t,t	<img class = center src='/static/experiments/beast_fmri_test/images/B.png'></img>	89,71	2750.0	test	<img class = center src='/static/experiments/beast_fmri_test/images/redB.png'></img>	stop	2100.0	3.0	36.0	stop	non-target	B	89,Middle Finger	71,Index Finger	600.0	650.0	2150.0	2100.0	0.0	1.0	650.0	n/a	ITI
164970	500	n/a	-1	-1	500	0.0	fixation	poldrack-single-stim	273	705950	0.0-13.37-0.37	beast_fmri_test	329	705463,/	t	<div class = centerbox2><div class = fixation>+</div></div>	none	500.0	test	n/a	n/a	n/a	n/a	n/a	n/a	n/a	n/a	n/a	n/a	n/a	n/a	n/a	n/a	n/a	n/a	n/a	n/a	fixation
164327.50862669037	2750	n/a	2718	71	2750	644.49137331	stim	stop-signal	274	708702	0.0-13.37-1.37	beast_fmri_test	329	706141,/,706821,/,707501,/,708180,/,708860,/	t,t,t,t,t	<img class = center src='/static/experiments/beast_fmri_test/images/D.png'></img>	89,71	2750.0	test	<img class = center src='/static/experiments/beast_fmri_test/images/redD.png'></img>	go	2150.0	3.0	37.0	go	target	D	89,Middle Finger	71,Index Finger	600.0	700.0	2150.0	2100.0	0.0	n/a	600.0	0.0	go_stim
167077.50862669037	644.49137330965243	n/a	2718	71	2750	644.49137331	stim	stop-signal	274	708702	0.0-13.37-1.37	beast_fmri_test	329	706141,/,706821,/,707501,/,708180,/,708860,/	t,t,t,t,t	<img class = center src='/static/experiments/beast_fmri_test/images/D.png'></img>	89,71	2750.0	test	<img class = center src='/static/experiments/beast_fmri_test/images/redD.png'></img>	go	2150.0	3.0	37.0	go	target	D	89,Middle Finger	71,Index Finger	600.0	700.0	2150.0	2100.0	0.0	n/a	600.0	0.0	ITI
168895	500	n/a	-1	-1	500	0.0	fixation	poldrack-single-stim	275	709875	0.0-13.38-0.38	beast_fmri_test	329	709540,/	t	<div class = centerbox2><div class = fixation>+</div></div>	none	500.0	test	n/a	n/a	n/a	n/a	n/a	n/a	n/a	n/a	n/a	n/a	n/a	n/a	n/a	n/a	n/a	n/a	n/a	n/a	fixation
167708.01177594729	600.0	n/a	-1	-1	2750	1188.98822405	stim	stop-signal	276	712627	0.0-13.38-1.38	beast_fmri_test	329	710221,/,710898,/,711579,/,712260,/,712939,/,713618,/	t,t,t,t,t,t	<img class = center src='/static/experiments/beast_fmri_test/images/P.png'></img>	89,71	2750.0	test	<img class = center src='/static/experiments/beast_fmri_test/images/redP.png'></img>	stop	2150.0	3.0	38.0	stop	target	P	89,Middle Finger	71,Index Finger	600.0	700.0	2150.0	2100.0	0.0	1.0	600.0	n/a	go_stim
169858.01177594729	2150.0	n/a	-1	-1	2750	1188.98822405	stim	stop-signal	276	712627	0.0-13.38-1.38	beast_fmri_test	329	710221,/,710898,/,711579,/,712260,/,712939,/,713618,/	t,t,t,t,t,t	<img class = center src='/static/experiments/beast_fmri_test/images/P.png'></img>	89,71	2750.0	test	<img class = center src='/static/experiments/beast_fmri_test/images/redP.png'></img>	stop	2150.0	3.0	38.0	stop	target	P	89,Middle Finger	71,Index Finger	600.0	700.0	2150.0	2100.0	0.0	1.0	600.0	n/a	stop_stim
170458.01177594729	1188.9882240527106	n/a	-1	-1	2750	1188.98822405	stim	stop-signal	276	712627	0.0-13.38-1.38	beast_fmri_test	329	710221,/,710898,/,711579,/,712260,/,712939,/,713618,/	t,t,t,t,t,t	<img class = center src='/static/experiments/beast_fmri_test/images/P.png'></img>	89,71	2750.0	test	<img class = center src='/static/experiments/beast_fmri_test/images/redP.png'></img>	stop	2150.0	3.0	38.0	stop	target	P	89,Middle Finger	71,Index Finger	600.0	700.0	2150.0	2100.0	0.0	1.0	600.0	n/a	ITI
173364	500	n/a	-1	-1	500	0.0	fixation	poldrack-single-stim	277	714344	0.0-13.39-0.39	beast_fmri_test	329	714299,/	t	<div class = centerbox2><div class = fixation>+</div></div>	none	500.0	test	n/a	n/a	n/a	n/a	n/a	n/a	n/a	n/a	n/a	n/a	n/a	n/a	n/a	n/a	n/a	n/a	n/a	n/a	fixation
173077.78341001167	700.0	n/a	-1	-1	2750	287.216589988	stim	stop-signal	278	717095	0.0-13.39-1.39	beast_fmri_test	329	714977,/,715656,/,716337,/,717017,/	t,t,t,t	<img class = center src='/static/experiments/beast_fmri_test/images/V.png'></img>	89,71	2750.0	test	<img class = center src='/static/experiments/beast_fmri_test/images/redV.png'></img>	stop	2050.0	3.0	39.0	stop	non-target	V	89,Middle Finger	71,Index Finger	650.0	700.0	2150.0	2050.0	0.0	1.0	700.0	n/a	go_stim
175127.78341001167	2050.0	n/a	-1	-1	2750	287.216589988	stim	stop-signal	278	717095	0.0-13.39-1.39	beast_fmri_test	329	714977,/,715656,/,716337,/,717017,/	t,t,t,t	<img class = center src='/static/experiments/beast_fmri_test/images/V.png'></img>	89,71	2750.0	test	<img class = center src='/static/experiments/beast_fmri_test/images/redV.png'></img>	stop	2050.0	3.0	39.0	stop	non-target	V	89,Middle Finger	71,Index Finger	650.0	700.0	2150.0	2050.0	0.0	1.0	700.0	n/a	stop_stim
175827.78341001167	287.21658998832152	n/a	-1	-1	2750	287.216589988	stim	stop-signal	278	717095	0.0-13.39-1.39	beast_fmri_test	329	714977,/,715656,/,716337,/,717017,/	t,t,t,t	<img class = center src='/static/experiments/beast_fmri_test/images/V.png'></img>	89,71	2750.0	test	<img class = center src='/static/experiments/beast_fmri_test/images/redV.png'></img>	stop	2050.0	3.0	39.0	stop	non-target	V	89,Middle Finger	71,Index Finger	650.0	700.0	2150.0	2050.0	0.0	1.0	700.0	n/a	ITI
176932	500	n/a	-1	-1	500	0.0	fixation	poldrack-single-stim	279	717912	0.0-13.40-0.40	beast_fmri_test	329	717695,/	t	<div class = centerbox2><div class = fixation>+</div></div>	none	500.0	test	n/a	n/a	n/a	n/a	n/a	n/a	n/a	n/a	n/a	n/a	n/a	n/a	n/a	n/a	n/a	n/a	n/a	n/a	fixation
175223.91019406437	750.0	n/a	-1	-1	2750	1710.08980594	stim	stop-signal	280	720664	0.0-13.40-1.40	beast_fmri_test	329	718377,/,719055,/,719736,/,720415,/,721096,/,721775,/	t,t,t,t,t,t	<img class = center src='/static/experiments/beast_fmri_test/images/V.png'></img>	89,71	2750.0	test	<img class = center src='/static/experiments/beast_fmri_test/images/redV.png'></img>	stop	2000.0	3.0	40.0	stop	non-target	V	89,Middle Finger	71,Index Finger	650.0	750.0	2150.0	2000.0	0.0	1.0	750.0	n/a	go_stim
177223.91019406437	2000.0	n/a	-1	-1	2750	1710.08980594	stim	stop-signal	280	720664	0.0-13.40-1.40	beast_fmri_test	329	718377,/,719055,/,719736,/,720415,/,721096,/,721775,/	t,t,t,t,t,t	<img class = center src='/static/experiments/beast_fmri_test/images/V.png'></img>	89,71	2750.0	test	<img class = center src='/static/experiments/beast_fmri_test/images/redV.png'></img>	stop	2000.0	3.0	40.0	stop	non-target	V	89,Middle Finger	71,Index Finger	650.0	750.0	2150.0	2000.0	0.0	1.0	750.0	n/a	stop_stim
177973.91019406437	1710.0898059356036	n/a	-1	-1	2750	1710.08980594	stim	stop-signal	280	720664	0.0-13.40-1.40	beast_fmri_test	329	718377,/,719055,/,719736,/,720415,/,721096,/,721775,/	t,t,t,t,t,t	<img class = center src='/static/experiments/beast_fmri_test/images/V.png'></img>	89,71	2750.0	test	<img class = center src='/static/experiments/beast_fmri_test/images/redV.png'></img>	stop	2000.0	3.0	40.0	stop	non-target	V	89,Middle Finger	71,Index Finger	650.0	750.0	2150.0	2000.0	0.0	1.0	750.0	n/a	ITI
181926	500	n/a	-1	-1	500	0.0	fixation	poldrack-single-stim	281	722906	0.0-13.41-0.41	beast_fmri_test	329	722454,/	t	<div class = centerbox2><div class = fixation>+</div></div>	none	500.0	test	n/a	n/a	n/a	n/a	n/a	n/a	n/a	n/a	n/a	n/a	n/a	n/a	n/a	n/a	n/a	n/a	n/a	n/a	fixation
181758.99422337511	800.0	n/a	603	71	2750	168.005776625	stim	stop-signal	282	725657	0.0-13.41-1.41	beast_fmri_test	329	723134,/,723814,/,724493,/,725173,/	t,t,t,t	<img class = center src='/static/experiments/beast_fmri_test/images/V.png'></img>	89,71	2750.0	test	<img class = center src='/static/experiments/beast_fmri_test/images/redV.png'></img>	stop	1950.0	3.0	41.0	stop	non-target	V	89,Middle Finger	71,Index Finger	650.0	800.0	2150.0	1950.0	0.0	0.0	800.0	n/a	go_stim
183708.99422337511	1950.0	n/a	603	71	2750	168.005776625	stim	stop-signal	282	725657	0.0-13.41-1.41	beast_fmri_test	329	723134,/,723814,/,724493,/,725173,/	t,t,t,t	<img class = center src='/static/experiments/beast_fmri_test/images/V.png'></img>	89,71	2750.0	test	<img class = center src='/static/experiments/beast_fmri_test/images/redV.png'></img>	stop	1950.0	3.0	41.0	stop	non-target	V	89,Middle Finger	71,Index Finger	650.0	800.0	2150.0	1950.0	0.0	0.0	800.0	n/a	stop_stim
184508.99422337511	168.00577662487103	n/a	603	71	2750	168.005776625	stim	stop-signal	282	725657	0.0-13.41-1.41	beast_fmri_test	329	723134,/,723814,/,724493,/,725173,/	t,t,t,t	<img class = center src='/static/experiments/beast_fmri_test/images/V.png'></img>	89,71	2750.0	test	<img class = center src='/static/experiments/beast_fmri_test/images/redV.png'></img>	stop	1950.0	3.0	41.0	stop	non-target	V	89,Middle Finger	71,Index Finger	650.0	800.0	2150.0	1950.0	0.0	0.0	800.0	n/a	ITI
185382	500	n/a	-1	-1	500	0.0	fixation	poldrack-single-stim	283	726362	0.0-13.42-0.42	beast_fmri_test	329	725860,/	t	<div class = centerbox2><div class = fixation>+</div></div>	none	500.0	test	n/a	n/a	n/a	n/a	n/a	n/a	n/a	n/a	n/a	n/a	n/a	n/a	n/a	n/a	n/a	n/a	n/a	n/a	fixation
184045.29172927444	2750	n/a	2015	71	2750	1337.70827073	stim	stop-signal	284	729113	0.0-13.42-1.42	beast_fmri_test	329	726531,/,727213,/,727891,/,728572,/,729250,/,729930,/	t,t,t,t,t,t	<img class = center src='/static/experiments/beast_fmri_test/images/T.png'></img>	89,71	2750.0	test	<img class = center src='/static/experiments/beast_fmri_test/images/redT.png'></img>	go	2000.0	3.0	42.0	go	non-target	T	89,Middle Finger	71,Index Finger	650.0	750.0	2150.0	2000.0	1.0	n/a	750.0	1.0	go_stim
186795.29172927444	1337.7082707255881	n/a	2015	71	2750	1337.70827073	stim	stop-signal	284	729113	0.0-13.42-1.42	beast_fmri_test	329	726531,/,727213,/,727891,/,728572,/,729250,/,729930,/	t,t,t,t,t,t	<img class = center src='/static/experiments/beast_fmri_test/images/T.png'></img>	89,71	2750.0	test	<img class = center src='/static/experiments/beast_fmri_test/images/redT.png'></img>	go	2000.0	3.0	42.0	go	non-target	T	89,Middle Finger	71,Index Finger	650.0	750.0	2150.0	2000.0	1.0	n/a	750.0	1.0	ITI
190002	500	n/a	-1	-1	500	0.0	fixation	poldrack-single-stim	285	730982	0.0-13.43-0.43	beast_fmri_test	329	730611,/	t	<div class = centerbox2><div class = fixation>+</div></div>	none	500.0	test	n/a	n/a	n/a	n/a	n/a	n/a	n/a	n/a	n/a	n/a	n/a	n/a	n/a	n/a	n/a	n/a	n/a	n/a	fixation
187491.86767302046	2750	n/a	-1	-1	2750	2511.13232698	stim	stop-signal	286	733733	0.0-13.43-1.43	beast_fmri_test	329	731289,/,731970,/,732649,/,733329,/,734008,/,734687,/,735367,/,736047,/	t,t,t,t,t,t,t,t	<img class = center src='/static/experiments/beast_fmri_test/images/P.png'></img>	89,71	2750.0	test	<img class = center src='/static/experiments/beast_fmri_test/images/redP.png'></img>	go	2000.0	3.0	43.0	go	non-target	P	89,Middle Finger	71,Index Finger	650.0	750.0	2150.0	2000.0	0.0	n/a	750.0	0.0	go_stim
190241.86767302046	2511.132326979573	n/a	-1	-1	2750	2511.13232698	stim	stop-signal	286	733733	0.0-13.43-1.43	beast_fmri_test	329	731289,/,731970,/,732649,/,733329,/,734008,/,734687,/,735367,/,736047,/	t,t,t,t,t,t,t,t	<img class = center src='/static/experiments/beast_fmri_test/images/P.png'></img>	89,71	2750.0	test	<img class = center src='/static/experiments/beast_fmri_test/images/redP.png'></img>	go	2000.0	3.0	43.0	go	non-target	P	89,Middle Finger	71,Index Finger	650.0	750.0	2150.0	2000.0	0.0	n/a	750.0	0.0	ITI
195793	500	n/a	-1	-1	500	0.0	fixation	poldrack-single-stim	287	736773	0.0-13.44-0.44	beast_fmri_test	329	736727,/	t	<div class = centerbox2><div class = fixation>+</div></div>	none	500.0	test	n/a	n/a	n/a	n/a	n/a	n/a	n/a	n/a	n/a	n/a	n/a	n/a	n/a	n/a	n/a	n/a	n/a	n/a	fixation
195266.57276523265	2750	n/a	1736	71	2750	527.427234767	stim	stop-signal	288	739524	0.0-13.44-1.44	beast_fmri_test	329	737406,/,738087,/,738766,/,739446,/	t,t,t,t	<img class = center src='/static/experiments/beast_fmri_test/images/V.png'></img>	89,71	2750.0	test	<img class = center src='/static/experiments/beast_fmri_test/images/redV.png'></img>	go	2100.0	3.0	44.0	go	target	V	89,Middle Finger	71,Index Finger	650.0	750.0	2100.0	2000.0	0.0	n/a	650.0	0.0	go_stim
198016.57276523265	527.42723476740673	n/a	1736	71	2750	527.427234767	stim	stop-signal	288	739524	0.0-13.44-1.44	beast_fmri_test	329	737406,/,738087,/,738766,/,739446,/	t,t,t,t	<img class = center src='/static/experiments/beast_fmri_test/images/V.png'></img>	89,71	2750.0	test	<img class = center src='/static/experiments/beast_fmri_test/images/redV.png'></img>	go	2100.0	3.0	44.0	go	target	V	89,Middle Finger	71,Index Finger	650.0	750.0	2100.0	2000.0	0.0	n/a	650.0	0.0	ITI
199608	500	n/a	-1	-1	500	0.0	fixation	poldrack-single-stim	289	740588	0.0-13.45-0.45	beast_fmri_test	329	740124,/	t	<div class = centerbox2><div class = fixation>+</div></div>	none	500.0	test	n/a	n/a	n/a	n/a	n/a	n/a	n/a	n/a	n/a	n/a	n/a	n/a	n/a	n/a	n/a	n/a	n/a	n/a	fixation
199507.12706215761	750.0	n/a	-1	-1	2750	102.872937842	stim	stop-signal	290	743340	0.0-13.45-1.45	beast_fmri_test	329	740806,/,741485,/,742166,/,742844,/	t,t,t,t	<img class = center src='/static/experiments/beast_fmri_test/images/P.png'></img>	89,71	2750.0	test	<img class = center src='/static/experiments/beast_fmri_test/images/redP.png'></img>	stop	2000.0	3.0	45.0	stop	non-target	P	89,Middle Finger	71,Index Finger	650.0	750.0	2100.0	2000.0	0.0	1.0	750.0	n/a	go_stim
201507.12706215761	2000.0	n/a	-1	-1	2750	102.872937842	stim	stop-signal	290	743340	0.0-13.45-1.45	beast_fmri_test	329	740806,/,741485,/,742166,/,742844,/	t,t,t,t	<img class = center src='/static/experiments/beast_fmri_test/images/P.png'></img>	89,71	2750.0	test	<img class = center src='/static/experiments/beast_fmri_test/images/redP.png'></img>	stop	2000.0	3.0	45.0	stop	non-target	P	89,Middle Finger	71,Index Finger	650.0	750.0	2100.0	2000.0	0.0	1.0	750.0	n/a	stop_stim
202257.12706215761	102.87293784243586	n/a	-1	-1	2750	102.872937842	stim	stop-signal	290	743340	0.0-13.45-1.45	beast_fmri_test	329	740806,/,741485,/,742166,/,742844,/	t,t,t,t	<img class = center src='/static/experiments/beast_fmri_test/images/P.png'></img>	89,71	2750.0	test	<img class = center src='/static/experiments/beast_fmri_test/images/redP.png'></img>	stop	2000.0	3.0	45.0	stop	non-target	P	89,Middle Finger	71,Index Finger	650.0	750.0	2100.0	2000.0	0.0	1.0	750.0	n/a	ITI
202996	500	n/a	-1	-1	500	0.0	fixation	poldrack-single-stim	291	743976	0.0-13.46-0.46	beast_fmri_test	329	743524,/	t	<div class = centerbox2><div class = fixation>+</div></div>	none	500.0	test	n/a	n/a	n/a	n/a	n/a	n/a	n/a	n/a	n/a	n/a	n/a	n/a	n/a	n/a	n/a	n/a	n/a	n/a	fixation
201021.53246357443	2750	n/a	-1	-1	2750	1975.46753643	stim	stop-signal	292	746727	0.0-13.46-1.46	beast_fmri_test	329	744204,/,744885,/,745563,/,746244,/,746923,/,747603,/,748283,/	t,t,t,t,t,t,t	<img class = center src='/static/experiments/beast_fmri_test/images/T.png'></img>	89,71	2750.0	test	<img class = center src='/static/experiments/beast_fmri_test/images/redT.png'></img>	go	1950.0	3.0	46.0	go	non-target	T	89,Middle Finger	71,Index Finger	650.0	800.0	2100.0	1950.0	0.0	n/a	800.0	0.0	go_stim
203771.53246357443	1975.4675364256186	n/a	-1	-1	2750	1975.46753643	stim	stop-signal	292	746727	0.0-13.46-1.46	beast_fmri_test	329	744204,/,744885,/,745563,/,746244,/,746923,/,747603,/,748283,/	t,t,t,t,t,t,t	<img class = center src='/static/experiments/beast_fmri_test/images/T.png'></img>	89,71	2750.0	test	<img class = center src='/static/experiments/beast_fmri_test/images/redT.png'></img>	go	1950.0	3.0	46.0	go	non-target	T	89,Middle Finger	71,Index Finger	650.0	800.0	2100.0	1950.0	0.0	n/a	800.0	0.0	ITI
208255	500	n/a	-1	-1	500	0.0	fixation	poldrack-single-stim	293	749235	0.0-13.47-0.47	beast_fmri_test	329	748963,/	t	<div class = centerbox2><div class = fixation>+</div></div>	none	500.0	test	n/a	n/a	n/a	n/a	n/a	n/a	n/a	n/a	n/a	n/a	n/a	n/a	n/a	n/a	n/a	n/a	n/a	n/a	fixation
207878.02349663782	2750	n/a	-1	-1	2750	377.976503362	stim	stop-signal	294	751986	0.0-13.47-1.47	beast_fmri_test	329	749641,/,750321,/,751002,/,751680,/,752361,/	t,t,t,t,t	<img class = center src='/static/experiments/beast_fmri_test/images/V.png'></img>	89,71	2750.0	test	<img class = center src='/static/experiments/beast_fmri_test/images/redV.png'></img>	go	2100.0	3.0	47.0	go	target	V	89,Middle Finger	71,Index Finger	650.0	800.0	2100.0	1950.0	0.0	n/a	650.0	0.0	go_stim
210628.02349663782	377.97650336213934	n/a	-1	-1	2750	377.976503362	stim	stop-signal	294	751986	0.0-13.47-1.47	beast_fmri_test	329	749641,/,750321,/,751002,/,751680,/,752361,/	t,t,t,t,t	<img class = center src='/static/experiments/beast_fmri_test/images/V.png'></img>	89,71	2750.0	test	<img class = center src='/static/experiments/beast_fmri_test/images/redV.png'></img>	go	2100.0	3.0	47.0	go	target	V	89,Middle Finger	71,Index Finger	650.0	800.0	2100.0	1950.0	0.0	n/a	650.0	0.0	ITI
226409	15000	n/a	-1	-1	15000	0.0	practice-no-stop-feedback	poldrack-single-stim	295	767389	0.0-14.0	beast_fmri_test	329	753039,/,753720,/,754399,/,755080,/,755758,/,756438,/,757118,/,757798,/,758478,/,759158,/,759837,/,760517,/,761196,/,761875,/,762556,/,763234,/,763915,/,764594,/,765275,/,765954,/,766633,/,767313,/	t,t,t,t,t,t,t,t,t,t,t,t,t,t,t,t,t,t,t,t,t,t	"<div class = ""centerbox""><p class = ""block-text"">Your delay is 2 trials.</p><p class = block-text>Please wait for the scanner to start the block</p></div>"	77	15000.0	n/a	n/a	n/a	n/a	n/a	n/a	n/a	n/a	n/a	n/a	n/a	n/a	n/a	n/a	n/a	n/a	n/a	n/a	n/a	practice-no-stop-feedback
226911	500	n/a	-1	-1	500	0.0	fixation	poldrack-single-stim	296	767891	0.0-15.0-0.0	beast_fmri_test	329	n/a	n/a	<div class = centerbox2><div class = fixation>+</div></div>	none	500.0	test	n/a	n/a	n/a	n/a	n/a	n/a	n/a	n/a	n/a	n/a	n/a	n/a	n/a	n/a	n/a	n/a	n/a	n/a	fixation
225788.03102331306	temp_go_duration	n/a	1650	71	2750	1123.96897669	stim	stop-signal	297	770642	0.0-15.0-1.0	beast_fmri_test	329	767993,/,768673,/,769354,/,770033,/,770711,/,771392,/	t,t,t,t,t,t	<img class = center src='/static/experiments/beast_fmri_test/images/V.png'></img>	89,71	2750.0	test	<img class = center src='/static/experiments/beast_fmri_test/images/redV.png'></img>	stop	-1.0	2.0	0.0	stop	temp-non-target	V	89,Middle Finger	71,Index Finger	650.0	800.0	2100.0	1950.0	0.0	0.0	n/a	n/a	go_stim
temp-non-target	temp_stop_duration	n/a	1650	71	2750	1123.96897669	stim	stop-signal	297	770642	0.0-15.0-1.0	beast_fmri_test	329	767993,/,768673,/,769354,/,770033,/,770711,/,771392,/	t,t,t,t,t,t	<img class = center src='/static/experiments/beast_fmri_test/images/V.png'></img>	89,71	2750.0	test	<img class = center src='/static/experiments/beast_fmri_test/images/redV.png'></img>	stop	-1.0	2.0	0.0	stop	temp-non-target	V	89,Middle Finger	71,Index Finger	650.0	800.0	2100.0	1950.0	0.0	0.0	n/a	n/a	stop_stim
228538.03102331306	1123.968976686979	n/a	1650	71	2750	1123.96897669	stim	stop-signal	297	770642	0.0-15.0-1.0	beast_fmri_test	329	767993,/,768673,/,769354,/,770033,/,770711,/,771392,/	t,t,t,t,t,t	<img class = center src='/static/experiments/beast_fmri_test/images/V.png'></img>	89,71	2750.0	test	<img class = center src='/static/experiments/beast_fmri_test/images/redV.png'></img>	stop	-1.0	2.0	0.0	stop	temp-non-target	V	89,Middle Finger	71,Index Finger	650.0	800.0	2100.0	1950.0	0.0	0.0	n/a	n/a	ITI
231318	500	n/a	-1	-1	500	0.0	fixation	poldrack-single-stim	298	772298	0.0-15.1-0.1	beast_fmri_test	329	772071,/	t	<div class = centerbox2><div class = fixation>+</div></div>	none	500.0	test	n/a	n/a	n/a	n/a	n/a	n/a	n/a	n/a	n/a	n/a	n/a	n/a	n/a	n/a	n/a	n/a	n/a	n/a	fixation
228585.51420304948	2750	n/a	1579	89	2750	2733.48579695	stim	stop-signal	299	775049	0.0-15.1-1.1	beast_fmri_test	329	772752,/,773430,/,774111,/,774789,/,775470,/,776149,/,776830,/,777509,/	t,t,t,t,t,t,t,t	<img class = center src='/static/experiments/beast_fmri_test/images/V.png'></img>	89,71	2750.0	test	<img class = center src='/static/experiments/beast_fmri_test/images/redV.png'></img>	go	-1.0	2.0	1.0	go	temp-non-target	V	89,Middle Finger	71,Index Finger	650.0	800.0	2100.0	1950.0	0.0	n/a	n/a	n/a	go_stim
231335.51420304948	2733.4857969504997	n/a	1579	89	2750	2733.48579695	stim	stop-signal	299	775049	0.0-15.1-1.1	beast_fmri_test	329	772752,/,773430,/,774111,/,774789,/,775470,/,776149,/,776830,/,777509,/	t,t,t,t,t,t,t,t	<img class = center src='/static/experiments/beast_fmri_test/images/V.png'></img>	89,71	2750.0	test	<img class = center src='/static/experiments/beast_fmri_test/images/redV.png'></img>	go	-1.0	2.0	1.0	go	temp-non-target	V	89,Middle Finger	71,Index Finger	650.0	800.0	2100.0	1950.0	0.0	n/a	n/a	n/a	ITI
237335	500	n/a	-1	-1	500	0.0	fixation	poldrack-single-stim	300	778315	0.0-15.2-0.2	beast_fmri_test	329	778189,/	t	<div class = centerbox2><div class = fixation>+</div></div>	none	500.0	test	n/a	n/a	n/a	n/a	n/a	n/a	n/a	n/a	n/a	n/a	n/a	n/a	n/a	n/a	n/a	n/a	n/a	n/a	fixation
235800.55543679476	800.0	n/a	807	71	2750	1535.44456321	stim	stop-signal	301	781066	0.0-15.2-1.2	beast_fmri_test	329	778868,/,779548,/,780227,/,780907,/,781587,/,782266,/	t,t,t,t,t,t	<img class = center src='/static/experiments/beast_fmri_test/images/P.png'></img>	89,71	2750.0	test	<img class = center src='/static/experiments/beast_fmri_test/images/redP.png'></img>	stop	1950.0	2.0	2.0	stop	non-target	P	89,Middle Finger	71,Index Finger	650.0	800.0	2100.0	1950.0	0.0	0.0	800.0	n/a	go_stim
237750.55543679476	1950.0	n/a	807	71	2750	1535.44456321	stim	stop-signal	301	781066	0.0-15.2-1.2	beast_fmri_test	329	778868,/,779548,/,780227,/,780907,/,781587,/,782266,/	t,t,t,t,t,t	<img class = center src='/static/experiments/beast_fmri_test/images/P.png'></img>	89,71	2750.0	test	<img class = center src='/static/experiments/beast_fmri_test/images/redP.png'></img>	stop	1950.0	2.0	2.0	stop	non-target	P	89,Middle Finger	71,Index Finger	650.0	800.0	2100.0	1950.0	0.0	0.0	800.0	n/a	stop_stim
238550.55543679476	1535.4445632051934	n/a	807	71	2750	1535.44456321	stim	stop-signal	301	781066	0.0-15.2-1.2	beast_fmri_test	329	778868,/,779548,/,780227,/,780907,/,781587,/,782266,/	t,t,t,t,t,t	<img class = center src='/static/experiments/beast_fmri_test/images/P.png'></img>	89,71	2750.0	test	<img class = center src='/static/experiments/beast_fmri_test/images/redP.png'></img>	stop	1950.0	2.0	2.0	stop	non-target	P	89,Middle Finger	71,Index Finger	650.0	800.0	2100.0	1950.0	0.0	0.0	800.0	n/a	ITI
242155	500	n/a	-1	-1	500	0.0	fixation	poldrack-single-stim	302	783135	0.0-15.3-0.3	beast_fmri_test	329	782947,/	t	<div class = centerbox2><div class = fixation>+</div></div>	none	500.0	test	n/a	n/a	n/a	n/a	n/a	n/a	n/a	n/a	n/a	n/a	n/a	n/a	n/a	n/a	n/a	n/a	n/a	n/a	fixation
242111.94578040519	2750	n/a	1033	89	2750	46.0542195948	stim	stop-signal	303	785888	0.0-15.3-1.3	beast_fmri_test	329	783625,/,784306,/,784984,/,785665,/	t,t,t,t	<img class = center src='/static/experiments/beast_fmri_test/images/V.png'></img>	89,71	2750.0	test	<img class = center src='/static/experiments/beast_fmri_test/images/redV.png'></img>	go	2100.0	2.0	3.0	go	target	V	89,Middle Finger	71,Index Finger	650.0	750.0	2100.0	1950.0	1.0	n/a	650.0	1.0	go_stim
244861.94578040519	46.05421959481945	n/a	1033	89	2750	46.0542195948	stim	stop-signal	303	785888	0.0-15.3-1.3	beast_fmri_test	329	783625,/,784306,/,784984,/,785665,/	t,t,t,t	<img class = center src='/static/experiments/beast_fmri_test/images/V.png'></img>	89,71	2750.0	test	<img class = center src='/static/experiments/beast_fmri_test/images/redV.png'></img>	go	2100.0	2.0	3.0	go	target	V	89,Middle Finger	71,Index Finger	650.0	750.0	2100.0	1950.0	1.0	n/a	650.0	1.0	ITI
245482	500	n/a	-1	-1	500	0.0	fixation	poldrack-single-stim	304	786462	0.0-15.4-0.4	beast_fmri_test	329	786345,/	t	<div class = centerbox2><div class = fixation>+</div></div>	none	500.0	test	n/a	n/a	n/a	n/a	n/a	n/a	n/a	n/a	n/a	n/a	n/a	n/a	n/a	n/a	n/a	n/a	n/a	n/a	fixation
245071.92214329378	750.0	n/a	928	71	2750	411.077856706	stim	stop-signal	305	789213	0.0-15.4-1.4	beast_fmri_test	329	787025,/,787704,/,788383,/,789063,/	t,t,t,t	<img class = center src='/static/experiments/beast_fmri_test/images/D.png'></img>	89,71	2750.0	test	<img class = center src='/static/experiments/beast_fmri_test/images/redD.png'></img>	stop	2000.0	2.0	4.0	stop	non-target	D	89,Middle Finger	71,Index Finger	650.0	750.0	2100.0	2000.0	0.0	0.0	750.0	n/a	go_stim
247071.92214329378	2000.0	n/a	928	71	2750	411.077856706	stim	stop-signal	305	789213	0.0-15.4-1.4	beast_fmri_test	329	787025,/,787704,/,788383,/,789063,/	t,t,t,t	<img class = center src='/static/experiments/beast_fmri_test/images/D.png'></img>	89,71	2750.0	test	<img class = center src='/static/experiments/beast_fmri_test/images/redD.png'></img>	stop	2000.0	2.0	4.0	stop	non-target	D	89,Middle Finger	71,Index Finger	650.0	750.0	2100.0	2000.0	0.0	0.0	750.0	n/a	stop_stim
247821.92214329378	411.07785670620001	n/a	928	71	2750	411.077856706	stim	stop-signal	305	789213	0.0-15.4-1.4	beast_fmri_test	329	787025,/,787704,/,788383,/,789063,/	t,t,t,t	<img class = center src='/static/experiments/beast_fmri_test/images/D.png'></img>	89,71	2750.0	test	<img class = center src='/static/experiments/beast_fmri_test/images/redD.png'></img>	stop	2000.0	2.0	4.0	stop	non-target	D	89,Middle Finger	71,Index Finger	650.0	750.0	2100.0	2000.0	0.0	0.0	750.0	n/a	ITI
249179	500	n/a	-1	-1	500	0.0	fixation	poldrack-single-stim	306	790159	0.0-15.5-0.5	beast_fmri_test	329	789742,/	t	<div class = centerbox2><div class = fixation>+</div></div>	none	500.0	test	n/a	n/a	n/a	n/a	n/a	n/a	n/a	n/a	n/a	n/a	n/a	n/a	n/a	n/a	n/a	n/a	n/a	n/a	fixation
248977.64972932672	2750	n/a	841	89	2750	202.350270673	stim	stop-signal	307	792910	0.0-15.5-1.5	beast_fmri_test	329	790423,/,791101,/,791782,/,792460,/	t,t,t,t	<img class = center src='/static/experiments/beast_fmri_test/images/V.png'></img>	89,71	2750.0	test	<img class = center src='/static/experiments/beast_fmri_test/images/redV.png'></img>	go	2100.0	2.0	5.0	go	target	V	89,Middle Finger	71,Index Finger	650.0	700.0	2100.0	2000.0	1.0	n/a	650.0	1.0	go_stim
251727.64972932672	202.3502706732769	n/a	841	89	2750	202.350270673	stim	stop-signal	307	792910	0.0-15.5-1.5	beast_fmri_test	329	790423,/,791101,/,791782,/,792460,/	t,t,t,t	<img class = center src='/static/experiments/beast_fmri_test/images/V.png'></img>	89,71	2750.0	test	<img class = center src='/static/experiments/beast_fmri_test/images/redV.png'></img>	go	2100.0	2.0	5.0	go	target	V	89,Middle Finger	71,Index Finger	650.0	700.0	2100.0	2000.0	1.0	n/a	650.0	1.0	ITI
252669	500	n/a	-1	-1	500	0.0	fixation	poldrack-single-stim	308	793649	0.0-15.6-0.6	beast_fmri_test	329	793147,/	t	<div class = centerbox2><div class = fixation>+</div></div>	none	500.0	test	n/a	n/a	n/a	n/a	n/a	n/a	n/a	n/a	n/a	n/a	n/a	n/a	n/a	n/a	n/a	n/a	n/a	n/a	fixation
250704.49031163065	2750	n/a	1007	89	2750	1965.50968837	stim	stop-signal	309	796400	0.0-15.6-1.6	beast_fmri_test	329	793820,/,794501,/,795179,/,795860,/,796538,/,797218,/,797899,/	t,t,t,t,t,t,t	<img class = center src='/static/experiments/beast_fmri_test/images/D.png'></img>	89,71	2750.0	test	<img class = center src='/static/experiments/beast_fmri_test/images/redD.png'></img>	go	2100.0	2.0	6.0	go	target	D	89,Middle Finger	71,Index Finger	650.0	700.0	2100.0	2000.0	1.0	n/a	650.0	1.0	go_stim
253454.49031163065	1965.5096883693247	n/a	1007	89	2750	1965.50968837	stim	stop-signal	309	796400	0.0-15.6-1.6	beast_fmri_test	329	793820,/,794501,/,795179,/,795860,/,796538,/,797218,/,797899,/	t,t,t,t,t,t,t	<img class = center src='/static/experiments/beast_fmri_test/images/D.png'></img>	89,71	2750.0	test	<img class = center src='/static/experiments/beast_fmri_test/images/redD.png'></img>	go	2100.0	2.0	6.0	go	target	D	89,Middle Finger	71,Index Finger	650.0	700.0	2100.0	2000.0	1.0	n/a	650.0	1.0	ITI
257916	500	n/a	-1	-1	500	0.0	fixation	poldrack-single-stim	310	798896	0.0-15.7-0.7	beast_fmri_test	329	798580,/	t	<div class = centerbox2><div class = fixation>+</div></div>	none	500.0	test	n/a	n/a	n/a	n/a	n/a	n/a	n/a	n/a	n/a	n/a	n/a	n/a	n/a	n/a	n/a	n/a	n/a	n/a	fixation
257878.41880603635	2750	n/a	584	71	2750	38.5811939637	stim	stop-signal	311	801647	0.0-15.7-1.7	beast_fmri_test	329	799260,/,799938,/,800619,/,801299,/	t,t,t,t	<img class = center src='/static/experiments/beast_fmri_test/images/P.png'></img>	89,71	2750.0	test	<img class = center src='/static/experiments/beast_fmri_test/images/redP.png'></img>	go	2050.0	2.0	7.0	go	non-target	P	89,Middle Finger	71,Index Finger	650.0	700.0	2100.0	2050.0	1.0	n/a	700.0	1.0	go_stim
260628.41880603635	38.581193963660546	n/a	584	71	2750	38.5811939637	stim	stop-signal	311	801647	0.0-15.7-1.7	beast_fmri_test	329	799260,/,799938,/,800619,/,801299,/	t,t,t,t	<img class = center src='/static/experiments/beast_fmri_test/images/P.png'></img>	89,71	2750.0	test	<img class = center src='/static/experiments/beast_fmri_test/images/redP.png'></img>	go	2050.0	2.0	7.0	go	non-target	P	89,Middle Finger	71,Index Finger	650.0	700.0	2100.0	2050.0	1.0	n/a	700.0	1.0	ITI
261240	500	n/a	-1	-1	500	0.0	fixation	poldrack-single-stim	312	802220	0.0-15.8-0.8	beast_fmri_test	329	801978,/	t	<div class = centerbox2><div class = fixation>+</div></div>	none	500.0	test	n/a	n/a	n/a	n/a	n/a	n/a	n/a	n/a	n/a	n/a	n/a	n/a	n/a	n/a	n/a	n/a	n/a	n/a	fixation
260416.10639476089	2750	n/a	1523	71	2750	824.893605239	stim	stop-signal	313	804971	0.0-15.8-1.8	beast_fmri_test	329	802658,/,803338,/,804016,/,804697,/,805376,/	t,t,t,t,t	<img class = center src='/static/experiments/beast_fmri_test/images/V.png'></img>	89,71	2750.0	test	<img class = center src='/static/experiments/beast_fmri_test/images/redV.png'></img>	go	2050.0	2.0	8.0	go	non-target	V	89,Middle Finger	71,Index Finger	650.0	700.0	2100.0	2050.0	1.0	n/a	700.0	1.0	go_stim
263166.10639476089	824.89360523911239	n/a	1523	71	2750	824.893605239	stim	stop-signal	313	804971	0.0-15.8-1.8	beast_fmri_test	329	802658,/,803338,/,804016,/,804697,/,805376,/	t,t,t,t,t	<img class = center src='/static/experiments/beast_fmri_test/images/V.png'></img>	89,71	2750.0	test	<img class = center src='/static/experiments/beast_fmri_test/images/redV.png'></img>	go	2050.0	2.0	8.0	go	non-target	V	89,Middle Finger	71,Index Finger	650.0	700.0	2100.0	2050.0	1.0	n/a	700.0	1.0	ITI
265349	500	n/a	-1	-1	500	0.0	fixation	poldrack-single-stim	314	806329	0.0-15.9-0.9	beast_fmri_test	329	806057,/	t	<div class = centerbox2><div class = fixation>+</div></div>	none	500.0	test	n/a	n/a	n/a	n/a	n/a	n/a	n/a	n/a	n/a	n/a	n/a	n/a	n/a	n/a	n/a	n/a	n/a	n/a	fixation
264297.82640035334	2750	n/a	773	71	2750	1053.17359965	stim	stop-signal	315	809081	0.0-15.9-1.9	beast_fmri_test	329	806734,/,807415,/,808094,/,808773,/,809453,/,810134,/	t,t,t,t,t,t	<img class = center src='/static/experiments/beast_fmri_test/images/D.png'></img>	89,71	2750.0	test	<img class = center src='/static/experiments/beast_fmri_test/images/redD.png'></img>	go	2050.0	2.0	9.0	go	non-target	D	89,Middle Finger	71,Index Finger	650.0	700.0	2100.0	2050.0	1.0	n/a	700.0	1.0	go_stim
267047.82640035334	1053.1735996466768	n/a	773	71	2750	1053.17359965	stim	stop-signal	315	809081	0.0-15.9-1.9	beast_fmri_test	329	806734,/,807415,/,808094,/,808773,/,809453,/,810134,/	t,t,t,t,t,t	<img class = center src='/static/experiments/beast_fmri_test/images/D.png'></img>	89,71	2750.0	test	<img class = center src='/static/experiments/beast_fmri_test/images/redD.png'></img>	go	2050.0	2.0	9.0	go	non-target	D	89,Middle Finger	71,Index Finger	650.0	700.0	2100.0	2050.0	1.0	n/a	700.0	1.0	ITI
269688	500	n/a	-1	-1	500	0.0	fixation	poldrack-single-stim	316	810668	0.0-15.10-0.10	beast_fmri_test	329	n/a	n/a	<div class = centerbox2><div class = fixation>+</div></div>	none	500.0	test	n/a	n/a	n/a	n/a	n/a	n/a	n/a	n/a	n/a	n/a	n/a	n/a	n/a	n/a	n/a	n/a	n/a	n/a	fixation
268277.07955389575	2750	n/a	911	89	2750	1412.9204461	stim	stop-signal	317	813420	0.0-15.10-1.10	beast_fmri_test	329	810814,/,811492,/,812173,/,812851,/,813532,/,814211,/	t,t,t,t,t,t	<img class = center src='/static/experiments/beast_fmri_test/images/V.png'></img>	89,71	2750.0	test	<img class = center src='/static/experiments/beast_fmri_test/images/redV.png'></img>	go	2100.0	2.0	10.0	go	target	V	89,Middle Finger	71,Index Finger	650.0	700.0	2100.0	2050.0	1.0	n/a	650.0	1.0	go_stim
271027.07955389575	1412.9204461042623	n/a	911	89	2750	1412.9204461	stim	stop-signal	317	813420	0.0-15.10-1.10	beast_fmri_test	329	810814,/,811492,/,812173,/,812851,/,813532,/,814211,/	t,t,t,t,t,t	<img class = center src='/static/experiments/beast_fmri_test/images/V.png'></img>	89,71	2750.0	test	<img class = center src='/static/experiments/beast_fmri_test/images/redV.png'></img>	go	2100.0	2.0	10.0	go	target	V	89,Middle Finger	71,Index Finger	650.0	700.0	2100.0	2050.0	1.0	n/a	650.0	1.0	ITI
274387	500	n/a	-1	-1	500	0.0	fixation	poldrack-single-stim	318	815367	0.0-15.11-0.11	beast_fmri_test	329	814890,/	t	<div class = centerbox2><div class = fixation>+</div></div>	none	500.0	test	n/a	n/a	n/a	n/a	n/a	n/a	n/a	n/a	n/a	n/a	n/a	n/a	n/a	n/a	n/a	n/a	n/a	n/a	fixation
273342.27490568638	2750	n/a	976	71	2750	1045.72509431	stim	stop-signal	319	818118	0.0-15.11-1.11	beast_fmri_test	329	815570,/,816251,/,816929,/,817610,/,818289,/,818970,/	t,t,t,t,t,t	<img class = center src='/static/experiments/beast_fmri_test/images/B.png'></img>	89,71	2750.0	test	<img class = center src='/static/experiments/beast_fmri_test/images/redB.png'></img>	go	2050.0	2.0	11.0	go	non-target	B	89,Middle Finger	71,Index Finger	650.0	700.0	2100.0	2050.0	1.0	n/a	700.0	1.0	go_stim
276092.27490568638	1045.7250943135775	n/a	976	71	2750	1045.72509431	stim	stop-signal	319	818118	0.0-15.11-1.11	beast_fmri_test	329	815570,/,816251,/,816929,/,817610,/,818289,/,818970,/	t,t,t,t,t,t	<img class = center src='/static/experiments/beast_fmri_test/images/B.png'></img>	89,71	2750.0	test	<img class = center src='/static/experiments/beast_fmri_test/images/redB.png'></img>	go	2050.0	2.0	11.0	go	non-target	B	89,Middle Finger	71,Index Finger	650.0	700.0	2100.0	2050.0	1.0	n/a	700.0	1.0	ITI
278722	500	n/a	-1	-1	500	0.0	fixation	poldrack-single-stim	320	819702	0.0-15.12-0.12	beast_fmri_test	329	819648,/	t	<div class = centerbox2><div class = fixation>+</div></div>	none	500.0	test	n/a	n/a	n/a	n/a	n/a	n/a	n/a	n/a	n/a	n/a	n/a	n/a	n/a	n/a	n/a	n/a	n/a	n/a	fixation
278649.18313861324	700.0	n/a	-1	-1	2750	73.8168613868	stim	stop-signal	321	822453	0.0-15.12-1.12	beast_fmri_test	329	820330,/,821009,/,821689,/,822368,/	t,t,t,t	<img class = center src='/static/experiments/beast_fmri_test/images/B.png'></img>	89,71	2750.0	test	<img class = center src='/static/experiments/beast_fmri_test/images/redB.png'></img>	stop	2050.0	2.0	12.0	stop	non-target	B	89,Middle Finger	71,Index Finger	650.0	700.0	2100.0	2050.0	0.0	1.0	700.0	n/a	go_stim
280699.18313861324	2050.0	n/a	-1	-1	2750	73.8168613868	stim	stop-signal	321	822453	0.0-15.12-1.12	beast_fmri_test	329	820330,/,821009,/,821689,/,822368,/	t,t,t,t	<img class = center src='/static/experiments/beast_fmri_test/images/B.png'></img>	89,71	2750.0	test	<img class = center src='/static/experiments/beast_fmri_test/images/redB.png'></img>	stop	2050.0	2.0	12.0	stop	non-target	B	89,Middle Finger	71,Index Finger	650.0	700.0	2100.0	2050.0	0.0	1.0	700.0	n/a	stop_stim
281399.18313861324	73.816861386768409	n/a	-1	-1	2750	73.8168613868	stim	stop-signal	321	822453	0.0-15.12-1.12	beast_fmri_test	329	820330,/,821009,/,821689,/,822368,/	t,t,t,t	<img class = center src='/static/experiments/beast_fmri_test/images/B.png'></img>	89,71	2750.0	test	<img class = center src='/static/experiments/beast_fmri_test/images/redB.png'></img>	stop	2050.0	2.0	12.0	stop	non-target	B	89,Middle Finger	71,Index Finger	650.0	700.0	2100.0	2050.0	0.0	1.0	700.0	n/a	ITI
282081	500	n/a	-1	-1	500	0.0	fixation	poldrack-single-stim	322	823061	0.0-15.13-0.13	beast_fmri_test	329	823048,/	t	<div class = centerbox2><div class = fixation>+</div></div>	none	500.0	test	n/a	n/a	n/a	n/a	n/a	n/a	n/a	n/a	n/a	n/a	n/a	n/a	n/a	n/a	n/a	n/a	n/a	n/a	fixation
281992.72433882288	2750	n/a	814	89	2750	89.2756611771	stim	stop-signal	323	825812	0.0-15.13-1.13	beast_fmri_test	329	823728,/,824406,/,825087,/,825765,/	t,t,t,t	<img class = center src='/static/experiments/beast_fmri_test/images/B.png'></img>	89,71	2750.0	test	<img class = center src='/static/experiments/beast_fmri_test/images/redB.png'></img>	go	2100.0	2.0	13.0	go	target	B	89,Middle Finger	71,Index Finger	650.0	750.0	2100.0	2050.0	1.0	n/a	650.0	1.0	go_stim
284742.72433882288	89.275661177061366	n/a	814	89	2750	89.2756611771	stim	stop-signal	323	825812	0.0-15.13-1.13	beast_fmri_test	329	823728,/,824406,/,825087,/,825765,/	t,t,t,t	<img class = center src='/static/experiments/beast_fmri_test/images/B.png'></img>	89,71	2750.0	test	<img class = center src='/static/experiments/beast_fmri_test/images/redB.png'></img>	go	2100.0	2.0	13.0	go	target	B	89,Middle Finger	71,Index Finger	650.0	750.0	2100.0	2050.0	1.0	n/a	650.0	1.0	ITI
285458	500	n/a	-1	-1	500	0.0	fixation	poldrack-single-stim	324	826438	0.0-15.14-0.14	beast_fmri_test	329	n/a	n/a	<div class = centerbox2><div class = fixation>+</div></div>	none	500.0	test	n/a	n/a	n/a	n/a	n/a	n/a	n/a	n/a	n/a	n/a	n/a	n/a	n/a	n/a	n/a	n/a	n/a	n/a	fixation
283603.35999677482	2750	n/a	960	89	2750	1855.64000323	stim	stop-signal	325	829189	0.0-15.14-1.14	beast_fmri_test	329	826446,/,827125,/,827806,/,828484,/,829166,/,829844,/,830525,/	t,t,t,t,t,t,t	<img class = center src='/static/experiments/beast_fmri_test/images/B.png'></img>	89,71	2750.0	test	<img class = center src='/static/experiments/beast_fmri_test/images/redB.png'></img>	go	2100.0	2.0	14.0	go	target	B	89,Middle Finger	71,Index Finger	650.0	750.0	2100.0	2050.0	1.0	n/a	650.0	1.0	go_stim
286353.35999677482	1855.6400032252093	n/a	960	89	2750	1855.64000323	stim	stop-signal	325	829189	0.0-15.14-1.14	beast_fmri_test	329	826446,/,827125,/,827806,/,828484,/,829166,/,829844,/,830525,/	t,t,t,t,t,t,t	<img class = center src='/static/experiments/beast_fmri_test/images/B.png'></img>	89,71	2750.0	test	<img class = center src='/static/experiments/beast_fmri_test/images/redB.png'></img>	go	2100.0	2.0	14.0	go	target	B	89,Middle Finger	71,Index Finger	650.0	750.0	2100.0	2050.0	1.0	n/a	650.0	1.0	ITI
290599	500	n/a	-1	-1	500	0.0	fixation	poldrack-single-stim	326	831579	0.0-15.15-0.15	beast_fmri_test	329	831204,/	t	<div class = centerbox2><div class = fixation>+</div></div>	none	500.0	test	n/a	n/a	n/a	n/a	n/a	n/a	n/a	n/a	n/a	n/a	n/a	n/a	n/a	n/a	n/a	n/a	n/a	n/a	fixation
289622.7653291045	2750	n/a	1238	71	2750	979.234670895	stim	stop-signal	327	834332	0.0-15.15-1.15	beast_fmri_test	329	831884,/,832564,/,833242,/,833923,/,834602,/,835283,/	t,t,t,t,t,t	<img class = center src='/static/experiments/beast_fmri_test/images/D.png'></img>	89,71	2750.0	test	<img class = center src='/static/experiments/beast_fmri_test/images/redD.png'></img>	go	2000.0	2.0	15.0	go	non-target	D	89,Middle Finger	71,Index Finger	650.0	750.0	2100.0	2000.0	1.0	n/a	750.0	1.0	go_stim
292372.7653291045	979.23467089547933	n/a	1238	71	2750	979.234670895	stim	stop-signal	327	834332	0.0-15.15-1.15	beast_fmri_test	329	831884,/,832564,/,833242,/,833923,/,834602,/,835283,/	t,t,t,t,t,t	<img class = center src='/static/experiments/beast_fmri_test/images/D.png'></img>	89,71	2750.0	test	<img class = center src='/static/experiments/beast_fmri_test/images/redD.png'></img>	go	2000.0	2.0	15.0	go	non-target	D	89,Middle Finger	71,Index Finger	650.0	750.0	2100.0	2000.0	1.0	n/a	750.0	1.0	ITI
294864	500	n/a	-1	-1	500	0.0	fixation	poldrack-single-stim	328	835844	0.0-15.16-0.16	beast_fmri_test	329	n/a	n/a	<div class = centerbox2><div class = fixation>+</div></div>	none	500.0	test	n/a	n/a	n/a	n/a	n/a	n/a	n/a	n/a	n/a	n/a	n/a	n/a	n/a	n/a	n/a	n/a	n/a	n/a	fixation
293695.29723023355	750.0	n/a	-1	-1	2750	1169.70276977	stim	stop-signal	329	838595	0.0-15.16-1.16	beast_fmri_test	329	835962,/,836642,/,837321,/,838002,/,838681,/,839361,/	t,t,t,t,t,t	<img class = center src='/static/experiments/beast_fmri_test/images/D.png'></img>	89,71	2750.0	test	<img class = center src='/static/experiments/beast_fmri_test/images/redD.png'></img>	stop	2000.0	2.0	16.0	stop	non-target	D	89,Middle Finger	71,Index Finger	650.0	750.0	2100.0	2000.0	0.0	1.0	750.0	n/a	go_stim
295695.29723023355	2000.0	n/a	-1	-1	2750	1169.70276977	stim	stop-signal	329	838595	0.0-15.16-1.16	beast_fmri_test	329	835962,/,836642,/,837321,/,838002,/,838681,/,839361,/	t,t,t,t,t,t	<img class = center src='/static/experiments/beast_fmri_test/images/D.png'></img>	89,71	2750.0	test	<img class = center src='/static/experiments/beast_fmri_test/images/redD.png'></img>	stop	2000.0	2.0	16.0	stop	non-target	D	89,Middle Finger	71,Index Finger	650.0	750.0	2100.0	2000.0	0.0	1.0	750.0	n/a	stop_stim
296445.29723023355	1169.7027697664234	n/a	-1	-1	2750	1169.70276977	stim	stop-signal	329	838595	0.0-15.16-1.16	beast_fmri_test	329	835962,/,836642,/,837321,/,838002,/,838681,/,839361,/	t,t,t,t,t,t	<img class = center src='/static/experiments/beast_fmri_test/images/D.png'></img>	89,71	2750.0	test	<img class = center src='/static/experiments/beast_fmri_test/images/redD.png'></img>	stop	2000.0	2.0	16.0	stop	non-target	D	89,Middle Finger	71,Index Finger	650.0	750.0	2100.0	2000.0	0.0	1.0	750.0	n/a	ITI
299317	500	n/a	-1	-1	500	0.0	fixation	poldrack-single-stim	330	840297	0.0-15.17-0.17	beast_fmri_test	329	840040,/	t	<div class = centerbox2><div class = fixation>+</div></div>	none	500.0	test	n/a	n/a	n/a	n/a	n/a	n/a	n/a	n/a	n/a	n/a	n/a	n/a	n/a	n/a	n/a	n/a	n/a	n/a	fixation
298646.88880650641	650.0	n/a	751	89	2750	672.111193494	stim	stop-signal	331	843049	0.0-15.17-1.17	beast_fmri_test	329	840720,/,841399,/,842079,/,842759,/,843437,/	t,t,t,t,t	<img class = center src='/static/experiments/beast_fmri_test/images/D.png'></img>	89,71	2750.0	test	<img class = center src='/static/experiments/beast_fmri_test/images/redD.png'></img>	stop	2100.0	2.0	17.0	stop	target	D	89,Middle Finger	71,Index Finger	650.0	800.0	2100.0	2000.0	0.0	0.0	650.0	n/a	go_stim
300746.88880650641	2100.0	n/a	751	89	2750	672.111193494	stim	stop-signal	331	843049	0.0-15.17-1.17	beast_fmri_test	329	840720,/,841399,/,842079,/,842759,/,843437,/	t,t,t,t,t	<img class = center src='/static/experiments/beast_fmri_test/images/D.png'></img>	89,71	2750.0	test	<img class = center src='/static/experiments/beast_fmri_test/images/redD.png'></img>	stop	2100.0	2.0	17.0	stop	target	D	89,Middle Finger	71,Index Finger	650.0	800.0	2100.0	2000.0	0.0	0.0	650.0	n/a	stop_stim
301396.88880650641	672.11119349364503	n/a	751	89	2750	672.111193494	stim	stop-signal	331	843049	0.0-15.17-1.17	beast_fmri_test	329	840720,/,841399,/,842079,/,842759,/,843437,/	t,t,t,t,t	<img class = center src='/static/experiments/beast_fmri_test/images/D.png'></img>	89,71	2750.0	test	<img class = center src='/static/experiments/beast_fmri_test/images/redD.png'></img>	stop	2100.0	2.0	17.0	stop	target	D	89,Middle Finger	71,Index Finger	650.0	800.0	2100.0	2000.0	0.0	0.0	650.0	n/a	ITI
303277	500	n/a	-1	-1	500	0.0	fixation	poldrack-single-stim	332	844257	0.0-15.18-0.18	beast_fmri_test	329	844118,/	t	<div class = centerbox2><div class = fixation>+</div></div>	none	500.0	test	n/a	n/a	n/a	n/a	n/a	n/a	n/a	n/a	n/a	n/a	n/a	n/a	n/a	n/a	n/a	n/a	n/a	n/a	fixation
301755.5531723639	800.0	n/a	969	71	2750	1523.44682764	stim	stop-signal	333	847009	0.0-15.18-1.18	beast_fmri_test	329	844797,/,845477,/,846156,/,846837,/,847515,/,848196,/	t,t,t,t,t,t	<img class = center src='/static/experiments/beast_fmri_test/images/V.png'></img>	89,71	2750.0	test	<img class = center src='/static/experiments/beast_fmri_test/images/redV.png'></img>	stop	1950.0	2.0	18.0	stop	non-target	V	89,Middle Finger	71,Index Finger	600.0	800.0	2100.0	1950.0	0.0	0.0	800.0	n/a	go_stim
303705.5531723639	1950.0	n/a	969	71	2750	1523.44682764	stim	stop-signal	333	847009	0.0-15.18-1.18	beast_fmri_test	329	844797,/,845477,/,846156,/,846837,/,847515,/,848196,/	t,t,t,t,t,t	<img class = center src='/static/experiments/beast_fmri_test/images/V.png'></img>	89,71	2750.0	test	<img class = center src='/static/experiments/beast_fmri_test/images/redV.png'></img>	stop	1950.0	2.0	18.0	stop	non-target	V	89,Middle Finger	71,Index Finger	600.0	800.0	2100.0	1950.0	0.0	0.0	800.0	n/a	stop_stim
304505.5531723639	1523.4468276361099	n/a	969	71	2750	1523.44682764	stim	stop-signal	333	847009	0.0-15.18-1.18	beast_fmri_test	329	844797,/,845477,/,846156,/,846837,/,847515,/,848196,/	t,t,t,t,t,t	<img class = center src='/static/experiments/beast_fmri_test/images/V.png'></img>	89,71	2750.0	test	<img class = center src='/static/experiments/beast_fmri_test/images/redV.png'></img>	stop	1950.0	2.0	18.0	stop	non-target	V	89,Middle Finger	71,Index Finger	600.0	800.0	2100.0	1950.0	0.0	0.0	800.0	n/a	ITI
308087	500	n/a	-1	-1	500	0.0	fixation	poldrack-single-stim	334	849067	0.0-15.19-0.19	beast_fmri_test	329	848876,/	t	<div class = centerbox2><div class = fixation>+</div></div>	none	500.0	test	n/a	n/a	n/a	n/a	n/a	n/a	n/a	n/a	n/a	n/a	n/a	n/a	n/a	n/a	n/a	n/a	n/a	n/a	fixation
307995.12859954312	600.0	n/a	1519	89	2750	91.8714004569	stim	stop-signal	335	851817	0.0-15.19-1.19	beast_fmri_test	329	849555,/,850235,/,850915,/,851594,/	t,t,t,t	<img class = center src='/static/experiments/beast_fmri_test/images/D.png'></img>	89,71	2750.0	test	<img class = center src='/static/experiments/beast_fmri_test/images/redD.png'></img>	stop	2150.0	2.0	19.0	stop	target	D	89,Middle Finger	71,Index Finger	600.0	750.0	2150.0	1950.0	0.0	0.0	600.0	n/a	go_stim
310145.12859954312	2150.0	n/a	1519	89	2750	91.8714004569	stim	stop-signal	335	851817	0.0-15.19-1.19	beast_fmri_test	329	849555,/,850235,/,850915,/,851594,/	t,t,t,t	<img class = center src='/static/experiments/beast_fmri_test/images/D.png'></img>	89,71	2750.0	test	<img class = center src='/static/experiments/beast_fmri_test/images/redD.png'></img>	stop	2150.0	2.0	19.0	stop	target	D	89,Middle Finger	71,Index Finger	600.0	750.0	2150.0	1950.0	0.0	0.0	600.0	n/a	stop_stim
310745.12859954312	91.871400456886789	n/a	1519	89	2750	91.8714004569	stim	stop-signal	335	851817	0.0-15.19-1.19	beast_fmri_test	329	849555,/,850235,/,850915,/,851594,/	t,t,t,t	<img class = center src='/static/experiments/beast_fmri_test/images/D.png'></img>	89,71	2750.0	test	<img class = center src='/static/experiments/beast_fmri_test/images/redD.png'></img>	stop	2150.0	2.0	19.0	stop	target	D	89,Middle Finger	71,Index Finger	600.0	750.0	2150.0	1950.0	0.0	0.0	600.0	n/a	ITI
311462	500	n/a	-1	-1	500	0.0	fixation	poldrack-single-stim	336	852442	0.0-15.20-0.20	beast_fmri_test	329	852275,/	t	<div class = centerbox2><div class = fixation>+</div></div>	none	500.0	test	n/a	n/a	n/a	n/a	n/a	n/a	n/a	n/a	n/a	n/a	n/a	n/a	n/a	n/a	n/a	n/a	n/a	n/a	fixation
309069.39019227715	2750	n/a	1854	71	2750	2394.60980772	stim	stop-signal	337	855194	0.0-15.20-1.20	beast_fmri_test	329	852954,/,853632,/,854313,/,854993,/,855673,/,856352,/,857032,/	t,t,t,t,t,t,t	<img class = center src='/static/experiments/beast_fmri_test/images/D.png'></img>	89,71	2750.0	test	<img class = center src='/static/experiments/beast_fmri_test/images/redD.png'></img>	go	2000.0	2.0	20.0	go	non-target	D	89,Middle Finger	71,Index Finger	550.0	750.0	2150.0	2000.0	1.0	n/a	750.0	1.0	go_stim
311819.39019227715	2394.6098077228712	n/a	1854	71	2750	2394.60980772	stim	stop-signal	337	855194	0.0-15.20-1.20	beast_fmri_test	329	852954,/,853632,/,854313,/,854993,/,855673,/,856352,/,857032,/	t,t,t,t,t,t,t	<img class = center src='/static/experiments/beast_fmri_test/images/D.png'></img>	89,71	2750.0	test	<img class = center src='/static/experiments/beast_fmri_test/images/redD.png'></img>	go	2000.0	2.0	20.0	go	non-target	D	89,Middle Finger	71,Index Finger	550.0	750.0	2150.0	2000.0	1.0	n/a	750.0	1.0	ITI
317141	500	n/a	-1	-1	500	0.0	fixation	poldrack-single-stim	338	858121	0.0-15.21-0.21	beast_fmri_test	329	857711,/	t	<div class = centerbox2><div class = fixation>+</div></div>	none	500.0	test	n/a	n/a	n/a	n/a	n/a	n/a	n/a	n/a	n/a	n/a	n/a	n/a	n/a	n/a	n/a	n/a	n/a	n/a	fixation
317023.53470442269	2750	n/a	1336	71	2750	119.465295577	stim	stop-signal	339	860873	0.0-15.21-1.21	beast_fmri_test	329	858392,/,859071,/,859751,/,860431,/	t,t,t,t	<img class = center src='/static/experiments/beast_fmri_test/images/T.png'></img>	89,71	2750.0	test	<img class = center src='/static/experiments/beast_fmri_test/images/redT.png'></img>	go	2000.0	2.0	21.0	go	non-target	T	89,Middle Finger	71,Index Finger	550.0	750.0	2150.0	2000.0	1.0	n/a	750.0	1.0	go_stim
