onset	duration	text	rt	key_press	block_duration	timing_post_trial	trial_id	trial_type	trial_index	time_elapsed	internal_node_id	exp_id	subject_id	trigger_times	triggers	stimulus	possible_responses	stim_duration	exp_stage	SS_stimulus	SS_trial_type	SS_duration	load	trial_num	stop_trial_type	adaptive_trial_type	stim	yes_response_key	no_response_key	SSD_target	SSD_non_target	SSTarget	SSNonTarget	go_acc	SS_delay	adaptive_acc	stop_acc	new_trial_type
test	10880	n/a	-1	-1	10880	0.0	practice-no-stop-feedback	poldrack-single-stim	594	1644487	0.0-24.0	beast_fmri_test	328	1633610,/,1634287,/,1634967,/,1635648,/,1636326,/,1637005,/,1637685,/,1638366,/,1639045,/,1639725,/,1640404,/,1641084,/,1641764,/,1642442,/,1643123,/,1643804,/,1644483,/	t,t,t,t,t,t,t,t,t,t,t,t,t,t,t,t,t	"<div class = ""centerbox""><p class = ""block-text"">Your delay is 3 trials.</p><p class = block-text>Please wait for the scanner to start the block</p></div>"	77	10880.0	n/a	n/a	n/a	n/a	n/a	n/a	n/a	n/a	n/a	n/a	n/a	n/a	n/a	n/a	n/a	n/a	n/a	n/a	n/a	start_functional_block
11379	500	n/a	-1	-1	500	0.0	fixation	poldrack-single-stim	595	1644989	0.0-25.0-0.0	beast_fmri_test	328	n/a	n/a	<div class = centerbox2><div class = fixation>+</div></div>	none	500.0	test	n/a	n/a	n/a	n/a	n/a	n/a	n/a	n/a	n/a	n/a	n/a	n/a	n/a	n/a	n/a	n/a	n/a	n/a	fixation
11151.271241687937	2750	n/a	-1	-1	2750	229.728758312	stim	stop-signal	596	1647741	0.0-25.0-1.0	beast_fmri_test	328	1645163,/,1645842,/,1646522,/,1647202,/,1647879,/	t,t,t,t,t	<img class = center src='/static/experiments/beast_fmri_test/images/T.png'></img>	71,89	2750.0	test	<img class = center src='/static/experiments/beast_fmri_test/images/redT.png'></img>	go	-1.0	3.0	0.0	go	temp-non-target	T	71,Index Finger	89,Middle Finger	1100.0	1100.0	1650.0	1650.0	0.0	n/a	n/a	n/a	go_stim
13901.271241687937	229.72875831196399	n/a	-1	-1	2750	229.728758312	stim	stop-signal	596	1647741	0.0-25.0-1.0	beast_fmri_test	328	1645163,/,1645842,/,1646522,/,1647202,/,1647879,/	t,t,t,t,t	<img class = center src='/static/experiments/beast_fmri_test/images/T.png'></img>	71,89	2750.0	test	<img class = center src='/static/experiments/beast_fmri_test/images/redT.png'></img>	go	-1.0	3.0	0.0	go	temp-non-target	T	71,Index Finger	89,Middle Finger	1100.0	1100.0	1650.0	1650.0	0.0	n/a	n/a	n/a	ITI
14939	500	n/a	-1	-1	500	0.0	fixation	poldrack-single-stim	597	1648549	0.0-25.1-0.1	beast_fmri_test	328	n/a	n/a	<div class = centerbox2><div class = fixation>+</div></div>	none	500.0	test	n/a	n/a	n/a	n/a	n/a	n/a	n/a	n/a	n/a	n/a	n/a	n/a	n/a	n/a	n/a	n/a	n/a	n/a	fixation
12986.319969540462	2750	n/a	-1	-1	2750	1952.68003046	stim	stop-signal	598	1651299	0.0-25.1-1.1	beast_fmri_test	328	1648560,/,1649240,/,1649919,/,1650599,/,1651279,/,1651959,/,1652637,/	t,t,t,t,t,t,t	<img class = center src='/static/experiments/beast_fmri_test/images/T.png'></img>	71,89	2750.0	test	<img class = center src='/static/experiments/beast_fmri_test/images/redT.png'></img>	go	-1.0	3.0	1.0	go	temp-non-target	T	71,Index Finger	89,Middle Finger	1100.0	1100.0	1650.0	1650.0	0.0	n/a	n/a	n/a	go_stim
15736.319969540462	1952.680030459471	n/a	-1	-1	2750	1952.68003046	stim	stop-signal	598	1651299	0.0-25.1-1.1	beast_fmri_test	328	1648560,/,1649240,/,1649919,/,1650599,/,1651279,/,1651959,/,1652637,/	t,t,t,t,t,t,t	<img class = center src='/static/experiments/beast_fmri_test/images/T.png'></img>	71,89	2750.0	test	<img class = center src='/static/experiments/beast_fmri_test/images/redT.png'></img>	go	-1.0	3.0	1.0	go	temp-non-target	T	71,Index Finger	89,Middle Finger	1100.0	1100.0	1650.0	1650.0	0.0	n/a	n/a	n/a	ITI
20219	500	n/a	-1	-1	500	0.0	fixation	poldrack-single-stim	599	1653829	0.0-25.2-0.2	beast_fmri_test	328	1653326,/	t	<div class = centerbox2><div class = fixation>+</div></div>	none	500.0	test	n/a	n/a	n/a	n/a	n/a	n/a	n/a	n/a	n/a	n/a	n/a	n/a	n/a	n/a	n/a	n/a	n/a	n/a	fixation
18842.155885325745	2750	n/a	-1	-1	2750	1378.84411467	stim	stop-signal	600	1656581	0.0-25.2-1.2	beast_fmri_test	328	1653998,/,1654678,/,1655356,/,1656038,/,1656717,/,1657398,/	t,t,t,t,t,t	<img class = center src='/static/experiments/beast_fmri_test/images/D.png'></img>	71,89	2750.0	test	<img class = center src='/static/experiments/beast_fmri_test/images/redD.png'></img>	go	-1.0	3.0	2.0	go	temp-non-target	D	71,Index Finger	89,Middle Finger	1100.0	1100.0	1650.0	1650.0	0.0	n/a	n/a	n/a	go_stim
21592.155885325745	1378.844114674235	n/a	-1	-1	2750	1378.84411467	stim	stop-signal	600	1656581	0.0-25.2-1.2	beast_fmri_test	328	1653998,/,1654678,/,1655356,/,1656038,/,1656717,/,1657398,/	t,t,t,t,t,t	<img class = center src='/static/experiments/beast_fmri_test/images/D.png'></img>	71,89	2750.0	test	<img class = center src='/static/experiments/beast_fmri_test/images/redD.png'></img>	go	-1.0	3.0	2.0	go	temp-non-target	D	71,Index Finger	89,Middle Finger	1100.0	1100.0	1650.0	1650.0	0.0	n/a	n/a	n/a	ITI
24928	500	n/a	-1	-1	500	0.0	fixation	poldrack-single-stim	601	1658538	0.0-25.3-0.3	beast_fmri_test	328	1658075,/	t	<div class = centerbox2><div class = fixation>+</div></div>	none	500.0	test	n/a	n/a	n/a	n/a	n/a	n/a	n/a	n/a	n/a	n/a	n/a	n/a	n/a	n/a	n/a	n/a	n/a	n/a	fixation
24357.974813703913	1100.0	n/a	861	89	2750	572.025186296	stim	stop-signal	602	1661290	0.0-25.3-1.3	beast_fmri_test	328	1658756,/,1659435,/,1660115,/,1660794,/,1661475,/	t,t,t,t,t	<img class = center src='/static/experiments/beast_fmri_test/images/D.png'></img>	71,89	2750.0	test	<img class = center src='/static/experiments/beast_fmri_test/images/redD.png'></img>	stop	1650.0	3.0	3.0	stop	non-target	D	71,Index Finger	89,Middle Finger	1100.0	1100.0	1650.0	1650.0	0.0	1100.0	n/a	0.0	go_stim
26007.974813703913	1650.0	n/a	861	89	2750	572.025186296	stim	stop-signal	602	1661290	0.0-25.3-1.3	beast_fmri_test	328	1658756,/,1659435,/,1660115,/,1660794,/,1661475,/	t,t,t,t,t	<img class = center src='/static/experiments/beast_fmri_test/images/D.png'></img>	71,89	2750.0	test	<img class = center src='/static/experiments/beast_fmri_test/images/redD.png'></img>	stop	1650.0	3.0	3.0	stop	non-target	D	71,Index Finger	89,Middle Finger	1100.0	1100.0	1650.0	1650.0	0.0	1100.0	n/a	0.0	stop_stim
27107.974813703913	572.02518629617305	n/a	861	89	2750	572.025186296	stim	stop-signal	602	1661290	0.0-25.3-1.3	beast_fmri_test	328	1658756,/,1659435,/,1660115,/,1660794,/,1661475,/	t,t,t,t,t	<img class = center src='/static/experiments/beast_fmri_test/images/D.png'></img>	71,89	2750.0	test	<img class = center src='/static/experiments/beast_fmri_test/images/redD.png'></img>	stop	1650.0	3.0	3.0	stop	non-target	D	71,Index Finger	89,Middle Finger	1100.0	1100.0	1650.0	1650.0	0.0	1100.0	n/a	0.0	ITI
28841	500	n/a	-1	-1	500	0.0	fixation	poldrack-single-stim	603	1662451	0.0-25.4-0.4	beast_fmri_test	328	1662189,/	t	<div class = centerbox2><div class = fixation>+</div></div>	none	500.0	test	n/a	n/a	n/a	n/a	n/a	n/a	n/a	n/a	n/a	n/a	n/a	n/a	n/a	n/a	n/a	n/a	n/a	n/a	fixation
28566.491603096714	2750	n/a	1415	71	2750	276.508396903	stim	stop-signal	604	1665203	0.0-25.4-1.4	beast_fmri_test	328	1662835,/,1663514,/,1664193,/,1664872,/	t,t,t,t	<img class = center src='/static/experiments/beast_fmri_test/images/T.png'></img>	71,89	2750.0	test	<img class = center src='/static/experiments/beast_fmri_test/images/redT.png'></img>	go	1650.0	3.0	4.0	go	target	T	71,Index Finger	89,Middle Finger	1100.0	1050.0	1650.0	1650.0	1.0	1100.0	1.0	n/a	go_stim
31316.491603096714	276.50839690325745	n/a	1415	71	2750	276.508396903	stim	stop-signal	604	1665203	0.0-25.4-1.4	beast_fmri_test	328	1662835,/,1663514,/,1664193,/,1664872,/	t,t,t,t	<img class = center src='/static/experiments/beast_fmri_test/images/T.png'></img>	71,89	2750.0	test	<img class = center src='/static/experiments/beast_fmri_test/images/redT.png'></img>	go	1650.0	3.0	4.0	go	target	T	71,Index Finger	89,Middle Finger	1100.0	1050.0	1650.0	1650.0	1.0	1100.0	1.0	n/a	ITI
32444	500	n/a	-1	-1	500	0.0	fixation	poldrack-single-stim	605	1666054	0.0-25.5-0.5	beast_fmri_test	328	1665552,/	t	<div class = centerbox2><div class = fixation>+</div></div>	none	500.0	test	n/a	n/a	n/a	n/a	n/a	n/a	n/a	n/a	n/a	n/a	n/a	n/a	n/a	n/a	n/a	n/a	n/a	n/a	fixation
32061.516621720977	2750	n/a	2100	89	2750	385.483378279	stim	stop-signal	606	1668807	0.0-25.5-1.5	beast_fmri_test	328	1666232,/,1666912,/,1667592,/,1668272,/,1668993,/	t,t,t,t,t	<img class = center src='/static/experiments/beast_fmri_test/images/P.png'></img>	71,89	2750.0	test	<img class = center src='/static/experiments/beast_fmri_test/images/redP.png'></img>	go	1700.0	3.0	5.0	go	non-target	P	71,Index Finger	89,Middle Finger	1100.0	1050.0	1650.0	1700.0	1.0	1050.0	1.0	n/a	go_stim
34811.516621720977	385.48337827912138	n/a	2100	89	2750	385.483378279	stim	stop-signal	606	1668807	0.0-25.5-1.5	beast_fmri_test	328	1666232,/,1666912,/,1667592,/,1668272,/,1668993,/	t,t,t,t,t	<img class = center src='/static/experiments/beast_fmri_test/images/P.png'></img>	71,89	2750.0	test	<img class = center src='/static/experiments/beast_fmri_test/images/redP.png'></img>	go	1700.0	3.0	5.0	go	non-target	P	71,Index Finger	89,Middle Finger	1100.0	1050.0	1650.0	1700.0	1.0	1050.0	1.0	n/a	ITI
36152	500	n/a	-1	-1	500	0.0	fixation	poldrack-single-stim	607	1669762	0.0-25.6-0.6	beast_fmri_test	328	1669632,/	t	<div class = centerbox2><div class = fixation>+</div></div>	none	500.0	test	n/a	n/a	n/a	n/a	n/a	n/a	n/a	n/a	n/a	n/a	n/a	n/a	n/a	n/a	n/a	n/a	n/a	n/a	fixation
35620.942683402915	1050.0	n/a	1218	89	2750	534.057316597	stim	stop-signal	608	1672515	0.0-25.6-1.6	beast_fmri_test	328	1670311,/,1670988,/,1671670,/,1672349,/,1673030,/	t,t,t,t,t	<img class = center src='/static/experiments/beast_fmri_test/images/P.png'></img>	71,89	2750.0	test	<img class = center src='/static/experiments/beast_fmri_test/images/redP.png'></img>	stop	1700.0	3.0	6.0	stop	non-target	P	71,Index Finger	89,Middle Finger	1100.0	1050.0	1650.0	1700.0	0.0	1050.0	n/a	0.0	go_stim
37320.942683402915	1700.0	n/a	1218	89	2750	534.057316597	stim	stop-signal	608	1672515	0.0-25.6-1.6	beast_fmri_test	328	1670311,/,1670988,/,1671670,/,1672349,/,1673030,/	t,t,t,t,t	<img class = center src='/static/experiments/beast_fmri_test/images/P.png'></img>	71,89	2750.0	test	<img class = center src='/static/experiments/beast_fmri_test/images/redP.png'></img>	stop	1700.0	3.0	6.0	stop	non-target	P	71,Index Finger	89,Middle Finger	1100.0	1050.0	1650.0	1700.0	0.0	1050.0	n/a	0.0	stop_stim
38370.942683402915	534.05731659702519	n/a	1218	89	2750	534.057316597	stim	stop-signal	608	1672515	0.0-25.6-1.6	beast_fmri_test	328	1670311,/,1670988,/,1671670,/,1672349,/,1673030,/	t,t,t,t,t	<img class = center src='/static/experiments/beast_fmri_test/images/P.png'></img>	71,89	2750.0	test	<img class = center src='/static/experiments/beast_fmri_test/images/redP.png'></img>	stop	1700.0	3.0	6.0	stop	non-target	P	71,Index Finger	89,Middle Finger	1100.0	1050.0	1650.0	1700.0	0.0	1050.0	n/a	0.0	ITI
40005	500	n/a	-1	-1	500	0.0	fixation	poldrack-single-stim	609	1673615	0.0-25.7-0.7	beast_fmri_test	328	n/a	n/a	<div class = centerbox2><div class = fixation>+</div></div>	none	500.0	test	n/a	n/a	n/a	n/a	n/a	n/a	n/a	n/a	n/a	n/a	n/a	n/a	n/a	n/a	n/a	n/a	n/a	n/a	fixation
39451.007706667995	2750	n/a	1265	71	2750	555.992293332	stim	stop-signal	610	1676367	0.0-25.7-1.7	beast_fmri_test	328	1673709,/,1674389,/,1675069,/,1675749,/,1676428,/	t,t,t,t,t	<img class = center src='/static/experiments/beast_fmri_test/images/T.png'></img>	71,89	2750.0	test	<img class = center src='/static/experiments/beast_fmri_test/images/redT.png'></img>	go	1650.0	3.0	7.0	go	target	T	71,Index Finger	89,Middle Finger	1100.0	1000.0	1650.0	1700.0	1.0	1100.0	1.0	n/a	go_stim
42201.007706667995	555.99229333197889	n/a	1265	71	2750	555.992293332	stim	stop-signal	610	1676367	0.0-25.7-1.7	beast_fmri_test	328	1673709,/,1674389,/,1675069,/,1675749,/,1676428,/	t,t,t,t,t	<img class = center src='/static/experiments/beast_fmri_test/images/T.png'></img>	71,89	2750.0	test	<img class = center src='/static/experiments/beast_fmri_test/images/redT.png'></img>	go	1650.0	3.0	7.0	go	target	T	71,Index Finger	89,Middle Finger	1100.0	1000.0	1650.0	1700.0	1.0	1100.0	1.0	n/a	ITI
43883	500	n/a	-1	-1	500	0.0	fixation	poldrack-single-stim	611	1677493	0.0-25.8-0.8	beast_fmri_test	328	1677107,/	t	<div class = centerbox2><div class = fixation>+</div></div>	none	500.0	test	n/a	n/a	n/a	n/a	n/a	n/a	n/a	n/a	n/a	n/a	n/a	n/a	n/a	n/a	n/a	n/a	n/a	n/a	fixation
42955.838759671664	2750	n/a	1241	71	2750	929.161240328	stim	stop-signal	612	1680245	0.0-25.8-1.8	beast_fmri_test	328	1677788,/,1678467,/,1679147,/,1679827,/,1680507,/	t,t,t,t,t	<img class = center src='/static/experiments/beast_fmri_test/images/P.png'></img>	71,89	2750.0	test	<img class = center src='/static/experiments/beast_fmri_test/images/redP.png'></img>	go	1650.0	3.0	8.0	go	target	P	71,Index Finger	89,Middle Finger	1100.0	1000.0	1650.0	1700.0	1.0	1100.0	1.0	n/a	go_stim
45705.838759671664	929.16124032830203	n/a	1241	71	2750	929.161240328	stim	stop-signal	612	1680245	0.0-25.8-1.8	beast_fmri_test	328	1677788,/,1678467,/,1679147,/,1679827,/,1680507,/	t,t,t,t,t	<img class = center src='/static/experiments/beast_fmri_test/images/P.png'></img>	71,89	2750.0	test	<img class = center src='/static/experiments/beast_fmri_test/images/redP.png'></img>	go	1650.0	3.0	8.0	go	target	P	71,Index Finger	89,Middle Finger	1100.0	1000.0	1650.0	1700.0	1.0	1100.0	1.0	n/a	ITI
48135	500	n/a	-1	-1	500	0.0	fixation	poldrack-single-stim	613	1681745	0.0-25.9-0.9	beast_fmri_test	328	1681243,/	t	<div class = centerbox2><div class = fixation>+</div></div>	none	500.0	test	n/a	n/a	n/a	n/a	n/a	n/a	n/a	n/a	n/a	n/a	n/a	n/a	n/a	n/a	n/a	n/a	n/a	n/a	fixation
47394.935251283925	1000.0	n/a	950	89	2750	742.064748716	stim	stop-signal	614	1684497	0.0-25.9-1.9	beast_fmri_test	328	1681866,/,1682545,/,1683225,/,1683904,/,1684585,/	t,t,t,t,t	<img class = center src='/static/experiments/beast_fmri_test/images/B.png'></img>	71,89	2750.0	test	<img class = center src='/static/experiments/beast_fmri_test/images/redB.png'></img>	stop	1750.0	3.0	9.0	stop	non-target	B	71,Index Finger	89,Middle Finger	1100.0	1000.0	1650.0	1750.0	0.0	1000.0	n/a	0.0	go_stim
49144.935251283925	1750.0	n/a	950	89	2750	742.064748716	stim	stop-signal	614	1684497	0.0-25.9-1.9	beast_fmri_test	328	1681866,/,1682545,/,1683225,/,1683904,/,1684585,/	t,t,t,t,t	<img class = center src='/static/experiments/beast_fmri_test/images/B.png'></img>	71,89	2750.0	test	<img class = center src='/static/experiments/beast_fmri_test/images/redB.png'></img>	stop	1750.0	3.0	9.0	stop	non-target	B	71,Index Finger	89,Middle Finger	1100.0	1000.0	1650.0	1750.0	0.0	1000.0	n/a	0.0	stop_stim
50144.935251283925	742.06474871601597	n/a	950	89	2750	742.064748716	stim	stop-signal	614	1684497	0.0-25.9-1.9	beast_fmri_test	328	1681866,/,1682545,/,1683225,/,1683904,/,1684585,/	t,t,t,t,t	<img class = center src='/static/experiments/beast_fmri_test/images/B.png'></img>	71,89	2750.0	test	<img class = center src='/static/experiments/beast_fmri_test/images/redB.png'></img>	stop	1750.0	3.0	9.0	stop	non-target	B	71,Index Finger	89,Middle Finger	1100.0	1000.0	1650.0	1750.0	0.0	1000.0	n/a	0.0	ITI
52212	500	n/a	-1	-1	500	0.0	fixation	poldrack-single-stim	615	1685822	0.0-25.10-0.10	beast_fmri_test	328	1685319,/	t	<div class = centerbox2><div class = fixation>+</div></div>	none	500.0	test	n/a	n/a	n/a	n/a	n/a	n/a	n/a	n/a	n/a	n/a	n/a	n/a	n/a	n/a	n/a	n/a	n/a	n/a	fixation
52107.328645311762	950.0	n/a	-1	-1	2750	105.671354688	stim	stop-signal	616	1688573	0.0-25.10-1.10	beast_fmri_test	328	1685944,/,1686624,/,1687303,/,1687983,/,1688663,/	t,t,t,t,t	<img class = center src='/static/experiments/beast_fmri_test/images/P.png'></img>	71,89	2750.0	test	<img class = center src='/static/experiments/beast_fmri_test/images/redP.png'></img>	stop	1800.0	3.0	10.0	stop	non-target	P	71,Index Finger	89,Middle Finger	1100.0	950.0	1650.0	1800.0	0.0	950.0	n/a	1.0	go_stim
53907.328645311762	1800.0	n/a	-1	-1	2750	105.671354688	stim	stop-signal	616	1688573	0.0-25.10-1.10	beast_fmri_test	328	1685944,/,1686624,/,1687303,/,1687983,/,1688663,/	t,t,t,t,t	<img class = center src='/static/experiments/beast_fmri_test/images/P.png'></img>	71,89	2750.0	test	<img class = center src='/static/experiments/beast_fmri_test/images/redP.png'></img>	stop	1800.0	3.0	10.0	stop	non-target	P	71,Index Finger	89,Middle Finger	1100.0	950.0	1650.0	1800.0	0.0	950.0	n/a	1.0	stop_stim
54857.328645311762	105.67135468832491	n/a	-1	-1	2750	105.671354688	stim	stop-signal	616	1688573	0.0-25.10-1.10	beast_fmri_test	328	1685944,/,1686624,/,1687303,/,1687983,/,1688663,/	t,t,t,t,t	<img class = center src='/static/experiments/beast_fmri_test/images/P.png'></img>	71,89	2750.0	test	<img class = center src='/static/experiments/beast_fmri_test/images/redP.png'></img>	stop	1800.0	3.0	10.0	stop	non-target	P	71,Index Finger	89,Middle Finger	1100.0	950.0	1650.0	1800.0	0.0	950.0	n/a	1.0	ITI
55647	500	n/a	-1	-1	500	0.0	fixation	poldrack-single-stim	617	1689257	0.0-25.11-0.11	beast_fmri_test	328	n/a	n/a	<div class = centerbox2><div class = fixation>+</div></div>	none	500.0	test	n/a	n/a	n/a	n/a	n/a	n/a	n/a	n/a	n/a	n/a	n/a	n/a	n/a	n/a	n/a	n/a	n/a	n/a	fixation
55555.782294682693	1000.0	n/a	1247	89	2750	93.2177053173	stim	stop-signal	618	1692009	0.0-25.11-1.11	beast_fmri_test	328	1689342,/,1690023,/,1690702,/,1691382,/,1692060,/	t,t,t,t,t	<img class = center src='/static/experiments/beast_fmri_test/images/T.png'></img>	71,89	2750.0	test	<img class = center src='/static/experiments/beast_fmri_test/images/redT.png'></img>	stop	1750.0	3.0	11.0	stop	non-target	T	71,Index Finger	89,Middle Finger	1100.0	1000.0	1650.0	1750.0	0.0	1000.0	n/a	0.0	go_stim
57305.782294682693	1750.0	n/a	1247	89	2750	93.2177053173	stim	stop-signal	618	1692009	0.0-25.11-1.11	beast_fmri_test	328	1689342,/,1690023,/,1690702,/,1691382,/,1692060,/	t,t,t,t,t	<img class = center src='/static/experiments/beast_fmri_test/images/T.png'></img>	71,89	2750.0	test	<img class = center src='/static/experiments/beast_fmri_test/images/redT.png'></img>	stop	1750.0	3.0	11.0	stop	non-target	T	71,Index Finger	89,Middle Finger	1100.0	1000.0	1650.0	1750.0	0.0	1000.0	n/a	0.0	stop_stim
58305.782294682693	93.217705317264048	n/a	1247	89	2750	93.2177053173	stim	stop-signal	618	1692009	0.0-25.11-1.11	beast_fmri_test	328	1689342,/,1690023,/,1690702,/,1691382,/,1692060,/	t,t,t,t,t	<img class = center src='/static/experiments/beast_fmri_test/images/T.png'></img>	71,89	2750.0	test	<img class = center src='/static/experiments/beast_fmri_test/images/redT.png'></img>	stop	1750.0	3.0	11.0	stop	non-target	T	71,Index Finger	89,Middle Finger	1100.0	1000.0	1650.0	1750.0	0.0	1000.0	n/a	0.0	ITI
59076	500	n/a	-1	-1	500	0.0	fixation	poldrack-single-stim	619	1692686	0.0-25.12-0.12	beast_fmri_test	328	n/a	n/a	<div class = centerbox2><div class = fixation>+</div></div>	none	500.0	test	n/a	n/a	n/a	n/a	n/a	n/a	n/a	n/a	n/a	n/a	n/a	n/a	n/a	n/a	n/a	n/a	n/a	n/a	fixation
54290.220042131608	1100.0	n/a	930	71	2750	4787.77995787	stim	stop-signal	620	1695438	0.0-25.12-1.12	beast_fmri_test	328	1692740,/,1693420,/,1694099,/,1694779,/,1695458,/,1696139,/,1696818,/,1697499,/,1698178,/,1698859,/,1699538,/,1700217,/	t,t,t,t,t,t,t,t,t,t,t,t	<img class = center src='/static/experiments/beast_fmri_test/images/B.png'></img>	71,89	2750.0	test	<img class = center src='/static/experiments/beast_fmri_test/images/redB.png'></img>	stop	1650.0	3.0	12.0	stop	target	B	71,Index Finger	89,Middle Finger	1100.0	950.0	1650.0	1750.0	0.0	1100.0	n/a	0.0	go_stim
55940.220042131608	1650.0	n/a	930	71	2750	4787.77995787	stim	stop-signal	620	1695438	0.0-25.12-1.12	beast_fmri_test	328	1692740,/,1693420,/,1694099,/,1694779,/,1695458,/,1696139,/,1696818,/,1697499,/,1698178,/,1698859,/,1699538,/,1700217,/	t,t,t,t,t,t,t,t,t,t,t,t	<img class = center src='/static/experiments/beast_fmri_test/images/B.png'></img>	71,89	2750.0	test	<img class = center src='/static/experiments/beast_fmri_test/images/redB.png'></img>	stop	1650.0	3.0	12.0	stop	target	B	71,Index Finger	89,Middle Finger	1100.0	950.0	1650.0	1750.0	0.0	1100.0	n/a	0.0	stop_stim
57040.220042131608	4787.7799578683534	n/a	930	71	2750	4787.77995787	stim	stop-signal	620	1695438	0.0-25.12-1.12	beast_fmri_test	328	1692740,/,1693420,/,1694099,/,1694779,/,1695458,/,1696139,/,1696818,/,1697499,/,1698178,/,1698859,/,1699538,/,1700217,/	t,t,t,t,t,t,t,t,t,t,t,t	<img class = center src='/static/experiments/beast_fmri_test/images/B.png'></img>	71,89	2750.0	test	<img class = center src='/static/experiments/beast_fmri_test/images/redB.png'></img>	stop	1650.0	3.0	12.0	stop	target	B	71,Index Finger	89,Middle Finger	1100.0	950.0	1650.0	1750.0	0.0	1100.0	n/a	0.0	ITI
67193	500	n/a	-1	-1	500	0.0	fixation	poldrack-single-stim	621	1700803	0.0-25.13-0.13	beast_fmri_test	328	n/a	n/a	<div class = centerbox2><div class = fixation>+</div></div>	none	500.0	test	n/a	n/a	n/a	n/a	n/a	n/a	n/a	n/a	n/a	n/a	n/a	n/a	n/a	n/a	n/a	n/a	n/a	n/a	fixation
66618.443824021844	2750	n/a	1246	89	2750	575.556175978	stim	stop-signal	622	1703554	0.0-25.13-1.13	beast_fmri_test	328	1700896,/,1701578,/,1702256,/,1702935,/,1703616,/	t,t,t,t,t	<img class = center src='/static/experiments/beast_fmri_test/images/T.png'></img>	71,89	2750.0	test	<img class = center src='/static/experiments/beast_fmri_test/images/redT.png'></img>	go	1800.0	3.0	13.0	go	non-target	T	71,Index Finger	89,Middle Finger	1050.0	950.0	1650.0	1800.0	1.0	950.0	1.0	n/a	go_stim
69368.443824021844	575.55617597820208	n/a	1246	89	2750	575.556175978	stim	stop-signal	622	1703554	0.0-25.13-1.13	beast_fmri_test	328	1700896,/,1701578,/,1702256,/,1702935,/,1703616,/	t,t,t,t,t	<img class = center src='/static/experiments/beast_fmri_test/images/T.png'></img>	71,89	2750.0	test	<img class = center src='/static/experiments/beast_fmri_test/images/redT.png'></img>	go	1800.0	3.0	13.0	go	non-target	T	71,Index Finger	89,Middle Finger	1050.0	950.0	1650.0	1800.0	1.0	950.0	1.0	n/a	ITI
71097	500	n/a	-1	-1	500	0.0	fixation	poldrack-single-stim	623	1704707	0.0-25.14-0.14	beast_fmri_test	328	1704296,/	t	<div class = centerbox2><div class = fixation>+</div></div>	none	500.0	test	n/a	n/a	n/a	n/a	n/a	n/a	n/a	n/a	n/a	n/a	n/a	n/a	n/a	n/a	n/a	n/a	n/a	n/a	fixation
69340.163731085835	2750	n/a	1039	89	2750	1757.83626891	stim	stop-signal	624	1707458	0.0-25.14-1.14	beast_fmri_test	328	1704974,/,1705655,/,1706335,/,1707014,/,1707693,/,1708372,/,1709051,/	t,t,t,t,t,t,t	<img class = center src='/static/experiments/beast_fmri_test/images/P.png'></img>	71,89	2750.0	test	<img class = center src='/static/experiments/beast_fmri_test/images/redP.png'></img>	go	1800.0	3.0	14.0	go	non-target	P	71,Index Finger	89,Middle Finger	1050.0	950.0	1650.0	1800.0	1.0	950.0	1.0	n/a	go_stim
72090.163731085835	1757.8362689140631	n/a	1039	89	2750	1757.83626891	stim	stop-signal	624	1707458	0.0-25.14-1.14	beast_fmri_test	328	1704974,/,1705655,/,1706335,/,1707014,/,1707693,/,1708372,/,1709051,/	t,t,t,t,t,t,t	<img class = center src='/static/experiments/beast_fmri_test/images/P.png'></img>	71,89	2750.0	test	<img class = center src='/static/experiments/beast_fmri_test/images/redP.png'></img>	go	1800.0	3.0	14.0	go	non-target	P	71,Index Finger	89,Middle Finger	1050.0	950.0	1650.0	1800.0	1.0	950.0	1.0	n/a	ITI
76177	500	n/a	-1	-1	500	0.0	fixation	poldrack-single-stim	625	1709787	0.0-25.15-0.15	beast_fmri_test	328	1709733,/	t	<div class = centerbox2><div class = fixation>+</div></div>	none	500.0	test	n/a	n/a	n/a	n/a	n/a	n/a	n/a	n/a	n/a	n/a	n/a	n/a	n/a	n/a	n/a	n/a	n/a	n/a	fixation
75870.193956792587	2750	n/a	1093	71	2750	307.806043207	stim	stop-signal	626	1712538	0.0-25.15-1.15	beast_fmri_test	328	1710412,/,1711091,/,1711770,/,1712450,/	t,t,t,t	<img class = center src='/static/experiments/beast_fmri_test/images/B.png'></img>	71,89	2750.0	test	<img class = center src='/static/experiments/beast_fmri_test/images/redB.png'></img>	go	1700.0	3.0	15.0	go	target	B	71,Index Finger	89,Middle Finger	1050.0	950.0	1700.0	1800.0	1.0	1050.0	1.0	n/a	go_stim
78620.193956792587	307.80604320735608	n/a	1093	71	2750	307.806043207	stim	stop-signal	626	1712538	0.0-25.15-1.15	beast_fmri_test	328	1710412,/,1711091,/,1711770,/,1712450,/	t,t,t,t	<img class = center src='/static/experiments/beast_fmri_test/images/B.png'></img>	71,89	2750.0	test	<img class = center src='/static/experiments/beast_fmri_test/images/redB.png'></img>	go	1700.0	3.0	15.0	go	target	B	71,Index Finger	89,Middle Finger	1050.0	950.0	1700.0	1800.0	1.0	1050.0	1.0	n/a	ITI
79832	500	n/a	-1	-1	500	0.0	fixation	poldrack-single-stim	627	1713442	0.0-25.16-0.16	beast_fmri_test	328	1713131,/	t	<div class = centerbox2><div class = fixation>+</div></div>	none	500.0	test	n/a	n/a	n/a	n/a	n/a	n/a	n/a	n/a	n/a	n/a	n/a	n/a	n/a	n/a	n/a	n/a	n/a	n/a	fixation
79765.496235888684	1050.0	n/a	-1	-1	2750	68.5037641114	stim	stop-signal	628	1716194	0.0-25.16-1.16	beast_fmri_test	328	1713811,/,1714490,/,1715170,/,1715851,/	t,t,t,t	<img class = center src='/static/experiments/beast_fmri_test/images/T.png'></img>	71,89	2750.0	test	<img class = center src='/static/experiments/beast_fmri_test/images/redT.png'></img>	stop	1700.0	3.0	16.0	stop	target	T	71,Index Finger	89,Middle Finger	1050.0	950.0	1700.0	1800.0	0.0	1050.0	n/a	1.0	go_stim
81465.496235888684	1700.0	n/a	-1	-1	2750	68.5037641114	stim	stop-signal	628	1716194	0.0-25.16-1.16	beast_fmri_test	328	1713811,/,1714490,/,1715170,/,1715851,/	t,t,t,t	<img class = center src='/static/experiments/beast_fmri_test/images/T.png'></img>	71,89	2750.0	test	<img class = center src='/static/experiments/beast_fmri_test/images/redT.png'></img>	stop	1700.0	3.0	16.0	stop	target	T	71,Index Finger	89,Middle Finger	1050.0	950.0	1700.0	1800.0	0.0	1050.0	n/a	1.0	stop_stim
82515.496235888684	68.503764111392925	n/a	-1	-1	2750	68.5037641114	stim	stop-signal	628	1716194	0.0-25.16-1.16	beast_fmri_test	328	1713811,/,1714490,/,1715170,/,1715851,/	t,t,t,t	<img class = center src='/static/experiments/beast_fmri_test/images/T.png'></img>	71,89	2750.0	test	<img class = center src='/static/experiments/beast_fmri_test/images/redT.png'></img>	stop	1700.0	3.0	16.0	stop	target	T	71,Index Finger	89,Middle Finger	1050.0	950.0	1700.0	1800.0	0.0	1050.0	n/a	1.0	ITI
83232	500	n/a	-1	-1	500	0.0	fixation	poldrack-single-stim	629	1716842	0.0-25.17-0.17	beast_fmri_test	328	1716529,/	t	<div class = centerbox2><div class = fixation>+</div></div>	none	500.0	test	n/a	n/a	n/a	n/a	n/a	n/a	n/a	n/a	n/a	n/a	n/a	n/a	n/a	n/a	n/a	n/a	n/a	n/a	fixation
82829.507473200094	2750	n/a	1710	89	2750	402.4925268	stim	stop-signal	630	1719592	0.0-25.17-1.17	beast_fmri_test	328	1717208,/,1717888,/,1718568,/,1719249,/,1719929,/	t,t,t,t,t	<img class = center src='/static/experiments/beast_fmri_test/images/T.png'></img>	71,89	2750.0	test	<img class = center src='/static/experiments/beast_fmri_test/images/redT.png'></img>	go	1800.0	3.0	17.0	go	non-target	T	71,Index Finger	89,Middle Finger	1100.0	950.0	1700.0	1800.0	1.0	950.0	1.0	n/a	go_stim
85579.507473200094	402.49252679991218	n/a	1710	89	2750	402.4925268	stim	stop-signal	630	1719592	0.0-25.17-1.17	beast_fmri_test	328	1717208,/,1717888,/,1718568,/,1719249,/,1719929,/	t,t,t,t,t	<img class = center src='/static/experiments/beast_fmri_test/images/T.png'></img>	71,89	2750.0	test	<img class = center src='/static/experiments/beast_fmri_test/images/redT.png'></img>	go	1800.0	3.0	17.0	go	non-target	T	71,Index Finger	89,Middle Finger	1100.0	950.0	1700.0	1800.0	1.0	950.0	1.0	n/a	ITI
87001	500	n/a	-1	-1	500	0.0	fixation	poldrack-single-stim	631	1720611	0.0-25.18-0.18	beast_fmri_test	328	1720609,/	t	<div class = centerbox2><div class = fixation>+</div></div>	none	500.0	test	n/a	n/a	n/a	n/a	n/a	n/a	n/a	n/a	n/a	n/a	n/a	n/a	n/a	n/a	n/a	n/a	n/a	n/a	fixation
85232.748360652011	2750	n/a	1649	89	2750	1769.25163935	stim	stop-signal	632	1723362	0.0-25.18-1.18	beast_fmri_test	328	1721286,/,1721968,/,1722647,/,1723326,/,1724006,/,1724687,/	t,t,t,t,t,t	<img class = center src='/static/experiments/beast_fmri_test/images/V.png'></img>	71,89	2750.0	test	<img class = center src='/static/experiments/beast_fmri_test/images/redV.png'></img>	go	1800.0	3.0	18.0	go	non-target	V	71,Index Finger	89,Middle Finger	1100.0	950.0	1700.0	1800.0	1.0	950.0	1.0	n/a	go_stim
87982.748360652011	1769.2516393479807	n/a	1649	89	2750	1769.25163935	stim	stop-signal	632	1723362	0.0-25.18-1.18	beast_fmri_test	328	1721286,/,1721968,/,1722647,/,1723326,/,1724006,/,1724687,/	t,t,t,t,t,t	<img class = center src='/static/experiments/beast_fmri_test/images/V.png'></img>	71,89	2750.0	test	<img class = center src='/static/experiments/beast_fmri_test/images/redV.png'></img>	go	1800.0	3.0	18.0	go	non-target	V	71,Index Finger	89,Middle Finger	1100.0	950.0	1700.0	1800.0	1.0	950.0	1.0	n/a	ITI
92104	500	n/a	-1	-1	500	0.0	fixation	poldrack-single-stim	633	1725714	0.0-25.19-0.19	beast_fmri_test	328	1725366,/	t	<div class = centerbox2><div class = fixation>+</div></div>	none	500.0	test	n/a	n/a	n/a	n/a	n/a	n/a	n/a	n/a	n/a	n/a	n/a	n/a	n/a	n/a	n/a	n/a	n/a	n/a	fixation
91766.768871620996	2750	n/a	1420	89	2750	338.231128379	stim	stop-signal	634	1728465	0.0-25.19-1.19	beast_fmri_test	328	1726044,/,1726726,/,1727404,/,1728083,/,1728765,/	t,t,t,t,t	<img class = center src='/static/experiments/beast_fmri_test/images/V.png'></img>	71,89	2750.0	test	<img class = center src='/static/experiments/beast_fmri_test/images/redV.png'></img>	go	1800.0	3.0	19.0	go	non-target	V	71,Index Finger	89,Middle Finger	1100.0	950.0	1700.0	1800.0	1.0	950.0	1.0	n/a	go_stim
94516.768871620996	338.23112837906336	n/a	1420	89	2750	338.231128379	stim	stop-signal	634	1728465	0.0-25.19-1.19	beast_fmri_test	328	1726044,/,1726726,/,1727404,/,1728083,/,1728765,/	t,t,t,t,t	<img class = center src='/static/experiments/beast_fmri_test/images/V.png'></img>	71,89	2750.0	test	<img class = center src='/static/experiments/beast_fmri_test/images/redV.png'></img>	go	1800.0	3.0	19.0	go	non-target	V	71,Index Finger	89,Middle Finger	1100.0	950.0	1700.0	1800.0	1.0	950.0	1.0	n/a	ITI
95773	500	n/a	-1	-1	500	0.0	fixation	poldrack-single-stim	635	1729383	0.0-25.20-0.20	beast_fmri_test	328	n/a	n/a	<div class = centerbox2><div class = fixation>+</div></div>	none	500.0	test	n/a	n/a	n/a	n/a	n/a	n/a	n/a	n/a	n/a	n/a	n/a	n/a	n/a	n/a	n/a	n/a	n/a	n/a	fixation
93709.229134537978	2750	n/a	1403	89	2750	2065.77086546	stim	stop-signal	636	1732135	0.0-25.20-1.20	beast_fmri_test	328	1729443,/,1730122,/,1730802,/,1731482,/,1732161,/,1732841,/,1733522,/,1734201,/	t,t,t,t,t,t,t,t	<img class = center src='/static/experiments/beast_fmri_test/images/D.png'></img>	71,89	2750.0	test	<img class = center src='/static/experiments/beast_fmri_test/images/redD.png'></img>	go	1800.0	3.0	20.0	go	non-target	D	71,Index Finger	89,Middle Finger	1100.0	950.0	1700.0	1800.0	1.0	950.0	1.0	n/a	go_stim
96459.229134537978	2065.7708654619578	n/a	1403	89	2750	2065.77086546	stim	stop-signal	636	1732135	0.0-25.20-1.20	beast_fmri_test	328	1729443,/,1730122,/,1730802,/,1731482,/,1732161,/,1732841,/,1733522,/,1734201,/	t,t,t,t,t,t,t,t	<img class = center src='/static/experiments/beast_fmri_test/images/D.png'></img>	71,89	2750.0	test	<img class = center src='/static/experiments/beast_fmri_test/images/redD.png'></img>	go	1800.0	3.0	20.0	go	non-target	D	71,Index Finger	89,Middle Finger	1100.0	950.0	1700.0	1800.0	1.0	950.0	1.0	n/a	ITI
101171	500	n/a	-1	-1	500	0.0	fixation	poldrack-single-stim	637	1734781	0.0-25.21-0.21	beast_fmri_test	328	n/a	n/a	<div class = centerbox2><div class = fixation>+</div></div>	none	500.0	test	n/a	n/a	n/a	n/a	n/a	n/a	n/a	n/a	n/a	n/a	n/a	n/a	n/a	n/a	n/a	n/a	n/a	n/a	fixation
100614.24111418286	2750	n/a	1005	71	2750	559.758885817	stim	stop-signal	638	1737534	0.0-25.21-1.21	beast_fmri_test	328	1734881,/,1735561,/,1736240,/,1736919,/,1737599,/	t,t,t,t,t	<img class = center src='/static/experiments/beast_fmri_test/images/V.png'></img>	71,89	2750.0	test	<img class = center src='/static/experiments/beast_fmri_test/images/redV.png'></img>	go	1650.0	3.0	21.0	go	target	V	71,Index Finger	89,Middle Finger	1100.0	950.0	1650.0	1800.0	1.0	1100.0	1.0	n/a	go_stim
103364.24111418286	559.75888581710058	n/a	1005	71	2750	559.758885817	stim	stop-signal	638	1737534	0.0-25.21-1.21	beast_fmri_test	328	1734881,/,1735561,/,1736240,/,1736919,/,1737599,/	t,t,t,t,t	<img class = center src='/static/experiments/beast_fmri_test/images/V.png'></img>	71,89	2750.0	test	<img class = center src='/static/experiments/beast_fmri_test/images/redV.png'></img>	go	1650.0	3.0	21.0	go	target	V	71,Index Finger	89,Middle Finger	1100.0	950.0	1650.0	1800.0	1.0	1100.0	1.0	n/a	ITI
105071	500	n/a	-1	-1	500	0.0	fixation	poldrack-single-stim	639	1738681	0.0-25.22-0.22	beast_fmri_test	328	1738281,/	t	<div class = centerbox2><div class = fixation>+</div></div>	none	500.0	test	n/a	n/a	n/a	n/a	n/a	n/a	n/a	n/a	n/a	n/a	n/a	n/a	n/a	n/a	n/a	n/a	n/a	n/a	fixation
103474.56531131058	1100.0	n/a	1316	71	2750	1599.43468869	stim	stop-signal	640	1741434	0.0-25.22-1.22	beast_fmri_test	328	1738960,/,1739639,/,1740317,/,1740997,/,1741677,/,1742358,/	t,t,t,t,t,t	<img class = center src='/static/experiments/beast_fmri_test/images/V.png'></img>	71,89	2750.0	test	<img class = center src='/static/experiments/beast_fmri_test/images/redV.png'></img>	stop	1650.0	3.0	22.0	stop	target	V	71,Index Finger	89,Middle Finger	1100.0	950.0	1650.0	1800.0	0.0	1100.0	n/a	0.0	go_stim
105124.56531131058	1650.0	n/a	1316	71	2750	1599.43468869	stim	stop-signal	640	1741434	0.0-25.22-1.22	beast_fmri_test	328	1738960,/,1739639,/,1740317,/,1740997,/,1741677,/,1742358,/	t,t,t,t,t,t	<img class = center src='/static/experiments/beast_fmri_test/images/V.png'></img>	71,89	2750.0	test	<img class = center src='/static/experiments/beast_fmri_test/images/redV.png'></img>	stop	1650.0	3.0	22.0	stop	target	V	71,Index Finger	89,Middle Finger	1100.0	950.0	1650.0	1800.0	0.0	1100.0	n/a	0.0	stop_stim
106224.56531131058	1599.43468868936	n/a	1316	71	2750	1599.43468869	stim	stop-signal	640	1741434	0.0-25.22-1.22	beast_fmri_test	328	1738960,/,1739639,/,1740317,/,1740997,/,1741677,/,1742358,/	t,t,t,t,t,t	<img class = center src='/static/experiments/beast_fmri_test/images/V.png'></img>	71,89	2750.0	test	<img class = center src='/static/experiments/beast_fmri_test/images/redV.png'></img>	stop	1650.0	3.0	22.0	stop	target	V	71,Index Finger	89,Middle Finger	1100.0	950.0	1650.0	1800.0	0.0	1100.0	n/a	0.0	ITI
109998	500	n/a	-1	-1	500	0.0	fixation	poldrack-single-stim	641	1743608	0.0-25.23-0.23	beast_fmri_test	328	1743106,/	t	<div class = centerbox2><div class = fixation>+</div></div>	none	500.0	test	n/a	n/a	n/a	n/a	n/a	n/a	n/a	n/a	n/a	n/a	n/a	n/a	n/a	n/a	n/a	n/a	n/a	n/a	fixation
109514.68852307089	2750	n/a	1087	89	2750	490.311476929	stim	stop-signal	642	1746365	0.0-25.23-1.23	beast_fmri_test	328	1743717,/,1744398,/,1745076,/,1745758,/,1746436,/	t,t,t,t,t	<img class = center src='/static/experiments/beast_fmri_test/images/T.png'></img>	71,89	2750.0	test	<img class = center src='/static/experiments/beast_fmri_test/images/redT.png'></img>	go	1800.0	3.0	23.0	go	non-target	T	71,Index Finger	89,Middle Finger	1050.0	950.0	1650.0	1800.0	1.0	950.0	1.0	n/a	go_stim
112264.68852307089	490.31147692900731	n/a	1087	89	2750	490.311476929	stim	stop-signal	642	1746365	0.0-25.23-1.23	beast_fmri_test	328	1743717,/,1744398,/,1745076,/,1745758,/,1746436,/	t,t,t,t,t	<img class = center src='/static/experiments/beast_fmri_test/images/T.png'></img>	71,89	2750.0	test	<img class = center src='/static/experiments/beast_fmri_test/images/redT.png'></img>	go	1800.0	3.0	23.0	go	non-target	T	71,Index Finger	89,Middle Finger	1050.0	950.0	1650.0	1800.0	1.0	950.0	1.0	n/a	ITI
113835	500	n/a	-1	-1	500	0.0	fixation	poldrack-single-stim	643	1747445	0.0-25.24-0.24	beast_fmri_test	328	1747118,/	t	<div class = centerbox2><div class = fixation>+</div></div>	none	500.0	test	n/a	n/a	n/a	n/a	n/a	n/a	n/a	n/a	n/a	n/a	n/a	n/a	n/a	n/a	n/a	n/a	n/a	n/a	fixation
113522.06447143573	2750	n/a	1281	89	2750	314.935528564	stim	stop-signal	644	1750197	0.0-25.24-1.24	beast_fmri_test	328	1747797,/,1748475,/,1749154,/,1749835,/	t,t,t,t	<img class = center src='/static/experiments/beast_fmri_test/images/T.png'></img>	71,89	2750.0	test	<img class = center src='/static/experiments/beast_fmri_test/images/redT.png'></img>	go	1800.0	3.0	24.0	go	non-target	T	71,Index Finger	89,Middle Finger	1050.0	950.0	1650.0	1800.0	1.0	950.0	1.0	n/a	go_stim
116272.06447143573	314.93552856431751	n/a	1281	89	2750	314.935528564	stim	stop-signal	644	1750197	0.0-25.24-1.24	beast_fmri_test	328	1747797,/,1748475,/,1749154,/,1749835,/	t,t,t,t	<img class = center src='/static/experiments/beast_fmri_test/images/T.png'></img>	71,89	2750.0	test	<img class = center src='/static/experiments/beast_fmri_test/images/redT.png'></img>	go	1800.0	3.0	24.0	go	non-target	T	71,Index Finger	89,Middle Finger	1050.0	950.0	1650.0	1800.0	1.0	950.0	1.0	n/a	ITI
117486	500	n/a	-1	-1	500	0.0	fixation	poldrack-single-stim	645	1751096	0.0-25.25-0.25	beast_fmri_test	328	1750595,/	t	<div class = centerbox2><div class = fixation>+</div></div>	none	500.0	test	n/a	n/a	n/a	n/a	n/a	n/a	n/a	n/a	n/a	n/a	n/a	n/a	n/a	n/a	n/a	n/a	n/a	n/a	fixation
117097.85201854631	2750	n/a	1129	89	2750	391.147981454	stim	stop-signal	646	1753849	0.0-25.25-1.25	beast_fmri_test	328	1751194,/,1751875,/,1752553,/,1753233,/,1753912,/	t,t,t,t,t	<img class = center src='/static/experiments/beast_fmri_test/images/B.png'></img>	71,89	2750.0	test	<img class = center src='/static/experiments/beast_fmri_test/images/redB.png'></img>	go	1800.0	3.0	25.0	go	non-target	B	71,Index Finger	89,Middle Finger	1050.0	950.0	1650.0	1800.0	1.0	950.0	1.0	n/a	go_stim
119847.85201854631	391.14798145365495	n/a	1129	89	2750	391.147981454	stim	stop-signal	646	1753849	0.0-25.25-1.25	beast_fmri_test	328	1751194,/,1751875,/,1752553,/,1753233,/,1753912,/	t,t,t,t,t	<img class = center src='/static/experiments/beast_fmri_test/images/B.png'></img>	71,89	2750.0	test	<img class = center src='/static/experiments/beast_fmri_test/images/redB.png'></img>	go	1800.0	3.0	25.0	go	non-target	B	71,Index Finger	89,Middle Finger	1050.0	950.0	1650.0	1800.0	1.0	950.0	1.0	n/a	ITI
121208	500	n/a	-1	-1	500	0.0	fixation	poldrack-single-stim	647	1754818	0.0-25.26-0.26	beast_fmri_test	328	1754593,/	t	<div class = centerbox2><div class = fixation>+</div></div>	none	500.0	test	n/a	n/a	n/a	n/a	n/a	n/a	n/a	n/a	n/a	n/a	n/a	n/a	n/a	n/a	n/a	n/a	n/a	n/a	fixation
120447.43421408022	950.0	n/a	-1	-1	2750	761.56578592	stim	stop-signal	648	1757569	0.0-25.26-1.26	beast_fmri_test	328	1755271,/,1755953,/,1756631,/,1757312,/,1757989,/	t,t,t,t,t	<img class = center src='/static/experiments/beast_fmri_test/images/V.png'></img>	71,89	2750.0	test	<img class = center src='/static/experiments/beast_fmri_test/images/redV.png'></img>	stop	1800.0	3.0	26.0	stop	non-target	V	71,Index Finger	89,Middle Finger	1050.0	950.0	1650.0	1800.0	0.0	950.0	n/a	1.0	go_stim
122247.43421408022	1800.0	n/a	-1	-1	2750	761.56578592	stim	stop-signal	648	1757569	0.0-25.26-1.26	beast_fmri_test	328	1755271,/,1755953,/,1756631,/,1757312,/,1757989,/	t,t,t,t,t	<img class = center src='/static/experiments/beast_fmri_test/images/V.png'></img>	71,89	2750.0	test	<img class = center src='/static/experiments/beast_fmri_test/images/redV.png'></img>	stop	1800.0	3.0	26.0	stop	non-target	V	71,Index Finger	89,Middle Finger	1050.0	950.0	1650.0	1800.0	0.0	950.0	n/a	1.0	stop_stim
123197.43421408022	761.56578591975301	n/a	-1	-1	2750	761.56578592	stim	stop-signal	648	1757569	0.0-25.26-1.26	beast_fmri_test	328	1755271,/,1755953,/,1756631,/,1757312,/,1757989,/	t,t,t,t,t	<img class = center src='/static/experiments/beast_fmri_test/images/V.png'></img>	71,89	2750.0	test	<img class = center src='/static/experiments/beast_fmri_test/images/redV.png'></img>	stop	1800.0	3.0	26.0	stop	non-target	V	71,Index Finger	89,Middle Finger	1050.0	950.0	1650.0	1800.0	0.0	950.0	n/a	1.0	ITI
125311	500	n/a	-1	-1	500	0.0	fixation	poldrack-single-stim	649	1758921	0.0-25.27-0.27	beast_fmri_test	328	1758671,/	t	<div class = centerbox2><div class = fixation>+</div></div>	none	500.0	test	n/a	n/a	n/a	n/a	n/a	n/a	n/a	n/a	n/a	n/a	n/a	n/a	n/a	n/a	n/a	n/a	n/a	n/a	fixation
124341.73323842837	2750	n/a	1509	89	2750	971.266761572	stim	stop-signal	650	1761673	0.0-25.27-1.27	beast_fmri_test	328	1759349,/,1760030,/,1760710,/,1761389,/,1762068,/	t,t,t,t,t	<img class = center src='/static/experiments/beast_fmri_test/images/B.png'></img>	71,89	2750.0	test	<img class = center src='/static/experiments/beast_fmri_test/images/redB.png'></img>	go	1750.0	3.0	27.0	go	non-target	B	71,Index Finger	89,Middle Finger	1050.0	1000.0	1650.0	1750.0	1.0	1000.0	1.0	n/a	go_stim
127091.73323842837	971.26676157164991	n/a	1509	89	2750	971.266761572	stim	stop-signal	650	1761673	0.0-25.27-1.27	beast_fmri_test	328	1759349,/,1760030,/,1760710,/,1761389,/,1762068,/	t,t,t,t,t	<img class = center src='/static/experiments/beast_fmri_test/images/B.png'></img>	71,89	2750.0	test	<img class = center src='/static/experiments/beast_fmri_test/images/redB.png'></img>	go	1750.0	3.0	27.0	go	non-target	B	71,Index Finger	89,Middle Finger	1050.0	1000.0	1650.0	1750.0	1.0	1000.0	1.0	n/a	ITI
129629	500	n/a	-1	-1	500	0.0	fixation	poldrack-single-stim	651	1763239	0.0-25.28-0.28	beast_fmri_test	328	1762748,/	t	<div class = centerbox2><div class = fixation>+</div></div>	none	500.0	test	n/a	n/a	n/a	n/a	n/a	n/a	n/a	n/a	n/a	n/a	n/a	n/a	n/a	n/a	n/a	n/a	n/a	n/a	fixation
127626.497297419	2750	n/a	1293	89	2750	2003.50270258	stim	stop-signal	652	1765990	0.0-25.28-1.28	beast_fmri_test	328	1763427,/,1764107,/,1764787,/,1765467,/,1766146,/,1766827,/,1767506,/	t,t,t,t,t,t,t	<img class = center src='/static/experiments/beast_fmri_test/images/D.png'></img>	71,89	2750.0	test	<img class = center src='/static/experiments/beast_fmri_test/images/redD.png'></img>	go	1750.0	3.0	28.0	go	non-target	D	71,Index Finger	89,Middle Finger	1050.0	1000.0	1650.0	1750.0	1.0	1000.0	1.0	n/a	go_stim
130376.497297419	2003.502702580992	n/a	1293	89	2750	2003.50270258	stim	stop-signal	652	1765990	0.0-25.28-1.28	beast_fmri_test	328	1763427,/,1764107,/,1764787,/,1765467,/,1766146,/,1766827,/,1767506,/	t,t,t,t,t,t,t	<img class = center src='/static/experiments/beast_fmri_test/images/D.png'></img>	71,89	2750.0	test	<img class = center src='/static/experiments/beast_fmri_test/images/redD.png'></img>	go	1750.0	3.0	28.0	go	non-target	D	71,Index Finger	89,Middle Finger	1050.0	1000.0	1650.0	1750.0	1.0	1000.0	1.0	n/a	ITI
134977	500	n/a	-1	-1	500	0.0	fixation	poldrack-single-stim	653	1768587	0.0-25.29-0.29	beast_fmri_test	328	1768186,/	t	<div class = centerbox2><div class = fixation>+</div></div>	none	500.0	test	n/a	n/a	n/a	n/a	n/a	n/a	n/a	n/a	n/a	n/a	n/a	n/a	n/a	n/a	n/a	n/a	n/a	n/a	fixation
134953.6738966899	1000.0	n/a	-1	-1	2750	26.3261033101	stim	stop-signal	654	1771340	0.0-25.29-1.29	beast_fmri_test	328	1768866,/,1769544,/,1770225,/,1770905,/	t,t,t,t	<img class = center src='/static/experiments/beast_fmri_test/images/P.png'></img>	71,89	2750.0	test	<img class = center src='/static/experiments/beast_fmri_test/images/redP.png'></img>	stop	1750.0	3.0	29.0	stop	non-target	P	71,Index Finger	89,Middle Finger	1050.0	1000.0	1650.0	1750.0	0.0	1000.0	n/a	1.0	go_stim
136703.6738966899	1750.0	n/a	-1	-1	2750	26.3261033101	stim	stop-signal	654	1771340	0.0-25.29-1.29	beast_fmri_test	328	1768866,/,1769544,/,1770225,/,1770905,/	t,t,t,t	<img class = center src='/static/experiments/beast_fmri_test/images/P.png'></img>	71,89	2750.0	test	<img class = center src='/static/experiments/beast_fmri_test/images/redP.png'></img>	stop	1750.0	3.0	29.0	stop	non-target	P	71,Index Finger	89,Middle Finger	1050.0	1000.0	1650.0	1750.0	0.0	1000.0	n/a	1.0	stop_stim
137703.6738966899	26.326103310095853	n/a	-1	-1	2750	26.3261033101	stim	stop-signal	654	1771340	0.0-25.29-1.29	beast_fmri_test	328	1768866,/,1769544,/,1770225,/,1770905,/	t,t,t,t	<img class = center src='/static/experiments/beast_fmri_test/images/P.png'></img>	71,89	2750.0	test	<img class = center src='/static/experiments/beast_fmri_test/images/redP.png'></img>	stop	1750.0	3.0	29.0	stop	non-target	P	71,Index Finger	89,Middle Finger	1050.0	1000.0	1650.0	1750.0	0.0	1000.0	n/a	1.0	ITI
138348	500	n/a	-1	-1	500	0.0	fixation	poldrack-single-stim	655	1771958	0.0-25.30-0.30	beast_fmri_test	328	1771584,/	t	<div class = centerbox2><div class = fixation>+</div></div>	none	500.0	test	n/a	n/a	n/a	n/a	n/a	n/a	n/a	n/a	n/a	n/a	n/a	n/a	n/a	n/a	n/a	n/a	n/a	n/a	fixation
137906.02198847081	2750	n/a	1532	71	2750	444.978011529	stim	stop-signal	656	1774711	0.0-25.30-1.30	beast_fmri_test	328	1772264,/,1772944,/,1773625,/,1774303,/,1774983,/	t,t,t,t,t	<img class = center src='/static/experiments/beast_fmri_test/images/B.png'></img>	71,89	2750.0	test	<img class = center src='/static/experiments/beast_fmri_test/images/redB.png'></img>	go	1700.0	3.0	30.0	go	target	B	71,Index Finger	89,Middle Finger	1050.0	1050.0	1700.0	1750.0	1.0	1050.0	1.0	n/a	go_stim
140656.02198847081	444.97801152912422	n/a	1532	71	2750	444.978011529	stim	stop-signal	656	1774711	0.0-25.30-1.30	beast_fmri_test	328	1772264,/,1772944,/,1773625,/,1774303,/,1774983,/	t,t,t,t,t	<img class = center src='/static/experiments/beast_fmri_test/images/B.png'></img>	71,89	2750.0	test	<img class = center src='/static/experiments/beast_fmri_test/images/redB.png'></img>	go	1700.0	3.0	30.0	go	target	B	71,Index Finger	89,Middle Finger	1050.0	1050.0	1700.0	1750.0	1.0	1050.0	1.0	n/a	ITI
142142	500	n/a	-1	-1	500	0.0	fixation	poldrack-single-stim	657	1775752	0.0-25.31-0.31	beast_fmri_test	328	1775663,/	t	<div class = centerbox2><div class = fixation>+</div></div>	none	500.0	test	n/a	n/a	n/a	n/a	n/a	n/a	n/a	n/a	n/a	n/a	n/a	n/a	n/a	n/a	n/a	n/a	n/a	n/a	fixation
141415.69705232419	1050.0	n/a	1290	89	2750	730.302947676	stim	stop-signal	658	1778506	0.0-25.31-1.31	beast_fmri_test	328	1776347,/,1777022,/,1777701,/,1778380,/,1779060,/	t,t,t,t,t	<img class = center src='/static/experiments/beast_fmri_test/images/V.png'></img>	71,89	2750.0	test	<img class = center src='/static/experiments/beast_fmri_test/images/redV.png'></img>	stop	1700.0	3.0	31.0	stop	non-target	V	71,Index Finger	89,Middle Finger	1050.0	1050.0	1700.0	1700.0	0.0	1050.0	n/a	0.0	go_stim
143115.69705232419	1700.0	n/a	1290	89	2750	730.302947676	stim	stop-signal	658	1778506	0.0-25.31-1.31	beast_fmri_test	328	1776347,/,1777022,/,1777701,/,1778380,/,1779060,/	t,t,t,t,t	<img class = center src='/static/experiments/beast_fmri_test/images/V.png'></img>	71,89	2750.0	test	<img class = center src='/static/experiments/beast_fmri_test/images/redV.png'></img>	stop	1700.0	3.0	31.0	stop	non-target	V	71,Index Finger	89,Middle Finger	1050.0	1050.0	1700.0	1700.0	0.0	1050.0	n/a	0.0	stop_stim
144165.69705232419	730.30294767572798	n/a	1290	89	2750	730.302947676	stim	stop-signal	658	1778506	0.0-25.31-1.31	beast_fmri_test	328	1776347,/,1777022,/,1777701,/,1778380,/,1779060,/	t,t,t,t,t	<img class = center src='/static/experiments/beast_fmri_test/images/V.png'></img>	71,89	2750.0	test	<img class = center src='/static/experiments/beast_fmri_test/images/redV.png'></img>	stop	1700.0	3.0	31.0	stop	non-target	V	71,Index Finger	89,Middle Finger	1050.0	1050.0	1700.0	1700.0	0.0	1050.0	n/a	0.0	ITI
146215	500	n/a	-1	-1	500	0.0	fixation	poldrack-single-stim	659	1779825	0.0-25.32-0.32	beast_fmri_test	328	1779742,/	t	<div class = centerbox2><div class = fixation>+</div></div>	none	500.0	test	n/a	n/a	n/a	n/a	n/a	n/a	n/a	n/a	n/a	n/a	n/a	n/a	n/a	n/a	n/a	n/a	n/a	n/a	fixation
142218.13449750934	2750	n/a	1038	89	2750	3999.86550249	stim	stop-signal	660	1782578	0.0-25.32-1.32	beast_fmri_test	328	1780420,/,1781100,/,1781780,/,1782459,/,1783140,/,1783820,/,1784500,/,1785179,/,1785857,/,1786538,/	t,t,t,t,t,t,t,t,t,t	<img class = center src='/static/experiments/beast_fmri_test/images/T.png'></img>	71,89	2750.0	test	<img class = center src='/static/experiments/beast_fmri_test/images/redT.png'></img>	go	1750.0	3.0	32.0	go	non-target	T	71,Index Finger	89,Middle Finger	1050.0	1000.0	1700.0	1750.0	1.0	1000.0	1.0	n/a	go_stim
144968.13449750934	3999.8655024905511	n/a	1038	89	2750	3999.86550249	stim	stop-signal	660	1782578	0.0-25.32-1.32	beast_fmri_test	328	1780420,/,1781100,/,1781780,/,1782459,/,1783140,/,1783820,/,1784500,/,1785179,/,1785857,/,1786538,/	t,t,t,t,t,t,t,t,t,t	<img class = center src='/static/experiments/beast_fmri_test/images/T.png'></img>	71,89	2750.0	test	<img class = center src='/static/experiments/beast_fmri_test/images/redT.png'></img>	go	1750.0	3.0	32.0	go	non-target	T	71,Index Finger	89,Middle Finger	1050.0	1000.0	1700.0	1750.0	1.0	1000.0	1.0	n/a	ITI
153560	500	n/a	-1	-1	500	0.0	fixation	poldrack-single-stim	661	1787170	0.0-25.33-0.33	beast_fmri_test	328	n/a	n/a	<div class = centerbox2><div class = fixation>+</div></div>	none	500.0	test	n/a	n/a	n/a	n/a	n/a	n/a	n/a	n/a	n/a	n/a	n/a	n/a	n/a	n/a	n/a	n/a	n/a	n/a	fixation
151679.59317824082	2750	n/a	1128	89	2750	1882.40682176	stim	stop-signal	662	1789922	0.0-25.33-1.33	beast_fmri_test	328	1787216,/,1787896,/,1788577,/,1789257,/,1789935,/,1790615,/,1791295,/	t,t,t,t,t,t,t	<img class = center src='/static/experiments/beast_fmri_test/images/B.png'></img>	71,89	2750.0	test	<img class = center src='/static/experiments/beast_fmri_test/images/redB.png'></img>	go	1700.0	3.0	33.0	go	target	B	71,Index Finger	89,Middle Finger	1050.0	1000.0	1700.0	1750.0	0.0	1050.0	0.0	n/a	go_stim
154429.59317824082	1882.4068217590734	n/a	1128	89	2750	1882.40682176	stim	stop-signal	662	1789922	0.0-25.33-1.33	beast_fmri_test	328	1787216,/,1787896,/,1788577,/,1789257,/,1789935,/,1790615,/,1791295,/	t,t,t,t,t,t,t	<img class = center src='/static/experiments/beast_fmri_test/images/B.png'></img>	71,89	2750.0	test	<img class = center src='/static/experiments/beast_fmri_test/images/redB.png'></img>	go	1700.0	3.0	33.0	go	target	B	71,Index Finger	89,Middle Finger	1050.0	1000.0	1700.0	1750.0	0.0	1050.0	0.0	n/a	ITI
158792	500	n/a	-1	-1	500	0.0	fixation	poldrack-single-stim	663	1792402	0.0-25.34-0.34	beast_fmri_test	328	1791974,/	t	<div class = centerbox2><div class = fixation>+</div></div>	none	500.0	test	n/a	n/a	n/a	n/a	n/a	n/a	n/a	n/a	n/a	n/a	n/a	n/a	n/a	n/a	n/a	n/a	n/a	n/a	fixation
158021.83759942581	1000.0	n/a	1261	89	2750	771.162400574	stim	stop-signal	664	1795153	0.0-25.34-1.34	beast_fmri_test	328	1792654,/,1793335,/,1794015,/,1794695,/,1795373,/	t,t,t,t,t	<img class = center src='/static/experiments/beast_fmri_test/images/P.png'></img>	71,89	2750.0	test	<img class = center src='/static/experiments/beast_fmri_test/images/redP.png'></img>	stop	1750.0	3.0	34.0	stop	non-target	P	71,Index Finger	89,Middle Finger	1050.0	1000.0	1700.0	1750.0	0.0	1000.0	n/a	0.0	go_stim
159771.83759942581	1750.0	n/a	1261	89	2750	771.162400574	stim	stop-signal	664	1795153	0.0-25.34-1.34	beast_fmri_test	328	1792654,/,1793335,/,1794015,/,1794695,/,1795373,/	t,t,t,t,t	<img class = center src='/static/experiments/beast_fmri_test/images/P.png'></img>	71,89	2750.0	test	<img class = center src='/static/experiments/beast_fmri_test/images/redP.png'></img>	stop	1750.0	3.0	34.0	stop	non-target	P	71,Index Finger	89,Middle Finger	1050.0	1000.0	1700.0	1750.0	0.0	1000.0	n/a	0.0	stop_stim
160771.83759942581	771.16240057413393	n/a	1261	89	2750	771.162400574	stim	stop-signal	664	1795153	0.0-25.34-1.34	beast_fmri_test	328	1792654,/,1793335,/,1794015,/,1794695,/,1795373,/	t,t,t,t,t	<img class = center src='/static/experiments/beast_fmri_test/images/P.png'></img>	71,89	2750.0	test	<img class = center src='/static/experiments/beast_fmri_test/images/redP.png'></img>	stop	1750.0	3.0	34.0	stop	non-target	P	71,Index Finger	89,Middle Finger	1050.0	1000.0	1700.0	1750.0	0.0	1000.0	n/a	0.0	ITI
162917	500	n/a	-1	-1	500	0.0	fixation	poldrack-single-stim	665	1796527	0.0-25.35-0.35	beast_fmri_test	328	1796058,/	t	<div class = centerbox2><div class = fixation>+</div></div>	none	500.0	test	n/a	n/a	n/a	n/a	n/a	n/a	n/a	n/a	n/a	n/a	n/a	n/a	n/a	n/a	n/a	n/a	n/a	n/a	fixation
161923.88021980179	1050.0	n/a	1088	71	2750	996.119780198	stim	stop-signal	666	1799280	0.0-25.35-1.35	beast_fmri_test	328	1796734,/,1797413,/,1798093,/,1798773,/,1799452,/,1800131,/	t,t,t,t,t,t	<img class = center src='/static/experiments/beast_fmri_test/images/T.png'></img>	71,89	2750.0	test	<img class = center src='/static/experiments/beast_fmri_test/images/redT.png'></img>	stop	1700.0	3.0	35.0	stop	target	T	71,Index Finger	89,Middle Finger	1050.0	950.0	1700.0	1750.0	0.0	1050.0	n/a	0.0	go_stim
163623.88021980179	1700.0	n/a	1088	71	2750	996.119780198	stim	stop-signal	666	1799280	0.0-25.35-1.35	beast_fmri_test	328	1796734,/,1797413,/,1798093,/,1798773,/,1799452,/,1800131,/	t,t,t,t,t,t	<img class = center src='/static/experiments/beast_fmri_test/images/T.png'></img>	71,89	2750.0	test	<img class = center src='/static/experiments/beast_fmri_test/images/redT.png'></img>	stop	1700.0	3.0	35.0	stop	target	T	71,Index Finger	89,Middle Finger	1050.0	950.0	1700.0	1750.0	0.0	1050.0	n/a	0.0	stop_stim
164673.88021980179	996.11978019831884	n/a	1088	71	2750	996.119780198	stim	stop-signal	666	1799280	0.0-25.35-1.35	beast_fmri_test	328	1796734,/,1797413,/,1798093,/,1798773,/,1799452,/,1800131,/	t,t,t,t,t,t	<img class = center src='/static/experiments/beast_fmri_test/images/T.png'></img>	71,89	2750.0	test	<img class = center src='/static/experiments/beast_fmri_test/images/redT.png'></img>	stop	1700.0	3.0	35.0	stop	target	T	71,Index Finger	89,Middle Finger	1050.0	950.0	1700.0	1750.0	0.0	1050.0	n/a	0.0	ITI
167250	500	n/a	-1	-1	500	0.0	fixation	poldrack-single-stim	667	1800860	0.0-25.36-0.36	beast_fmri_test	328	1800812,/	t	<div class = centerbox2><div class = fixation>+</div></div>	none	500.0	test	n/a	n/a	n/a	n/a	n/a	n/a	n/a	n/a	n/a	n/a	n/a	n/a	n/a	n/a	n/a	n/a	n/a	n/a	fixation
166257.18516444205	2750	n/a	1668	89	2750	994.814835558	stim	stop-signal	668	1803612	0.0-25.36-1.36	beast_fmri_test	328	1801492,/,1802171,/,1802851,/,1803574,/,1804211,/	t,t,t,t,t	<img class = center src='/static/experiments/beast_fmri_test/images/P.png'></img>	71,89	2750.0	test	<img class = center src='/static/experiments/beast_fmri_test/images/redP.png'></img>	go	1800.0	3.0	36.0	go	non-target	P	71,Index Finger	89,Middle Finger	1000.0	950.0	1700.0	1800.0	1.0	950.0	1.0	n/a	go_stim
169007.18516444205	994.81483555783177	n/a	1668	89	2750	994.814835558	stim	stop-signal	668	1803612	0.0-25.36-1.36	beast_fmri_test	328	1801492,/,1802171,/,1802851,/,1803574,/,1804211,/	t,t,t,t,t	<img class = center src='/static/experiments/beast_fmri_test/images/P.png'></img>	71,89	2750.0	test	<img class = center src='/static/experiments/beast_fmri_test/images/redP.png'></img>	go	1800.0	3.0	36.0	go	non-target	P	71,Index Finger	89,Middle Finger	1000.0	950.0	1700.0	1800.0	1.0	950.0	1.0	n/a	ITI
171579	500	n/a	-1	-1	500	0.0	fixation	poldrack-single-stim	669	1805189	0.0-25.37-0.37	beast_fmri_test	328	1804890,/	t	<div class = centerbox2><div class = fixation>+</div></div>	none	500.0	test	n/a	n/a	n/a	n/a	n/a	n/a	n/a	n/a	n/a	n/a	n/a	n/a	n/a	n/a	n/a	n/a	n/a	n/a	fixation
170583.45793078677	2750	n/a	1324	71	2750	996.542069213	stim	stop-signal	670	1807940	0.0-25.37-1.37	beast_fmri_test	328	1805570,/,1806249,/,1806928,/,1807608,/,1808289,/	t,t,t,t,t	<img class = center src='/static/experiments/beast_fmri_test/images/P.png'></img>	71,89	2750.0	test	<img class = center src='/static/experiments/beast_fmri_test/images/redP.png'></img>	go	1750.0	3.0	37.0	go	target	P	71,Index Finger	89,Middle Finger	1000.0	950.0	1750.0	1800.0	1.0	1000.0	1.0	n/a	go_stim
173333.45793078677	996.54206921326124	n/a	1324	71	2750	996.542069213	stim	stop-signal	670	1807940	0.0-25.37-1.37	beast_fmri_test	328	1805570,/,1806249,/,1806928,/,1807608,/,1808289,/	t,t,t,t,t	<img class = center src='/static/experiments/beast_fmri_test/images/P.png'></img>	71,89	2750.0	test	<img class = center src='/static/experiments/beast_fmri_test/images/redP.png'></img>	go	1750.0	3.0	37.0	go	target	P	71,Index Finger	89,Middle Finger	1000.0	950.0	1750.0	1800.0	1.0	1000.0	1.0	n/a	ITI
175914	500	n/a	-1	-1	500	0.0	fixation	poldrack-single-stim	671	1809524	0.0-25.38-0.38	beast_fmri_test	328	1809023,/	t	<div class = centerbox2><div class = fixation>+</div></div>	none	500.0	test	n/a	n/a	n/a	n/a	n/a	n/a	n/a	n/a	n/a	n/a	n/a	n/a	n/a	n/a	n/a	n/a	n/a	n/a	fixation
175813.04367042356	950.0	n/a	875	89	2750	103.956329577	stim	stop-signal	672	1812277	0.0-25.38-1.38	beast_fmri_test	328	1809648,/,1810331,/,1811006,/,1811687,/,1812366,/	t,t,t,t,t	<img class = center src='/static/experiments/beast_fmri_test/images/P.png'></img>	71,89	2750.0	test	<img class = center src='/static/experiments/beast_fmri_test/images/redP.png'></img>	stop	1800.0	3.0	38.0	stop	non-target	P	71,Index Finger	89,Middle Finger	1000.0	950.0	1750.0	1800.0	0.0	950.0	n/a	0.0	go_stim
177613.04367042356	1800.0	n/a	875	89	2750	103.956329577	stim	stop-signal	672	1812277	0.0-25.38-1.38	beast_fmri_test	328	1809648,/,1810331,/,1811006,/,1811687,/,1812366,/	t,t,t,t,t	<img class = center src='/static/experiments/beast_fmri_test/images/P.png'></img>	71,89	2750.0	test	<img class = center src='/static/experiments/beast_fmri_test/images/redP.png'></img>	stop	1800.0	3.0	38.0	stop	non-target	P	71,Index Finger	89,Middle Finger	1000.0	950.0	1750.0	1800.0	0.0	950.0	n/a	0.0	stop_stim
178563.04367042356	103.95632957653153	n/a	875	89	2750	103.956329577	stim	stop-signal	672	1812277	0.0-25.38-1.38	beast_fmri_test	328	1809648,/,1810331,/,1811006,/,1811687,/,1812366,/	t,t,t,t,t	<img class = center src='/static/experiments/beast_fmri_test/images/P.png'></img>	71,89	2750.0	test	<img class = center src='/static/experiments/beast_fmri_test/images/redP.png'></img>	stop	1800.0	3.0	38.0	stop	non-target	P	71,Index Finger	89,Middle Finger	1000.0	950.0	1750.0	1800.0	0.0	950.0	n/a	0.0	ITI
179357	500	n/a	-1	-1	500	0.0	fixation	poldrack-single-stim	673	1812967	0.0-25.39-0.39	beast_fmri_test	328	n/a	n/a	<div class = centerbox2><div class = fixation>+</div></div>	none	500.0	test	n/a	n/a	n/a	n/a	n/a	n/a	n/a	n/a	n/a	n/a	n/a	n/a	n/a	n/a	n/a	n/a	n/a	n/a	fixation
177345.0288529864	2750	n/a	1192	89	2750	2014.97114701	stim	stop-signal	674	1815720	0.0-25.39-1.39	beast_fmri_test	328	1813045,/,1813725,/,1814405,/,1815085,/,1815764,/,1816443,/,1817124,/	t,t,t,t,t,t,t	<img class = center src='/static/experiments/beast_fmri_test/images/B.png'></img>	71,89	2750.0	test	<img class = center src='/static/experiments/beast_fmri_test/images/redB.png'></img>	go	1850.0	3.0	39.0	go	non-target	B	71,Index Finger	89,Middle Finger	1000.0	900.0	1750.0	1850.0	1.0	900.0	1.0	n/a	go_stim
180095.0288529864	2014.9711470136774	n/a	1192	89	2750	2014.97114701	stim	stop-signal	674	1815720	0.0-25.39-1.39	beast_fmri_test	328	1813045,/,1813725,/,1814405,/,1815085,/,1815764,/,1816443,/,1817124,/	t,t,t,t,t,t,t	<img class = center src='/static/experiments/beast_fmri_test/images/B.png'></img>	71,89	2750.0	test	<img class = center src='/static/experiments/beast_fmri_test/images/redB.png'></img>	go	1850.0	3.0	39.0	go	non-target	B	71,Index Finger	89,Middle Finger	1000.0	900.0	1750.0	1850.0	1.0	900.0	1.0	n/a	ITI
184719	500	n/a	-1	-1	500	0.0	fixation	poldrack-single-stim	675	1818329	0.0-25.40-0.40	beast_fmri_test	328	1817826,/	t	<div class = centerbox2><div class = fixation>+</div></div>	none	500.0	test	n/a	n/a	n/a	n/a	n/a	n/a	n/a	n/a	n/a	n/a	n/a	n/a	n/a	n/a	n/a	n/a	n/a	n/a	fixation
184660.27054978698	2750	n/a	1024	71	2750	60.7294502131	stim	stop-signal	676	1821081	0.0-25.40-1.40	beast_fmri_test	328	1818484,/,1819164,/,1819843,/,1820522,/	t,t,t,t	<img class = center src='/static/experiments/beast_fmri_test/images/P.png'></img>	71,89	2750.0	test	<img class = center src='/static/experiments/beast_fmri_test/images/redP.png'></img>	go	1750.0	3.0	40.0	go	target	P	71,Index Finger	89,Middle Finger	1000.0	900.0	1750.0	1850.0	1.0	1000.0	1.0	n/a	go_stim
187410.27054978698	60.729450213097365	n/a	1024	71	2750	60.7294502131	stim	stop-signal	676	1821081	0.0-25.40-1.40	beast_fmri_test	328	1818484,/,1819164,/,1819843,/,1820522,/	t,t,t,t	<img class = center src='/static/experiments/beast_fmri_test/images/P.png'></img>	71,89	2750.0	test	<img class = center src='/static/experiments/beast_fmri_test/images/redP.png'></img>	go	1750.0	3.0	40.0	go	target	P	71,Index Finger	89,Middle Finger	1000.0	900.0	1750.0	1850.0	1.0	1000.0	1.0	n/a	ITI
188127	500	n/a	-1	-1	500	0.0	fixation	poldrack-single-stim	677	1821737	0.0-25.41-0.41	beast_fmri_test	328	1821234,/	t	<div class = centerbox2><div class = fixation>+</div></div>	none	500.0	test	n/a	n/a	n/a	n/a	n/a	n/a	n/a	n/a	n/a	n/a	n/a	n/a	n/a	n/a	n/a	n/a	n/a	n/a	fixation
187998.80928441207	2750	n/a	1104	89	2750	129.190715588	stim	stop-signal	678	1824488	0.0-25.41-1.41	beast_fmri_test	328	1821882,/,1822561,/,1823240,/,1823920,/,1824600,/	t,t,t,t,t	<img class = center src='/static/experiments/beast_fmri_test/images/V.png'></img>	71,89	2750.0	test	<img class = center src='/static/experiments/beast_fmri_test/images/redV.png'></img>	go	1850.0	3.0	41.0	go	non-target	V	71,Index Finger	89,Middle Finger	1000.0	900.0	1750.0	1850.0	1.0	900.0	1.0	n/a	go_stim
190748.80928441207	129.19071558802383	n/a	1104	89	2750	129.190715588	stim	stop-signal	678	1824488	0.0-25.41-1.41	beast_fmri_test	328	1821882,/,1822561,/,1823240,/,1823920,/,1824600,/	t,t,t,t,t	<img class = center src='/static/experiments/beast_fmri_test/images/V.png'></img>	71,89	2750.0	test	<img class = center src='/static/experiments/beast_fmri_test/images/redV.png'></img>	go	1850.0	3.0	41.0	go	non-target	V	71,Index Finger	89,Middle Finger	1000.0	900.0	1750.0	1850.0	1.0	900.0	1.0	n/a	ITI
191595	500	n/a	-1	-1	500	0.0	fixation	poldrack-single-stim	679	1825205	0.0-25.42-0.42	beast_fmri_test	328	n/a	n/a	<div class = centerbox2><div class = fixation>+</div></div>	none	500.0	test	n/a	n/a	n/a	n/a	n/a	n/a	n/a	n/a	n/a	n/a	n/a	n/a	n/a	n/a	n/a	n/a	n/a	n/a	fixation
189271.34456486558	2750	n/a	1603	89	2750	2325.65543513	stim	stop-signal	680	1827957	0.0-25.42-1.42	beast_fmri_test	328	1825280,/,1825960,/,1826640,/,1827321,/,1827997,/,1828678,/,1829358,/,1830039,/	t,t,t,t,t,t,t,t	<img class = center src='/static/experiments/beast_fmri_test/images/P.png'></img>	71,89	2750.0	test	<img class = center src='/static/experiments/beast_fmri_test/images/redP.png'></img>	go	1850.0	3.0	42.0	go	non-target	P	71,Index Finger	89,Middle Finger	1000.0	900.0	1750.0	1850.0	1.0	900.0	1.0	n/a	go_stim
192021.34456486558	2325.6554351344253	n/a	1603	89	2750	2325.65543513	stim	stop-signal	680	1827957	0.0-25.42-1.42	beast_fmri_test	328	1825280,/,1825960,/,1826640,/,1827321,/,1827997,/,1828678,/,1829358,/,1830039,/	t,t,t,t,t,t,t,t	<img class = center src='/static/experiments/beast_fmri_test/images/P.png'></img>	71,89	2750.0	test	<img class = center src='/static/experiments/beast_fmri_test/images/redP.png'></img>	go	1850.0	3.0	42.0	go	non-target	P	71,Index Finger	89,Middle Finger	1000.0	900.0	1750.0	1850.0	1.0	900.0	1.0	n/a	ITI
197264	500	n/a	-1	-1	500	0.0	fixation	poldrack-single-stim	681	1830874	0.0-25.43-0.43	beast_fmri_test	328	1830718,/	t	<div class = centerbox2><div class = fixation>+</div></div>	none	500.0	test	n/a	n/a	n/a	n/a	n/a	n/a	n/a	n/a	n/a	n/a	n/a	n/a	n/a	n/a	n/a	n/a	n/a	n/a	fixation
197033.10494292947	2750	n/a	853	89	2750	232.89505707	stim	stop-signal	682	1833626	0.0-25.43-1.43	beast_fmri_test	328	1831398,/,1832076,/,1832758,/,1833437,/	t,t,t,t	<img class = center src='/static/experiments/beast_fmri_test/images/T.png'></img>	71,89	2750.0	test	<img class = center src='/static/experiments/beast_fmri_test/images/redT.png'></img>	go	1850.0	3.0	43.0	go	non-target	T	71,Index Finger	89,Middle Finger	1000.0	900.0	1750.0	1850.0	1.0	900.0	1.0	n/a	go_stim
199783.10494292947	232.89505707048076	n/a	853	89	2750	232.89505707	stim	stop-signal	682	1833626	0.0-25.43-1.43	beast_fmri_test	328	1831398,/,1832076,/,1832758,/,1833437,/	t,t,t,t	<img class = center src='/static/experiments/beast_fmri_test/images/T.png'></img>	71,89	2750.0	test	<img class = center src='/static/experiments/beast_fmri_test/images/redT.png'></img>	go	1850.0	3.0	43.0	go	non-target	T	71,Index Finger	89,Middle Finger	1000.0	900.0	1750.0	1850.0	1.0	900.0	1.0	n/a	ITI
200841	500	n/a	-1	-1	500	0.0	fixation	poldrack-single-stim	683	1834451	0.0-25.44-0.44	beast_fmri_test	328	1834117,/	t	<div class = centerbox2><div class = fixation>+</div></div>	none	500.0	test	n/a	n/a	n/a	n/a	n/a	n/a	n/a	n/a	n/a	n/a	n/a	n/a	n/a	n/a	n/a	n/a	n/a	n/a	fixation
198892.71845144103	2750	n/a	1258	89	2750	1949.28154856	stim	stop-signal	684	1837202	0.0-25.44-1.44	beast_fmri_test	328	1834797,/,1835476,/,1836156,/,1836835,/,1837515,/,1838193,/,1838874,/	t,t,t,t,t,t,t	<img class = center src='/static/experiments/beast_fmri_test/images/T.png'></img>	71,89	2750.0	test	<img class = center src='/static/experiments/beast_fmri_test/images/redT.png'></img>	go	1850.0	3.0	44.0	go	non-target	T	71,Index Finger	89,Middle Finger	1000.0	900.0	1750.0	1850.0	1.0	900.0	1.0	n/a	go_stim
201642.71845144103	1949.2815485589747	n/a	1258	89	2750	1949.28154856	stim	stop-signal	684	1837202	0.0-25.44-1.44	beast_fmri_test	328	1834797,/,1835476,/,1836156,/,1836835,/,1837515,/,1838193,/,1838874,/	t,t,t,t,t,t,t	<img class = center src='/static/experiments/beast_fmri_test/images/T.png'></img>	71,89	2750.0	test	<img class = center src='/static/experiments/beast_fmri_test/images/redT.png'></img>	go	1850.0	3.0	44.0	go	non-target	T	71,Index Finger	89,Middle Finger	1000.0	900.0	1750.0	1850.0	1.0	900.0	1.0	n/a	ITI
206135	500	n/a	-1	-1	500	0.0	fixation	poldrack-single-stim	685	1839745	0.0-25.45-0.45	beast_fmri_test	328	1839553,/	t	<div class = centerbox2><div class = fixation>+</div></div>	none	500.0	test	n/a	n/a	n/a	n/a	n/a	n/a	n/a	n/a	n/a	n/a	n/a	n/a	n/a	n/a	n/a	n/a	n/a	n/a	fixation
205508.2647053441	2750	n/a	1191	89	2750	628.735294656	stim	stop-signal	686	1842497	0.0-25.45-1.45	beast_fmri_test	328	1840234,/,1840914,/,1841593,/,1842272,/,1842952,/	t,t,t,t,t	<img class = center src='/static/experiments/beast_fmri_test/images/B.png'></img>	71,89	2750.0	test	<img class = center src='/static/experiments/beast_fmri_test/images/redB.png'></img>	go	1850.0	3.0	45.0	go	non-target	B	71,Index Finger	89,Middle Finger	1000.0	900.0	1750.0	1850.0	1.0	900.0	1.0	n/a	go_stim
208258.2647053441	628.73529465592685	n/a	1191	89	2750	628.735294656	stim	stop-signal	686	1842497	0.0-25.45-1.45	beast_fmri_test	328	1840234,/,1840914,/,1841593,/,1842272,/,1842952,/	t,t,t,t,t	<img class = center src='/static/experiments/beast_fmri_test/images/B.png'></img>	71,89	2750.0	test	<img class = center src='/static/experiments/beast_fmri_test/images/redB.png'></img>	go	1850.0	3.0	45.0	go	non-target	B	71,Index Finger	89,Middle Finger	1000.0	900.0	1750.0	1850.0	1.0	900.0	1.0	n/a	ITI
210108	500	n/a	-1	-1	500	0.0	fixation	poldrack-single-stim	687	1843718	0.0-25.46-0.46	beast_fmri_test	328	1843632,/	t	<div class = centerbox2><div class = fixation>+</div></div>	none	500.0	test	n/a	n/a	n/a	n/a	n/a	n/a	n/a	n/a	n/a	n/a	n/a	n/a	n/a	n/a	n/a	n/a	n/a	n/a	fixation
210096.0672080752	1000.0	n/a	933	71	2750	14.9327919248	stim	stop-signal	688	1846471	0.0-25.46-1.46	beast_fmri_test	328	1844314,/,1844991,/,1845671,/,1846351,/	t,t,t,t	<img class = center src='/static/experiments/beast_fmri_test/images/T.png'></img>	71,89	2750.0	test	<img class = center src='/static/experiments/beast_fmri_test/images/redT.png'></img>	stop	1750.0	3.0	46.0	stop	target	T	71,Index Finger	89,Middle Finger	1000.0	900.0	1750.0	1850.0	0.0	1000.0	n/a	0.0	go_stim
211846.0672080752	1750.0	n/a	933	71	2750	14.9327919248	stim	stop-signal	688	1846471	0.0-25.46-1.46	beast_fmri_test	328	1844314,/,1844991,/,1845671,/,1846351,/	t,t,t,t	<img class = center src='/static/experiments/beast_fmri_test/images/T.png'></img>	71,89	2750.0	test	<img class = center src='/static/experiments/beast_fmri_test/images/redT.png'></img>	stop	1750.0	3.0	46.0	stop	target	T	71,Index Finger	89,Middle Finger	1000.0	900.0	1750.0	1850.0	0.0	1000.0	n/a	0.0	stop_stim
212846.0672080752	14.932791924784064	n/a	933	71	2750	14.9327919248	stim	stop-signal	688	1846471	0.0-25.46-1.46	beast_fmri_test	328	1844314,/,1844991,/,1845671,/,1846351,/	t,t,t,t	<img class = center src='/static/experiments/beast_fmri_test/images/T.png'></img>	71,89	2750.0	test	<img class = center src='/static/experiments/beast_fmri_test/images/redT.png'></img>	stop	1750.0	3.0	46.0	stop	target	T	71,Index Finger	89,Middle Finger	1000.0	900.0	1750.0	1850.0	0.0	1000.0	n/a	0.0	ITI
213461	500	n/a	-1	-1	500	0.0	fixation	poldrack-single-stim	689	1847071	0.0-25.47-0.47	beast_fmri_test	328	1847031,/	t	<div class = centerbox2><div class = fixation>+</div></div>	none	500.0	test	n/a	n/a	n/a	n/a	n/a	n/a	n/a	n/a	n/a	n/a	n/a	n/a	n/a	n/a	n/a	n/a	n/a	n/a	fixation
213153.73466201173	2750	n/a	1663	89	2750	309.265337988	stim	stop-signal	690	1849823	0.0-25.47-1.47	beast_fmri_test	328	1847710,/,1848389,/,1849067,/,1849749,/	t,t,t,t	<img class = center src='/static/experiments/beast_fmri_test/images/T.png'></img>	71,89	2750.0	test	<img class = center src='/static/experiments/beast_fmri_test/images/redT.png'></img>	go	1800.0	3.0	47.0	go	target	T	71,Index Finger	89,Middle Finger	950.0	900.0	1800.0	1850.0	0.0	950.0	0.0	n/a	go_stim
215903.73466201173	309.26533798819213	n/a	1663	89	2750	309.265337988	stim	stop-signal	690	1849823	0.0-25.47-1.47	beast_fmri_test	328	1847710,/,1848389,/,1849067,/,1849749,/	t,t,t,t	<img class = center src='/static/experiments/beast_fmri_test/images/T.png'></img>	71,89	2750.0	test	<img class = center src='/static/experiments/beast_fmri_test/images/redT.png'></img>	go	1800.0	3.0	47.0	go	target	T	71,Index Finger	89,Middle Finger	950.0	900.0	1800.0	1850.0	0.0	950.0	0.0	n/a	ITI
231603	15000	n/a	-1	-1	15000	0.0	practice-no-stop-feedback	poldrack-single-stim	691	1865213	0.0-26.0	beast_fmri_test	328	1850454,/,1851109,/,1851789,/,1852469,/,1853148,/,1853828,/,1854506,/,1855187,/,1855865,/,1856546,/,1857226,/,1857907,/,1858586,/,1859266,/,1859944,/,1860626,/,1861305,/,1861983,/,1862664,/,1863344,/,1864023,/,1864703,/	t,t,t,t,t,t,t,t,t,t,t,t,t,t,t,t,t,t,t,t,t,t	"<div class = ""centerbox""><p class = ""block-text"">Your delay is 4 trials.</p><p class = block-text>Please wait for the scanner to start the block</p></div>"	77	15000.0	n/a	n/a	n/a	n/a	n/a	n/a	n/a	n/a	n/a	n/a	n/a	n/a	n/a	n/a	n/a	n/a	n/a	n/a	n/a	practice-no-stop-feedback
232107	500	n/a	-1	-1	500	0.0	fixation	poldrack-single-stim	692	1865717	0.0-27.0-0.0	beast_fmri_test	328	1865381,/	t	<div class = centerbox2><div class = fixation>+</div></div>	none	500.0	test	n/a	n/a	n/a	n/a	n/a	n/a	n/a	n/a	n/a	n/a	n/a	n/a	n/a	n/a	n/a	n/a	n/a	n/a	fixation
231712.2280491821	temp_go_duration	n/a	-1	-1	2750	396.771950818	stim	stop-signal	693	1868469	0.0-27.0-1.0	beast_fmri_test	328	1866062,/,1866742,/,1867422,/,1868102,/,1868780,/	t,t,t,t,t	<img class = center src='/static/experiments/beast_fmri_test/images/B.png'></img>	71,89	2750.0	test	<img class = center src='/static/experiments/beast_fmri_test/images/redB.png'></img>	stop	-1.0	4.0	0.0	stop	temp-non-target	B	71,Index Finger	89,Middle Finger	950.0	900.0	1800.0	1850.0	0.0	n/a	n/a	1.0	go_stim
temp-non-target	temp_stop_duration	n/a	-1	-1	2750	396.771950818	stim	stop-signal	693	1868469	0.0-27.0-1.0	beast_fmri_test	328	1866062,/,1866742,/,1867422,/,1868102,/,1868780,/	t,t,t,t,t	<img class = center src='/static/experiments/beast_fmri_test/images/B.png'></img>	71,89	2750.0	test	<img class = center src='/static/experiments/beast_fmri_test/images/redB.png'></img>	stop	-1.0	4.0	0.0	stop	temp-non-target	B	71,Index Finger	89,Middle Finger	950.0	900.0	1800.0	1850.0	0.0	n/a	n/a	1.0	stop_stim
234462.2280491821	396.77195081781167	n/a	-1	-1	2750	396.771950818	stim	stop-signal	693	1868469	0.0-27.0-1.0	beast_fmri_test	328	1866062,/,1866742,/,1867422,/,1868102,/,1868780,/	t,t,t,t,t	<img class = center src='/static/experiments/beast_fmri_test/images/B.png'></img>	71,89	2750.0	test	<img class = center src='/static/experiments/beast_fmri_test/images/redB.png'></img>	stop	-1.0	4.0	0.0	stop	temp-non-target	B	71,Index Finger	89,Middle Finger	950.0	900.0	1800.0	1850.0	0.0	n/a	n/a	1.0	ITI
235837	500	n/a	-1	-1	500	0.0	fixation	poldrack-single-stim	694	1869447	0.0-27.1-0.1	beast_fmri_test	328	n/a	n/a	<div class = centerbox2><div class = fixation>+</div></div>	none	500.0	test	n/a	n/a	n/a	n/a	n/a	n/a	n/a	n/a	n/a	n/a	n/a	n/a	n/a	n/a	n/a	n/a	n/a	n/a	fixation
235766.91328567476	2750	n/a	-1	-1	2750	72.0867143253	stim	stop-signal	695	1872199	0.0-27.1-1.1	beast_fmri_test	328	1869461,/,1870139,/,1870820,/,1871500,/,1872179,/	t,t,t,t,t	<img class = center src='/static/experiments/beast_fmri_test/images/T.png'></img>	71,89	2750.0	test	<img class = center src='/static/experiments/beast_fmri_test/images/redT.png'></img>	go	-1.0	4.0	1.0	go	temp-non-target	T	71,Index Finger	89,Middle Finger	950.0	900.0	1800.0	1850.0	0.0	n/a	n/a	n/a	go_stim
238516.91328567476	72.086714325322319	n/a	-1	-1	2750	72.0867143253	stim	stop-signal	695	1872199	0.0-27.1-1.1	beast_fmri_test	328	1869461,/,1870139,/,1870820,/,1871500,/,1872179,/	t,t,t,t,t	<img class = center src='/static/experiments/beast_fmri_test/images/T.png'></img>	71,89	2750.0	test	<img class = center src='/static/experiments/beast_fmri_test/images/redT.png'></img>	go	-1.0	4.0	1.0	go	temp-non-target	T	71,Index Finger	89,Middle Finger	950.0	900.0	1800.0	1850.0	0.0	n/a	n/a	n/a	ITI
239244	500	n/a	-1	-1	500	0.0	fixation	poldrack-single-stim	696	1872854	0.0-27.2-0.2	beast_fmri_test	328	n/a	n/a	<div class = centerbox2><div class = fixation>+</div></div>	none	500.0	test	n/a	n/a	n/a	n/a	n/a	n/a	n/a	n/a	n/a	n/a	n/a	n/a	n/a	n/a	n/a	n/a	n/a	n/a	fixation
239172.55855382769	2750	n/a	-1	-1	2750	73.4414461723	stim	stop-signal	697	1875606	0.0-27.2-1.2	beast_fmri_test	328	1872859,/,1873539,/,1874217,/,1874898,/,1875578,/	t,t,t,t,t	<img class = center src='/static/experiments/beast_fmri_test/images/P.png'></img>	71,89	2750.0	test	<img class = center src='/static/experiments/beast_fmri_test/images/redP.png'></img>	go	-1.0	4.0	2.0	go	temp-non-target	P	71,Index Finger	89,Middle Finger	950.0	900.0	1800.0	1850.0	0.0	n/a	n/a	n/a	go_stim
241922.55855382769	73.441446172316688	n/a	-1	-1	2750	73.4414461723	stim	stop-signal	697	1875606	0.0-27.2-1.2	beast_fmri_test	328	1872859,/,1873539,/,1874217,/,1874898,/,1875578,/	t,t,t,t,t	<img class = center src='/static/experiments/beast_fmri_test/images/P.png'></img>	71,89	2750.0	test	<img class = center src='/static/experiments/beast_fmri_test/images/redP.png'></img>	go	-1.0	4.0	2.0	go	temp-non-target	P	71,Index Finger	89,Middle Finger	950.0	900.0	1800.0	1850.0	0.0	n/a	n/a	n/a	ITI
242649	500	n/a	-1	-1	500	0.0	fixation	poldrack-single-stim	698	1876259	0.0-27.3-0.3	beast_fmri_test	328	1876257,/	t	<div class = centerbox2><div class = fixation>+</div></div>	none	500.0	test	n/a	n/a	n/a	n/a	n/a	n/a	n/a	n/a	n/a	n/a	n/a	n/a	n/a	n/a	n/a	n/a	n/a	n/a	fixation
242169.61880477355	2750	n/a	-1	-1	2750	480.381195226	stim	stop-signal	699	1879010	0.0-27.3-1.3	beast_fmri_test	328	1876936,/,1877617,/,1878299,/,1878976,/	t,t,t,t	<img class = center src='/static/experiments/beast_fmri_test/images/V.png'></img>	71,89	2750.0	test	<img class = center src='/static/experiments/beast_fmri_test/images/redV.png'></img>	go	-1.0	4.0	3.0	go	temp-non-target	V	71,Index Finger	89,Middle Finger	950.0	900.0	1800.0	1850.0	0.0	n/a	n/a	n/a	go_stim
244919.61880477355	480.3811952263444	n/a	-1	-1	2750	480.381195226	stim	stop-signal	699	1879010	0.0-27.3-1.3	beast_fmri_test	328	1876936,/,1877617,/,1878299,/,1878976,/	t,t,t,t	<img class = center src='/static/experiments/beast_fmri_test/images/V.png'></img>	71,89	2750.0	test	<img class = center src='/static/experiments/beast_fmri_test/images/redV.png'></img>	go	-1.0	4.0	3.0	go	temp-non-target	V	71,Index Finger	89,Middle Finger	950.0	900.0	1800.0	1850.0	0.0	n/a	n/a	n/a	ITI
246462	500	n/a	-1	-1	500	0.0	fixation	poldrack-single-stim	700	1880072	0.0-27.4-0.4	beast_fmri_test	328	1879655,/	t	<div class = centerbox2><div class = fixation>+</div></div>	none	500.0	test	n/a	n/a	n/a	n/a	n/a	n/a	n/a	n/a	n/a	n/a	n/a	n/a	n/a	n/a	n/a	n/a	n/a	n/a	fixation
245744.15747576463	2750	n/a	1243	71	2750	719.842524235	stim	stop-signal	701	1882824	0.0-27.4-1.4	beast_fmri_test	328	1880335,/,1881015,/,1881694,/,1882373,/,1883053,/	t,t,t,t,t	<img class = center src='/static/experiments/beast_fmri_test/images/B.png'></img>	71,89	2750.0	test	<img class = center src='/static/experiments/beast_fmri_test/images/redB.png'></img>	go	1800.0	4.0	4.0	go	target	B	71,Index Finger	89,Middle Finger	950.0	900.0	1800.0	1850.0	1.0	950.0	1.0	n/a	go_stim
248494.15747576463	719.8425242354233	n/a	1243	71	2750	719.842524235	stim	stop-signal	701	1882824	0.0-27.4-1.4	beast_fmri_test	328	1880335,/,1881015,/,1881694,/,1882373,/,1883053,/	t,t,t,t,t	<img class = center src='/static/experiments/beast_fmri_test/images/B.png'></img>	71,89	2750.0	test	<img class = center src='/static/experiments/beast_fmri_test/images/redB.png'></img>	go	1800.0	4.0	4.0	go	target	B	71,Index Finger	89,Middle Finger	950.0	900.0	1800.0	1850.0	1.0	950.0	1.0	n/a	ITI
250518	500	n/a	-1	-1	500	0.0	fixation	poldrack-single-stim	702	1884128	0.0-27.5-0.5	beast_fmri_test	328	1883734,/	t	<div class = centerbox2><div class = fixation>+</div></div>	none	500.0	test	n/a	n/a	n/a	n/a	n/a	n/a	n/a	n/a	n/a	n/a	n/a	n/a	n/a	n/a	n/a	n/a	n/a	n/a	fixation
250171.45517539326	2750	n/a	1333	89	2750	348.544824607	stim	stop-signal	703	1886880	0.0-27.5-1.5	beast_fmri_test	328	1884414,/,1885093,/,1885772,/,1886451,/,1887131,/	t,t,t,t,t	<img class = center src='/static/experiments/beast_fmri_test/images/V.png'></img>	71,89	2750.0	test	<img class = center src='/static/experiments/beast_fmri_test/images/redV.png'></img>	go	1850.0	4.0	5.0	go	non-target	V	71,Index Finger	89,Middle Finger	950.0	900.0	1800.0	1850.0	1.0	900.0	1.0	n/a	go_stim
252921.45517539326	348.5448246066282	n/a	1333	89	2750	348.544824607	stim	stop-signal	703	1886880	0.0-27.5-1.5	beast_fmri_test	328	1884414,/,1885093,/,1885772,/,1886451,/,1887131,/	t,t,t,t,t	<img class = center src='/static/experiments/beast_fmri_test/images/V.png'></img>	71,89	2750.0	test	<img class = center src='/static/experiments/beast_fmri_test/images/redV.png'></img>	go	1850.0	4.0	5.0	go	non-target	V	71,Index Finger	89,Middle Finger	950.0	900.0	1800.0	1850.0	1.0	900.0	1.0	n/a	ITI
254202	500	n/a	-1	-1	500	0.0	fixation	poldrack-single-stim	704	1887812	0.0-27.6-0.6	beast_fmri_test	328	n/a	n/a	<div class = centerbox2><div class = fixation>+</div></div>	none	500.0	test	n/a	n/a	n/a	n/a	n/a	n/a	n/a	n/a	n/a	n/a	n/a	n/a	n/a	n/a	n/a	n/a	n/a	n/a	fixation
254171.11539644189	2750	n/a	1479	71	2750	32.8846035581	stim	stop-signal	705	1890564	0.0-27.6-1.6	beast_fmri_test	328	1887814,/,1888492,/,1889172,/,1889851,/,1890530,/	t,t,t,t,t	<img class = center src='/static/experiments/beast_fmri_test/images/P.png'></img>	71,89	2750.0	test	<img class = center src='/static/experiments/beast_fmri_test/images/redP.png'></img>	go	1800.0	4.0	6.0	go	target	P	71,Index Finger	89,Middle Finger	950.0	900.0	1800.0	1850.0	1.0	950.0	1.0	n/a	go_stim
256921.11539644189	32.884603558135147	n/a	1479	71	2750	32.8846035581	stim	stop-signal	705	1890564	0.0-27.6-1.6	beast_fmri_test	328	1887814,/,1888492,/,1889172,/,1889851,/,1890530,/	t,t,t,t,t	<img class = center src='/static/experiments/beast_fmri_test/images/P.png'></img>	71,89	2750.0	test	<img class = center src='/static/experiments/beast_fmri_test/images/redP.png'></img>	go	1800.0	4.0	6.0	go	target	P	71,Index Finger	89,Middle Finger	950.0	900.0	1800.0	1850.0	1.0	950.0	1.0	n/a	ITI
257578	500	n/a	-1	-1	500	0.0	fixation	poldrack-single-stim	706	1891188	0.0-27.7-0.7	beast_fmri_test	328	n/a	n/a	<div class = centerbox2><div class = fixation>+</div></div>	none	500.0	test	n/a	n/a	n/a	n/a	n/a	n/a	n/a	n/a	n/a	n/a	n/a	n/a	n/a	n/a	n/a	n/a	n/a	n/a	fixation
256995.38733968232	900.0	n/a	-1	-1	2750	584.612660318	stim	stop-signal	707	1893940	0.0-27.7-1.7	beast_fmri_test	328	1891210,/,1891891,/,1892570,/,1893249,/,1893930,/	t,t,t,t,t	<img class = center src='/static/experiments/beast_fmri_test/images/P.png'></img>	71,89	2750.0	test	<img class = center src='/static/experiments/beast_fmri_test/images/redP.png'></img>	stop	1850.0	4.0	7.0	stop	non-target	P	71,Index Finger	89,Middle Finger	950.0	900.0	1800.0	1850.0	0.0	900.0	n/a	1.0	go_stim
258845.38733968232	1850.0	n/a	-1	-1	2750	584.612660318	stim	stop-signal	707	1893940	0.0-27.7-1.7	beast_fmri_test	328	1891210,/,1891891,/,1892570,/,1893249,/,1893930,/	t,t,t,t,t	<img class = center src='/static/experiments/beast_fmri_test/images/P.png'></img>	71,89	2750.0	test	<img class = center src='/static/experiments/beast_fmri_test/images/redP.png'></img>	stop	1850.0	4.0	7.0	stop	non-target	P	71,Index Finger	89,Middle Finger	950.0	900.0	1800.0	1850.0	0.0	900.0	n/a	1.0	stop_stim
259745.38733968232	584.61266031777279	n/a	-1	-1	2750	584.612660318	stim	stop-signal	707	1893940	0.0-27.7-1.7	beast_fmri_test	328	1891210,/,1891891,/,1892570,/,1893249,/,1893930,/	t,t,t,t,t	<img class = center src='/static/experiments/beast_fmri_test/images/P.png'></img>	71,89	2750.0	test	<img class = center src='/static/experiments/beast_fmri_test/images/redP.png'></img>	stop	1850.0	4.0	7.0	stop	non-target	P	71,Index Finger	89,Middle Finger	950.0	900.0	1800.0	1850.0	0.0	900.0	n/a	1.0	ITI
261501	500	n/a	-1	-1	500	0.0	fixation	poldrack-single-stim	708	1895111	0.0-27.8-0.8	beast_fmri_test	328	1894610,/	t	<div class = centerbox2><div class = fixation>+</div></div>	none	500.0	test	n/a	n/a	n/a	n/a	n/a	n/a	n/a	n/a	n/a	n/a	n/a	n/a	n/a	n/a	n/a	n/a	n/a	n/a	fixation
260968.84389477526	950.0	n/a	-1	-1	2750	534.156105225	stim	stop-signal	709	1897863	0.0-27.8-1.8	beast_fmri_test	328	1895288,/,1895967,/,1896648,/,1897328,/,1898007,/	t,t,t,t,t	<img class = center src='/static/experiments/beast_fmri_test/images/V.png'></img>	71,89	2750.0	test	<img class = center src='/static/experiments/beast_fmri_test/images/redV.png'></img>	stop	1800.0	4.0	8.0	stop	non-target	V	71,Index Finger	89,Middle Finger	950.0	950.0	1800.0	1800.0	0.0	950.0	n/a	1.0	go_stim
262768.84389477526	1800.0	n/a	-1	-1	2750	534.156105225	stim	stop-signal	709	1897863	0.0-27.8-1.8	beast_fmri_test	328	1895288,/,1895967,/,1896648,/,1897328,/,1898007,/	t,t,t,t,t	<img class = center src='/static/experiments/beast_fmri_test/images/V.png'></img>	71,89	2750.0	test	<img class = center src='/static/experiments/beast_fmri_test/images/redV.png'></img>	stop	1800.0	4.0	8.0	stop	non-target	V	71,Index Finger	89,Middle Finger	950.0	950.0	1800.0	1800.0	0.0	950.0	n/a	1.0	stop_stim
263718.84389477526	534.15610522474515	n/a	-1	-1	2750	534.156105225	stim	stop-signal	709	1897863	0.0-27.8-1.8	beast_fmri_test	328	1895288,/,1895967,/,1896648,/,1897328,/,1898007,/	t,t,t,t,t	<img class = center src='/static/experiments/beast_fmri_test/images/V.png'></img>	71,89	2750.0	test	<img class = center src='/static/experiments/beast_fmri_test/images/redV.png'></img>	stop	1800.0	4.0	8.0	stop	non-target	V	71,Index Finger	89,Middle Finger	950.0	950.0	1800.0	1800.0	0.0	950.0	n/a	1.0	ITI
265370	500	n/a	-1	-1	500	0.0	fixation	poldrack-single-stim	710	1898980	0.0-27.9-0.9	beast_fmri_test	328	1898687,/	t	<div class = centerbox2><div class = fixation>+</div></div>	none	500.0	test	n/a	n/a	n/a	n/a	n/a	n/a	n/a	n/a	n/a	n/a	n/a	n/a	n/a	n/a	n/a	n/a	n/a	n/a	fixation
264569.08833629498	2750	n/a	1833	89	2750	802.911663705	stim	stop-signal	711	1901732	0.0-27.9-1.9	beast_fmri_test	328	1899365,/,1900046,/,1900727,/,1901404,/,1902085,/	t,t,t,t,t	<img class = center src='/static/experiments/beast_fmri_test/images/V.png'></img>	71,89	2750.0	test	<img class = center src='/static/experiments/beast_fmri_test/images/redV.png'></img>	go	1800.0	4.0	9.0	go	target	V	71,Index Finger	89,Middle Finger	950.0	1000.0	1800.0	1800.0	0.0	950.0	0.0	n/a	go_stim
267319.08833629498	802.91166370502981	n/a	1833	89	2750	802.911663705	stim	stop-signal	711	1901732	0.0-27.9-1.9	beast_fmri_test	328	1899365,/,1900046,/,1900727,/,1901404,/,1902085,/	t,t,t,t,t	<img class = center src='/static/experiments/beast_fmri_test/images/V.png'></img>	71,89	2750.0	test	<img class = center src='/static/experiments/beast_fmri_test/images/redV.png'></img>	go	1800.0	4.0	9.0	go	target	V	71,Index Finger	89,Middle Finger	950.0	1000.0	1800.0	1800.0	0.0	950.0	0.0	n/a	ITI
269505	500	n/a	-1	-1	500	0.0	fixation	poldrack-single-stim	712	1903115	0.0-27.10-0.10	beast_fmri_test	328	1902765,/	t	<div class = centerbox2><div class = fixation>+</div></div>	none	500.0	test	n/a	n/a	n/a	n/a	n/a	n/a	n/a	n/a	n/a	n/a	n/a	n/a	n/a	n/a	n/a	n/a	n/a	n/a	fixation
267711.4943953366	1000.0	n/a	-1	-1	2750	1795.50560466	stim	stop-signal	713	1905867	0.0-27.10-1.10	beast_fmri_test	328	1903445,/,1904124,/,1904803,/,1905484,/,1906163,/,1906843,/,1907523,/	t,t,t,t,t,t,t	<img class = center src='/static/experiments/beast_fmri_test/images/B.png'></img>	71,89	2750.0	test	<img class = center src='/static/experiments/beast_fmri_test/images/redB.png'></img>	stop	1750.0	4.0	10.0	stop	non-target	B	71,Index Finger	89,Middle Finger	950.0	1000.0	1800.0	1750.0	0.0	1000.0	n/a	1.0	go_stim
269461.4943953366	1750.0	n/a	-1	-1	2750	1795.50560466	stim	stop-signal	713	1905867	0.0-27.10-1.10	beast_fmri_test	328	1903445,/,1904124,/,1904803,/,1905484,/,1906163,/,1906843,/,1907523,/	t,t,t,t,t,t,t	<img class = center src='/static/experiments/beast_fmri_test/images/B.png'></img>	71,89	2750.0	test	<img class = center src='/static/experiments/beast_fmri_test/images/redB.png'></img>	stop	1750.0	4.0	10.0	stop	non-target	B	71,Index Finger	89,Middle Finger	950.0	1000.0	1800.0	1750.0	0.0	1000.0	n/a	1.0	stop_stim
270461.4943953366	1795.5056046633008	n/a	-1	-1	2750	1795.50560466	stim	stop-signal	713	1905867	0.0-27.10-1.10	beast_fmri_test	328	1903445,/,1904124,/,1904803,/,1905484,/,1906163,/,1906843,/,1907523,/	t,t,t,t,t,t,t	<img class = center src='/static/experiments/beast_fmri_test/images/B.png'></img>	71,89	2750.0	test	<img class = center src='/static/experiments/beast_fmri_test/images/redB.png'></img>	stop	1750.0	4.0	10.0	stop	non-target	B	71,Index Finger	89,Middle Finger	950.0	1000.0	1800.0	1750.0	0.0	1000.0	n/a	1.0	ITI
274637	500	n/a	-1	-1	500	0.0	fixation	poldrack-single-stim	714	1908247	0.0-27.11-0.11	beast_fmri_test	328	1908203,/	t	<div class = centerbox2><div class = fixation>+</div></div>	none	500.0	test	n/a	n/a	n/a	n/a	n/a	n/a	n/a	n/a	n/a	n/a	n/a	n/a	n/a	n/a	n/a	n/a	n/a	n/a	fixation
274100.78062920435	1050.0	n/a	982	89	2750	537.219370796	stim	stop-signal	715	1910998	0.0-27.11-1.11	beast_fmri_test	328	1908881,/,1909562,/,1910242,/,1910921,/	t,t,t,t	<img class = center src='/static/experiments/beast_fmri_test/images/B.png'></img>	71,89	2750.0	test	<img class = center src='/static/experiments/beast_fmri_test/images/redB.png'></img>	stop	1700.0	4.0	11.0	stop	non-target	B	71,Index Finger	89,Middle Finger	950.0	1050.0	1800.0	1700.0	0.0	1050.0	n/a	0.0	go_stim
275800.78062920435	1700.0	n/a	982	89	2750	537.219370796	stim	stop-signal	715	1910998	0.0-27.11-1.11	beast_fmri_test	328	1908881,/,1909562,/,1910242,/,1910921,/	t,t,t,t	<img class = center src='/static/experiments/beast_fmri_test/images/B.png'></img>	71,89	2750.0	test	<img class = center src='/static/experiments/beast_fmri_test/images/redB.png'></img>	stop	1700.0	4.0	11.0	stop	non-target	B	71,Index Finger	89,Middle Finger	950.0	1050.0	1800.0	1700.0	0.0	1050.0	n/a	0.0	stop_stim
276850.78062920435	537.21937079564259	n/a	982	89	2750	537.219370796	stim	stop-signal	715	1910998	0.0-27.11-1.11	beast_fmri_test	328	1908881,/,1909562,/,1910242,/,1910921,/	t,t,t,t	<img class = center src='/static/experiments/beast_fmri_test/images/B.png'></img>	71,89	2750.0	test	<img class = center src='/static/experiments/beast_fmri_test/images/redB.png'></img>	stop	1700.0	4.0	11.0	stop	non-target	B	71,Index Finger	89,Middle Finger	950.0	1050.0	1800.0	1700.0	0.0	1050.0	n/a	0.0	ITI
278512	500	n/a	-1	-1	500	0.0	fixation	poldrack-single-stim	716	1912122	0.0-27.12-0.12	beast_fmri_test	328	1911620,/	t	<div class = centerbox2><div class = fixation>+</div></div>	none	500.0	test	n/a	n/a	n/a	n/a	n/a	n/a	n/a	n/a	n/a	n/a	n/a	n/a	n/a	n/a	n/a	n/a	n/a	n/a	fixation
277868.64775179233	2750	n/a	1449	89	2750	644.352248208	stim	stop-signal	717	1914873	0.0-27.12-1.12	beast_fmri_test	328	1912281,/,1912960,/,1913639,/,1914319,/,1914998,/	t,t,t,t,t	<img class = center src='/static/experiments/beast_fmri_test/images/D.png'></img>	71,89	2750.0	test	<img class = center src='/static/experiments/beast_fmri_test/images/redD.png'></img>	go	1750.0	4.0	12.0	go	non-target	D	71,Index Finger	89,Middle Finger	950.0	1000.0	1800.0	1750.0	1.0	1000.0	1.0	n/a	go_stim
280618.64775179233	644.35224820769383	n/a	1449	89	2750	644.352248208	stim	stop-signal	717	1914873	0.0-27.12-1.12	beast_fmri_test	328	1912281,/,1912960,/,1913639,/,1914319,/,1914998,/	t,t,t,t,t	<img class = center src='/static/experiments/beast_fmri_test/images/D.png'></img>	71,89	2750.0	test	<img class = center src='/static/experiments/beast_fmri_test/images/redD.png'></img>	go	1750.0	4.0	12.0	go	non-target	D	71,Index Finger	89,Middle Finger	950.0	1000.0	1800.0	1750.0	1.0	1000.0	1.0	n/a	ITI
282491	500	n/a	-1	-1	500	0.0	fixation	poldrack-single-stim	718	1916101	0.0-27.13-0.13	beast_fmri_test	328	1915677,/	t	<div class = centerbox2><div class = fixation>+</div></div>	none	500.0	test	n/a	n/a	n/a	n/a	n/a	n/a	n/a	n/a	n/a	n/a	n/a	n/a	n/a	n/a	n/a	n/a	n/a	n/a	fixation
279802.7721213866	1000.0	n/a	-1	-1	2750	2690.22787861	stim	stop-signal	719	1918853	0.0-27.13-1.13	beast_fmri_test	328	1916357,/,1917038,/,1917718,/,1918397,/,1919076,/,1919758,/,1920438,/,1921117,/	t,t,t,t,t,t,t,t	<img class = center src='/static/experiments/beast_fmri_test/images/P.png'></img>	71,89	2750.0	test	<img class = center src='/static/experiments/beast_fmri_test/images/redP.png'></img>	stop	1750.0	4.0	13.0	stop	non-target	P	71,Index Finger	89,Middle Finger	950.0	1000.0	1800.0	1750.0	0.0	1000.0	n/a	1.0	go_stim
281552.7721213866	1750.0	n/a	-1	-1	2750	2690.22787861	stim	stop-signal	719	1918853	0.0-27.13-1.13	beast_fmri_test	328	1916357,/,1917038,/,1917718,/,1918397,/,1919076,/,1919758,/,1920438,/,1921117,/	t,t,t,t,t,t,t,t	<img class = center src='/static/experiments/beast_fmri_test/images/P.png'></img>	71,89	2750.0	test	<img class = center src='/static/experiments/beast_fmri_test/images/redP.png'></img>	stop	1750.0	4.0	13.0	stop	non-target	P	71,Index Finger	89,Middle Finger	950.0	1000.0	1800.0	1750.0	0.0	1000.0	n/a	1.0	stop_stim
282552.7721213866	2690.2278786134025	n/a	-1	-1	2750	2690.22787861	stim	stop-signal	719	1918853	0.0-27.13-1.13	beast_fmri_test	328	1916357,/,1917038,/,1917718,/,1918397,/,1919076,/,1919758,/,1920438,/,1921117,/	t,t,t,t,t,t,t,t	<img class = center src='/static/experiments/beast_fmri_test/images/P.png'></img>	71,89	2750.0	test	<img class = center src='/static/experiments/beast_fmri_test/images/redP.png'></img>	stop	1750.0	4.0	13.0	stop	non-target	P	71,Index Finger	89,Middle Finger	950.0	1000.0	1800.0	1750.0	0.0	1000.0	n/a	1.0	ITI
288516	500	n/a	-1	-1	500	0.0	fixation	poldrack-single-stim	720	1922126	0.0-27.14-0.14	beast_fmri_test	328	1921817,/	t	<div class = centerbox2><div class = fixation>+</div></div>	none	500.0	test	n/a	n/a	n/a	n/a	n/a	n/a	n/a	n/a	n/a	n/a	n/a	n/a	n/a	n/a	n/a	n/a	n/a	n/a	fixation
287206.80795515096	1050.0	n/a	-1	-1	2750	1311.19204485	stim	stop-signal	721	1924878	0.0-27.14-1.14	beast_fmri_test	328	1922477,/,1923156,/,1923836,/,1924514,/,1925195,/,1925875,/	t,t,t,t,t,t	<img class = center src='/static/experiments/beast_fmri_test/images/V.png'></img>	71,89	2750.0	test	<img class = center src='/static/experiments/beast_fmri_test/images/redV.png'></img>	stop	1700.0	4.0	14.0	stop	non-target	V	71,Index Finger	89,Middle Finger	950.0	1050.0	1800.0	1700.0	0.0	1050.0	n/a	1.0	go_stim
288906.80795515096	1700.0	n/a	-1	-1	2750	1311.19204485	stim	stop-signal	721	1924878	0.0-27.14-1.14	beast_fmri_test	328	1922477,/,1923156,/,1923836,/,1924514,/,1925195,/,1925875,/	t,t,t,t,t,t	<img class = center src='/static/experiments/beast_fmri_test/images/V.png'></img>	71,89	2750.0	test	<img class = center src='/static/experiments/beast_fmri_test/images/redV.png'></img>	stop	1700.0	4.0	14.0	stop	non-target	V	71,Index Finger	89,Middle Finger	950.0	1050.0	1800.0	1700.0	0.0	1050.0	n/a	1.0	stop_stim
289956.80795515096	1311.1920448490175	n/a	-1	-1	2750	1311.19204485	stim	stop-signal	721	1924878	0.0-27.14-1.14	beast_fmri_test	328	1922477,/,1923156,/,1923836,/,1924514,/,1925195,/,1925875,/	t,t,t,t,t,t	<img class = center src='/static/experiments/beast_fmri_test/images/V.png'></img>	71,89	2750.0	test	<img class = center src='/static/experiments/beast_fmri_test/images/redV.png'></img>	stop	1700.0	4.0	14.0	stop	non-target	V	71,Index Finger	89,Middle Finger	950.0	1050.0	1800.0	1700.0	0.0	1050.0	n/a	1.0	ITI
293169	500	n/a	-1	-1	500	0.0	fixation	poldrack-single-stim	722	1926779	0.0-27.15-0.15	beast_fmri_test	328	1926556,/	t	<div class = centerbox2><div class = fixation>+</div></div>	none	500.0	test	n/a	n/a	n/a	n/a	n/a	n/a	n/a	n/a	n/a	n/a	n/a	n/a	n/a	n/a	n/a	n/a	n/a	n/a	fixation
292733.04180414602	2750	n/a	1296	89	2750	436.958195854	stim	stop-signal	723	1929530	0.0-27.15-1.15	beast_fmri_test	328	1927233,/,1927914,/,1928592,/,1929274,/,1929952,/	t,t,t,t,t	<img class = center src='/static/experiments/beast_fmri_test/images/P.png'></img>	71,89	2750.0	test	<img class = center src='/static/experiments/beast_fmri_test/images/redP.png'></img>	go	1650.0	4.0	15.0	go	non-target	P	71,Index Finger	89,Middle Finger	950.0	1100.0	1800.0	1650.0	1.0	1100.0	1.0	n/a	go_stim
295483.04180414602	436.95819585400398	n/a	1296	89	2750	436.958195854	stim	stop-signal	723	1929530	0.0-27.15-1.15	beast_fmri_test	328	1927233,/,1927914,/,1928592,/,1929274,/,1929952,/	t,t,t,t,t	<img class = center src='/static/experiments/beast_fmri_test/images/P.png'></img>	71,89	2750.0	test	<img class = center src='/static/experiments/beast_fmri_test/images/redP.png'></img>	go	1650.0	4.0	15.0	go	non-target	P	71,Index Finger	89,Middle Finger	950.0	1100.0	1800.0	1650.0	1.0	1100.0	1.0	n/a	ITI
296941	500	n/a	-1	-1	500	0.0	fixation	poldrack-single-stim	724	1930551	0.0-27.16-0.16	beast_fmri_test	328	n/a	n/a	<div class = centerbox2><div class = fixation>+</div></div>	none	500.0	test	n/a	n/a	n/a	n/a	n/a	n/a	n/a	n/a	n/a	n/a	n/a	n/a	n/a	n/a	n/a	n/a	n/a	n/a	fixation
296803.2090892042	2750	n/a	2307	89	2750	138.790910796	stim	stop-signal	725	1933302	0.0-27.16-1.16	beast_fmri_test	328	1930632,/,1931312,/,1931990,/,1932671,/,1933349,/	t,t,t,t,t	<img class = center src='/static/experiments/beast_fmri_test/images/P.png'></img>	71,89	2750.0	test	<img class = center src='/static/experiments/beast_fmri_test/images/redP.png'></img>	go	1650.0	4.0	16.0	go	non-target	P	71,Index Finger	89,Middle Finger	950.0	1100.0	1800.0	1650.0	1.0	1100.0	1.0	n/a	go_stim
299553.2090892042	138.79091079571222	n/a	2307	89	2750	138.790910796	stim	stop-signal	725	1933302	0.0-27.16-1.16	beast_fmri_test	328	1930632,/,1931312,/,1931990,/,1932671,/,1933349,/	t,t,t,t,t	<img class = center src='/static/experiments/beast_fmri_test/images/P.png'></img>	71,89	2750.0	test	<img class = center src='/static/experiments/beast_fmri_test/images/redP.png'></img>	go	1650.0	4.0	16.0	go	non-target	P	71,Index Finger	89,Middle Finger	950.0	1100.0	1800.0	1650.0	1.0	1100.0	1.0	n/a	ITI
300415	500	n/a	-1	-1	500	0.0	fixation	poldrack-single-stim	726	1934025	0.0-27.17-0.17	beast_fmri_test	328	n/a	n/a	<div class = centerbox2><div class = fixation>+</div></div>	none	500.0	test	n/a	n/a	n/a	n/a	n/a	n/a	n/a	n/a	n/a	n/a	n/a	n/a	n/a	n/a	n/a	n/a	n/a	n/a	fixation
299873.59023416555	2750	n/a	1972	71	2750	542.409765835	stim	stop-signal	727	1936776	0.0-27.17-1.17	beast_fmri_test	328	1934029,/,1934711,/,1935390,/,1936069,/,1936748,/	t,t,t,t,t	<img class = center src='/static/experiments/beast_fmri_test/images/V.png'></img>	71,89	2750.0	test	<img class = center src='/static/experiments/beast_fmri_test/images/redV.png'></img>	go	1650.0	4.0	17.0	go	non-target	V	71,Index Finger	89,Middle Finger	950.0	1100.0	1800.0	1650.0	0.0	1100.0	0.0	n/a	go_stim
302623.59023416555	542.4097658345338	n/a	1972	71	2750	542.409765835	stim	stop-signal	727	1936776	0.0-27.17-1.17	beast_fmri_test	328	1934029,/,1934711,/,1935390,/,1936069,/,1936748,/	t,t,t,t,t	<img class = center src='/static/experiments/beast_fmri_test/images/V.png'></img>	71,89	2750.0	test	<img class = center src='/static/experiments/beast_fmri_test/images/redV.png'></img>	go	1650.0	4.0	17.0	go	non-target	V	71,Index Finger	89,Middle Finger	950.0	1100.0	1800.0	1650.0	0.0	1100.0	0.0	n/a	ITI
304297	500	n/a	-1	-1	500	0.0	fixation	poldrack-single-stim	728	1937907	0.0-27.18-0.18	beast_fmri_test	328	1937428,/	t	<div class = centerbox2><div class = fixation>+</div></div>	none	500.0	test	n/a	n/a	n/a	n/a	n/a	n/a	n/a	n/a	n/a	n/a	n/a	n/a	n/a	n/a	n/a	n/a	n/a	n/a	fixation
304087.47202128568	2750	n/a	1803	89	2750	212.527978714	stim	stop-signal	729	1940660	0.0-27.18-1.18	beast_fmri_test	328	1938108,/,1938789,/,1939468,/,1940148,/,1940827,/	t,t,t,t,t	<img class = center src='/static/experiments/beast_fmri_test/images/V.png'></img>	71,89	2750.0	test	<img class = center src='/static/experiments/beast_fmri_test/images/redV.png'></img>	go	1800.0	4.0	18.0	go	target	V	71,Index Finger	89,Middle Finger	950.0	1100.0	1800.0	1650.0	0.0	950.0	0.0	n/a	go_stim
306837.47202128568	212.52797871423024	n/a	1803	89	2750	212.527978714	stim	stop-signal	729	1940660	0.0-27.18-1.18	beast_fmri_test	328	1938108,/,1938789,/,1939468,/,1940148,/,1940827,/	t,t,t,t,t	<img class = center src='/static/experiments/beast_fmri_test/images/V.png'></img>	71,89	2750.0	test	<img class = center src='/static/experiments/beast_fmri_test/images/redV.png'></img>	go	1800.0	4.0	18.0	go	target	V	71,Index Finger	89,Middle Finger	950.0	1100.0	1800.0	1650.0	0.0	950.0	0.0	n/a	ITI
307842	500	n/a	-1	-1	500	0.0	fixation	poldrack-single-stim	730	1941452	0.0-27.19-0.19	beast_fmri_test	328	n/a	n/a	<div class = centerbox2><div class = fixation>+</div></div>	none	500.0	test	n/a	n/a	n/a	n/a	n/a	n/a	n/a	n/a	n/a	n/a	n/a	n/a	n/a	n/a	n/a	n/a	n/a	n/a	fixation
306745.63023771672	2750	n/a	2093	89	2750	1097.36976228	stim	stop-signal	731	1944203	0.0-27.19-1.19	beast_fmri_test	328	1941507,/,1942185,/,1942866,/,1943547,/,1944226,/,1944905,/	t,t,t,t,t,t	<img class = center src='/static/experiments/beast_fmri_test/images/T.png'></img>	71,89	2750.0	test	<img class = center src='/static/experiments/beast_fmri_test/images/redT.png'></img>	go	1650.0	4.0	19.0	go	non-target	T	71,Index Finger	89,Middle Finger	950.0	1100.0	1800.0	1650.0	1.0	1100.0	1.0	n/a	go_stim
309495.63023771672	1097.3697622833597	n/a	2093	89	2750	1097.36976228	stim	stop-signal	731	1944203	0.0-27.19-1.19	beast_fmri_test	328	1941507,/,1942185,/,1942866,/,1943547,/,1944226,/,1944905,/	t,t,t,t,t,t	<img class = center src='/static/experiments/beast_fmri_test/images/T.png'></img>	71,89	2750.0	test	<img class = center src='/static/experiments/beast_fmri_test/images/redT.png'></img>	go	1650.0	4.0	19.0	go	non-target	T	71,Index Finger	89,Middle Finger	950.0	1100.0	1800.0	1650.0	1.0	1100.0	1.0	n/a	ITI
312275	500	n/a	-1	-1	500	0.0	fixation	poldrack-single-stim	732	1945885	0.0-27.20-0.20	beast_fmri_test	328	1945585,/	t	<div class = centerbox2><div class = fixation>+</div></div>	none	500.0	test	n/a	n/a	n/a	n/a	n/a	n/a	n/a	n/a	n/a	n/a	n/a	n/a	n/a	n/a	n/a	n/a	n/a	n/a	fixation
311191.54530553147	950.0	n/a	823	71	2750	1085.45469447	stim	stop-signal	733	1948637	0.0-27.20-1.20	beast_fmri_test	328	1946266,/,1946945,/,1947625,/,1948305,/,1948983,/,1949663,/	t,t,t,t,t,t	<img class = center src='/static/experiments/beast_fmri_test/images/P.png'></img>	71,89	2750.0	test	<img class = center src='/static/experiments/beast_fmri_test/images/redP.png'></img>	stop	1800.0	4.0	20.0	stop	target	P	71,Index Finger	89,Middle Finger	950.0	1100.0	1800.0	1650.0	0.0	950.0	n/a	0.0	go_stim
312991.54530553147	1800.0	n/a	823	71	2750	1085.45469447	stim	stop-signal	733	1948637	0.0-27.20-1.20	beast_fmri_test	328	1946266,/,1946945,/,1947625,/,1948305,/,1948983,/,1949663,/	t,t,t,t,t,t	<img class = center src='/static/experiments/beast_fmri_test/images/P.png'></img>	71,89	2750.0	test	<img class = center src='/static/experiments/beast_fmri_test/images/redP.png'></img>	stop	1800.0	4.0	20.0	stop	target	P	71,Index Finger	89,Middle Finger	950.0	1100.0	1800.0	1650.0	0.0	950.0	n/a	0.0	stop_stim
