onset	duration	ttttttttttttttttttt	rt	key_press	block_duration	timing_post_trial	trial_id	trial_type	trial_index	time_elapsed	internal_node_id	exp_id	subject_id	trigger_times	triggers	stimulus	possible_responses	stim_duration	exp_stage	SS_stimulus	SS_trial_type	SS_duration	load	trial_num	stop_trial_type	adaptive_trial_type	stim	yes_response_key	no_response_key	SSD_target	SSD_non_target	SSTarget	SSNonTarget	go_acc	stop_acc	SS_delay	adaptive_acc	new_trial_type
test	10880	n/a	-1	-1	10880	0.0	practice-no-stop-feedback	poldrack-single-stim	200	581460	0.0-12.0	beast_fmri_test	386	570580,/,571259,/,571939,/,572619,/,573299,/,573979,/,574659,/,575339,/,576019,/,576699,/,577379,/,578059,/,578739,/,579419,/,580098,/,580779,/,581459,/	t,t,t,t,t,t,t,t,t,t,t,t,t,t,t,t,t	"<div class = ""centerbox2_2""><p class = ""block-text2"">Your delay is 2 trials.</p><p class = block-text2>Please wait for the scanner to start the block</p></div>"	77	10880.0	n/a	n/a	n/a	n/a	n/a	n/a	n/a	n/a	n/a	n/a	n/a	n/a	n/a	n/a	n/a	n/a	n/a	n/a	n/a	start_functional_block
11383	500	n/a	-1	-1	500	0.0	fixation	poldrack-single-stim	201	581963	0.0-13.0-0.0	beast_fmri_test	386	n/a	n/a	<div class = centerbox2><div class = fixation>+</div></div>	none	500.0	test	n/a	n/a	n/a	n/a	n/a	n/a	n/a	n/a	n/a	n/a	n/a	n/a	n/a	n/a	n/a	n/a	n/a	n/a	fixation
11223.711474800017	2750	n/a	764	89	2750	161.2885252	stim	stop-signal	202	584715	0.0-13.0-1.0	beast_fmri_test	386	582139,/,582818,/,583499,/,584178,/,584858,/	t,t,t,t,t	<img class = center src='/static/experiments/beast_fmri_test/images/V.png'></img>	71,89	2750.0	test	<img class = center src='/static/experiments/beast_fmri_test/images/redV.png'></img>	go	-1.0	2.0	0.0	go	temp-non-target	V	71,Index Finger	89,Middle Finger	700.0	1000.0	2050.0	1750.0	0.0	n/a	n/a	n/a	go_stim
13973.711474800017	161.28852519999998	n/a	764	89	2750	161.2885252	stim	stop-signal	202	584715	0.0-13.0-1.0	beast_fmri_test	386	582139,/,582818,/,583499,/,584178,/,584858,/	t,t,t,t,t	<img class = center src='/static/experiments/beast_fmri_test/images/V.png'></img>	71,89	2750.0	test	<img class = center src='/static/experiments/beast_fmri_test/images/redV.png'></img>	go	-1.0	2.0	0.0	go	temp-non-target	V	71,Index Finger	89,Middle Finger	700.0	1000.0	2050.0	1750.0	0.0	n/a	n/a	n/a	ITI
14803	500	n/a	-1	-1	500	0.0	fixation	poldrack-single-stim	203	585383	0.0-13.1-0.1	beast_fmri_test	386	n/a	n/a	<div class = centerbox2><div class = fixation>+</div></div>	none	500.0	test	n/a	n/a	n/a	n/a	n/a	n/a	n/a	n/a	n/a	n/a	n/a	n/a	n/a	n/a	n/a	n/a	n/a	n/a	fixation
11562.145033000037	temp_go_duration	n/a	622	89	2750	3242.854967	stim	stop-signal	204	588135	0.0-13.1-1.1	beast_fmri_test	386	585538,/,586219,/,586898,/,587579,/,588258,/,588938,/,589618,/,590298,/,590979,/	t,t,t,t,t,t,t,t,t	<img class = center src='/static/experiments/beast_fmri_test/images/B.png'></img>	71,89	2750.0	test	<img class = center src='/static/experiments/beast_fmri_test/images/redB.png'></img>	stop	-1.0	2.0	1.0	stop	temp-non-target	B	71,Index Finger	89,Middle Finger	700.0	1000.0	2050.0	1750.0	0.0	0.0	n/a	n/a	go_stim
temp-non-target	temp_stop_duration	n/a	622	89	2750	3242.854967	stim	stop-signal	204	588135	0.0-13.1-1.1	beast_fmri_test	386	585538,/,586219,/,586898,/,587579,/,588258,/,588938,/,589618,/,590298,/,590979,/	t,t,t,t,t,t,t,t,t	<img class = center src='/static/experiments/beast_fmri_test/images/B.png'></img>	71,89	2750.0	test	<img class = center src='/static/experiments/beast_fmri_test/images/redB.png'></img>	stop	-1.0	2.0	1.0	stop	temp-non-target	B	71,Index Finger	89,Middle Finger	700.0	1000.0	2050.0	1750.0	0.0	0.0	n/a	n/a	stop_stim
14312.145033000037	3242.8549670000002	n/a	622	89	2750	3242.854967	stim	stop-signal	204	588135	0.0-13.1-1.1	beast_fmri_test	386	585538,/,586219,/,586898,/,587579,/,588258,/,588938,/,589618,/,590298,/,590979,/	t,t,t,t,t,t,t,t,t	<img class = center src='/static/experiments/beast_fmri_test/images/B.png'></img>	71,89	2750.0	test	<img class = center src='/static/experiments/beast_fmri_test/images/redB.png'></img>	stop	-1.0	2.0	1.0	stop	temp-non-target	B	71,Index Finger	89,Middle Finger	700.0	1000.0	2050.0	1750.0	0.0	0.0	n/a	n/a	ITI
21306	500	n/a	-1	-1	500	0.0	fixation	poldrack-single-stim	205	591886	0.0-13.2-0.2	beast_fmri_test	386	591658,/	t	<div class = centerbox2><div class = fixation>+</div></div>	none	500.0	test	n/a	n/a	n/a	n/a	n/a	n/a	n/a	n/a	n/a	n/a	n/a	n/a	n/a	n/a	n/a	n/a	n/a	n/a	fixation
20095.010467999964	2750	n/a	786	89	2750	1212.989532	stim	stop-signal	206	594638	0.0-13.2-1.2	beast_fmri_test	386	592338,/,593018,/,593698,/,594378,/,595058,/,595739,/	t,t,t,t,t,t	<img class = center src='/static/experiments/beast_fmri_test/images/T.png'></img>	71,89	2750.0	test	<img class = center src='/static/experiments/beast_fmri_test/images/redT.png'></img>	go	1750.0	2.0	2.0	go	non-target	T	71,Index Finger	89,Middle Finger	700.0	1000.0	2050.0	1750.0	1.0	n/a	1000.0	1.0	go_stim
22845.010467999964	1212.9895320000001	n/a	786	89	2750	1212.989532	stim	stop-signal	206	594638	0.0-13.2-1.2	beast_fmri_test	386	592338,/,593018,/,593698,/,594378,/,595058,/,595739,/	t,t,t,t,t,t	<img class = center src='/static/experiments/beast_fmri_test/images/T.png'></img>	71,89	2750.0	test	<img class = center src='/static/experiments/beast_fmri_test/images/redT.png'></img>	go	1750.0	2.0	2.0	go	non-target	T	71,Index Finger	89,Middle Finger	700.0	1000.0	2050.0	1750.0	1.0	n/a	1000.0	1.0	ITI
25778	500	n/a	-1	-1	500	0.0	fixation	poldrack-single-stim	207	596358	0.0-13.3-0.3	beast_fmri_test	386	n/a	n/a	<div class = centerbox2><div class = fixation>+</div></div>	none	500.0	test	n/a	n/a	n/a	n/a	n/a	n/a	n/a	n/a	n/a	n/a	n/a	n/a	n/a	n/a	n/a	n/a	n/a	n/a	fixation
25518.501103800023	2750	n/a	815	71	2750	261.4988962	stim	stop-signal	208	599110	0.0-13.3-1.3	beast_fmri_test	386	596419,/,597099,/,597780,/,598459,/,599139,/	t,t,t,t,t	<img class = center src='/static/experiments/beast_fmri_test/images/B.png'></img>	71,89	2750.0	test	<img class = center src='/static/experiments/beast_fmri_test/images/redB.png'></img>	go	2050.0	2.0	3.0	go	target	B	71,Index Finger	89,Middle Finger	700.0	1000.0	2050.0	1750.0	1.0	n/a	700.0	1.0	go_stim
28268.501103800023	261.49889619999999	n/a	815	71	2750	261.4988962	stim	stop-signal	208	599110	0.0-13.3-1.3	beast_fmri_test	386	596419,/,597099,/,597780,/,598459,/,599139,/	t,t,t,t,t	<img class = center src='/static/experiments/beast_fmri_test/images/B.png'></img>	71,89	2750.0	test	<img class = center src='/static/experiments/beast_fmri_test/images/redB.png'></img>	go	2050.0	2.0	3.0	go	target	B	71,Index Finger	89,Middle Finger	700.0	1000.0	2050.0	1750.0	1.0	n/a	700.0	1.0	ITI
29300	500	n/a	-1	-1	500	0.0	fixation	poldrack-single-stim	209	599880	0.0-13.4-0.4	beast_fmri_test	386	599819,/	t	<div class = centerbox2><div class = fixation>+</div></div>	none	500.0	test	n/a	n/a	n/a	n/a	n/a	n/a	n/a	n/a	n/a	n/a	n/a	n/a	n/a	n/a	n/a	n/a	n/a	n/a	fixation
28927.827721299953	700.0	n/a	831	71	2750	374.1722787	stim	stop-signal	210	602632	0.0-13.4-1.4	beast_fmri_test	386	600499,/,601179,/,601859,/,602539,/	t,t,t,t	<img class = center src='/static/experiments/beast_fmri_test/images/T.png'></img>	71,89	2750.0	test	<img class = center src='/static/experiments/beast_fmri_test/images/redT.png'></img>	stop	2050.0	2.0	4.0	stop	target	T	71,Index Finger	89,Middle Finger	700.0	1000.0	2050.0	1750.0	0.0	0.0	700.0	n/a	go_stim
30977.827721299953	2050.0	n/a	831	71	2750	374.1722787	stim	stop-signal	210	602632	0.0-13.4-1.4	beast_fmri_test	386	600499,/,601179,/,601859,/,602539,/	t,t,t,t	<img class = center src='/static/experiments/beast_fmri_test/images/T.png'></img>	71,89	2750.0	test	<img class = center src='/static/experiments/beast_fmri_test/images/redT.png'></img>	stop	2050.0	2.0	4.0	stop	target	T	71,Index Finger	89,Middle Finger	700.0	1000.0	2050.0	1750.0	0.0	0.0	700.0	n/a	stop_stim
31677.827721299953	374.17227869999999	n/a	831	71	2750	374.1722787	stim	stop-signal	210	602632	0.0-13.4-1.4	beast_fmri_test	386	600499,/,601179,/,601859,/,602539,/	t,t,t,t	<img class = center src='/static/experiments/beast_fmri_test/images/T.png'></img>	71,89	2750.0	test	<img class = center src='/static/experiments/beast_fmri_test/images/redT.png'></img>	stop	2050.0	2.0	4.0	stop	target	T	71,Index Finger	89,Middle Finger	700.0	1000.0	2050.0	1750.0	0.0	0.0	700.0	n/a	ITI
32935	500	n/a	-1	-1	500	0.0	fixation	poldrack-single-stim	211	603515	0.0-13.5-0.5	beast_fmri_test	386	603219,/	t	<div class = centerbox2><div class = fixation>+</div></div>	none	500.0	test	n/a	n/a	n/a	n/a	n/a	n/a	n/a	n/a	n/a	n/a	n/a	n/a	n/a	n/a	n/a	n/a	n/a	n/a	fixation
31385.312282999977	2750	n/a	1518	89	2750	1550.687717	stim	stop-signal	212	606266	0.0-13.5-1.5	beast_fmri_test	386	603899,/,604579,/,605259,/,605939,/,606619,/,607299,/	t,t,t,t,t,t	<img class = center src='/static/experiments/beast_fmri_test/images/D.png'></img>	71,89	2750.0	test	<img class = center src='/static/experiments/beast_fmri_test/images/redD.png'></img>	go	1750.0	2.0	5.0	go	non-target	D	71,Index Finger	89,Middle Finger	650.0	1000.0	2050.0	1750.0	1.0	n/a	1000.0	1.0	go_stim
34135.312282999977	1550.687717	n/a	1518	89	2750	1550.687717	stim	stop-signal	212	606266	0.0-13.5-1.5	beast_fmri_test	386	603899,/,604579,/,605259,/,605939,/,606619,/,607299,/	t,t,t,t,t,t	<img class = center src='/static/experiments/beast_fmri_test/images/D.png'></img>	71,89	2750.0	test	<img class = center src='/static/experiments/beast_fmri_test/images/redD.png'></img>	go	1750.0	2.0	5.0	go	non-target	D	71,Index Finger	89,Middle Finger	650.0	1000.0	2050.0	1750.0	1.0	n/a	1000.0	1.0	ITI
37745	500	n/a	-1	-1	500	0.0	fixation	poldrack-single-stim	213	608325	0.0-13.6-0.6	beast_fmri_test	386	607979,/	t	<div class = centerbox2><div class = fixation>+</div></div>	none	500.0	test	n/a	n/a	n/a	n/a	n/a	n/a	n/a	n/a	n/a	n/a	n/a	n/a	n/a	n/a	n/a	n/a	n/a	n/a	fixation
37272.2580265	2750	n/a	769	71	2750	474.7419735	stim	stop-signal	214	611077	0.0-13.6-1.6	beast_fmri_test	386	608659,/,609339,/,610019,/,610699,/,611379,/	t,t,t,t,t	<img class = center src='/static/experiments/beast_fmri_test/images/T.png'></img>	71,89	2750.0	test	<img class = center src='/static/experiments/beast_fmri_test/images/redT.png'></img>	go	2100.0	2.0	6.0	go	target	T	71,Index Finger	89,Middle Finger	650.0	1000.0	2100.0	1750.0	1.0	n/a	650.0	1.0	go_stim
40022.2580265	474.74197350000003	n/a	769	71	2750	474.7419735	stim	stop-signal	214	611077	0.0-13.6-1.6	beast_fmri_test	386	608659,/,609339,/,610019,/,610699,/,611379,/	t,t,t,t,t	<img class = center src='/static/experiments/beast_fmri_test/images/T.png'></img>	71,89	2750.0	test	<img class = center src='/static/experiments/beast_fmri_test/images/redT.png'></img>	go	2100.0	2.0	6.0	go	target	T	71,Index Finger	89,Middle Finger	650.0	1000.0	2100.0	1750.0	1.0	n/a	650.0	1.0	ITI
41479	500	n/a	-1	-1	500	0.0	fixation	poldrack-single-stim	215	612059	0.0-13.7-0.7	beast_fmri_test	386	612059,/	t	<div class = centerbox2><div class = fixation>+</div></div>	none	500.0	test	n/a	n/a	n/a	n/a	n/a	n/a	n/a	n/a	n/a	n/a	n/a	n/a	n/a	n/a	n/a	n/a	n/a	n/a	fixation
40383.915343999979	2750	n/a	895	89	2750	1096.084656	stim	stop-signal	216	614810	0.0-13.7-1.7	beast_fmri_test	386	612739,/,613419,/,614099,/,614779,/,615459,/	t,t,t,t,t	<img class = center src='/static/experiments/beast_fmri_test/images/P.png'></img>	71,89	2750.0	test	<img class = center src='/static/experiments/beast_fmri_test/images/redP.png'></img>	go	1750.0	2.0	7.0	go	non-target	P	71,Index Finger	89,Middle Finger	650.0	1000.0	2100.0	1750.0	1.0	n/a	1000.0	1.0	go_stim
43133.915343999979	1096.084656	n/a	895	89	2750	1096.084656	stim	stop-signal	216	614810	0.0-13.7-1.7	beast_fmri_test	386	612739,/,613419,/,614099,/,614779,/,615459,/	t,t,t,t,t	<img class = center src='/static/experiments/beast_fmri_test/images/P.png'></img>	71,89	2750.0	test	<img class = center src='/static/experiments/beast_fmri_test/images/redP.png'></img>	go	1750.0	2.0	7.0	go	non-target	P	71,Index Finger	89,Middle Finger	650.0	1000.0	2100.0	1750.0	1.0	n/a	1000.0	1.0	ITI
45834	500	n/a	-1	-1	500	0.0	fixation	poldrack-single-stim	217	616414	0.0-13.8-0.8	beast_fmri_test	386	616139,/	t	<div class = centerbox2><div class = fixation>+</div></div>	none	500.0	test	n/a	n/a	n/a	n/a	n/a	n/a	n/a	n/a	n/a	n/a	n/a	n/a	n/a	n/a	n/a	n/a	n/a	n/a	fixation
44081.219124000054	650.0	n/a	-1	-1	2750	1754.780876	stim	stop-signal	218	619166	0.0-13.8-1.8	beast_fmri_test	386	616818,/,617499,/,618179,/,618858,/,619538,/,620219,/,620898,/	t,t,t,t,t,t,t	<img class = center src='/static/experiments/beast_fmri_test/images/T.png'></img>	71,89	2750.0	test	<img class = center src='/static/experiments/beast_fmri_test/images/redT.png'></img>	stop	2100.0	2.0	8.0	stop	target	T	71,Index Finger	89,Middle Finger	650.0	1000.0	2100.0	1750.0	0.0	1.0	650.0	n/a	go_stim
46181.219124000054	2100.0	n/a	-1	-1	2750	1754.780876	stim	stop-signal	218	619166	0.0-13.8-1.8	beast_fmri_test	386	616818,/,617499,/,618179,/,618858,/,619538,/,620219,/,620898,/	t,t,t,t,t,t,t	<img class = center src='/static/experiments/beast_fmri_test/images/T.png'></img>	71,89	2750.0	test	<img class = center src='/static/experiments/beast_fmri_test/images/redT.png'></img>	stop	2100.0	2.0	8.0	stop	target	T	71,Index Finger	89,Middle Finger	650.0	1000.0	2100.0	1750.0	0.0	1.0	650.0	n/a	stop_stim
46831.219124000054	1754.7808760000003	n/a	-1	-1	2750	1754.780876	stim	stop-signal	218	619166	0.0-13.8-1.8	beast_fmri_test	386	616818,/,617499,/,618179,/,618858,/,619538,/,620219,/,620898,/	t,t,t,t,t,t,t	<img class = center src='/static/experiments/beast_fmri_test/images/T.png'></img>	71,89	2750.0	test	<img class = center src='/static/experiments/beast_fmri_test/images/redT.png'></img>	stop	2100.0	2.0	8.0	stop	target	T	71,Index Finger	89,Middle Finger	650.0	1000.0	2100.0	1750.0	0.0	1.0	650.0	n/a	ITI
50847	500	n/a	-1	-1	500	0.0	fixation	poldrack-single-stim	219	621427	0.0-13.9-0.9	beast_fmri_test	386	n/a	n/a	<div class = centerbox2><div class = fixation>+</div></div>	none	500.0	test	n/a	n/a	n/a	n/a	n/a	n/a	n/a	n/a	n/a	n/a	n/a	n/a	n/a	n/a	n/a	n/a	n/a	n/a	fixation
50123.281066900003	700.0	n/a	938	71	2750	725.7189331	stim	stop-signal	220	624179	0.0-13.9-1.9	beast_fmri_test	386	621579,/,622258,/,622938,/,623618,/,624299,/	t,t,t,t,t	<img class = center src='/static/experiments/beast_fmri_test/images/P.png'></img>	71,89	2750.0	test	<img class = center src='/static/experiments/beast_fmri_test/images/redP.png'></img>	stop	2050.0	2.0	9.0	stop	target	P	71,Index Finger	89,Middle Finger	700.0	1000.0	2050.0	1750.0	0.0	0.0	700.0	n/a	go_stim
52173.281066900003	2050.0	n/a	938	71	2750	725.7189331	stim	stop-signal	220	624179	0.0-13.9-1.9	beast_fmri_test	386	621579,/,622258,/,622938,/,623618,/,624299,/	t,t,t,t,t	<img class = center src='/static/experiments/beast_fmri_test/images/P.png'></img>	71,89	2750.0	test	<img class = center src='/static/experiments/beast_fmri_test/images/redP.png'></img>	stop	2050.0	2.0	9.0	stop	target	P	71,Index Finger	89,Middle Finger	700.0	1000.0	2050.0	1750.0	0.0	0.0	700.0	n/a	stop_stim
52873.281066900003	725.71893310000007	n/a	938	71	2750	725.7189331	stim	stop-signal	220	624179	0.0-13.9-1.9	beast_fmri_test	386	621579,/,622258,/,622938,/,623618,/,624299,/	t,t,t,t,t	<img class = center src='/static/experiments/beast_fmri_test/images/P.png'></img>	71,89	2750.0	test	<img class = center src='/static/experiments/beast_fmri_test/images/redP.png'></img>	stop	2050.0	2.0	9.0	stop	target	P	71,Index Finger	89,Middle Finger	700.0	1000.0	2050.0	1750.0	0.0	0.0	700.0	n/a	ITI
54832	500	n/a	-1	-1	500	0.0	fixation	poldrack-single-stim	221	625412	0.0-13.10-0.10	beast_fmri_test	386	624979,/	t	<div class = centerbox2><div class = fixation>+</div></div>	none	500.0	test	n/a	n/a	n/a	n/a	n/a	n/a	n/a	n/a	n/a	n/a	n/a	n/a	n/a	n/a	n/a	n/a	n/a	n/a	fixation
53910.342935099965	1000.0	n/a	933	89	2750	922.6570649	stim	stop-signal	222	628163	0.0-13.10-1.10	beast_fmri_test	386	625659,/,626339,/,627018,/,627698,/,628379,/,629058,/	t,t,t,t,t,t	<img class = center src='/static/experiments/beast_fmri_test/images/B.png'></img>	71,89	2750.0	test	<img class = center src='/static/experiments/beast_fmri_test/images/redB.png'></img>	stop	1750.0	2.0	10.0	stop	non-target	B	71,Index Finger	89,Middle Finger	650.0	1000.0	2050.0	1750.0	0.0	0.0	1000.0	n/a	go_stim
55660.342935099965	1750.0	n/a	933	89	2750	922.6570649	stim	stop-signal	222	628163	0.0-13.10-1.10	beast_fmri_test	386	625659,/,626339,/,627018,/,627698,/,628379,/,629058,/	t,t,t,t,t,t	<img class = center src='/static/experiments/beast_fmri_test/images/B.png'></img>	71,89	2750.0	test	<img class = center src='/static/experiments/beast_fmri_test/images/redB.png'></img>	stop	1750.0	2.0	10.0	stop	non-target	B	71,Index Finger	89,Middle Finger	650.0	1000.0	2050.0	1750.0	0.0	0.0	1000.0	n/a	stop_stim
56660.342935099965	922.65706490000002	n/a	933	89	2750	922.6570649	stim	stop-signal	222	628163	0.0-13.10-1.10	beast_fmri_test	386	625659,/,626339,/,627018,/,627698,/,628379,/,629058,/	t,t,t,t,t,t	<img class = center src='/static/experiments/beast_fmri_test/images/B.png'></img>	71,89	2750.0	test	<img class = center src='/static/experiments/beast_fmri_test/images/redB.png'></img>	stop	1750.0	2.0	10.0	stop	non-target	B	71,Index Finger	89,Middle Finger	650.0	1000.0	2050.0	1750.0	0.0	0.0	1000.0	n/a	ITI
59014	500	n/a	-1	-1	500	0.0	fixation	poldrack-single-stim	223	629594	0.0-13.11-0.11	beast_fmri_test	386	n/a	n/a	<div class = centerbox2><div class = fixation>+</div></div>	none	500.0	test	n/a	n/a	n/a	n/a	n/a	n/a	n/a	n/a	n/a	n/a	n/a	n/a	n/a	n/a	n/a	n/a	n/a	n/a	fixation
58361.123607599991	2750	n/a	1400	71	2750	654.8763924	stim	stop-signal	224	632346	0.0-13.11-1.11	beast_fmri_test	386	629738,/,630419,/,631100,/,631779,/,632459,/	t,t,t,t,t	<img class = center src='/static/experiments/beast_fmri_test/images/T.png'></img>	71,89	2750.0	test	<img class = center src='/static/experiments/beast_fmri_test/images/redT.png'></img>	go	1800.0	2.0	11.0	go	non-target	T	71,Index Finger	89,Middle Finger	650.0	950.0	2050.0	1800.0	0.0	n/a	950.0	0.0	go_stim
61111.123607599991	654.87639239999999	n/a	1400	71	2750	654.8763924	stim	stop-signal	224	632346	0.0-13.11-1.11	beast_fmri_test	386	629738,/,630419,/,631100,/,631779,/,632459,/	t,t,t,t,t	<img class = center src='/static/experiments/beast_fmri_test/images/T.png'></img>	71,89	2750.0	test	<img class = center src='/static/experiments/beast_fmri_test/images/redT.png'></img>	go	1800.0	2.0	11.0	go	non-target	T	71,Index Finger	89,Middle Finger	650.0	950.0	2050.0	1800.0	0.0	n/a	950.0	0.0	ITI
62929	500	n/a	-1	-1	500	0.0	fixation	poldrack-single-stim	225	633509	0.0-13.12-0.12	beast_fmri_test	386	633139,/	t	<div class = centerbox2><div class = fixation>+</div></div>	none	500.0	test	n/a	n/a	n/a	n/a	n/a	n/a	n/a	n/a	n/a	n/a	n/a	n/a	n/a	n/a	n/a	n/a	n/a	n/a	fixation
62420.912147699972	2750	n/a	1067	71	2750	510.0878523	stim	stop-signal	226	636261	0.0-13.12-1.12	beast_fmri_test	386	633819,/,634499,/,635179,/,635859,/,636539,/	t,t,t,t,t	<img class = center src='/static/experiments/beast_fmri_test/images/B.png'></img>	71,89	2750.0	test	<img class = center src='/static/experiments/beast_fmri_test/images/redB.png'></img>	go	2100.0	2.0	12.0	go	target	B	71,Index Finger	89,Middle Finger	650.0	950.0	2100.0	1800.0	1.0	n/a	650.0	1.0	go_stim
65170.912147699972	510.08785230000001	n/a	1067	71	2750	510.0878523	stim	stop-signal	226	636261	0.0-13.12-1.12	beast_fmri_test	386	633819,/,634499,/,635179,/,635859,/,636539,/	t,t,t,t,t	<img class = center src='/static/experiments/beast_fmri_test/images/B.png'></img>	71,89	2750.0	test	<img class = center src='/static/experiments/beast_fmri_test/images/redB.png'></img>	go	2100.0	2.0	12.0	go	target	B	71,Index Finger	89,Middle Finger	650.0	950.0	2100.0	1800.0	1.0	n/a	650.0	1.0	ITI
66701	500	n/a	-1	-1	500	0.0	fixation	poldrack-single-stim	227	637281	0.0-13.13-0.13	beast_fmri_test	386	637220,/	t	<div class = centerbox2><div class = fixation>+</div></div>	none	500.0	test	n/a	n/a	n/a	n/a	n/a	n/a	n/a	n/a	n/a	n/a	n/a	n/a	n/a	n/a	n/a	n/a	n/a	n/a	fixation
66624.887943799957	950.0	n/a	1106	89	2750	78.1120562	stim	stop-signal	228	640033	0.0-13.13-1.13	beast_fmri_test	386	637899,/,638579,/,639259,/,639938,/	t,t,t,t	<img class = center src='/static/experiments/beast_fmri_test/images/P.png'></img>	71,89	2750.0	test	<img class = center src='/static/experiments/beast_fmri_test/images/redP.png'></img>	stop	1800.0	2.0	13.0	stop	non-target	P	71,Index Finger	89,Middle Finger	650.0	950.0	2100.0	1800.0	0.0	0.0	950.0	n/a	go_stim
68424.887943799957	1800.0	n/a	1106	89	2750	78.1120562	stim	stop-signal	228	640033	0.0-13.13-1.13	beast_fmri_test	386	637899,/,638579,/,639259,/,639938,/	t,t,t,t	<img class = center src='/static/experiments/beast_fmri_test/images/P.png'></img>	71,89	2750.0	test	<img class = center src='/static/experiments/beast_fmri_test/images/redP.png'></img>	stop	1800.0	2.0	13.0	stop	non-target	P	71,Index Finger	89,Middle Finger	650.0	950.0	2100.0	1800.0	0.0	0.0	950.0	n/a	stop_stim
69374.887943799957	78.112056199999998	n/a	1106	89	2750	78.1120562	stim	stop-signal	228	640033	0.0-13.13-1.13	beast_fmri_test	386	637899,/,638579,/,639259,/,639938,/	t,t,t,t	<img class = center src='/static/experiments/beast_fmri_test/images/P.png'></img>	71,89	2750.0	test	<img class = center src='/static/experiments/beast_fmri_test/images/redP.png'></img>	stop	1800.0	2.0	13.0	stop	non-target	P	71,Index Finger	89,Middle Finger	650.0	950.0	2100.0	1800.0	0.0	0.0	950.0	n/a	ITI
70038	500	n/a	-1	-1	500	0.0	fixation	poldrack-single-stim	229	640618	0.0-13.14-0.14	beast_fmri_test	386	n/a	n/a	<div class = centerbox2><div class = fixation>+</div></div>	none	500.0	test	n/a	n/a	n/a	n/a	n/a	n/a	n/a	n/a	n/a	n/a	n/a	n/a	n/a	n/a	n/a	n/a	n/a	n/a	fixation
68020.054258999997	650.0	n/a	-1	-1	2750	2019.945741	stim	stop-signal	230	643370	0.0-13.14-1.14	beast_fmri_test	386	640620,/,641299,/,641978,/,642659,/,643339,/,644018,/,644698,/,645379,/	t,t,t,t,t,t,t,t	<img class = center src='/static/experiments/beast_fmri_test/images/B.png'></img>	71,89	2750.0	test	<img class = center src='/static/experiments/beast_fmri_test/images/redB.png'></img>	stop	2100.0	2.0	14.0	stop	target	B	71,Index Finger	89,Middle Finger	650.0	900.0	2100.0	1800.0	0.0	1.0	650.0	n/a	go_stim
70120.054258999997	2100.0	n/a	-1	-1	2750	2019.945741	stim	stop-signal	230	643370	0.0-13.14-1.14	beast_fmri_test	386	640620,/,641299,/,641978,/,642659,/,643339,/,644018,/,644698,/,645379,/	t,t,t,t,t,t,t,t	<img class = center src='/static/experiments/beast_fmri_test/images/B.png'></img>	71,89	2750.0	test	<img class = center src='/static/experiments/beast_fmri_test/images/redB.png'></img>	stop	2100.0	2.0	14.0	stop	target	B	71,Index Finger	89,Middle Finger	650.0	900.0	2100.0	1800.0	0.0	1.0	650.0	n/a	stop_stim
70770.054258999997	2019.945741	n/a	-1	-1	2750	2019.945741	stim	stop-signal	230	643370	0.0-13.14-1.14	beast_fmri_test	386	640620,/,641299,/,641978,/,642659,/,643339,/,644018,/,644698,/,645379,/	t,t,t,t,t,t,t,t	<img class = center src='/static/experiments/beast_fmri_test/images/B.png'></img>	71,89	2750.0	test	<img class = center src='/static/experiments/beast_fmri_test/images/redB.png'></img>	stop	2100.0	2.0	14.0	stop	target	B	71,Index Finger	89,Middle Finger	650.0	900.0	2100.0	1800.0	0.0	1.0	650.0	n/a	ITI
75319	500	n/a	-1	-1	500	0.0	fixation	poldrack-single-stim	231	645899	0.0-13.15-0.15	beast_fmri_test	386	n/a	n/a	<div class = centerbox2><div class = fixation>+</div></div>	none	500.0	test	n/a	n/a	n/a	n/a	n/a	n/a	n/a	n/a	n/a	n/a	n/a	n/a	n/a	n/a	n/a	n/a	n/a	n/a	fixation
74322.776920099976	2750	n/a	1023	89	2750	997.2230799	stim	stop-signal	232	648650	0.0-13.15-1.15	beast_fmri_test	386	646058,/,646739,/,647418,/,648099,/,648780,/,649459,/	t,t,t,t,t,t	<img class = center src='/static/experiments/beast_fmri_test/images/D.png'></img>	71,89	2750.0	test	<img class = center src='/static/experiments/beast_fmri_test/images/redD.png'></img>	go	1850.0	2.0	15.0	go	non-target	D	71,Index Finger	89,Middle Finger	700.0	900.0	2100.0	1850.0	1.0	n/a	900.0	1.0	go_stim
77072.776920099976	997.22307990000002	n/a	1023	89	2750	997.2230799	stim	stop-signal	232	648650	0.0-13.15-1.15	beast_fmri_test	386	646058,/,646739,/,647418,/,648099,/,648780,/,649459,/	t,t,t,t,t,t	<img class = center src='/static/experiments/beast_fmri_test/images/D.png'></img>	71,89	2750.0	test	<img class = center src='/static/experiments/beast_fmri_test/images/redD.png'></img>	go	1850.0	2.0	15.0	go	non-target	D	71,Index Finger	89,Middle Finger	700.0	900.0	2100.0	1850.0	1.0	n/a	900.0	1.0	ITI
79577	500	n/a	-1	-1	500	0.0	fixation	poldrack-single-stim	233	650157	0.0-13.16-0.16	beast_fmri_test	386	650139,/	t	<div class = centerbox2><div class = fixation>+</div></div>	none	500.0	test	n/a	n/a	n/a	n/a	n/a	n/a	n/a	n/a	n/a	n/a	n/a	n/a	n/a	n/a	n/a	n/a	n/a	n/a	fixation
77902.742703999975	900.0	n/a	1141	89	2750	1677.257296	stim	stop-signal	234	652910	0.0-13.16-1.16	beast_fmri_test	386	650819,/,651499,/,652179,/,652859,/,653539,/,654218,/	t,t,t,t,t,t	<img class = center src='/static/experiments/beast_fmri_test/images/D.png'></img>	71,89	2750.0	test	<img class = center src='/static/experiments/beast_fmri_test/images/redD.png'></img>	stop	1850.0	2.0	16.0	stop	non-target	D	71,Index Finger	89,Middle Finger	700.0	900.0	2100.0	1850.0	0.0	0.0	900.0	n/a	go_stim
79752.742703999975	1850.0	n/a	1141	89	2750	1677.257296	stim	stop-signal	234	652910	0.0-13.16-1.16	beast_fmri_test	386	650819,/,651499,/,652179,/,652859,/,653539,/,654218,/	t,t,t,t,t,t	<img class = center src='/static/experiments/beast_fmri_test/images/D.png'></img>	71,89	2750.0	test	<img class = center src='/static/experiments/beast_fmri_test/images/redD.png'></img>	stop	1850.0	2.0	16.0	stop	non-target	D	71,Index Finger	89,Middle Finger	700.0	900.0	2100.0	1850.0	0.0	0.0	900.0	n/a	stop_stim
80652.742703999975	1677.257296	n/a	1141	89	2750	1677.257296	stim	stop-signal	234	652910	0.0-13.16-1.16	beast_fmri_test	386	650819,/,651499,/,652179,/,652859,/,653539,/,654218,/	t,t,t,t,t,t	<img class = center src='/static/experiments/beast_fmri_test/images/D.png'></img>	71,89	2750.0	test	<img class = center src='/static/experiments/beast_fmri_test/images/redD.png'></img>	stop	1850.0	2.0	16.0	stop	non-target	D	71,Index Finger	89,Middle Finger	700.0	900.0	2100.0	1850.0	0.0	0.0	900.0	n/a	ITI
84517	500	n/a	-1	-1	500	0.0	fixation	poldrack-single-stim	235	655097	0.0-13.17-0.17	beast_fmri_test	386	654899,/	t	<div class = centerbox2><div class = fixation>+</div></div>	none	500.0	test	n/a	n/a	n/a	n/a	n/a	n/a	n/a	n/a	n/a	n/a	n/a	n/a	n/a	n/a	n/a	n/a	n/a	n/a	fixation
82957.480773000047	2750	n/a	1118	89	2750	1561.519227	stim	stop-signal	236	657849	0.0-13.17-1.17	beast_fmri_test	386	655579,/,656258,/,656939,/,657618,/,658298,/,658980,/	t,t,t,t,t,t	<img class = center src='/static/experiments/beast_fmri_test/images/T.png'></img>	71,89	2750.0	test	<img class = center src='/static/experiments/beast_fmri_test/images/redT.png'></img>	go	1900.0	2.0	17.0	go	non-target	T	71,Index Finger	89,Middle Finger	700.0	850.0	2100.0	1900.0	1.0	n/a	850.0	1.0	go_stim
85707.480773000047	1561.519227	n/a	1118	89	2750	1561.519227	stim	stop-signal	236	657849	0.0-13.17-1.17	beast_fmri_test	386	655579,/,656258,/,656939,/,657618,/,658298,/,658980,/	t,t,t,t,t,t	<img class = center src='/static/experiments/beast_fmri_test/images/T.png'></img>	71,89	2750.0	test	<img class = center src='/static/experiments/beast_fmri_test/images/redT.png'></img>	go	1900.0	2.0	17.0	go	non-target	T	71,Index Finger	89,Middle Finger	700.0	850.0	2100.0	1900.0	1.0	n/a	850.0	1.0	ITI
89339	500	n/a	-1	-1	500	0.0	fixation	poldrack-single-stim	237	659919	0.0-13.18-0.18	beast_fmri_test	386	659658,/	t	<div class = centerbox2><div class = fixation>+</div></div>	none	500.0	test	n/a	n/a	n/a	n/a	n/a	n/a	n/a	n/a	n/a	n/a	n/a	n/a	n/a	n/a	n/a	n/a	n/a	n/a	fixation
89153.153266299982	2750	n/a	985	71	2750	187.8467337	stim	stop-signal	238	662671	0.0-13.18-1.18	beast_fmri_test	386	660338,/,661018,/,661698,/,662378,/	t,t,t,t	<img class = center src='/static/experiments/beast_fmri_test/images/D.png'></img>	71,89	2750.0	test	<img class = center src='/static/experiments/beast_fmri_test/images/redD.png'></img>	go	2050.0	2.0	18.0	go	target	D	71,Index Finger	89,Middle Finger	700.0	850.0	2050.0	1900.0	1.0	n/a	700.0	1.0	go_stim
91903.153266299982	187.84673369999999	n/a	985	71	2750	187.8467337	stim	stop-signal	238	662671	0.0-13.18-1.18	beast_fmri_test	386	660338,/,661018,/,661698,/,662378,/	t,t,t,t	<img class = center src='/static/experiments/beast_fmri_test/images/D.png'></img>	71,89	2750.0	test	<img class = center src='/static/experiments/beast_fmri_test/images/redD.png'></img>	go	2050.0	2.0	18.0	go	target	D	71,Index Finger	89,Middle Finger	700.0	850.0	2050.0	1900.0	1.0	n/a	700.0	1.0	ITI
92788	500	n/a	-1	-1	500	0.0	fixation	poldrack-single-stim	239	663368	0.0-13.19-0.19	beast_fmri_test	386	663058,/	t	<div class = centerbox2><div class = fixation>+</div></div>	none	500.0	test	n/a	n/a	n/a	n/a	n/a	n/a	n/a	n/a	n/a	n/a	n/a	n/a	n/a	n/a	n/a	n/a	n/a	n/a	fixation
92026.618346299976	2750	n/a	1082	71	2750	764.3816537	stim	stop-signal	240	666121	0.0-13.19-1.19	beast_fmri_test	386	663739,/,664419,/,665099,/,665779,/,666459,/	t,t,t,t,t	<img class = center src='/static/experiments/beast_fmri_test/images/T.png'></img>	71,89	2750.0	test	<img class = center src='/static/experiments/beast_fmri_test/images/redT.png'></img>	go	2050.0	2.0	19.0	go	target	T	71,Index Finger	89,Middle Finger	700.0	850.0	2050.0	1900.0	1.0	n/a	700.0	1.0	go_stim
94776.618346299976	764.38165370000002	n/a	1082	71	2750	764.3816537	stim	stop-signal	240	666121	0.0-13.19-1.19	beast_fmri_test	386	663739,/,664419,/,665099,/,665779,/,666459,/	t,t,t,t,t	<img class = center src='/static/experiments/beast_fmri_test/images/T.png'></img>	71,89	2750.0	test	<img class = center src='/static/experiments/beast_fmri_test/images/redT.png'></img>	go	2050.0	2.0	19.0	go	target	T	71,Index Finger	89,Middle Finger	700.0	850.0	2050.0	1900.0	1.0	n/a	700.0	1.0	ITI
96815	500	n/a	-1	-1	500	0.0	fixation	poldrack-single-stim	241	667395	0.0-13.20-0.20	beast_fmri_test	386	667139,/	t	<div class = centerbox2><div class = fixation>+</div></div>	none	500.0	test	n/a	n/a	n/a	n/a	n/a	n/a	n/a	n/a	n/a	n/a	n/a	n/a	n/a	n/a	n/a	n/a	n/a	n/a	fixation
92483.485945999972	850.0	n/a	-1	-1	2750	4333.514054	stim	stop-signal	242	670147	0.0-13.20-1.20	beast_fmri_test	386	667819,/,668499,/,669180,/,669859,/,670539,/,671219,/,671899,/,672579,/,673259,/,673939,/	t,t,t,t,t,t,t,t,t,t	<img class = center src='/static/experiments/beast_fmri_test/images/T.png'></img>	71,89	2750.0	test	<img class = center src='/static/experiments/beast_fmri_test/images/redT.png'></img>	stop	1900.0	2.0	20.0	stop	non-target	T	71,Index Finger	89,Middle Finger	700.0	850.0	2050.0	1900.0	0.0	1.0	850.0	n/a	go_stim
94383.485945999972	1900.0	n/a	-1	-1	2750	4333.514054	stim	stop-signal	242	670147	0.0-13.20-1.20	beast_fmri_test	386	667819,/,668499,/,669180,/,669859,/,670539,/,671219,/,671899,/,672579,/,673259,/,673939,/	t,t,t,t,t,t,t,t,t,t	<img class = center src='/static/experiments/beast_fmri_test/images/T.png'></img>	71,89	2750.0	test	<img class = center src='/static/experiments/beast_fmri_test/images/redT.png'></img>	stop	1900.0	2.0	20.0	stop	non-target	T	71,Index Finger	89,Middle Finger	700.0	850.0	2050.0	1900.0	0.0	1.0	850.0	n/a	stop_stim
95233.485945999972	4333.5140540000002	n/a	-1	-1	2750	4333.514054	stim	stop-signal	242	670147	0.0-13.20-1.20	beast_fmri_test	386	667819,/,668499,/,669180,/,669859,/,670539,/,671219,/,671899,/,672579,/,673259,/,673939,/	t,t,t,t,t,t,t,t,t,t	<img class = center src='/static/experiments/beast_fmri_test/images/T.png'></img>	71,89	2750.0	test	<img class = center src='/static/experiments/beast_fmri_test/images/redT.png'></img>	stop	1900.0	2.0	20.0	stop	non-target	T	71,Index Finger	89,Middle Finger	700.0	850.0	2050.0	1900.0	0.0	1.0	850.0	n/a	ITI
104410	500	n/a	-1	-1	500	0.0	fixation	poldrack-single-stim	243	674990	0.0-13.21-0.21	beast_fmri_test	386	674619,/	t	<div class = centerbox2><div class = fixation>+</div></div>	none	500.0	test	n/a	n/a	n/a	n/a	n/a	n/a	n/a	n/a	n/a	n/a	n/a	n/a	n/a	n/a	n/a	n/a	n/a	n/a	fixation
104008.79405869998	2750	n/a	986	71	2750	403.2059413	stim	stop-signal	244	677742	0.0-13.21-1.21	beast_fmri_test	386	675298,/,675978,/,676659,/,677338,/,678018,/	t,t,t,t,t	<img class = center src='/static/experiments/beast_fmri_test/images/D.png'></img>	71,89	2750.0	test	<img class = center src='/static/experiments/beast_fmri_test/images/redD.png'></img>	go	1850.0	2.0	21.0	go	non-target	D	71,Index Finger	89,Middle Finger	700.0	900.0	2050.0	1850.0	0.0	n/a	900.0	0.0	go_stim
106758.79405869998	403.20594130000001	n/a	986	71	2750	403.2059413	stim	stop-signal	244	677742	0.0-13.21-1.21	beast_fmri_test	386	675298,/,675978,/,676659,/,677338,/,678018,/	t,t,t,t,t	<img class = center src='/static/experiments/beast_fmri_test/images/D.png'></img>	71,89	2750.0	test	<img class = center src='/static/experiments/beast_fmri_test/images/redD.png'></img>	go	1850.0	2.0	21.0	go	non-target	D	71,Index Finger	89,Middle Finger	700.0	900.0	2050.0	1850.0	0.0	n/a	900.0	0.0	ITI
108076	500	n/a	-1	-1	500	0.0	fixation	poldrack-single-stim	245	678656	0.0-13.22-0.22	beast_fmri_test	386	n/a	n/a	<div class = centerbox2><div class = fixation>+</div></div>	none	500.0	test	n/a	n/a	n/a	n/a	n/a	n/a	n/a	n/a	n/a	n/a	n/a	n/a	n/a	n/a	n/a	n/a	n/a	n/a	fixation
106822.48142500001	2750	n/a	1047	89	2750	1255.518575	stim	stop-signal	246	681408	0.0-13.22-1.22	beast_fmri_test	386	678699,/,679379,/,680058,/,680739,/,681419,/,682099,/	t,t,t,t,t,t	<img class = center src='/static/experiments/beast_fmri_test/images/V.png'></img>	71,89	2750.0	test	<img class = center src='/static/experiments/beast_fmri_test/images/redV.png'></img>	go	1850.0	2.0	22.0	go	non-target	V	71,Index Finger	89,Middle Finger	700.0	900.0	2050.0	1850.0	1.0	n/a	900.0	1.0	go_stim
109572.48142500001	1255.5185750000001	n/a	1047	89	2750	1255.518575	stim	stop-signal	246	681408	0.0-13.22-1.22	beast_fmri_test	386	678699,/,679379,/,680058,/,680739,/,681419,/,682099,/	t,t,t,t,t,t	<img class = center src='/static/experiments/beast_fmri_test/images/V.png'></img>	71,89	2750.0	test	<img class = center src='/static/experiments/beast_fmri_test/images/redV.png'></img>	go	1850.0	2.0	22.0	go	non-target	V	71,Index Finger	89,Middle Finger	700.0	900.0	2050.0	1850.0	1.0	n/a	900.0	1.0	ITI
112593	500	n/a	-1	-1	500	0.0	fixation	poldrack-single-stim	247	683173	0.0-13.23-0.23	beast_fmri_test	386	682779,/	t	<div class = centerbox2><div class = fixation>+</div></div>	none	500.0	test	n/a	n/a	n/a	n/a	n/a	n/a	n/a	n/a	n/a	n/a	n/a	n/a	n/a	n/a	n/a	n/a	n/a	n/a	fixation
111607.66841759998	2750	n/a	804	71	2750	985.3315824	stim	stop-signal	248	685923	0.0-13.23-1.23	beast_fmri_test	386	683459,/,684138,/,684819,/,685498,/,686178,/,686858,/	t,t,t,t,t,t	<img class = center src='/static/experiments/beast_fmri_test/images/D.png'></img>	71,89	2750.0	test	<img class = center src='/static/experiments/beast_fmri_test/images/redD.png'></img>	go	2050.0	2.0	23.0	go	target	D	71,Index Finger	89,Middle Finger	700.0	900.0	2050.0	1850.0	1.0	n/a	700.0	1.0	go_stim
114357.66841759998	985.33158239999989	n/a	804	71	2750	985.3315824	stim	stop-signal	248	685923	0.0-13.23-1.23	beast_fmri_test	386	683459,/,684138,/,684819,/,685498,/,686178,/,686858,/	t,t,t,t,t,t	<img class = center src='/static/experiments/beast_fmri_test/images/D.png'></img>	71,89	2750.0	test	<img class = center src='/static/experiments/beast_fmri_test/images/redD.png'></img>	go	2050.0	2.0	23.0	go	target	D	71,Index Finger	89,Middle Finger	700.0	900.0	2050.0	1850.0	1.0	n/a	700.0	1.0	ITI
116837	500	n/a	-1	-1	500	0.0	fixation	poldrack-single-stim	249	687417	0.0-13.24-0.24	beast_fmri_test	386	n/a	n/a	<div class = centerbox2><div class = fixation>+</div></div>	none	500.0	test	n/a	n/a	n/a	n/a	n/a	n/a	n/a	n/a	n/a	n/a	n/a	n/a	n/a	n/a	n/a	n/a	n/a	n/a	fixation
115139.028834	2750	n/a	1033	71	2750	1699.971166	stim	stop-signal	250	690169	0.0-13.24-1.24	beast_fmri_test	386	687539,/,688218,/,688898,/,689579,/,690259,/,690938,/,691618,/	t,t,t,t,t,t,t	<img class = center src='/static/experiments/beast_fmri_test/images/V.png'></img>	71,89	2750.0	test	<img class = center src='/static/experiments/beast_fmri_test/images/redV.png'></img>	go	2050.0	2.0	24.0	go	target	V	71,Index Finger	89,Middle Finger	700.0	900.0	2050.0	1850.0	1.0	n/a	700.0	1.0	go_stim
117889.028834	1699.971166	n/a	1033	71	2750	1699.971166	stim	stop-signal	250	690169	0.0-13.24-1.24	beast_fmri_test	386	687539,/,688218,/,688898,/,689579,/,690259,/,690938,/,691618,/	t,t,t,t,t,t,t	<img class = center src='/static/experiments/beast_fmri_test/images/V.png'></img>	71,89	2750.0	test	<img class = center src='/static/experiments/beast_fmri_test/images/redV.png'></img>	go	2050.0	2.0	24.0	go	target	V	71,Index Finger	89,Middle Finger	700.0	900.0	2050.0	1850.0	1.0	n/a	700.0	1.0	ITI
121797	500	n/a	-1	-1	500	0.0	fixation	poldrack-single-stim	251	692377	0.0-13.25-0.25	beast_fmri_test	386	692298,/	t	<div class = centerbox2><div class = fixation>+</div></div>	none	500.0	test	n/a	n/a	n/a	n/a	n/a	n/a	n/a	n/a	n/a	n/a	n/a	n/a	n/a	n/a	n/a	n/a	n/a	n/a	fixation
120011.92802800005	2750	n/a	943	89	2750	1787.071972	stim	stop-signal	252	695129	0.0-13.25-1.25	beast_fmri_test	386	692979,/,693658,/,694339,/,695018,/,695698,/,696378,/	t,t,t,t,t,t	<img class = center src='/static/experiments/beast_fmri_test/images/B.png'></img>	71,89	2750.0	test	<img class = center src='/static/experiments/beast_fmri_test/images/redB.png'></img>	go	1850.0	2.0	25.0	go	non-target	B	71,Index Finger	89,Middle Finger	700.0	900.0	2050.0	1850.0	1.0	n/a	900.0	1.0	go_stim
122761.92802800005	1787.071972	n/a	943	89	2750	1787.071972	stim	stop-signal	252	695129	0.0-13.25-1.25	beast_fmri_test	386	692979,/,693658,/,694339,/,695018,/,695698,/,696378,/	t,t,t,t,t,t	<img class = center src='/static/experiments/beast_fmri_test/images/B.png'></img>	71,89	2750.0	test	<img class = center src='/static/experiments/beast_fmri_test/images/redB.png'></img>	go	1850.0	2.0	25.0	go	non-target	B	71,Index Finger	89,Middle Finger	700.0	900.0	2050.0	1850.0	1.0	n/a	900.0	1.0	ITI
126845	500	n/a	-1	-1	500	0.0	fixation	poldrack-single-stim	253	697425	0.0-13.26-0.26	beast_fmri_test	386	697059,/	t	<div class = centerbox2><div class = fixation>+</div></div>	none	500.0	test	n/a	n/a	n/a	n/a	n/a	n/a	n/a	n/a	n/a	n/a	n/a	n/a	n/a	n/a	n/a	n/a	n/a	n/a	fixation
124483.87411600002	2750	n/a	884	89	2750	2364.125884	stim	stop-signal	254	700178	0.0-13.26-1.26	beast_fmri_test	386	697739,/,698419,/,699099,/,699780,/,700459,/,701139,/,701819,/,702499,/	t,t,t,t,t,t,t,t	<img class = center src='/static/experiments/beast_fmri_test/images/P.png'></img>	71,89	2750.0	test	<img class = center src='/static/experiments/beast_fmri_test/images/redP.png'></img>	go	1850.0	2.0	26.0	go	non-target	P	71,Index Finger	89,Middle Finger	700.0	900.0	2050.0	1850.0	1.0	n/a	900.0	1.0	go_stim
127233.87411600002	2364.125884	n/a	884	89	2750	2364.125884	stim	stop-signal	254	700178	0.0-13.26-1.26	beast_fmri_test	386	697739,/,698419,/,699099,/,699780,/,700459,/,701139,/,701819,/,702499,/	t,t,t,t,t,t,t,t	<img class = center src='/static/experiments/beast_fmri_test/images/P.png'></img>	71,89	2750.0	test	<img class = center src='/static/experiments/beast_fmri_test/images/redP.png'></img>	go	1850.0	2.0	26.0	go	non-target	P	71,Index Finger	89,Middle Finger	700.0	900.0	2050.0	1850.0	1.0	n/a	900.0	1.0	ITI
132473	500	n/a	-1	-1	500	0.0	fixation	poldrack-single-stim	255	703053	0.0-13.27-0.27	beast_fmri_test	386	n/a	n/a	<div class = centerbox2><div class = fixation>+</div></div>	none	500.0	test	n/a	n/a	n/a	n/a	n/a	n/a	n/a	n/a	n/a	n/a	n/a	n/a	n/a	n/a	n/a	n/a	n/a	n/a	fixation
127475.0	2750	n/a	930	89	2750	5000.0	stim	stop-signal	256	705805	0.0-13.27-1.27	beast_fmri_test	386	703179,/,703859,/,704539,/,705219,/,705899,/,706579,/,707259,/,707939,/,708619,/,709299,/,709979,/,710659,/	t,t,t,t,t,t,t,t,t,t,t,t	<img class = center src='/static/experiments/beast_fmri_test/images/V.png'></img>	71,89	2750.0	test	<img class = center src='/static/experiments/beast_fmri_test/images/redV.png'></img>	go	1850.0	2.0	27.0	go	non-target	V	71,Index Finger	89,Middle Finger	700.0	900.0	2050.0	1850.0	1.0	n/a	900.0	1.0	go_stim
130225.0	5000.0	n/a	930	89	2750	5000.0	stim	stop-signal	256	705805	0.0-13.27-1.27	beast_fmri_test	386	703179,/,703859,/,704539,/,705219,/,705899,/,706579,/,707259,/,707939,/,708619,/,709299,/,709979,/,710659,/	t,t,t,t,t,t,t,t,t,t,t,t	<img class = center src='/static/experiments/beast_fmri_test/images/V.png'></img>	71,89	2750.0	test	<img class = center src='/static/experiments/beast_fmri_test/images/redV.png'></img>	go	1850.0	2.0	27.0	go	non-target	V	71,Index Finger	89,Middle Finger	700.0	900.0	2050.0	1850.0	1.0	n/a	900.0	1.0	ITI
140733	500	n/a	-1	-1	500	0.0	fixation	poldrack-single-stim	257	711313	0.0-13.28-0.28	beast_fmri_test	386	n/a	n/a	<div class = centerbox2><div class = fixation>+</div></div>	none	500.0	test	n/a	n/a	n/a	n/a	n/a	n/a	n/a	n/a	n/a	n/a	n/a	n/a	n/a	n/a	n/a	n/a	n/a	n/a	fixation
140583.13659370004	2750	n/a	907	89	2750	150.8634063	stim	stop-signal	258	714064	0.0-13.28-1.28	beast_fmri_test	386	711339,/,712019,/,712699,/,713379,/,714059,/	t,t,t,t,t	<img class = center src='/static/experiments/beast_fmri_test/images/D.png'></img>	71,89	2750.0	test	<img class = center src='/static/experiments/beast_fmri_test/images/redD.png'></img>	go	1850.0	2.0	28.0	go	non-target	D	71,Index Finger	89,Middle Finger	700.0	900.0	2050.0	1850.0	1.0	n/a	900.0	1.0	go_stim
143333.13659370004	150.86340630000001	n/a	907	89	2750	150.8634063	stim	stop-signal	258	714064	0.0-13.28-1.28	beast_fmri_test	386	711339,/,712019,/,712699,/,713379,/,714059,/	t,t,t,t,t	<img class = center src='/static/experiments/beast_fmri_test/images/D.png'></img>	71,89	2750.0	test	<img class = center src='/static/experiments/beast_fmri_test/images/redD.png'></img>	go	1850.0	2.0	28.0	go	non-target	D	71,Index Finger	89,Middle Finger	700.0	900.0	2050.0	1850.0	1.0	n/a	900.0	1.0	ITI
144144	500	n/a	-1	-1	500	0.0	fixation	poldrack-single-stim	259	714724	0.0-13.29-0.29	beast_fmri_test	386	n/a	n/a	<div class = centerbox2><div class = fixation>+</div></div>	none	500.0	test	n/a	n/a	n/a	n/a	n/a	n/a	n/a	n/a	n/a	n/a	n/a	n/a	n/a	n/a	n/a	n/a	n/a	n/a	fixation
142501.21129600005	2750	n/a	1507	89	2750	1644.788704	stim	stop-signal	260	717476	0.0-13.29-1.29	beast_fmri_test	386	714739,/,715419,/,716098,/,716779,/,717459,/,718138,/,718819,/	t,t,t,t,t,t,t	<img class = center src='/static/experiments/beast_fmri_test/images/B.png'></img>	71,89	2750.0	test	<img class = center src='/static/experiments/beast_fmri_test/images/redB.png'></img>	go	1850.0	2.0	29.0	go	non-target	B	71,Index Finger	89,Middle Finger	700.0	900.0	2050.0	1850.0	1.0	n/a	900.0	1.0	go_stim
145251.21129600005	1644.7887039999998	n/a	1507	89	2750	1644.788704	stim	stop-signal	260	717476	0.0-13.29-1.29	beast_fmri_test	386	714739,/,715419,/,716098,/,716779,/,717459,/,718138,/,718819,/	t,t,t,t,t,t,t	<img class = center src='/static/experiments/beast_fmri_test/images/B.png'></img>	71,89	2750.0	test	<img class = center src='/static/experiments/beast_fmri_test/images/redB.png'></img>	go	1850.0	2.0	29.0	go	non-target	B	71,Index Finger	89,Middle Finger	700.0	900.0	2050.0	1850.0	1.0	n/a	900.0	1.0	ITI
149052	500	n/a	-1	-1	500	0.0	fixation	poldrack-single-stim	261	719632	0.0-13.30-0.30	beast_fmri_test	386	719499,/	t	<div class = centerbox2><div class = fixation>+</div></div>	none	500.0	test	n/a	n/a	n/a	n/a	n/a	n/a	n/a	n/a	n/a	n/a	n/a	n/a	n/a	n/a	n/a	n/a	n/a	n/a	fixation
148929.51025439997	2750	n/a	888	71	2750	124.4897456	stim	stop-signal	262	722384	0.0-13.30-1.30	beast_fmri_test	386	720180,/,720858,/,721539,/,722219,/	t,t,t,t	<img class = center src='/static/experiments/beast_fmri_test/images/D.png'></img>	71,89	2750.0	test	<img class = center src='/static/experiments/beast_fmri_test/images/redD.png'></img>	go	2050.0	2.0	30.0	go	target	D	71,Index Finger	89,Middle Finger	700.0	900.0	2050.0	1850.0	1.0	n/a	700.0	1.0	go_stim
151679.51025439997	124.48974560000001	n/a	888	71	2750	124.4897456	stim	stop-signal	262	722384	0.0-13.30-1.30	beast_fmri_test	386	720180,/,720858,/,721539,/,722219,/	t,t,t,t	<img class = center src='/static/experiments/beast_fmri_test/images/D.png'></img>	71,89	2750.0	test	<img class = center src='/static/experiments/beast_fmri_test/images/redD.png'></img>	go	2050.0	2.0	30.0	go	target	D	71,Index Finger	89,Middle Finger	700.0	900.0	2050.0	1850.0	1.0	n/a	700.0	1.0	ITI
152439	500	n/a	-1	-1	500	0.0	fixation	poldrack-single-stim	263	723019	0.0-13.31-0.31	beast_fmri_test	386	722899,/	t	<div class = centerbox2><div class = fixation>+</div></div>	none	500.0	test	n/a	n/a	n/a	n/a	n/a	n/a	n/a	n/a	n/a	n/a	n/a	n/a	n/a	n/a	n/a	n/a	n/a	n/a	fixation
151681.44464809995	900.0	n/a	1049	89	2750	759.5553519	stim	stop-signal	264	725771	0.0-13.31-1.31	beast_fmri_test	386	723578,/,724259,/,724939,/,725618,/,726298,/	t,t,t,t,t	<img class = center src='/static/experiments/beast_fmri_test/images/P.png'></img>	71,89	2750.0	test	<img class = center src='/static/experiments/beast_fmri_test/images/redP.png'></img>	stop	1850.0	2.0	31.0	stop	non-target	P	71,Index Finger	89,Middle Finger	700.0	900.0	2050.0	1850.0	0.0	0.0	900.0	n/a	go_stim
153531.44464809995	1850.0	n/a	1049	89	2750	759.5553519	stim	stop-signal	264	725771	0.0-13.31-1.31	beast_fmri_test	386	723578,/,724259,/,724939,/,725618,/,726298,/	t,t,t,t,t	<img class = center src='/static/experiments/beast_fmri_test/images/P.png'></img>	71,89	2750.0	test	<img class = center src='/static/experiments/beast_fmri_test/images/redP.png'></img>	stop	1850.0	2.0	31.0	stop	non-target	P	71,Index Finger	89,Middle Finger	700.0	900.0	2050.0	1850.0	0.0	0.0	900.0	n/a	stop_stim
154431.44464809995	759.55535189999989	n/a	1049	89	2750	759.5553519	stim	stop-signal	264	725771	0.0-13.31-1.31	beast_fmri_test	386	723578,/,724259,/,724939,/,725618,/,726298,/	t,t,t,t,t	<img class = center src='/static/experiments/beast_fmri_test/images/P.png'></img>	71,89	2750.0	test	<img class = center src='/static/experiments/beast_fmri_test/images/redP.png'></img>	stop	1850.0	2.0	31.0	stop	non-target	P	71,Index Finger	89,Middle Finger	700.0	900.0	2050.0	1850.0	0.0	0.0	900.0	n/a	ITI
156459	500	n/a	-1	-1	500	0.0	fixation	poldrack-single-stim	265	727039	0.0-13.32-0.32	beast_fmri_test	386	726979,/	t	<div class = centerbox2><div class = fixation>+</div></div>	none	500.0	test	n/a	n/a	n/a	n/a	n/a	n/a	n/a	n/a	n/a	n/a	n/a	n/a	n/a	n/a	n/a	n/a	n/a	n/a	fixation
156216.28648510005	2750	n/a	1059	89	2750	244.7135149	stim	stop-signal	266	729791	0.0-13.32-1.32	beast_fmri_test	386	727658,/,728338,/,729018,/,729698,/	t,t,t,t	<img class = center src='/static/experiments/beast_fmri_test/images/B.png'></img>	71,89	2750.0	test	<img class = center src='/static/experiments/beast_fmri_test/images/redB.png'></img>	go	1900.0	2.0	32.0	go	non-target	B	71,Index Finger	89,Middle Finger	700.0	850.0	2050.0	1900.0	1.0	n/a	850.0	1.0	go_stim
158966.28648510005	244.71351490000001	n/a	1059	89	2750	244.7135149	stim	stop-signal	266	729791	0.0-13.32-1.32	beast_fmri_test	386	727658,/,728338,/,729018,/,729698,/	t,t,t,t	<img class = center src='/static/experiments/beast_fmri_test/images/B.png'></img>	71,89	2750.0	test	<img class = center src='/static/experiments/beast_fmri_test/images/redB.png'></img>	go	1900.0	2.0	32.0	go	non-target	B	71,Index Finger	89,Middle Finger	700.0	850.0	2050.0	1900.0	1.0	n/a	850.0	1.0	ITI
159965	500	n/a	-1	-1	500	0.0	fixation	poldrack-single-stim	267	730545	0.0-13.33-0.33	beast_fmri_test	386	730380,/	t	<div class = centerbox2><div class = fixation>+</div></div>	none	500.0	test	n/a	n/a	n/a	n/a	n/a	n/a	n/a	n/a	n/a	n/a	n/a	n/a	n/a	n/a	n/a	n/a	n/a	n/a	fixation
159421.09125719999	850.0	n/a	-1	-1	2750	545.9087428	stim	stop-signal	268	733297	0.0-13.33-1.33	beast_fmri_test	386	731058,/,731739,/,732419,/,733099,/,733779,/	t,t,t,t,t	<img class = center src='/static/experiments/beast_fmri_test/images/B.png'></img>	71,89	2750.0	test	<img class = center src='/static/experiments/beast_fmri_test/images/redB.png'></img>	stop	1900.0	2.0	33.0	stop	non-target	B	71,Index Finger	89,Middle Finger	700.0	850.0	2050.0	1900.0	0.0	1.0	850.0	n/a	go_stim
161321.09125719999	1900.0	n/a	-1	-1	2750	545.9087428	stim	stop-signal	268	733297	0.0-13.33-1.33	beast_fmri_test	386	731058,/,731739,/,732419,/,733099,/,733779,/	t,t,t,t,t	<img class = center src='/static/experiments/beast_fmri_test/images/B.png'></img>	71,89	2750.0	test	<img class = center src='/static/experiments/beast_fmri_test/images/redB.png'></img>	stop	1900.0	2.0	33.0	stop	non-target	B	71,Index Finger	89,Middle Finger	700.0	850.0	2050.0	1900.0	0.0	1.0	850.0	n/a	stop_stim
162171.09125719999	545.90874279999991	n/a	-1	-1	2750	545.9087428	stim	stop-signal	268	733297	0.0-13.33-1.33	beast_fmri_test	386	731058,/,731739,/,732419,/,733099,/,733779,/	t,t,t,t,t	<img class = center src='/static/experiments/beast_fmri_test/images/B.png'></img>	71,89	2750.0	test	<img class = center src='/static/experiments/beast_fmri_test/images/redB.png'></img>	stop	1900.0	2.0	33.0	stop	non-target	B	71,Index Finger	89,Middle Finger	700.0	850.0	2050.0	1900.0	0.0	1.0	850.0	n/a	ITI
163774	500	n/a	-1	-1	500	0.0	fixation	poldrack-single-stim	269	734354	0.0-13.34-0.34	beast_fmri_test	386	n/a	n/a	<div class = centerbox2><div class = fixation>+</div></div>	none	500.0	test	n/a	n/a	n/a	n/a	n/a	n/a	n/a	n/a	n/a	n/a	n/a	n/a	n/a	n/a	n/a	n/a	n/a	n/a	fixation
163669.42599230004	2750	n/a	1214	89	2750	107.5740077	stim	stop-signal	270	737107	0.0-13.34-1.34	beast_fmri_test	386	734459,/,735139,/,735819,/,736499,/,737179,/	t,t,t,t,t	<img class = center src='/static/experiments/beast_fmri_test/images/T.png'></img>	71,89	2750.0	test	<img class = center src='/static/experiments/beast_fmri_test/images/redT.png'></img>	go	1850.0	2.0	34.0	go	non-target	T	71,Index Finger	89,Middle Finger	700.0	900.0	2050.0	1850.0	1.0	n/a	900.0	1.0	go_stim
166419.42599230004	107.57400770000001	n/a	1214	89	2750	107.5740077	stim	stop-signal	270	737107	0.0-13.34-1.34	beast_fmri_test	386	734459,/,735139,/,735819,/,736499,/,737179,/	t,t,t,t,t	<img class = center src='/static/experiments/beast_fmri_test/images/T.png'></img>	71,89	2750.0	test	<img class = center src='/static/experiments/beast_fmri_test/images/redT.png'></img>	go	1850.0	2.0	34.0	go	non-target	T	71,Index Finger	89,Middle Finger	700.0	900.0	2050.0	1850.0	1.0	n/a	900.0	1.0	ITI
167145	500	n/a	-1	-1	500	0.0	fixation	poldrack-single-stim	271	737725	0.0-13.35-0.35	beast_fmri_test	386	n/a	n/a	<div class = centerbox2><div class = fixation>+</div></div>	none	500.0	test	n/a	n/a	n/a	n/a	n/a	n/a	n/a	n/a	n/a	n/a	n/a	n/a	n/a	n/a	n/a	n/a	n/a	n/a	fixation
166938.1661424	700.0	n/a	-1	-1	2750	207.8338576	stim	stop-signal	272	740476	0.0-13.35-1.35	beast_fmri_test	386	737859,/,738539,/,739219,/,739899,/,740579,/	t,t,t,t,t	<img class = center src='/static/experiments/beast_fmri_test/images/B.png'></img>	71,89	2750.0	test	<img class = center src='/static/experiments/beast_fmri_test/images/redB.png'></img>	stop	2050.0	2.0	35.0	stop	target	B	71,Index Finger	89,Middle Finger	700.0	900.0	2050.0	1850.0	0.0	1.0	700.0	n/a	go_stim
168988.1661424	2050.0	n/a	-1	-1	2750	207.8338576	stim	stop-signal	272	740476	0.0-13.35-1.35	beast_fmri_test	386	737859,/,738539,/,739219,/,739899,/,740579,/	t,t,t,t,t	<img class = center src='/static/experiments/beast_fmri_test/images/B.png'></img>	71,89	2750.0	test	<img class = center src='/static/experiments/beast_fmri_test/images/redB.png'></img>	stop	2050.0	2.0	35.0	stop	target	B	71,Index Finger	89,Middle Finger	700.0	900.0	2050.0	1850.0	0.0	1.0	700.0	n/a	stop_stim
169688.1661424	207.83385759999999	n/a	-1	-1	2750	207.8338576	stim	stop-signal	272	740476	0.0-13.35-1.35	beast_fmri_test	386	737859,/,738539,/,739219,/,739899,/,740579,/	t,t,t,t,t	<img class = center src='/static/experiments/beast_fmri_test/images/B.png'></img>	71,89	2750.0	test	<img class = center src='/static/experiments/beast_fmri_test/images/redB.png'></img>	stop	2050.0	2.0	35.0	stop	target	B	71,Index Finger	89,Middle Finger	700.0	900.0	2050.0	1850.0	0.0	1.0	700.0	n/a	ITI
170614	500	n/a	-1	-1	500	0.0	fixation	poldrack-single-stim	273	741194	0.0-13.36-0.36	beast_fmri_test	386	n/a	n/a	<div class = centerbox2><div class = fixation>+</div></div>	none	500.0	test	n/a	n/a	n/a	n/a	n/a	n/a	n/a	n/a	n/a	n/a	n/a	n/a	n/a	n/a	n/a	n/a	n/a	n/a	fixation
169054.18980299996	900.0	n/a	1070	89	2750	1562.810197	stim	stop-signal	274	743947	0.0-13.36-1.36	beast_fmri_test	386	741259,/,741939,/,742619,/,743299,/,743979,/,744659,/,745339,/	t,t,t,t,t,t,t	<img class = center src='/static/experiments/beast_fmri_test/images/D.png'></img>	71,89	2750.0	test	<img class = center src='/static/experiments/beast_fmri_test/images/redD.png'></img>	stop	1850.0	2.0	36.0	stop	non-target	D	71,Index Finger	89,Middle Finger	750.0	900.0	2050.0	1850.0	0.0	0.0	900.0	n/a	go_stim
170904.18980299996	1850.0	n/a	1070	89	2750	1562.810197	stim	stop-signal	274	743947	0.0-13.36-1.36	beast_fmri_test	386	741259,/,741939,/,742619,/,743299,/,743979,/,744659,/,745339,/	t,t,t,t,t,t,t	<img class = center src='/static/experiments/beast_fmri_test/images/D.png'></img>	71,89	2750.0	test	<img class = center src='/static/experiments/beast_fmri_test/images/redD.png'></img>	stop	1850.0	2.0	36.0	stop	non-target	D	71,Index Finger	89,Middle Finger	750.0	900.0	2050.0	1850.0	0.0	0.0	900.0	n/a	stop_stim
171804.18980299996	1562.810197	n/a	1070	89	2750	1562.810197	stim	stop-signal	274	743947	0.0-13.36-1.36	beast_fmri_test	386	741259,/,741939,/,742619,/,743299,/,743979,/,744659,/,745339,/	t,t,t,t,t,t,t	<img class = center src='/static/experiments/beast_fmri_test/images/D.png'></img>	71,89	2750.0	test	<img class = center src='/static/experiments/beast_fmri_test/images/redD.png'></img>	stop	1850.0	2.0	36.0	stop	non-target	D	71,Index Finger	89,Middle Finger	750.0	900.0	2050.0	1850.0	0.0	0.0	900.0	n/a	ITI
175437	500	n/a	-1	-1	500	0.0	fixation	poldrack-single-stim	275	746017	0.0-13.37-0.37	beast_fmri_test	386	n/a	n/a	<div class = centerbox2><div class = fixation>+</div></div>	none	500.0	test	n/a	n/a	n/a	n/a	n/a	n/a	n/a	n/a	n/a	n/a	n/a	n/a	n/a	n/a	n/a	n/a	n/a	n/a	fixation
174732.24103649997	2750	n/a	909	89	2750	707.7589635	stim	stop-signal	276	748770	0.0-13.37-1.37	beast_fmri_test	386	746019,/,746699,/,747379,/,748059,/,748739,/,749419,/	t,t,t,t,t,t	<img class = center src='/static/experiments/beast_fmri_test/images/P.png'></img>	71,89	2750.0	test	<img class = center src='/static/experiments/beast_fmri_test/images/redP.png'></img>	go	1900.0	2.0	37.0	go	non-target	P	71,Index Finger	89,Middle Finger	750.0	850.0	2050.0	1900.0	1.0	n/a	850.0	1.0	go_stim
177482.24103649997	707.75896349999994	n/a	909	89	2750	707.7589635	stim	stop-signal	276	748770	0.0-13.37-1.37	beast_fmri_test	386	746019,/,746699,/,747379,/,748059,/,748739,/,749419,/	t,t,t,t,t,t	<img class = center src='/static/experiments/beast_fmri_test/images/P.png'></img>	71,89	2750.0	test	<img class = center src='/static/experiments/beast_fmri_test/images/redP.png'></img>	go	1900.0	2.0	37.0	go	non-target	P	71,Index Finger	89,Middle Finger	750.0	850.0	2050.0	1900.0	1.0	n/a	850.0	1.0	ITI
179408	500	n/a	-1	-1	500	0.0	fixation	poldrack-single-stim	277	749988	0.0-13.38-0.38	beast_fmri_test	386	n/a	n/a	<div class = centerbox2><div class = fixation>+</div></div>	none	500.0	test	n/a	n/a	n/a	n/a	n/a	n/a	n/a	n/a	n/a	n/a	n/a	n/a	n/a	n/a	n/a	n/a	n/a	n/a	fixation
178580.82660579996	850.0	n/a	-1	-1	2750	829.1733942	stim	stop-signal	278	752740	0.0-13.38-1.38	beast_fmri_test	386	750099,/,750780,/,751459,/,752139,/,752819,/,753498,/	t,t,t,t,t,t	<img class = center src='/static/experiments/beast_fmri_test/images/P.png'></img>	71,89	2750.0	test	<img class = center src='/static/experiments/beast_fmri_test/images/redP.png'></img>	stop	1900.0	2.0	38.0	stop	non-target	P	71,Index Finger	89,Middle Finger	750.0	850.0	2050.0	1900.0	0.0	1.0	850.0	n/a	go_stim
180480.82660579996	1900.0	n/a	-1	-1	2750	829.1733942	stim	stop-signal	278	752740	0.0-13.38-1.38	beast_fmri_test	386	750099,/,750780,/,751459,/,752139,/,752819,/,753498,/	t,t,t,t,t,t	<img class = center src='/static/experiments/beast_fmri_test/images/P.png'></img>	71,89	2750.0	test	<img class = center src='/static/experiments/beast_fmri_test/images/redP.png'></img>	stop	1900.0	2.0	38.0	stop	non-target	P	71,Index Finger	89,Middle Finger	750.0	850.0	2050.0	1900.0	0.0	1.0	850.0	n/a	stop_stim
181330.82660579996	829.17339420000008	n/a	-1	-1	2750	829.1733942	stim	stop-signal	278	752740	0.0-13.38-1.38	beast_fmri_test	386	750099,/,750780,/,751459,/,752139,/,752819,/,753498,/	t,t,t,t,t,t	<img class = center src='/static/experiments/beast_fmri_test/images/P.png'></img>	71,89	2750.0	test	<img class = center src='/static/experiments/beast_fmri_test/images/redP.png'></img>	stop	1900.0	2.0	38.0	stop	non-target	P	71,Index Finger	89,Middle Finger	750.0	850.0	2050.0	1900.0	0.0	1.0	850.0	n/a	ITI
183499	500	n/a	-1	-1	500	0.0	fixation	poldrack-single-stim	279	754079	0.0-13.39-0.39	beast_fmri_test	386	n/a	n/a	<div class = centerbox2><div class = fixation>+</div></div>	none	500.0	test	n/a	n/a	n/a	n/a	n/a	n/a	n/a	n/a	n/a	n/a	n/a	n/a	n/a	n/a	n/a	n/a	n/a	n/a	fixation
182376.58007999999	900.0	n/a	-1	-1	2750	1124.41992	stim	stop-signal	280	756831	0.0-13.39-1.39	beast_fmri_test	386	754178,/,754858,/,755538,/,756218,/,756899,/,757578,/	t,t,t,t,t,t	<img class = center src='/static/experiments/beast_fmri_test/images/V.png'></img>	71,89	2750.0	test	<img class = center src='/static/experiments/beast_fmri_test/images/redV.png'></img>	stop	1850.0	2.0	39.0	stop	non-target	V	71,Index Finger	89,Middle Finger	750.0	900.0	2050.0	1850.0	0.0	1.0	900.0	n/a	go_stim
184226.58007999999	1850.0	n/a	-1	-1	2750	1124.41992	stim	stop-signal	280	756831	0.0-13.39-1.39	beast_fmri_test	386	754178,/,754858,/,755538,/,756218,/,756899,/,757578,/	t,t,t,t,t,t	<img class = center src='/static/experiments/beast_fmri_test/images/V.png'></img>	71,89	2750.0	test	<img class = center src='/static/experiments/beast_fmri_test/images/redV.png'></img>	stop	1850.0	2.0	39.0	stop	non-target	V	71,Index Finger	89,Middle Finger	750.0	900.0	2050.0	1850.0	0.0	1.0	900.0	n/a	stop_stim
185126.58007999999	1124.4199199999998	n/a	-1	-1	2750	1124.41992	stim	stop-signal	280	756831	0.0-13.39-1.39	beast_fmri_test	386	754178,/,754858,/,755538,/,756218,/,756899,/,757578,/	t,t,t,t,t,t	<img class = center src='/static/experiments/beast_fmri_test/images/V.png'></img>	71,89	2750.0	test	<img class = center src='/static/experiments/beast_fmri_test/images/redV.png'></img>	stop	1850.0	2.0	39.0	stop	non-target	V	71,Index Finger	89,Middle Finger	750.0	900.0	2050.0	1850.0	0.0	1.0	900.0	n/a	ITI
187886	500	n/a	-1	-1	500	0.0	fixation	poldrack-single-stim	281	758466	0.0-13.40-0.40	beast_fmri_test	386	758259,/	t	<div class = centerbox2><div class = fixation>+</div></div>	none	500.0	test	n/a	n/a	n/a	n/a	n/a	n/a	n/a	n/a	n/a	n/a	n/a	n/a	n/a	n/a	n/a	n/a	n/a	n/a	fixation
187234.49852929998	2750	n/a	1326	89	2750	653.5014707	stim	stop-signal	282	761218	0.0-13.40-1.40	beast_fmri_test	386	758938,/,759618,/,760298,/,760980,/,761658,/	t,t,t,t,t	<img class = center src='/static/experiments/beast_fmri_test/images/T.png'></img>	71,89	2750.0	test	<img class = center src='/static/experiments/beast_fmri_test/images/redT.png'></img>	go	1800.0	2.0	40.0	go	non-target	T	71,Index Finger	89,Middle Finger	750.0	950.0	2050.0	1800.0	1.0	n/a	950.0	1.0	go_stim
189984.49852929998	653.50147070000003	n/a	1326	89	2750	653.5014707	stim	stop-signal	282	761218	0.0-13.40-1.40	beast_fmri_test	386	758938,/,759618,/,760298,/,760980,/,761658,/	t,t,t,t,t	<img class = center src='/static/experiments/beast_fmri_test/images/T.png'></img>	71,89	2750.0	test	<img class = center src='/static/experiments/beast_fmri_test/images/redT.png'></img>	go	1800.0	2.0	40.0	go	non-target	T	71,Index Finger	89,Middle Finger	750.0	950.0	2050.0	1800.0	1.0	n/a	950.0	1.0	ITI
191803	500	n/a	-1	-1	500	0.0	fixation	poldrack-single-stim	283	762383	0.0-13.41-0.41	beast_fmri_test	386	762338,/	t	<div class = centerbox2><div class = fixation>+</div></div>	none	500.0	test	n/a	n/a	n/a	n/a	n/a	n/a	n/a	n/a	n/a	n/a	n/a	n/a	n/a	n/a	n/a	n/a	n/a	n/a	fixation
189407.70935300004	2750	n/a	1048	89	2750	2397.290647	stim	stop-signal	284	765135	0.0-13.41-1.41	beast_fmri_test	386	763018,/,763698,/,764378,/,765059,/,765739,/,766419,/,767099,/	t,t,t,t,t,t,t	<img class = center src='/static/experiments/beast_fmri_test/images/D.png'></img>	71,89	2750.0	test	<img class = center src='/static/experiments/beast_fmri_test/images/redD.png'></img>	go	1800.0	2.0	41.0	go	non-target	D	71,Index Finger	89,Middle Finger	750.0	950.0	2050.0	1800.0	1.0	n/a	950.0	1.0	go_stim
192157.70935300004	2397.2906469999998	n/a	1048	89	2750	2397.290647	stim	stop-signal	284	765135	0.0-13.41-1.41	beast_fmri_test	386	763018,/,763698,/,764378,/,765059,/,765739,/,766419,/,767099,/	t,t,t,t,t,t,t	<img class = center src='/static/experiments/beast_fmri_test/images/D.png'></img>	71,89	2750.0	test	<img class = center src='/static/experiments/beast_fmri_test/images/redD.png'></img>	go	1800.0	2.0	41.0	go	non-target	D	71,Index Finger	89,Middle Finger	750.0	950.0	2050.0	1800.0	1.0	n/a	950.0	1.0	ITI
197464	500	n/a	-1	-1	500	0.0	fixation	poldrack-single-stim	285	768044	0.0-13.42-0.42	beast_fmri_test	386	767779,/	t	<div class = centerbox2><div class = fixation>+</div></div>	none	500.0	test	n/a	n/a	n/a	n/a	n/a	n/a	n/a	n/a	n/a	n/a	n/a	n/a	n/a	n/a	n/a	n/a	n/a	n/a	fixation
197435.31305984	2750	n/a	918	89	2750	29.68694016	stim	stop-signal	286	770795	0.0-13.42-1.42	beast_fmri_test	386	768459,/,769139,/,769819,/,770499,/	t,t,t,t	<img class = center src='/static/experiments/beast_fmri_test/images/V.png'></img>	71,89	2750.0	test	<img class = center src='/static/experiments/beast_fmri_test/images/redV.png'></img>	go	1800.0	2.0	42.0	go	non-target	V	71,Index Finger	89,Middle Finger	750.0	950.0	2050.0	1800.0	1.0	n/a	950.0	1.0	go_stim
200185.31305984	29.686940159999999	n/a	918	89	2750	29.68694016	stim	stop-signal	286	770795	0.0-13.42-1.42	beast_fmri_test	386	768459,/,769139,/,769819,/,770499,/	t,t,t,t	<img class = center src='/static/experiments/beast_fmri_test/images/V.png'></img>	71,89	2750.0	test	<img class = center src='/static/experiments/beast_fmri_test/images/redV.png'></img>	go	1800.0	2.0	42.0	go	non-target	V	71,Index Finger	89,Middle Finger	750.0	950.0	2050.0	1800.0	1.0	n/a	950.0	1.0	ITI
200755	500	n/a	-1	-1	500	0.0	fixation	poldrack-single-stim	287	771335	0.0-13.43-0.43	beast_fmri_test	386	771180,/	t	<div class = centerbox2><div class = fixation>+</div></div>	none	500.0	test	n/a	n/a	n/a	n/a	n/a	n/a	n/a	n/a	n/a	n/a	n/a	n/a	n/a	n/a	n/a	n/a	n/a	n/a	fixation
200530.94611859997	2750	n/a	1207	71	2750	226.0538814	stim	stop-signal	288	774087	0.0-13.43-1.43	beast_fmri_test	386	771859,/,772539,/,773219,/,773899,/	t,t,t,t	<img class = center src='/static/experiments/beast_fmri_test/images/D.png'></img>	71,89	2750.0	test	<img class = center src='/static/experiments/beast_fmri_test/images/redD.png'></img>	go	2000.0	2.0	43.0	go	target	D	71,Index Finger	89,Middle Finger	750.0	950.0	2000.0	1800.0	1.0	n/a	750.0	1.0	go_stim
203280.94611859997	226.05388140000002	n/a	1207	71	2750	226.0538814	stim	stop-signal	288	774087	0.0-13.43-1.43	beast_fmri_test	386	771859,/,772539,/,773219,/,773899,/	t,t,t,t	<img class = center src='/static/experiments/beast_fmri_test/images/D.png'></img>	71,89	2750.0	test	<img class = center src='/static/experiments/beast_fmri_test/images/redD.png'></img>	go	2000.0	2.0	43.0	go	target	D	71,Index Finger	89,Middle Finger	750.0	950.0	2000.0	1800.0	1.0	n/a	750.0	1.0	ITI
204245	500	n/a	-1	-1	500	0.0	fixation	poldrack-single-stim	289	774825	0.0-13.44-0.44	beast_fmri_test	386	774579,/	t	<div class = centerbox2><div class = fixation>+</div></div>	none	500.0	test	n/a	n/a	n/a	n/a	n/a	n/a	n/a	n/a	n/a	n/a	n/a	n/a	n/a	n/a	n/a	n/a	n/a	n/a	fixation
203632.89395649999	2750	n/a	1275	71	2750	613.1060435	stim	stop-signal	290	777576	0.0-13.44-1.44	beast_fmri_test	386	775259,/,775939,/,776618,/,777299,/,777979,/	t,t,t,t,t	<img class = center src='/static/experiments/beast_fmri_test/images/V.png'></img>	71,89	2750.0	test	<img class = center src='/static/experiments/beast_fmri_test/images/redV.png'></img>	go	2000.0	2.0	44.0	go	target	V	71,Index Finger	89,Middle Finger	750.0	950.0	2000.0	1800.0	1.0	n/a	750.0	1.0	go_stim
206382.89395649999	613.10604349999994	n/a	1275	71	2750	613.1060435	stim	stop-signal	290	777576	0.0-13.44-1.44	beast_fmri_test	386	775259,/,775939,/,776618,/,777299,/,777979,/	t,t,t,t,t	<img class = center src='/static/experiments/beast_fmri_test/images/V.png'></img>	71,89	2750.0	test	<img class = center src='/static/experiments/beast_fmri_test/images/redV.png'></img>	go	2000.0	2.0	44.0	go	target	V	71,Index Finger	89,Middle Finger	750.0	950.0	2000.0	1800.0	1.0	n/a	750.0	1.0	ITI
208120	500	n/a	-1	-1	500	0.0	fixation	poldrack-single-stim	291	778700	0.0-13.45-0.45	beast_fmri_test	386	778658,/	t	<div class = centerbox2><div class = fixation>+</div></div>	none	500.0	test	n/a	n/a	n/a	n/a	n/a	n/a	n/a	n/a	n/a	n/a	n/a	n/a	n/a	n/a	n/a	n/a	n/a	n/a	fixation
207477.37321949995	950.0	n/a	1085	89	2750	643.6267805	stim	stop-signal	292	781451	0.0-13.45-1.45	beast_fmri_test	386	779339,/,780019,/,780699,/,781380,/,782058,/	t,t,t,t,t	<img class = center src='/static/experiments/beast_fmri_test/images/P.png'></img>	71,89	2750.0	test	<img class = center src='/static/experiments/beast_fmri_test/images/redP.png'></img>	stop	1800.0	2.0	45.0	stop	non-target	P	71,Index Finger	89,Middle Finger	750.0	950.0	2000.0	1800.0	0.0	0.0	950.0	n/a	go_stim
209277.37321949995	1800.0	n/a	1085	89	2750	643.6267805	stim	stop-signal	292	781451	0.0-13.45-1.45	beast_fmri_test	386	779339,/,780019,/,780699,/,781380,/,782058,/	t,t,t,t,t	<img class = center src='/static/experiments/beast_fmri_test/images/P.png'></img>	71,89	2750.0	test	<img class = center src='/static/experiments/beast_fmri_test/images/redP.png'></img>	stop	1800.0	2.0	45.0	stop	non-target	P	71,Index Finger	89,Middle Finger	750.0	950.0	2000.0	1800.0	0.0	0.0	950.0	n/a	stop_stim
210227.37321949995	643.6267805	n/a	1085	89	2750	643.6267805	stim	stop-signal	292	781451	0.0-13.45-1.45	beast_fmri_test	386	779339,/,780019,/,780699,/,781380,/,782058,/	t,t,t,t,t	<img class = center src='/static/experiments/beast_fmri_test/images/P.png'></img>	71,89	2750.0	test	<img class = center src='/static/experiments/beast_fmri_test/images/redP.png'></img>	stop	1800.0	2.0	45.0	stop	non-target	P	71,Index Finger	89,Middle Finger	750.0	950.0	2000.0	1800.0	0.0	0.0	950.0	n/a	ITI
212027	500	n/a	-1	-1	500	0.0	fixation	poldrack-single-stim	293	782607	0.0-13.46-0.46	beast_fmri_test	386	n/a	n/a	<div class = centerbox2><div class = fixation>+</div></div>	none	500.0	test	n/a	n/a	n/a	n/a	n/a	n/a	n/a	n/a	n/a	n/a	n/a	n/a	n/a	n/a	n/a	n/a	n/a	n/a	fixation
210736.52063699998	2750	n/a	1562	89	2750	1291.479363	stim	stop-signal	294	785358	0.0-13.46-1.46	beast_fmri_test	386	782739,/,783418,/,784099,/,784779,/,785458,/,786139,/	t,t,t,t,t,t	<img class = center src='/static/experiments/beast_fmri_test/images/B.png'></img>	71,89	2750.0	test	<img class = center src='/static/experiments/beast_fmri_test/images/redB.png'></img>	go	1850.0	2.0	46.0	go	non-target	B	71,Index Finger	89,Middle Finger	750.0	900.0	2000.0	1850.0	1.0	n/a	900.0	1.0	go_stim
213486.52063699998	1291.4793630000001	n/a	1562	89	2750	1291.479363	stim	stop-signal	294	785358	0.0-13.46-1.46	beast_fmri_test	386	782739,/,783418,/,784099,/,784779,/,785458,/,786139,/	t,t,t,t,t,t	<img class = center src='/static/experiments/beast_fmri_test/images/B.png'></img>	71,89	2750.0	test	<img class = center src='/static/experiments/beast_fmri_test/images/redB.png'></img>	go	1850.0	2.0	46.0	go	non-target	B	71,Index Finger	89,Middle Finger	750.0	900.0	2000.0	1850.0	1.0	n/a	900.0	1.0	ITI
231078	15000	n/a	-1	-1	15000	0.0	practice-no-stop-feedback	poldrack-single-stim	295	801658	0.0-14.0	beast_fmri_test	386	786819,/,787499,/,788179,/,788859,/,789538,/,790219,/,790899,/,791580,/,792258,/,792939,/,793619,/,794299,/,794978,/,795658,/,796339,/,797019,/,797698,/,798379,/,799058,/,799739,/,800420,/,801100,/	t,t,t,t,t,t,t,t,t,t,t,t,t,t,t,t,t,t,t,t,t,t	"<div class = ""centerbox2_2""><p class = ""block-text2"">Your delay is 3 trials.</p><p class = block-text2>Please wait for the scanner to start the block</p></div>"	77	15000.0	n/a	n/a	n/a	n/a	n/a	n/a	n/a	n/a	n/a	n/a	n/a	n/a	n/a	n/a	n/a	n/a	n/a	n/a	n/a	practice-no-stop-feedback
231580	500	n/a	-1	-1	500	0.0	fixation	poldrack-single-stim	296	802160	0.0-15.0-0.0	beast_fmri_test	386	801780,/	t	<div class = centerbox2><div class = fixation>+</div></div>	none	500.0	test	n/a	n/a	n/a	n/a	n/a	n/a	n/a	n/a	n/a	n/a	n/a	n/a	n/a	n/a	n/a	n/a	n/a	n/a	fixation
231114.94030250004	2750	n/a	911	89	2750	468.0596975	stim	stop-signal	297	804913	0.0-15.0-1.0	beast_fmri_test	386	802459,/,803139,/,803819,/,804499,/,805179,/	t,t,t,t,t	<img class = center src='/static/experiments/beast_fmri_test/images/T.png'></img>	71,89	2750.0	test	<img class = center src='/static/experiments/beast_fmri_test/images/redT.png'></img>	go	-1.0	3.0	0.0	go	temp-non-target	T	71,Index Finger	89,Middle Finger	750.0	900.0	2000.0	1850.0	0.0	n/a	n/a	n/a	go_stim
233864.94030250004	468.05969749999997	n/a	911	89	2750	468.0596975	stim	stop-signal	297	804913	0.0-15.0-1.0	beast_fmri_test	386	802459,/,803139,/,803819,/,804499,/,805179,/	t,t,t,t,t	<img class = center src='/static/experiments/beast_fmri_test/images/T.png'></img>	71,89	2750.0	test	<img class = center src='/static/experiments/beast_fmri_test/images/redT.png'></img>	go	-1.0	3.0	0.0	go	temp-non-target	T	71,Index Finger	89,Middle Finger	750.0	900.0	2000.0	1850.0	0.0	n/a	n/a	n/a	ITI
235313	500	n/a	-1	-1	500	0.0	fixation	poldrack-single-stim	298	805893	0.0-15.1-0.1	beast_fmri_test	386	805859,/	t	<div class = centerbox2><div class = fixation>+</div></div>	none	500.0	test	n/a	n/a	n/a	n/a	n/a	n/a	n/a	n/a	n/a	n/a	n/a	n/a	n/a	n/a	n/a	n/a	n/a	n/a	fixation
231179.541233	2750	n/a	731	89	2750	4136.458767	stim	stop-signal	299	808646	0.0-15.1-1.1	beast_fmri_test	386	806539,/,807219,/,807899,/,808578,/,809259,/,809939,/,810619,/,811299,/,811980,/,812658,/	t,t,t,t,t,t,t,t,t,t	<img class = center src='/static/experiments/beast_fmri_test/images/B.png'></img>	71,89	2750.0	test	<img class = center src='/static/experiments/beast_fmri_test/images/redB.png'></img>	go	-1.0	3.0	1.0	go	temp-non-target	B	71,Index Finger	89,Middle Finger	750.0	900.0	2000.0	1850.0	0.0	n/a	n/a	n/a	go_stim
233929.541233	4136.4587670000001	n/a	731	89	2750	4136.458767	stim	stop-signal	299	808646	0.0-15.1-1.1	beast_fmri_test	386	806539,/,807219,/,807899,/,808578,/,809259,/,809939,/,810619,/,811299,/,811980,/,812658,/	t,t,t,t,t,t,t,t,t,t	<img class = center src='/static/experiments/beast_fmri_test/images/B.png'></img>	71,89	2750.0	test	<img class = center src='/static/experiments/beast_fmri_test/images/redB.png'></img>	go	-1.0	3.0	1.0	go	temp-non-target	B	71,Index Finger	89,Middle Finger	750.0	900.0	2000.0	1850.0	0.0	n/a	n/a	n/a	ITI
242715	500	n/a	-1	-1	500	0.0	fixation	poldrack-single-stim	300	813295	0.0-15.2-0.2	beast_fmri_test	386	n/a	n/a	<div class = centerbox2><div class = fixation>+</div></div>	none	500.0	test	n/a	n/a	n/a	n/a	n/a	n/a	n/a	n/a	n/a	n/a	n/a	n/a	n/a	n/a	n/a	n/a	n/a	n/a	fixation
242429.54814660002	2750	n/a	556	89	2750	287.4518534	stim	stop-signal	301	816047	0.0-15.2-1.2	beast_fmri_test	386	813339,/,814019,/,814699,/,815379,/,816059,/	t,t,t,t,t	<img class = center src='/static/experiments/beast_fmri_test/images/V.png'></img>	71,89	2750.0	test	<img class = center src='/static/experiments/beast_fmri_test/images/redV.png'></img>	go	-1.0	3.0	2.0	go	temp-non-target	V	71,Index Finger	89,Middle Finger	750.0	900.0	2000.0	1850.0	0.0	n/a	n/a	n/a	go_stim
245179.54814660002	287.4518534	n/a	556	89	2750	287.4518534	stim	stop-signal	301	816047	0.0-15.2-1.2	beast_fmri_test	386	813339,/,814019,/,814699,/,815379,/,816059,/	t,t,t,t,t	<img class = center src='/static/experiments/beast_fmri_test/images/V.png'></img>	71,89	2750.0	test	<img class = center src='/static/experiments/beast_fmri_test/images/redV.png'></img>	go	-1.0	3.0	2.0	go	temp-non-target	V	71,Index Finger	89,Middle Finger	750.0	900.0	2000.0	1850.0	0.0	n/a	n/a	n/a	ITI
246266	500	n/a	-1	-1	500	0.0	fixation	poldrack-single-stim	302	816846	0.0-15.3-0.3	beast_fmri_test	386	816739,/	t	<div class = centerbox2><div class = fixation>+</div></div>	none	500.0	test	n/a	n/a	n/a	n/a	n/a	n/a	n/a	n/a	n/a	n/a	n/a	n/a	n/a	n/a	n/a	n/a	n/a	n/a	fixation
245464.75195890001	2750	n/a	1612	89	2750	803.2480411	stim	stop-signal	303	819598	0.0-15.3-1.3	beast_fmri_test	386	817418,/,818099,/,818779,/,819458,/,820139,/	t,t,t,t,t	<img class = center src='/static/experiments/beast_fmri_test/images/B.png'></img>	71,89	2750.0	test	<img class = center src='/static/experiments/beast_fmri_test/images/redB.png'></img>	go	1850.0	3.0	3.0	go	non-target	B	71,Index Finger	89,Middle Finger	750.0	900.0	2000.0	1850.0	1.0	n/a	900.0	1.0	go_stim
248214.75195890001	803.24804110000002	n/a	1612	89	2750	803.2480411	stim	stop-signal	303	819598	0.0-15.3-1.3	beast_fmri_test	386	817418,/,818099,/,818779,/,819458,/,820139,/	t,t,t,t,t	<img class = center src='/static/experiments/beast_fmri_test/images/B.png'></img>	71,89	2750.0	test	<img class = center src='/static/experiments/beast_fmri_test/images/redB.png'></img>	go	1850.0	3.0	3.0	go	non-target	B	71,Index Finger	89,Middle Finger	750.0	900.0	2000.0	1850.0	1.0	n/a	900.0	1.0	ITI
250330	500	n/a	-1	-1	500	0.0	fixation	poldrack-single-stim	304	820910	0.0-15.4-0.4	beast_fmri_test	386	820818,/	t	<div class = centerbox2><div class = fixation>+</div></div>	none	500.0	test	n/a	n/a	n/a	n/a	n/a	n/a	n/a	n/a	n/a	n/a	n/a	n/a	n/a	n/a	n/a	n/a	n/a	n/a	fixation
249481.40201289998	750.0	n/a	-1	-1	2750	850.5979871	stim	stop-signal	305	823662	0.0-15.4-1.4	beast_fmri_test	386	821498,/,822180,/,822858,/,823538,/,824219,/	t,t,t,t,t	<img class = center src='/static/experiments/beast_fmri_test/images/B.png'></img>	71,89	2750.0	test	<img class = center src='/static/experiments/beast_fmri_test/images/redB.png'></img>	stop	2000.0	3.0	4.0	stop	target	B	71,Index Finger	89,Middle Finger	750.0	900.0	2000.0	1850.0	0.0	1.0	750.0	n/a	go_stim
251481.40201289998	2000.0	n/a	-1	-1	2750	850.5979871	stim	stop-signal	305	823662	0.0-15.4-1.4	beast_fmri_test	386	821498,/,822180,/,822858,/,823538,/,824219,/	t,t,t,t,t	<img class = center src='/static/experiments/beast_fmri_test/images/B.png'></img>	71,89	2750.0	test	<img class = center src='/static/experiments/beast_fmri_test/images/redB.png'></img>	stop	2000.0	3.0	4.0	stop	target	B	71,Index Finger	89,Middle Finger	750.0	900.0	2000.0	1850.0	0.0	1.0	750.0	n/a	stop_stim
252231.40201289998	850.59798709999995	n/a	-1	-1	2750	850.5979871	stim	stop-signal	305	823662	0.0-15.4-1.4	beast_fmri_test	386	821498,/,822180,/,822858,/,823538,/,824219,/	t,t,t,t,t	<img class = center src='/static/experiments/beast_fmri_test/images/B.png'></img>	71,89	2750.0	test	<img class = center src='/static/experiments/beast_fmri_test/images/redB.png'></img>	stop	2000.0	3.0	4.0	stop	target	B	71,Index Finger	89,Middle Finger	750.0	900.0	2000.0	1850.0	0.0	1.0	750.0	n/a	ITI
254444	500	n/a	-1	-1	500	0.0	fixation	poldrack-single-stim	306	825024	0.0-15.5-0.5	beast_fmri_test	386	824898,/	t	<div class = centerbox2><div class = fixation>+</div></div>	none	500.0	test	n/a	n/a	n/a	n/a	n/a	n/a	n/a	n/a	n/a	n/a	n/a	n/a	n/a	n/a	n/a	n/a	n/a	n/a	fixation
253759.1412979	2750	n/a	1573	71	2750	686.8587021	stim	stop-signal	307	827776	0.0-15.5-1.5	beast_fmri_test	386	825579,/,826259,/,826938,/,827619,/,828298,/	t,t,t,t,t	<img class = center src='/static/experiments/beast_fmri_test/images/T.png'></img>	71,89	2750.0	test	<img class = center src='/static/experiments/beast_fmri_test/images/redT.png'></img>	go	1850.0	3.0	5.0	go	non-target	T	71,Index Finger	89,Middle Finger	800.0	900.0	2000.0	1850.0	0.0	n/a	900.0	0.0	go_stim
256509.1412979	686.85870210000007	n/a	1573	71	2750	686.8587021	stim	stop-signal	307	827776	0.0-15.5-1.5	beast_fmri_test	386	825579,/,826259,/,826938,/,827619,/,828298,/	t,t,t,t,t	<img class = center src='/static/experiments/beast_fmri_test/images/T.png'></img>	71,89	2750.0	test	<img class = center src='/static/experiments/beast_fmri_test/images/redT.png'></img>	go	1850.0	3.0	5.0	go	non-target	T	71,Index Finger	89,Middle Finger	800.0	900.0	2000.0	1850.0	0.0	n/a	900.0	0.0	ITI
258392	500	n/a	-1	-1	500	0.0	fixation	poldrack-single-stim	308	828972	0.0-15.6-0.6	beast_fmri_test	386	n/a	n/a	<div class = centerbox2><div class = fixation>+</div></div>	none	500.0	test	n/a	n/a	n/a	n/a	n/a	n/a	n/a	n/a	n/a	n/a	n/a	n/a	n/a	n/a	n/a	n/a	n/a	n/a	fixation
257563.96143639996	2750	n/a	-1	-1	2750	831.0385636	stim	stop-signal	309	831725	0.0-15.6-1.6	beast_fmri_test	386	828978,/,829658,/,830339,/,831019,/,831698,/,832380,/	t,t,t,t,t,t	<img class = center src='/static/experiments/beast_fmri_test/images/P.png'></img>	71,89	2750.0	test	<img class = center src='/static/experiments/beast_fmri_test/images/redP.png'></img>	go	1850.0	3.0	6.0	go	non-target	P	71,Index Finger	89,Middle Finger	800.0	900.0	2000.0	1850.0	0.0	n/a	900.0	0.0	go_stim
260313.96143639996	831.03856359999997	n/a	-1	-1	2750	831.0385636	stim	stop-signal	309	831725	0.0-15.6-1.6	beast_fmri_test	386	828978,/,829658,/,830339,/,831019,/,831698,/,832380,/	t,t,t,t,t,t	<img class = center src='/static/experiments/beast_fmri_test/images/P.png'></img>	71,89	2750.0	test	<img class = center src='/static/experiments/beast_fmri_test/images/redP.png'></img>	go	1850.0	3.0	6.0	go	non-target	P	71,Index Finger	89,Middle Finger	800.0	900.0	2000.0	1850.0	0.0	n/a	900.0	0.0	ITI
262487	500	n/a	-1	-1	500	0.0	fixation	poldrack-single-stim	310	833067	0.0-15.7-0.7	beast_fmri_test	386	833059,/	t	<div class = centerbox2><div class = fixation>+</div></div>	none	500.0	test	n/a	n/a	n/a	n/a	n/a	n/a	n/a	n/a	n/a	n/a	n/a	n/a	n/a	n/a	n/a	n/a	n/a	n/a	fixation
262285.92332059995	2750	n/a	1510	71	2750	203.0766794	stim	stop-signal	311	835819	0.0-15.7-1.7	beast_fmri_test	386	833740,/,834419,/,835099,/,835779,/	t,t,t,t	<img class = center src='/static/experiments/beast_fmri_test/images/B.png'></img>	71,89	2750.0	test	<img class = center src='/static/experiments/beast_fmri_test/images/redB.png'></img>	go	1950.0	3.0	7.0	go	target	B	71,Index Finger	89,Middle Finger	800.0	900.0	1950.0	1850.0	1.0	n/a	800.0	1.0	go_stim
265035.92332059995	203.07667939999999	n/a	1510	71	2750	203.0766794	stim	stop-signal	311	835819	0.0-15.7-1.7	beast_fmri_test	386	833740,/,834419,/,835099,/,835779,/	t,t,t,t	<img class = center src='/static/experiments/beast_fmri_test/images/B.png'></img>	71,89	2750.0	test	<img class = center src='/static/experiments/beast_fmri_test/images/redB.png'></img>	go	1950.0	3.0	7.0	go	target	B	71,Index Finger	89,Middle Finger	800.0	900.0	1950.0	1850.0	1.0	n/a	800.0	1.0	ITI
265955	500	n/a	-1	-1	500	0.0	fixation	poldrack-single-stim	312	836535	0.0-15.8-0.8	beast_fmri_test	386	836459,/	t	<div class = centerbox2><div class = fixation>+</div></div>	none	500.0	test	n/a	n/a	n/a	n/a	n/a	n/a	n/a	n/a	n/a	n/a	n/a	n/a	n/a	n/a	n/a	n/a	n/a	n/a	fixation
265439.01860229997	900.0	n/a	-1	-1	2750	516.9813977	stim	stop-signal	313	839286	0.0-15.8-1.8	beast_fmri_test	386	837139,/,837819,/,838500,/,839179,/	t,t,t,t	<img class = center src='/static/experiments/beast_fmri_test/images/P.png'></img>	71,89	2750.0	test	<img class = center src='/static/experiments/beast_fmri_test/images/redP.png'></img>	stop	1850.0	3.0	8.0	stop	non-target	P	71,Index Finger	89,Middle Finger	800.0	900.0	1950.0	1850.0	0.0	1.0	900.0	n/a	go_stim
267289.01860229997	1850.0	n/a	-1	-1	2750	516.9813977	stim	stop-signal	313	839286	0.0-15.8-1.8	beast_fmri_test	386	837139,/,837819,/,838500,/,839179,/	t,t,t,t	<img class = center src='/static/experiments/beast_fmri_test/images/P.png'></img>	71,89	2750.0	test	<img class = center src='/static/experiments/beast_fmri_test/images/redP.png'></img>	stop	1850.0	3.0	8.0	stop	non-target	P	71,Index Finger	89,Middle Finger	800.0	900.0	1950.0	1850.0	0.0	1.0	900.0	n/a	stop_stim
268189.01860229997	516.9813977	n/a	-1	-1	2750	516.9813977	stim	stop-signal	313	839286	0.0-15.8-1.8	beast_fmri_test	386	837139,/,837819,/,838500,/,839179,/	t,t,t,t	<img class = center src='/static/experiments/beast_fmri_test/images/P.png'></img>	71,89	2750.0	test	<img class = center src='/static/experiments/beast_fmri_test/images/redP.png'></img>	stop	1850.0	3.0	8.0	stop	non-target	P	71,Index Finger	89,Middle Finger	800.0	900.0	1950.0	1850.0	0.0	1.0	900.0	n/a	ITI
269734	500	n/a	-1	-1	500	0.0	fixation	poldrack-single-stim	314	840314	0.0-15.9-0.9	beast_fmri_test	386	839859,/	t	<div class = centerbox2><div class = fixation>+</div></div>	none	500.0	test	n/a	n/a	n/a	n/a	n/a	n/a	n/a	n/a	n/a	n/a	n/a	n/a	n/a	n/a	n/a	n/a	n/a	n/a	fixation
269070.30158830003	950.0	n/a	-1	-1	2750	665.6984117	stim	stop-signal	315	843066	0.0-15.9-1.9	beast_fmri_test	386	840539,/,841219,/,841899,/,842579,/,843259,/	t,t,t,t,t	<img class = center src='/static/experiments/beast_fmri_test/images/V.png'></img>	71,89	2750.0	test	<img class = center src='/static/experiments/beast_fmri_test/images/redV.png'></img>	stop	1800.0	3.0	9.0	stop	non-target	V	71,Index Finger	89,Middle Finger	800.0	950.0	1950.0	1800.0	0.0	1.0	950.0	n/a	go_stim
270870.30158830003	1800.0	n/a	-1	-1	2750	665.6984117	stim	stop-signal	315	843066	0.0-15.9-1.9	beast_fmri_test	386	840539,/,841219,/,841899,/,842579,/,843259,/	t,t,t,t,t	<img class = center src='/static/experiments/beast_fmri_test/images/V.png'></img>	71,89	2750.0	test	<img class = center src='/static/experiments/beast_fmri_test/images/redV.png'></img>	stop	1800.0	3.0	9.0	stop	non-target	V	71,Index Finger	89,Middle Finger	800.0	950.0	1950.0	1800.0	0.0	1.0	950.0	n/a	stop_stim
271820.30158830003	665.69841170000007	n/a	-1	-1	2750	665.6984117	stim	stop-signal	315	843066	0.0-15.9-1.9	beast_fmri_test	386	840539,/,841219,/,841899,/,842579,/,843259,/	t,t,t,t,t	<img class = center src='/static/experiments/beast_fmri_test/images/V.png'></img>	71,89	2750.0	test	<img class = center src='/static/experiments/beast_fmri_test/images/redV.png'></img>	stop	1800.0	3.0	9.0	stop	non-target	V	71,Index Finger	89,Middle Finger	800.0	950.0	1950.0	1800.0	0.0	1.0	950.0	n/a	ITI
273663	500	n/a	-1	-1	500	0.0	fixation	poldrack-single-stim	316	844243	0.0-15.10-0.10	beast_fmri_test	386	843939,/	t	<div class = centerbox2><div class = fixation>+</div></div>	none	500.0	test	n/a	n/a	n/a	n/a	n/a	n/a	n/a	n/a	n/a	n/a	n/a	n/a	n/a	n/a	n/a	n/a	n/a	n/a	fixation
272723.56958799995	1000.0	n/a	-1	-1	2750	941.430412	stim	stop-signal	317	846995	0.0-15.10-1.10	beast_fmri_test	386	844619,/,845299,/,845979,/,846659,/,847338,/	t,t,t,t,t	<img class = center src='/static/experiments/beast_fmri_test/images/D.png'></img>	71,89	2750.0	test	<img class = center src='/static/experiments/beast_fmri_test/images/redD.png'></img>	stop	1750.0	3.0	10.0	stop	non-target	D	71,Index Finger	89,Middle Finger	800.0	1000.0	1950.0	1750.0	0.0	1.0	1000.0	n/a	go_stim
274473.56958799995	1750.0	n/a	-1	-1	2750	941.430412	stim	stop-signal	317	846995	0.0-15.10-1.10	beast_fmri_test	386	844619,/,845299,/,845979,/,846659,/,847338,/	t,t,t,t,t	<img class = center src='/static/experiments/beast_fmri_test/images/D.png'></img>	71,89	2750.0	test	<img class = center src='/static/experiments/beast_fmri_test/images/redD.png'></img>	stop	1750.0	3.0	10.0	stop	non-target	D	71,Index Finger	89,Middle Finger	800.0	1000.0	1950.0	1750.0	0.0	1.0	1000.0	n/a	stop_stim
275473.56958799995	941.43041199999993	n/a	-1	-1	2750	941.430412	stim	stop-signal	317	846995	0.0-15.10-1.10	beast_fmri_test	386	844619,/,845299,/,845979,/,846659,/,847338,/	t,t,t,t,t	<img class = center src='/static/experiments/beast_fmri_test/images/D.png'></img>	71,89	2750.0	test	<img class = center src='/static/experiments/beast_fmri_test/images/redD.png'></img>	stop	1750.0	3.0	10.0	stop	non-target	D	71,Index Finger	89,Middle Finger	800.0	1000.0	1950.0	1750.0	0.0	1.0	1000.0	n/a	ITI
277867	500	n/a	-1	-1	500	0.0	fixation	poldrack-single-stim	318	848447	0.0-15.11-0.11	beast_fmri_test	386	848019,/	t	<div class = centerbox2><div class = fixation>+</div></div>	none	500.0	test	n/a	n/a	n/a	n/a	n/a	n/a	n/a	n/a	n/a	n/a	n/a	n/a	n/a	n/a	n/a	n/a	n/a	n/a	fixation
277840.85088758997	2750	n/a	893	71	2750	27.14911241	stim	stop-signal	319	851198	0.0-15.11-1.11	beast_fmri_test	386	848699,/,849379,/,850059,/,850739,/	t,t,t,t	<img class = center src='/static/experiments/beast_fmri_test/images/P.png'></img>	71,89	2750.0	test	<img class = center src='/static/experiments/beast_fmri_test/images/redP.png'></img>	go	1950.0	3.0	11.0	go	target	P	71,Index Finger	89,Middle Finger	800.0	1050.0	1950.0	1750.0	1.0	n/a	800.0	1.0	go_stim
280590.85088758997	27.149112410000001	n/a	893	71	2750	27.14911241	stim	stop-signal	319	851198	0.0-15.11-1.11	beast_fmri_test	386	848699,/,849379,/,850059,/,850739,/	t,t,t,t	<img class = center src='/static/experiments/beast_fmri_test/images/P.png'></img>	71,89	2750.0	test	<img class = center src='/static/experiments/beast_fmri_test/images/redP.png'></img>	go	1950.0	3.0	11.0	go	target	P	71,Index Finger	89,Middle Finger	800.0	1050.0	1950.0	1750.0	1.0	n/a	800.0	1.0	ITI
281158	500	n/a	-1	-1	500	0.0	fixation	poldrack-single-stim	320	851738	0.0-15.12-0.12	beast_fmri_test	386	851418,/	t	<div class = centerbox2><div class = fixation>+</div></div>	none	500.0	test	n/a	n/a	n/a	n/a	n/a	n/a	n/a	n/a	n/a	n/a	n/a	n/a	n/a	n/a	n/a	n/a	n/a	n/a	fixation
280655.32640400005	2750	n/a	1709	89	2750	504.673596	stim	stop-signal	321	854490	0.0-15.12-1.12	beast_fmri_test	386	852099,/,852780,/,853458,/,854139,/,854818,/	t,t,t,t,t	<img class = center src='/static/experiments/beast_fmri_test/images/B.png'></img>	71,89	2750.0	test	<img class = center src='/static/experiments/beast_fmri_test/images/redB.png'></img>	go	1700.0	3.0	12.0	go	non-target	B	71,Index Finger	89,Middle Finger	800.0	1050.0	1950.0	1700.0	1.0	n/a	1050.0	1.0	go_stim
283405.32640400005	504.67359599999997	n/a	1709	89	2750	504.673596	stim	stop-signal	321	854490	0.0-15.12-1.12	beast_fmri_test	386	852099,/,852780,/,853458,/,854139,/,854818,/	t,t,t,t,t	<img class = center src='/static/experiments/beast_fmri_test/images/B.png'></img>	71,89	2750.0	test	<img class = center src='/static/experiments/beast_fmri_test/images/redB.png'></img>	go	1700.0	3.0	12.0	go	non-target	B	71,Index Finger	89,Middle Finger	800.0	1050.0	1950.0	1700.0	1.0	n/a	1050.0	1.0	ITI
284927	500	n/a	-1	-1	500	0.0	fixation	poldrack-single-stim	322	855507	0.0-15.13-0.13	beast_fmri_test	386	855499,/	t	<div class = centerbox2><div class = fixation>+</div></div>	none	500.0	test	n/a	n/a	n/a	n/a	n/a	n/a	n/a	n/a	n/a	n/a	n/a	n/a	n/a	n/a	n/a	n/a	n/a	n/a	fixation
283874.13606299995	2750	n/a	989	71	2750	1054.863937	stim	stop-signal	323	858259	0.0-15.13-1.13	beast_fmri_test	386	856179,/,856859,/,857539,/,858219,/,858899,/	t,t,t,t,t	<img class = center src='/static/experiments/beast_fmri_test/images/D.png'></img>	71,89	2750.0	test	<img class = center src='/static/experiments/beast_fmri_test/images/redD.png'></img>	go	1950.0	3.0	13.0	go	target	D	71,Index Finger	89,Middle Finger	800.0	1050.0	1950.0	1700.0	1.0	n/a	800.0	1.0	go_stim
286624.13606299995	1054.8639369999999	n/a	989	71	2750	1054.863937	stim	stop-signal	323	858259	0.0-15.13-1.13	beast_fmri_test	386	856179,/,856859,/,857539,/,858219,/,858899,/	t,t,t,t,t	<img class = center src='/static/experiments/beast_fmri_test/images/D.png'></img>	71,89	2750.0	test	<img class = center src='/static/experiments/beast_fmri_test/images/redD.png'></img>	go	1950.0	3.0	13.0	go	target	D	71,Index Finger	89,Middle Finger	800.0	1050.0	1950.0	1700.0	1.0	n/a	800.0	1.0	ITI
289246	500	n/a	-1	-1	500	0.0	fixation	poldrack-single-stim	324	859826	0.0-15.14-0.14	beast_fmri_test	386	859578,/	t	<div class = centerbox2><div class = fixation>+</div></div>	none	500.0	test	n/a	n/a	n/a	n/a	n/a	n/a	n/a	n/a	n/a	n/a	n/a	n/a	n/a	n/a	n/a	n/a	n/a	n/a	fixation
289182.48902385996	1050.0	n/a	962	89	2750	65.51097614	stim	stop-signal	325	862578	0.0-15.14-1.14	beast_fmri_test	386	860259,/,860939,/,861618,/,862298,/	t,t,t,t	<img class = center src='/static/experiments/beast_fmri_test/images/T.png'></img>	71,89	2750.0	test	<img class = center src='/static/experiments/beast_fmri_test/images/redT.png'></img>	stop	1700.0	3.0	14.0	stop	non-target	T	71,Index Finger	89,Middle Finger	800.0	1050.0	1950.0	1700.0	0.0	0.0	1050.0	n/a	go_stim
290882.48902385996	1700.0	n/a	962	89	2750	65.51097614	stim	stop-signal	325	862578	0.0-15.14-1.14	beast_fmri_test	386	860259,/,860939,/,861618,/,862298,/	t,t,t,t	<img class = center src='/static/experiments/beast_fmri_test/images/T.png'></img>	71,89	2750.0	test	<img class = center src='/static/experiments/beast_fmri_test/images/redT.png'></img>	stop	1700.0	3.0	14.0	stop	non-target	T	71,Index Finger	89,Middle Finger	800.0	1050.0	1950.0	1700.0	0.0	0.0	1050.0	n/a	stop_stim
291932.48902385996	65.510976139999997	n/a	962	89	2750	65.51097614	stim	stop-signal	325	862578	0.0-15.14-1.14	beast_fmri_test	386	860259,/,860939,/,861618,/,862298,/	t,t,t,t	<img class = center src='/static/experiments/beast_fmri_test/images/T.png'></img>	71,89	2750.0	test	<img class = center src='/static/experiments/beast_fmri_test/images/redT.png'></img>	stop	1700.0	3.0	14.0	stop	non-target	T	71,Index Finger	89,Middle Finger	800.0	1050.0	1950.0	1700.0	0.0	0.0	1050.0	n/a	ITI
292574	500	n/a	-1	-1	500	0.0	fixation	poldrack-single-stim	326	863154	0.0-15.15-0.15	beast_fmri_test	386	862980,/	t	<div class = centerbox2><div class = fixation>+</div></div>	none	500.0	test	n/a	n/a	n/a	n/a	n/a	n/a	n/a	n/a	n/a	n/a	n/a	n/a	n/a	n/a	n/a	n/a	n/a	n/a	fixation
292083.43883560004	2750	n/a	1524	71	2750	492.5611644	stim	stop-signal	327	865906	0.0-15.15-1.15	beast_fmri_test	386	863659,/,864339,/,865019,/,865699,/,866379,/	t,t,t,t,t	<img class = center src='/static/experiments/beast_fmri_test/images/V.png'></img>	71,89	2750.0	test	<img class = center src='/static/experiments/beast_fmri_test/images/redV.png'></img>	go	1750.0	3.0	15.0	go	non-target	V	71,Index Finger	89,Middle Finger	800.0	1000.0	1950.0	1750.0	0.0	n/a	1000.0	0.0	go_stim
294833.43883560004	492.56116439999994	n/a	1524	71	2750	492.5611644	stim	stop-signal	327	865906	0.0-15.15-1.15	beast_fmri_test	386	863659,/,864339,/,865019,/,865699,/,866379,/	t,t,t,t,t	<img class = center src='/static/experiments/beast_fmri_test/images/V.png'></img>	71,89	2750.0	test	<img class = center src='/static/experiments/beast_fmri_test/images/redV.png'></img>	go	1750.0	3.0	15.0	go	non-target	V	71,Index Finger	89,Middle Finger	800.0	1000.0	1950.0	1750.0	0.0	n/a	1000.0	0.0	ITI
296330	500	n/a	-1	-1	500	0.0	fixation	poldrack-single-stim	328	866910	0.0-15.16-0.16	beast_fmri_test	386	n/a	n/a	<div class = centerbox2><div class = fixation>+</div></div>	none	500.0	test	n/a	n/a	n/a	n/a	n/a	n/a	n/a	n/a	n/a	n/a	n/a	n/a	n/a	n/a	n/a	n/a	n/a	n/a	fixation
296094.56980539998	1000.0	n/a	-1	-1	2750	237.4301946	stim	stop-signal	329	869662	0.0-15.16-1.16	beast_fmri_test	386	867059,/,867739,/,868419,/,869099,/,869779,/	t,t,t,t,t	<img class = center src='/static/experiments/beast_fmri_test/images/P.png'></img>	71,89	2750.0	test	<img class = center src='/static/experiments/beast_fmri_test/images/redP.png'></img>	stop	1750.0	3.0	16.0	stop	non-target	P	71,Index Finger	89,Middle Finger	800.0	1000.0	1950.0	1750.0	0.0	1.0	1000.0	n/a	go_stim
297844.56980539998	1750.0	n/a	-1	-1	2750	237.4301946	stim	stop-signal	329	869662	0.0-15.16-1.16	beast_fmri_test	386	867059,/,867739,/,868419,/,869099,/,869779,/	t,t,t,t,t	<img class = center src='/static/experiments/beast_fmri_test/images/P.png'></img>	71,89	2750.0	test	<img class = center src='/static/experiments/beast_fmri_test/images/redP.png'></img>	stop	1750.0	3.0	16.0	stop	non-target	P	71,Index Finger	89,Middle Finger	800.0	1000.0	1950.0	1750.0	0.0	1.0	1000.0	n/a	stop_stim
298844.56980539998	237.43019459999999	n/a	-1	-1	2750	237.4301946	stim	stop-signal	329	869662	0.0-15.16-1.16	beast_fmri_test	386	867059,/,867739,/,868419,/,869099,/,869779,/	t,t,t,t,t	<img class = center src='/static/experiments/beast_fmri_test/images/P.png'></img>	71,89	2750.0	test	<img class = center src='/static/experiments/beast_fmri_test/images/redP.png'></img>	stop	1750.0	3.0	16.0	stop	non-target	P	71,Index Finger	89,Middle Finger	800.0	1000.0	1950.0	1750.0	0.0	1.0	1000.0	n/a	ITI
299834	500	n/a	-1	-1	500	0.0	fixation	poldrack-single-stim	330	870414	0.0-15.17-0.17	beast_fmri_test	386	n/a	n/a	<div class = centerbox2><div class = fixation>+</div></div>	none	500.0	test	n/a	n/a	n/a	n/a	n/a	n/a	n/a	n/a	n/a	n/a	n/a	n/a	n/a	n/a	n/a	n/a	n/a	n/a	fixation
299766.17592329998	2750	n/a	1212	71	2750	69.8240767	stim	stop-signal	331	873166	0.0-15.17-1.17	beast_fmri_test	386	870459,/,871139,/,871819,/,872499,/,873180,/	t,t,t,t,t	<img class = center src='/static/experiments/beast_fmri_test/images/B.png'></img>	71,89	2750.0	test	<img class = center src='/static/experiments/beast_fmri_test/images/redB.png'></img>	go	1700.0	3.0	17.0	go	non-target	B	71,Index Finger	89,Middle Finger	800.0	1050.0	1950.0	1700.0	0.0	n/a	1050.0	0.0	go_stim
302516.17592329998	69.824076700000006	n/a	1212	71	2750	69.8240767	stim	stop-signal	331	873166	0.0-15.17-1.17	beast_fmri_test	386	870459,/,871139,/,871819,/,872499,/,873180,/	t,t,t,t,t	<img class = center src='/static/experiments/beast_fmri_test/images/B.png'></img>	71,89	2750.0	test	<img class = center src='/static/experiments/beast_fmri_test/images/redB.png'></img>	go	1700.0	3.0	17.0	go	non-target	B	71,Index Finger	89,Middle Finger	800.0	1050.0	1950.0	1700.0	0.0	n/a	1050.0	0.0	ITI
303164	500	n/a	-1	-1	500	0.0	fixation	poldrack-single-stim	332	873744	0.0-15.18-0.18	beast_fmri_test	386	n/a	n/a	<div class = centerbox2><div class = fixation>+</div></div>	none	500.0	test	n/a	n/a	n/a	n/a	n/a	n/a	n/a	n/a	n/a	n/a	n/a	n/a	n/a	n/a	n/a	n/a	n/a	n/a	fixation
301203.16746499995	2750	n/a	1691	71	2750	1961.832535	stim	stop-signal	333	876495	0.0-15.18-1.18	beast_fmri_test	386	873859,/,874539,/,875219,/,875899,/,876579,/,877259,/,877939,/	t,t,t,t,t,t,t	<img class = center src='/static/experiments/beast_fmri_test/images/V.png'></img>	71,89	2750.0	test	<img class = center src='/static/experiments/beast_fmri_test/images/redV.png'></img>	go	1950.0	3.0	18.0	go	target	V	71,Index Finger	89,Middle Finger	800.0	1050.0	1950.0	1700.0	1.0	n/a	800.0	1.0	go_stim
303953.16746499995	1961.8325350000002	n/a	1691	71	2750	1961.832535	stim	stop-signal	333	876495	0.0-15.18-1.18	beast_fmri_test	386	873859,/,874539,/,875219,/,875899,/,876579,/,877259,/,877939,/	t,t,t,t,t,t,t	<img class = center src='/static/experiments/beast_fmri_test/images/V.png'></img>	71,89	2750.0	test	<img class = center src='/static/experiments/beast_fmri_test/images/redV.png'></img>	go	1950.0	3.0	18.0	go	target	V	71,Index Finger	89,Middle Finger	800.0	1050.0	1950.0	1700.0	1.0	n/a	800.0	1.0	ITI
308387	500	n/a	-1	-1	500	0.0	fixation	poldrack-single-stim	334	878967	0.0-15.19-0.19	beast_fmri_test	386	878619,/	t	<div class = centerbox2><div class = fixation>+</div></div>	none	500.0	test	n/a	n/a	n/a	n/a	n/a	n/a	n/a	n/a	n/a	n/a	n/a	n/a	n/a	n/a	n/a	n/a	n/a	n/a	fixation
308165.97069860005	1050.0	n/a	1257	71	2750	223.0293014	stim	stop-signal	335	881719	0.0-15.19-1.19	beast_fmri_test	386	879299,/,879979,/,880659,/,881339,/	t,t,t,t	<img class = center src='/static/experiments/beast_fmri_test/images/T.png'></img>	71,89	2750.0	test	<img class = center src='/static/experiments/beast_fmri_test/images/redT.png'></img>	stop	1700.0	3.0	19.0	stop	non-target	T	71,Index Finger	89,Middle Finger	800.0	1050.0	1950.0	1700.0	0.0	0.0	1050.0	n/a	go_stim
309865.97069860005	1700.0	n/a	1257	71	2750	223.0293014	stim	stop-signal	335	881719	0.0-15.19-1.19	beast_fmri_test	386	879299,/,879979,/,880659,/,881339,/	t,t,t,t	<img class = center src='/static/experiments/beast_fmri_test/images/T.png'></img>	71,89	2750.0	test	<img class = center src='/static/experiments/beast_fmri_test/images/redT.png'></img>	stop	1700.0	3.0	19.0	stop	non-target	T	71,Index Finger	89,Middle Finger	800.0	1050.0	1950.0	1700.0	0.0	0.0	1050.0	n/a	stop_stim
310915.97069860005	223.02930140000001	n/a	1257	71	2750	223.0293014	stim	stop-signal	335	881719	0.0-15.19-1.19	beast_fmri_test	386	879299,/,879979,/,880659,/,881339,/	t,t,t,t	<img class = center src='/static/experiments/beast_fmri_test/images/T.png'></img>	71,89	2750.0	test	<img class = center src='/static/experiments/beast_fmri_test/images/redT.png'></img>	stop	1700.0	3.0	19.0	stop	non-target	T	71,Index Finger	89,Middle Finger	800.0	1050.0	1950.0	1700.0	0.0	0.0	1050.0	n/a	ITI
311875	500	n/a	-1	-1	500	0.0	fixation	poldrack-single-stim	336	882455	0.0-15.20-0.20	beast_fmri_test	386	882019,/	t	<div class = centerbox2><div class = fixation>+</div></div>	none	500.0	test	n/a	n/a	n/a	n/a	n/a	n/a	n/a	n/a	n/a	n/a	n/a	n/a	n/a	n/a	n/a	n/a	n/a	n/a	fixation
310782.05354500003	2750	n/a	1394	89	2750	1094.946455	stim	stop-signal	337	885207	0.0-15.20-1.20	beast_fmri_test	386	882699,/,883379,/,884059,/,884739,/,885419,/,886098,/	t,t,t,t,t,t	<img class = center src='/static/experiments/beast_fmri_test/images/V.png'></img>	71,89	2750.0	test	<img class = center src='/static/experiments/beast_fmri_test/images/redV.png'></img>	go	1750.0	3.0	20.0	go	non-target	V	71,Index Finger	89,Middle Finger	800.0	1000.0	1950.0	1750.0	1.0	n/a	1000.0	1.0	go_stim
313532.05354500003	1094.946455	n/a	1394	89	2750	1094.946455	stim	stop-signal	337	885207	0.0-15.20-1.20	beast_fmri_test	386	882699,/,883379,/,884059,/,884739,/,885419,/,886098,/	t,t,t,t,t,t	<img class = center src='/static/experiments/beast_fmri_test/images/V.png'></img>	71,89	2750.0	test	<img class = center src='/static/experiments/beast_fmri_test/images/redV.png'></img>	go	1750.0	3.0	20.0	go	non-target	V	71,Index Finger	89,Middle Finger	800.0	1000.0	1950.0	1750.0	1.0	n/a	1000.0	1.0	ITI
316235	500	n/a	-1	-1	500	0.0	fixation	poldrack-single-stim	338	886815	0.0-15.21-0.21	beast_fmri_test	386	886779,/	t	<div class = centerbox2><div class = fixation>+</div></div>	none	500.0	test	n/a	n/a	n/a	n/a	n/a	n/a	n/a	n/a	n/a	n/a	n/a	n/a	n/a	n/a	n/a	n/a	n/a	n/a	fixation
316174.57102777995	2750	n/a	1130	89	2750	62.42897222	stim	stop-signal	339	889567	0.0-15.21-1.21	beast_fmri_test	386	887459,/,888138,/,888818,/,889499,/	t,t,t,t	<img class = center src='/static/experiments/beast_fmri_test/images/T.png'></img>	71,89	2750.0	test	<img class = center src='/static/experiments/beast_fmri_test/images/redT.png'></img>	go	1750.0	3.0	21.0	go	non-target	T	71,Index Finger	89,Middle Finger	800.0	1000.0	1950.0	1750.0	1.0	n/a	1000.0	1.0	go_stim
318924.57102777995	62.428972219999999	n/a	1130	89	2750	62.42897222	stim	stop-signal	339	889567	0.0-15.21-1.21	beast_fmri_test	386	887459,/,888138,/,888818,/,889499,/	t,t,t,t	<img class = center src='/static/experiments/beast_fmri_test/images/T.png'></img>	71,89	2750.0	test	<img class = center src='/static/experiments/beast_fmri_test/images/redT.png'></img>	go	1750.0	3.0	21.0	go	non-target	T	71,Index Finger	89,Middle Finger	800.0	1000.0	1950.0	1750.0	1.0	n/a	1000.0	1.0	ITI
319560	500	n/a	-1	-1	500	0.0	fixation	poldrack-single-stim	340	890140	0.0-15.22-0.22	beast_fmri_test	386	n/a	n/a	<div class = centerbox2><div class = fixation>+</div></div>	none	500.0	test	n/a	n/a	n/a	n/a	n/a	n/a	n/a	n/a	n/a	n/a	n/a	n/a	n/a	n/a	n/a	n/a	n/a	n/a	fixation
319037.65691509994	2750	n/a	1142	71	2750	524.3430849	stim	stop-signal	341	892892	0.0-15.22-1.22	beast_fmri_test	386	890179,/,890859,/,891538,/,892218,/,892898,/	t,t,t,t,t	<img class = center src='/static/experiments/beast_fmri_test/images/T.png'></img>	71,89	2750.0	test	<img class = center src='/static/experiments/beast_fmri_test/images/redT.png'></img>	go	1950.0	3.0	22.0	go	target	T	71,Index Finger	89,Middle Finger	800.0	1000.0	1950.0	1750.0	1.0	n/a	800.0	1.0	go_stim
321787.65691509994	524.34308489999989	n/a	1142	71	2750	524.3430849	stim	stop-signal	341	892892	0.0-15.22-1.22	beast_fmri_test	386	890179,/,890859,/,891538,/,892218,/,892898,/	t,t,t,t,t	<img class = center src='/static/experiments/beast_fmri_test/images/T.png'></img>	71,89	2750.0	test	<img class = center src='/static/experiments/beast_fmri_test/images/redT.png'></img>	go	1950.0	3.0	22.0	go	target	T	71,Index Finger	89,Middle Finger	800.0	1000.0	1950.0	1750.0	1.0	n/a	800.0	1.0	ITI
