onset	duration	ttttttttttttttttttt	rt	key_press	block_duration	timing_post_trial	trial_id	trial_type	trial_index	time_elapsed	internal_node_id	exp_id	subject_id	trigger_times	triggers	stimulus	possible_responses	stim_duration	exp_stage	SS_stimulus	SS_trial_type	SS_duration	load	trial_num	stop_trial_type	adaptive_trial_type	stim	yes_response_key	no_response_key	SSD_target	SSD_non_target	SSTarget	SSNonTarget	go_acc	stop_acc	SS_delay	adaptive_acc	new_trial_type
test	10880	n/a	-1	-1	10880	0.0	practice-no-stop-feedback	poldrack-single-stim	6	84382	0.0-6.0	beast_fmri_test	386	73501,/,74180,/,74859,/,75540,/,76219,/,76899,/,77579,/,78259,/,78939,/,79619,/,80300,/,80980,/,81660,/,82340,/,83020,/,83700,/,84380,/	t,t,t,t,t,t,t,t,t,t,t,t,t,t,t,t,t	"<div class = ""centerbox2_2""><p class = ""block-text2"">Your delay is 2 trials.</p><p class = block-text2>Please wait for the scanner to start the block</p></div>"	77	10880.0	n/a	n/a	n/a	n/a	n/a	n/a	n/a	n/a	n/a	n/a	n/a	n/a	n/a	n/a	n/a	n/a	n/a	n/a	n/a	start_functional_block
11382	500	n/a	-1	-1	500	0.0	fixation	poldrack-single-stim	7	84883	0.0-7.0-0.0	beast_fmri_test	386	n/a	n/a	<div class = centerbox2><div class = fixation>+</div></div>	none	500.0	test	n/a	n/a	n/a	n/a	n/a	n/a	n/a	n/a	n/a	n/a	n/a	n/a	n/a	n/a	n/a	n/a	n/a	n/a	fixation
10243.049352000002	2750	n/a	790	89	2750	1142.950648	stim	stop-signal	8	87637	0.0-7.0-1.0	beast_fmri_test	386	85060,/,85739,/,86420,/,87100,/,87780,/,88460,/	t,t,t,t,t,t	<img class = center src='/static/experiments/beast_fmri_test/images/V.png'></img>	71,89	2750.0	test	<img class = center src='/static/experiments/beast_fmri_test/images/redV.png'></img>	go	-1.0	2.0	0.0	go	temp-non-target	V	71,Index Finger	89,Middle Finger	500.0	500.0	0.0	0.0	0.0	n/a	n/a	n/a	go_stim
12993.049352000002	1142.950648	n/a	790	89	2750	1142.950648	stim	stop-signal	8	87637	0.0-7.0-1.0	beast_fmri_test	386	85060,/,85739,/,86420,/,87100,/,87780,/,88460,/	t,t,t,t,t,t	<img class = center src='/static/experiments/beast_fmri_test/images/V.png'></img>	71,89	2750.0	test	<img class = center src='/static/experiments/beast_fmri_test/images/redV.png'></img>	go	-1.0	2.0	0.0	go	temp-non-target	V	71,Index Finger	89,Middle Finger	500.0	500.0	0.0	0.0	0.0	n/a	n/a	n/a	ITI
15783	500	n/a	-1	-1	500	0.0	fixation	poldrack-single-stim	9	89284	0.0-7.1-0.1	beast_fmri_test	386	89140,/	t	<div class = centerbox2><div class = fixation>+</div></div>	none	500.0	test	n/a	n/a	n/a	n/a	n/a	n/a	n/a	n/a	n/a	n/a	n/a	n/a	n/a	n/a	n/a	n/a	n/a	n/a	fixation
15114.680440600001	temp_go_duration	n/a	655	89	2750	669.3195594	stim	stop-signal	10	92035	0.0-7.1-1.1	beast_fmri_test	386	89819,/,90499,/,91180,/,91859,/,92539,/	t,t,t,t,t	<img class = center src='/static/experiments/beast_fmri_test/images/B.png'></img>	71,89	2750.0	test	<img class = center src='/static/experiments/beast_fmri_test/images/redB.png'></img>	stop	-1.0	2.0	1.0	stop	temp-non-target	B	71,Index Finger	89,Middle Finger	500.0	500.0	0.0	0.0	0.0	0.0	n/a	n/a	go_stim
temp-non-target	temp_stop_duration	n/a	655	89	2750	669.3195594	stim	stop-signal	10	92035	0.0-7.1-1.1	beast_fmri_test	386	89819,/,90499,/,91180,/,91859,/,92539,/	t,t,t,t,t	<img class = center src='/static/experiments/beast_fmri_test/images/B.png'></img>	71,89	2750.0	test	<img class = center src='/static/experiments/beast_fmri_test/images/redB.png'></img>	stop	-1.0	2.0	1.0	stop	temp-non-target	B	71,Index Finger	89,Middle Finger	500.0	500.0	0.0	0.0	0.0	0.0	n/a	n/a	stop_stim
17864.680440600001	669.3195594	n/a	655	89	2750	669.3195594	stim	stop-signal	10	92035	0.0-7.1-1.1	beast_fmri_test	386	89819,/,90499,/,91180,/,91859,/,92539,/	t,t,t,t,t	<img class = center src='/static/experiments/beast_fmri_test/images/B.png'></img>	71,89	2750.0	test	<img class = center src='/static/experiments/beast_fmri_test/images/redB.png'></img>	stop	-1.0	2.0	1.0	stop	temp-non-target	B	71,Index Finger	89,Middle Finger	500.0	500.0	0.0	0.0	0.0	0.0	n/a	n/a	ITI
19707	500	n/a	-1	-1	500	0.0	fixation	poldrack-single-stim	11	93208	0.0-7.2-0.2	beast_fmri_test	386	n/a	n/a	<div class = centerbox2><div class = fixation>+</div></div>	none	500.0	test	n/a	n/a	n/a	n/a	n/a	n/a	n/a	n/a	n/a	n/a	n/a	n/a	n/a	n/a	n/a	n/a	n/a	n/a	fixation
17740.107740000007	500.0	n/a	735	89	2750	1967.89226	stim	stop-signal	12	95959	0.0-7.2-1.2	beast_fmri_test	386	93219,/,93900,/,94579,/,95260,/,95939,/,96619,/,97300,/	t,t,t,t,t,t,t	<img class = center src='/static/experiments/beast_fmri_test/images/T.png'></img>	71,89	2750.0	test	<img class = center src='/static/experiments/beast_fmri_test/images/redT.png'></img>	stop	2250.0	2.0	2.0	stop	non-target	T	71,Index Finger	89,Middle Finger	500.0	500.0	0.0	2250.0	0.0	0.0	500.0	n/a	go_stim
19990.107740000007	2250.0	n/a	735	89	2750	1967.89226	stim	stop-signal	12	95959	0.0-7.2-1.2	beast_fmri_test	386	93219,/,93900,/,94579,/,95260,/,95939,/,96619,/,97300,/	t,t,t,t,t,t,t	<img class = center src='/static/experiments/beast_fmri_test/images/T.png'></img>	71,89	2750.0	test	<img class = center src='/static/experiments/beast_fmri_test/images/redT.png'></img>	stop	2250.0	2.0	2.0	stop	non-target	T	71,Index Finger	89,Middle Finger	500.0	500.0	0.0	2250.0	0.0	0.0	500.0	n/a	stop_stim
20490.107740000007	1967.8922600000001	n/a	735	89	2750	1967.89226	stim	stop-signal	12	95959	0.0-7.2-1.2	beast_fmri_test	386	93219,/,93900,/,94579,/,95260,/,95939,/,96619,/,97300,/	t,t,t,t,t,t,t	<img class = center src='/static/experiments/beast_fmri_test/images/T.png'></img>	71,89	2750.0	test	<img class = center src='/static/experiments/beast_fmri_test/images/redT.png'></img>	stop	2250.0	2.0	2.0	stop	non-target	T	71,Index Finger	89,Middle Finger	500.0	500.0	0.0	2250.0	0.0	0.0	500.0	n/a	ITI
24928	500	n/a	-1	-1	500	0.0	fixation	poldrack-single-stim	13	98429	0.0-7.3-0.3	beast_fmri_test	386	97979,/	t	<div class = centerbox2><div class = fixation>+</div></div>	none	500.0	test	n/a	n/a	n/a	n/a	n/a	n/a	n/a	n/a	n/a	n/a	n/a	n/a	n/a	n/a	n/a	n/a	n/a	n/a	fixation
23776.096653000001	2750	n/a	661	89	2750	1153.903347	stim	stop-signal	14	101181	0.0-7.3-1.3	beast_fmri_test	386	98659,/,99340,/,100019,/,100699,/,101379,/,102059,/	t,t,t,t,t,t	<img class = center src='/static/experiments/beast_fmri_test/images/P.png'></img>	71,89	2750.0	test	<img class = center src='/static/experiments/beast_fmri_test/images/redP.png'></img>	go	2300.0	2.0	3.0	go	non-target	P	71,Index Finger	89,Middle Finger	500.0	450.0	0.0	2300.0	1.0	n/a	450.0	1.0	go_stim
26526.096653000001	1153.9033470000002	n/a	661	89	2750	1153.903347	stim	stop-signal	14	101181	0.0-7.3-1.3	beast_fmri_test	386	98659,/,99340,/,100019,/,100699,/,101379,/,102059,/	t,t,t,t,t,t	<img class = center src='/static/experiments/beast_fmri_test/images/P.png'></img>	71,89	2750.0	test	<img class = center src='/static/experiments/beast_fmri_test/images/redP.png'></img>	go	2300.0	2.0	3.0	go	non-target	P	71,Index Finger	89,Middle Finger	500.0	450.0	0.0	2300.0	1.0	n/a	450.0	1.0	ITI
29336	500	n/a	-1	-1	500	0.0	fixation	poldrack-single-stim	15	102837	0.0-7.4-0.4	beast_fmri_test	386	102739,/	t	<div class = centerbox2><div class = fixation>+</div></div>	none	500.0	test	n/a	n/a	n/a	n/a	n/a	n/a	n/a	n/a	n/a	n/a	n/a	n/a	n/a	n/a	n/a	n/a	n/a	n/a	fixation
29188.100556799996	500.0	n/a	747	71	2750	149.8994432	stim	stop-signal	16	105589	0.0-7.4-1.4	beast_fmri_test	386	103419,/,104100,/,104779,/,105460,/	t,t,t,t	<img class = center src='/static/experiments/beast_fmri_test/images/T.png'></img>	71,89	2750.0	test	<img class = center src='/static/experiments/beast_fmri_test/images/redT.png'></img>	stop	2250.0	2.0	4.0	stop	target	T	71,Index Finger	89,Middle Finger	500.0	450.0	2250.0	2300.0	0.0	0.0	500.0	n/a	go_stim
31438.100556799996	2250.0	n/a	747	71	2750	149.8994432	stim	stop-signal	16	105589	0.0-7.4-1.4	beast_fmri_test	386	103419,/,104100,/,104779,/,105460,/	t,t,t,t	<img class = center src='/static/experiments/beast_fmri_test/images/T.png'></img>	71,89	2750.0	test	<img class = center src='/static/experiments/beast_fmri_test/images/redT.png'></img>	stop	2250.0	2.0	4.0	stop	target	T	71,Index Finger	89,Middle Finger	500.0	450.0	2250.0	2300.0	0.0	0.0	500.0	n/a	stop_stim
31938.100556799996	149.89944319999998	n/a	747	71	2750	149.8994432	stim	stop-signal	16	105589	0.0-7.4-1.4	beast_fmri_test	386	103419,/,104100,/,104779,/,105460,/	t,t,t,t	<img class = center src='/static/experiments/beast_fmri_test/images/T.png'></img>	71,89	2750.0	test	<img class = center src='/static/experiments/beast_fmri_test/images/redT.png'></img>	stop	2250.0	2.0	4.0	stop	target	T	71,Index Finger	89,Middle Finger	500.0	450.0	2250.0	2300.0	0.0	0.0	500.0	n/a	ITI
32740	500	n/a	-1	-1	500	0.0	fixation	poldrack-single-stim	17	106241	0.0-7.5-0.5	beast_fmri_test	386	106140,/	t	<div class = centerbox2><div class = fixation>+</div></div>	none	500.0	test	n/a	n/a	n/a	n/a	n/a	n/a	n/a	n/a	n/a	n/a	n/a	n/a	n/a	n/a	n/a	n/a	n/a	n/a	fixation
31844.456127900005	2750	n/a	981	89	2750	897.5438721	stim	stop-signal	18	108993	0.0-7.5-1.5	beast_fmri_test	386	106819,/,107499,/,108179,/,108859,/,109539,/	t,t,t,t,t	<img class = center src='/static/experiments/beast_fmri_test/images/D.png'></img>	71,89	2750.0	test	<img class = center src='/static/experiments/beast_fmri_test/images/redD.png'></img>	go	2300.0	2.0	5.0	go	non-target	D	71,Index Finger	89,Middle Finger	450.0	450.0	2250.0	2300.0	1.0	n/a	450.0	1.0	go_stim
34594.456127900005	897.54387210000004	n/a	981	89	2750	897.5438721	stim	stop-signal	18	108993	0.0-7.5-1.5	beast_fmri_test	386	106819,/,107499,/,108179,/,108859,/,109539,/	t,t,t,t,t	<img class = center src='/static/experiments/beast_fmri_test/images/D.png'></img>	71,89	2750.0	test	<img class = center src='/static/experiments/beast_fmri_test/images/redD.png'></img>	go	2300.0	2.0	5.0	go	non-target	D	71,Index Finger	89,Middle Finger	450.0	450.0	2250.0	2300.0	1.0	n/a	450.0	1.0	ITI
36891	500	n/a	-1	-1	500	0.0	fixation	poldrack-single-stim	19	110392	0.0-7.6-0.6	beast_fmri_test	386	110219,/	t	<div class = centerbox2><div class = fixation>+</div></div>	none	500.0	test	n/a	n/a	n/a	n/a	n/a	n/a	n/a	n/a	n/a	n/a	n/a	n/a	n/a	n/a	n/a	n/a	n/a	n/a	fixation
34593.371465999997	2750	n/a	955	71	2750	2298.628534	stim	stop-signal	20	113143	0.0-7.6-1.6	beast_fmri_test	386	110899,/,111579,/,112259,/,112939,/,113619,/,114300,/,114980,/	t,t,t,t,t,t,t	<img class = center src='/static/experiments/beast_fmri_test/images/T.png'></img>	71,89	2750.0	test	<img class = center src='/static/experiments/beast_fmri_test/images/redT.png'></img>	go	2300.0	2.0	6.0	go	target	T	71,Index Finger	89,Middle Finger	450.0	450.0	2300.0	2300.0	1.0	n/a	450.0	1.0	go_stim
37343.371465999997	2298.6285339999999	n/a	955	71	2750	2298.628534	stim	stop-signal	20	113143	0.0-7.6-1.6	beast_fmri_test	386	110899,/,111579,/,112259,/,112939,/,113619,/,114300,/,114980,/	t,t,t,t,t,t,t	<img class = center src='/static/experiments/beast_fmri_test/images/T.png'></img>	71,89	2750.0	test	<img class = center src='/static/experiments/beast_fmri_test/images/redT.png'></img>	go	2300.0	2.0	6.0	go	target	T	71,Index Finger	89,Middle Finger	450.0	450.0	2300.0	2300.0	1.0	n/a	450.0	1.0	ITI
42444	500	n/a	-1	-1	500	0.0	fixation	poldrack-single-stim	21	115945	0.0-7.7-0.7	beast_fmri_test	386	115660,/	t	<div class = centerbox2><div class = fixation>+</div></div>	none	500.0	test	n/a	n/a	n/a	n/a	n/a	n/a	n/a	n/a	n/a	n/a	n/a	n/a	n/a	n/a	n/a	n/a	n/a	n/a	fixation
42415.391095850006	2750	n/a	803	71	2750	30.60890415	stim	stop-signal	22	118697	0.0-7.7-1.7	beast_fmri_test	386	116340,/,117022,/,117700,/,118380,/	t,t,t,t	<img class = center src='/static/experiments/beast_fmri_test/images/D.png'></img>	71,89	2750.0	test	<img class = center src='/static/experiments/beast_fmri_test/images/redD.png'></img>	go	2300.0	2.0	7.0	go	target	D	71,Index Finger	89,Middle Finger	450.0	450.0	2300.0	2300.0	1.0	n/a	450.0	1.0	go_stim
45165.391095850006	30.608904150000001	n/a	803	71	2750	30.60890415	stim	stop-signal	22	118697	0.0-7.7-1.7	beast_fmri_test	386	116340,/,117022,/,117700,/,118380,/	t,t,t,t	<img class = center src='/static/experiments/beast_fmri_test/images/D.png'></img>	71,89	2750.0	test	<img class = center src='/static/experiments/beast_fmri_test/images/redD.png'></img>	go	2300.0	2.0	7.0	go	target	D	71,Index Finger	89,Middle Finger	450.0	450.0	2300.0	2300.0	1.0	n/a	450.0	1.0	ITI
45730	500	n/a	-1	-1	500	0.0	fixation	poldrack-single-stim	23	119231	0.0-7.8-0.8	beast_fmri_test	386	119060,/	t	<div class = centerbox2><div class = fixation>+</div></div>	none	500.0	test	n/a	n/a	n/a	n/a	n/a	n/a	n/a	n/a	n/a	n/a	n/a	n/a	n/a	n/a	n/a	n/a	n/a	n/a	fixation
45032.232608299993	2750	n/a	917	89	2750	699.7673917	stim	stop-signal	24	121983	0.0-7.8-1.8	beast_fmri_test	386	119740,/,120420,/,121100,/,121780,/,122460,/	t,t,t,t,t	<img class = center src='/static/experiments/beast_fmri_test/images/B.png'></img>	71,89	2750.0	test	<img class = center src='/static/experiments/beast_fmri_test/images/redB.png'></img>	go	2300.0	2.0	8.0	go	non-target	B	71,Index Finger	89,Middle Finger	450.0	450.0	2300.0	2300.0	1.0	n/a	450.0	1.0	go_stim
47782.232608299993	699.76739170000008	n/a	917	89	2750	699.7673917	stim	stop-signal	24	121983	0.0-7.8-1.8	beast_fmri_test	386	119740,/,120420,/,121100,/,121780,/,122460,/	t,t,t,t,t	<img class = center src='/static/experiments/beast_fmri_test/images/B.png'></img>	71,89	2750.0	test	<img class = center src='/static/experiments/beast_fmri_test/images/redB.png'></img>	go	2300.0	2.0	8.0	go	non-target	B	71,Index Finger	89,Middle Finger	450.0	450.0	2300.0	2300.0	1.0	n/a	450.0	1.0	ITI
49686	500	n/a	-1	-1	500	0.0	fixation	poldrack-single-stim	25	123187	0.0-7.9-0.9	beast_fmri_test	386	123140,/	t	<div class = centerbox2><div class = fixation>+</div></div>	none	500.0	test	n/a	n/a	n/a	n/a	n/a	n/a	n/a	n/a	n/a	n/a	n/a	n/a	n/a	n/a	n/a	n/a	n/a	n/a	fixation
45299.172844999994	2750	n/a	827	89	2750	4388.827155	stim	stop-signal	26	125939	0.0-7.9-1.9	beast_fmri_test	386	123820,/,124500,/,125180,/,125860,/,126540,/,127220,/,127900,/,128580,/,129260,/,129940,/	t,t,t,t,t,t,t,t,t,t	<img class = center src='/static/experiments/beast_fmri_test/images/T.png'></img>	71,89	2750.0	test	<img class = center src='/static/experiments/beast_fmri_test/images/redT.png'></img>	go	2300.0	2.0	9.0	go	non-target	T	71,Index Finger	89,Middle Finger	450.0	450.0	2300.0	2300.0	1.0	n/a	450.0	1.0	go_stim
48049.172844999994	4388.8271549999999	n/a	827	89	2750	4388.827155	stim	stop-signal	26	125939	0.0-7.9-1.9	beast_fmri_test	386	123820,/,124500,/,125180,/,125860,/,126540,/,127220,/,127900,/,128580,/,129260,/,129940,/	t,t,t,t,t,t,t,t,t,t	<img class = center src='/static/experiments/beast_fmri_test/images/T.png'></img>	71,89	2750.0	test	<img class = center src='/static/experiments/beast_fmri_test/images/redT.png'></img>	go	2300.0	2.0	9.0	go	non-target	T	71,Index Finger	89,Middle Finger	450.0	450.0	2300.0	2300.0	1.0	n/a	450.0	1.0	ITI
57330	500	n/a	-1	-1	500	0.0	fixation	poldrack-single-stim	27	130831	0.0-7.10-0.10	beast_fmri_test	386	130620,/	t	<div class = centerbox2><div class = fixation>+</div></div>	none	500.0	test	n/a	n/a	n/a	n/a	n/a	n/a	n/a	n/a	n/a	n/a	n/a	n/a	n/a	n/a	n/a	n/a	n/a	n/a	fixation
56144.034755000001	2750	n/a	795	71	2750	1187.965245	stim	stop-signal	28	133583	0.0-7.10-1.10	beast_fmri_test	386	131300,/,131979,/,132660,/,133340,/,134019,/,134701,/	t,t,t,t,t,t	<img class = center src='/static/experiments/beast_fmri_test/images/D.png'></img>	71,89	2750.0	test	<img class = center src='/static/experiments/beast_fmri_test/images/redD.png'></img>	go	2300.0	2.0	10.0	go	non-target	D	71,Index Finger	89,Middle Finger	450.0	450.0	2300.0	2300.0	0.0	n/a	450.0	0.0	go_stim
58894.034755000001	1187.9652449999999	n/a	795	71	2750	1187.965245	stim	stop-signal	28	133583	0.0-7.10-1.10	beast_fmri_test	386	131300,/,131979,/,132660,/,133340,/,134019,/,134701,/	t,t,t,t,t,t	<img class = center src='/static/experiments/beast_fmri_test/images/D.png'></img>	71,89	2750.0	test	<img class = center src='/static/experiments/beast_fmri_test/images/redD.png'></img>	go	2300.0	2.0	10.0	go	non-target	D	71,Index Finger	89,Middle Finger	450.0	450.0	2300.0	2300.0	0.0	n/a	450.0	0.0	ITI
61773	500	n/a	-1	-1	500	0.0	fixation	poldrack-single-stim	29	135274	0.0-7.11-0.11	beast_fmri_test	386	n/a	n/a	<div class = centerbox2><div class = fixation>+</div></div>	none	500.0	test	n/a	n/a	n/a	n/a	n/a	n/a	n/a	n/a	n/a	n/a	n/a	n/a	n/a	n/a	n/a	n/a	n/a	n/a	fixation
60748.598063999991	2750	n/a	766	71	2750	1026.401936	stim	stop-signal	30	138026	0.0-7.11-1.11	beast_fmri_test	386	135379,/,136059,/,136740,/,137419,/,138099,/,138779,/	t,t,t,t,t,t	<img class = center src='/static/experiments/beast_fmri_test/images/B.png'></img>	71,89	2750.0	test	<img class = center src='/static/experiments/beast_fmri_test/images/redB.png'></img>	go	2300.0	2.0	11.0	go	non-target	B	71,Index Finger	89,Middle Finger	450.0	450.0	2300.0	2300.0	0.0	n/a	450.0	0.0	go_stim
63498.598063999991	1026.401936	n/a	766	71	2750	1026.401936	stim	stop-signal	30	138026	0.0-7.11-1.11	beast_fmri_test	386	135379,/,136059,/,136740,/,137419,/,138099,/,138779,/	t,t,t,t,t,t	<img class = center src='/static/experiments/beast_fmri_test/images/B.png'></img>	71,89	2750.0	test	<img class = center src='/static/experiments/beast_fmri_test/images/redB.png'></img>	go	2300.0	2.0	11.0	go	non-target	B	71,Index Finger	89,Middle Finger	450.0	450.0	2300.0	2300.0	0.0	n/a	450.0	0.0	ITI
66055	500	n/a	-1	-1	500	0.0	fixation	poldrack-single-stim	31	139556	0.0-7.12-0.12	beast_fmri_test	386	139460,/	t	<div class = centerbox2><div class = fixation>+</div></div>	none	500.0	test	n/a	n/a	n/a	n/a	n/a	n/a	n/a	n/a	n/a	n/a	n/a	n/a	n/a	n/a	n/a	n/a	n/a	n/a	fixation
65035.495746000001	2750	n/a	675	89	2750	1021.504254	stim	stop-signal	32	142308	0.0-7.12-1.12	beast_fmri_test	386	140140,/,140820,/,141499,/,142179,/,142860,/	t,t,t,t,t	<img class = center src='/static/experiments/beast_fmri_test/images/P.png'></img>	71,89	2750.0	test	<img class = center src='/static/experiments/beast_fmri_test/images/redP.png'></img>	go	2300.0	2.0	12.0	go	non-target	P	71,Index Finger	89,Middle Finger	450.0	450.0	2300.0	2300.0	1.0	n/a	450.0	1.0	go_stim
67785.495746000001	1021.5042539999999	n/a	675	89	2750	1021.504254	stim	stop-signal	32	142308	0.0-7.12-1.12	beast_fmri_test	386	140140,/,140820,/,141499,/,142179,/,142860,/	t,t,t,t,t	<img class = center src='/static/experiments/beast_fmri_test/images/P.png'></img>	71,89	2750.0	test	<img class = center src='/static/experiments/beast_fmri_test/images/redP.png'></img>	go	2300.0	2.0	12.0	go	non-target	P	71,Index Finger	89,Middle Finger	450.0	450.0	2300.0	2300.0	1.0	n/a	450.0	1.0	ITI
70335	500	n/a	-1	-1	500	0.0	fixation	poldrack-single-stim	33	143836	0.0-7.13-0.13	beast_fmri_test	386	143539,/	t	<div class = centerbox2><div class = fixation>+</div></div>	none	500.0	test	n/a	n/a	n/a	n/a	n/a	n/a	n/a	n/a	n/a	n/a	n/a	n/a	n/a	n/a	n/a	n/a	n/a	n/a	fixation
69742.663609599986	2750	n/a	806	71	2750	594.3363904	stim	stop-signal	34	146588	0.0-7.13-1.13	beast_fmri_test	386	144220,/,144900,/,145579,/,146259,/,146939,/	t,t,t,t,t	<img class = center src='/static/experiments/beast_fmri_test/images/B.png'></img>	71,89	2750.0	test	<img class = center src='/static/experiments/beast_fmri_test/images/redB.png'></img>	go	2300.0	2.0	13.0	go	target	B	71,Index Finger	89,Middle Finger	450.0	450.0	2300.0	2300.0	1.0	n/a	450.0	1.0	go_stim
72492.663609599986	594.33639040000003	n/a	806	71	2750	594.3363904	stim	stop-signal	34	146588	0.0-7.13-1.13	beast_fmri_test	386	144220,/,144900,/,145579,/,146259,/,146939,/	t,t,t,t,t	<img class = center src='/static/experiments/beast_fmri_test/images/B.png'></img>	71,89	2750.0	test	<img class = center src='/static/experiments/beast_fmri_test/images/redB.png'></img>	go	2300.0	2.0	13.0	go	target	B	71,Index Finger	89,Middle Finger	450.0	450.0	2300.0	2300.0	1.0	n/a	450.0	1.0	ITI
74184	500	n/a	-1	-1	500	0.0	fixation	poldrack-single-stim	35	147685	0.0-7.14-0.14	beast_fmri_test	386	147619,/	t	<div class = centerbox2><div class = fixation>+</div></div>	none	500.0	test	n/a	n/a	n/a	n/a	n/a	n/a	n/a	n/a	n/a	n/a	n/a	n/a	n/a	n/a	n/a	n/a	n/a	n/a	fixation
73142.188823000004	450.0	n/a	802	89	2750	1043.811177	stim	stop-signal	36	150437	0.0-7.14-1.14	beast_fmri_test	386	148299,/,148979,/,149659,/,150339,/,151020,/	t,t,t,t,t	<img class = center src='/static/experiments/beast_fmri_test/images/V.png'></img>	71,89	2750.0	test	<img class = center src='/static/experiments/beast_fmri_test/images/redV.png'></img>	stop	2300.0	2.0	14.0	stop	non-target	V	71,Index Finger	89,Middle Finger	450.0	450.0	2300.0	2300.0	0.0	0.0	450.0	n/a	go_stim
75442.188823000004	2300.0	n/a	802	89	2750	1043.811177	stim	stop-signal	36	150437	0.0-7.14-1.14	beast_fmri_test	386	148299,/,148979,/,149659,/,150339,/,151020,/	t,t,t,t,t	<img class = center src='/static/experiments/beast_fmri_test/images/V.png'></img>	71,89	2750.0	test	<img class = center src='/static/experiments/beast_fmri_test/images/redV.png'></img>	stop	2300.0	2.0	14.0	stop	non-target	V	71,Index Finger	89,Middle Finger	450.0	450.0	2300.0	2300.0	0.0	0.0	450.0	n/a	stop_stim
75892.188823000004	1043.811177	n/a	802	89	2750	1043.811177	stim	stop-signal	36	150437	0.0-7.14-1.14	beast_fmri_test	386	148299,/,148979,/,149659,/,150339,/,151020,/	t,t,t,t,t	<img class = center src='/static/experiments/beast_fmri_test/images/V.png'></img>	71,89	2750.0	test	<img class = center src='/static/experiments/beast_fmri_test/images/redV.png'></img>	stop	2300.0	2.0	14.0	stop	non-target	V	71,Index Finger	89,Middle Finger	450.0	450.0	2300.0	2300.0	0.0	0.0	450.0	n/a	ITI
78485	500	n/a	-1	-1	500	0.0	fixation	poldrack-single-stim	37	151986	0.0-7.15-0.15	beast_fmri_test	386	151700,/	t	<div class = centerbox2><div class = fixation>+</div></div>	none	500.0	test	n/a	n/a	n/a	n/a	n/a	n/a	n/a	n/a	n/a	n/a	n/a	n/a	n/a	n/a	n/a	n/a	n/a	n/a	fixation
78444.826927329996	2750	n/a	980	71	2750	42.17307267	stim	stop-signal	38	154738	0.0-7.15-1.15	beast_fmri_test	386	152380,/,153060,/,153740,/,154420,/	t,t,t,t	<img class = center src='/static/experiments/beast_fmri_test/images/B.png'></img>	71,89	2750.0	test	<img class = center src='/static/experiments/beast_fmri_test/images/redB.png'></img>	go	2300.0	2.0	15.0	go	target	B	71,Index Finger	89,Middle Finger	450.0	400.0	2300.0	2300.0	1.0	n/a	450.0	1.0	go_stim
81194.826927329996	42.173072670000003	n/a	980	71	2750	42.17307267	stim	stop-signal	38	154738	0.0-7.15-1.15	beast_fmri_test	386	152380,/,153060,/,153740,/,154420,/	t,t,t,t	<img class = center src='/static/experiments/beast_fmri_test/images/B.png'></img>	71,89	2750.0	test	<img class = center src='/static/experiments/beast_fmri_test/images/redB.png'></img>	go	2300.0	2.0	15.0	go	target	B	71,Index Finger	89,Middle Finger	450.0	400.0	2300.0	2300.0	1.0	n/a	450.0	1.0	ITI
81783	500	n/a	-1	-1	500	0.0	fixation	poldrack-single-stim	39	155284	0.0-7.16-0.16	beast_fmri_test	386	155101,/	t	<div class = centerbox2><div class = fixation>+</div></div>	none	500.0	test	n/a	n/a	n/a	n/a	n/a	n/a	n/a	n/a	n/a	n/a	n/a	n/a	n/a	n/a	n/a	n/a	n/a	n/a	fixation
79901.656375999999	2750	n/a	1002	89	2750	1882.343624	stim	stop-signal	40	158035	0.0-7.16-1.16	beast_fmri_test	386	155780,/,156460,/,157140,/,157820,/,158500,/,159180,/,159860,/	t,t,t,t,t,t,t	<img class = center src='/static/experiments/beast_fmri_test/images/T.png'></img>	71,89	2750.0	test	<img class = center src='/static/experiments/beast_fmri_test/images/redT.png'></img>	go	2350.0	2.0	16.0	go	non-target	T	71,Index Finger	89,Middle Finger	450.0	400.0	2300.0	2350.0	1.0	n/a	400.0	1.0	go_stim
82651.656375999999	1882.3436239999999	n/a	1002	89	2750	1882.343624	stim	stop-signal	40	158035	0.0-7.16-1.16	beast_fmri_test	386	155780,/,156460,/,157140,/,157820,/,158500,/,159180,/,159860,/	t,t,t,t,t,t,t	<img class = center src='/static/experiments/beast_fmri_test/images/T.png'></img>	71,89	2750.0	test	<img class = center src='/static/experiments/beast_fmri_test/images/redT.png'></img>	go	2350.0	2.0	16.0	go	non-target	T	71,Index Finger	89,Middle Finger	450.0	400.0	2300.0	2350.0	1.0	n/a	400.0	1.0	ITI
86919	500	n/a	-1	-1	500	0.0	fixation	poldrack-single-stim	41	160420	0.0-7.17-0.17	beast_fmri_test	386	n/a	n/a	<div class = centerbox2><div class = fixation>+</div></div>	none	500.0	test	n/a	n/a	n/a	n/a	n/a	n/a	n/a	n/a	n/a	n/a	n/a	n/a	n/a	n/a	n/a	n/a	n/a	n/a	fixation
86378.869852300006	2750	n/a	698	71	2750	541.1301477	stim	stop-signal	42	163171	0.0-7.17-1.17	beast_fmri_test	386	160540,/,161220,/,161899,/,162579,/,163260,/	t,t,t,t,t	<img class = center src='/static/experiments/beast_fmri_test/images/B.png'></img>	71,89	2750.0	test	<img class = center src='/static/experiments/beast_fmri_test/images/redB.png'></img>	go	2300.0	2.0	17.0	go	target	B	71,Index Finger	89,Middle Finger	450.0	400.0	2300.0	2350.0	1.0	n/a	450.0	1.0	go_stim
89128.869852300006	541.13014770000007	n/a	698	71	2750	541.1301477	stim	stop-signal	42	163171	0.0-7.17-1.17	beast_fmri_test	386	160540,/,161220,/,161899,/,162579,/,163260,/	t,t,t,t,t	<img class = center src='/static/experiments/beast_fmri_test/images/B.png'></img>	71,89	2750.0	test	<img class = center src='/static/experiments/beast_fmri_test/images/redB.png'></img>	go	2300.0	2.0	17.0	go	target	B	71,Index Finger	89,Middle Finger	450.0	400.0	2300.0	2350.0	1.0	n/a	450.0	1.0	ITI
90716	500	n/a	-1	-1	500	0.0	fixation	poldrack-single-stim	43	164217	0.0-7.18-0.18	beast_fmri_test	386	163940,/	t	<div class = centerbox2><div class = fixation>+</div></div>	none	500.0	test	n/a	n/a	n/a	n/a	n/a	n/a	n/a	n/a	n/a	n/a	n/a	n/a	n/a	n/a	n/a	n/a	n/a	n/a	fixation
88854.392896000005	400.0	n/a	-1	-1	2750	1863.607104	stim	stop-signal	44	166969	0.0-7.18-1.18	beast_fmri_test	386	164620,/,165301,/,165979,/,166660,/,167340,/,168019,/,168700,/	t,t,t,t,t,t,t	<img class = center src='/static/experiments/beast_fmri_test/images/D.png'></img>	71,89	2750.0	test	<img class = center src='/static/experiments/beast_fmri_test/images/redD.png'></img>	stop	2350.0	2.0	18.0	stop	non-target	D	71,Index Finger	89,Middle Finger	450.0	400.0	2300.0	2350.0	0.0	1.0	400.0	n/a	go_stim
91204.392896000005	2350.0	n/a	-1	-1	2750	1863.607104	stim	stop-signal	44	166969	0.0-7.18-1.18	beast_fmri_test	386	164620,/,165301,/,165979,/,166660,/,167340,/,168019,/,168700,/	t,t,t,t,t,t,t	<img class = center src='/static/experiments/beast_fmri_test/images/D.png'></img>	71,89	2750.0	test	<img class = center src='/static/experiments/beast_fmri_test/images/redD.png'></img>	stop	2350.0	2.0	18.0	stop	non-target	D	71,Index Finger	89,Middle Finger	450.0	400.0	2300.0	2350.0	0.0	1.0	400.0	n/a	stop_stim
91604.392896000005	1863.6071039999999	n/a	-1	-1	2750	1863.607104	stim	stop-signal	44	166969	0.0-7.18-1.18	beast_fmri_test	386	164620,/,165301,/,165979,/,166660,/,167340,/,168019,/,168700,/	t,t,t,t,t,t,t	<img class = center src='/static/experiments/beast_fmri_test/images/D.png'></img>	71,89	2750.0	test	<img class = center src='/static/experiments/beast_fmri_test/images/redD.png'></img>	stop	2350.0	2.0	18.0	stop	non-target	D	71,Index Finger	89,Middle Finger	450.0	400.0	2300.0	2350.0	0.0	1.0	400.0	n/a	ITI
95836	500	n/a	-1	-1	500	0.0	fixation	poldrack-single-stim	45	169337	0.0-7.19-0.19	beast_fmri_test	386	n/a	n/a	<div class = centerbox2><div class = fixation>+</div></div>	none	500.0	test	n/a	n/a	n/a	n/a	n/a	n/a	n/a	n/a	n/a	n/a	n/a	n/a	n/a	n/a	n/a	n/a	n/a	n/a	fixation
95793.036562299996	450.0	n/a	-1	-1	2750	44.9634377	stim	stop-signal	46	172089	0.0-7.19-1.19	beast_fmri_test	386	169380,/,170060,/,170740,/,171420,/,172101,/	t,t,t,t,t	<img class = center src='/static/experiments/beast_fmri_test/images/B.png'></img>	71,89	2750.0	test	<img class = center src='/static/experiments/beast_fmri_test/images/redB.png'></img>	stop	2300.0	2.0	19.0	stop	target	B	71,Index Finger	89,Middle Finger	450.0	450.0	2300.0	2350.0	0.0	1.0	450.0	n/a	go_stim
98093.036562299996	2300.0	n/a	-1	-1	2750	44.9634377	stim	stop-signal	46	172089	0.0-7.19-1.19	beast_fmri_test	386	169380,/,170060,/,170740,/,171420,/,172101,/	t,t,t,t,t	<img class = center src='/static/experiments/beast_fmri_test/images/B.png'></img>	71,89	2750.0	test	<img class = center src='/static/experiments/beast_fmri_test/images/redB.png'></img>	stop	2300.0	2.0	19.0	stop	target	B	71,Index Finger	89,Middle Finger	450.0	450.0	2300.0	2350.0	0.0	1.0	450.0	n/a	stop_stim
98543.036562299996	44.963437700000007	n/a	-1	-1	2750	44.9634377	stim	stop-signal	46	172089	0.0-7.19-1.19	beast_fmri_test	386	169380,/,170060,/,170740,/,171420,/,172101,/	t,t,t,t,t	<img class = center src='/static/experiments/beast_fmri_test/images/B.png'></img>	71,89	2750.0	test	<img class = center src='/static/experiments/beast_fmri_test/images/redB.png'></img>	stop	2300.0	2.0	19.0	stop	target	B	71,Index Finger	89,Middle Finger	450.0	450.0	2300.0	2350.0	0.0	1.0	450.0	n/a	ITI
99137	500	n/a	-1	-1	500	0.0	fixation	poldrack-single-stim	47	172638	0.0-7.20-0.20	beast_fmri_test	386	n/a	n/a	<div class = centerbox2><div class = fixation>+</div></div>	none	500.0	test	n/a	n/a	n/a	n/a	n/a	n/a	n/a	n/a	n/a	n/a	n/a	n/a	n/a	n/a	n/a	n/a	n/a	n/a	fixation
98618.841207099991	450.0	n/a	-1	-1	2750	520.1587929	stim	stop-signal	48	175390	0.0-7.20-1.20	beast_fmri_test	386	172780,/,173460,/,174140,/,174820,/,175500,/	t,t,t,t,t	<img class = center src='/static/experiments/beast_fmri_test/images/T.png'></img>	71,89	2750.0	test	<img class = center src='/static/experiments/beast_fmri_test/images/redT.png'></img>	stop	2300.0	2.0	20.0	stop	non-target	T	71,Index Finger	89,Middle Finger	500.0	450.0	2300.0	2300.0	0.0	1.0	450.0	n/a	go_stim
100918.84120709999	2300.0	n/a	-1	-1	2750	520.1587929	stim	stop-signal	48	175390	0.0-7.20-1.20	beast_fmri_test	386	172780,/,173460,/,174140,/,174820,/,175500,/	t,t,t,t,t	<img class = center src='/static/experiments/beast_fmri_test/images/T.png'></img>	71,89	2750.0	test	<img class = center src='/static/experiments/beast_fmri_test/images/redT.png'></img>	stop	2300.0	2.0	20.0	stop	non-target	T	71,Index Finger	89,Middle Finger	500.0	450.0	2300.0	2300.0	0.0	1.0	450.0	n/a	stop_stim
101368.84120709999	520.15879289999998	n/a	-1	-1	2750	520.1587929	stim	stop-signal	48	175390	0.0-7.20-1.20	beast_fmri_test	386	172780,/,173460,/,174140,/,174820,/,175500,/	t,t,t,t,t	<img class = center src='/static/experiments/beast_fmri_test/images/T.png'></img>	71,89	2750.0	test	<img class = center src='/static/experiments/beast_fmri_test/images/redT.png'></img>	stop	2300.0	2.0	20.0	stop	non-target	T	71,Index Finger	89,Middle Finger	500.0	450.0	2300.0	2300.0	0.0	1.0	450.0	n/a	ITI
102913	500	n/a	-1	-1	500	0.0	fixation	poldrack-single-stim	49	176414	0.0-7.21-0.21	beast_fmri_test	386	176180,/	t	<div class = centerbox2><div class = fixation>+</div></div>	none	500.0	test	n/a	n/a	n/a	n/a	n/a	n/a	n/a	n/a	n/a	n/a	n/a	n/a	n/a	n/a	n/a	n/a	n/a	n/a	fixation
100962.90340000001	500.0	n/a	-1	-1	2750	1952.0966	stim	stop-signal	50	179166	0.0-7.21-1.21	beast_fmri_test	386	176860,/,177540,/,178220,/,178899,/,179579,/,180259,/,180939,/	t,t,t,t,t,t,t	<img class = center src='/static/experiments/beast_fmri_test/images/D.png'></img>	71,89	2750.0	test	<img class = center src='/static/experiments/beast_fmri_test/images/redD.png'></img>	stop	2250.0	2.0	21.0	stop	non-target	D	71,Index Finger	89,Middle Finger	500.0	500.0	2300.0	2250.0	0.0	1.0	500.0	n/a	go_stim
103212.90340000001	2250.0	n/a	-1	-1	2750	1952.0966	stim	stop-signal	50	179166	0.0-7.21-1.21	beast_fmri_test	386	176860,/,177540,/,178220,/,178899,/,179579,/,180259,/,180939,/	t,t,t,t,t,t,t	<img class = center src='/static/experiments/beast_fmri_test/images/D.png'></img>	71,89	2750.0	test	<img class = center src='/static/experiments/beast_fmri_test/images/redD.png'></img>	stop	2250.0	2.0	21.0	stop	non-target	D	71,Index Finger	89,Middle Finger	500.0	500.0	2300.0	2250.0	0.0	1.0	500.0	n/a	stop_stim
103712.90340000001	1952.0966000000001	n/a	-1	-1	2750	1952.0966	stim	stop-signal	50	179166	0.0-7.21-1.21	beast_fmri_test	386	176860,/,177540,/,178220,/,178899,/,179579,/,180259,/,180939,/	t,t,t,t,t,t,t	<img class = center src='/static/experiments/beast_fmri_test/images/D.png'></img>	71,89	2750.0	test	<img class = center src='/static/experiments/beast_fmri_test/images/redD.png'></img>	stop	2250.0	2.0	21.0	stop	non-target	D	71,Index Finger	89,Middle Finger	500.0	500.0	2300.0	2250.0	0.0	1.0	500.0	n/a	ITI
108123	500	n/a	-1	-1	500	0.0	fixation	poldrack-single-stim	51	181624	0.0-7.22-0.22	beast_fmri_test	386	181619,/	t	<div class = centerbox2><div class = fixation>+</div></div>	none	500.0	test	n/a	n/a	n/a	n/a	n/a	n/a	n/a	n/a	n/a	n/a	n/a	n/a	n/a	n/a	n/a	n/a	n/a	n/a	fixation
107527.2835477	2750	n/a	904	89	2750	597.7164523	stim	stop-signal	52	184376	0.0-7.22-1.22	beast_fmri_test	386	182299,/,182979,/,183659,/,184340,/	t,t,t,t	<img class = center src='/static/experiments/beast_fmri_test/images/P.png'></img>	71,89	2750.0	test	<img class = center src='/static/experiments/beast_fmri_test/images/redP.png'></img>	go	2200.0	2.0	22.0	go	non-target	P	71,Index Finger	89,Middle Finger	500.0	550.0	2300.0	2200.0	1.0	n/a	550.0	1.0	go_stim
110277.2835477	597.7164522999999	n/a	904	89	2750	597.7164523	stim	stop-signal	52	184376	0.0-7.22-1.22	beast_fmri_test	386	182299,/,182979,/,183659,/,184340,/	t,t,t,t	<img class = center src='/static/experiments/beast_fmri_test/images/P.png'></img>	71,89	2750.0	test	<img class = center src='/static/experiments/beast_fmri_test/images/redP.png'></img>	go	2200.0	2.0	22.0	go	non-target	P	71,Index Finger	89,Middle Finger	500.0	550.0	2300.0	2200.0	1.0	n/a	550.0	1.0	ITI
111977	500	n/a	-1	-1	500	0.0	fixation	poldrack-single-stim	53	185478	0.0-7.23-0.23	beast_fmri_test	386	185020,/	t	<div class = centerbox2><div class = fixation>+</div></div>	none	500.0	test	n/a	n/a	n/a	n/a	n/a	n/a	n/a	n/a	n/a	n/a	n/a	n/a	n/a	n/a	n/a	n/a	n/a	n/a	fixation
109123.41359899999	2750	n/a	860	89	2750	2855.586401	stim	stop-signal	54	188230	0.0-7.23-1.23	beast_fmri_test	386	185701,/,186380,/,187060,/,187740,/,188420,/,189100,/,189780,/,190459,/	t,t,t,t,t,t,t,t	<img class = center src='/static/experiments/beast_fmri_test/images/V.png'></img>	71,89	2750.0	test	<img class = center src='/static/experiments/beast_fmri_test/images/redV.png'></img>	go	2200.0	2.0	23.0	go	non-target	V	71,Index Finger	89,Middle Finger	500.0	550.0	2300.0	2200.0	1.0	n/a	550.0	1.0	go_stim
111873.41359899999	2855.586401	n/a	860	89	2750	2855.586401	stim	stop-signal	54	188230	0.0-7.23-1.23	beast_fmri_test	386	185701,/,186380,/,187060,/,187740,/,188420,/,189100,/,189780,/,190459,/	t,t,t,t,t,t,t,t	<img class = center src='/static/experiments/beast_fmri_test/images/V.png'></img>	71,89	2750.0	test	<img class = center src='/static/experiments/beast_fmri_test/images/redV.png'></img>	go	2200.0	2.0	23.0	go	non-target	V	71,Index Finger	89,Middle Finger	500.0	550.0	2300.0	2200.0	1.0	n/a	550.0	1.0	ITI
118089	500	n/a	-1	-1	500	0.0	fixation	poldrack-single-stim	55	191590	0.0-7.24-0.24	beast_fmri_test	386	191140,/	t	<div class = centerbox2><div class = fixation>+</div></div>	none	500.0	test	n/a	n/a	n/a	n/a	n/a	n/a	n/a	n/a	n/a	n/a	n/a	n/a	n/a	n/a	n/a	n/a	n/a	n/a	fixation
118026.54108179	2750	n/a	957	89	2750	64.45891821	stim	stop-signal	56	194342	0.0-7.24-1.24	beast_fmri_test	386	191820,/,192500,/,193180,/,193860,/	t,t,t,t	<img class = center src='/static/experiments/beast_fmri_test/images/B.png'></img>	71,89	2750.0	test	<img class = center src='/static/experiments/beast_fmri_test/images/redB.png'></img>	go	2200.0	2.0	24.0	go	non-target	B	71,Index Finger	89,Middle Finger	500.0	550.0	2300.0	2200.0	1.0	n/a	550.0	1.0	go_stim
120776.54108179	64.458918209999993	n/a	957	89	2750	64.45891821	stim	stop-signal	56	194342	0.0-7.24-1.24	beast_fmri_test	386	191820,/,192500,/,193180,/,193860,/	t,t,t,t	<img class = center src='/static/experiments/beast_fmri_test/images/B.png'></img>	71,89	2750.0	test	<img class = center src='/static/experiments/beast_fmri_test/images/redB.png'></img>	go	2200.0	2.0	24.0	go	non-target	B	71,Index Finger	89,Middle Finger	500.0	550.0	2300.0	2200.0	1.0	n/a	550.0	1.0	ITI
121410	500	n/a	-1	-1	500	0.0	fixation	poldrack-single-stim	57	194911	0.0-7.25-0.25	beast_fmri_test	386	194540,/	t	<div class = centerbox2><div class = fixation>+</div></div>	none	500.0	test	n/a	n/a	n/a	n/a	n/a	n/a	n/a	n/a	n/a	n/a	n/a	n/a	n/a	n/a	n/a	n/a	n/a	n/a	fixation
120058.37758199999	550.0	n/a	-1	-1	2750	1353.622418	stim	stop-signal	58	197663	0.0-7.25-1.25	beast_fmri_test	386	195221,/,195900,/,196580,/,197260,/,197939,/,198620,/	t,t,t,t,t,t	<img class = center src='/static/experiments/beast_fmri_test/images/B.png'></img>	71,89	2750.0	test	<img class = center src='/static/experiments/beast_fmri_test/images/redB.png'></img>	stop	2200.0	2.0	25.0	stop	non-target	B	71,Index Finger	89,Middle Finger	500.0	550.0	2300.0	2200.0	0.0	1.0	550.0	n/a	go_stim
122258.37758199999	2200.0	n/a	-1	-1	2750	1353.622418	stim	stop-signal	58	197663	0.0-7.25-1.25	beast_fmri_test	386	195221,/,195900,/,196580,/,197260,/,197939,/,198620,/	t,t,t,t,t,t	<img class = center src='/static/experiments/beast_fmri_test/images/B.png'></img>	71,89	2750.0	test	<img class = center src='/static/experiments/beast_fmri_test/images/redB.png'></img>	stop	2200.0	2.0	25.0	stop	non-target	B	71,Index Finger	89,Middle Finger	500.0	550.0	2300.0	2200.0	0.0	1.0	550.0	n/a	stop_stim
122808.37758199999	1353.6224179999999	n/a	-1	-1	2750	1353.622418	stim	stop-signal	58	197663	0.0-7.25-1.25	beast_fmri_test	386	195221,/,195900,/,196580,/,197260,/,197939,/,198620,/	t,t,t,t,t,t	<img class = center src='/static/experiments/beast_fmri_test/images/B.png'></img>	71,89	2750.0	test	<img class = center src='/static/experiments/beast_fmri_test/images/redB.png'></img>	stop	2200.0	2.0	25.0	stop	non-target	B	71,Index Finger	89,Middle Finger	500.0	550.0	2300.0	2200.0	0.0	1.0	550.0	n/a	ITI
126019	500	n/a	-1	-1	500	0.0	fixation	poldrack-single-stim	59	199520	0.0-7.26-0.26	beast_fmri_test	386	199300,/	t	<div class = centerbox2><div class = fixation>+</div></div>	none	500.0	test	n/a	n/a	n/a	n/a	n/a	n/a	n/a	n/a	n/a	n/a	n/a	n/a	n/a	n/a	n/a	n/a	n/a	n/a	fixation
125865.69000209999	2750	n/a	989	89	2750	155.3099979	stim	stop-signal	60	202272	0.0-7.26-1.26	beast_fmri_test	386	199980,/,200660,/,201340,/,202019,/	t,t,t,t	<img class = center src='/static/experiments/beast_fmri_test/images/T.png'></img>	71,89	2750.0	test	<img class = center src='/static/experiments/beast_fmri_test/images/redT.png'></img>	go	2150.0	2.0	26.0	go	non-target	T	71,Index Finger	89,Middle Finger	500.0	600.0	2300.0	2150.0	1.0	n/a	600.0	1.0	go_stim
128615.69000209999	155.30999790000001	n/a	989	89	2750	155.3099979	stim	stop-signal	60	202272	0.0-7.26-1.26	beast_fmri_test	386	199980,/,200660,/,201340,/,202019,/	t,t,t,t	<img class = center src='/static/experiments/beast_fmri_test/images/T.png'></img>	71,89	2750.0	test	<img class = center src='/static/experiments/beast_fmri_test/images/redT.png'></img>	go	2150.0	2.0	26.0	go	non-target	T	71,Index Finger	89,Middle Finger	500.0	600.0	2300.0	2150.0	1.0	n/a	600.0	1.0	ITI
129431	500	n/a	-1	-1	500	0.0	fixation	poldrack-single-stim	61	202932	0.0-7.27-0.27	beast_fmri_test	386	202700,/	t	<div class = centerbox2><div class = fixation>+</div></div>	none	500.0	test	n/a	n/a	n/a	n/a	n/a	n/a	n/a	n/a	n/a	n/a	n/a	n/a	n/a	n/a	n/a	n/a	n/a	n/a	fixation
129349.28687129999	2750	n/a	1070	89	2750	82.7131287	stim	stop-signal	62	205683	0.0-7.27-1.27	beast_fmri_test	386	203379,/,204059,/,204740,/,205420,/	t,t,t,t	<img class = center src='/static/experiments/beast_fmri_test/images/D.png'></img>	71,89	2750.0	test	<img class = center src='/static/experiments/beast_fmri_test/images/redD.png'></img>	go	2150.0	2.0	27.0	go	non-target	D	71,Index Finger	89,Middle Finger	500.0	600.0	2300.0	2150.0	1.0	n/a	600.0	1.0	go_stim
132099.28687129999	82.713128699999999	n/a	1070	89	2750	82.7131287	stim	stop-signal	62	205683	0.0-7.27-1.27	beast_fmri_test	386	203379,/,204059,/,204740,/,205420,/	t,t,t,t	<img class = center src='/static/experiments/beast_fmri_test/images/D.png'></img>	71,89	2750.0	test	<img class = center src='/static/experiments/beast_fmri_test/images/redD.png'></img>	go	2150.0	2.0	27.0	go	non-target	D	71,Index Finger	89,Middle Finger	500.0	600.0	2300.0	2150.0	1.0	n/a	600.0	1.0	ITI
132768	500	n/a	-1	-1	500	0.0	fixation	poldrack-single-stim	63	206269	0.0-7.28-0.28	beast_fmri_test	386	206100,/	t	<div class = centerbox2><div class = fixation>+</div></div>	none	500.0	test	n/a	n/a	n/a	n/a	n/a	n/a	n/a	n/a	n/a	n/a	n/a	n/a	n/a	n/a	n/a	n/a	n/a	n/a	fixation
132420.4225168	2750	n/a	1132	89	2750	349.5774832	stim	stop-signal	64	209021	0.0-7.28-1.28	beast_fmri_test	386	206779,/,207459,/,208139,/,208820,/	t,t,t,t	<img class = center src='/static/experiments/beast_fmri_test/images/V.png'></img>	71,89	2750.0	test	<img class = center src='/static/experiments/beast_fmri_test/images/redV.png'></img>	go	2150.0	2.0	28.0	go	non-target	V	71,Index Finger	89,Middle Finger	500.0	600.0	2300.0	2150.0	1.0	n/a	600.0	1.0	go_stim
135170.4225168	349.57748320000002	n/a	1132	89	2750	349.5774832	stim	stop-signal	64	209021	0.0-7.28-1.28	beast_fmri_test	386	206779,/,207459,/,208139,/,208820,/	t,t,t,t	<img class = center src='/static/experiments/beast_fmri_test/images/V.png'></img>	71,89	2750.0	test	<img class = center src='/static/experiments/beast_fmri_test/images/redV.png'></img>	go	2150.0	2.0	28.0	go	non-target	V	71,Index Finger	89,Middle Finger	500.0	600.0	2300.0	2150.0	1.0	n/a	600.0	1.0	ITI
136375	500	n/a	-1	-1	500	0.0	fixation	poldrack-single-stim	65	209876	0.0-7.29-0.29	beast_fmri_test	386	209499,/	t	<div class = centerbox2><div class = fixation>+</div></div>	none	500.0	test	n/a	n/a	n/a	n/a	n/a	n/a	n/a	n/a	n/a	n/a	n/a	n/a	n/a	n/a	n/a	n/a	n/a	n/a	fixation
135618.22525700001	500.0	n/a	-1	-1	2750	757.774743	stim	stop-signal	66	212627	0.0-7.29-1.29	beast_fmri_test	386	210180,/,210859,/,211539,/,212220,/,212900,/	t,t,t,t,t	<img class = center src='/static/experiments/beast_fmri_test/images/D.png'></img>	71,89	2750.0	test	<img class = center src='/static/experiments/beast_fmri_test/images/redD.png'></img>	stop	2250.0	2.0	29.0	stop	target	D	71,Index Finger	89,Middle Finger	500.0	600.0	2250.0	2150.0	0.0	1.0	500.0	n/a	go_stim
137868.22525700001	2250.0	n/a	-1	-1	2750	757.774743	stim	stop-signal	66	212627	0.0-7.29-1.29	beast_fmri_test	386	210180,/,210859,/,211539,/,212220,/,212900,/	t,t,t,t,t	<img class = center src='/static/experiments/beast_fmri_test/images/D.png'></img>	71,89	2750.0	test	<img class = center src='/static/experiments/beast_fmri_test/images/redD.png'></img>	stop	2250.0	2.0	29.0	stop	target	D	71,Index Finger	89,Middle Finger	500.0	600.0	2250.0	2150.0	0.0	1.0	500.0	n/a	stop_stim
138368.22525700001	757.77474299999994	n/a	-1	-1	2750	757.774743	stim	stop-signal	66	212627	0.0-7.29-1.29	beast_fmri_test	386	210180,/,210859,/,211539,/,212220,/,212900,/	t,t,t,t,t	<img class = center src='/static/experiments/beast_fmri_test/images/D.png'></img>	71,89	2750.0	test	<img class = center src='/static/experiments/beast_fmri_test/images/redD.png'></img>	stop	2250.0	2.0	29.0	stop	target	D	71,Index Finger	89,Middle Finger	500.0	600.0	2250.0	2150.0	0.0	1.0	500.0	n/a	ITI
140389	500	n/a	-1	-1	500	0.0	fixation	poldrack-single-stim	67	213890	0.0-7.30-0.30	beast_fmri_test	386	213579,/	t	<div class = centerbox2><div class = fixation>+</div></div>	none	500.0	test	n/a	n/a	n/a	n/a	n/a	n/a	n/a	n/a	n/a	n/a	n/a	n/a	n/a	n/a	n/a	n/a	n/a	n/a	fixation
139824.92886750001	2750	n/a	1200	89	2750	567.0711325	stim	stop-signal	68	216643	0.0-7.30-1.30	beast_fmri_test	386	214259,/,214939,/,215619,/,216300,/,216979,/	t,t,t,t,t	<img class = center src='/static/experiments/beast_fmri_test/images/B.png'></img>	71,89	2750.0	test	<img class = center src='/static/experiments/beast_fmri_test/images/redB.png'></img>	go	2150.0	2.0	30.0	go	non-target	B	71,Index Finger	89,Middle Finger	550.0	600.0	2250.0	2150.0	1.0	n/a	600.0	1.0	go_stim
142574.92886750001	567.07113249999998	n/a	1200	89	2750	567.0711325	stim	stop-signal	68	216643	0.0-7.30-1.30	beast_fmri_test	386	214259,/,214939,/,215619,/,216300,/,216979,/	t,t,t,t,t	<img class = center src='/static/experiments/beast_fmri_test/images/B.png'></img>	71,89	2750.0	test	<img class = center src='/static/experiments/beast_fmri_test/images/redB.png'></img>	go	2150.0	2.0	30.0	go	non-target	B	71,Index Finger	89,Middle Finger	550.0	600.0	2250.0	2150.0	1.0	n/a	600.0	1.0	ITI
144215	500	n/a	-1	-1	500	0.0	fixation	poldrack-single-stim	69	217716	0.0-7.31-0.31	beast_fmri_test	386	217659,/	t	<div class = centerbox2><div class = fixation>+</div></div>	none	500.0	test	n/a	n/a	n/a	n/a	n/a	n/a	n/a	n/a	n/a	n/a	n/a	n/a	n/a	n/a	n/a	n/a	n/a	n/a	fixation
143378.34635959999	2750	n/a	1026	89	2750	838.6536404	stim	stop-signal	70	220468	0.0-7.31-1.31	beast_fmri_test	386	218339,/,219020,/,219700,/,220380,/,221060,/	t,t,t,t,t	<img class = center src='/static/experiments/beast_fmri_test/images/T.png'></img>	71,89	2750.0	test	<img class = center src='/static/experiments/beast_fmri_test/images/redT.png'></img>	go	2150.0	2.0	31.0	go	non-target	T	71,Index Finger	89,Middle Finger	550.0	600.0	2250.0	2150.0	1.0	n/a	600.0	1.0	go_stim
146128.34635959999	838.65364039999997	n/a	1026	89	2750	838.6536404	stim	stop-signal	70	220468	0.0-7.31-1.31	beast_fmri_test	386	218339,/,219020,/,219700,/,220380,/,221060,/	t,t,t,t,t	<img class = center src='/static/experiments/beast_fmri_test/images/T.png'></img>	71,89	2750.0	test	<img class = center src='/static/experiments/beast_fmri_test/images/redT.png'></img>	go	2150.0	2.0	31.0	go	non-target	T	71,Index Finger	89,Middle Finger	550.0	600.0	2250.0	2150.0	1.0	n/a	600.0	1.0	ITI
148312	500	n/a	-1	-1	500	0.0	fixation	poldrack-single-stim	71	221813	0.0-7.32-0.32	beast_fmri_test	386	221740,/	t	<div class = centerbox2><div class = fixation>+</div></div>	none	500.0	test	n/a	n/a	n/a	n/a	n/a	n/a	n/a	n/a	n/a	n/a	n/a	n/a	n/a	n/a	n/a	n/a	n/a	n/a	fixation
146674.181193	2750	n/a	963	89	2750	1640.818807	stim	stop-signal	72	224566	0.0-7.32-1.32	beast_fmri_test	386	222420,/,223100,/,223780,/,224460,/,225140,/,225820,/	t,t,t,t,t,t	<img class = center src='/static/experiments/beast_fmri_test/images/P.png'></img>	71,89	2750.0	test	<img class = center src='/static/experiments/beast_fmri_test/images/redP.png'></img>	go	2150.0	2.0	32.0	go	non-target	P	71,Index Finger	89,Middle Finger	550.0	600.0	2250.0	2150.0	1.0	n/a	600.0	1.0	go_stim
149424.181193	1640.8188070000001	n/a	963	89	2750	1640.818807	stim	stop-signal	72	224566	0.0-7.32-1.32	beast_fmri_test	386	222420,/,223100,/,223780,/,224460,/,225140,/,225820,/	t,t,t,t,t,t	<img class = center src='/static/experiments/beast_fmri_test/images/P.png'></img>	71,89	2750.0	test	<img class = center src='/static/experiments/beast_fmri_test/images/redP.png'></img>	go	2150.0	2.0	32.0	go	non-target	P	71,Index Finger	89,Middle Finger	550.0	600.0	2250.0	2150.0	1.0	n/a	600.0	1.0	ITI
153211	500	n/a	-1	-1	500	0.0	fixation	poldrack-single-stim	73	226712	0.0-7.33-0.33	beast_fmri_test	386	226501,/	t	<div class = centerbox2><div class = fixation>+</div></div>	none	500.0	test	n/a	n/a	n/a	n/a	n/a	n/a	n/a	n/a	n/a	n/a	n/a	n/a	n/a	n/a	n/a	n/a	n/a	n/a	fixation
152644.0147882	600.0	n/a	-1	-1	2750	567.9852118	stim	stop-signal	74	229463	0.0-7.33-1.33	beast_fmri_test	386	227180,/,227860,/,228540,/,229220,/,229900,/	t,t,t,t,t	<img class = center src='/static/experiments/beast_fmri_test/images/B.png'></img>	71,89	2750.0	test	<img class = center src='/static/experiments/beast_fmri_test/images/redB.png'></img>	stop	2150.0	2.0	33.0	stop	non-target	B	71,Index Finger	89,Middle Finger	550.0	600.0	2250.0	2150.0	0.0	1.0	600.0	n/a	go_stim
154794.0147882	2150.0	n/a	-1	-1	2750	567.9852118	stim	stop-signal	74	229463	0.0-7.33-1.33	beast_fmri_test	386	227180,/,227860,/,228540,/,229220,/,229900,/	t,t,t,t,t	<img class = center src='/static/experiments/beast_fmri_test/images/B.png'></img>	71,89	2750.0	test	<img class = center src='/static/experiments/beast_fmri_test/images/redB.png'></img>	stop	2150.0	2.0	33.0	stop	non-target	B	71,Index Finger	89,Middle Finger	550.0	600.0	2250.0	2150.0	0.0	1.0	600.0	n/a	stop_stim
155394.0147882	567.9852118	n/a	-1	-1	2750	567.9852118	stim	stop-signal	74	229463	0.0-7.33-1.33	beast_fmri_test	386	227180,/,227860,/,228540,/,229220,/,229900,/	t,t,t,t,t	<img class = center src='/static/experiments/beast_fmri_test/images/B.png'></img>	71,89	2750.0	test	<img class = center src='/static/experiments/beast_fmri_test/images/redB.png'></img>	stop	2150.0	2.0	33.0	stop	non-target	B	71,Index Finger	89,Middle Finger	550.0	600.0	2250.0	2150.0	0.0	1.0	600.0	n/a	ITI
157033	500	n/a	-1	-1	500	0.0	fixation	poldrack-single-stim	75	230534	0.0-7.34-0.34	beast_fmri_test	386	n/a	n/a	<div class = centerbox2><div class = fixation>+</div></div>	none	500.0	test	n/a	n/a	n/a	n/a	n/a	n/a	n/a	n/a	n/a	n/a	n/a	n/a	n/a	n/a	n/a	n/a	n/a	n/a	fixation
156882.8818912	650.0	n/a	955	89	2750	151.1181088	stim	stop-signal	76	233285	0.0-7.34-1.34	beast_fmri_test	386	230579,/,231260,/,231940,/,232620,/,233299,/	t,t,t,t,t	<img class = center src='/static/experiments/beast_fmri_test/images/T.png'></img>	71,89	2750.0	test	<img class = center src='/static/experiments/beast_fmri_test/images/redT.png'></img>	stop	2100.0	2.0	34.0	stop	non-target	T	71,Index Finger	89,Middle Finger	550.0	650.0	2250.0	2100.0	0.0	0.0	650.0	n/a	go_stim
158982.8818912	2100.0	n/a	955	89	2750	151.1181088	stim	stop-signal	76	233285	0.0-7.34-1.34	beast_fmri_test	386	230579,/,231260,/,231940,/,232620,/,233299,/	t,t,t,t,t	<img class = center src='/static/experiments/beast_fmri_test/images/T.png'></img>	71,89	2750.0	test	<img class = center src='/static/experiments/beast_fmri_test/images/redT.png'></img>	stop	2100.0	2.0	34.0	stop	non-target	T	71,Index Finger	89,Middle Finger	550.0	650.0	2250.0	2100.0	0.0	0.0	650.0	n/a	stop_stim
159632.8818912	151.11810880000002	n/a	955	89	2750	151.1181088	stim	stop-signal	76	233285	0.0-7.34-1.34	beast_fmri_test	386	230579,/,231260,/,231940,/,232620,/,233299,/	t,t,t,t,t	<img class = center src='/static/experiments/beast_fmri_test/images/T.png'></img>	71,89	2750.0	test	<img class = center src='/static/experiments/beast_fmri_test/images/redT.png'></img>	stop	2100.0	2.0	34.0	stop	non-target	T	71,Index Finger	89,Middle Finger	550.0	650.0	2250.0	2100.0	0.0	0.0	650.0	n/a	ITI
160440	500	n/a	-1	-1	500	0.0	fixation	poldrack-single-stim	77	233941	0.0-7.35-0.35	beast_fmri_test	386	n/a	n/a	<div class = centerbox2><div class = fixation>+</div></div>	none	500.0	test	n/a	n/a	n/a	n/a	n/a	n/a	n/a	n/a	n/a	n/a	n/a	n/a	n/a	n/a	n/a	n/a	n/a	n/a	fixation
159989.4905285	550.0	n/a	-1	-1	2750	452.5094715	stim	stop-signal	78	236693	0.0-7.35-1.35	beast_fmri_test	386	233979,/,234660,/,235340,/,236019,/,236700,/	t,t,t,t,t	<img class = center src='/static/experiments/beast_fmri_test/images/B.png'></img>	71,89	2750.0	test	<img class = center src='/static/experiments/beast_fmri_test/images/redB.png'></img>	stop	2200.0	2.0	35.0	stop	target	B	71,Index Finger	89,Middle Finger	550.0	600.0	2200.0	2100.0	0.0	1.0	550.0	n/a	go_stim
162189.4905285	2200.0	n/a	-1	-1	2750	452.5094715	stim	stop-signal	78	236693	0.0-7.35-1.35	beast_fmri_test	386	233979,/,234660,/,235340,/,236019,/,236700,/	t,t,t,t,t	<img class = center src='/static/experiments/beast_fmri_test/images/B.png'></img>	71,89	2750.0	test	<img class = center src='/static/experiments/beast_fmri_test/images/redB.png'></img>	stop	2200.0	2.0	35.0	stop	target	B	71,Index Finger	89,Middle Finger	550.0	600.0	2200.0	2100.0	0.0	1.0	550.0	n/a	stop_stim
162739.4905285	452.50947149999996	n/a	-1	-1	2750	452.5094715	stim	stop-signal	78	236693	0.0-7.35-1.35	beast_fmri_test	386	233979,/,234660,/,235340,/,236019,/,236700,/	t,t,t,t,t	<img class = center src='/static/experiments/beast_fmri_test/images/B.png'></img>	71,89	2750.0	test	<img class = center src='/static/experiments/beast_fmri_test/images/redB.png'></img>	stop	2200.0	2.0	35.0	stop	target	B	71,Index Finger	89,Middle Finger	550.0	600.0	2200.0	2100.0	0.0	1.0	550.0	n/a	ITI
164149	500	n/a	-1	-1	500	0.0	fixation	poldrack-single-stim	79	237650	0.0-7.36-0.36	beast_fmri_test	386	237380,/	t	<div class = centerbox2><div class = fixation>+</div></div>	none	500.0	test	n/a	n/a	n/a	n/a	n/a	n/a	n/a	n/a	n/a	n/a	n/a	n/a	n/a	n/a	n/a	n/a	n/a	n/a	fixation
163622.35519959999	600.0	n/a	-1	-1	2750	528.6448004	stim	stop-signal	80	240402	0.0-7.36-1.36	beast_fmri_test	386	238059,/,238740,/,239420,/,240099,/,240779,/	t,t,t,t,t	<img class = center src='/static/experiments/beast_fmri_test/images/T.png'></img>	71,89	2750.0	test	<img class = center src='/static/experiments/beast_fmri_test/images/redT.png'></img>	stop	2150.0	2.0	36.0	stop	target	T	71,Index Finger	89,Middle Finger	600.0	600.0	2150.0	2100.0	0.0	1.0	600.0	n/a	go_stim
165772.35519959999	2150.0	n/a	-1	-1	2750	528.6448004	stim	stop-signal	80	240402	0.0-7.36-1.36	beast_fmri_test	386	238059,/,238740,/,239420,/,240099,/,240779,/	t,t,t,t,t	<img class = center src='/static/experiments/beast_fmri_test/images/T.png'></img>	71,89	2750.0	test	<img class = center src='/static/experiments/beast_fmri_test/images/redT.png'></img>	stop	2150.0	2.0	36.0	stop	target	T	71,Index Finger	89,Middle Finger	600.0	600.0	2150.0	2100.0	0.0	1.0	600.0	n/a	stop_stim
166372.35519959999	528.64480040000001	n/a	-1	-1	2750	528.6448004	stim	stop-signal	80	240402	0.0-7.36-1.36	beast_fmri_test	386	238059,/,238740,/,239420,/,240099,/,240779,/	t,t,t,t,t	<img class = center src='/static/experiments/beast_fmri_test/images/T.png'></img>	71,89	2750.0	test	<img class = center src='/static/experiments/beast_fmri_test/images/redT.png'></img>	stop	2150.0	2.0	36.0	stop	target	T	71,Index Finger	89,Middle Finger	600.0	600.0	2150.0	2100.0	0.0	1.0	600.0	n/a	ITI
167935	500	n/a	-1	-1	500	0.0	fixation	poldrack-single-stim	81	241436	0.0-7.37-0.37	beast_fmri_test	386	n/a	n/a	<div class = centerbox2><div class = fixation>+</div></div>	none	500.0	test	n/a	n/a	n/a	n/a	n/a	n/a	n/a	n/a	n/a	n/a	n/a	n/a	n/a	n/a	n/a	n/a	n/a	n/a	fixation
164538.29442200001	600.0	n/a	-1	-1	2750	3398.705578	stim	stop-signal	82	244188	0.0-7.37-1.37	beast_fmri_test	386	241459,/,242140,/,242823,/,243499,/,244179,/,244860,/,245539,/,246219,/,246901,/,247579,/	t,t,t,t,t,t,t,t,t,t	<img class = center src='/static/experiments/beast_fmri_test/images/T.png'></img>	71,89	2750.0	test	<img class = center src='/static/experiments/beast_fmri_test/images/redT.png'></img>	stop	2150.0	2.0	37.0	stop	non-target	T	71,Index Finger	89,Middle Finger	650.0	600.0	2150.0	2150.0	0.0	1.0	600.0	n/a	go_stim
166688.29442200001	2150.0	n/a	-1	-1	2750	3398.705578	stim	stop-signal	82	244188	0.0-7.37-1.37	beast_fmri_test	386	241459,/,242140,/,242823,/,243499,/,244179,/,244860,/,245539,/,246219,/,246901,/,247579,/	t,t,t,t,t,t,t,t,t,t	<img class = center src='/static/experiments/beast_fmri_test/images/T.png'></img>	71,89	2750.0	test	<img class = center src='/static/experiments/beast_fmri_test/images/redT.png'></img>	stop	2150.0	2.0	37.0	stop	non-target	T	71,Index Finger	89,Middle Finger	650.0	600.0	2150.0	2150.0	0.0	1.0	600.0	n/a	stop_stim
167288.29442200001	3398.7055780000001	n/a	-1	-1	2750	3398.705578	stim	stop-signal	82	244188	0.0-7.37-1.37	beast_fmri_test	386	241459,/,242140,/,242823,/,243499,/,244179,/,244860,/,245539,/,246219,/,246901,/,247579,/	t,t,t,t,t,t,t,t,t,t	<img class = center src='/static/experiments/beast_fmri_test/images/T.png'></img>	71,89	2750.0	test	<img class = center src='/static/experiments/beast_fmri_test/images/redT.png'></img>	stop	2150.0	2.0	37.0	stop	non-target	T	71,Index Finger	89,Middle Finger	650.0	600.0	2150.0	2150.0	0.0	1.0	600.0	n/a	ITI
174591	500	n/a	-1	-1	500	0.0	fixation	poldrack-single-stim	83	248092	0.0-7.38-0.38	beast_fmri_test	386	n/a	n/a	<div class = centerbox2><div class = fixation>+</div></div>	none	500.0	test	n/a	n/a	n/a	n/a	n/a	n/a	n/a	n/a	n/a	n/a	n/a	n/a	n/a	n/a	n/a	n/a	n/a	n/a	fixation
173874.20863549999	2750	n/a	911	71	2750	717.7913645	stim	stop-signal	84	250843	0.0-7.38-1.38	beast_fmri_test	386	248259,/,248940,/,249619,/,250299,/,250979,/	t,t,t,t,t	<img class = center src='/static/experiments/beast_fmri_test/images/T.png'></img>	71,89	2750.0	test	<img class = center src='/static/experiments/beast_fmri_test/images/redT.png'></img>	go	2100.0	2.0	38.0	go	target	T	71,Index Finger	89,Middle Finger	650.0	650.0	2100.0	2150.0	1.0	n/a	650.0	1.0	go_stim
176624.20863549999	717.79136449999999	n/a	911	71	2750	717.7913645	stim	stop-signal	84	250843	0.0-7.38-1.38	beast_fmri_test	386	248259,/,248940,/,249619,/,250299,/,250979,/	t,t,t,t,t	<img class = center src='/static/experiments/beast_fmri_test/images/T.png'></img>	71,89	2750.0	test	<img class = center src='/static/experiments/beast_fmri_test/images/redT.png'></img>	go	2100.0	2.0	38.0	go	target	T	71,Index Finger	89,Middle Finger	650.0	650.0	2100.0	2150.0	1.0	n/a	650.0	1.0	ITI
178566	500	n/a	-1	-1	500	0.0	fixation	poldrack-single-stim	85	252067	0.0-7.39-0.39	beast_fmri_test	386	251659,/	t	<div class = centerbox2><div class = fixation>+</div></div>	none	500.0	test	n/a	n/a	n/a	n/a	n/a	n/a	n/a	n/a	n/a	n/a	n/a	n/a	n/a	n/a	n/a	n/a	n/a	n/a	fixation
178157.06685140001	2750	n/a	1313	71	2750	409.9331486	stim	stop-signal	86	254818	0.0-7.39-1.39	beast_fmri_test	386	252339,/,253020,/,253700,/,254380,/,255060,/	t,t,t,t,t	<img class = center src='/static/experiments/beast_fmri_test/images/T.png'></img>	71,89	2750.0	test	<img class = center src='/static/experiments/beast_fmri_test/images/redT.png'></img>	go	2100.0	2.0	39.0	go	target	T	71,Index Finger	89,Middle Finger	650.0	650.0	2100.0	2150.0	1.0	n/a	650.0	1.0	go_stim
180907.06685140001	409.93314859999998	n/a	1313	71	2750	409.9331486	stim	stop-signal	86	254818	0.0-7.39-1.39	beast_fmri_test	386	252339,/,253020,/,253700,/,254380,/,255060,/	t,t,t,t,t	<img class = center src='/static/experiments/beast_fmri_test/images/T.png'></img>	71,89	2750.0	test	<img class = center src='/static/experiments/beast_fmri_test/images/redT.png'></img>	go	2100.0	2.0	39.0	go	target	T	71,Index Finger	89,Middle Finger	650.0	650.0	2100.0	2150.0	1.0	n/a	650.0	1.0	ITI
182232	500	n/a	-1	-1	500	0.0	fixation	poldrack-single-stim	87	255733	0.0-7.40-0.40	beast_fmri_test	386	n/a	n/a	<div class = centerbox2><div class = fixation>+</div></div>	none	500.0	test	n/a	n/a	n/a	n/a	n/a	n/a	n/a	n/a	n/a	n/a	n/a	n/a	n/a	n/a	n/a	n/a	n/a	n/a	fixation
181130.01169700001	2750	n/a	855	71	2750	1102.988303	stim	stop-signal	88	258484	0.0-7.40-1.40	beast_fmri_test	386	255740,/,256420,/,257100,/,257780,/,258460,/,259140,/	t,t,t,t,t,t	<img class = center src='/static/experiments/beast_fmri_test/images/T.png'></img>	71,89	2750.0	test	<img class = center src='/static/experiments/beast_fmri_test/images/redT.png'></img>	go	2100.0	2.0	40.0	go	target	T	71,Index Finger	89,Middle Finger	650.0	650.0	2100.0	2150.0	1.0	n/a	650.0	1.0	go_stim
183880.01169700001	1102.9883029999999	n/a	855	71	2750	1102.988303	stim	stop-signal	88	258484	0.0-7.40-1.40	beast_fmri_test	386	255740,/,256420,/,257100,/,257780,/,258460,/,259140,/	t,t,t,t,t,t	<img class = center src='/static/experiments/beast_fmri_test/images/T.png'></img>	71,89	2750.0	test	<img class = center src='/static/experiments/beast_fmri_test/images/redT.png'></img>	go	2100.0	2.0	40.0	go	target	T	71,Index Finger	89,Middle Finger	650.0	650.0	2100.0	2150.0	1.0	n/a	650.0	1.0	ITI
186591	500	n/a	-1	-1	500	0.0	fixation	poldrack-single-stim	89	260092	0.0-7.41-0.41	beast_fmri_test	386	259820,/	t	<div class = centerbox2><div class = fixation>+</div></div>	none	500.0	test	n/a	n/a	n/a	n/a	n/a	n/a	n/a	n/a	n/a	n/a	n/a	n/a	n/a	n/a	n/a	n/a	n/a	n/a	fixation
185656.4425112	2750	n/a	727	71	2750	936.5574888	stim	stop-signal	90	262844	0.0-7.41-1.41	beast_fmri_test	386	260500,/,261180,/,261859,/,262540,/,263220,/	t,t,t,t,t	<img class = center src='/static/experiments/beast_fmri_test/images/T.png'></img>	71,89	2750.0	test	<img class = center src='/static/experiments/beast_fmri_test/images/redT.png'></img>	go	2100.0	2.0	41.0	go	target	T	71,Index Finger	89,Middle Finger	650.0	650.0	2100.0	2150.0	1.0	n/a	650.0	1.0	go_stim
188406.4425112	936.55748879999999	n/a	727	71	2750	936.5574888	stim	stop-signal	90	262844	0.0-7.41-1.41	beast_fmri_test	386	260500,/,261180,/,261859,/,262540,/,263220,/	t,t,t,t,t	<img class = center src='/static/experiments/beast_fmri_test/images/T.png'></img>	71,89	2750.0	test	<img class = center src='/static/experiments/beast_fmri_test/images/redT.png'></img>	go	2100.0	2.0	41.0	go	target	T	71,Index Finger	89,Middle Finger	650.0	650.0	2100.0	2150.0	1.0	n/a	650.0	1.0	ITI
190786	500	n/a	-1	-1	500	0.0	fixation	poldrack-single-stim	91	264287	0.0-7.42-0.42	beast_fmri_test	386	263900,/	t	<div class = centerbox2><div class = fixation>+</div></div>	none	500.0	test	n/a	n/a	n/a	n/a	n/a	n/a	n/a	n/a	n/a	n/a	n/a	n/a	n/a	n/a	n/a	n/a	n/a	n/a	fixation
188705.42703700002	650.0	n/a	966	89	2750	2082.572963	stim	stop-signal	92	267039	0.0-7.42-1.42	beast_fmri_test	386	264580,/,265260,/,265940,/,266620,/,267301,/,267979,/,268659,/	t,t,t,t,t,t,t	<img class = center src='/static/experiments/beast_fmri_test/images/B.png'></img>	71,89	2750.0	test	<img class = center src='/static/experiments/beast_fmri_test/images/redB.png'></img>	stop	2100.0	2.0	42.0	stop	non-target	B	71,Index Finger	89,Middle Finger	650.0	650.0	2100.0	2100.0	0.0	0.0	650.0	n/a	go_stim
190805.42703700002	2100.0	n/a	966	89	2750	2082.572963	stim	stop-signal	92	267039	0.0-7.42-1.42	beast_fmri_test	386	264580,/,265260,/,265940,/,266620,/,267301,/,267979,/,268659,/	t,t,t,t,t,t,t	<img class = center src='/static/experiments/beast_fmri_test/images/B.png'></img>	71,89	2750.0	test	<img class = center src='/static/experiments/beast_fmri_test/images/redB.png'></img>	stop	2100.0	2.0	42.0	stop	non-target	B	71,Index Finger	89,Middle Finger	650.0	650.0	2100.0	2100.0	0.0	0.0	650.0	n/a	stop_stim
191455.42703700002	2082.5729630000001	n/a	966	89	2750	2082.572963	stim	stop-signal	92	267039	0.0-7.42-1.42	beast_fmri_test	386	264580,/,265260,/,265940,/,266620,/,267301,/,267979,/,268659,/	t,t,t,t,t,t,t	<img class = center src='/static/experiments/beast_fmri_test/images/B.png'></img>	71,89	2750.0	test	<img class = center src='/static/experiments/beast_fmri_test/images/redB.png'></img>	stop	2100.0	2.0	42.0	stop	non-target	B	71,Index Finger	89,Middle Finger	650.0	650.0	2100.0	2100.0	0.0	0.0	650.0	n/a	ITI
196125	500	n/a	-1	-1	500	0.0	fixation	poldrack-single-stim	93	269626	0.0-7.43-0.43	beast_fmri_test	386	269340,/	t	<div class = centerbox2><div class = fixation>+</div></div>	none	500.0	test	n/a	n/a	n/a	n/a	n/a	n/a	n/a	n/a	n/a	n/a	n/a	n/a	n/a	n/a	n/a	n/a	n/a	n/a	fixation
195362.39338580001	2750	n/a	1172	71	2750	764.6066142	stim	stop-signal	94	272378	0.0-7.43-1.43	beast_fmri_test	386	270020,/,270700,/,271380,/,272059,/,272740,/	t,t,t,t,t	<img class = center src='/static/experiments/beast_fmri_test/images/T.png'></img>	71,89	2750.0	test	<img class = center src='/static/experiments/beast_fmri_test/images/redT.png'></img>	go	2100.0	2.0	43.0	go	target	T	71,Index Finger	89,Middle Finger	650.0	600.0	2100.0	2100.0	1.0	n/a	650.0	1.0	go_stim
198112.39338580001	764.60661420000008	n/a	1172	71	2750	764.6066142	stim	stop-signal	94	272378	0.0-7.43-1.43	beast_fmri_test	386	270020,/,270700,/,271380,/,272059,/,272740,/	t,t,t,t,t	<img class = center src='/static/experiments/beast_fmri_test/images/T.png'></img>	71,89	2750.0	test	<img class = center src='/static/experiments/beast_fmri_test/images/redT.png'></img>	go	2100.0	2.0	43.0	go	target	T	71,Index Finger	89,Middle Finger	650.0	600.0	2100.0	2100.0	1.0	n/a	650.0	1.0	ITI
200147	500	n/a	-1	-1	500	0.0	fixation	poldrack-single-stim	95	273648	0.0-7.44-0.44	beast_fmri_test	386	273420,/	t	<div class = centerbox2><div class = fixation>+</div></div>	none	500.0	test	n/a	n/a	n/a	n/a	n/a	n/a	n/a	n/a	n/a	n/a	n/a	n/a	n/a	n/a	n/a	n/a	n/a	n/a	fixation
199403.73301099997	2750	n/a	1217	89	2750	745.266989	stim	stop-signal	96	276400	0.0-7.44-1.44	beast_fmri_test	386	274099,/,274780,/,275460,/,276140,/,276820,/	t,t,t,t,t	<img class = center src='/static/experiments/beast_fmri_test/images/D.png'></img>	71,89	2750.0	test	<img class = center src='/static/experiments/beast_fmri_test/images/redD.png'></img>	go	2150.0	2.0	44.0	go	non-target	D	71,Index Finger	89,Middle Finger	650.0	600.0	2100.0	2150.0	1.0	n/a	600.0	1.0	go_stim
202153.73301099997	745.26698899999997	n/a	1217	89	2750	745.266989	stim	stop-signal	96	276400	0.0-7.44-1.44	beast_fmri_test	386	274099,/,274780,/,275460,/,276140,/,276820,/	t,t,t,t,t	<img class = center src='/static/experiments/beast_fmri_test/images/D.png'></img>	71,89	2750.0	test	<img class = center src='/static/experiments/beast_fmri_test/images/redD.png'></img>	go	2150.0	2.0	44.0	go	non-target	D	71,Index Finger	89,Middle Finger	650.0	600.0	2100.0	2150.0	1.0	n/a	600.0	1.0	ITI
204150	500	n/a	-1	-1	500	0.0	fixation	poldrack-single-stim	97	277651	0.0-7.45-0.45	beast_fmri_test	386	277501,/	t	<div class = centerbox2><div class = fixation>+</div></div>	none	500.0	test	n/a	n/a	n/a	n/a	n/a	n/a	n/a	n/a	n/a	n/a	n/a	n/a	n/a	n/a	n/a	n/a	n/a	n/a	fixation
201309.25482899998	2750	n/a	995	89	2750	2843.745171	stim	stop-signal	98	280404	0.0-7.45-1.45	beast_fmri_test	386	278179,/,278859,/,279539,/,280220,/,280899,/,281579,/,282259,/,282939,/	t,t,t,t,t,t,t,t	<img class = center src='/static/experiments/beast_fmri_test/images/V.png'></img>	71,89	2750.0	test	<img class = center src='/static/experiments/beast_fmri_test/images/redV.png'></img>	go	2150.0	2.0	45.0	go	non-target	V	71,Index Finger	89,Middle Finger	650.0	600.0	2100.0	2150.0	1.0	n/a	600.0	1.0	go_stim
204059.25482899998	2843.745171	n/a	995	89	2750	2843.745171	stim	stop-signal	98	280404	0.0-7.45-1.45	beast_fmri_test	386	278179,/,278859,/,279539,/,280220,/,280899,/,281579,/,282259,/,282939,/	t,t,t,t,t,t,t,t	<img class = center src='/static/experiments/beast_fmri_test/images/V.png'></img>	71,89	2750.0	test	<img class = center src='/static/experiments/beast_fmri_test/images/redV.png'></img>	go	2150.0	2.0	45.0	go	non-target	V	71,Index Finger	89,Middle Finger	650.0	600.0	2100.0	2150.0	1.0	n/a	600.0	1.0	ITI
210253	500	n/a	-1	-1	500	0.0	fixation	poldrack-single-stim	99	283754	0.0-7.46-0.46	beast_fmri_test	386	283620,/	t	<div class = centerbox2><div class = fixation>+</div></div>	none	500.0	test	n/a	n/a	n/a	n/a	n/a	n/a	n/a	n/a	n/a	n/a	n/a	n/a	n/a	n/a	n/a	n/a	n/a	n/a	fixation
207501.96406099998	2750	n/a	931	89	2750	2753.035939	stim	stop-signal	100	286506	0.0-7.46-1.46	beast_fmri_test	386	284299,/,284979,/,285659,/,286339,/,287020,/,287701,/,288380,/,289060,/	t,t,t,t,t,t,t,t	<img class = center src='/static/experiments/beast_fmri_test/images/P.png'></img>	71,89	2750.0	test	<img class = center src='/static/experiments/beast_fmri_test/images/redP.png'></img>	go	2150.0	2.0	46.0	go	non-target	P	71,Index Finger	89,Middle Finger	650.0	600.0	2100.0	2150.0	1.0	n/a	600.0	1.0	go_stim
210251.96406099998	2753.0359389999999	n/a	931	89	2750	2753.035939	stim	stop-signal	100	286506	0.0-7.46-1.46	beast_fmri_test	386	284299,/,284979,/,285659,/,286339,/,287020,/,287701,/,288380,/,289060,/	t,t,t,t,t,t,t,t	<img class = center src='/static/experiments/beast_fmri_test/images/P.png'></img>	71,89	2750.0	test	<img class = center src='/static/experiments/beast_fmri_test/images/redP.png'></img>	go	2150.0	2.0	46.0	go	non-target	P	71,Index Finger	89,Middle Finger	650.0	600.0	2100.0	2150.0	1.0	n/a	600.0	1.0	ITI
230764	15000	n/a	-1	-1	15000	0.0	practice-no-stop-feedback	poldrack-single-stim	101	304265	0.0-8.0	beast_fmri_test	386	289740,/,290420,/,291100,/,291780,/,292460,/,293140,/,293820,/,294500,/,295179,/,295860,/,296540,/,297220,/,297901,/,298580,/,299260,/,299940,/,300620,/,301300,/,301980,/,302660,/,303340,/,304020,/	t,t,t,t,t,t,t,t,t,t,t,t,t,t,t,t,t,t,t,t,t,t	"<div class = ""centerbox2_2""><p class = ""block-text2"">Your delay is 3 trials.</p><p class = block-text2>Please wait for the scanner to start the block</p></div>"	77	15000.0	n/a	n/a	n/a	n/a	n/a	n/a	n/a	n/a	n/a	n/a	n/a	n/a	n/a	n/a	n/a	n/a	n/a	n/a	n/a	practice-no-stop-feedback
231266	500	n/a	-1	-1	500	0.0	fixation	poldrack-single-stim	102	304767	0.0-9.0-0.0	beast_fmri_test	386	304700,/	t	<div class = centerbox2><div class = fixation>+</div></div>	none	500.0	test	n/a	n/a	n/a	n/a	n/a	n/a	n/a	n/a	n/a	n/a	n/a	n/a	n/a	n/a	n/a	n/a	n/a	n/a	fixation
229607.37288600003	2750	n/a	793	89	2750	1660.627114	stim	stop-signal	103	307519	0.0-9.0-1.0	beast_fmri_test	386	305380,/,306060,/,306739,/,307420,/,308100,/,308781,/	t,t,t,t,t,t	<img class = center src='/static/experiments/beast_fmri_test/images/T.png'></img>	71,89	2750.0	test	<img class = center src='/static/experiments/beast_fmri_test/images/redT.png'></img>	go	-1.0	3.0	0.0	go	temp-non-target	T	71,Index Finger	89,Middle Finger	650.0	600.0	2100.0	2150.0	0.0	n/a	n/a	n/a	go_stim
232357.37288600003	1660.6271140000001	n/a	793	89	2750	1660.627114	stim	stop-signal	103	307519	0.0-9.0-1.0	beast_fmri_test	386	305380,/,306060,/,306739,/,307420,/,308100,/,308781,/	t,t,t,t,t,t	<img class = center src='/static/experiments/beast_fmri_test/images/T.png'></img>	71,89	2750.0	test	<img class = center src='/static/experiments/beast_fmri_test/images/redT.png'></img>	go	-1.0	3.0	0.0	go	temp-non-target	T	71,Index Finger	89,Middle Finger	650.0	600.0	2100.0	2150.0	0.0	n/a	n/a	n/a	ITI
236183	500	n/a	-1	-1	500	0.0	fixation	poldrack-single-stim	104	309684	0.0-9.1-0.1	beast_fmri_test	386	309460,/	t	<div class = centerbox2><div class = fixation>+</div></div>	none	500.0	test	n/a	n/a	n/a	n/a	n/a	n/a	n/a	n/a	n/a	n/a	n/a	n/a	n/a	n/a	n/a	n/a	n/a	n/a	fixation
232893.10621499998	2750	n/a	540	89	2750	3291.893785	stim	stop-signal	105	312436	0.0-9.1-1.1	beast_fmri_test	386	310139,/,310820,/,311500,/,312179,/,312860,/,313539,/,314219,/,314900,/,315579,/	t,t,t,t,t,t,t,t,t	<img class = center src='/static/experiments/beast_fmri_test/images/D.png'></img>	71,89	2750.0	test	<img class = center src='/static/experiments/beast_fmri_test/images/redD.png'></img>	go	-1.0	3.0	1.0	go	temp-non-target	D	71,Index Finger	89,Middle Finger	650.0	600.0	2100.0	2150.0	0.0	n/a	n/a	n/a	go_stim
235643.10621499998	3291.8937850000002	n/a	540	89	2750	3291.893785	stim	stop-signal	105	312436	0.0-9.1-1.1	beast_fmri_test	386	310139,/,310820,/,311500,/,312179,/,312860,/,313539,/,314219,/,314900,/,315579,/	t,t,t,t,t,t,t,t,t	<img class = center src='/static/experiments/beast_fmri_test/images/D.png'></img>	71,89	2750.0	test	<img class = center src='/static/experiments/beast_fmri_test/images/redD.png'></img>	go	-1.0	3.0	1.0	go	temp-non-target	D	71,Index Finger	89,Middle Finger	650.0	600.0	2100.0	2150.0	0.0	n/a	n/a	n/a	ITI
242733	500	n/a	-1	-1	500	0.0	fixation	poldrack-single-stim	106	316234	0.0-9.2-0.2	beast_fmri_test	386	n/a	n/a	<div class = centerbox2><div class = fixation>+</div></div>	none	500.0	test	n/a	n/a	n/a	n/a	n/a	n/a	n/a	n/a	n/a	n/a	n/a	n/a	n/a	n/a	n/a	n/a	n/a	n/a	fixation
241665.75475899997	temp_go_duration	n/a	756	89	2750	1069.245241	stim	stop-signal	107	318986	0.0-9.2-1.2	beast_fmri_test	386	316259,/,316939,/,317619,/,318300,/,318979,/,319659,/	t,t,t,t,t,t	<img class = center src='/static/experiments/beast_fmri_test/images/B.png'></img>	71,89	2750.0	test	<img class = center src='/static/experiments/beast_fmri_test/images/redB.png'></img>	stop	-1.0	3.0	2.0	stop	temp-non-target	B	71,Index Finger	89,Middle Finger	650.0	600.0	2100.0	2150.0	0.0	0.0	n/a	n/a	go_stim
temp-non-target	temp_stop_duration	n/a	756	89	2750	1069.245241	stim	stop-signal	107	318986	0.0-9.2-1.2	beast_fmri_test	386	316259,/,316939,/,317619,/,318300,/,318979,/,319659,/	t,t,t,t,t,t	<img class = center src='/static/experiments/beast_fmri_test/images/B.png'></img>	71,89	2750.0	test	<img class = center src='/static/experiments/beast_fmri_test/images/redB.png'></img>	stop	-1.0	3.0	2.0	stop	temp-non-target	B	71,Index Finger	89,Middle Finger	650.0	600.0	2100.0	2150.0	0.0	0.0	n/a	n/a	stop_stim
244415.75475899997	1069.2452410000001	n/a	756	89	2750	1069.245241	stim	stop-signal	107	318986	0.0-9.2-1.2	beast_fmri_test	386	316259,/,316939,/,317619,/,318300,/,318979,/,319659,/	t,t,t,t,t,t	<img class = center src='/static/experiments/beast_fmri_test/images/B.png'></img>	71,89	2750.0	test	<img class = center src='/static/experiments/beast_fmri_test/images/redB.png'></img>	stop	-1.0	3.0	2.0	stop	temp-non-target	B	71,Index Finger	89,Middle Finger	650.0	600.0	2100.0	2150.0	0.0	0.0	n/a	n/a	ITI
247062	500	n/a	-1	-1	500	0.0	fixation	poldrack-single-stim	108	320563	0.0-9.3-0.3	beast_fmri_test	386	320340,/	t	<div class = centerbox2><div class = fixation>+</div></div>	none	500.0	test	n/a	n/a	n/a	n/a	n/a	n/a	n/a	n/a	n/a	n/a	n/a	n/a	n/a	n/a	n/a	n/a	n/a	n/a	fixation
246915.87621120003	2750	n/a	1375	89	2750	147.1237888	stim	stop-signal	109	323314	0.0-9.3-1.3	beast_fmri_test	386	321019,/,321700,/,322380,/,323060,/	t,t,t,t	<img class = center src='/static/experiments/beast_fmri_test/images/T.png'></img>	71,89	2750.0	test	<img class = center src='/static/experiments/beast_fmri_test/images/redT.png'></img>	go	2100.0	3.0	3.0	go	target	T	71,Index Finger	89,Middle Finger	650.0	600.0	2100.0	2150.0	0.0	n/a	650.0	0.0	go_stim
249665.87621120003	147.1237888	n/a	1375	89	2750	147.1237888	stim	stop-signal	109	323314	0.0-9.3-1.3	beast_fmri_test	386	321019,/,321700,/,322380,/,323060,/	t,t,t,t	<img class = center src='/static/experiments/beast_fmri_test/images/T.png'></img>	71,89	2750.0	test	<img class = center src='/static/experiments/beast_fmri_test/images/redT.png'></img>	go	2100.0	3.0	3.0	go	target	T	71,Index Finger	89,Middle Finger	650.0	600.0	2100.0	2150.0	0.0	n/a	650.0	0.0	ITI
250468	500	n/a	-1	-1	500	0.0	fixation	poldrack-single-stim	110	323969	0.0-9.4-0.4	beast_fmri_test	386	323740,/	t	<div class = centerbox2><div class = fixation>+</div></div>	none	500.0	test	n/a	n/a	n/a	n/a	n/a	n/a	n/a	n/a	n/a	n/a	n/a	n/a	n/a	n/a	n/a	n/a	n/a	n/a	fixation
249427.33556899999	650.0	n/a	-1	-1	2750	1041.664431	stim	stop-signal	111	326720	0.0-9.4-1.4	beast_fmri_test	386	324420,/,325100,/,325780,/,326460,/,327140,/	t,t,t,t,t	<img class = center src='/static/experiments/beast_fmri_test/images/D.png'></img>	71,89	2750.0	test	<img class = center src='/static/experiments/beast_fmri_test/images/redD.png'></img>	stop	2100.0	3.0	4.0	stop	target	D	71,Index Finger	89,Middle Finger	650.0	600.0	2100.0	2150.0	0.0	1.0	650.0	n/a	go_stim
251527.33556899999	2100.0	n/a	-1	-1	2750	1041.664431	stim	stop-signal	111	326720	0.0-9.4-1.4	beast_fmri_test	386	324420,/,325100,/,325780,/,326460,/,327140,/	t,t,t,t,t	<img class = center src='/static/experiments/beast_fmri_test/images/D.png'></img>	71,89	2750.0	test	<img class = center src='/static/experiments/beast_fmri_test/images/redD.png'></img>	stop	2100.0	3.0	4.0	stop	target	D	71,Index Finger	89,Middle Finger	650.0	600.0	2100.0	2150.0	0.0	1.0	650.0	n/a	stop_stim
252177.33556899999	1041.6644310000001	n/a	-1	-1	2750	1041.664431	stim	stop-signal	111	326720	0.0-9.4-1.4	beast_fmri_test	386	324420,/,325100,/,325780,/,326460,/,327140,/	t,t,t,t,t	<img class = center src='/static/experiments/beast_fmri_test/images/D.png'></img>	71,89	2750.0	test	<img class = center src='/static/experiments/beast_fmri_test/images/redD.png'></img>	stop	2100.0	3.0	4.0	stop	target	D	71,Index Finger	89,Middle Finger	650.0	600.0	2100.0	2150.0	0.0	1.0	650.0	n/a	ITI
254767	500	n/a	-1	-1	500	0.0	fixation	poldrack-single-stim	112	328268	0.0-9.5-0.5	beast_fmri_test	386	327820,/	t	<div class = centerbox2><div class = fixation>+</div></div>	none	500.0	test	n/a	n/a	n/a	n/a	n/a	n/a	n/a	n/a	n/a	n/a	n/a	n/a	n/a	n/a	n/a	n/a	n/a	n/a	fixation
253853.98098460003	2750	n/a	916	89	2750	914.0190154	stim	stop-signal	113	331019	0.0-9.5-1.5	beast_fmri_test	386	328501,/,329180,/,329860,/,330540,/,331220,/,331900,/	t,t,t,t,t,t	<img class = center src='/static/experiments/beast_fmri_test/images/P.png'></img>	71,89	2750.0	test	<img class = center src='/static/experiments/beast_fmri_test/images/redP.png'></img>	go	2150.0	3.0	5.0	go	non-target	P	71,Index Finger	89,Middle Finger	700.0	600.0	2100.0	2150.0	1.0	n/a	600.0	1.0	go_stim
256603.98098460003	914.01901539999994	n/a	916	89	2750	914.0190154	stim	stop-signal	113	331019	0.0-9.5-1.5	beast_fmri_test	386	328501,/,329180,/,329860,/,330540,/,331220,/,331900,/	t,t,t,t,t,t	<img class = center src='/static/experiments/beast_fmri_test/images/P.png'></img>	71,89	2750.0	test	<img class = center src='/static/experiments/beast_fmri_test/images/redP.png'></img>	go	2150.0	3.0	5.0	go	non-target	P	71,Index Finger	89,Middle Finger	700.0	600.0	2100.0	2150.0	1.0	n/a	600.0	1.0	ITI
258939	500	n/a	-1	-1	500	0.0	fixation	poldrack-single-stim	114	332440	0.0-9.6-0.6	beast_fmri_test	386	n/a	n/a	<div class = centerbox2><div class = fixation>+</div></div>	none	500.0	test	n/a	n/a	n/a	n/a	n/a	n/a	n/a	n/a	n/a	n/a	n/a	n/a	n/a	n/a	n/a	n/a	n/a	n/a	fixation
256889.870758	600.0	n/a	-1	-1	2750	2051.129242	stim	stop-signal	115	335192	0.0-9.6-1.6	beast_fmri_test	386	332580,/,333260,/,333940,/,334620,/,335299,/,335979,/,336659,/	t,t,t,t,t,t,t	<img class = center src='/static/experiments/beast_fmri_test/images/D.png'></img>	71,89	2750.0	test	<img class = center src='/static/experiments/beast_fmri_test/images/redD.png'></img>	stop	2150.0	3.0	6.0	stop	non-target	D	71,Index Finger	89,Middle Finger	700.0	600.0	2100.0	2150.0	0.0	1.0	600.0	n/a	go_stim
259039.870758	2150.0	n/a	-1	-1	2750	2051.129242	stim	stop-signal	115	335192	0.0-9.6-1.6	beast_fmri_test	386	332580,/,333260,/,333940,/,334620,/,335299,/,335979,/,336659,/	t,t,t,t,t,t,t	<img class = center src='/static/experiments/beast_fmri_test/images/D.png'></img>	71,89	2750.0	test	<img class = center src='/static/experiments/beast_fmri_test/images/redD.png'></img>	stop	2150.0	3.0	6.0	stop	non-target	D	71,Index Finger	89,Middle Finger	700.0	600.0	2100.0	2150.0	0.0	1.0	600.0	n/a	stop_stim
259639.870758	2051.129242	n/a	-1	-1	2750	2051.129242	stim	stop-signal	115	335192	0.0-9.6-1.6	beast_fmri_test	386	332580,/,333260,/,333940,/,334620,/,335299,/,335979,/,336659,/	t,t,t,t,t,t,t	<img class = center src='/static/experiments/beast_fmri_test/images/D.png'></img>	71,89	2750.0	test	<img class = center src='/static/experiments/beast_fmri_test/images/redD.png'></img>	stop	2150.0	3.0	6.0	stop	non-target	D	71,Index Finger	89,Middle Finger	700.0	600.0	2100.0	2150.0	0.0	1.0	600.0	n/a	ITI
264247	500	n/a	-1	-1	500	0.0	fixation	poldrack-single-stim	116	337748	0.0-9.7-0.7	beast_fmri_test	386	337339,/	t	<div class = centerbox2><div class = fixation>+</div></div>	none	500.0	test	n/a	n/a	n/a	n/a	n/a	n/a	n/a	n/a	n/a	n/a	n/a	n/a	n/a	n/a	n/a	n/a	n/a	n/a	fixation
263851.2697143	2750	n/a	827	89	2750	398.7302857	stim	stop-signal	117	340501	0.0-9.7-1.7	beast_fmri_test	386	338020,/,338699,/,339380,/,340059,/,340740,/	t,t,t,t,t	<img class = center src='/static/experiments/beast_fmri_test/images/T.png'></img>	71,89	2750.0	test	<img class = center src='/static/experiments/beast_fmri_test/images/redT.png'></img>	go	2100.0	3.0	7.0	go	non-target	T	71,Index Finger	89,Middle Finger	700.0	650.0	2100.0	2100.0	1.0	n/a	650.0	1.0	go_stim
266601.2697143	398.73028569999997	n/a	827	89	2750	398.7302857	stim	stop-signal	117	340501	0.0-9.7-1.7	beast_fmri_test	386	338020,/,338699,/,339380,/,340059,/,340740,/	t,t,t,t,t	<img class = center src='/static/experiments/beast_fmri_test/images/T.png'></img>	71,89	2750.0	test	<img class = center src='/static/experiments/beast_fmri_test/images/redT.png'></img>	go	2100.0	3.0	7.0	go	non-target	T	71,Index Finger	89,Middle Finger	700.0	650.0	2100.0	2100.0	1.0	n/a	650.0	1.0	ITI
267905	500	n/a	-1	-1	500	0.0	fixation	poldrack-single-stim	118	341406	0.0-9.8-0.8	beast_fmri_test	386	n/a	n/a	<div class = centerbox2><div class = fixation>+</div></div>	none	500.0	test	n/a	n/a	n/a	n/a	n/a	n/a	n/a	n/a	n/a	n/a	n/a	n/a	n/a	n/a	n/a	n/a	n/a	n/a	fixation
267247.06903409999	2750	n/a	1535	89	2750	659.9309659	stim	stop-signal	119	344158	0.0-9.8-1.8	beast_fmri_test	386	341419,/,342100,/,342779,/,343460,/,344139,/	t,t,t,t,t	<img class = center src='/static/experiments/beast_fmri_test/images/B.png'></img>	71,89	2750.0	test	<img class = center src='/static/experiments/beast_fmri_test/images/redB.png'></img>	go	2100.0	3.0	8.0	go	non-target	B	71,Index Finger	89,Middle Finger	700.0	650.0	2100.0	2100.0	1.0	n/a	650.0	1.0	go_stim
269997.06903409999	659.93096590000005	n/a	1535	89	2750	659.9309659	stim	stop-signal	119	344158	0.0-9.8-1.8	beast_fmri_test	386	341419,/,342100,/,342779,/,343460,/,344139,/	t,t,t,t,t	<img class = center src='/static/experiments/beast_fmri_test/images/B.png'></img>	71,89	2750.0	test	<img class = center src='/static/experiments/beast_fmri_test/images/redB.png'></img>	go	2100.0	3.0	8.0	go	non-target	B	71,Index Finger	89,Middle Finger	700.0	650.0	2100.0	2100.0	1.0	n/a	650.0	1.0	ITI
271823	500	n/a	-1	-1	500	0.0	fixation	poldrack-single-stim	120	345324	0.0-9.9-0.9	beast_fmri_test	386	344823,/	t	<div class = centerbox2><div class = fixation>+</div></div>	none	500.0	test	n/a	n/a	n/a	n/a	n/a	n/a	n/a	n/a	n/a	n/a	n/a	n/a	n/a	n/a	n/a	n/a	n/a	n/a	fixation
269796.26326199999	2750	n/a	1054	71	2750	2027.736738	stim	stop-signal	121	348075	0.0-9.9-1.9	beast_fmri_test	386	345500,/,346179,/,346859,/,347540,/,348219,/,348901,/,349579,/	t,t,t,t,t,t,t	<img class = center src='/static/experiments/beast_fmri_test/images/D.png'></img>	71,89	2750.0	test	<img class = center src='/static/experiments/beast_fmri_test/images/redD.png'></img>	go	2050.0	3.0	9.0	go	target	D	71,Index Finger	89,Middle Finger	700.0	650.0	2050.0	2100.0	1.0	n/a	700.0	1.0	go_stim
272546.26326199999	2027.7367379999998	n/a	1054	71	2750	2027.736738	stim	stop-signal	121	348075	0.0-9.9-1.9	beast_fmri_test	386	345500,/,346179,/,346859,/,347540,/,348219,/,348901,/,349579,/	t,t,t,t,t,t,t	<img class = center src='/static/experiments/beast_fmri_test/images/D.png'></img>	71,89	2750.0	test	<img class = center src='/static/experiments/beast_fmri_test/images/redD.png'></img>	go	2050.0	3.0	9.0	go	target	D	71,Index Finger	89,Middle Finger	700.0	650.0	2050.0	2100.0	1.0	n/a	700.0	1.0	ITI
277107	500	n/a	-1	-1	500	0.0	fixation	poldrack-single-stim	122	350608	0.0-9.10-0.10	beast_fmri_test	386	350260,/	t	<div class = centerbox2><div class = fixation>+</div></div>	none	500.0	test	n/a	n/a	n/a	n/a	n/a	n/a	n/a	n/a	n/a	n/a	n/a	n/a	n/a	n/a	n/a	n/a	n/a	n/a	fixation
276641.44529030001	650.0	n/a	-1	-1	2750	467.5547097	stim	stop-signal	123	353360	0.0-9.10-1.10	beast_fmri_test	386	350939,/,351620,/,352299,/,352979,/,353659,/	t,t,t,t,t	<img class = center src='/static/experiments/beast_fmri_test/images/B.png'></img>	71,89	2750.0	test	<img class = center src='/static/experiments/beast_fmri_test/images/redB.png'></img>	stop	2100.0	3.0	10.0	stop	non-target	B	71,Index Finger	89,Middle Finger	700.0	650.0	2050.0	2100.0	0.0	1.0	650.0	n/a	go_stim
278741.44529030001	2100.0	n/a	-1	-1	2750	467.5547097	stim	stop-signal	123	353360	0.0-9.10-1.10	beast_fmri_test	386	350939,/,351620,/,352299,/,352979,/,353659,/	t,t,t,t,t	<img class = center src='/static/experiments/beast_fmri_test/images/B.png'></img>	71,89	2750.0	test	<img class = center src='/static/experiments/beast_fmri_test/images/redB.png'></img>	stop	2100.0	3.0	10.0	stop	non-target	B	71,Index Finger	89,Middle Finger	700.0	650.0	2050.0	2100.0	0.0	1.0	650.0	n/a	stop_stim
279391.44529030001	467.55470969999999	n/a	-1	-1	2750	467.5547097	stim	stop-signal	123	353360	0.0-9.10-1.10	beast_fmri_test	386	350939,/,351620,/,352299,/,352979,/,353659,/	t,t,t,t,t	<img class = center src='/static/experiments/beast_fmri_test/images/B.png'></img>	71,89	2750.0	test	<img class = center src='/static/experiments/beast_fmri_test/images/redB.png'></img>	stop	2100.0	3.0	10.0	stop	non-target	B	71,Index Finger	89,Middle Finger	700.0	650.0	2050.0	2100.0	0.0	1.0	650.0	n/a	ITI
280832	500	n/a	-1	-1	500	0.0	fixation	poldrack-single-stim	124	354333	0.0-9.11-0.11	beast_fmri_test	386	n/a	n/a	<div class = centerbox2><div class = fixation>+</div></div>	none	500.0	test	n/a	n/a	n/a	n/a	n/a	n/a	n/a	n/a	n/a	n/a	n/a	n/a	n/a	n/a	n/a	n/a	n/a	n/a	fixation
280417.676844	2750	n/a	1295	89	2750	416.323156	stim	stop-signal	125	357085	0.0-9.11-1.11	beast_fmri_test	386	354339,/,355020,/,355700,/,356380,/,357060,/	t,t,t,t,t	<img class = center src='/static/experiments/beast_fmri_test/images/T.png'></img>	71,89	2750.0	test	<img class = center src='/static/experiments/beast_fmri_test/images/redT.png'></img>	go	2050.0	3.0	11.0	go	non-target	T	71,Index Finger	89,Middle Finger	700.0	700.0	2050.0	2050.0	1.0	n/a	700.0	1.0	go_stim
283167.676844	416.32315599999998	n/a	1295	89	2750	416.323156	stim	stop-signal	125	357085	0.0-9.11-1.11	beast_fmri_test	386	354339,/,355020,/,355700,/,356380,/,357060,/	t,t,t,t,t	<img class = center src='/static/experiments/beast_fmri_test/images/T.png'></img>	71,89	2750.0	test	<img class = center src='/static/experiments/beast_fmri_test/images/redT.png'></img>	go	2050.0	3.0	11.0	go	non-target	T	71,Index Finger	89,Middle Finger	700.0	700.0	2050.0	2050.0	1.0	n/a	700.0	1.0	ITI
284507	500	n/a	-1	-1	500	0.0	fixation	poldrack-single-stim	126	358008	0.0-9.12-0.12	beast_fmri_test	386	357740,/	t	<div class = centerbox2><div class = fixation>+</div></div>	none	500.0	test	n/a	n/a	n/a	n/a	n/a	n/a	n/a	n/a	n/a	n/a	n/a	n/a	n/a	n/a	n/a	n/a	n/a	n/a	fixation
283574.0291862	700.0	n/a	-1	-1	2750	934.9708138	stim	stop-signal	127	360760	0.0-9.12-1.12	beast_fmri_test	386	358420,/,359101,/,359780,/,360460,/,361140,/	t,t,t,t,t	<img class = center src='/static/experiments/beast_fmri_test/images/B.png'></img>	71,89	2750.0	test	<img class = center src='/static/experiments/beast_fmri_test/images/redB.png'></img>	stop	2050.0	3.0	12.0	stop	non-target	B	71,Index Finger	89,Middle Finger	700.0	700.0	2050.0	2050.0	0.0	1.0	700.0	n/a	go_stim
285624.0291862	2050.0	n/a	-1	-1	2750	934.9708138	stim	stop-signal	127	360760	0.0-9.12-1.12	beast_fmri_test	386	358420,/,359101,/,359780,/,360460,/,361140,/	t,t,t,t,t	<img class = center src='/static/experiments/beast_fmri_test/images/B.png'></img>	71,89	2750.0	test	<img class = center src='/static/experiments/beast_fmri_test/images/redB.png'></img>	stop	2050.0	3.0	12.0	stop	non-target	B	71,Index Finger	89,Middle Finger	700.0	700.0	2050.0	2050.0	0.0	1.0	700.0	n/a	stop_stim
286324.0291862	934.97081379999997	n/a	-1	-1	2750	934.9708138	stim	stop-signal	127	360760	0.0-9.12-1.12	beast_fmri_test	386	358420,/,359101,/,359780,/,360460,/,361140,/	t,t,t,t,t	<img class = center src='/static/experiments/beast_fmri_test/images/B.png'></img>	71,89	2750.0	test	<img class = center src='/static/experiments/beast_fmri_test/images/redB.png'></img>	stop	2050.0	3.0	12.0	stop	non-target	B	71,Index Finger	89,Middle Finger	700.0	700.0	2050.0	2050.0	0.0	1.0	700.0	n/a	ITI
288701	500	n/a	-1	-1	500	0.0	fixation	poldrack-single-stim	128	362202	0.0-9.13-0.13	beast_fmri_test	386	361820,/	t	<div class = centerbox2><div class = fixation>+</div></div>	none	500.0	test	n/a	n/a	n/a	n/a	n/a	n/a	n/a	n/a	n/a	n/a	n/a	n/a	n/a	n/a	n/a	n/a	n/a	n/a	fixation
287888.01822129998	2750	n/a	1089	71	2750	814.9817787	stim	stop-signal	129	364954	0.0-9.13-1.13	beast_fmri_test	386	362500,/,363180,/,363860,/,364540,/,365220,/	t,t,t,t,t	<img class = center src='/static/experiments/beast_fmri_test/images/T.png'></img>	71,89	2750.0	test	<img class = center src='/static/experiments/beast_fmri_test/images/redT.png'></img>	go	2000.0	3.0	13.0	go	non-target	T	71,Index Finger	89,Middle Finger	700.0	750.0	2050.0	2000.0	0.0	n/a	750.0	0.0	go_stim
290638.01822129998	814.98177870000006	n/a	1089	71	2750	814.9817787	stim	stop-signal	129	364954	0.0-9.13-1.13	beast_fmri_test	386	362500,/,363180,/,363860,/,364540,/,365220,/	t,t,t,t,t	<img class = center src='/static/experiments/beast_fmri_test/images/T.png'></img>	71,89	2750.0	test	<img class = center src='/static/experiments/beast_fmri_test/images/redT.png'></img>	go	2000.0	3.0	13.0	go	non-target	T	71,Index Finger	89,Middle Finger	700.0	750.0	2050.0	2000.0	0.0	n/a	750.0	0.0	ITI
292774	500	n/a	-1	-1	500	0.0	fixation	poldrack-single-stim	130	366275	0.0-9.14-0.14	beast_fmri_test	386	365900,/	t	<div class = centerbox2><div class = fixation>+</div></div>	none	500.0	test	n/a	n/a	n/a	n/a	n/a	n/a	n/a	n/a	n/a	n/a	n/a	n/a	n/a	n/a	n/a	n/a	n/a	n/a	fixation
291912.60611529998	2750	n/a	1790	71	2750	864.3938847	stim	stop-signal	131	369028	0.0-9.14-1.14	beast_fmri_test	386	366580,/,367260,/,367940,/,368619,/,369301,/	t,t,t,t,t	<img class = center src='/static/experiments/beast_fmri_test/images/B.png'></img>	71,89	2750.0	test	<img class = center src='/static/experiments/beast_fmri_test/images/redB.png'></img>	go	2000.0	3.0	14.0	go	non-target	B	71,Index Finger	89,Middle Finger	700.0	750.0	2050.0	2000.0	0.0	n/a	750.0	0.0	go_stim
294662.60611529998	864.39388470000006	n/a	1790	71	2750	864.3938847	stim	stop-signal	131	369028	0.0-9.14-1.14	beast_fmri_test	386	366580,/,367260,/,367940,/,368619,/,369301,/	t,t,t,t,t	<img class = center src='/static/experiments/beast_fmri_test/images/B.png'></img>	71,89	2750.0	test	<img class = center src='/static/experiments/beast_fmri_test/images/redB.png'></img>	go	2000.0	3.0	14.0	go	non-target	B	71,Index Finger	89,Middle Finger	700.0	750.0	2050.0	2000.0	0.0	n/a	750.0	0.0	ITI
296898	500	n/a	-1	-1	500	0.0	fixation	poldrack-single-stim	132	370399	0.0-9.15-0.15	beast_fmri_test	386	369980,/	t	<div class = centerbox2><div class = fixation>+</div></div>	none	500.0	test	n/a	n/a	n/a	n/a	n/a	n/a	n/a	n/a	n/a	n/a	n/a	n/a	n/a	n/a	n/a	n/a	n/a	n/a	fixation
293897.029752	2750	n/a	1516	71	2750	3002.970248	stim	stop-signal	133	373151	0.0-9.15-1.15	beast_fmri_test	386	370660,/,371339,/,372020,/,372700,/,373379,/,374060,/,374740,/,375419,/,376100,/	t,t,t,t,t,t,t,t,t	<img class = center src='/static/experiments/beast_fmri_test/images/D.png'></img>	71,89	2750.0	test	<img class = center src='/static/experiments/beast_fmri_test/images/redD.png'></img>	go	2000.0	3.0	15.0	go	non-target	D	71,Index Finger	89,Middle Finger	700.0	750.0	2050.0	2000.0	0.0	n/a	750.0	0.0	go_stim
296647.029752	3002.9702480000001	n/a	1516	71	2750	3002.970248	stim	stop-signal	133	373151	0.0-9.15-1.15	beast_fmri_test	386	370660,/,371339,/,372020,/,372700,/,373379,/,374060,/,374740,/,375419,/,376100,/	t,t,t,t,t,t,t,t,t	<img class = center src='/static/experiments/beast_fmri_test/images/D.png'></img>	71,89	2750.0	test	<img class = center src='/static/experiments/beast_fmri_test/images/redD.png'></img>	go	2000.0	3.0	15.0	go	non-target	D	71,Index Finger	89,Middle Finger	700.0	750.0	2050.0	2000.0	0.0	n/a	750.0	0.0	ITI
303160	500	n/a	-1	-1	500	0.0	fixation	poldrack-single-stim	134	376661	0.0-9.16-0.16	beast_fmri_test	386	n/a	n/a	<div class = centerbox2><div class = fixation>+</div></div>	none	500.0	test	n/a	n/a	n/a	n/a	n/a	n/a	n/a	n/a	n/a	n/a	n/a	n/a	n/a	n/a	n/a	n/a	n/a	n/a	fixation
302333.29002030002	2750	n/a	2086	71	2750	827.7099797	stim	stop-signal	135	379412	0.0-9.16-1.16	beast_fmri_test	386	376779,/,377460,/,378139,/,378820,/,379501,/,380179,/	t,t,t,t,t,t	<img class = center src='/static/experiments/beast_fmri_test/images/T.png'></img>	71,89	2750.0	test	<img class = center src='/static/experiments/beast_fmri_test/images/redT.png'></img>	go	2050.0	3.0	16.0	go	target	T	71,Index Finger	89,Middle Finger	700.0	750.0	2050.0	2000.0	1.0	n/a	700.0	1.0	go_stim
305083.29002030002	827.70997970000008	n/a	2086	71	2750	827.7099797	stim	stop-signal	135	379412	0.0-9.16-1.16	beast_fmri_test	386	376779,/,377460,/,378139,/,378820,/,379501,/,380179,/	t,t,t,t,t,t	<img class = center src='/static/experiments/beast_fmri_test/images/T.png'></img>	71,89	2750.0	test	<img class = center src='/static/experiments/beast_fmri_test/images/redT.png'></img>	go	2050.0	3.0	16.0	go	target	T	71,Index Finger	89,Middle Finger	700.0	750.0	2050.0	2000.0	1.0	n/a	700.0	1.0	ITI
307246	500	n/a	-1	-1	500	0.0	fixation	poldrack-single-stim	136	380747	0.0-9.17-0.17	beast_fmri_test	386	n/a	n/a	<div class = centerbox2><div class = fixation>+</div></div>	none	500.0	test	n/a	n/a	n/a	n/a	n/a	n/a	n/a	n/a	n/a	n/a	n/a	n/a	n/a	n/a	n/a	n/a	n/a	n/a	fixation
307004.16788219998	750.0	n/a	1214	89	2750	244.8321178	stim	stop-signal	137	383500	0.0-9.17-1.17	beast_fmri_test	386	380860,/,381539,/,382219,/,382899,/,383580,/	t,t,t,t,t	<img class = center src='/static/experiments/beast_fmri_test/images/V.png'></img>	71,89	2750.0	test	<img class = center src='/static/experiments/beast_fmri_test/images/redV.png'></img>	stop	2000.0	3.0	17.0	stop	non-target	V	71,Index Finger	89,Middle Finger	700.0	750.0	2050.0	2000.0	0.0	0.0	750.0	n/a	go_stim
309004.16788219998	2000.0	n/a	1214	89	2750	244.8321178	stim	stop-signal	137	383500	0.0-9.17-1.17	beast_fmri_test	386	380860,/,381539,/,382219,/,382899,/,383580,/	t,t,t,t,t	<img class = center src='/static/experiments/beast_fmri_test/images/V.png'></img>	71,89	2750.0	test	<img class = center src='/static/experiments/beast_fmri_test/images/redV.png'></img>	stop	2000.0	3.0	17.0	stop	non-target	V	71,Index Finger	89,Middle Finger	700.0	750.0	2050.0	2000.0	0.0	0.0	750.0	n/a	stop_stim
309754.16788219998	244.83211780000002	n/a	1214	89	2750	244.8321178	stim	stop-signal	137	383500	0.0-9.17-1.17	beast_fmri_test	386	380860,/,381539,/,382219,/,382899,/,383580,/	t,t,t,t,t	<img class = center src='/static/experiments/beast_fmri_test/images/V.png'></img>	71,89	2750.0	test	<img class = center src='/static/experiments/beast_fmri_test/images/redV.png'></img>	stop	2000.0	3.0	17.0	stop	non-target	V	71,Index Finger	89,Middle Finger	700.0	750.0	2050.0	2000.0	0.0	0.0	750.0	n/a	ITI
310749	500	n/a	-1	-1	500	0.0	fixation	poldrack-single-stim	138	384250	0.0-9.18-0.18	beast_fmri_test	386	n/a	n/a	<div class = centerbox2><div class = fixation>+</div></div>	none	500.0	test	n/a	n/a	n/a	n/a	n/a	n/a	n/a	n/a	n/a	n/a	n/a	n/a	n/a	n/a	n/a	n/a	n/a	n/a	fixation
310352.27559899999	2750	n/a	1354	71	2750	397.724401	stim	stop-signal	139	387001	0.0-9.18-1.18	beast_fmri_test	386	384259,/,384939,/,385619,/,386299,/,386979,/	t,t,t,t,t	<img class = center src='/static/experiments/beast_fmri_test/images/B.png'></img>	71,89	2750.0	test	<img class = center src='/static/experiments/beast_fmri_test/images/redB.png'></img>	go	2050.0	3.0	18.0	go	non-target	B	71,Index Finger	89,Middle Finger	700.0	700.0	2050.0	2050.0	0.0	n/a	700.0	0.0	go_stim
313102.27559899999	397.724401	n/a	1354	71	2750	397.724401	stim	stop-signal	139	387001	0.0-9.18-1.18	beast_fmri_test	386	384259,/,384939,/,385619,/,386299,/,386979,/	t,t,t,t,t	<img class = center src='/static/experiments/beast_fmri_test/images/B.png'></img>	71,89	2750.0	test	<img class = center src='/static/experiments/beast_fmri_test/images/redB.png'></img>	go	2050.0	3.0	18.0	go	non-target	B	71,Index Finger	89,Middle Finger	700.0	700.0	2050.0	2050.0	0.0	n/a	700.0	0.0	ITI
314403	500	n/a	-1	-1	500	0.0	fixation	poldrack-single-stim	140	387904	0.0-9.19-0.19	beast_fmri_test	386	387660,/	t	<div class = centerbox2><div class = fixation>+</div></div>	none	500.0	test	n/a	n/a	n/a	n/a	n/a	n/a	n/a	n/a	n/a	n/a	n/a	n/a	n/a	n/a	n/a	n/a	n/a	n/a	fixation
312950.49995999999	700.0	n/a	-1	-1	2750	1454.50004	stim	stop-signal	141	390656	0.0-9.19-1.19	beast_fmri_test	386	388339,/,389019,/,389701,/,390380,/,391060,/,391740,/	t,t,t,t,t,t	<img class = center src='/static/experiments/beast_fmri_test/images/D.png'></img>	71,89	2750.0	test	<img class = center src='/static/experiments/beast_fmri_test/images/redD.png'></img>	stop	2050.0	3.0	19.0	stop	non-target	D	71,Index Finger	89,Middle Finger	700.0	700.0	2050.0	2050.0	0.0	1.0	700.0	n/a	go_stim
315000.49995999999	2050.0	n/a	-1	-1	2750	1454.50004	stim	stop-signal	141	390656	0.0-9.19-1.19	beast_fmri_test	386	388339,/,389019,/,389701,/,390380,/,391060,/,391740,/	t,t,t,t,t,t	<img class = center src='/static/experiments/beast_fmri_test/images/D.png'></img>	71,89	2750.0	test	<img class = center src='/static/experiments/beast_fmri_test/images/redD.png'></img>	stop	2050.0	3.0	19.0	stop	non-target	D	71,Index Finger	89,Middle Finger	700.0	700.0	2050.0	2050.0	0.0	1.0	700.0	n/a	stop_stim
315700.49995999999	1454.5000400000001	n/a	-1	-1	2750	1454.50004	stim	stop-signal	141	390656	0.0-9.19-1.19	beast_fmri_test	386	388339,/,389019,/,389701,/,390380,/,391060,/,391740,/	t,t,t,t,t,t	<img class = center src='/static/experiments/beast_fmri_test/images/D.png'></img>	71,89	2750.0	test	<img class = center src='/static/experiments/beast_fmri_test/images/redD.png'></img>	stop	2050.0	3.0	19.0	stop	non-target	D	71,Index Finger	89,Middle Finger	700.0	700.0	2050.0	2050.0	0.0	1.0	700.0	n/a	ITI
319117	500	n/a	-1	-1	500	0.0	fixation	poldrack-single-stim	142	392618	0.0-9.20-0.20	beast_fmri_test	386	392420,/	t	<div class = centerbox2><div class = fixation>+</div></div>	none	500.0	test	n/a	n/a	n/a	n/a	n/a	n/a	n/a	n/a	n/a	n/a	n/a	n/a	n/a	n/a	n/a	n/a	n/a	n/a	fixation
317569.74578	2750	n/a	1362	89	2750	1548.25422	stim	stop-signal	143	395369	0.0-9.20-1.20	beast_fmri_test	386	393100,/,393780,/,394460,/,395140,/,395820,/,396500,/	t,t,t,t,t,t	<img class = center src='/static/experiments/beast_fmri_test/images/D.png'></img>	71,89	2750.0	test	<img class = center src='/static/experiments/beast_fmri_test/images/redD.png'></img>	go	2000.0	3.0	20.0	go	non-target	D	71,Index Finger	89,Middle Finger	700.0	750.0	2050.0	2000.0	1.0	n/a	750.0	1.0	go_stim
320319.74578	1548.25422	n/a	1362	89	2750	1548.25422	stim	stop-signal	143	395369	0.0-9.20-1.20	beast_fmri_test	386	393100,/,393780,/,394460,/,395140,/,395820,/,396500,/	t,t,t,t,t,t	<img class = center src='/static/experiments/beast_fmri_test/images/D.png'></img>	71,89	2750.0	test	<img class = center src='/static/experiments/beast_fmri_test/images/redD.png'></img>	go	2000.0	3.0	20.0	go	non-target	D	71,Index Finger	89,Middle Finger	700.0	750.0	2050.0	2000.0	1.0	n/a	750.0	1.0	ITI
323923	500	n/a	-1	-1	500	0.0	fixation	poldrack-single-stim	144	397424	0.0-9.21-0.21	beast_fmri_test	386	397180,/	t	<div class = centerbox2><div class = fixation>+</div></div>	none	500.0	test	n/a	n/a	n/a	n/a	n/a	n/a	n/a	n/a	n/a	n/a	n/a	n/a	n/a	n/a	n/a	n/a	n/a	n/a	fixation
323618.32972610003	2750	n/a	1695	89	2750	305.6702739	stim	stop-signal	145	400175	0.0-9.21-1.21	beast_fmri_test	386	397860,/,398540,/,399220,/,399900,/	t,t,t,t	<img class = center src='/static/experiments/beast_fmri_test/images/V.png'></img>	71,89	2750.0	test	<img class = center src='/static/experiments/beast_fmri_test/images/redV.png'></img>	go	2000.0	3.0	21.0	go	non-target	V	71,Index Finger	89,Middle Finger	700.0	750.0	2050.0	2000.0	1.0	n/a	750.0	1.0	go_stim
326368.32972610003	305.67027389999998	n/a	1695	89	2750	305.6702739	stim	stop-signal	145	400175	0.0-9.21-1.21	beast_fmri_test	386	397860,/,398540,/,399220,/,399900,/	t,t,t,t	<img class = center src='/static/experiments/beast_fmri_test/images/V.png'></img>	71,89	2750.0	test	<img class = center src='/static/experiments/beast_fmri_test/images/redV.png'></img>	go	2000.0	3.0	21.0	go	non-target	V	71,Index Finger	89,Middle Finger	700.0	750.0	2050.0	2000.0	1.0	n/a	750.0	1.0	ITI
327487	500	n/a	-1	-1	500	0.0	fixation	poldrack-single-stim	146	400988	0.0-9.22-0.22	beast_fmri_test	386	400580,/	t	<div class = centerbox2><div class = fixation>+</div></div>	none	500.0	test	n/a	n/a	n/a	n/a	n/a	n/a	n/a	n/a	n/a	n/a	n/a	n/a	n/a	n/a	n/a	n/a	n/a	n/a	fixation
326915.61876380001	2750	n/a	1231	89	2750	573.3812362	stim	stop-signal	147	403740	0.0-9.22-1.22	beast_fmri_test	386	401260,/,401940,/,402619,/,403300,/,403980,/	t,t,t,t,t	<img class = center src='/static/experiments/beast_fmri_test/images/P.png'></img>	71,89	2750.0	test	<img class = center src='/static/experiments/beast_fmri_test/images/redP.png'></img>	go	2000.0	3.0	22.0	go	non-target	P	71,Index Finger	89,Middle Finger	700.0	750.0	2050.0	2000.0	1.0	n/a	750.0	1.0	go_stim
329665.61876380001	573.3812362000001	n/a	1231	89	2750	573.3812362	stim	stop-signal	147	403740	0.0-9.22-1.22	beast_fmri_test	386	401260,/,401940,/,402619,/,403300,/,403980,/	t,t,t,t,t	<img class = center src='/static/experiments/beast_fmri_test/images/P.png'></img>	71,89	2750.0	test	<img class = center src='/static/experiments/beast_fmri_test/images/redP.png'></img>	go	2000.0	3.0	22.0	go	non-target	P	71,Index Finger	89,Middle Finger	700.0	750.0	2050.0	2000.0	1.0	n/a	750.0	1.0	ITI
331321	500	n/a	-1	-1	500	0.0	fixation	poldrack-single-stim	148	404822	0.0-9.23-0.23	beast_fmri_test	386	404660,/	t	<div class = centerbox2><div class = fixation>+</div></div>	none	500.0	test	n/a	n/a	n/a	n/a	n/a	n/a	n/a	n/a	n/a	n/a	n/a	n/a	n/a	n/a	n/a	n/a	n/a	n/a	fixation
