onset	duration	text	rt	key_press	block_duration	timing_post_trial	trial_id	trial_type	trial_index	time_elapsed	internal_node_id	exp_id	subject_id	trigger_times	triggers	stimulus	possible_responses	stim_duration	exp_stage	SS_stimulus	SS_trial_type	SS_duration	load	trial_num	stop_trial_type	adaptive_trial_type	stim	yes_response_key	no_response_key	SSD_target	SSD_non_target	SSTarget	SSNonTarget	go_acc	SS_delay	adaptive_acc	stop_acc	new_trial_type
test	10880	n/a	-1	-1	10880	0.0	practice-no-stop-feedback	poldrack-single-stim	386	1092099	0.0-16.0	beast_fmri_test	306	18.019766666666666,18.0311,18.042866666666665,18.053733333333334,18.065083333333334,18.0764,18.08775,18.099083333333333,18.110416666666666,18.12175,18.133066666666668,18.1444,18.155733333333334,18.1671,18.178433333333334,18.18975,18.201066666666666	t,t,t,t,t,t,t,t,t,t,t,t,t,t,t,t,t	"<div class = ""centerbox""><p class = ""center-block-text"">Your delay is 1 trials.</p><p class = center-block-text>Please wait for the scanner to start the block</p></div>"	77	10880.0	n/a	n/a	n/a	n/a	n/a	n/a	n/a	n/a	n/a	n/a	n/a	n/a	n/a	n/a	n/a	n/a	n/a	n/a	n/a	start_functional_block
11417.0	500	n/a	-1	-1	500	0.0	fixation	poldrack-single-stim	387	1092603	0.0-17.0-0.0	beast_fmri_test	306	n/a	n/a	<div class = centerbox><div class = fixation>+</div></div>	none	500.0	test	n/a	n/a	n/a	n/a	n/a	n/a	n/a	n/a	n/a	n/a	n/a	n/a	n/a	n/a	n/a	n/a	n/a	n/a	fixation
11258.98843522137	temp_go_duration	n/a	945	89	2750	159.011564779	stim	stop-signal	388	1095354	0.0-17.0-1.0	beast_fmri_test	306	18.212416666666666,18.223716666666668,18.235,18.246333333333332,18.25765	t,t,t,t,t	<img class = center src='/static/experiments/beast_fmri_test/images/D.png'></img>	71,89	2750.0	test	<img class = center src='/static/experiments/beast_fmri_test/images/redD.png'></img>	stop	-1.0	1.0	0.0	stop	temp-non-target	D	71,Green Button	89,Yellow Button	300.0	300.0	2500.0	2450.0	0.0	n/a	n/a	0.0	go_stim
temp-non-target	temp_stop_duration	n/a	945	89	2750	159.011564779	stim	stop-signal	388	1095354	0.0-17.0-1.0	beast_fmri_test	306	18.212416666666666,18.223716666666668,18.235,18.246333333333332,18.25765	t,t,t,t,t	<img class = center src='/static/experiments/beast_fmri_test/images/D.png'></img>	71,89	2750.0	test	<img class = center src='/static/experiments/beast_fmri_test/images/redD.png'></img>	stop	-1.0	1.0	0.0	stop	temp-non-target	D	71,Green Button	89,Yellow Button	300.0	300.0	2500.0	2450.0	0.0	n/a	n/a	0.0	stop_stim
14008.98843522137	159.01156477868437	n/a	945	89	2750	159.011564779	stim	stop-signal	388	1095354	0.0-17.0-1.0	beast_fmri_test	306	18.212416666666666,18.223716666666668,18.235,18.246333333333332,18.25765	t,t,t,t,t	<img class = center src='/static/experiments/beast_fmri_test/images/D.png'></img>	71,89	2750.0	test	<img class = center src='/static/experiments/beast_fmri_test/images/redD.png'></img>	stop	-1.0	1.0	0.0	stop	temp-non-target	D	71,Green Button	89,Yellow Button	300.0	300.0	2500.0	2450.0	0.0	n/a	n/a	0.0	ITI
14870.0	500	n/a	-1	-1	500	0.0	fixation	poldrack-single-stim	389	1096056	0.0-17.1-0.1	beast_fmri_test	306	n/a	n/a	<div class = centerbox><div class = fixation>+</div></div>	none	500.0	test	n/a	n/a	n/a	n/a	n/a	n/a	n/a	n/a	n/a	n/a	n/a	n/a	n/a	n/a	n/a	n/a	n/a	n/a	fixation
13988.754735308466	300.0	n/a	502	71	2750	884.245264691	stim	stop-signal	390	1098809	0.0-17.1-1.1	beast_fmri_test	306	18.269016666666666,18.28035,18.291666666666668,18.303,18.314316666666667,18.32565	t,t,t,t,t,t	<img class = center src='/static/experiments/beast_fmri_test/images/D.png'></img>	71,89	2750.0	test	<img class = center src='/static/experiments/beast_fmri_test/images/redD.png'></img>	stop	2450.0	1.0	1.0	stop	target	D	71,Green Button	89,Yellow Button	300.0	300.0	2450.0	2450.0	0.0	300.0	1.0	0.0	go_stim
16438.754735308466	2450.0	n/a	502	71	2750	884.245264691	stim	stop-signal	390	1098809	0.0-17.1-1.1	beast_fmri_test	306	18.269016666666666,18.28035,18.291666666666668,18.303,18.314316666666667,18.32565	t,t,t,t,t,t	<img class = center src='/static/experiments/beast_fmri_test/images/D.png'></img>	71,89	2750.0	test	<img class = center src='/static/experiments/beast_fmri_test/images/redD.png'></img>	stop	2450.0	1.0	1.0	stop	target	D	71,Green Button	89,Yellow Button	300.0	300.0	2450.0	2450.0	0.0	300.0	1.0	0.0	stop_stim
16738.754735308466	884.2452646914661	n/a	502	71	2750	884.245264691	stim	stop-signal	390	1098809	0.0-17.1-1.1	beast_fmri_test	306	18.269016666666666,18.28035,18.291666666666668,18.303,18.314316666666667,18.32565	t,t,t,t,t,t	<img class = center src='/static/experiments/beast_fmri_test/images/D.png'></img>	71,89	2750.0	test	<img class = center src='/static/experiments/beast_fmri_test/images/redD.png'></img>	stop	2450.0	1.0	1.0	stop	target	D	71,Green Button	89,Yellow Button	300.0	300.0	2450.0	2450.0	0.0	300.0	1.0	0.0	ITI
19045.0	500	n/a	-1	-1	500	0.0	fixation	poldrack-single-stim	391	1100231	0.0-17.2-0.2	beast_fmri_test	306	18.337	t	<div class = centerbox><div class = fixation>+</div></div>	none	500.0	test	n/a	n/a	n/a	n/a	n/a	n/a	n/a	n/a	n/a	n/a	n/a	n/a	n/a	n/a	n/a	n/a	n/a	n/a	fixation
16729.336311327759	2750	n/a	641	89	2750	2318.66368867	stim	stop-signal	392	1102984	0.0-17.2-1.2	beast_fmri_test	306	18.348333333333333,18.359683333333333,18.371,18.38235,18.39365,18.40495,18.416283333333332	t,t,t,t,t,t,t	<img class = center src='/static/experiments/beast_fmri_test/images/T.png'></img>	71,89	2750.0	test	<img class = center src='/static/experiments/beast_fmri_test/images/redT.png'></img>	go	2450.0	1.0	2.0	go	non-target	T	71,Green Button	89,Yellow Button	250.0	300.0	2450.0	2450.0	1.0	300.0	1.0	n/a	go_stim
19479.336311327759	2318.6636886721931	n/a	641	89	2750	2318.66368867	stim	stop-signal	392	1102984	0.0-17.2-1.2	beast_fmri_test	306	18.348333333333333,18.359683333333333,18.371,18.38235,18.39365,18.40495,18.416283333333332	t,t,t,t,t,t,t	<img class = center src='/static/experiments/beast_fmri_test/images/T.png'></img>	71,89	2750.0	test	<img class = center src='/static/experiments/beast_fmri_test/images/redT.png'></img>	go	2450.0	1.0	2.0	go	non-target	T	71,Green Button	89,Yellow Button	250.0	300.0	2450.0	2450.0	1.0	300.0	1.0	n/a	ITI
24652.0	500	n/a	-1	-1	500	0.0	fixation	poldrack-single-stim	393	1105838	0.0-17.3-0.3	beast_fmri_test	306	18.427616666666665	t	<div class = centerbox><div class = fixation>+</div></div>	none	500.0	test	n/a	n/a	n/a	n/a	n/a	n/a	n/a	n/a	n/a	n/a	n/a	n/a	n/a	n/a	n/a	n/a	n/a	n/a	fixation
23241.856871858239	2750	n/a	375	71	2750	1414.14312814	stim	stop-signal	394	1108592	0.0-17.3-1.3	beast_fmri_test	306	18.438933333333335,18.450266666666668,18.461616666666668,18.47295,18.484283333333334,18.495616666666667	t,t,t,t,t,t	<img class = center src='/static/experiments/beast_fmri_test/images/T.png'></img>	71,89	2750.0	test	<img class = center src='/static/experiments/beast_fmri_test/images/redT.png'></img>	go	2500.0	1.0	3.0	go	target	T	71,Green Button	89,Yellow Button	250.0	300.0	2500.0	2450.0	1.0	250.0	1.0	n/a	go_stim
25991.856871858239	1414.1431281417972	n/a	375	71	2750	1414.14312814	stim	stop-signal	394	1108592	0.0-17.3-1.3	beast_fmri_test	306	18.438933333333335,18.450266666666668,18.461616666666668,18.47295,18.484283333333334,18.495616666666667	t,t,t,t,t,t	<img class = center src='/static/experiments/beast_fmri_test/images/T.png'></img>	71,89	2750.0	test	<img class = center src='/static/experiments/beast_fmri_test/images/redT.png'></img>	go	2500.0	1.0	3.0	go	target	T	71,Green Button	89,Yellow Button	250.0	300.0	2500.0	2450.0	1.0	250.0	1.0	n/a	ITI
29361.0	500	n/a	-1	-1	500	0.0	fixation	poldrack-single-stim	395	1110547	0.0-17.4-0.4	beast_fmri_test	306	18.506916666666665	t	<div class = centerbox><div class = fixation>+</div></div>	none	500.0	test	n/a	n/a	n/a	n/a	n/a	n/a	n/a	n/a	n/a	n/a	n/a	n/a	n/a	n/a	n/a	n/a	n/a	n/a	fixation
29040.265863910085	250.0	n/a	-1	-1	2750	321.73413609	stim	stop-signal	396	1113298	0.0-17.4-1.4	beast_fmri_test	306	18.518266666666666,18.529616666666666,18.54095,18.552266666666668	t,t,t,t	<img class = center src='/static/experiments/beast_fmri_test/images/T.png'></img>	71,89	2750.0	test	<img class = center src='/static/experiments/beast_fmri_test/images/redT.png'></img>	stop	2500.0	1.0	4.0	stop	target	T	71,Green Button	89,Yellow Button	250.0	300.0	2500.0	2450.0	0.0	250.0	0.0	1.0	go_stim
31540.265863910085	2500.0	n/a	-1	-1	2750	321.73413609	stim	stop-signal	396	1113298	0.0-17.4-1.4	beast_fmri_test	306	18.518266666666666,18.529616666666666,18.54095,18.552266666666668	t,t,t,t	<img class = center src='/static/experiments/beast_fmri_test/images/T.png'></img>	71,89	2750.0	test	<img class = center src='/static/experiments/beast_fmri_test/images/redT.png'></img>	stop	2500.0	1.0	4.0	stop	target	T	71,Green Button	89,Yellow Button	250.0	300.0	2500.0	2450.0	0.0	250.0	0.0	1.0	stop_stim
31790.265863910085	321.7341360899818	n/a	-1	-1	2750	321.73413609	stim	stop-signal	396	1113298	0.0-17.4-1.4	beast_fmri_test	306	18.518266666666666,18.529616666666666,18.54095,18.552266666666668	t,t,t,t	<img class = center src='/static/experiments/beast_fmri_test/images/T.png'></img>	71,89	2750.0	test	<img class = center src='/static/experiments/beast_fmri_test/images/redT.png'></img>	stop	2500.0	1.0	4.0	stop	target	T	71,Green Button	89,Yellow Button	250.0	300.0	2500.0	2450.0	0.0	250.0	0.0	1.0	ITI
32974.0	500	n/a	-1	-1	500	0.0	fixation	poldrack-single-stim	397	1114160	0.0-17.5-0.5	beast_fmri_test	306	18.563533333333332	t	<div class = centerbox><div class = fixation>+</div></div>	none	500.0	test	n/a	n/a	n/a	n/a	n/a	n/a	n/a	n/a	n/a	n/a	n/a	n/a	n/a	n/a	n/a	n/a	n/a	n/a	fixation
32656.802118440159	300.0	n/a	470	71	2750	320.19788156	stim	stop-signal	398	1116913	0.0-17.5-1.5	beast_fmri_test	306	18.574866666666665,18.5862,18.597516666666667,18.608866666666668,18.620183333333333	t,t,t,t,t	<img class = center src='/static/experiments/beast_fmri_test/images/T.png'></img>	71,89	2750.0	test	<img class = center src='/static/experiments/beast_fmri_test/images/redT.png'></img>	stop	2450.0	1.0	5.0	stop	target	T	71,Green Button	89,Yellow Button	300.0	300.0	2450.0	2450.0	0.0	300.0	1.0	0.0	go_stim
35106.802118440159	2450.0	n/a	470	71	2750	320.19788156	stim	stop-signal	398	1116913	0.0-17.5-1.5	beast_fmri_test	306	18.574866666666665,18.5862,18.597516666666667,18.608866666666668,18.620183333333333	t,t,t,t,t	<img class = center src='/static/experiments/beast_fmri_test/images/T.png'></img>	71,89	2750.0	test	<img class = center src='/static/experiments/beast_fmri_test/images/redT.png'></img>	stop	2450.0	1.0	5.0	stop	target	T	71,Green Button	89,Yellow Button	300.0	300.0	2450.0	2450.0	0.0	300.0	1.0	0.0	stop_stim
35406.802118440159	320.19788155975584	n/a	470	71	2750	320.19788156	stim	stop-signal	398	1116913	0.0-17.5-1.5	beast_fmri_test	306	18.574866666666665,18.5862,18.597516666666667,18.608866666666668,18.620183333333333	t,t,t,t,t	<img class = center src='/static/experiments/beast_fmri_test/images/T.png'></img>	71,89	2750.0	test	<img class = center src='/static/experiments/beast_fmri_test/images/redT.png'></img>	stop	2450.0	1.0	5.0	stop	target	T	71,Green Button	89,Yellow Button	300.0	300.0	2450.0	2450.0	0.0	300.0	1.0	0.0	ITI
36593.0	500	n/a	-1	-1	500	0.0	fixation	poldrack-single-stim	399	1117779	0.0-17.6-0.6	beast_fmri_test	306	n/a	n/a	<div class = centerbox><div class = fixation>+</div></div>	none	500.0	test	n/a	n/a	n/a	n/a	n/a	n/a	n/a	n/a	n/a	n/a	n/a	n/a	n/a	n/a	n/a	n/a	n/a	n/a	fixation
35871.216817684239	2750	n/a	473	89	2750	725.783182316	stim	stop-signal	400	1120533	0.0-17.6-1.6	beast_fmri_test	306	18.631533333333334,18.642866666666666,18.6542,18.665533333333332,18.676833333333335	t,t,t,t,t	<img class = center src='/static/experiments/beast_fmri_test/images/B.png'></img>	71,89	2750.0	test	<img class = center src='/static/experiments/beast_fmri_test/images/redB.png'></img>	go	2450.0	1.0	6.0	go	non-target	B	71,Green Button	89,Yellow Button	250.0	300.0	2450.0	2450.0	1.0	300.0	1.0	n/a	go_stim
38621.216817684239	725.7831823158383	n/a	473	89	2750	725.783182316	stim	stop-signal	400	1120533	0.0-17.6-1.6	beast_fmri_test	306	18.631533333333334,18.642866666666666,18.6542,18.665533333333332,18.676833333333335	t,t,t,t,t	<img class = center src='/static/experiments/beast_fmri_test/images/B.png'></img>	71,89	2750.0	test	<img class = center src='/static/experiments/beast_fmri_test/images/redB.png'></img>	go	2450.0	1.0	6.0	go	non-target	B	71,Green Button	89,Yellow Button	250.0	300.0	2450.0	2450.0	1.0	300.0	1.0	n/a	ITI
40620.0	500	n/a	-1	-1	500	0.0	fixation	poldrack-single-stim	401	1121806	0.0-17.7-0.7	beast_fmri_test	306	18.688366666666667	t	<div class = centerbox><div class = fixation>+</div></div>	none	500.0	test	n/a	n/a	n/a	n/a	n/a	n/a	n/a	n/a	n/a	n/a	n/a	n/a	n/a	n/a	n/a	n/a	n/a	n/a	fixation
40336.515369579196	300.0	n/a	-1	-1	2750	281.484630421	stim	stop-signal	402	1124554	0.0-17.7-1.7	beast_fmri_test	306	18.699516666666668,18.710866666666668,18.722183333333334,18.733466666666665,18.74475	t,t,t,t,t	<img class = center src='/static/experiments/beast_fmri_test/images/D.png'></img>	71,89	2750.0	test	<img class = center src='/static/experiments/beast_fmri_test/images/redD.png'></img>	stop	2450.0	1.0	7.0	stop	non-target	D	71,Green Button	89,Yellow Button	250.0	300.0	2450.0	2450.0	0.0	300.0	0.0	1.0	go_stim
42786.515369579196	2450.0	n/a	-1	-1	2750	281.484630421	stim	stop-signal	402	1124554	0.0-17.7-1.7	beast_fmri_test	306	18.699516666666668,18.710866666666668,18.722183333333334,18.733466666666665,18.74475	t,t,t,t,t	<img class = center src='/static/experiments/beast_fmri_test/images/D.png'></img>	71,89	2750.0	test	<img class = center src='/static/experiments/beast_fmri_test/images/redD.png'></img>	stop	2450.0	1.0	7.0	stop	non-target	D	71,Green Button	89,Yellow Button	250.0	300.0	2450.0	2450.0	0.0	300.0	0.0	1.0	stop_stim
43086.515369579196	281.48463042084052	n/a	-1	-1	2750	281.484630421	stim	stop-signal	402	1124554	0.0-17.7-1.7	beast_fmri_test	306	18.699516666666668,18.710866666666668,18.722183333333334,18.733466666666665,18.74475	t,t,t,t,t	<img class = center src='/static/experiments/beast_fmri_test/images/D.png'></img>	71,89	2750.0	test	<img class = center src='/static/experiments/beast_fmri_test/images/redD.png'></img>	stop	2450.0	1.0	7.0	stop	non-target	D	71,Green Button	89,Yellow Button	250.0	300.0	2450.0	2450.0	0.0	300.0	0.0	1.0	ITI
44192.0	500	n/a	-1	-1	500	0.0	fixation	poldrack-single-stim	403	1125378	0.0-17.8-0.8	beast_fmri_test	306	18.756116666666667	t	<div class = centerbox><div class = fixation>+</div></div>	none	500.0	test	n/a	n/a	n/a	n/a	n/a	n/a	n/a	n/a	n/a	n/a	n/a	n/a	n/a	n/a	n/a	n/a	n/a	n/a	fixation
44119.673625639873	350.0	n/a	-1	-1	2750	76.3263743602	stim	stop-signal	404	1128132	0.0-17.8-1.8	beast_fmri_test	306	18.767433333333333,18.778783333333333,18.790116666666666,18.80145	t,t,t,t	<img class = center src='/static/experiments/beast_fmri_test/images/P.png'></img>	71,89	2750.0	test	<img class = center src='/static/experiments/beast_fmri_test/images/redP.png'></img>	stop	2400.0	1.0	8.0	stop	non-target	P	71,Green Button	89,Yellow Button	250.0	350.0	2450.0	2400.0	0.0	350.0	0.0	1.0	go_stim
46519.673625639873	2400.0	n/a	-1	-1	2750	76.3263743602	stim	stop-signal	404	1128132	0.0-17.8-1.8	beast_fmri_test	306	18.767433333333333,18.778783333333333,18.790116666666666,18.80145	t,t,t,t	<img class = center src='/static/experiments/beast_fmri_test/images/P.png'></img>	71,89	2750.0	test	<img class = center src='/static/experiments/beast_fmri_test/images/redP.png'></img>	stop	2400.0	1.0	8.0	stop	non-target	P	71,Green Button	89,Yellow Button	250.0	350.0	2450.0	2400.0	0.0	350.0	0.0	1.0	stop_stim
46869.673625639873	76.326374360205989	n/a	-1	-1	2750	76.3263743602	stim	stop-signal	404	1128132	0.0-17.8-1.8	beast_fmri_test	306	18.767433333333333,18.778783333333333,18.790116666666666,18.80145	t,t,t,t	<img class = center src='/static/experiments/beast_fmri_test/images/P.png'></img>	71,89	2750.0	test	<img class = center src='/static/experiments/beast_fmri_test/images/redP.png'></img>	stop	2400.0	1.0	8.0	stop	non-target	P	71,Green Button	89,Yellow Button	250.0	350.0	2450.0	2400.0	0.0	350.0	0.0	1.0	ITI
47573.0	500	n/a	-1	-1	500	0.0	fixation	poldrack-single-stim	405	1128759	0.0-17.9-0.9	beast_fmri_test	306	n/a	n/a	<div class = centerbox><div class = fixation>+</div></div>	none	500.0	test	n/a	n/a	n/a	n/a	n/a	n/a	n/a	n/a	n/a	n/a	n/a	n/a	n/a	n/a	n/a	n/a	n/a	n/a	fixation
47471.388718287461	400.0	n/a	-1	-1	2750	103.611281713	stim	stop-signal	406	1131511	0.0-17.9-1.9	beast_fmri_test	306	18.812783333333332,18.824116666666665,18.835433333333334,18.846783333333335,18.858116666666668	t,t,t,t,t	<img class = center src='/static/experiments/beast_fmri_test/images/T.png'></img>	71,89	2750.0	test	<img class = center src='/static/experiments/beast_fmri_test/images/redT.png'></img>	stop	2350.0	1.0	9.0	stop	non-target	T	71,Green Button	89,Yellow Button	250.0	400.0	2450.0	2350.0	0.0	400.0	0.0	1.0	go_stim
49821.388718287461	2350.0	n/a	-1	-1	2750	103.611281713	stim	stop-signal	406	1131511	0.0-17.9-1.9	beast_fmri_test	306	18.812783333333332,18.824116666666665,18.835433333333334,18.846783333333335,18.858116666666668	t,t,t,t,t	<img class = center src='/static/experiments/beast_fmri_test/images/T.png'></img>	71,89	2750.0	test	<img class = center src='/static/experiments/beast_fmri_test/images/redT.png'></img>	stop	2350.0	1.0	9.0	stop	non-target	T	71,Green Button	89,Yellow Button	250.0	400.0	2450.0	2350.0	0.0	400.0	0.0	1.0	stop_stim
50221.388718287461	103.61128171251025	n/a	-1	-1	2750	103.611281713	stim	stop-signal	406	1131511	0.0-17.9-1.9	beast_fmri_test	306	18.812783333333332,18.824116666666665,18.835433333333334,18.846783333333335,18.858116666666668	t,t,t,t,t	<img class = center src='/static/experiments/beast_fmri_test/images/T.png'></img>	71,89	2750.0	test	<img class = center src='/static/experiments/beast_fmri_test/images/redT.png'></img>	stop	2350.0	1.0	9.0	stop	non-target	T	71,Green Button	89,Yellow Button	250.0	400.0	2450.0	2350.0	0.0	400.0	0.0	1.0	ITI
50976.0	500	n/a	-1	-1	500	0.0	fixation	poldrack-single-stim	407	1132162	0.0-17.10-0.10	beast_fmri_test	306	n/a	n/a	<div class = centerbox><div class = fixation>+</div></div>	none	500.0	test	n/a	n/a	n/a	n/a	n/a	n/a	n/a	n/a	n/a	n/a	n/a	n/a	n/a	n/a	n/a	n/a	n/a	n/a	fixation
50850.873758634087	2750	n/a	623	89	2750	123.126241366	stim	stop-signal	408	1134910	0.0-17.10-1.10	beast_fmri_test	306	18.86945,18.8808,18.892083333333332,18.903366666666667,18.914716666666667	t,t,t,t,t	<img class = center src='/static/experiments/beast_fmri_test/images/D.png'></img>	71,89	2750.0	test	<img class = center src='/static/experiments/beast_fmri_test/images/redD.png'></img>	go	2300.0	1.0	10.0	go	non-target	D	71,Green Button	89,Yellow Button	250.0	450.0	2450.0	2300.0	1.0	450.0	1.0	n/a	go_stim
53600.873758634087	123.12624136584527	n/a	623	89	2750	123.126241366	stim	stop-signal	408	1134910	0.0-17.10-1.10	beast_fmri_test	306	18.86945,18.8808,18.892083333333332,18.903366666666667,18.914716666666667	t,t,t,t,t	<img class = center src='/static/experiments/beast_fmri_test/images/D.png'></img>	71,89	2750.0	test	<img class = center src='/static/experiments/beast_fmri_test/images/redD.png'></img>	go	2300.0	1.0	10.0	go	non-target	D	71,Green Button	89,Yellow Button	250.0	450.0	2450.0	2300.0	1.0	450.0	1.0	n/a	ITI
54390.0	500	n/a	-1	-1	500	0.0	fixation	poldrack-single-stim	409	1135576	0.0-17.11-0.11	beast_fmri_test	306	18.92605	t	<div class = centerbox><div class = fixation>+</div></div>	none	500.0	test	n/a	n/a	n/a	n/a	n/a	n/a	n/a	n/a	n/a	n/a	n/a	n/a	n/a	n/a	n/a	n/a	n/a	n/a	fixation
54335.143724607537	2750	n/a	1034	89	2750	57.8562753925	stim	stop-signal	410	1138329	0.0-17.11-1.11	beast_fmri_test	306	18.937383333333333,18.948716666666666,18.96003333333333,18.97136666666667	t,t,t,t	<img class = center src='/static/experiments/beast_fmri_test/images/T.png'></img>	71,89	2750.0	test	<img class = center src='/static/experiments/beast_fmri_test/images/redT.png'></img>	go	2300.0	1.0	11.0	go	non-target	T	71,Green Button	89,Yellow Button	250.0	450.0	2450.0	2300.0	1.0	450.0	1.0	n/a	go_stim
57085.143724607537	57.856275392547502	n/a	1034	89	2750	57.8562753925	stim	stop-signal	410	1138329	0.0-17.11-1.11	beast_fmri_test	306	18.937383333333333,18.948716666666666,18.96003333333333,18.97136666666667	t,t,t,t	<img class = center src='/static/experiments/beast_fmri_test/images/T.png'></img>	71,89	2750.0	test	<img class = center src='/static/experiments/beast_fmri_test/images/redT.png'></img>	go	2300.0	1.0	11.0	go	non-target	T	71,Green Button	89,Yellow Button	250.0	450.0	2450.0	2300.0	1.0	450.0	1.0	n/a	ITI
57745.0	500	n/a	-1	-1	500	0.0	fixation	poldrack-single-stim	411	1138931	0.0-17.12-0.12	beast_fmri_test	306	n/a	n/a	<div class = centerbox><div class = fixation>+</div></div>	none	500.0	test	n/a	n/a	n/a	n/a	n/a	n/a	n/a	n/a	n/a	n/a	n/a	n/a	n/a	n/a	n/a	n/a	n/a	n/a	fixation
57738.395581723191	2750	n/a	578	89	2750	8.60441827674	stim	stop-signal	412	1141683	0.0-17.12-1.12	beast_fmri_test	306	18.9827,18.994033333333334,19.00535,19.0167,19.02805	t,t,t,t,t	<img class = center src='/static/experiments/beast_fmri_test/images/V.png'></img>	71,89	2750.0	test	<img class = center src='/static/experiments/beast_fmri_test/images/redV.png'></img>	go	2300.0	1.0	12.0	go	non-target	V	71,Green Button	89,Yellow Button	250.0	450.0	2450.0	2300.0	1.0	450.0	1.0	n/a	go_stim
60488.395581723191	8.6044182767354673	n/a	578	89	2750	8.60441827674	stim	stop-signal	412	1141683	0.0-17.12-1.12	beast_fmri_test	306	18.9827,18.994033333333334,19.00535,19.0167,19.02805	t,t,t,t,t	<img class = center src='/static/experiments/beast_fmri_test/images/V.png'></img>	71,89	2750.0	test	<img class = center src='/static/experiments/beast_fmri_test/images/redV.png'></img>	go	2300.0	1.0	12.0	go	non-target	V	71,Green Button	89,Yellow Button	250.0	450.0	2450.0	2300.0	1.0	450.0	1.0	n/a	ITI
61048.0	500	n/a	-1	-1	500	0.0	fixation	poldrack-single-stim	413	1142234	0.0-17.13-0.13	beast_fmri_test	306	n/a	n/a	<div class = centerbox><div class = fixation>+</div></div>	none	500.0	test	n/a	n/a	n/a	n/a	n/a	n/a	n/a	n/a	n/a	n/a	n/a	n/a	n/a	n/a	n/a	n/a	n/a	n/a	fixation
58797.648244263371	2750	n/a	502	89	2750	2247.35175574	stim	stop-signal	414	1144981	0.0-17.13-1.13	beast_fmri_test	306	19.039383333333333,19.0507,19.061983333333334,19.073283333333332,19.084616666666665,19.095966666666666,19.1073,19.11863333333333	t,t,t,t,t,t,t,t	<img class = center src='/static/experiments/beast_fmri_test/images/D.png'></img>	71,89	2750.0	test	<img class = center src='/static/experiments/beast_fmri_test/images/redD.png'></img>	go	2300.0	1.0	13.0	go	non-target	D	71,Green Button	89,Yellow Button	250.0	450.0	2450.0	2300.0	1.0	450.0	1.0	n/a	go_stim
61547.648244263371	2247.3517557366954	n/a	502	89	2750	2247.35175574	stim	stop-signal	414	1144981	0.0-17.13-1.13	beast_fmri_test	306	19.039383333333333,19.0507,19.061983333333334,19.073283333333332,19.084616666666665,19.095966666666666,19.1073,19.11863333333333	t,t,t,t,t,t,t,t	<img class = center src='/static/experiments/beast_fmri_test/images/D.png'></img>	71,89	2750.0	test	<img class = center src='/static/experiments/beast_fmri_test/images/redD.png'></img>	go	2300.0	1.0	13.0	go	non-target	D	71,Green Button	89,Yellow Button	250.0	450.0	2450.0	2300.0	1.0	450.0	1.0	n/a	ITI
66586.0	500	n/a	-1	-1	500	0.0	fixation	poldrack-single-stim	415	1147772	0.0-17.14-0.14	beast_fmri_test	306	n/a	n/a	<div class = centerbox><div class = fixation>+</div></div>	none	500.0	test	n/a	n/a	n/a	n/a	n/a	n/a	n/a	n/a	n/a	n/a	n/a	n/a	n/a	n/a	n/a	n/a	n/a	n/a	fixation
66526.425912688952	2750	n/a	629	89	2750	56.5740873111	stim	stop-signal	416	1150519	0.0-17.14-1.14	beast_fmri_test	306	19.129966666666668,19.14125,19.152533333333334,19.163866666666667,19.175216666666667	t,t,t,t,t	<img class = center src='/static/experiments/beast_fmri_test/images/V.png'></img>	71,89	2750.0	test	<img class = center src='/static/experiments/beast_fmri_test/images/redV.png'></img>	go	2300.0	1.0	14.0	go	non-target	V	71,Green Button	89,Yellow Button	250.0	450.0	2450.0	2300.0	1.0	450.0	1.0	n/a	go_stim
69276.425912688952	56.574087311094324	n/a	629	89	2750	56.5740873111	stim	stop-signal	416	1150519	0.0-17.14-1.14	beast_fmri_test	306	19.129966666666668,19.14125,19.152533333333334,19.163866666666667,19.175216666666667	t,t,t,t,t	<img class = center src='/static/experiments/beast_fmri_test/images/V.png'></img>	71,89	2750.0	test	<img class = center src='/static/experiments/beast_fmri_test/images/redV.png'></img>	go	2300.0	1.0	14.0	go	non-target	V	71,Green Button	89,Yellow Button	250.0	450.0	2450.0	2300.0	1.0	450.0	1.0	n/a	ITI
69932.0	500	n/a	-1	-1	500	0.0	fixation	poldrack-single-stim	417	1151118	0.0-17.15-0.15	beast_fmri_test	306	n/a	n/a	<div class = centerbox><div class = fixation>+</div></div>	none	500.0	test	n/a	n/a	n/a	n/a	n/a	n/a	n/a	n/a	n/a	n/a	n/a	n/a	n/a	n/a	n/a	n/a	n/a	n/a	fixation
68921.331027768785	2750	n/a	1553	89	2750	1013.66897223	stim	stop-signal	418	1153871	0.0-17.15-1.15	beast_fmri_test	306	19.186533333333333,19.197866666666666,19.2092,19.220533333333332,19.23185,19.2432	t,t,t,t,t,t	<img class = center src='/static/experiments/beast_fmri_test/images/D.png'></img>	71,89	2750.0	test	<img class = center src='/static/experiments/beast_fmri_test/images/redD.png'></img>	go	2300.0	1.0	15.0	go	non-target	D	71,Green Button	89,Yellow Button	250.0	450.0	2450.0	2300.0	1.0	450.0	1.0	n/a	go_stim
71671.331027768785	1013.6689722311434	n/a	1553	89	2750	1013.66897223	stim	stop-signal	418	1153871	0.0-17.15-1.15	beast_fmri_test	306	19.186533333333333,19.197866666666666,19.2092,19.220533333333332,19.23185,19.2432	t,t,t,t,t,t	<img class = center src='/static/experiments/beast_fmri_test/images/D.png'></img>	71,89	2750.0	test	<img class = center src='/static/experiments/beast_fmri_test/images/redD.png'></img>	go	2300.0	1.0	15.0	go	non-target	D	71,Green Button	89,Yellow Button	250.0	450.0	2450.0	2300.0	1.0	450.0	1.0	n/a	ITI
74244.0	500	n/a	-1	-1	500	0.0	fixation	poldrack-single-stim	419	1155430	0.0-17.16-0.16	beast_fmri_test	306	19.25455	t	<div class = centerbox><div class = fixation>+</div></div>	none	500.0	test	n/a	n/a	n/a	n/a	n/a	n/a	n/a	n/a	n/a	n/a	n/a	n/a	n/a	n/a	n/a	n/a	n/a	n/a	fixation
73883.703594364459	450.0	n/a	615	89	2750	362.296405635	stim	stop-signal	420	1158182	0.0-17.16-1.16	beast_fmri_test	306	19.265883333333335,19.277216666666668,19.288533333333334,19.299883333333334	t,t,t,t	<img class = center src='/static/experiments/beast_fmri_test/images/B.png'></img>	71,89	2750.0	test	<img class = center src='/static/experiments/beast_fmri_test/images/redB.png'></img>	stop	2300.0	1.0	16.0	stop	non-target	B	71,Green Button	89,Yellow Button	250.0	450.0	2450.0	2300.0	0.0	450.0	1.0	0.0	go_stim
76183.703594364459	2300.0	n/a	615	89	2750	362.296405635	stim	stop-signal	420	1158182	0.0-17.16-1.16	beast_fmri_test	306	19.265883333333335,19.277216666666668,19.288533333333334,19.299883333333334	t,t,t,t	<img class = center src='/static/experiments/beast_fmri_test/images/B.png'></img>	71,89	2750.0	test	<img class = center src='/static/experiments/beast_fmri_test/images/redB.png'></img>	stop	2300.0	1.0	16.0	stop	non-target	B	71,Green Button	89,Yellow Button	250.0	450.0	2450.0	2300.0	0.0	450.0	1.0	0.0	stop_stim
76633.703594364459	362.29640563544001	n/a	615	89	2750	362.296405635	stim	stop-signal	420	1158182	0.0-17.16-1.16	beast_fmri_test	306	19.265883333333335,19.277216666666668,19.288533333333334,19.299883333333334	t,t,t,t	<img class = center src='/static/experiments/beast_fmri_test/images/B.png'></img>	71,89	2750.0	test	<img class = center src='/static/experiments/beast_fmri_test/images/redB.png'></img>	stop	2300.0	1.0	16.0	stop	non-target	B	71,Green Button	89,Yellow Button	250.0	450.0	2450.0	2300.0	0.0	450.0	1.0	0.0	ITI
77908.0	500	n/a	-1	-1	500	0.0	fixation	poldrack-single-stim	421	1159094	0.0-17.17-0.17	beast_fmri_test	306	19.311233333333334	t	<div class = centerbox><div class = fixation>+</div></div>	none	500.0	test	n/a	n/a	n/a	n/a	n/a	n/a	n/a	n/a	n/a	n/a	n/a	n/a	n/a	n/a	n/a	n/a	n/a	n/a	fixation
77161.83803803171	2750	n/a	792	89	2750	749.161961968	stim	stop-signal	422	1161847	0.0-17.17-1.17	beast_fmri_test	306	19.322566666666667,19.333883333333333,19.345233333333333,19.35655,19.3679	t,t,t,t,t	<img class = center src='/static/experiments/beast_fmri_test/images/V.png'></img>	71,89	2750.0	test	<img class = center src='/static/experiments/beast_fmri_test/images/redV.png'></img>	go	2350.0	1.0	17.0	go	non-target	V	71,Green Button	89,Yellow Button	250.0	400.0	2450.0	2350.0	1.0	400.0	1.0	n/a	go_stim
79911.83803803171	749.16196196823319	n/a	792	89	2750	749.161961968	stim	stop-signal	422	1161847	0.0-17.17-1.17	beast_fmri_test	306	19.322566666666667,19.333883333333333,19.345233333333333,19.35655,19.3679	t,t,t,t,t	<img class = center src='/static/experiments/beast_fmri_test/images/V.png'></img>	71,89	2750.0	test	<img class = center src='/static/experiments/beast_fmri_test/images/redV.png'></img>	go	2350.0	1.0	17.0	go	non-target	V	71,Green Button	89,Yellow Button	250.0	400.0	2450.0	2350.0	1.0	400.0	1.0	n/a	ITI
81953.0	500	n/a	-1	-1	500	0.0	fixation	poldrack-single-stim	423	1163139	0.0-17.18-0.18	beast_fmri_test	306	19.37923333333333	t	<div class = centerbox><div class = fixation>+</div></div>	none	500.0	test	n/a	n/a	n/a	n/a	n/a	n/a	n/a	n/a	n/a	n/a	n/a	n/a	n/a	n/a	n/a	n/a	n/a	n/a	fixation
81850.744744751137	2750	n/a	552	71	2750	101.255255249	stim	stop-signal	424	1165888	0.0-17.18-1.18	beast_fmri_test	306	19.390533333333334,19.401816666666665,19.41315,19.424483333333335	t,t,t,t	<img class = center src='/static/experiments/beast_fmri_test/images/B.png'></img>	71,89	2750.0	test	<img class = center src='/static/experiments/beast_fmri_test/images/redB.png'></img>	go	2350.0	1.0	18.0	go	non-target	B	71,Green Button	89,Yellow Button	250.0	400.0	2450.0	2350.0	0.0	400.0	0.0	n/a	go_stim
84600.744744751137	101.25525524886135	n/a	552	71	2750	101.255255249	stim	stop-signal	424	1165888	0.0-17.18-1.18	beast_fmri_test	306	19.390533333333334,19.401816666666665,19.41315,19.424483333333335	t,t,t,t	<img class = center src='/static/experiments/beast_fmri_test/images/B.png'></img>	71,89	2750.0	test	<img class = center src='/static/experiments/beast_fmri_test/images/redB.png'></img>	go	2350.0	1.0	18.0	go	non-target	B	71,Green Button	89,Yellow Button	250.0	400.0	2450.0	2350.0	0.0	400.0	0.0	n/a	ITI
85347.0	500	n/a	-1	-1	500	0.0	fixation	poldrack-single-stim	425	1166533	0.0-17.19-0.19	beast_fmri_test	306	19.435816666666668	t	<div class = centerbox><div class = fixation>+</div></div>	none	500.0	test	n/a	n/a	n/a	n/a	n/a	n/a	n/a	n/a	n/a	n/a	n/a	n/a	n/a	n/a	n/a	n/a	n/a	n/a	fixation
84911.1780193944	2750	n/a	923	89	2750	439.821980606	stim	stop-signal	426	1169287	0.0-17.19-1.19	beast_fmri_test	306	19.44715,19.458466666666666,19.469783333333332,19.48115,19.492483333333332	t,t,t,t,t	<img class = center src='/static/experiments/beast_fmri_test/images/P.png'></img>	71,89	2750.0	test	<img class = center src='/static/experiments/beast_fmri_test/images/redP.png'></img>	go	2350.0	1.0	19.0	go	non-target	P	71,Green Button	89,Yellow Button	250.0	400.0	2450.0	2350.0	1.0	400.0	1.0	n/a	go_stim
87661.1780193944	439.82198060567976	n/a	923	89	2750	439.821980606	stim	stop-signal	426	1169287	0.0-17.19-1.19	beast_fmri_test	306	19.44715,19.458466666666666,19.469783333333332,19.48115,19.492483333333332	t,t,t,t,t	<img class = center src='/static/experiments/beast_fmri_test/images/P.png'></img>	71,89	2750.0	test	<img class = center src='/static/experiments/beast_fmri_test/images/redP.png'></img>	go	2350.0	1.0	19.0	go	non-target	P	71,Green Button	89,Yellow Button	250.0	400.0	2450.0	2350.0	1.0	400.0	1.0	n/a	ITI
89086.0	500	n/a	-1	-1	500	0.0	fixation	poldrack-single-stim	427	1170272	0.0-17.20-0.20	beast_fmri_test	306	19.503816666666665	t	<div class = centerbox><div class = fixation>+</div></div>	none	500.0	test	n/a	n/a	n/a	n/a	n/a	n/a	n/a	n/a	n/a	n/a	n/a	n/a	n/a	n/a	n/a	n/a	n/a	n/a	fixation
88708.490710006328	400.0	n/a	655	89	2750	380.509289994	stim	stop-signal	428	1173025	0.0-17.20-1.20	beast_fmri_test	306	19.515133333333335,19.526483333333335,19.5378,19.549133333333334	t,t,t,t	<img class = center src='/static/experiments/beast_fmri_test/images/V.png'></img>	71,89	2750.0	test	<img class = center src='/static/experiments/beast_fmri_test/images/redV.png'></img>	stop	2350.0	1.0	20.0	stop	non-target	V	71,Green Button	89,Yellow Button	250.0	400.0	2450.0	2350.0	0.0	400.0	1.0	0.0	go_stim
91058.490710006328	2350.0	n/a	655	89	2750	380.509289994	stim	stop-signal	428	1173025	0.0-17.20-1.20	beast_fmri_test	306	19.515133333333335,19.526483333333335,19.5378,19.549133333333334	t,t,t,t	<img class = center src='/static/experiments/beast_fmri_test/images/V.png'></img>	71,89	2750.0	test	<img class = center src='/static/experiments/beast_fmri_test/images/redV.png'></img>	stop	2350.0	1.0	20.0	stop	non-target	V	71,Green Button	89,Yellow Button	250.0	400.0	2450.0	2350.0	0.0	400.0	1.0	0.0	stop_stim
91458.490710006328	380.509289993761	n/a	655	89	2750	380.509289994	stim	stop-signal	428	1173025	0.0-17.20-1.20	beast_fmri_test	306	19.515133333333335,19.526483333333335,19.5378,19.549133333333334	t,t,t,t	<img class = center src='/static/experiments/beast_fmri_test/images/V.png'></img>	71,89	2750.0	test	<img class = center src='/static/experiments/beast_fmri_test/images/redV.png'></img>	stop	2350.0	1.0	20.0	stop	non-target	V	71,Green Button	89,Yellow Button	250.0	400.0	2450.0	2350.0	0.0	400.0	1.0	0.0	ITI
92763.0	500	n/a	-1	-1	500	0.0	fixation	poldrack-single-stim	429	1173949	0.0-17.21-0.21	beast_fmri_test	306	19.56045	t	<div class = centerbox><div class = fixation>+</div></div>	none	500.0	test	n/a	n/a	n/a	n/a	n/a	n/a	n/a	n/a	n/a	n/a	n/a	n/a	n/a	n/a	n/a	n/a	n/a	n/a	fixation
92597.929929839447	2750	n/a	1010	89	2750	168.070070161	stim	stop-signal	430	1176702	0.0-17.21-1.21	beast_fmri_test	306	19.571733333333334,19.583066666666667,19.5944,19.605733333333333	t,t,t,t	<img class = center src='/static/experiments/beast_fmri_test/images/P.png'></img>	71,89	2750.0	test	<img class = center src='/static/experiments/beast_fmri_test/images/redP.png'></img>	go	2400.0	1.0	21.0	go	non-target	P	71,Green Button	89,Yellow Button	250.0	350.0	2450.0	2400.0	1.0	350.0	1.0	n/a	go_stim
95347.929929839447	168.07007016056386	n/a	1010	89	2750	168.070070161	stim	stop-signal	430	1176702	0.0-17.21-1.21	beast_fmri_test	306	19.571733333333334,19.583066666666667,19.5944,19.605733333333333	t,t,t,t	<img class = center src='/static/experiments/beast_fmri_test/images/P.png'></img>	71,89	2750.0	test	<img class = center src='/static/experiments/beast_fmri_test/images/redP.png'></img>	go	2400.0	1.0	21.0	go	non-target	P	71,Green Button	89,Yellow Button	250.0	350.0	2450.0	2400.0	1.0	350.0	1.0	n/a	ITI
96235.0	500	n/a	-1	-1	500	0.0	fixation	poldrack-single-stim	431	1177421	0.0-17.22-0.22	beast_fmri_test	306	19.617066666666666	t	<div class = centerbox><div class = fixation>+</div></div>	none	500.0	test	n/a	n/a	n/a	n/a	n/a	n/a	n/a	n/a	n/a	n/a	n/a	n/a	n/a	n/a	n/a	n/a	n/a	n/a	fixation
95976.31400887249	2750	n/a	404	71	2750	260.685991127	stim	stop-signal	432	1180173	0.0-17.22-1.22	beast_fmri_test	306	19.6284,19.639733333333332,19.651033333333334,19.6624,19.673733333333335	t,t,t,t,t	<img class = center src='/static/experiments/beast_fmri_test/images/P.png'></img>	71,89	2750.0	test	<img class = center src='/static/experiments/beast_fmri_test/images/redP.png'></img>	go	2500.0	1.0	22.0	go	target	P	71,Green Button	89,Yellow Button	250.0	350.0	2500.0	2400.0	1.0	250.0	1.0	n/a	go_stim
98726.31400887249	260.68599112741299	n/a	404	71	2750	260.685991127	stim	stop-signal	432	1180173	0.0-17.22-1.22	beast_fmri_test	306	19.6284,19.639733333333332,19.651033333333334,19.6624,19.673733333333335	t,t,t,t,t	<img class = center src='/static/experiments/beast_fmri_test/images/P.png'></img>	71,89	2750.0	test	<img class = center src='/static/experiments/beast_fmri_test/images/redP.png'></img>	go	2500.0	1.0	22.0	go	target	P	71,Green Button	89,Yellow Button	250.0	350.0	2500.0	2400.0	1.0	250.0	1.0	n/a	ITI
99789.0	500	n/a	-1	-1	500	0.0	fixation	poldrack-single-stim	433	1180975	0.0-17.23-0.23	beast_fmri_test	306	n/a	n/a	<div class = centerbox><div class = fixation>+</div></div>	none	500.0	test	n/a	n/a	n/a	n/a	n/a	n/a	n/a	n/a	n/a	n/a	n/a	n/a	n/a	n/a	n/a	n/a	n/a	n/a	fixation
99072.415108796908	2750	n/a	529	71	2750	716.584891203	stim	stop-signal	434	1183725	0.0-17.23-1.23	beast_fmri_test	306	19.685066666666668,19.696383333333333,19.707716666666666,19.719033333333332,19.730333333333334	t,t,t,t,t	<img class = center src='/static/experiments/beast_fmri_test/images/P.png'></img>	71,89	2750.0	test	<img class = center src='/static/experiments/beast_fmri_test/images/redP.png'></img>	go	2500.0	1.0	23.0	go	target	P	71,Green Button	89,Yellow Button	250.0	350.0	2500.0	2400.0	1.0	250.0	1.0	n/a	go_stim
101822.41510879691	716.58489120309343	n/a	529	71	2750	716.584891203	stim	stop-signal	434	1183725	0.0-17.23-1.23	beast_fmri_test	306	19.685066666666668,19.696383333333333,19.707716666666666,19.719033333333332,19.730333333333334	t,t,t,t,t	<img class = center src='/static/experiments/beast_fmri_test/images/P.png'></img>	71,89	2750.0	test	<img class = center src='/static/experiments/beast_fmri_test/images/redP.png'></img>	go	2500.0	1.0	23.0	go	target	P	71,Green Button	89,Yellow Button	250.0	350.0	2500.0	2400.0	1.0	250.0	1.0	n/a	ITI
103797.0	500	n/a	-1	-1	500	0.0	fixation	poldrack-single-stim	435	1184983	0.0-17.24-0.24	beast_fmri_test	306	19.74165	t	<div class = centerbox><div class = fixation>+</div></div>	none	500.0	test	n/a	n/a	n/a	n/a	n/a	n/a	n/a	n/a	n/a	n/a	n/a	n/a	n/a	n/a	n/a	n/a	n/a	n/a	fixation
103776.25660179276	350.0	n/a	711	89	2750	24.7433982073	stim	stop-signal	436	1187737	0.0-17.24-1.24	beast_fmri_test	306	19.752983333333333,19.764316666666666,19.77563333333333,19.786983333333332	t,t,t,t	<img class = center src='/static/experiments/beast_fmri_test/images/T.png'></img>	71,89	2750.0	test	<img class = center src='/static/experiments/beast_fmri_test/images/redT.png'></img>	stop	2400.0	1.0	24.0	stop	non-target	T	71,Green Button	89,Yellow Button	250.0	350.0	2500.0	2400.0	0.0	350.0	1.0	0.0	go_stim
106176.25660179276	2400.0	n/a	711	89	2750	24.7433982073	stim	stop-signal	436	1187737	0.0-17.24-1.24	beast_fmri_test	306	19.752983333333333,19.764316666666666,19.77563333333333,19.786983333333332	t,t,t,t	<img class = center src='/static/experiments/beast_fmri_test/images/T.png'></img>	71,89	2750.0	test	<img class = center src='/static/experiments/beast_fmri_test/images/redT.png'></img>	stop	2400.0	1.0	24.0	stop	non-target	T	71,Green Button	89,Yellow Button	250.0	350.0	2500.0	2400.0	0.0	350.0	1.0	0.0	stop_stim
106526.25660179276	24.74339820726173	n/a	711	89	2750	24.7433982073	stim	stop-signal	436	1187737	0.0-17.24-1.24	beast_fmri_test	306	19.752983333333333,19.764316666666666,19.77563333333333,19.786983333333332	t,t,t,t	<img class = center src='/static/experiments/beast_fmri_test/images/T.png'></img>	71,89	2750.0	test	<img class = center src='/static/experiments/beast_fmri_test/images/redT.png'></img>	stop	2400.0	1.0	24.0	stop	non-target	T	71,Green Button	89,Yellow Button	250.0	350.0	2500.0	2400.0	0.0	350.0	1.0	0.0	ITI
107117.0	500	n/a	-1	-1	500	0.0	fixation	poldrack-single-stim	437	1188303	0.0-17.25-0.25	beast_fmri_test	306	19.79831666666667	t	<div class = centerbox><div class = fixation>+</div></div>	none	500.0	test	n/a	n/a	n/a	n/a	n/a	n/a	n/a	n/a	n/a	n/a	n/a	n/a	n/a	n/a	n/a	n/a	n/a	n/a	fixation
105673.15465792804	2750	n/a	2437	89	2750	1446.84534207	stim	stop-signal	438	1191056	0.0-17.25-1.25	beast_fmri_test	306	19.80965,19.821,19.832333333333334,19.843666666666667,19.854983333333333,19.866333333333333	t,t,t,t,t,t	<img class = center src='/static/experiments/beast_fmri_test/images/D.png'></img>	71,89	2750.0	test	<img class = center src='/static/experiments/beast_fmri_test/images/redD.png'></img>	go	2450.0	1.0	25.0	go	non-target	D	71,Green Button	89,Yellow Button	250.0	300.0	2500.0	2450.0	1.0	300.0	1.0	n/a	go_stim
108423.15465792804	1446.8453420719925	n/a	2437	89	2750	1446.84534207	stim	stop-signal	438	1191056	0.0-17.25-1.25	beast_fmri_test	306	19.80965,19.821,19.832333333333334,19.843666666666667,19.854983333333333,19.866333333333333	t,t,t,t,t,t	<img class = center src='/static/experiments/beast_fmri_test/images/D.png'></img>	71,89	2750.0	test	<img class = center src='/static/experiments/beast_fmri_test/images/redD.png'></img>	go	2450.0	1.0	25.0	go	non-target	D	71,Green Button	89,Yellow Button	250.0	300.0	2500.0	2450.0	1.0	300.0	1.0	n/a	ITI
111857.0	500	n/a	-1	-1	500	0.0	fixation	poldrack-single-stim	439	1193043	0.0-17.26-0.26	beast_fmri_test	306	19.877666666666666	t	<div class = centerbox><div class = fixation>+</div></div>	none	500.0	test	n/a	n/a	n/a	n/a	n/a	n/a	n/a	n/a	n/a	n/a	n/a	n/a	n/a	n/a	n/a	n/a	n/a	n/a	fixation
110859.84723108751	2750	n/a	1589	89	2750	995.152768912	stim	stop-signal	440	1195791	0.0-17.26-1.26	beast_fmri_test	306	19.88895,19.900266666666667,19.911583333333333,19.9229,19.934233333333335,19.945566666666668	t,t,t,t,t,t	<img class = center src='/static/experiments/beast_fmri_test/images/P.png'></img>	71,89	2750.0	test	<img class = center src='/static/experiments/beast_fmri_test/images/redP.png'></img>	go	2450.0	1.0	26.0	go	non-target	P	71,Green Button	89,Yellow Button	250.0	300.0	2500.0	2450.0	1.0	300.0	1.0	n/a	go_stim
113609.84723108751	995.1527689124988	n/a	1589	89	2750	995.152768912	stim	stop-signal	440	1195791	0.0-17.26-1.26	beast_fmri_test	306	19.88895,19.900266666666667,19.911583333333333,19.9229,19.934233333333335,19.945566666666668	t,t,t,t,t,t	<img class = center src='/static/experiments/beast_fmri_test/images/P.png'></img>	71,89	2750.0	test	<img class = center src='/static/experiments/beast_fmri_test/images/redP.png'></img>	go	2450.0	1.0	26.0	go	non-target	P	71,Green Button	89,Yellow Button	250.0	300.0	2500.0	2450.0	1.0	300.0	1.0	n/a	ITI
116147.0	500	n/a	-1	-1	500	0.0	fixation	poldrack-single-stim	441	1197333	0.0-17.27-0.27	beast_fmri_test	306	n/a	n/a	<div class = centerbox><div class = fixation>+</div></div>	none	500.0	test	n/a	n/a	n/a	n/a	n/a	n/a	n/a	n/a	n/a	n/a	n/a	n/a	n/a	n/a	n/a	n/a	n/a	n/a	fixation
114161.97153760982	2750	n/a	414	71	2750	1988.02846239	stim	stop-signal	442	1200086	0.0-17.27-1.27	beast_fmri_test	306	19.9569,19.96825,19.979583333333334,19.990916666666667,20.002216666666666,20.013583333333333,20.024916666666666	t,t,t,t,t,t,t	<img class = center src='/static/experiments/beast_fmri_test/images/P.png'></img>	71,89	2750.0	test	<img class = center src='/static/experiments/beast_fmri_test/images/redP.png'></img>	go	2500.0	1.0	27.0	go	target	P	71,Green Button	89,Yellow Button	250.0	300.0	2500.0	2450.0	1.0	250.0	1.0	n/a	go_stim
116911.97153760982	1988.0284623901639	n/a	414	71	2750	1988.02846239	stim	stop-signal	442	1200086	0.0-17.27-1.27	beast_fmri_test	306	19.9569,19.96825,19.979583333333334,19.990916666666667,20.002216666666666,20.013583333333333,20.024916666666666	t,t,t,t,t,t,t	<img class = center src='/static/experiments/beast_fmri_test/images/P.png'></img>	71,89	2750.0	test	<img class = center src='/static/experiments/beast_fmri_test/images/redP.png'></img>	go	2500.0	1.0	27.0	go	target	P	71,Green Button	89,Yellow Button	250.0	300.0	2500.0	2450.0	1.0	250.0	1.0	n/a	ITI
121431.0	500	n/a	-1	-1	500	0.0	fixation	poldrack-single-stim	443	1202617	0.0-17.28-0.28	beast_fmri_test	306	20.03625	t	<div class = centerbox><div class = fixation>+</div></div>	none	500.0	test	n/a	n/a	n/a	n/a	n/a	n/a	n/a	n/a	n/a	n/a	n/a	n/a	n/a	n/a	n/a	n/a	n/a	n/a	fixation
120600.21726267016	300.0	n/a	-1	-1	2750	828.78273733	stim	stop-signal	444	1205365	0.0-17.28-1.28	beast_fmri_test	306	20.047583333333332,20.058866666666667,20.070166666666665,20.081483333333335,20.092833333333335	t,t,t,t,t	<img class = center src='/static/experiments/beast_fmri_test/images/D.png'></img>	71,89	2750.0	test	<img class = center src='/static/experiments/beast_fmri_test/images/redD.png'></img>	stop	2450.0	1.0	28.0	stop	non-target	D	71,Green Button	89,Yellow Button	250.0	300.0	2500.0	2450.0	0.0	300.0	0.0	1.0	go_stim
123050.21726267016	2450.0	n/a	-1	-1	2750	828.78273733	stim	stop-signal	444	1205365	0.0-17.28-1.28	beast_fmri_test	306	20.047583333333332,20.058866666666667,20.070166666666665,20.081483333333335,20.092833333333335	t,t,t,t,t	<img class = center src='/static/experiments/beast_fmri_test/images/D.png'></img>	71,89	2750.0	test	<img class = center src='/static/experiments/beast_fmri_test/images/redD.png'></img>	stop	2450.0	1.0	28.0	stop	non-target	D	71,Green Button	89,Yellow Button	250.0	300.0	2500.0	2450.0	0.0	300.0	0.0	1.0	stop_stim
123350.21726267016	828.78273732993625	n/a	-1	-1	2750	828.78273733	stim	stop-signal	444	1205365	0.0-17.28-1.28	beast_fmri_test	306	20.047583333333332,20.058866666666667,20.070166666666665,20.081483333333335,20.092833333333335	t,t,t,t,t	<img class = center src='/static/experiments/beast_fmri_test/images/D.png'></img>	71,89	2750.0	test	<img class = center src='/static/experiments/beast_fmri_test/images/redD.png'></img>	stop	2450.0	1.0	28.0	stop	non-target	D	71,Green Button	89,Yellow Button	250.0	300.0	2500.0	2450.0	0.0	300.0	0.0	1.0	ITI
125553.0	500	n/a	-1	-1	500	0.0	fixation	poldrack-single-stim	445	1206739	0.0-17.29-0.29	beast_fmri_test	306	20.104183333333335	t	<div class = centerbox><div class = fixation>+</div></div>	none	500.0	test	n/a	n/a	n/a	n/a	n/a	n/a	n/a	n/a	n/a	n/a	n/a	n/a	n/a	n/a	n/a	n/a	n/a	n/a	fixation
124848.15253057051	2750	n/a	586	71	2750	708.84746943	stim	stop-signal	446	1209493	0.0-17.29-1.29	beast_fmri_test	306	20.1155,20.126833333333334,20.138166666666667,20.1495,20.160816666666665	t,t,t,t,t	<img class = center src='/static/experiments/beast_fmri_test/images/D.png'></img>	71,89	2750.0	test	<img class = center src='/static/experiments/beast_fmri_test/images/redD.png'></img>	go	2500.0	1.0	29.0	go	target	D	71,Green Button	89,Yellow Button	250.0	350.0	2500.0	2450.0	1.0	250.0	1.0	n/a	go_stim
127598.15253057051	708.84746942957372	n/a	586	71	2750	708.84746943	stim	stop-signal	446	1209493	0.0-17.29-1.29	beast_fmri_test	306	20.1155,20.126833333333334,20.138166666666667,20.1495,20.160816666666665	t,t,t,t,t	<img class = center src='/static/experiments/beast_fmri_test/images/D.png'></img>	71,89	2750.0	test	<img class = center src='/static/experiments/beast_fmri_test/images/redD.png'></img>	go	2500.0	1.0	29.0	go	target	D	71,Green Button	89,Yellow Button	250.0	350.0	2500.0	2450.0	1.0	250.0	1.0	n/a	ITI
129565.0	500	n/a	-1	-1	500	0.0	fixation	poldrack-single-stim	447	1210751	0.0-17.30-0.30	beast_fmri_test	306	20.17215	t	<div class = centerbox><div class = fixation>+</div></div>	none	500.0	test	n/a	n/a	n/a	n/a	n/a	n/a	n/a	n/a	n/a	n/a	n/a	n/a	n/a	n/a	n/a	n/a	n/a	n/a	fixation
128942.10440500802	2750	n/a	725	71	2750	623.895594992	stim	stop-signal	448	1213502	0.0-17.30-1.30	beast_fmri_test	306	20.183483333333335,20.19483333333333,20.206166666666668,20.2175,20.228766666666665	t,t,t,t,t	<img class = center src='/static/experiments/beast_fmri_test/images/D.png'></img>	71,89	2750.0	test	<img class = center src='/static/experiments/beast_fmri_test/images/redD.png'></img>	go	2500.0	1.0	30.0	go	target	D	71,Green Button	89,Yellow Button	250.0	350.0	2500.0	2450.0	1.0	250.0	1.0	n/a	go_stim
131692.10440500802	623.89559499201948	n/a	725	71	2750	623.895594992	stim	stop-signal	448	1213502	0.0-17.30-1.30	beast_fmri_test	306	20.183483333333335,20.19483333333333,20.206166666666668,20.2175,20.228766666666665	t,t,t,t,t	<img class = center src='/static/experiments/beast_fmri_test/images/D.png'></img>	71,89	2750.0	test	<img class = center src='/static/experiments/beast_fmri_test/images/redD.png'></img>	go	2500.0	1.0	30.0	go	target	D	71,Green Button	89,Yellow Button	250.0	350.0	2500.0	2450.0	1.0	250.0	1.0	n/a	ITI
133485.0	500	n/a	-1	-1	500	0.0	fixation	poldrack-single-stim	449	1214671	0.0-17.31-0.31	beast_fmri_test	306	20.240083333333335	t	<div class = centerbox><div class = fixation>+</div></div>	none	500.0	test	n/a	n/a	n/a	n/a	n/a	n/a	n/a	n/a	n/a	n/a	n/a	n/a	n/a	n/a	n/a	n/a	n/a	n/a	fixation
132128.52086038655	2750	n/a	850	89	2750	1359.47913961	stim	stop-signal	450	1217424	0.0-17.31-1.31	beast_fmri_test	306	20.251433333333335,20.262733333333333,20.274083333333333,20.285416666666666,20.296766666666667,20.3081	t,t,t,t,t,t	<img class = center src='/static/experiments/beast_fmri_test/images/V.png'></img>	71,89	2750.0	test	<img class = center src='/static/experiments/beast_fmri_test/images/redV.png'></img>	go	2400.0	1.0	31.0	go	non-target	V	71,Green Button	89,Yellow Button	250.0	350.0	2500.0	2400.0	1.0	350.0	1.0	n/a	go_stim
134878.52086038655	1359.4791396134235	n/a	850	89	2750	1359.47913961	stim	stop-signal	450	1217424	0.0-17.31-1.31	beast_fmri_test	306	20.251433333333335,20.262733333333333,20.274083333333333,20.285416666666666,20.296766666666667,20.3081	t,t,t,t,t,t	<img class = center src='/static/experiments/beast_fmri_test/images/V.png'></img>	71,89	2750.0	test	<img class = center src='/static/experiments/beast_fmri_test/images/redV.png'></img>	go	2400.0	1.0	31.0	go	non-target	V	71,Green Button	89,Yellow Button	250.0	350.0	2500.0	2400.0	1.0	350.0	1.0	n/a	ITI
138145.0	500	n/a	-1	-1	500	0.0	fixation	poldrack-single-stim	451	1219331	0.0-17.32-0.32	beast_fmri_test	306	20.319416666666665	t	<div class = centerbox><div class = fixation>+</div></div>	none	500.0	test	n/a	n/a	n/a	n/a	n/a	n/a	n/a	n/a	n/a	n/a	n/a	n/a	n/a	n/a	n/a	n/a	n/a	n/a	fixation
137660.0409518478	2750	n/a	604	89	2750	488.959048152	stim	stop-signal	452	1222085	0.0-17.32-1.32	beast_fmri_test	306	20.330766666666666,20.3421,20.353433333333335,20.36475,20.3761	t,t,t,t,t	<img class = center src='/static/experiments/beast_fmri_test/images/T.png'></img>	71,89	2750.0	test	<img class = center src='/static/experiments/beast_fmri_test/images/redT.png'></img>	go	2400.0	1.0	32.0	go	non-target	T	71,Green Button	89,Yellow Button	250.0	350.0	2500.0	2400.0	1.0	350.0	1.0	n/a	go_stim
140410.0409518478	488.95904815228937	n/a	604	89	2750	488.959048152	stim	stop-signal	452	1222085	0.0-17.32-1.32	beast_fmri_test	306	20.330766666666666,20.3421,20.353433333333335,20.36475,20.3761	t,t,t,t,t	<img class = center src='/static/experiments/beast_fmri_test/images/T.png'></img>	71,89	2750.0	test	<img class = center src='/static/experiments/beast_fmri_test/images/redT.png'></img>	go	2400.0	1.0	32.0	go	non-target	T	71,Green Button	89,Yellow Button	250.0	350.0	2500.0	2400.0	1.0	350.0	1.0	n/a	ITI
141938.0	500	n/a	-1	-1	500	0.0	fixation	poldrack-single-stim	453	1223124	0.0-17.33-0.33	beast_fmri_test	306	n/a	n/a	<div class = centerbox><div class = fixation>+</div></div>	none	500.0	test	n/a	n/a	n/a	n/a	n/a	n/a	n/a	n/a	n/a	n/a	n/a	n/a	n/a	n/a	n/a	n/a	n/a	n/a	fixation
140974.99903098936	350.0	n/a	-1	-1	2750	963.000969011	stim	stop-signal	454	1225874	0.0-17.33-1.33	beast_fmri_test	306	20.387416666666667,20.398683333333334,20.410016666666667,20.42135,20.432683333333333,20.444016666666666	t,t,t,t,t,t	<img class = center src='/static/experiments/beast_fmri_test/images/B.png'></img>	71,89	2750.0	test	<img class = center src='/static/experiments/beast_fmri_test/images/redB.png'></img>	stop	2400.0	1.0	33.0	stop	non-target	B	71,Green Button	89,Yellow Button	250.0	350.0	2500.0	2400.0	0.0	350.0	0.0	1.0	go_stim
143374.99903098936	2400.0	n/a	-1	-1	2750	963.000969011	stim	stop-signal	454	1225874	0.0-17.33-1.33	beast_fmri_test	306	20.387416666666667,20.398683333333334,20.410016666666667,20.42135,20.432683333333333,20.444016666666666	t,t,t,t,t,t	<img class = center src='/static/experiments/beast_fmri_test/images/B.png'></img>	71,89	2750.0	test	<img class = center src='/static/experiments/beast_fmri_test/images/redB.png'></img>	stop	2400.0	1.0	33.0	stop	non-target	B	71,Green Button	89,Yellow Button	250.0	350.0	2500.0	2400.0	0.0	350.0	0.0	1.0	stop_stim
143724.99903098936	963.00096901071697	n/a	-1	-1	2750	963.000969011	stim	stop-signal	454	1225874	0.0-17.33-1.33	beast_fmri_test	306	20.387416666666667,20.398683333333334,20.410016666666667,20.42135,20.432683333333333,20.444016666666666	t,t,t,t,t,t	<img class = center src='/static/experiments/beast_fmri_test/images/B.png'></img>	71,89	2750.0	test	<img class = center src='/static/experiments/beast_fmri_test/images/redB.png'></img>	stop	2400.0	1.0	33.0	stop	non-target	B	71,Green Button	89,Yellow Button	250.0	350.0	2500.0	2400.0	0.0	350.0	0.0	1.0	ITI
146200.0	500	n/a	-1	-1	500	0.0	fixation	poldrack-single-stim	455	1227386	0.0-17.34-0.34	beast_fmri_test	306	20.45535	t	<div class = centerbox><div class = fixation>+</div></div>	none	500.0	test	n/a	n/a	n/a	n/a	n/a	n/a	n/a	n/a	n/a	n/a	n/a	n/a	n/a	n/a	n/a	n/a	n/a	n/a	fixation
143941.8178854594	2750	n/a	476	71	2750	2261.18211454	stim	stop-signal	456	1230139	0.0-17.34-1.34	beast_fmri_test	306	20.466683333333332,20.478016666666665,20.48935,20.500666666666667,20.512016666666668,20.52335,20.534683333333334	t,t,t,t,t,t,t	<img class = center src='/static/experiments/beast_fmri_test/images/B.png'></img>	71,89	2750.0	test	<img class = center src='/static/experiments/beast_fmri_test/images/redB.png'></img>	go	2500.0	1.0	34.0	go	target	B	71,Green Button	89,Yellow Button	250.0	400.0	2500.0	2400.0	1.0	250.0	1.0	n/a	go_stim
146691.8178854594	2261.1821145405042	n/a	476	71	2750	2261.18211454	stim	stop-signal	456	1230139	0.0-17.34-1.34	beast_fmri_test	306	20.466683333333332,20.478016666666665,20.48935,20.500666666666667,20.512016666666668,20.52335,20.534683333333334	t,t,t,t,t,t,t	<img class = center src='/static/experiments/beast_fmri_test/images/B.png'></img>	71,89	2750.0	test	<img class = center src='/static/experiments/beast_fmri_test/images/redB.png'></img>	go	2500.0	1.0	34.0	go	target	B	71,Green Button	89,Yellow Button	250.0	400.0	2500.0	2400.0	1.0	250.0	1.0	n/a	ITI
151768.0	500	n/a	-1	-1	500	0.0	fixation	poldrack-single-stim	457	1232954	0.0-17.35-0.35	beast_fmri_test	306	20.546016666666667	t	<div class = centerbox><div class = fixation>+</div></div>	none	500.0	test	n/a	n/a	n/a	n/a	n/a	n/a	n/a	n/a	n/a	n/a	n/a	n/a	n/a	n/a	n/a	n/a	n/a	n/a	fixation
151628.43729610648	2750	n/a	721	89	2750	137.562703893	stim	stop-signal	458	1235702	0.0-17.35-1.35	beast_fmri_test	306	20.557316666666665,20.5686,20.579933333333333,20.591266666666666	t,t,t,t	<img class = center src='/static/experiments/beast_fmri_test/images/T.png'></img>	71,89	2750.0	test	<img class = center src='/static/experiments/beast_fmri_test/images/redT.png'></img>	go	2350.0	1.0	35.0	go	non-target	T	71,Green Button	89,Yellow Button	250.0	400.0	2500.0	2350.0	1.0	400.0	1.0	n/a	go_stim
154378.43729610648	137.56270389345576	n/a	721	89	2750	137.562703893	stim	stop-signal	458	1235702	0.0-17.35-1.35	beast_fmri_test	306	20.557316666666665,20.5686,20.579933333333333,20.591266666666666	t,t,t,t	<img class = center src='/static/experiments/beast_fmri_test/images/T.png'></img>	71,89	2750.0	test	<img class = center src='/static/experiments/beast_fmri_test/images/redT.png'></img>	go	2350.0	1.0	35.0	go	non-target	T	71,Green Button	89,Yellow Button	250.0	400.0	2500.0	2350.0	1.0	400.0	1.0	n/a	ITI
155202.0	500	n/a	-1	-1	500	0.0	fixation	poldrack-single-stim	459	1236388	0.0-17.36-0.36	beast_fmri_test	306	20.602616666666666	t	<div class = centerbox><div class = fixation>+</div></div>	none	500.0	test	n/a	n/a	n/a	n/a	n/a	n/a	n/a	n/a	n/a	n/a	n/a	n/a	n/a	n/a	n/a	n/a	n/a	n/a	fixation
154904.09909110912	250.0	n/a	525	71	2750	302.900908891	stim	stop-signal	460	1239143	0.0-17.36-1.36	beast_fmri_test	306	20.613933333333332,20.62526666666667,20.636583333333334,20.647916666666667	t,t,t,t	<img class = center src='/static/experiments/beast_fmri_test/images/T.png'></img>	71,89	2750.0	test	<img class = center src='/static/experiments/beast_fmri_test/images/redT.png'></img>	stop	2500.0	1.0	36.0	stop	target	T	71,Green Button	89,Yellow Button	250.0	400.0	2500.0	2350.0	0.0	250.0	1.0	0.0	go_stim
157404.09909110912	2500.0	n/a	525	71	2750	302.900908891	stim	stop-signal	460	1239143	0.0-17.36-1.36	beast_fmri_test	306	20.613933333333332,20.62526666666667,20.636583333333334,20.647916666666667	t,t,t,t	<img class = center src='/static/experiments/beast_fmri_test/images/T.png'></img>	71,89	2750.0	test	<img class = center src='/static/experiments/beast_fmri_test/images/redT.png'></img>	stop	2500.0	1.0	36.0	stop	target	T	71,Green Button	89,Yellow Button	250.0	400.0	2500.0	2350.0	0.0	250.0	1.0	0.0	stop_stim
157654.09909110912	302.9009088909765	n/a	525	71	2750	302.900908891	stim	stop-signal	460	1239143	0.0-17.36-1.36	beast_fmri_test	306	20.613933333333332,20.62526666666667,20.636583333333334,20.647916666666667	t,t,t,t	<img class = center src='/static/experiments/beast_fmri_test/images/T.png'></img>	71,89	2750.0	test	<img class = center src='/static/experiments/beast_fmri_test/images/redT.png'></img>	stop	2500.0	1.0	36.0	stop	target	T	71,Green Button	89,Yellow Button	250.0	400.0	2500.0	2350.0	0.0	250.0	1.0	0.0	ITI
158810.0	500	n/a	-1	-1	500	0.0	fixation	poldrack-single-stim	461	1239996	0.0-17.37-0.37	beast_fmri_test	306	20.65925	t	<div class = centerbox><div class = fixation>+</div></div>	none	500.0	test	n/a	n/a	n/a	n/a	n/a	n/a	n/a	n/a	n/a	n/a	n/a	n/a	n/a	n/a	n/a	n/a	n/a	n/a	fixation
158216.99278933485	2750	n/a	651	89	2750	597.007210665	stim	stop-signal	462	1242750	0.0-17.37-1.37	beast_fmri_test	306	20.670566666666666,20.681933333333333,20.693266666666666,20.7046,20.715916666666665	t,t,t,t,t	<img class = center src='/static/experiments/beast_fmri_test/images/D.png'></img>	71,89	2750.0	test	<img class = center src='/static/experiments/beast_fmri_test/images/redD.png'></img>	go	2350.0	1.0	37.0	go	non-target	D	71,Green Button	89,Yellow Button	200.0	400.0	2500.0	2350.0	1.0	400.0	1.0	n/a	go_stim
160966.99278933485	597.0072106651138	n/a	651	89	2750	597.007210665	stim	stop-signal	462	1242750	0.0-17.37-1.37	beast_fmri_test	306	20.670566666666666,20.681933333333333,20.693266666666666,20.7046,20.715916666666665	t,t,t,t,t	<img class = center src='/static/experiments/beast_fmri_test/images/D.png'></img>	71,89	2750.0	test	<img class = center src='/static/experiments/beast_fmri_test/images/redD.png'></img>	go	2350.0	1.0	37.0	go	non-target	D	71,Green Button	89,Yellow Button	200.0	400.0	2500.0	2350.0	1.0	400.0	1.0	n/a	ITI
162711.0	500	n/a	-1	-1	500	0.0	fixation	poldrack-single-stim	463	1243897	0.0-17.38-0.38	beast_fmri_test	306	20.727216666666667	t	<div class = centerbox><div class = fixation>+</div></div>	none	500.0	test	n/a	n/a	n/a	n/a	n/a	n/a	n/a	n/a	n/a	n/a	n/a	n/a	n/a	n/a	n/a	n/a	n/a	n/a	fixation
162599.88558842242	400.0	n/a	-1	-1	2750	114.114411578	stim	stop-signal	464	1246650	0.0-17.38-1.38	beast_fmri_test	306	20.73855,20.74985,20.761183333333335,20.77253333333333	t,t,t,t	<img class = center src='/static/experiments/beast_fmri_test/images/P.png'></img>	71,89	2750.0	test	<img class = center src='/static/experiments/beast_fmri_test/images/redP.png'></img>	stop	2350.0	1.0	38.0	stop	non-target	P	71,Green Button	89,Yellow Button	200.0	400.0	2500.0	2350.0	0.0	400.0	0.0	1.0	go_stim
164949.88558842242	2350.0	n/a	-1	-1	2750	114.114411578	stim	stop-signal	464	1246650	0.0-17.38-1.38	beast_fmri_test	306	20.73855,20.74985,20.761183333333335,20.77253333333333	t,t,t,t	<img class = center src='/static/experiments/beast_fmri_test/images/P.png'></img>	71,89	2750.0	test	<img class = center src='/static/experiments/beast_fmri_test/images/redP.png'></img>	stop	2350.0	1.0	38.0	stop	non-target	P	71,Green Button	89,Yellow Button	200.0	400.0	2500.0	2350.0	0.0	400.0	0.0	1.0	stop_stim
165349.88558842242	114.11441157757984	n/a	-1	-1	2750	114.114411578	stim	stop-signal	464	1246650	0.0-17.38-1.38	beast_fmri_test	306	20.73855,20.74985,20.761183333333335,20.77253333333333	t,t,t,t	<img class = center src='/static/experiments/beast_fmri_test/images/P.png'></img>	71,89	2750.0	test	<img class = center src='/static/experiments/beast_fmri_test/images/redP.png'></img>	stop	2350.0	1.0	38.0	stop	non-target	P	71,Green Button	89,Yellow Button	200.0	400.0	2500.0	2350.0	0.0	400.0	0.0	1.0	ITI
166130.0	500	n/a	-1	-1	500	0.0	fixation	poldrack-single-stim	465	1247316	0.0-17.39-0.39	beast_fmri_test	306	20.78386666666667	t	<div class = centerbox><div class = fixation>+</div></div>	none	500.0	test	n/a	n/a	n/a	n/a	n/a	n/a	n/a	n/a	n/a	n/a	n/a	n/a	n/a	n/a	n/a	n/a	n/a	n/a	fixation
165971.77523077419	450.0	n/a	1503	89	2750	162.224769226	stim	stop-signal	466	1250070	0.0-17.39-1.39	beast_fmri_test	306	20.7952,20.806533333333334,20.817866666666667,20.829183333333333	t,t,t,t	<img class = center src='/static/experiments/beast_fmri_test/images/D.png'></img>	71,89	2750.0	test	<img class = center src='/static/experiments/beast_fmri_test/images/redD.png'></img>	stop	2300.0	1.0	39.0	stop	non-target	D	71,Green Button	89,Yellow Button	200.0	450.0	2500.0	2300.0	0.0	450.0	1.0	0.0	go_stim
168271.77523077419	2300.0	n/a	1503	89	2750	162.224769226	stim	stop-signal	466	1250070	0.0-17.39-1.39	beast_fmri_test	306	20.7952,20.806533333333334,20.817866666666667,20.829183333333333	t,t,t,t	<img class = center src='/static/experiments/beast_fmri_test/images/D.png'></img>	71,89	2750.0	test	<img class = center src='/static/experiments/beast_fmri_test/images/redD.png'></img>	stop	2300.0	1.0	39.0	stop	non-target	D	71,Green Button	89,Yellow Button	200.0	450.0	2500.0	2300.0	0.0	450.0	1.0	0.0	stop_stim
168721.77523077419	162.22476922585398	n/a	1503	89	2750	162.224769226	stim	stop-signal	466	1250070	0.0-17.39-1.39	beast_fmri_test	306	20.7952,20.806533333333334,20.817866666666667,20.829183333333333	t,t,t,t	<img class = center src='/static/experiments/beast_fmri_test/images/D.png'></img>	71,89	2750.0	test	<img class = center src='/static/experiments/beast_fmri_test/images/redD.png'></img>	stop	2300.0	1.0	39.0	stop	non-target	D	71,Green Button	89,Yellow Button	200.0	450.0	2500.0	2300.0	0.0	450.0	1.0	0.0	ITI
169599.0	500	n/a	-1	-1	500	0.0	fixation	poldrack-single-stim	467	1250785	0.0-17.40-0.40	beast_fmri_test	306	20.840533333333333	t	<div class = centerbox><div class = fixation>+</div></div>	none	500.0	test	n/a	n/a	n/a	n/a	n/a	n/a	n/a	n/a	n/a	n/a	n/a	n/a	n/a	n/a	n/a	n/a	n/a	n/a	fixation
167971.20352176367	2750	n/a	1225	89	2750	1626.79647824	stim	stop-signal	468	1253534	0.0-17.40-1.40	beast_fmri_test	306	20.851866666666666,20.863183333333332,20.87451666666667,20.885816666666667,20.897116666666665,20.908466666666666	t,t,t,t,t,t	<img class = center src='/static/experiments/beast_fmri_test/images/B.png'></img>	71,89	2750.0	test	<img class = center src='/static/experiments/beast_fmri_test/images/redB.png'></img>	go	2350.0	1.0	40.0	go	non-target	B	71,Green Button	89,Yellow Button	200.0	400.0	2500.0	2350.0	1.0	400.0	1.0	n/a	go_stim
170721.20352176367	1626.7964782364231	n/a	1225	89	2750	1626.79647824	stim	stop-signal	468	1253534	0.0-17.40-1.40	beast_fmri_test	306	20.851866666666666,20.863183333333332,20.87451666666667,20.885816666666667,20.897116666666665,20.908466666666666	t,t,t,t,t,t	<img class = center src='/static/experiments/beast_fmri_test/images/B.png'></img>	71,89	2750.0	test	<img class = center src='/static/experiments/beast_fmri_test/images/redB.png'></img>	go	2350.0	1.0	40.0	go	non-target	B	71,Green Button	89,Yellow Button	200.0	400.0	2500.0	2350.0	1.0	400.0	1.0	n/a	ITI
174528.0	500	n/a	-1	-1	500	0.0	fixation	poldrack-single-stim	469	1255714	0.0-17.41-0.41	beast_fmri_test	306	20.9202	t	<div class = centerbox><div class = fixation>+</div></div>	none	500.0	test	n/a	n/a	n/a	n/a	n/a	n/a	n/a	n/a	n/a	n/a	n/a	n/a	n/a	n/a	n/a	n/a	n/a	n/a	fixation
170659.13791530789	2750	n/a	733	71	2750	3871.86208469	stim	stop-signal	470	1258467	0.0-17.41-1.41	beast_fmri_test	306	20.931116666666668,20.94245,20.953783333333334,20.965116666666667,20.97645,20.987783333333333,20.999116666666666,21.01045,21.02178333333333,21.03311666666667	t,t,t,t,t,t,t,t,t,t	<img class = center src='/static/experiments/beast_fmri_test/images/B.png'></img>	71,89	2750.0	test	<img class = center src='/static/experiments/beast_fmri_test/images/redB.png'></img>	go	2550.0	1.0	41.0	go	target	B	71,Green Button	89,Yellow Button	200.0	400.0	2550.0	2350.0	1.0	200.0	1.0	n/a	go_stim
173409.13791530789	3871.862084692099	n/a	733	71	2750	3871.86208469	stim	stop-signal	470	1258467	0.0-17.41-1.41	beast_fmri_test	306	20.931116666666668,20.94245,20.953783333333334,20.965116666666667,20.97645,20.987783333333333,20.999116666666666,21.01045,21.02178333333333,21.03311666666667	t,t,t,t,t,t,t,t,t,t	<img class = center src='/static/experiments/beast_fmri_test/images/B.png'></img>	71,89	2750.0	test	<img class = center src='/static/experiments/beast_fmri_test/images/redB.png'></img>	go	2550.0	1.0	41.0	go	target	B	71,Green Button	89,Yellow Button	200.0	400.0	2550.0	2350.0	1.0	200.0	1.0	n/a	ITI
181706.0	500	n/a	-1	-1	500	0.0	fixation	poldrack-single-stim	471	1262892	0.0-17.42-0.42	beast_fmri_test	306	21.04445	t	<div class = centerbox><div class = fixation>+</div></div>	none	500.0	test	n/a	n/a	n/a	n/a	n/a	n/a	n/a	n/a	n/a	n/a	n/a	n/a	n/a	n/a	n/a	n/a	n/a	n/a	fixation
180541.10105689475	2750	n/a	1012	89	2750	1163.89894311	stim	stop-signal	472	1265641	0.0-17.42-1.42	beast_fmri_test	306	21.05575,21.067033333333335,21.078366666666668,21.0897,21.101016666666666,21.11235	t,t,t,t,t,t	<img class = center src='/static/experiments/beast_fmri_test/images/B.png'></img>	71,89	2750.0	test	<img class = center src='/static/experiments/beast_fmri_test/images/redB.png'></img>	go	2550.0	1.0	42.0	go	target	B	71,Green Button	89,Yellow Button	200.0	400.0	2550.0	2350.0	0.0	200.0	0.0	n/a	go_stim
183291.10105689475	1163.8989431051546	n/a	1012	89	2750	1163.89894311	stim	stop-signal	472	1265641	0.0-17.42-1.42	beast_fmri_test	306	21.05575,21.067033333333335,21.078366666666668,21.0897,21.101016666666666,21.11235	t,t,t,t,t,t	<img class = center src='/static/experiments/beast_fmri_test/images/B.png'></img>	71,89	2750.0	test	<img class = center src='/static/experiments/beast_fmri_test/images/redB.png'></img>	go	2550.0	1.0	42.0	go	target	B	71,Green Button	89,Yellow Button	200.0	400.0	2550.0	2350.0	0.0	200.0	0.0	n/a	ITI
186177.0	500	n/a	-1	-1	500	0.0	fixation	poldrack-single-stim	473	1267363	0.0-17.43-0.43	beast_fmri_test	306	n/a	n/a	<div class = centerbox><div class = fixation>+</div></div>	none	500.0	test	n/a	n/a	n/a	n/a	n/a	n/a	n/a	n/a	n/a	n/a	n/a	n/a	n/a	n/a	n/a	n/a	n/a	n/a	fixation
186160.6487823436	2750	n/a	554	71	2750	21.3512176564	stim	stop-signal	474	1270118	0.0-17.43-1.43	beast_fmri_test	306	21.123683333333332,21.135016666666665,21.146366666666665,21.1577,21.169016666666668	t,t,t,t,t	<img class = center src='/static/experiments/beast_fmri_test/images/B.png'></img>	71,89	2750.0	test	<img class = center src='/static/experiments/beast_fmri_test/images/redB.png'></img>	go	2550.0	1.0	43.0	go	target	B	71,Green Button	89,Yellow Button	200.0	400.0	2550.0	2350.0	1.0	200.0	1.0	n/a	go_stim
188910.6487823436	21.351217656417049	n/a	554	71	2750	21.3512176564	stim	stop-signal	474	1270118	0.0-17.43-1.43	beast_fmri_test	306	21.123683333333332,21.135016666666665,21.146366666666665,21.1577,21.169016666666668	t,t,t,t,t	<img class = center src='/static/experiments/beast_fmri_test/images/B.png'></img>	71,89	2750.0	test	<img class = center src='/static/experiments/beast_fmri_test/images/redB.png'></img>	go	2550.0	1.0	43.0	go	target	B	71,Green Button	89,Yellow Button	200.0	400.0	2550.0	2350.0	1.0	200.0	1.0	n/a	ITI
189500.0	500	n/a	-1	-1	500	0.0	fixation	poldrack-single-stim	475	1270686	0.0-17.44-0.44	beast_fmri_test	306	n/a	n/a	<div class = centerbox><div class = fixation>+</div></div>	none	500.0	test	n/a	n/a	n/a	n/a	n/a	n/a	n/a	n/a	n/a	n/a	n/a	n/a	n/a	n/a	n/a	n/a	n/a	n/a	fixation
186509.81035530171	200.0	n/a	-1	-1	2750	2990.1896447	stim	stop-signal	476	1273436	0.0-17.44-1.44	beast_fmri_test	306	21.180366666666668,21.1917,21.203033333333334,21.21435,21.22565,21.236966666666667,21.248283333333333,21.259616666666666,21.270966666666666	t,t,t,t,t,t,t,t,t	<img class = center src='/static/experiments/beast_fmri_test/images/B.png'></img>	71,89	2750.0	test	<img class = center src='/static/experiments/beast_fmri_test/images/redB.png'></img>	stop	2550.0	1.0	44.0	stop	target	B	71,Green Button	89,Yellow Button	200.0	400.0	2550.0	2350.0	0.0	200.0	0.0	1.0	go_stim
189059.81035530171	2550.0	n/a	-1	-1	2750	2990.1896447	stim	stop-signal	476	1273436	0.0-17.44-1.44	beast_fmri_test	306	21.180366666666668,21.1917,21.203033333333334,21.21435,21.22565,21.236966666666667,21.248283333333333,21.259616666666666,21.270966666666666	t,t,t,t,t,t,t,t,t	<img class = center src='/static/experiments/beast_fmri_test/images/B.png'></img>	71,89	2750.0	test	<img class = center src='/static/experiments/beast_fmri_test/images/redB.png'></img>	stop	2550.0	1.0	44.0	stop	target	B	71,Green Button	89,Yellow Button	200.0	400.0	2550.0	2350.0	0.0	200.0	0.0	1.0	stop_stim
189259.81035530171	2990.1896446983064	n/a	-1	-1	2750	2990.1896447	stim	stop-signal	476	1273436	0.0-17.44-1.44	beast_fmri_test	306	21.180366666666668,21.1917,21.203033333333334,21.21435,21.22565,21.236966666666667,21.248283333333333,21.259616666666666,21.270966666666666	t,t,t,t,t,t,t,t,t	<img class = center src='/static/experiments/beast_fmri_test/images/B.png'></img>	71,89	2750.0	test	<img class = center src='/static/experiments/beast_fmri_test/images/redB.png'></img>	stop	2550.0	1.0	44.0	stop	target	B	71,Green Button	89,Yellow Button	200.0	400.0	2550.0	2350.0	0.0	200.0	0.0	1.0	ITI
195787.0	500	n/a	-1	-1	500	0.0	fixation	poldrack-single-stim	477	1276973	0.0-17.45-0.45	beast_fmri_test	306	21.2823	t	<div class = centerbox><div class = fixation>+</div></div>	none	500.0	test	n/a	n/a	n/a	n/a	n/a	n/a	n/a	n/a	n/a	n/a	n/a	n/a	n/a	n/a	n/a	n/a	n/a	n/a	fixation
195488.30544386455	2750	n/a	577	89	2750	301.694556135	stim	stop-signal	478	1279726	0.0-17.45-1.45	beast_fmri_test	306	21.293633333333332,21.304966666666665,21.3163,21.327633333333335	t,t,t,t	<img class = center src='/static/experiments/beast_fmri_test/images/P.png'></img>	71,89	2750.0	test	<img class = center src='/static/experiments/beast_fmri_test/images/redP.png'></img>	go	2350.0	1.0	45.0	go	non-target	P	71,Green Button	89,Yellow Button	250.0	400.0	2550.0	2350.0	1.0	400.0	1.0	n/a	go_stim
198238.30544386455	301.69455613544477	n/a	577	89	2750	301.694556135	stim	stop-signal	478	1279726	0.0-17.45-1.45	beast_fmri_test	306	21.293633333333332,21.304966666666665,21.3163,21.327633333333335	t,t,t,t	<img class = center src='/static/experiments/beast_fmri_test/images/P.png'></img>	71,89	2750.0	test	<img class = center src='/static/experiments/beast_fmri_test/images/redP.png'></img>	go	2350.0	1.0	45.0	go	non-target	P	71,Green Button	89,Yellow Button	250.0	400.0	2550.0	2350.0	1.0	400.0	1.0	n/a	ITI
213886.0	15000	n/a	-1	-1	15000	0.0	practice-no-stop-feedback	poldrack-single-stim	479	1295072	0.0-18.0	beast_fmri_test	306	21.33895,21.3503,21.361633333333334,21.372966666666667,21.3843,21.395583333333335,21.406883333333333,21.418216666666666,21.42955,21.4409,21.4522,21.46355,21.474866666666667,21.4862,21.497533333333333,21.508883333333333,21.5202,21.53155,21.542883333333332,21.554183333333334,21.565483333333333,21.5768	t,t,t,t,t,t,t,t,t,t,t,t,t,t,t,t,t,t,t,t,t,t	"<div class = ""centerbox""><p class = ""center-block-text"">Your delay is 2 trials.</p><p class = center-block-text>Please wait for the scanner to start the block</p></div>"	77	15000.0	n/a	n/a	n/a	n/a	n/a	n/a	n/a	n/a	n/a	n/a	n/a	n/a	n/a	n/a	n/a	n/a	n/a	n/a	n/a	practice-no-stop-feedback
214389.0	500	n/a	-1	-1	500	0.0	fixation	poldrack-single-stim	480	1295575	0.0-19.0-0.0	beast_fmri_test	306	21.58813333333333	t	<div class = centerbox><div class = fixation>+</div></div>	none	500.0	test	n/a	n/a	n/a	n/a	n/a	n/a	n/a	n/a	n/a	n/a	n/a	n/a	n/a	n/a	n/a	n/a	n/a	n/a	fixation
211802.8029654501	temp_go_duration	n/a	2258	89	2750	2589.19703455	stim	stop-signal	481	1298328	0.0-19.0-1.0	beast_fmri_test	306	21.599466666666668,21.6108,21.622133333333334,21.63345,21.6448,21.656133333333333,21.667466666666666,21.6788	t,t,t,t,t,t,t,t	<img class = center src='/static/experiments/beast_fmri_test/images/T.png'></img>	71,89	2750.0	test	<img class = center src='/static/experiments/beast_fmri_test/images/redT.png'></img>	stop	-1.0	2.0	0.0	stop	temp-non-target	T	71,Green Button	89,Yellow Button	250.0	400.0	2550.0	2350.0	0.0	n/a	n/a	0.0	go_stim
temp-non-target	temp_stop_duration	n/a	2258	89	2750	2589.19703455	stim	stop-signal	481	1298328	0.0-19.0-1.0	beast_fmri_test	306	21.599466666666668,21.6108,21.622133333333334,21.63345,21.6448,21.656133333333333,21.667466666666666,21.6788	t,t,t,t,t,t,t,t	<img class = center src='/static/experiments/beast_fmri_test/images/T.png'></img>	71,89	2750.0	test	<img class = center src='/static/experiments/beast_fmri_test/images/redT.png'></img>	stop	-1.0	2.0	0.0	stop	temp-non-target	T	71,Green Button	89,Yellow Button	250.0	400.0	2550.0	2350.0	0.0	n/a	n/a	0.0	stop_stim
214552.8029654501	2589.1970345499467	n/a	2258	89	2750	2589.19703455	stim	stop-signal	481	1298328	0.0-19.0-1.0	beast_fmri_test	306	21.599466666666668,21.6108,21.622133333333334,21.63345,21.6448,21.656133333333333,21.667466666666666,21.6788	t,t,t,t,t,t,t,t	<img class = center src='/static/experiments/beast_fmri_test/images/T.png'></img>	71,89	2750.0	test	<img class = center src='/static/experiments/beast_fmri_test/images/redT.png'></img>	stop	-1.0	2.0	0.0	stop	temp-non-target	T	71,Green Button	89,Yellow Button	250.0	400.0	2550.0	2350.0	0.0	n/a	n/a	0.0	ITI
220280.0	500	n/a	-1	-1	500	0.0	fixation	poldrack-single-stim	482	1301466	0.0-19.1-0.1	beast_fmri_test	306	21.690133333333332	t	<div class = centerbox><div class = fixation>+</div></div>	none	500.0	test	n/a	n/a	n/a	n/a	n/a	n/a	n/a	n/a	n/a	n/a	n/a	n/a	n/a	n/a	n/a	n/a	n/a	n/a	fixation
218571.89450672176	2750	n/a	622	89	2750	1705.10549328	stim	stop-signal	483	1304213	0.0-19.1-1.1	beast_fmri_test	306	21.701483333333332,21.712816666666665,21.7241,21.7354,21.746716666666668,21.758066666666668	t,t,t,t,t,t	<img class = center src='/static/experiments/beast_fmri_test/images/P.png'></img>	71,89	2750.0	test	<img class = center src='/static/experiments/beast_fmri_test/images/redP.png'></img>	go	-1.0	2.0	1.0	go	temp-non-target	P	71,Green Button	89,Yellow Button	250.0	400.0	2550.0	2350.0	0.0	n/a	n/a	n/a	go_stim
221321.89450672176	1705.1054932781626	n/a	622	89	2750	1705.10549328	stim	stop-signal	483	1304213	0.0-19.1-1.1	beast_fmri_test	306	21.701483333333332,21.712816666666665,21.7241,21.7354,21.746716666666668,21.758066666666668	t,t,t,t,t,t	<img class = center src='/static/experiments/beast_fmri_test/images/P.png'></img>	71,89	2750.0	test	<img class = center src='/static/experiments/beast_fmri_test/images/redP.png'></img>	go	-1.0	2.0	1.0	go	temp-non-target	P	71,Green Button	89,Yellow Button	250.0	400.0	2550.0	2350.0	0.0	n/a	n/a	n/a	ITI
225280.0	500	n/a	-1	-1	500	0.0	fixation	poldrack-single-stim	484	1306466	0.0-19.2-0.2	beast_fmri_test	306	21.769416666666668	t	<div class = centerbox><div class = fixation>+</div></div>	none	500.0	test	n/a	n/a	n/a	n/a	n/a	n/a	n/a	n/a	n/a	n/a	n/a	n/a	n/a	n/a	n/a	n/a	n/a	n/a	fixation
224997.91749331285	2750	n/a	515	89	2750	285.082506687	stim	stop-signal	485	1309219	0.0-19.2-1.2	beast_fmri_test	306	21.780733333333334,21.792066666666667,21.8034,21.814733333333333	t,t,t,t	<img class = center src='/static/experiments/beast_fmri_test/images/V.png'></img>	71,89	2750.0	test	<img class = center src='/static/experiments/beast_fmri_test/images/redV.png'></img>	go	2350.0	2.0	2.0	go	non-target	V	71,Green Button	89,Yellow Button	250.0	400.0	2550.0	2350.0	1.0	400.0	1.0	n/a	go_stim
227747.91749331285	285.08250668721627	n/a	515	89	2750	285.082506687	stim	stop-signal	485	1309219	0.0-19.2-1.2	beast_fmri_test	306	21.780733333333334,21.792066666666667,21.8034,21.814733333333333	t,t,t,t	<img class = center src='/static/experiments/beast_fmri_test/images/V.png'></img>	71,89	2750.0	test	<img class = center src='/static/experiments/beast_fmri_test/images/redV.png'></img>	go	2350.0	2.0	2.0	go	non-target	V	71,Green Button	89,Yellow Button	250.0	400.0	2550.0	2350.0	1.0	400.0	1.0	n/a	ITI
228869.0	500	n/a	-1	-1	500	0.0	fixation	poldrack-single-stim	486	1310055	0.0-19.3-0.3	beast_fmri_test	306	21.826083333333333	t	<div class = centerbox><div class = fixation>+</div></div>	none	500.0	test	n/a	n/a	n/a	n/a	n/a	n/a	n/a	n/a	n/a	n/a	n/a	n/a	n/a	n/a	n/a	n/a	n/a	n/a	fixation
228718.19876103522	2750	n/a	780	89	2750	153.801238965	stim	stop-signal	487	1312808	0.0-19.3-1.3	beast_fmri_test	306	21.8374,21.848716666666668,21.86006666666667,21.8714,21.882716666666667	t,t,t,t,t	<img class = center src='/static/experiments/beast_fmri_test/images/V.png'></img>	71,89	2750.0	test	<img class = center src='/static/experiments/beast_fmri_test/images/redV.png'></img>	go	2350.0	2.0	3.0	go	non-target	V	71,Green Button	89,Yellow Button	250.0	400.0	2550.0	2350.0	1.0	400.0	1.0	n/a	go_stim
231468.19876103522	153.80123896486037	n/a	780	89	2750	153.801238965	stim	stop-signal	487	1312808	0.0-19.3-1.3	beast_fmri_test	306	21.8374,21.848716666666668,21.86006666666667,21.8714,21.882716666666667	t,t,t,t,t	<img class = center src='/static/experiments/beast_fmri_test/images/V.png'></img>	71,89	2750.0	test	<img class = center src='/static/experiments/beast_fmri_test/images/redV.png'></img>	go	2350.0	2.0	3.0	go	non-target	V	71,Green Button	89,Yellow Button	250.0	400.0	2550.0	2350.0	1.0	400.0	1.0	n/a	ITI
232321.0	500	n/a	-1	-1	500	0.0	fixation	poldrack-single-stim	488	1313507	0.0-19.4-0.4	beast_fmri_test	306	n/a	n/a	<div class = centerbox><div class = fixation>+</div></div>	none	500.0	test	n/a	n/a	n/a	n/a	n/a	n/a	n/a	n/a	n/a	n/a	n/a	n/a	n/a	n/a	n/a	n/a	n/a	n/a	fixation
232265.85485295393	2750	n/a	1371	89	2750	57.1451470461	stim	stop-signal	489	1316259	0.0-19.4-1.4	beast_fmri_test	306	21.894016666666666,21.905316666666668,21.91665,21.927983333333334	t,t,t,t	<img class = center src='/static/experiments/beast_fmri_test/images/P.png'></img>	71,89	2750.0	test	<img class = center src='/static/experiments/beast_fmri_test/images/redP.png'></img>	go	2350.0	2.0	4.0	go	non-target	P	71,Green Button	89,Yellow Button	250.0	400.0	2550.0	2350.0	1.0	400.0	1.0	n/a	go_stim
235015.85485295393	57.145147046134632	n/a	1371	89	2750	57.1451470461	stim	stop-signal	489	1316259	0.0-19.4-1.4	beast_fmri_test	306	21.894016666666666,21.905316666666668,21.91665,21.927983333333334	t,t,t,t	<img class = center src='/static/experiments/beast_fmri_test/images/P.png'></img>	71,89	2750.0	test	<img class = center src='/static/experiments/beast_fmri_test/images/redP.png'></img>	go	2350.0	2.0	4.0	go	non-target	P	71,Green Button	89,Yellow Button	250.0	400.0	2550.0	2350.0	1.0	400.0	1.0	n/a	ITI
235682.0	500	n/a	-1	-1	500	0.0	fixation	poldrack-single-stim	490	1316868	0.0-19.5-0.5	beast_fmri_test	306	21.939466666666668	t	<div class = centerbox><div class = fixation>+</div></div>	none	500.0	test	n/a	n/a	n/a	n/a	n/a	n/a	n/a	n/a	n/a	n/a	n/a	n/a	n/a	n/a	n/a	n/a	n/a	n/a	fixation
234992.55774602271	2750	n/a	1183	71	2750	692.442253977	stim	stop-signal	491	1319621	0.0-19.5-1.5	beast_fmri_test	306	21.95065,21.961966666666665,21.973283333333335,21.98465,21.995983333333335	t,t,t,t,t	<img class = center src='/static/experiments/beast_fmri_test/images/V.png'></img>	71,89	2750.0	test	<img class = center src='/static/experiments/beast_fmri_test/images/redV.png'></img>	go	2500.0	2.0	5.0	go	target	V	71,Green Button	89,Yellow Button	250.0	400.0	2500.0	2350.0	1.0	250.0	1.0	n/a	go_stim
237742.55774602271	692.44225397732419	n/a	1183	71	2750	692.442253977	stim	stop-signal	491	1319621	0.0-19.5-1.5	beast_fmri_test	306	21.95065,21.961966666666665,21.973283333333335,21.98465,21.995983333333335	t,t,t,t,t	<img class = center src='/static/experiments/beast_fmri_test/images/V.png'></img>	71,89	2750.0	test	<img class = center src='/static/experiments/beast_fmri_test/images/redV.png'></img>	go	2500.0	2.0	5.0	go	target	V	71,Green Button	89,Yellow Button	250.0	400.0	2500.0	2350.0	1.0	250.0	1.0	n/a	ITI
239669.0	500	n/a	-1	-1	500	0.0	fixation	poldrack-single-stim	492	1320855	0.0-19.6-0.6	beast_fmri_test	306	22.007266666666666	t	<div class = centerbox><div class = fixation>+</div></div>	none	500.0	test	n/a	n/a	n/a	n/a	n/a	n/a	n/a	n/a	n/a	n/a	n/a	n/a	n/a	n/a	n/a	n/a	n/a	n/a	fixation
239245.22506912239	2750	n/a	506	89	2750	426.774930878	stim	stop-signal	493	1323608	0.0-19.6-1.6	beast_fmri_test	306	22.01856666666667,22.029916666666665,22.041233333333334,22.052566666666667,22.063916666666668	t,t,t,t,t	<img class = center src='/static/experiments/beast_fmri_test/images/D.png'></img>	71,89	2750.0	test	<img class = center src='/static/experiments/beast_fmri_test/images/redD.png'></img>	go	2350.0	2.0	6.0	go	non-target	D	71,Green Button	89,Yellow Button	250.0	400.0	2500.0	2350.0	1.0	400.0	1.0	n/a	go_stim
241995.22506912239	426.77493087751452	n/a	506	89	2750	426.774930878	stim	stop-signal	493	1323608	0.0-19.6-1.6	beast_fmri_test	306	22.01856666666667,22.029916666666665,22.041233333333334,22.052566666666667,22.063916666666668	t,t,t,t,t	<img class = center src='/static/experiments/beast_fmri_test/images/D.png'></img>	71,89	2750.0	test	<img class = center src='/static/experiments/beast_fmri_test/images/redD.png'></img>	go	2350.0	2.0	6.0	go	non-target	D	71,Green Button	89,Yellow Button	250.0	400.0	2500.0	2350.0	1.0	400.0	1.0	n/a	ITI
243401.0	500	n/a	-1	-1	500	0.0	fixation	poldrack-single-stim	494	1324587	0.0-19.7-0.7	beast_fmri_test	306	22.075233333333333	t	<div class = centerbox><div class = fixation>+</div></div>	none	500.0	test	n/a	n/a	n/a	n/a	n/a	n/a	n/a	n/a	n/a	n/a	n/a	n/a	n/a	n/a	n/a	n/a	n/a	n/a	fixation
242387.49517372204	400.0	n/a	840	89	2750	1015.50482628	stim	stop-signal	495	1327339	0.0-19.7-1.7	beast_fmri_test	306	22.086566666666666,22.097883333333332,22.109233333333332,22.12055,22.1319	t,t,t,t,t	<img class = center src='/static/experiments/beast_fmri_test/images/P.png'></img>	71,89	2750.0	test	<img class = center src='/static/experiments/beast_fmri_test/images/redP.png'></img>	stop	2350.0	2.0	7.0	stop	non-target	P	71,Green Button	89,Yellow Button	250.0	400.0	2500.0	2350.0	0.0	400.0	1.0	0.0	go_stim
244737.49517372204	2350.0	n/a	840	89	2750	1015.50482628	stim	stop-signal	495	1327339	0.0-19.7-1.7	beast_fmri_test	306	22.086566666666666,22.097883333333332,22.109233333333332,22.12055,22.1319	t,t,t,t,t	<img class = center src='/static/experiments/beast_fmri_test/images/P.png'></img>	71,89	2750.0	test	<img class = center src='/static/experiments/beast_fmri_test/images/redP.png'></img>	stop	2350.0	2.0	7.0	stop	non-target	P	71,Green Button	89,Yellow Button	250.0	400.0	2500.0	2350.0	0.0	400.0	1.0	0.0	stop_stim
245137.49517372204	1015.5048262780533	n/a	840	89	2750	1015.50482628	stim	stop-signal	495	1327339	0.0-19.7-1.7	beast_fmri_test	306	22.086566666666666,22.097883333333332,22.109233333333332,22.12055,22.1319	t,t,t,t,t	<img class = center src='/static/experiments/beast_fmri_test/images/P.png'></img>	71,89	2750.0	test	<img class = center src='/static/experiments/beast_fmri_test/images/redP.png'></img>	stop	2350.0	2.0	7.0	stop	non-target	P	71,Green Button	89,Yellow Button	250.0	400.0	2500.0	2350.0	0.0	400.0	1.0	0.0	ITI
247718.0	500	n/a	-1	-1	500	0.0	fixation	poldrack-single-stim	496	1328904	0.0-19.8-0.8	beast_fmri_test	306	22.143216666666667	t	<div class = centerbox><div class = fixation>+</div></div>	none	500.0	test	n/a	n/a	n/a	n/a	n/a	n/a	n/a	n/a	n/a	n/a	n/a	n/a	n/a	n/a	n/a	n/a	n/a	n/a	fixation
247577.16772083356	2750	n/a	1102	89	2750	142.832279167	stim	stop-signal	497	1331656	0.0-19.8-1.8	beast_fmri_test	306	22.154566666666668,22.1659,22.177233333333334,22.188583333333334	t,t,t,t	<img class = center src='/static/experiments/beast_fmri_test/images/D.png'></img>	71,89	2750.0	test	<img class = center src='/static/experiments/beast_fmri_test/images/redD.png'></img>	go	2500.0	2.0	8.0	go	target	D	71,Green Button	89,Yellow Button	250.0	350.0	2500.0	2350.0	0.0	250.0	0.0	n/a	go_stim
250327.16772083356	142.83227916653161	n/a	1102	89	2750	142.832279167	stim	stop-signal	497	1331656	0.0-19.8-1.8	beast_fmri_test	306	22.154566666666668,22.1659,22.177233333333334,22.188583333333334	t,t,t,t	<img class = center src='/static/experiments/beast_fmri_test/images/D.png'></img>	71,89	2750.0	test	<img class = center src='/static/experiments/beast_fmri_test/images/redD.png'></img>	go	2500.0	2.0	8.0	go	target	D	71,Green Button	89,Yellow Button	250.0	350.0	2500.0	2350.0	0.0	250.0	0.0	n/a	ITI
251160.0	500	n/a	-1	-1	500	0.0	fixation	poldrack-single-stim	498	1332346	0.0-19.9-0.9	beast_fmri_test	306	22.199916666666667	t	<div class = centerbox><div class = fixation>+</div></div>	none	500.0	test	n/a	n/a	n/a	n/a	n/a	n/a	n/a	n/a	n/a	n/a	n/a	n/a	n/a	n/a	n/a	n/a	n/a	n/a	fixation
249821.6788969941	250.0	n/a	-1	-1	2750	1335.32110301	stim	stop-signal	499	1335093	0.0-19.9-1.9	beast_fmri_test	306	22.211233333333332,22.22255,22.23385,22.245166666666666,22.256516666666666,22.267833333333332	t,t,t,t,t,t	<img class = center src='/static/experiments/beast_fmri_test/images/P.png'></img>	71,89	2750.0	test	<img class = center src='/static/experiments/beast_fmri_test/images/redP.png'></img>	stop	2500.0	2.0	9.0	stop	target	P	71,Green Button	89,Yellow Button	250.0	350.0	2500.0	2350.0	0.0	250.0	0.0	1.0	go_stim
252321.6788969941	2500.0	n/a	-1	-1	2750	1335.32110301	stim	stop-signal	499	1335093	0.0-19.9-1.9	beast_fmri_test	306	22.211233333333332,22.22255,22.23385,22.245166666666666,22.256516666666666,22.267833333333332	t,t,t,t,t,t	<img class = center src='/static/experiments/beast_fmri_test/images/P.png'></img>	71,89	2750.0	test	<img class = center src='/static/experiments/beast_fmri_test/images/redP.png'></img>	stop	2500.0	2.0	9.0	stop	target	P	71,Green Button	89,Yellow Button	250.0	350.0	2500.0	2350.0	0.0	250.0	0.0	1.0	stop_stim
252571.6788969941	1335.3211030059574	n/a	-1	-1	2750	1335.32110301	stim	stop-signal	499	1335093	0.0-19.9-1.9	beast_fmri_test	306	22.211233333333332,22.22255,22.23385,22.245166666666666,22.256516666666666,22.267833333333332	t,t,t,t,t,t	<img class = center src='/static/experiments/beast_fmri_test/images/P.png'></img>	71,89	2750.0	test	<img class = center src='/static/experiments/beast_fmri_test/images/redP.png'></img>	stop	2500.0	2.0	9.0	stop	target	P	71,Green Button	89,Yellow Button	250.0	350.0	2500.0	2350.0	0.0	250.0	0.0	1.0	ITI
255792.0	500	n/a	-1	-1	500	0.0	fixation	poldrack-single-stim	500	1336978	0.0-19.10-0.10	beast_fmri_test	306	22.279166666666665	t	<div class = centerbox><div class = fixation>+</div></div>	none	500.0	test	n/a	n/a	n/a	n/a	n/a	n/a	n/a	n/a	n/a	n/a	n/a	n/a	n/a	n/a	n/a	n/a	n/a	n/a	fixation
254358.56270140316	2750	n/a	427	71	2750	1436.4372986	stim	stop-signal	501	1339731	0.0-19.10-1.10	beast_fmri_test	306	22.290483333333334,22.301833333333335,22.313166666666667,22.3245,22.335833333333333,22.34715	t,t,t,t,t,t	<img class = center src='/static/experiments/beast_fmri_test/images/D.png'></img>	71,89	2750.0	test	<img class = center src='/static/experiments/beast_fmri_test/images/redD.png'></img>	go	2450.0	2.0	10.0	go	target	D	71,Green Button	89,Yellow Button	300.0	350.0	2450.0	2350.0	1.0	300.0	1.0	n/a	go_stim
257108.56270140316	1436.4372985967238	n/a	427	71	2750	1436.4372986	stim	stop-signal	501	1339731	0.0-19.10-1.10	beast_fmri_test	306	22.290483333333334,22.301833333333335,22.313166666666667,22.3245,22.335833333333333,22.34715	t,t,t,t,t,t	<img class = center src='/static/experiments/beast_fmri_test/images/D.png'></img>	71,89	2750.0	test	<img class = center src='/static/experiments/beast_fmri_test/images/redD.png'></img>	go	2450.0	2.0	10.0	go	target	D	71,Green Button	89,Yellow Button	300.0	350.0	2450.0	2350.0	1.0	300.0	1.0	n/a	ITI
260533.0	500	n/a	-1	-1	500	0.0	fixation	poldrack-single-stim	502	1341719	0.0-19.11-0.11	beast_fmri_test	306	22.358516666666667	t	<div class = centerbox><div class = fixation>+</div></div>	none	500.0	test	n/a	n/a	n/a	n/a	n/a	n/a	n/a	n/a	n/a	n/a	n/a	n/a	n/a	n/a	n/a	n/a	n/a	n/a	fixation
259940.66806588834	2750	n/a	512	89	2750	591.331934112	stim	stop-signal	503	1344468	0.0-19.11-1.11	beast_fmri_test	306	22.369833333333332,22.381166666666665,22.392466666666667,22.40375,22.41508333333333	t,t,t,t,t	<img class = center src='/static/experiments/beast_fmri_test/images/B.png'></img>	71,89	2750.0	test	<img class = center src='/static/experiments/beast_fmri_test/images/redB.png'></img>	go	2400.0	2.0	11.0	go	non-target	B	71,Green Button	89,Yellow Button	300.0	350.0	2450.0	2400.0	1.0	350.0	1.0	n/a	go_stim
262690.66806588834	591.33193411166576	n/a	512	89	2750	591.331934112	stim	stop-signal	503	1344468	0.0-19.11-1.11	beast_fmri_test	306	22.369833333333332,22.381166666666665,22.392466666666667,22.40375,22.41508333333333	t,t,t,t,t	<img class = center src='/static/experiments/beast_fmri_test/images/B.png'></img>	71,89	2750.0	test	<img class = center src='/static/experiments/beast_fmri_test/images/redB.png'></img>	go	2400.0	2.0	11.0	go	non-target	B	71,Green Button	89,Yellow Button	300.0	350.0	2450.0	2400.0	1.0	350.0	1.0	n/a	ITI
264425.0	500	n/a	-1	-1	500	0.0	fixation	poldrack-single-stim	504	1345611	0.0-19.12-0.12	beast_fmri_test	306	22.426433333333332	t	<div class = centerbox><div class = fixation>+</div></div>	none	500.0	test	n/a	n/a	n/a	n/a	n/a	n/a	n/a	n/a	n/a	n/a	n/a	n/a	n/a	n/a	n/a	n/a	n/a	n/a	fixation
262661.36951249721	350.0	n/a	-1	-1	2750	1767.6304875	stim	stop-signal	505	1348365	0.0-19.12-1.12	beast_fmri_test	306	22.43775,22.449083333333334,22.460433333333334,22.47175,22.483083333333333,22.494416666666666	t,t,t,t,t,t	<img class = center src='/static/experiments/beast_fmri_test/images/V.png'></img>	71,89	2750.0	test	<img class = center src='/static/experiments/beast_fmri_test/images/redV.png'></img>	stop	2400.0	2.0	12.0	stop	non-target	V	71,Green Button	89,Yellow Button	300.0	350.0	2450.0	2400.0	0.0	350.0	0.0	1.0	go_stim
265061.36951249721	2400.0	n/a	-1	-1	2750	1767.6304875	stim	stop-signal	505	1348365	0.0-19.12-1.12	beast_fmri_test	306	22.43775,22.449083333333334,22.460433333333334,22.47175,22.483083333333333,22.494416666666666	t,t,t,t,t,t	<img class = center src='/static/experiments/beast_fmri_test/images/V.png'></img>	71,89	2750.0	test	<img class = center src='/static/experiments/beast_fmri_test/images/redV.png'></img>	stop	2400.0	2.0	12.0	stop	non-target	V	71,Green Button	89,Yellow Button	300.0	350.0	2450.0	2400.0	0.0	350.0	0.0	1.0	stop_stim
265411.36951249721	1767.6304875028022	n/a	-1	-1	2750	1767.6304875	stim	stop-signal	505	1348365	0.0-19.12-1.12	beast_fmri_test	306	22.43775,22.449083333333334,22.460433333333334,22.47175,22.483083333333333,22.494416666666666	t,t,t,t,t,t	<img class = center src='/static/experiments/beast_fmri_test/images/V.png'></img>	71,89	2750.0	test	<img class = center src='/static/experiments/beast_fmri_test/images/redV.png'></img>	stop	2400.0	2.0	12.0	stop	non-target	V	71,Green Button	89,Yellow Button	300.0	350.0	2450.0	2400.0	0.0	350.0	0.0	1.0	ITI
269502.0	500	n/a	-1	-1	500	0.0	fixation	poldrack-single-stim	506	1350688	0.0-19.13-0.13	beast_fmri_test	306	22.50575	t	<div class = centerbox><div class = fixation>+</div></div>	none	500.0	test	n/a	n/a	n/a	n/a	n/a	n/a	n/a	n/a	n/a	n/a	n/a	n/a	n/a	n/a	n/a	n/a	n/a	n/a	fixation
268586.52037376096	300.0	n/a	-1	-1	2750	916.479626239	stim	stop-signal	507	1353439	0.0-19.13-1.13	beast_fmri_test	306	22.517083333333332,22.528416666666665,22.539766666666665,22.551066666666667,22.562366666666666	t,t,t,t,t	<img class = center src='/static/experiments/beast_fmri_test/images/B.png'></img>	71,89	2750.0	test	<img class = center src='/static/experiments/beast_fmri_test/images/redB.png'></img>	stop	2450.0	2.0	13.0	stop	target	B	71,Green Button	89,Yellow Button	300.0	400.0	2450.0	2400.0	0.0	300.0	0.0	1.0	go_stim
271036.52037376096	2450.0	n/a	-1	-1	2750	916.479626239	stim	stop-signal	507	1353439	0.0-19.13-1.13	beast_fmri_test	306	22.517083333333332,22.528416666666665,22.539766666666665,22.551066666666667,22.562366666666666	t,t,t,t,t	<img class = center src='/static/experiments/beast_fmri_test/images/B.png'></img>	71,89	2750.0	test	<img class = center src='/static/experiments/beast_fmri_test/images/redB.png'></img>	stop	2450.0	2.0	13.0	stop	target	B	71,Green Button	89,Yellow Button	300.0	400.0	2450.0	2400.0	0.0	300.0	0.0	1.0	stop_stim
271336.52037376096	916.47962623907119	n/a	-1	-1	2750	916.479626239	stim	stop-signal	507	1353439	0.0-19.13-1.13	beast_fmri_test	306	22.517083333333332,22.528416666666665,22.539766666666665,22.551066666666667,22.562366666666666	t,t,t,t,t	<img class = center src='/static/experiments/beast_fmri_test/images/B.png'></img>	71,89	2750.0	test	<img class = center src='/static/experiments/beast_fmri_test/images/redB.png'></img>	stop	2450.0	2.0	13.0	stop	target	B	71,Green Button	89,Yellow Button	300.0	400.0	2450.0	2400.0	0.0	300.0	0.0	1.0	ITI
273717.0	500	n/a	-1	-1	500	0.0	fixation	poldrack-single-stim	508	1354903	0.0-19.14-0.14	beast_fmri_test	306	22.573716666666666	t	<div class = centerbox><div class = fixation>+</div></div>	none	500.0	test	n/a	n/a	n/a	n/a	n/a	n/a	n/a	n/a	n/a	n/a	n/a	n/a	n/a	n/a	n/a	n/a	n/a	n/a	fixation
271146.63798825187	400.0	n/a	727	89	2750	2574.36201175	stim	stop-signal	509	1357657	0.0-19.14-1.14	beast_fmri_test	306	22.585,22.596316666666667,22.607666666666667,22.618983333333333,22.630366666666667,22.641666666666666,22.653,22.66433333333333	t,t,t,t,t,t,t,t	<img class = center src='/static/experiments/beast_fmri_test/images/P.png'></img>	71,89	2750.0	test	<img class = center src='/static/experiments/beast_fmri_test/images/redP.png'></img>	stop	2350.0	2.0	14.0	stop	non-target	P	71,Green Button	89,Yellow Button	350.0	400.0	2450.0	2350.0	0.0	400.0	1.0	0.0	go_stim
273496.63798825187	2350.0	n/a	727	89	2750	2574.36201175	stim	stop-signal	509	1357657	0.0-19.14-1.14	beast_fmri_test	306	22.585,22.596316666666667,22.607666666666667,22.618983333333333,22.630366666666667,22.641666666666666,22.653,22.66433333333333	t,t,t,t,t,t,t,t	<img class = center src='/static/experiments/beast_fmri_test/images/P.png'></img>	71,89	2750.0	test	<img class = center src='/static/experiments/beast_fmri_test/images/redP.png'></img>	stop	2350.0	2.0	14.0	stop	non-target	P	71,Green Button	89,Yellow Button	350.0	400.0	2450.0	2350.0	0.0	400.0	1.0	0.0	stop_stim
273896.63798825187	2574.3620117480546	n/a	727	89	2750	2574.36201175	stim	stop-signal	509	1357657	0.0-19.14-1.14	beast_fmri_test	306	22.585,22.596316666666667,22.607666666666667,22.618983333333333,22.630366666666667,22.641666666666666,22.653,22.66433333333333	t,t,t,t,t,t,t,t	<img class = center src='/static/experiments/beast_fmri_test/images/P.png'></img>	71,89	2750.0	test	<img class = center src='/static/experiments/beast_fmri_test/images/redP.png'></img>	stop	2350.0	2.0	14.0	stop	non-target	P	71,Green Button	89,Yellow Button	350.0	400.0	2450.0	2350.0	0.0	400.0	1.0	0.0	ITI
279598.0	500	n/a	-1	-1	500	0.0	fixation	poldrack-single-stim	510	1360784	0.0-19.15-0.15	beast_fmri_test	306	22.6757	t	<div class = centerbox><div class = fixation>+</div></div>	none	500.0	test	n/a	n/a	n/a	n/a	n/a	n/a	n/a	n/a	n/a	n/a	n/a	n/a	n/a	n/a	n/a	n/a	n/a	n/a	fixation
277117.04416262801	2750	n/a	977	89	2750	2481.95583737	stim	stop-signal	511	1363535	0.0-19.15-1.15	beast_fmri_test	306	22.68701666666667,22.69835,22.709683333333334,22.720983333333333,22.732283333333335,22.743583333333333,22.754916666666666,22.766266666666667	t,t,t,t,t,t,t,t	<img class = center src='/static/experiments/beast_fmri_test/images/B.png'></img>	71,89	2750.0	test	<img class = center src='/static/experiments/beast_fmri_test/images/redB.png'></img>	go	2400.0	2.0	15.0	go	target	B	71,Green Button	89,Yellow Button	350.0	350.0	2400.0	2350.0	0.0	350.0	0.0	n/a	go_stim
279867.04416262801	2481.9558373720965	n/a	977	89	2750	2481.95583737	stim	stop-signal	511	1363535	0.0-19.15-1.15	beast_fmri_test	306	22.68701666666667,22.69835,22.709683333333334,22.720983333333333,22.732283333333335,22.743583333333333,22.754916666666666,22.766266666666667	t,t,t,t,t,t,t,t	<img class = center src='/static/experiments/beast_fmri_test/images/B.png'></img>	71,89	2750.0	test	<img class = center src='/static/experiments/beast_fmri_test/images/redB.png'></img>	go	2400.0	2.0	15.0	go	target	B	71,Green Button	89,Yellow Button	350.0	350.0	2400.0	2350.0	0.0	350.0	0.0	n/a	ITI
285378.0	500	n/a	-1	-1	500	0.0	fixation	poldrack-single-stim	512	1366564	0.0-19.16-0.16	beast_fmri_test	306	n/a	n/a	<div class = centerbox><div class = fixation>+</div></div>	none	500.0	test	n/a	n/a	n/a	n/a	n/a	n/a	n/a	n/a	n/a	n/a	n/a	n/a	n/a	n/a	n/a	n/a	n/a	n/a	fixation
285191.03192110197	2750	n/a	1245	89	2750	184.968078898	stim	stop-signal	513	1369312	0.0-19.16-1.16	beast_fmri_test	306	22.777616666666667,22.788933333333333,22.80025,22.811533333333333,22.82283333333333	t,t,t,t,t	<img class = center src='/static/experiments/beast_fmri_test/images/P.png'></img>	71,89	2750.0	test	<img class = center src='/static/experiments/beast_fmri_test/images/redP.png'></img>	go	2400.0	2.0	16.0	go	target	P	71,Green Button	89,Yellow Button	350.0	350.0	2400.0	2350.0	0.0	350.0	0.0	n/a	go_stim
287941.03192110197	184.96807889811745	n/a	1245	89	2750	184.968078898	stim	stop-signal	513	1369312	0.0-19.16-1.16	beast_fmri_test	306	22.777616666666667,22.788933333333333,22.80025,22.811533333333333,22.82283333333333	t,t,t,t,t	<img class = center src='/static/experiments/beast_fmri_test/images/P.png'></img>	71,89	2750.0	test	<img class = center src='/static/experiments/beast_fmri_test/images/redP.png'></img>	go	2400.0	2.0	16.0	go	target	P	71,Green Button	89,Yellow Button	350.0	350.0	2400.0	2350.0	0.0	350.0	0.0	n/a	ITI
288863.0	500	n/a	-1	-1	500	0.0	fixation	poldrack-single-stim	514	1370049	0.0-19.17-0.17	beast_fmri_test	306	n/a	n/a	<div class = centerbox><div class = fixation>+</div></div>	none	500.0	test	n/a	n/a	n/a	n/a	n/a	n/a	n/a	n/a	n/a	n/a	n/a	n/a	n/a	n/a	n/a	n/a	n/a	n/a	fixation
288477.21293506189	2750	n/a	663	89	2750	387.787064938	stim	stop-signal	515	1372801	0.0-19.17-1.17	beast_fmri_test	306	22.834183333333332,22.845516666666665,22.85685,22.868183333333334,22.879516666666667	t,t,t,t,t	<img class = center src='/static/experiments/beast_fmri_test/images/T.png'></img>	71,89	2750.0	test	<img class = center src='/static/experiments/beast_fmri_test/images/redT.png'></img>	go	2400.0	2.0	17.0	go	non-target	T	71,Green Button	89,Yellow Button	350.0	350.0	2400.0	2400.0	1.0	350.0	1.0	n/a	go_stim
291227.21293506189	387.78706493806817	n/a	663	89	2750	387.787064938	stim	stop-signal	515	1372801	0.0-19.17-1.17	beast_fmri_test	306	22.834183333333332,22.845516666666665,22.85685,22.868183333333334,22.879516666666667	t,t,t,t,t	<img class = center src='/static/experiments/beast_fmri_test/images/T.png'></img>	71,89	2750.0	test	<img class = center src='/static/experiments/beast_fmri_test/images/redT.png'></img>	go	2400.0	2.0	17.0	go	non-target	T	71,Green Button	89,Yellow Button	350.0	350.0	2400.0	2400.0	1.0	350.0	1.0	n/a	ITI
292557.0	500	n/a	-1	-1	500	0.0	fixation	poldrack-single-stim	516	1373743	0.0-19.18-0.18	beast_fmri_test	306	22.89085	t	<div class = centerbox><div class = fixation>+</div></div>	none	500.0	test	n/a	n/a	n/a	n/a	n/a	n/a	n/a	n/a	n/a	n/a	n/a	n/a	n/a	n/a	n/a	n/a	n/a	n/a	fixation
291755.30772386515	2750	n/a	516	89	2750	805.692276135	stim	stop-signal	517	1376497	0.0-19.18-1.18	beast_fmri_test	306	22.902166666666666,22.9135,22.92485,22.936183333333332,22.947516666666665	t,t,t,t,t	<img class = center src='/static/experiments/beast_fmri_test/images/T.png'></img>	71,89	2750.0	test	<img class = center src='/static/experiments/beast_fmri_test/images/redT.png'></img>	go	2400.0	2.0	18.0	go	non-target	T	71,Green Button	89,Yellow Button	350.0	350.0	2400.0	2400.0	1.0	350.0	1.0	n/a	go_stim
294505.30772386515	805.69227613483031	n/a	516	89	2750	805.692276135	stim	stop-signal	517	1376497	0.0-19.18-1.18	beast_fmri_test	306	22.902166666666666,22.9135,22.92485,22.936183333333332,22.947516666666665	t,t,t,t,t	<img class = center src='/static/experiments/beast_fmri_test/images/T.png'></img>	71,89	2750.0	test	<img class = center src='/static/experiments/beast_fmri_test/images/redT.png'></img>	go	2400.0	2.0	18.0	go	non-target	T	71,Green Button	89,Yellow Button	350.0	350.0	2400.0	2400.0	1.0	350.0	1.0	n/a	ITI
296665.0	500	n/a	-1	-1	500	0.0	fixation	poldrack-single-stim	518	1377851	0.0-19.19-0.19	beast_fmri_test	306	22.958866666666665	t	<div class = centerbox><div class = fixation>+</div></div>	none	500.0	test	n/a	n/a	n/a	n/a	n/a	n/a	n/a	n/a	n/a	n/a	n/a	n/a	n/a	n/a	n/a	n/a	n/a	n/a	fixation
