onset	duration	text	rt	key_press	block_duration	timing_post_trial	trial_id	trial_type	trial_index	time_elapsed	internal_node_id	exp_id	subject_id	trigger_times	triggers	stimulus	possible_responses	stim_duration	exp_stage	SS_stimulus	SS_trial_type	SS_duration	load	trial_num	stop_trial_type	adaptive_trial_type	stim	yes_response_key	no_response_key	SSD_target	SSD_non_target	SSTarget	SSNonTarget	go_acc	SS_delay	adaptive_acc	stop_acc	new_trial_type
test	10880	n/a	-1	-1	10880	0.0	practice-no-stop-feedback	poldrack-single-stim	196	580119	0.0-10.0	beast_fmri_test	306	9.487366666666667,9.498666666666667,9.510016666666667,9.52135,9.5327,9.544016666666666,9.55535,9.566633333333334,9.57795,9.58925,9.6006,9.61195,9.623283333333333,9.6346,9.645933333333334,9.657283333333334,9.6686	t,t,t,t,t,t,t,t,t,t,t,t,t,t,t,t,t	"<div class = ""centerbox""><p class = ""center-block-text"">Your delay is 2 trials.</p><p class = center-block-text>Please wait for the scanner to start the block</p></div>"	77	10880.0	n/a	n/a	n/a	n/a	n/a	n/a	n/a	n/a	n/a	n/a	n/a	n/a	n/a	n/a	n/a	n/a	n/a	n/a	n/a	start_functional_block
11381.0	500	n/a	-1	-1	500	0.0	fixation	poldrack-single-stim	197	580623	0.0-11.0-0.0	beast_fmri_test	306	n/a	n/a	<div class = centerbox><div class = fixation>+</div></div>	none	500.0	test	n/a	n/a	n/a	n/a	n/a	n/a	n/a	n/a	n/a	n/a	n/a	n/a	n/a	n/a	n/a	n/a	n/a	n/a	fixation
10181.545973537606	2750	n/a	485	89	2750	1202.45402646	stim	stop-signal	198	583376	0.0-11.0-1.0	beast_fmri_test	306	9.679933333333333,9.691283333333333,9.7026,9.713933333333333,9.72525,9.736516666666667	t,t,t,t,t,t	<img class = center src='/static/experiments/beast_fmri_test/images/T.png'></img>	71,89	2750.0	test	<img class = center src='/static/experiments/beast_fmri_test/images/redT.png'></img>	go	-1.0	2.0	0.0	go	temp-non-target	T	71,Green Button	89,Yellow Button	400.0	500.0	2400.0	2250.0	0.0	n/a	n/a	n/a	go_stim
12931.545973537606	1202.4540264624186	n/a	485	89	2750	1202.45402646	stim	stop-signal	198	583376	0.0-11.0-1.0	beast_fmri_test	306	9.679933333333333,9.691283333333333,9.7026,9.713933333333333,9.72525,9.736516666666667	t,t,t,t,t,t	<img class = center src='/static/experiments/beast_fmri_test/images/T.png'></img>	71,89	2750.0	test	<img class = center src='/static/experiments/beast_fmri_test/images/redT.png'></img>	go	-1.0	2.0	0.0	go	temp-non-target	T	71,Green Button	89,Yellow Button	400.0	500.0	2400.0	2250.0	0.0	n/a	n/a	n/a	ITI
15857.0	500	n/a	-1	-1	500	0.0	fixation	poldrack-single-stim	199	585099	0.0-11.1-0.1	beast_fmri_test	306	9.74785	t	<div class = centerbox><div class = fixation>+</div></div>	none	500.0	test	n/a	n/a	n/a	n/a	n/a	n/a	n/a	n/a	n/a	n/a	n/a	n/a	n/a	n/a	n/a	n/a	n/a	n/a	fixation
15233.028170077945	2750	n/a	714	89	2750	626.971829922	stim	stop-signal	200	587852	0.0-11.1-1.1	beast_fmri_test	306	9.759166666666667,9.770516666666667,9.78185,9.7932,9.804533333333334	t,t,t,t,t	<img class = center src='/static/experiments/beast_fmri_test/images/T.png'></img>	71,89	2750.0	test	<img class = center src='/static/experiments/beast_fmri_test/images/redT.png'></img>	go	-1.0	2.0	1.0	go	temp-non-target	T	71,Green Button	89,Yellow Button	400.0	500.0	2400.0	2250.0	0.0	n/a	n/a	n/a	go_stim
17983.028170077945	626.97182992203022	n/a	714	89	2750	626.971829922	stim	stop-signal	200	587852	0.0-11.1-1.1	beast_fmri_test	306	9.759166666666667,9.770516666666667,9.78185,9.7932,9.804533333333334	t,t,t,t,t	<img class = center src='/static/experiments/beast_fmri_test/images/T.png'></img>	71,89	2750.0	test	<img class = center src='/static/experiments/beast_fmri_test/images/redT.png'></img>	go	-1.0	2.0	1.0	go	temp-non-target	T	71,Green Button	89,Yellow Button	400.0	500.0	2400.0	2250.0	0.0	n/a	n/a	n/a	ITI
19763.0	500	n/a	-1	-1	500	0.0	fixation	poldrack-single-stim	201	589005	0.0-11.2-0.2	beast_fmri_test	306	9.815866666666667	t	<div class = centerbox><div class = fixation>+</div></div>	none	500.0	test	n/a	n/a	n/a	n/a	n/a	n/a	n/a	n/a	n/a	n/a	n/a	n/a	n/a	n/a	n/a	n/a	n/a	n/a	fixation
19676.809170220513	500.0	n/a	942	89	2750	90.1908297795	stim	stop-signal	202	591759	0.0-11.2-1.2	beast_fmri_test	306	9.827183333333334,9.838516666666667,9.849866666666667,9.8612	t,t,t,t	<img class = center src='/static/experiments/beast_fmri_test/images/P.png'></img>	71,89	2750.0	test	<img class = center src='/static/experiments/beast_fmri_test/images/redP.png'></img>	stop	2250.0	2.0	2.0	stop	non-target	P	71,Green Button	89,Yellow Button	400.0	500.0	2400.0	2250.0	0.0	500.0	1.0	0.0	go_stim
21926.809170220513	2250.0	n/a	942	89	2750	90.1908297795	stim	stop-signal	202	591759	0.0-11.2-1.2	beast_fmri_test	306	9.827183333333334,9.838516666666667,9.849866666666667,9.8612	t,t,t,t	<img class = center src='/static/experiments/beast_fmri_test/images/P.png'></img>	71,89	2750.0	test	<img class = center src='/static/experiments/beast_fmri_test/images/redP.png'></img>	stop	2250.0	2.0	2.0	stop	non-target	P	71,Green Button	89,Yellow Button	400.0	500.0	2400.0	2250.0	0.0	500.0	1.0	0.0	stop_stim
22426.809170220513	90.190829779451789	n/a	942	89	2750	90.1908297795	stim	stop-signal	202	591759	0.0-11.2-1.2	beast_fmri_test	306	9.827183333333334,9.838516666666667,9.849866666666667,9.8612	t,t,t,t	<img class = center src='/static/experiments/beast_fmri_test/images/P.png'></img>	71,89	2750.0	test	<img class = center src='/static/experiments/beast_fmri_test/images/redP.png'></img>	stop	2250.0	2.0	2.0	stop	non-target	P	71,Green Button	89,Yellow Button	400.0	500.0	2400.0	2250.0	0.0	500.0	1.0	0.0	ITI
23131.0	500	n/a	-1	-1	500	0.0	fixation	poldrack-single-stim	203	592373	0.0-11.3-0.3	beast_fmri_test	306	9.872516666666666	t	<div class = centerbox><div class = fixation>+</div></div>	none	500.0	test	n/a	n/a	n/a	n/a	n/a	n/a	n/a	n/a	n/a	n/a	n/a	n/a	n/a	n/a	n/a	n/a	n/a	n/a	fixation
21677.133372857934	2750	n/a	768	89	2750	1451.86662714	stim	stop-signal	204	595121	0.0-11.3-1.3	beast_fmri_test	306	9.883866666666666,9.895166666666666,9.906433333333334,9.917766666666667,9.9291,9.940433333333333	t,t,t,t,t,t	<img class = center src='/static/experiments/beast_fmri_test/images/B.png'></img>	71,89	2750.0	test	<img class = center src='/static/experiments/beast_fmri_test/images/redB.png'></img>	go	2300.0	2.0	3.0	go	non-target	B	71,Green Button	89,Yellow Button	400.0	450.0	2400.0	2300.0	1.0	450.0	1.0	n/a	go_stim
24427.133372857934	1451.8666271420325	n/a	768	89	2750	1451.86662714	stim	stop-signal	204	595121	0.0-11.3-1.3	beast_fmri_test	306	9.883866666666666,9.895166666666666,9.906433333333334,9.917766666666667,9.9291,9.940433333333333	t,t,t,t,t,t	<img class = center src='/static/experiments/beast_fmri_test/images/B.png'></img>	71,89	2750.0	test	<img class = center src='/static/experiments/beast_fmri_test/images/redB.png'></img>	go	2300.0	2.0	3.0	go	non-target	B	71,Green Button	89,Yellow Button	400.0	450.0	2400.0	2300.0	1.0	450.0	1.0	n/a	ITI
27858.0	500	n/a	-1	-1	500	0.0	fixation	poldrack-single-stim	205	597100	0.0-11.4-0.4	beast_fmri_test	306	n/a	n/a	<div class = centerbox><div class = fixation>+</div></div>	none	500.0	test	n/a	n/a	n/a	n/a	n/a	n/a	n/a	n/a	n/a	n/a	n/a	n/a	n/a	n/a	n/a	n/a	n/a	n/a	fixation
26812.34944195929	450.0	n/a	727	89	2750	1047.65055804	stim	stop-signal	206	599852	0.0-11.4-1.4	beast_fmri_test	306	9.951766666666666,9.963116666666666,9.97445,9.985766666666667,9.997133333333334,10.00845	t,t,t,t,t,t	<img class = center src='/static/experiments/beast_fmri_test/images/D.png'></img>	71,89	2750.0	test	<img class = center src='/static/experiments/beast_fmri_test/images/redD.png'></img>	stop	2300.0	2.0	4.0	stop	non-target	D	71,Green Button	89,Yellow Button	400.0	450.0	2400.0	2300.0	0.0	450.0	1.0	0.0	go_stim
29112.34944195929	2300.0	n/a	727	89	2750	1047.65055804	stim	stop-signal	206	599852	0.0-11.4-1.4	beast_fmri_test	306	9.951766666666666,9.963116666666666,9.97445,9.985766666666667,9.997133333333334,10.00845	t,t,t,t,t,t	<img class = center src='/static/experiments/beast_fmri_test/images/D.png'></img>	71,89	2750.0	test	<img class = center src='/static/experiments/beast_fmri_test/images/redD.png'></img>	stop	2300.0	2.0	4.0	stop	non-target	D	71,Green Button	89,Yellow Button	400.0	450.0	2400.0	2300.0	0.0	450.0	1.0	0.0	stop_stim
29562.34944195929	1047.6505580407386	n/a	727	89	2750	1047.65055804	stim	stop-signal	206	599852	0.0-11.4-1.4	beast_fmri_test	306	9.951766666666666,9.963116666666666,9.97445,9.985766666666667,9.997133333333334,10.00845	t,t,t,t,t,t	<img class = center src='/static/experiments/beast_fmri_test/images/D.png'></img>	71,89	2750.0	test	<img class = center src='/static/experiments/beast_fmri_test/images/redD.png'></img>	stop	2300.0	2.0	4.0	stop	non-target	D	71,Green Button	89,Yellow Button	400.0	450.0	2400.0	2300.0	0.0	450.0	1.0	0.0	ITI
32181.0	500	n/a	-1	-1	500	0.0	fixation	poldrack-single-stim	207	601423	0.0-11.5-0.5	beast_fmri_test	306	10.019783333333333	t	<div class = centerbox><div class = fixation>+</div></div>	none	500.0	test	n/a	n/a	n/a	n/a	n/a	n/a	n/a	n/a	n/a	n/a	n/a	n/a	n/a	n/a	n/a	n/a	n/a	n/a	fixation
29970.839511674247	400.0	n/a	700	89	2750	2210.16048833	stim	stop-signal	208	604173	0.0-11.5-1.5	beast_fmri_test	306	10.031116666666666,10.042466666666666,10.053783333333334,10.065066666666667,10.076366666666667,10.087716666666667,10.09905	t,t,t,t,t,t,t	<img class = center src='/static/experiments/beast_fmri_test/images/V.png'></img>	71,89	2750.0	test	<img class = center src='/static/experiments/beast_fmri_test/images/redV.png'></img>	stop	2350.0	2.0	5.0	stop	non-target	V	71,Green Button	89,Yellow Button	400.0	400.0	2400.0	2350.0	0.0	400.0	1.0	0.0	go_stim
32320.839511674247	2350.0	n/a	700	89	2750	2210.16048833	stim	stop-signal	208	604173	0.0-11.5-1.5	beast_fmri_test	306	10.031116666666666,10.042466666666666,10.053783333333334,10.065066666666667,10.076366666666667,10.087716666666667,10.09905	t,t,t,t,t,t,t	<img class = center src='/static/experiments/beast_fmri_test/images/V.png'></img>	71,89	2750.0	test	<img class = center src='/static/experiments/beast_fmri_test/images/redV.png'></img>	stop	2350.0	2.0	5.0	stop	non-target	V	71,Green Button	89,Yellow Button	400.0	400.0	2400.0	2350.0	0.0	400.0	1.0	0.0	stop_stim
32720.839511674247	2210.160488325701	n/a	700	89	2750	2210.16048833	stim	stop-signal	208	604173	0.0-11.5-1.5	beast_fmri_test	306	10.031116666666666,10.042466666666666,10.053783333333334,10.065066666666667,10.076366666666667,10.087716666666667,10.09905	t,t,t,t,t,t,t	<img class = center src='/static/experiments/beast_fmri_test/images/V.png'></img>	71,89	2750.0	test	<img class = center src='/static/experiments/beast_fmri_test/images/redV.png'></img>	stop	2350.0	2.0	5.0	stop	non-target	V	71,Green Button	89,Yellow Button	400.0	400.0	2400.0	2350.0	0.0	400.0	1.0	0.0	ITI
37664.0	500	n/a	-1	-1	500	0.0	fixation	poldrack-single-stim	209	606906	0.0-11.6-0.6	beast_fmri_test	306	10.110383333333333	t	<div class = centerbox><div class = fixation>+</div></div>	none	500.0	test	n/a	n/a	n/a	n/a	n/a	n/a	n/a	n/a	n/a	n/a	n/a	n/a	n/a	n/a	n/a	n/a	n/a	n/a	fixation
37167.865340824239	2750	n/a	969	89	2750	500.134659176	stim	stop-signal	210	609660	0.0-11.6-1.6	beast_fmri_test	306	10.1217,10.133016666666666,10.144366666666667,10.1557,10.167033333333332	t,t,t,t,t	<img class = center src='/static/experiments/beast_fmri_test/images/D.png'></img>	71,89	2750.0	test	<img class = center src='/static/experiments/beast_fmri_test/images/redD.png'></img>	go	2350.0	2.0	6.0	go	target	D	71,Green Button	89,Yellow Button	400.0	350.0	2350.0	2350.0	0.0	400.0	0.0	n/a	go_stim
39917.865340824239	500.13465917570716	n/a	969	89	2750	500.134659176	stim	stop-signal	210	609660	0.0-11.6-1.6	beast_fmri_test	306	10.1217,10.133016666666666,10.144366666666667,10.1557,10.167033333333332	t,t,t,t,t	<img class = center src='/static/experiments/beast_fmri_test/images/D.png'></img>	71,89	2750.0	test	<img class = center src='/static/experiments/beast_fmri_test/images/redD.png'></img>	go	2350.0	2.0	6.0	go	target	D	71,Green Button	89,Yellow Button	400.0	350.0	2350.0	2350.0	0.0	400.0	0.0	n/a	ITI
41443.0	500	n/a	-1	-1	500	0.0	fixation	poldrack-single-stim	211	610685	0.0-11.7-0.7	beast_fmri_test	306	n/a	n/a	<div class = centerbox><div class = fixation>+</div></div>	none	500.0	test	n/a	n/a	n/a	n/a	n/a	n/a	n/a	n/a	n/a	n/a	n/a	n/a	n/a	n/a	n/a	n/a	n/a	n/a	fixation
40015.382239795988	400.0	n/a	620	71	2750	1430.6177602	stim	stop-signal	212	613438	0.0-11.7-1.7	beast_fmri_test	306	10.178366666666667,10.189716666666667,10.20105,10.212366666666666,10.223683333333334,10.234966666666667,10.2463	t,t,t,t,t,t,t	<img class = center src='/static/experiments/beast_fmri_test/images/V.png'></img>	71,89	2750.0	test	<img class = center src='/static/experiments/beast_fmri_test/images/redV.png'></img>	stop	2350.0	2.0	7.0	stop	target	V	71,Green Button	89,Yellow Button	400.0	350.0	2350.0	2350.0	0.0	400.0	1.0	0.0	go_stim
42365.382239795988	2350.0	n/a	620	71	2750	1430.6177602	stim	stop-signal	212	613438	0.0-11.7-1.7	beast_fmri_test	306	10.178366666666667,10.189716666666667,10.20105,10.212366666666666,10.223683333333334,10.234966666666667,10.2463	t,t,t,t,t,t,t	<img class = center src='/static/experiments/beast_fmri_test/images/V.png'></img>	71,89	2750.0	test	<img class = center src='/static/experiments/beast_fmri_test/images/redV.png'></img>	stop	2350.0	2.0	7.0	stop	target	V	71,Green Button	89,Yellow Button	400.0	350.0	2350.0	2350.0	0.0	400.0	1.0	0.0	stop_stim
42765.382239795988	1430.6177602039636	n/a	620	71	2750	1430.6177602	stim	stop-signal	212	613438	0.0-11.7-1.7	beast_fmri_test	306	10.178366666666667,10.189716666666667,10.20105,10.212366666666666,10.223683333333334,10.234966666666667,10.2463	t,t,t,t,t,t,t	<img class = center src='/static/experiments/beast_fmri_test/images/V.png'></img>	71,89	2750.0	test	<img class = center src='/static/experiments/beast_fmri_test/images/redV.png'></img>	stop	2350.0	2.0	7.0	stop	target	V	71,Green Button	89,Yellow Button	400.0	350.0	2350.0	2350.0	0.0	400.0	1.0	0.0	ITI
46148.0	500	n/a	-1	-1	500	0.0	fixation	poldrack-single-stim	213	615390	0.0-11.8-0.8	beast_fmri_test	306	n/a	n/a	<div class = centerbox><div class = fixation>+</div></div>	none	500.0	test	n/a	n/a	n/a	n/a	n/a	n/a	n/a	n/a	n/a	n/a	n/a	n/a	n/a	n/a	n/a	n/a	n/a	n/a	fixation
45949.054553985596	2750	n/a	504	89	2750	201.945446014	stim	stop-signal	214	618143	0.0-11.8-1.8	beast_fmri_test	306	10.257633333333333,10.26895,10.2803,10.291616666666666,10.30295	t,t,t,t,t	<img class = center src='/static/experiments/beast_fmri_test/images/T.png'></img>	71,89	2750.0	test	<img class = center src='/static/experiments/beast_fmri_test/images/redT.png'></img>	go	2400.0	2.0	8.0	go	non-target	T	71,Green Button	89,Yellow Button	350.0	350.0	2350.0	2400.0	1.0	350.0	1.0	n/a	go_stim
48699.054553985596	201.94544601445131	n/a	504	89	2750	201.945446014	stim	stop-signal	214	618143	0.0-11.8-1.8	beast_fmri_test	306	10.257633333333333,10.26895,10.2803,10.291616666666666,10.30295	t,t,t,t,t	<img class = center src='/static/experiments/beast_fmri_test/images/T.png'></img>	71,89	2750.0	test	<img class = center src='/static/experiments/beast_fmri_test/images/redT.png'></img>	go	2400.0	2.0	8.0	go	non-target	T	71,Green Button	89,Yellow Button	350.0	350.0	2350.0	2400.0	1.0	350.0	1.0	n/a	ITI
49629.0	500	n/a	-1	-1	500	0.0	fixation	poldrack-single-stim	215	618871	0.0-11.9-0.9	beast_fmri_test	306	10.314283333333334	t	<div class = centerbox><div class = fixation>+</div></div>	none	500.0	test	n/a	n/a	n/a	n/a	n/a	n/a	n/a	n/a	n/a	n/a	n/a	n/a	n/a	n/a	n/a	n/a	n/a	n/a	fixation
46004.794230495114	2750	n/a	511	71	2750	3627.2057695	stim	stop-signal	216	621624	0.0-11.9-1.9	beast_fmri_test	306	10.325633333333334,10.336966666666667,10.348266666666667,10.359616666666666,10.370966666666666,10.382283333333334,10.3936,10.404883333333334,10.4162	t,t,t,t,t,t,t,t,t	<img class = center src='/static/experiments/beast_fmri_test/images/V.png'></img>	71,89	2750.0	test	<img class = center src='/static/experiments/beast_fmri_test/images/redV.png'></img>	go	2400.0	2.0	9.0	go	target	V	71,Green Button	89,Yellow Button	350.0	350.0	2400.0	2400.0	1.0	350.0	1.0	n/a	go_stim
48754.794230495114	3627.2057695049389	n/a	511	71	2750	3627.2057695	stim	stop-signal	216	621624	0.0-11.9-1.9	beast_fmri_test	306	10.325633333333334,10.336966666666667,10.348266666666667,10.359616666666666,10.370966666666666,10.382283333333334,10.3936,10.404883333333334,10.4162	t,t,t,t,t,t,t,t,t	<img class = center src='/static/experiments/beast_fmri_test/images/V.png'></img>	71,89	2750.0	test	<img class = center src='/static/experiments/beast_fmri_test/images/redV.png'></img>	go	2400.0	2.0	9.0	go	target	V	71,Green Button	89,Yellow Button	350.0	350.0	2400.0	2400.0	1.0	350.0	1.0	n/a	ITI
56528.0	500	n/a	-1	-1	500	0.0	fixation	poldrack-single-stim	217	625770	0.0-11.10-0.10	beast_fmri_test	306	10.42755	t	<div class = centerbox><div class = fixation>+</div></div>	none	500.0	test	n/a	n/a	n/a	n/a	n/a	n/a	n/a	n/a	n/a	n/a	n/a	n/a	n/a	n/a	n/a	n/a	n/a	n/a	fixation
55790.412031800486	2750	n/a	413	71	2750	740.587968199	stim	stop-signal	218	628523	0.0-11.10-1.10	beast_fmri_test	306	10.438866666666666,10.450216666666666,10.46155,10.472866666666667,10.484233333333334	t,t,t,t,t	<img class = center src='/static/experiments/beast_fmri_test/images/T.png'></img>	71,89	2750.0	test	<img class = center src='/static/experiments/beast_fmri_test/images/redT.png'></img>	go	2400.0	2.0	10.0	go	target	T	71,Green Button	89,Yellow Button	350.0	350.0	2400.0	2400.0	1.0	350.0	1.0	n/a	go_stim
58540.412031800486	740.58796819948782	n/a	413	71	2750	740.587968199	stim	stop-signal	218	628523	0.0-11.10-1.10	beast_fmri_test	306	10.438866666666666,10.450216666666666,10.46155,10.472866666666667,10.484233333333334	t,t,t,t,t	<img class = center src='/static/experiments/beast_fmri_test/images/T.png'></img>	71,89	2750.0	test	<img class = center src='/static/experiments/beast_fmri_test/images/redT.png'></img>	go	2400.0	2.0	10.0	go	target	T	71,Green Button	89,Yellow Button	350.0	350.0	2400.0	2400.0	1.0	350.0	1.0	n/a	ITI
60546.0	500	n/a	-1	-1	500	0.0	fixation	poldrack-single-stim	219	629788	0.0-11.11-0.11	beast_fmri_test	306	10.495566666666667	t	<div class = centerbox><div class = fixation>+</div></div>	none	500.0	test	n/a	n/a	n/a	n/a	n/a	n/a	n/a	n/a	n/a	n/a	n/a	n/a	n/a	n/a	n/a	n/a	n/a	n/a	fixation
58368.340114338207	2750	n/a	1007	89	2750	2180.65988566	stim	stop-signal	220	632541	0.0-11.11-1.11	beast_fmri_test	306	10.5069,10.518233333333333,10.52955,10.540883333333333,10.552233333333334,10.563533333333334,10.574816666666667	t,t,t,t,t,t,t	<img class = center src='/static/experiments/beast_fmri_test/images/T.png'></img>	71,89	2750.0	test	<img class = center src='/static/experiments/beast_fmri_test/images/redT.png'></img>	go	2400.0	2.0	11.0	go	non-target	T	71,Green Button	89,Yellow Button	350.0	350.0	2400.0	2400.0	1.0	350.0	1.0	n/a	go_stim
61118.340114338207	2180.659885661792	n/a	1007	89	2750	2180.65988566	stim	stop-signal	220	632541	0.0-11.11-1.11	beast_fmri_test	306	10.5069,10.518233333333333,10.52955,10.540883333333333,10.552233333333334,10.563533333333334,10.574816666666667	t,t,t,t,t,t,t	<img class = center src='/static/experiments/beast_fmri_test/images/T.png'></img>	71,89	2750.0	test	<img class = center src='/static/experiments/beast_fmri_test/images/redT.png'></img>	go	2400.0	2.0	11.0	go	non-target	T	71,Green Button	89,Yellow Button	350.0	350.0	2400.0	2400.0	1.0	350.0	1.0	n/a	ITI
66001.0	500	n/a	-1	-1	500	0.0	fixation	poldrack-single-stim	221	635243	0.0-11.12-0.12	beast_fmri_test	306	10.586133333333333	t	<div class = centerbox><div class = fixation>+</div></div>	none	500.0	test	n/a	n/a	n/a	n/a	n/a	n/a	n/a	n/a	n/a	n/a	n/a	n/a	n/a	n/a	n/a	n/a	n/a	n/a	fixation
64090.057985668187	2750	n/a	730	89	2750	1912.94201433	stim	stop-signal	222	637995	0.0-11.12-1.12	beast_fmri_test	306	10.597483333333333,10.6088,10.620133333333333,10.631483333333334,10.642816666666667,10.65415	t,t,t,t,t,t	<img class = center src='/static/experiments/beast_fmri_test/images/P.png'></img>	71,89	2750.0	test	<img class = center src='/static/experiments/beast_fmri_test/images/redP.png'></img>	go	2400.0	2.0	12.0	go	non-target	P	71,Green Button	89,Yellow Button	350.0	350.0	2400.0	2400.0	1.0	350.0	1.0	n/a	go_stim
66840.057985668187	1912.9420143318707	n/a	730	89	2750	1912.94201433	stim	stop-signal	222	637995	0.0-11.12-1.12	beast_fmri_test	306	10.597483333333333,10.6088,10.620133333333333,10.631483333333334,10.642816666666667,10.65415	t,t,t,t,t,t	<img class = center src='/static/experiments/beast_fmri_test/images/P.png'></img>	71,89	2750.0	test	<img class = center src='/static/experiments/beast_fmri_test/images/redP.png'></img>	go	2400.0	2.0	12.0	go	non-target	P	71,Green Button	89,Yellow Button	350.0	350.0	2400.0	2400.0	1.0	350.0	1.0	n/a	ITI
71193.0	500	n/a	-1	-1	500	0.0	fixation	poldrack-single-stim	223	640435	0.0-11.13-0.13	beast_fmri_test	306	10.66555	t	<div class = centerbox><div class = fixation>+</div></div>	none	500.0	test	n/a	n/a	n/a	n/a	n/a	n/a	n/a	n/a	n/a	n/a	n/a	n/a	n/a	n/a	n/a	n/a	n/a	n/a	fixation
70762.25022562244	2750	n/a	807	89	2750	432.749774378	stim	stop-signal	224	643187	0.0-11.13-1.13	beast_fmri_test	306	10.676816666666667,10.688133333333333,10.699466666666666,10.710816666666666,10.722133333333334	t,t,t,t,t	<img class = center src='/static/experiments/beast_fmri_test/images/V.png'></img>	71,89	2750.0	test	<img class = center src='/static/experiments/beast_fmri_test/images/redV.png'></img>	go	2400.0	2.0	13.0	go	non-target	V	71,Green Button	89,Yellow Button	350.0	350.0	2400.0	2400.0	1.0	350.0	1.0	n/a	go_stim
73512.25022562244	432.74977437755376	n/a	807	89	2750	432.749774378	stim	stop-signal	224	643187	0.0-11.13-1.13	beast_fmri_test	306	10.676816666666667,10.688133333333333,10.699466666666666,10.710816666666666,10.722133333333334	t,t,t,t,t	<img class = center src='/static/experiments/beast_fmri_test/images/V.png'></img>	71,89	2750.0	test	<img class = center src='/static/experiments/beast_fmri_test/images/redV.png'></img>	go	2400.0	2.0	13.0	go	non-target	V	71,Green Button	89,Yellow Button	350.0	350.0	2400.0	2400.0	1.0	350.0	1.0	n/a	ITI
74902.0	500	n/a	-1	-1	500	0.0	fixation	poldrack-single-stim	225	644144	0.0-11.14-0.14	beast_fmri_test	306	10.733433333333334	t	<div class = centerbox><div class = fixation>+</div></div>	none	500.0	test	n/a	n/a	n/a	n/a	n/a	n/a	n/a	n/a	n/a	n/a	n/a	n/a	n/a	n/a	n/a	n/a	n/a	n/a	fixation
74079.158123132074	2750	n/a	2077	89	2750	822.841876868	stim	stop-signal	226	646894	0.0-11.14-1.14	beast_fmri_test	306	10.744733333333333,10.75605,10.767383333333333,10.778733333333333,10.790066666666666	t,t,t,t,t	<img class = center src='/static/experiments/beast_fmri_test/images/V.png'></img>	71,89	2750.0	test	<img class = center src='/static/experiments/beast_fmri_test/images/redV.png'></img>	go	2400.0	2.0	14.0	go	non-target	V	71,Green Button	89,Yellow Button	350.0	350.0	2400.0	2400.0	1.0	350.0	1.0	n/a	go_stim
76829.158123132074	822.84187686787868	n/a	2077	89	2750	822.841876868	stim	stop-signal	226	646894	0.0-11.14-1.14	beast_fmri_test	306	10.744733333333333,10.75605,10.767383333333333,10.778733333333333,10.790066666666666	t,t,t,t,t	<img class = center src='/static/experiments/beast_fmri_test/images/V.png'></img>	71,89	2750.0	test	<img class = center src='/static/experiments/beast_fmri_test/images/redV.png'></img>	go	2400.0	2.0	14.0	go	non-target	V	71,Green Button	89,Yellow Button	350.0	350.0	2400.0	2400.0	1.0	350.0	1.0	n/a	ITI
78999.0	500	n/a	-1	-1	500	0.0	fixation	poldrack-single-stim	227	648241	0.0-11.15-0.15	beast_fmri_test	306	10.8014	t	<div class = centerbox><div class = fixation>+</div></div>	none	500.0	test	n/a	n/a	n/a	n/a	n/a	n/a	n/a	n/a	n/a	n/a	n/a	n/a	n/a	n/a	n/a	n/a	n/a	n/a	fixation
78929.478160313447	350.0	n/a	-1	-1	2750	73.5218396866	stim	stop-signal	228	650995	0.0-11.15-1.15	beast_fmri_test	306	10.812733333333334,10.82405,10.8354,10.8467	t,t,t,t	<img class = center src='/static/experiments/beast_fmri_test/images/D.png'></img>	71,89	2750.0	test	<img class = center src='/static/experiments/beast_fmri_test/images/redD.png'></img>	stop	2400.0	2.0	15.0	stop	non-target	D	71,Green Button	89,Yellow Button	350.0	350.0	2400.0	2400.0	0.0	350.0	0.0	1.0	go_stim
81329.478160313447	2400.0	n/a	-1	-1	2750	73.5218396866	stim	stop-signal	228	650995	0.0-11.15-1.15	beast_fmri_test	306	10.812733333333334,10.82405,10.8354,10.8467	t,t,t,t	<img class = center src='/static/experiments/beast_fmri_test/images/D.png'></img>	71,89	2750.0	test	<img class = center src='/static/experiments/beast_fmri_test/images/redD.png'></img>	stop	2400.0	2.0	15.0	stop	non-target	D	71,Green Button	89,Yellow Button	350.0	350.0	2400.0	2400.0	0.0	350.0	0.0	1.0	stop_stim
81679.478160313447	73.521839686600444	n/a	-1	-1	2750	73.5218396866	stim	stop-signal	228	650995	0.0-11.15-1.15	beast_fmri_test	306	10.812733333333334,10.82405,10.8354,10.8467	t,t,t,t	<img class = center src='/static/experiments/beast_fmri_test/images/D.png'></img>	71,89	2750.0	test	<img class = center src='/static/experiments/beast_fmri_test/images/redD.png'></img>	stop	2400.0	2.0	15.0	stop	non-target	D	71,Green Button	89,Yellow Button	350.0	350.0	2400.0	2400.0	0.0	350.0	0.0	1.0	ITI
82354.0	500	n/a	-1	-1	500	0.0	fixation	poldrack-single-stim	229	651596	0.0-11.16-0.16	beast_fmri_test	306	10.858066666666666	t	<div class = centerbox><div class = fixation>+</div></div>	none	500.0	test	n/a	n/a	n/a	n/a	n/a	n/a	n/a	n/a	n/a	n/a	n/a	n/a	n/a	n/a	n/a	n/a	n/a	n/a	fixation
82327.968954062439	2750	n/a	1024	89	2750	23.0310459375	stim	stop-signal	230	654343	0.0-11.16-1.16	beast_fmri_test	306	10.869366666666666,10.880733333333334,10.892016666666667,10.903316666666667	t,t,t,t	<img class = center src='/static/experiments/beast_fmri_test/images/B.png'></img>	71,89	2750.0	test	<img class = center src='/static/experiments/beast_fmri_test/images/redB.png'></img>	go	2350.0	2.0	16.0	go	non-target	B	71,Green Button	89,Yellow Button	350.0	400.0	2400.0	2350.0	1.0	400.0	1.0	n/a	go_stim
85077.968954062439	23.031045937535119	n/a	1024	89	2750	23.0310459375	stim	stop-signal	230	654343	0.0-11.16-1.16	beast_fmri_test	306	10.869366666666666,10.880733333333334,10.892016666666667,10.903316666666667	t,t,t,t	<img class = center src='/static/experiments/beast_fmri_test/images/B.png'></img>	71,89	2750.0	test	<img class = center src='/static/experiments/beast_fmri_test/images/redB.png'></img>	go	2350.0	2.0	16.0	go	non-target	B	71,Green Button	89,Yellow Button	350.0	400.0	2400.0	2350.0	1.0	400.0	1.0	n/a	ITI
85646.0	500	n/a	-1	-1	500	0.0	fixation	poldrack-single-stim	231	654888	0.0-11.17-0.17	beast_fmri_test	306	10.91465	t	<div class = centerbox><div class = fixation>+</div></div>	none	500.0	test	n/a	n/a	n/a	n/a	n/a	n/a	n/a	n/a	n/a	n/a	n/a	n/a	n/a	n/a	n/a	n/a	n/a	n/a	fixation
85522.238242797554	2750	n/a	734	89	2750	126.761757202	stim	stop-signal	232	657641	0.0-11.17-1.17	beast_fmri_test	306	10.925983333333333,10.937333333333333,10.948666666666666,10.96	t,t,t,t	<img class = center src='/static/experiments/beast_fmri_test/images/P.png'></img>	71,89	2750.0	test	<img class = center src='/static/experiments/beast_fmri_test/images/redP.png'></img>	go	2350.0	2.0	17.0	go	non-target	P	71,Green Button	89,Yellow Button	350.0	400.0	2400.0	2350.0	1.0	400.0	1.0	n/a	go_stim
88272.238242797554	126.76175720249969	n/a	734	89	2750	126.761757202	stim	stop-signal	232	657641	0.0-11.17-1.17	beast_fmri_test	306	10.925983333333333,10.937333333333333,10.948666666666666,10.96	t,t,t,t	<img class = center src='/static/experiments/beast_fmri_test/images/P.png'></img>	71,89	2750.0	test	<img class = center src='/static/experiments/beast_fmri_test/images/redP.png'></img>	go	2350.0	2.0	17.0	go	non-target	P	71,Green Button	89,Yellow Button	350.0	400.0	2400.0	2350.0	1.0	400.0	1.0	n/a	ITI
89047.0	500	n/a	-1	-1	500	0.0	fixation	poldrack-single-stim	233	658289	0.0-11.18-0.18	beast_fmri_test	306	10.971333333333334	t	<div class = centerbox><div class = fixation>+</div></div>	none	500.0	test	n/a	n/a	n/a	n/a	n/a	n/a	n/a	n/a	n/a	n/a	n/a	n/a	n/a	n/a	n/a	n/a	n/a	n/a	fixation
88155.396954689757	350.0	n/a	-1	-1	2750	889.60304531	stim	stop-signal	234	661037	0.0-11.18-1.18	beast_fmri_test	306	10.9826,10.993916666666667,11.00525,11.016583333333333,11.027916666666666	t,t,t,t,t	<img class = center src='/static/experiments/beast_fmri_test/images/B.png'></img>	71,89	2750.0	test	<img class = center src='/static/experiments/beast_fmri_test/images/redB.png'></img>	stop	2400.0	2.0	18.0	stop	target	B	71,Green Button	89,Yellow Button	350.0	400.0	2400.0	2350.0	0.0	350.0	0.0	1.0	go_stim
90555.396954689757	2400.0	n/a	-1	-1	2750	889.60304531	stim	stop-signal	234	661037	0.0-11.18-1.18	beast_fmri_test	306	10.9826,10.993916666666667,11.00525,11.016583333333333,11.027916666666666	t,t,t,t,t	<img class = center src='/static/experiments/beast_fmri_test/images/B.png'></img>	71,89	2750.0	test	<img class = center src='/static/experiments/beast_fmri_test/images/redB.png'></img>	stop	2400.0	2.0	18.0	stop	target	B	71,Green Button	89,Yellow Button	350.0	400.0	2400.0	2350.0	0.0	350.0	0.0	1.0	stop_stim
90905.396954689757	889.60304531021882	n/a	-1	-1	2750	889.60304531	stim	stop-signal	234	661037	0.0-11.18-1.18	beast_fmri_test	306	10.9826,10.993916666666667,11.00525,11.016583333333333,11.027916666666666	t,t,t,t,t	<img class = center src='/static/experiments/beast_fmri_test/images/B.png'></img>	71,89	2750.0	test	<img class = center src='/static/experiments/beast_fmri_test/images/redB.png'></img>	stop	2400.0	2.0	18.0	stop	target	B	71,Green Button	89,Yellow Button	350.0	400.0	2400.0	2350.0	0.0	350.0	0.0	1.0	ITI
93213.0	500	n/a	-1	-1	500	0.0	fixation	poldrack-single-stim	235	662455	0.0-11.19-0.19	beast_fmri_test	306	11.03925	t	<div class = centerbox><div class = fixation>+</div></div>	none	500.0	test	n/a	n/a	n/a	n/a	n/a	n/a	n/a	n/a	n/a	n/a	n/a	n/a	n/a	n/a	n/a	n/a	n/a	n/a	fixation
92103.638349170098	400.0	n/a	-1	-1	2750	1113.36165083	stim	stop-signal	236	665209	0.0-11.19-1.19	beast_fmri_test	306	11.050583333333334,11.061916666666667,11.073233333333333,11.08455,11.095916666666668	t,t,t,t,t	<img class = center src='/static/experiments/beast_fmri_test/images/T.png'></img>	71,89	2750.0	test	<img class = center src='/static/experiments/beast_fmri_test/images/redT.png'></img>	stop	2350.0	2.0	19.0	stop	non-target	T	71,Green Button	89,Yellow Button	400.0	400.0	2400.0	2350.0	0.0	400.0	0.0	1.0	go_stim
94453.638349170098	2350.0	n/a	-1	-1	2750	1113.36165083	stim	stop-signal	236	665209	0.0-11.19-1.19	beast_fmri_test	306	11.050583333333334,11.061916666666667,11.073233333333333,11.08455,11.095916666666668	t,t,t,t,t	<img class = center src='/static/experiments/beast_fmri_test/images/T.png'></img>	71,89	2750.0	test	<img class = center src='/static/experiments/beast_fmri_test/images/redT.png'></img>	stop	2350.0	2.0	19.0	stop	non-target	T	71,Green Button	89,Yellow Button	400.0	400.0	2400.0	2350.0	0.0	400.0	0.0	1.0	stop_stim
94853.638349170098	1113.3616508298473	n/a	-1	-1	2750	1113.36165083	stim	stop-signal	236	665209	0.0-11.19-1.19	beast_fmri_test	306	11.050583333333334,11.061916666666667,11.073233333333333,11.08455,11.095916666666668	t,t,t,t,t	<img class = center src='/static/experiments/beast_fmri_test/images/T.png'></img>	71,89	2750.0	test	<img class = center src='/static/experiments/beast_fmri_test/images/redT.png'></img>	stop	2350.0	2.0	19.0	stop	non-target	T	71,Green Button	89,Yellow Button	400.0	400.0	2400.0	2350.0	0.0	400.0	0.0	1.0	ITI
97607.0	500	n/a	-1	-1	500	0.0	fixation	poldrack-single-stim	237	666849	0.0-11.20-0.20	beast_fmri_test	306	11.107233333333333	t	<div class = centerbox><div class = fixation>+</div></div>	none	500.0	test	n/a	n/a	n/a	n/a	n/a	n/a	n/a	n/a	n/a	n/a	n/a	n/a	n/a	n/a	n/a	n/a	n/a	n/a	fixation
97152.121299722348	2750	n/a	477	89	2750	457.878700278	stim	stop-signal	238	669602	0.0-11.20-1.20	beast_fmri_test	306	11.118566666666666,11.129916666666666,11.14125,11.152566666666667,11.1639	t,t,t,t,t	<img class = center src='/static/experiments/beast_fmri_test/images/P.png'></img>	71,89	2750.0	test	<img class = center src='/static/experiments/beast_fmri_test/images/redP.png'></img>	go	2300.0	2.0	20.0	go	non-target	P	71,Green Button	89,Yellow Button	400.0	450.0	2400.0	2300.0	1.0	450.0	1.0	n/a	go_stim
99902.121299722348	457.87870027764563	n/a	477	89	2750	457.878700278	stim	stop-signal	238	669602	0.0-11.20-1.20	beast_fmri_test	306	11.118566666666666,11.129916666666666,11.14125,11.152566666666667,11.1639	t,t,t,t,t	<img class = center src='/static/experiments/beast_fmri_test/images/P.png'></img>	71,89	2750.0	test	<img class = center src='/static/experiments/beast_fmri_test/images/redP.png'></img>	go	2300.0	2.0	20.0	go	non-target	P	71,Green Button	89,Yellow Button	400.0	450.0	2400.0	2300.0	1.0	450.0	1.0	n/a	ITI
101344.0	500	n/a	-1	-1	500	0.0	fixation	poldrack-single-stim	239	670586	0.0-11.21-0.21	beast_fmri_test	306	11.175233333333333	t	<div class = centerbox><div class = fixation>+</div></div>	none	500.0	test	n/a	n/a	n/a	n/a	n/a	n/a	n/a	n/a	n/a	n/a	n/a	n/a	n/a	n/a	n/a	n/a	n/a	n/a	fixation
100097.35355441424	2750	n/a	1102	89	2750	1248.64644559	stim	stop-signal	240	673338	0.0-11.21-1.21	beast_fmri_test	306	11.186566666666666,11.197883333333333,11.20925,11.220583333333334,11.23185	t,t,t,t,t	<img class = center src='/static/experiments/beast_fmri_test/images/T.png'></img>	71,89	2750.0	test	<img class = center src='/static/experiments/beast_fmri_test/images/redT.png'></img>	go	2350.0	2.0	21.0	go	target	T	71,Green Button	89,Yellow Button	400.0	450.0	2350.0	2300.0	0.0	400.0	0.0	n/a	go_stim
102847.35355441424	1248.6464455858152	n/a	1102	89	2750	1248.64644559	stim	stop-signal	240	673338	0.0-11.21-1.21	beast_fmri_test	306	11.186566666666666,11.197883333333333,11.20925,11.220583333333334,11.23185	t,t,t,t,t	<img class = center src='/static/experiments/beast_fmri_test/images/T.png'></img>	71,89	2750.0	test	<img class = center src='/static/experiments/beast_fmri_test/images/redT.png'></img>	go	2350.0	2.0	21.0	go	target	T	71,Green Button	89,Yellow Button	400.0	450.0	2350.0	2300.0	0.0	400.0	0.0	n/a	ITI
105870.0	500	n/a	-1	-1	500	0.0	fixation	poldrack-single-stim	241	675112	0.0-11.22-0.22	beast_fmri_test	306	11.243483333333334	t	<div class = centerbox><div class = fixation>+</div></div>	none	500.0	test	n/a	n/a	n/a	n/a	n/a	n/a	n/a	n/a	n/a	n/a	n/a	n/a	n/a	n/a	n/a	n/a	n/a	n/a	fixation
105834.11812185077	2750	n/a	443	89	2750	38.8818781492	stim	stop-signal	242	677865	0.0-11.22-1.22	beast_fmri_test	306	11.254483333333333,11.265833333333333,11.277166666666666,11.2885	t,t,t,t	<img class = center src='/static/experiments/beast_fmri_test/images/D.png'></img>	71,89	2750.0	test	<img class = center src='/static/experiments/beast_fmri_test/images/redD.png'></img>	go	2300.0	2.0	22.0	go	non-target	D	71,Green Button	89,Yellow Button	400.0	450.0	2350.0	2300.0	1.0	450.0	1.0	n/a	go_stim
108584.11812185077	38.881878149179506	n/a	443	89	2750	38.8818781492	stim	stop-signal	242	677865	0.0-11.22-1.22	beast_fmri_test	306	11.254483333333333,11.265833333333333,11.277166666666666,11.2885	t,t,t,t	<img class = center src='/static/experiments/beast_fmri_test/images/D.png'></img>	71,89	2750.0	test	<img class = center src='/static/experiments/beast_fmri_test/images/redD.png'></img>	go	2300.0	2.0	22.0	go	non-target	D	71,Green Button	89,Yellow Button	400.0	450.0	2350.0	2300.0	1.0	450.0	1.0	n/a	ITI
109191.0	500	n/a	-1	-1	500	0.0	fixation	poldrack-single-stim	243	678433	0.0-11.23-0.23	beast_fmri_test	306	11.2998	t	<div class = centerbox><div class = fixation>+</div></div>	none	500.0	test	n/a	n/a	n/a	n/a	n/a	n/a	n/a	n/a	n/a	n/a	n/a	n/a	n/a	n/a	n/a	n/a	n/a	n/a	fixation
108553.47524197225	2750	n/a	1261	89	2750	640.524758028	stim	stop-signal	244	681186	0.0-11.23-1.23	beast_fmri_test	306	11.311166666666667,11.3225,11.333816666666667,11.345166666666668,11.356483333333333	t,t,t,t,t	<img class = center src='/static/experiments/beast_fmri_test/images/D.png'></img>	71,89	2750.0	test	<img class = center src='/static/experiments/beast_fmri_test/images/redD.png'></img>	go	2300.0	2.0	23.0	go	non-target	D	71,Green Button	89,Yellow Button	400.0	450.0	2350.0	2300.0	1.0	450.0	1.0	n/a	go_stim
111303.47524197225	640.52475802773301	n/a	1261	89	2750	640.524758028	stim	stop-signal	244	681186	0.0-11.23-1.23	beast_fmri_test	306	11.311166666666667,11.3225,11.333816666666667,11.345166666666668,11.356483333333333	t,t,t,t,t	<img class = center src='/static/experiments/beast_fmri_test/images/D.png'></img>	71,89	2750.0	test	<img class = center src='/static/experiments/beast_fmri_test/images/redD.png'></img>	go	2300.0	2.0	23.0	go	non-target	D	71,Green Button	89,Yellow Button	400.0	450.0	2350.0	2300.0	1.0	450.0	1.0	n/a	ITI
113114.0	500	n/a	-1	-1	500	0.0	fixation	poldrack-single-stim	245	682356	0.0-11.24-0.24	beast_fmri_test	306	11.367816666666666	t	<div class = centerbox><div class = fixation>+</div></div>	none	500.0	test	n/a	n/a	n/a	n/a	n/a	n/a	n/a	n/a	n/a	n/a	n/a	n/a	n/a	n/a	n/a	n/a	n/a	n/a	fixation
111843.31572084327	2750	n/a	1749	89	2750	1268.68427916	stim	stop-signal	246	685104	0.0-11.24-1.24	beast_fmri_test	306	11.379166666666666,11.390483333333334,11.401783333333332,11.413066666666667,11.424416666666668,11.435733333333333	t,t,t,t,t,t	<img class = center src='/static/experiments/beast_fmri_test/images/T.png'></img>	71,89	2750.0	test	<img class = center src='/static/experiments/beast_fmri_test/images/redT.png'></img>	go	2300.0	2.0	24.0	go	non-target	T	71,Green Button	89,Yellow Button	400.0	450.0	2350.0	2300.0	1.0	450.0	1.0	n/a	go_stim
114593.31572084327	1268.6842791567392	n/a	1749	89	2750	1268.68427916	stim	stop-signal	246	685104	0.0-11.24-1.24	beast_fmri_test	306	11.379166666666666,11.390483333333334,11.401783333333332,11.413066666666667,11.424416666666668,11.435733333333333	t,t,t,t,t,t	<img class = center src='/static/experiments/beast_fmri_test/images/T.png'></img>	71,89	2750.0	test	<img class = center src='/static/experiments/beast_fmri_test/images/redT.png'></img>	go	2300.0	2.0	24.0	go	non-target	T	71,Green Button	89,Yellow Button	400.0	450.0	2350.0	2300.0	1.0	450.0	1.0	n/a	ITI
117660.0	500	n/a	-1	-1	500	0.0	fixation	poldrack-single-stim	247	686902	0.0-11.25-0.25	beast_fmri_test	306	11.4471	t	<div class = centerbox><div class = fixation>+</div></div>	none	500.0	test	n/a	n/a	n/a	n/a	n/a	n/a	n/a	n/a	n/a	n/a	n/a	n/a	n/a	n/a	n/a	n/a	n/a	n/a	fixation
117459.28769107466	450.0	n/a	-1	-1	2750	203.712308925	stim	stop-signal	248	689655	0.0-11.25-1.25	beast_fmri_test	306	11.458433333333334,11.469766666666667,11.4811,11.492433333333333	t,t,t,t	<img class = center src='/static/experiments/beast_fmri_test/images/B.png'></img>	71,89	2750.0	test	<img class = center src='/static/experiments/beast_fmri_test/images/redB.png'></img>	stop	2300.0	2.0	25.0	stop	non-target	B	71,Green Button	89,Yellow Button	400.0	450.0	2350.0	2300.0	0.0	450.0	0.0	1.0	go_stim
119759.28769107466	2300.0	n/a	-1	-1	2750	203.712308925	stim	stop-signal	248	689655	0.0-11.25-1.25	beast_fmri_test	306	11.458433333333334,11.469766666666667,11.4811,11.492433333333333	t,t,t,t	<img class = center src='/static/experiments/beast_fmri_test/images/B.png'></img>	71,89	2750.0	test	<img class = center src='/static/experiments/beast_fmri_test/images/redB.png'></img>	stop	2300.0	2.0	25.0	stop	non-target	B	71,Green Button	89,Yellow Button	400.0	450.0	2350.0	2300.0	0.0	450.0	0.0	1.0	stop_stim
120209.28769107466	203.71230892538648	n/a	-1	-1	2750	203.712308925	stim	stop-signal	248	689655	0.0-11.25-1.25	beast_fmri_test	306	11.458433333333334,11.469766666666667,11.4811,11.492433333333333	t,t,t,t	<img class = center src='/static/experiments/beast_fmri_test/images/B.png'></img>	71,89	2750.0	test	<img class = center src='/static/experiments/beast_fmri_test/images/redB.png'></img>	stop	2300.0	2.0	25.0	stop	non-target	B	71,Green Button	89,Yellow Button	400.0	450.0	2350.0	2300.0	0.0	450.0	0.0	1.0	ITI
121146.0	500	n/a	-1	-1	500	0.0	fixation	poldrack-single-stim	249	690388	0.0-11.26-0.26	beast_fmri_test	306	11.503766666666667	t	<div class = centerbox><div class = fixation>+</div></div>	none	500.0	test	n/a	n/a	n/a	n/a	n/a	n/a	n/a	n/a	n/a	n/a	n/a	n/a	n/a	n/a	n/a	n/a	n/a	n/a	fixation
118932.53560690803	2750	n/a	769	89	2750	2215.46439309	stim	stop-signal	250	693140	0.0-11.26-1.26	beast_fmri_test	306	11.5151,11.526416666666666,11.537766666666666,11.549083333333334,11.560383333333334,11.571683333333333,11.583	t,t,t,t,t,t,t	<img class = center src='/static/experiments/beast_fmri_test/images/T.png'></img>	71,89	2750.0	test	<img class = center src='/static/experiments/beast_fmri_test/images/redT.png'></img>	go	2350.0	2.0	26.0	go	target	T	71,Green Button	89,Yellow Button	400.0	500.0	2350.0	2300.0	0.0	400.0	0.0	n/a	go_stim
121682.53560690803	2215.464393092027	n/a	769	89	2750	2215.46439309	stim	stop-signal	250	693140	0.0-11.26-1.26	beast_fmri_test	306	11.5151,11.526416666666666,11.537766666666666,11.549083333333334,11.560383333333334,11.571683333333333,11.583	t,t,t,t,t,t,t	<img class = center src='/static/experiments/beast_fmri_test/images/T.png'></img>	71,89	2750.0	test	<img class = center src='/static/experiments/beast_fmri_test/images/redT.png'></img>	go	2350.0	2.0	26.0	go	target	T	71,Green Button	89,Yellow Button	400.0	500.0	2350.0	2300.0	0.0	400.0	0.0	n/a	ITI
126636.0	500	n/a	-1	-1	500	0.0	fixation	poldrack-single-stim	251	695878	0.0-11.27-0.27	beast_fmri_test	306	11.594333333333333	t	<div class = centerbox><div class = fixation>+</div></div>	none	500.0	test	n/a	n/a	n/a	n/a	n/a	n/a	n/a	n/a	n/a	n/a	n/a	n/a	n/a	n/a	n/a	n/a	n/a	n/a	fixation
125867.2041661921	2750	n/a	683	89	2750	771.795833808	stim	stop-signal	252	698631	0.0-11.27-1.27	beast_fmri_test	306	11.605683333333333,11.617,11.628333333333334,11.639666666666667,11.651016666666667	t,t,t,t,t	<img class = center src='/static/experiments/beast_fmri_test/images/V.png'></img>	71,89	2750.0	test	<img class = center src='/static/experiments/beast_fmri_test/images/redV.png'></img>	go	2250.0	2.0	27.0	go	non-target	V	71,Green Button	89,Yellow Button	400.0	500.0	2350.0	2250.0	1.0	500.0	1.0	n/a	go_stim
128617.2041661921	771.79583380792394	n/a	683	89	2750	771.795833808	stim	stop-signal	252	698631	0.0-11.27-1.27	beast_fmri_test	306	11.605683333333333,11.617,11.628333333333334,11.639666666666667,11.651016666666667	t,t,t,t,t	<img class = center src='/static/experiments/beast_fmri_test/images/V.png'></img>	71,89	2750.0	test	<img class = center src='/static/experiments/beast_fmri_test/images/redV.png'></img>	go	2250.0	2.0	27.0	go	non-target	V	71,Green Button	89,Yellow Button	400.0	500.0	2350.0	2250.0	1.0	500.0	1.0	n/a	ITI
130686.0	500	n/a	-1	-1	500	0.0	fixation	poldrack-single-stim	253	699928	0.0-11.28-0.28	beast_fmri_test	306	11.66235	t	<div class = centerbox><div class = fixation>+</div></div>	none	500.0	test	n/a	n/a	n/a	n/a	n/a	n/a	n/a	n/a	n/a	n/a	n/a	n/a	n/a	n/a	n/a	n/a	n/a	n/a	fixation
128045.51543614233	400.0	n/a	-1	-1	2750	2644.48456386	stim	stop-signal	254	702682	0.0-11.28-1.28	beast_fmri_test	306	11.673666666666668,11.685016666666666,11.696333333333333,11.707666666666666,11.719,11.7303,11.7416,11.752933333333333	t,t,t,t,t,t,t,t	<img class = center src='/static/experiments/beast_fmri_test/images/T.png'></img>	71,89	2750.0	test	<img class = center src='/static/experiments/beast_fmri_test/images/redT.png'></img>	stop	2350.0	2.0	28.0	stop	target	T	71,Green Button	89,Yellow Button	400.0	500.0	2350.0	2250.0	0.0	400.0	0.0	1.0	go_stim
130395.51543614233	2350.0	n/a	-1	-1	2750	2644.48456386	stim	stop-signal	254	702682	0.0-11.28-1.28	beast_fmri_test	306	11.673666666666668,11.685016666666666,11.696333333333333,11.707666666666666,11.719,11.7303,11.7416,11.752933333333333	t,t,t,t,t,t,t,t	<img class = center src='/static/experiments/beast_fmri_test/images/T.png'></img>	71,89	2750.0	test	<img class = center src='/static/experiments/beast_fmri_test/images/redT.png'></img>	stop	2350.0	2.0	28.0	stop	target	T	71,Green Button	89,Yellow Button	400.0	500.0	2350.0	2250.0	0.0	400.0	0.0	1.0	stop_stim
130795.51543614233	2644.484563857668	n/a	-1	-1	2750	2644.48456386	stim	stop-signal	254	702682	0.0-11.28-1.28	beast_fmri_test	306	11.673666666666668,11.685016666666666,11.696333333333333,11.707666666666666,11.719,11.7303,11.7416,11.752933333333333	t,t,t,t,t,t,t,t	<img class = center src='/static/experiments/beast_fmri_test/images/T.png'></img>	71,89	2750.0	test	<img class = center src='/static/experiments/beast_fmri_test/images/redT.png'></img>	stop	2350.0	2.0	28.0	stop	target	T	71,Green Button	89,Yellow Button	400.0	500.0	2350.0	2250.0	0.0	400.0	0.0	1.0	ITI
136610.0	500	n/a	-1	-1	500	0.0	fixation	poldrack-single-stim	255	705852	0.0-11.29-0.29	beast_fmri_test	306	n/a	n/a	<div class = centerbox><div class = fixation>+</div></div>	none	500.0	test	n/a	n/a	n/a	n/a	n/a	n/a	n/a	n/a	n/a	n/a	n/a	n/a	n/a	n/a	n/a	n/a	n/a	n/a	fixation
135602.21314755932	500.0	n/a	501	89	2750	1011.78685244	stim	stop-signal	256	708606	0.0-11.29-1.29	beast_fmri_test	306	11.76425,11.7756,11.786916666666666,11.79825,11.8096,11.820933333333333	t,t,t,t,t,t	<img class = center src='/static/experiments/beast_fmri_test/images/B.png'></img>	71,89	2750.0	test	<img class = center src='/static/experiments/beast_fmri_test/images/redB.png'></img>	stop	2250.0	2.0	29.0	stop	non-target	B	71,Green Button	89,Yellow Button	450.0	500.0	2350.0	2250.0	0.0	500.0	1.0	0.0	go_stim
137852.21314755932	2250.0	n/a	501	89	2750	1011.78685244	stim	stop-signal	256	708606	0.0-11.29-1.29	beast_fmri_test	306	11.76425,11.7756,11.786916666666666,11.79825,11.8096,11.820933333333333	t,t,t,t,t,t	<img class = center src='/static/experiments/beast_fmri_test/images/B.png'></img>	71,89	2750.0	test	<img class = center src='/static/experiments/beast_fmri_test/images/redB.png'></img>	stop	2250.0	2.0	29.0	stop	non-target	B	71,Green Button	89,Yellow Button	450.0	500.0	2350.0	2250.0	0.0	500.0	1.0	0.0	stop_stim
138352.21314755932	1011.78685244063	n/a	501	89	2750	1011.78685244	stim	stop-signal	256	708606	0.0-11.29-1.29	beast_fmri_test	306	11.76425,11.7756,11.786916666666666,11.79825,11.8096,11.820933333333333	t,t,t,t,t,t	<img class = center src='/static/experiments/beast_fmri_test/images/B.png'></img>	71,89	2750.0	test	<img class = center src='/static/experiments/beast_fmri_test/images/redB.png'></img>	stop	2250.0	2.0	29.0	stop	non-target	B	71,Green Button	89,Yellow Button	450.0	500.0	2350.0	2250.0	0.0	500.0	1.0	0.0	ITI
140905.0	500	n/a	-1	-1	500	0.0	fixation	poldrack-single-stim	257	710147	0.0-11.30-0.30	beast_fmri_test	306	11.832266666666667	t	<div class = centerbox><div class = fixation>+</div></div>	none	500.0	test	n/a	n/a	n/a	n/a	n/a	n/a	n/a	n/a	n/a	n/a	n/a	n/a	n/a	n/a	n/a	n/a	n/a	n/a	fixation
138872.83096187806	450.0	n/a	445	71	2750	2033.16903812	stim	stop-signal	258	712898	0.0-11.30-1.30	beast_fmri_test	306	11.843633333333333,11.8549,11.86625,11.877616666666666,11.888933333333334,11.9002,11.911533333333333	t,t,t,t,t,t,t	<img class = center src='/static/experiments/beast_fmri_test/images/T.png'></img>	71,89	2750.0	test	<img class = center src='/static/experiments/beast_fmri_test/images/redT.png'></img>	stop	2300.0	2.0	30.0	stop	target	T	71,Green Button	89,Yellow Button	450.0	450.0	2300.0	2250.0	0.0	450.0	1.0	0.0	go_stim
141172.83096187806	2300.0	n/a	445	71	2750	2033.16903812	stim	stop-signal	258	712898	0.0-11.30-1.30	beast_fmri_test	306	11.843633333333333,11.8549,11.86625,11.877616666666666,11.888933333333334,11.9002,11.911533333333333	t,t,t,t,t,t,t	<img class = center src='/static/experiments/beast_fmri_test/images/T.png'></img>	71,89	2750.0	test	<img class = center src='/static/experiments/beast_fmri_test/images/redT.png'></img>	stop	2300.0	2.0	30.0	stop	target	T	71,Green Button	89,Yellow Button	450.0	450.0	2300.0	2250.0	0.0	450.0	1.0	0.0	stop_stim
141622.83096187806	2033.1690381219366	n/a	445	71	2750	2033.16903812	stim	stop-signal	258	712898	0.0-11.30-1.30	beast_fmri_test	306	11.843633333333333,11.8549,11.86625,11.877616666666666,11.888933333333334,11.9002,11.911533333333333	t,t,t,t,t,t,t	<img class = center src='/static/experiments/beast_fmri_test/images/T.png'></img>	71,89	2750.0	test	<img class = center src='/static/experiments/beast_fmri_test/images/redT.png'></img>	stop	2300.0	2.0	30.0	stop	target	T	71,Green Button	89,Yellow Button	450.0	450.0	2300.0	2250.0	0.0	450.0	1.0	0.0	ITI
146214.0	500	n/a	-1	-1	500	0.0	fixation	poldrack-single-stim	259	715456	0.0-11.31-0.31	beast_fmri_test	306	11.92285	t	<div class = centerbox><div class = fixation>+</div></div>	none	500.0	test	n/a	n/a	n/a	n/a	n/a	n/a	n/a	n/a	n/a	n/a	n/a	n/a	n/a	n/a	n/a	n/a	n/a	n/a	fixation
145076.27990493621	2750	n/a	692	89	2750	1139.72009506	stim	stop-signal	260	718208	0.0-11.31-1.31	beast_fmri_test	306	11.934183333333333,11.945516666666666,11.956866666666667,11.9682,11.979533333333332	t,t,t,t,t	<img class = center src='/static/experiments/beast_fmri_test/images/B.png'></img>	71,89	2750.0	test	<img class = center src='/static/experiments/beast_fmri_test/images/redB.png'></img>	go	2350.0	2.0	31.0	go	target	B	71,Green Button	89,Yellow Button	400.0	450.0	2350.0	2250.0	0.0	400.0	0.0	n/a	go_stim
147826.27990493621	1139.7200950638114	n/a	692	89	2750	1139.72009506	stim	stop-signal	260	718208	0.0-11.31-1.31	beast_fmri_test	306	11.934183333333333,11.945516666666666,11.956866666666667,11.9682,11.979533333333332	t,t,t,t,t	<img class = center src='/static/experiments/beast_fmri_test/images/B.png'></img>	71,89	2750.0	test	<img class = center src='/static/experiments/beast_fmri_test/images/redB.png'></img>	go	2350.0	2.0	31.0	go	target	B	71,Green Button	89,Yellow Button	400.0	450.0	2350.0	2250.0	0.0	400.0	0.0	n/a	ITI
150633.0	500	n/a	-1	-1	500	0.0	fixation	poldrack-single-stim	261	719875	0.0-11.32-0.32	beast_fmri_test	306	11.99085	t	<div class = centerbox><div class = fixation>+</div></div>	none	500.0	test	n/a	n/a	n/a	n/a	n/a	n/a	n/a	n/a	n/a	n/a	n/a	n/a	n/a	n/a	n/a	n/a	n/a	n/a	fixation
150573.21747352614	2750	n/a	1059	89	2750	62.7825264738	stim	stop-signal	262	722628	0.0-11.32-1.32	beast_fmri_test	306	12.002216666666667,12.013533333333333,12.02485,12.0362	t,t,t,t	<img class = center src='/static/experiments/beast_fmri_test/images/B.png'></img>	71,89	2750.0	test	<img class = center src='/static/experiments/beast_fmri_test/images/redB.png'></img>	go	2300.0	2.0	32.0	go	non-target	B	71,Green Button	89,Yellow Button	400.0	450.0	2350.0	2300.0	1.0	450.0	1.0	n/a	go_stim
153323.21747352614	62.782526473813753	n/a	1059	89	2750	62.7825264738	stim	stop-signal	262	722628	0.0-11.32-1.32	beast_fmri_test	306	12.002216666666667,12.013533333333333,12.02485,12.0362	t,t,t,t	<img class = center src='/static/experiments/beast_fmri_test/images/B.png'></img>	71,89	2750.0	test	<img class = center src='/static/experiments/beast_fmri_test/images/redB.png'></img>	go	2300.0	2.0	32.0	go	non-target	B	71,Green Button	89,Yellow Button	400.0	450.0	2350.0	2300.0	1.0	450.0	1.0	n/a	ITI
153977.0	500	n/a	-1	-1	500	0.0	fixation	poldrack-single-stim	263	723219	0.0-11.33-0.33	beast_fmri_test	306	12.047533333333334	t	<div class = centerbox><div class = fixation>+</div></div>	none	500.0	test	n/a	n/a	n/a	n/a	n/a	n/a	n/a	n/a	n/a	n/a	n/a	n/a	n/a	n/a	n/a	n/a	n/a	n/a	fixation
151843.20669719169	450.0	n/a	527	89	2750	2131.79330281	stim	stop-signal	264	725967	0.0-11.33-1.33	beast_fmri_test	306	12.05885,12.070116666666667,12.08145,12.092766666666666,12.1041,12.115433333333334,12.126783333333334	t,t,t,t,t,t,t	<img class = center src='/static/experiments/beast_fmri_test/images/P.png'></img>	71,89	2750.0	test	<img class = center src='/static/experiments/beast_fmri_test/images/redP.png'></img>	stop	2300.0	2.0	33.0	stop	non-target	P	71,Green Button	89,Yellow Button	400.0	450.0	2350.0	2300.0	0.0	450.0	1.0	0.0	go_stim
154143.20669719169	2300.0	n/a	527	89	2750	2131.79330281	stim	stop-signal	264	725967	0.0-11.33-1.33	beast_fmri_test	306	12.05885,12.070116666666667,12.08145,12.092766666666666,12.1041,12.115433333333334,12.126783333333334	t,t,t,t,t,t,t	<img class = center src='/static/experiments/beast_fmri_test/images/P.png'></img>	71,89	2750.0	test	<img class = center src='/static/experiments/beast_fmri_test/images/redP.png'></img>	stop	2300.0	2.0	33.0	stop	non-target	P	71,Green Button	89,Yellow Button	400.0	450.0	2350.0	2300.0	0.0	450.0	1.0	0.0	stop_stim
154593.20669719169	2131.7933028082671	n/a	527	89	2750	2131.79330281	stim	stop-signal	264	725967	0.0-11.33-1.33	beast_fmri_test	306	12.05885,12.070116666666667,12.08145,12.092766666666666,12.1041,12.115433333333334,12.126783333333334	t,t,t,t,t,t,t	<img class = center src='/static/experiments/beast_fmri_test/images/P.png'></img>	71,89	2750.0	test	<img class = center src='/static/experiments/beast_fmri_test/images/redP.png'></img>	stop	2300.0	2.0	33.0	stop	non-target	P	71,Green Button	89,Yellow Button	400.0	450.0	2350.0	2300.0	0.0	450.0	1.0	0.0	ITI
159386.0	500	n/a	-1	-1	500	0.0	fixation	poldrack-single-stim	265	728628	0.0-11.34-0.34	beast_fmri_test	306	12.138116666666667	t	<div class = centerbox><div class = fixation>+</div></div>	none	500.0	test	n/a	n/a	n/a	n/a	n/a	n/a	n/a	n/a	n/a	n/a	n/a	n/a	n/a	n/a	n/a	n/a	n/a	n/a	fixation
159358.55633369111	2750	n/a	720	89	2750	30.4436663088	stim	stop-signal	266	731381	0.0-11.34-1.34	beast_fmri_test	306	12.149466666666667,12.160766666666667,12.1721,12.183433333333333	t,t,t,t	<img class = center src='/static/experiments/beast_fmri_test/images/B.png'></img>	71,89	2750.0	test	<img class = center src='/static/experiments/beast_fmri_test/images/redB.png'></img>	go	2350.0	2.0	34.0	go	target	B	71,Green Button	89,Yellow Button	400.0	400.0	2350.0	2300.0	0.0	400.0	0.0	n/a	go_stim
162108.55633369111	30.443666308828931	n/a	720	89	2750	30.4436663088	stim	stop-signal	266	731381	0.0-11.34-1.34	beast_fmri_test	306	12.149466666666667,12.160766666666667,12.1721,12.183433333333333	t,t,t,t	<img class = center src='/static/experiments/beast_fmri_test/images/B.png'></img>	71,89	2750.0	test	<img class = center src='/static/experiments/beast_fmri_test/images/redB.png'></img>	go	2350.0	2.0	34.0	go	target	B	71,Green Button	89,Yellow Button	400.0	400.0	2350.0	2300.0	0.0	400.0	0.0	n/a	ITI
162697.0	500	n/a	-1	-1	500	0.0	fixation	poldrack-single-stim	267	731939	0.0-11.35-0.35	beast_fmri_test	306	12.194783333333334	t	<div class = centerbox><div class = fixation>+</div></div>	none	500.0	test	n/a	n/a	n/a	n/a	n/a	n/a	n/a	n/a	n/a	n/a	n/a	n/a	n/a	n/a	n/a	n/a	n/a	n/a	fixation
161464.27661721851	2750	n/a	930	89	2750	1230.72338278	stim	stop-signal	268	734687	0.0-11.35-1.35	beast_fmri_test	306	12.206116666666667,12.217433333333334,12.22875,12.240033333333333,12.25135,12.2627	t,t,t,t,t,t	<img class = center src='/static/experiments/beast_fmri_test/images/T.png'></img>	71,89	2750.0	test	<img class = center src='/static/experiments/beast_fmri_test/images/redT.png'></img>	go	2350.0	2.0	35.0	go	non-target	T	71,Green Button	89,Yellow Button	400.0	400.0	2350.0	2350.0	1.0	400.0	1.0	n/a	go_stim
164214.27661721851	1230.7233827815053	n/a	930	89	2750	1230.72338278	stim	stop-signal	268	734687	0.0-11.35-1.35	beast_fmri_test	306	12.206116666666667,12.217433333333334,12.22875,12.240033333333333,12.25135,12.2627	t,t,t,t,t,t	<img class = center src='/static/experiments/beast_fmri_test/images/T.png'></img>	71,89	2750.0	test	<img class = center src='/static/experiments/beast_fmri_test/images/redT.png'></img>	go	2350.0	2.0	35.0	go	non-target	T	71,Green Button	89,Yellow Button	400.0	400.0	2350.0	2350.0	1.0	400.0	1.0	n/a	ITI
167203.0	500	n/a	-1	-1	500	0.0	fixation	poldrack-single-stim	269	736445	0.0-11.36-0.36	beast_fmri_test	306	12.274033333333334	t	<div class = centerbox><div class = fixation>+</div></div>	none	500.0	test	n/a	n/a	n/a	n/a	n/a	n/a	n/a	n/a	n/a	n/a	n/a	n/a	n/a	n/a	n/a	n/a	n/a	n/a	fixation
163917.39228303614	2750	n/a	505	71	2750	3289.60771696	stim	stop-signal	270	739199	0.0-11.36-1.36	beast_fmri_test	306	12.285383333333334,12.296683333333334,12.308033333333332,12.31935,12.3307,12.34205,12.35335,12.364716666666666	t,t,t,t,t,t,t,t	<img class = center src='/static/experiments/beast_fmri_test/images/B.png'></img>	71,89	2750.0	test	<img class = center src='/static/experiments/beast_fmri_test/images/redB.png'></img>	go	2350.0	2.0	36.0	go	target	B	71,Green Button	89,Yellow Button	400.0	400.0	2350.0	2350.0	1.0	400.0	1.0	n/a	go_stim
166667.39228303614	3289.6077169638261	n/a	505	71	2750	3289.60771696	stim	stop-signal	270	739199	0.0-11.36-1.36	beast_fmri_test	306	12.285383333333334,12.296683333333334,12.308033333333332,12.31935,12.3307,12.34205,12.35335,12.364716666666666	t,t,t,t,t,t,t,t	<img class = center src='/static/experiments/beast_fmri_test/images/B.png'></img>	71,89	2750.0	test	<img class = center src='/static/experiments/beast_fmri_test/images/redB.png'></img>	go	2350.0	2.0	36.0	go	target	B	71,Green Button	89,Yellow Button	400.0	400.0	2350.0	2350.0	1.0	400.0	1.0	n/a	ITI
173778.0	500	n/a	-1	-1	500	0.0	fixation	poldrack-single-stim	271	743020	0.0-11.37-0.37	beast_fmri_test	306	12.376016666666667	t	<div class = centerbox><div class = fixation>+</div></div>	none	500.0	test	n/a	n/a	n/a	n/a	n/a	n/a	n/a	n/a	n/a	n/a	n/a	n/a	n/a	n/a	n/a	n/a	n/a	n/a	fixation
173687.59218045603	2750	n/a	642	89	2750	90.407819544	stim	stop-signal	272	745770	0.0-11.37-1.37	beast_fmri_test	306	12.387383333333334,12.39865,12.409966666666667,12.4213	t,t,t,t	<img class = center src='/static/experiments/beast_fmri_test/images/T.png'></img>	71,89	2750.0	test	<img class = center src='/static/experiments/beast_fmri_test/images/redT.png'></img>	go	2350.0	2.0	37.0	go	target	T	71,Green Button	89,Yellow Button	400.0	400.0	2350.0	2350.0	0.0	400.0	0.0	n/a	go_stim
176437.59218045603	90.407819543952201	n/a	642	89	2750	90.407819544	stim	stop-signal	272	745770	0.0-11.37-1.37	beast_fmri_test	306	12.387383333333334,12.39865,12.409966666666667,12.4213	t,t,t,t	<img class = center src='/static/experiments/beast_fmri_test/images/T.png'></img>	71,89	2750.0	test	<img class = center src='/static/experiments/beast_fmri_test/images/redT.png'></img>	go	2350.0	2.0	37.0	go	target	T	71,Green Button	89,Yellow Button	400.0	400.0	2350.0	2350.0	0.0	400.0	0.0	n/a	ITI
177150.0	500	n/a	-1	-1	500	0.0	fixation	poldrack-single-stim	273	746392	0.0-11.38-0.38	beast_fmri_test	306	12.43265	t	<div class = centerbox><div class = fixation>+</div></div>	none	500.0	test	n/a	n/a	n/a	n/a	n/a	n/a	n/a	n/a	n/a	n/a	n/a	n/a	n/a	n/a	n/a	n/a	n/a	n/a	fixation
176287.52963975957	2750	n/a	973	89	2750	866.47036024	stim	stop-signal	274	749146	0.0-11.38-1.38	beast_fmri_test	306	12.443966666666666,12.4553,12.466633333333334,12.477966666666667,12.489283333333333	t,t,t,t,t	<img class = center src='/static/experiments/beast_fmri_test/images/T.png'></img>	71,89	2750.0	test	<img class = center src='/static/experiments/beast_fmri_test/images/redT.png'></img>	go	2350.0	2.0	38.0	go	non-target	T	71,Green Button	89,Yellow Button	400.0	400.0	2350.0	2350.0	1.0	400.0	1.0	n/a	go_stim
179037.52963975957	866.4703602404436	n/a	973	89	2750	866.47036024	stim	stop-signal	274	749146	0.0-11.38-1.38	beast_fmri_test	306	12.443966666666666,12.4553,12.466633333333334,12.477966666666667,12.489283333333333	t,t,t,t,t	<img class = center src='/static/experiments/beast_fmri_test/images/T.png'></img>	71,89	2750.0	test	<img class = center src='/static/experiments/beast_fmri_test/images/redT.png'></img>	go	2350.0	2.0	38.0	go	non-target	T	71,Green Button	89,Yellow Button	400.0	400.0	2350.0	2350.0	1.0	400.0	1.0	n/a	ITI
181300.0	500	n/a	-1	-1	500	0.0	fixation	poldrack-single-stim	275	750542	0.0-11.39-0.39	beast_fmri_test	306	12.500683333333333	t	<div class = centerbox><div class = fixation>+</div></div>	none	500.0	test	n/a	n/a	n/a	n/a	n/a	n/a	n/a	n/a	n/a	n/a	n/a	n/a	n/a	n/a	n/a	n/a	n/a	n/a	fixation
179526.5335661954	400.0	n/a	627	89	2750	1776.4664338	stim	stop-signal	276	753295	0.0-11.39-1.39	beast_fmri_test	306	12.511933333333333,12.5233,12.534633333333334,12.545966666666667,12.55725,12.56855,12.579883333333333	t,t,t,t,t,t,t	<img class = center src='/static/experiments/beast_fmri_test/images/D.png'></img>	71,89	2750.0	test	<img class = center src='/static/experiments/beast_fmri_test/images/redD.png'></img>	stop	2350.0	2.0	39.0	stop	non-target	D	71,Green Button	89,Yellow Button	400.0	400.0	2350.0	2350.0	0.0	400.0	1.0	0.0	go_stim
181876.5335661954	2350.0	n/a	627	89	2750	1776.4664338	stim	stop-signal	276	753295	0.0-11.39-1.39	beast_fmri_test	306	12.511933333333333,12.5233,12.534633333333334,12.545966666666667,12.55725,12.56855,12.579883333333333	t,t,t,t,t,t,t	<img class = center src='/static/experiments/beast_fmri_test/images/D.png'></img>	71,89	2750.0	test	<img class = center src='/static/experiments/beast_fmri_test/images/redD.png'></img>	stop	2350.0	2.0	39.0	stop	non-target	D	71,Green Button	89,Yellow Button	400.0	400.0	2350.0	2350.0	0.0	400.0	1.0	0.0	stop_stim
182276.5335661954	1776.4664338046566	n/a	627	89	2750	1776.4664338	stim	stop-signal	276	753295	0.0-11.39-1.39	beast_fmri_test	306	12.511933333333333,12.5233,12.534633333333334,12.545966666666667,12.55725,12.56855,12.579883333333333	t,t,t,t,t,t,t	<img class = center src='/static/experiments/beast_fmri_test/images/D.png'></img>	71,89	2750.0	test	<img class = center src='/static/experiments/beast_fmri_test/images/redD.png'></img>	stop	2350.0	2.0	39.0	stop	non-target	D	71,Green Button	89,Yellow Button	400.0	400.0	2350.0	2350.0	0.0	400.0	1.0	0.0	ITI
186357.0	500	n/a	-1	-1	500	0.0	fixation	poldrack-single-stim	277	755599	0.0-11.40-0.40	beast_fmri_test	306	12.591216666666666	t	<div class = centerbox><div class = fixation>+</div></div>	none	500.0	test	n/a	n/a	n/a	n/a	n/a	n/a	n/a	n/a	n/a	n/a	n/a	n/a	n/a	n/a	n/a	n/a	n/a	n/a	fixation
184084.06318617833	2750	n/a	508	89	2750	2276.93681382	stim	stop-signal	278	758353	0.0-11.40-1.40	beast_fmri_test	306	12.60255,12.613883333333334,12.625216666666667,12.63655,12.647883333333333,12.659183333333333,12.67055	t,t,t,t,t,t,t	<img class = center src='/static/experiments/beast_fmri_test/images/V.png'></img>	71,89	2750.0	test	<img class = center src='/static/experiments/beast_fmri_test/images/redV.png'></img>	go	2400.0	2.0	40.0	go	non-target	V	71,Green Button	89,Yellow Button	400.0	350.0	2350.0	2400.0	1.0	350.0	1.0	n/a	go_stim
186834.06318617833	2276.9368138217205	n/a	508	89	2750	2276.93681382	stim	stop-signal	278	758353	0.0-11.40-1.40	beast_fmri_test	306	12.60255,12.613883333333334,12.625216666666667,12.63655,12.647883333333333,12.659183333333333,12.67055	t,t,t,t,t,t,t	<img class = center src='/static/experiments/beast_fmri_test/images/V.png'></img>	71,89	2750.0	test	<img class = center src='/static/experiments/beast_fmri_test/images/redV.png'></img>	go	2400.0	2.0	40.0	go	non-target	V	71,Green Button	89,Yellow Button	400.0	350.0	2350.0	2400.0	1.0	350.0	1.0	n/a	ITI
191918.0	500	n/a	-1	-1	500	0.0	fixation	poldrack-single-stim	279	761160	0.0-11.41-0.41	beast_fmri_test	306	12.681883333333333	t	<div class = centerbox><div class = fixation>+</div></div>	none	500.0	test	n/a	n/a	n/a	n/a	n/a	n/a	n/a	n/a	n/a	n/a	n/a	n/a	n/a	n/a	n/a	n/a	n/a	n/a	fixation
191611.19134616619	2750	n/a	622	89	2750	305.808653834	stim	stop-signal	280	763909	0.0-11.41-1.41	beast_fmri_test	306	12.693216666666666,12.704533333333334,12.715883333333334,12.72715	t,t,t,t	<img class = center src='/static/experiments/beast_fmri_test/images/P.png'></img>	71,89	2750.0	test	<img class = center src='/static/experiments/beast_fmri_test/images/redP.png'></img>	go	2400.0	2.0	41.0	go	non-target	P	71,Green Button	89,Yellow Button	400.0	350.0	2350.0	2400.0	1.0	350.0	1.0	n/a	go_stim
194361.19134616619	305.80865383383463	n/a	622	89	2750	305.808653834	stim	stop-signal	280	763909	0.0-11.41-1.41	beast_fmri_test	306	12.693216666666666,12.704533333333334,12.715883333333334,12.72715	t,t,t,t	<img class = center src='/static/experiments/beast_fmri_test/images/P.png'></img>	71,89	2750.0	test	<img class = center src='/static/experiments/beast_fmri_test/images/redP.png'></img>	go	2400.0	2.0	41.0	go	non-target	P	71,Green Button	89,Yellow Button	400.0	350.0	2350.0	2400.0	1.0	350.0	1.0	n/a	ITI
195497.0	500	n/a	-1	-1	500	0.0	fixation	poldrack-single-stim	281	764739	0.0-11.42-0.42	beast_fmri_test	306	12.73845	t	<div class = centerbox><div class = fixation>+</div></div>	none	500.0	test	n/a	n/a	n/a	n/a	n/a	n/a	n/a	n/a	n/a	n/a	n/a	n/a	n/a	n/a	n/a	n/a	n/a	n/a	fixation
195411.16887538764	350.0	n/a	-1	-1	2750	87.8311246123	stim	stop-signal	282	767491	0.0-11.42-1.42	beast_fmri_test	306	12.7498,12.761133333333333,12.772466666666666,12.7838	t,t,t,t	<img class = center src='/static/experiments/beast_fmri_test/images/P.png'></img>	71,89	2750.0	test	<img class = center src='/static/experiments/beast_fmri_test/images/redP.png'></img>	stop	2400.0	2.0	42.0	stop	non-target	P	71,Green Button	89,Yellow Button	400.0	350.0	2350.0	2400.0	0.0	350.0	0.0	1.0	go_stim
197811.16887538764	2400.0	n/a	-1	-1	2750	87.8311246123	stim	stop-signal	282	767491	0.0-11.42-1.42	beast_fmri_test	306	12.7498,12.761133333333333,12.772466666666666,12.7838	t,t,t,t	<img class = center src='/static/experiments/beast_fmri_test/images/P.png'></img>	71,89	2750.0	test	<img class = center src='/static/experiments/beast_fmri_test/images/redP.png'></img>	stop	2400.0	2.0	42.0	stop	non-target	P	71,Green Button	89,Yellow Button	400.0	350.0	2350.0	2400.0	0.0	350.0	0.0	1.0	stop_stim
198161.16887538764	87.831124612340432	n/a	-1	-1	2750	87.8311246123	stim	stop-signal	282	767491	0.0-11.42-1.42	beast_fmri_test	306	12.7498,12.761133333333333,12.772466666666666,12.7838	t,t,t,t	<img class = center src='/static/experiments/beast_fmri_test/images/P.png'></img>	71,89	2750.0	test	<img class = center src='/static/experiments/beast_fmri_test/images/redP.png'></img>	stop	2400.0	2.0	42.0	stop	non-target	P	71,Green Button	89,Yellow Button	400.0	350.0	2350.0	2400.0	0.0	350.0	0.0	1.0	ITI
198868.0	500	n/a	-1	-1	500	0.0	fixation	poldrack-single-stim	283	768110	0.0-11.43-0.43	beast_fmri_test	306	12.795116666666667	t	<div class = centerbox><div class = fixation>+</div></div>	none	500.0	test	n/a	n/a	n/a	n/a	n/a	n/a	n/a	n/a	n/a	n/a	n/a	n/a	n/a	n/a	n/a	n/a	n/a	n/a	fixation
196208.04990639095	2750	n/a	635	89	2750	2662.95009361	stim	stop-signal	284	770863	0.0-11.43-1.43	beast_fmri_test	306	12.806483333333333,12.817816666666667,12.829133333333333,12.840466666666666,12.851816666666666,12.86315,12.874466666666667,12.885783333333332	t,t,t,t,t,t,t,t	<img class = center src='/static/experiments/beast_fmri_test/images/T.png'></img>	71,89	2750.0	test	<img class = center src='/static/experiments/beast_fmri_test/images/redT.png'></img>	go	2350.0	2.0	43.0	go	non-target	T	71,Green Button	89,Yellow Button	400.0	400.0	2350.0	2350.0	1.0	400.0	1.0	n/a	go_stim
198958.04990639095	2662.950093609003	n/a	635	89	2750	2662.95009361	stim	stop-signal	284	770863	0.0-11.43-1.43	beast_fmri_test	306	12.806483333333333,12.817816666666667,12.829133333333333,12.840466666666666,12.851816666666666,12.86315,12.874466666666667,12.885783333333332	t,t,t,t,t,t,t,t	<img class = center src='/static/experiments/beast_fmri_test/images/T.png'></img>	71,89	2750.0	test	<img class = center src='/static/experiments/beast_fmri_test/images/redT.png'></img>	go	2350.0	2.0	43.0	go	non-target	T	71,Green Button	89,Yellow Button	400.0	400.0	2350.0	2350.0	1.0	400.0	1.0	n/a	ITI
204809.0	500	n/a	-1	-1	500	0.0	fixation	poldrack-single-stim	285	774051	0.0-11.44-0.44	beast_fmri_test	306	12.897083333333333	t	<div class = centerbox><div class = fixation>+</div></div>	none	500.0	test	n/a	n/a	n/a	n/a	n/a	n/a	n/a	n/a	n/a	n/a	n/a	n/a	n/a	n/a	n/a	n/a	n/a	n/a	fixation
203553.55242863833	2750	n/a	716	89	2750	1257.44757136	stim	stop-signal	286	776803	0.0-11.44-1.44	beast_fmri_test	306	12.9084,12.919733333333333,12.931066666666666,12.9424,12.953716666666667,12.965066666666667	t,t,t,t,t,t	<img class = center src='/static/experiments/beast_fmri_test/images/V.png'></img>	71,89	2750.0	test	<img class = center src='/static/experiments/beast_fmri_test/images/redV.png'></img>	go	2350.0	2.0	44.0	go	non-target	V	71,Green Button	89,Yellow Button	400.0	400.0	2350.0	2350.0	1.0	400.0	1.0	n/a	go_stim
206303.55242863833	1257.4475713617235	n/a	716	89	2750	1257.44757136	stim	stop-signal	286	776803	0.0-11.44-1.44	beast_fmri_test	306	12.9084,12.919733333333333,12.931066666666666,12.9424,12.953716666666667,12.965066666666667	t,t,t,t,t,t	<img class = center src='/static/experiments/beast_fmri_test/images/V.png'></img>	71,89	2750.0	test	<img class = center src='/static/experiments/beast_fmri_test/images/redV.png'></img>	go	2350.0	2.0	44.0	go	non-target	V	71,Green Button	89,Yellow Button	400.0	400.0	2350.0	2350.0	1.0	400.0	1.0	n/a	ITI
209349.0	500	n/a	-1	-1	500	0.0	fixation	poldrack-single-stim	287	778591	0.0-11.45-0.45	beast_fmri_test	306	12.976383333333333	t	<div class = centerbox><div class = fixation>+</div></div>	none	500.0	test	n/a	n/a	n/a	n/a	n/a	n/a	n/a	n/a	n/a	n/a	n/a	n/a	n/a	n/a	n/a	n/a	n/a	n/a	fixation
208476.05649302877	2750	n/a	667	71	2750	875.943506971	stim	stop-signal	288	781344	0.0-11.45-1.45	beast_fmri_test	306	12.9877,12.999066666666666,13.0104,13.021716666666666,13.03305	t,t,t,t,t	<img class = center src='/static/experiments/beast_fmri_test/images/T.png'></img>	71,89	2750.0	test	<img class = center src='/static/experiments/beast_fmri_test/images/redT.png'></img>	go	2350.0	2.0	45.0	go	target	T	71,Green Button	89,Yellow Button	400.0	400.0	2350.0	2350.0	1.0	400.0	1.0	n/a	go_stim
211226.05649302877	875.94350697121672	n/a	667	71	2750	875.943506971	stim	stop-signal	288	781344	0.0-11.45-1.45	beast_fmri_test	306	12.9877,12.999066666666666,13.0104,13.021716666666666,13.03305	t,t,t,t,t	<img class = center src='/static/experiments/beast_fmri_test/images/T.png'></img>	71,89	2750.0	test	<img class = center src='/static/experiments/beast_fmri_test/images/redT.png'></img>	go	2350.0	2.0	45.0	go	target	T	71,Green Button	89,Yellow Button	400.0	400.0	2350.0	2350.0	1.0	400.0	1.0	n/a	ITI
213508.0	500	n/a	-1	-1	500	0.0	fixation	poldrack-single-stim	289	782750	0.0-11.46-0.46	beast_fmri_test	306	13.0444	t	<div class = centerbox><div class = fixation>+</div></div>	none	500.0	test	n/a	n/a	n/a	n/a	n/a	n/a	n/a	n/a	n/a	n/a	n/a	n/a	n/a	n/a	n/a	n/a	n/a	n/a	fixation
213305.50498729933	400.0	n/a	558	71	2750	200.495012701	stim	stop-signal	290	785498	0.0-11.46-1.46	beast_fmri_test	306	13.055716666666667,13.067,13.078316666666666,13.08965	t,t,t,t	<img class = center src='/static/experiments/beast_fmri_test/images/V.png'></img>	71,89	2750.0	test	<img class = center src='/static/experiments/beast_fmri_test/images/redV.png'></img>	stop	2350.0	2.0	46.0	stop	target	V	71,Green Button	89,Yellow Button	400.0	400.0	2350.0	2350.0	0.0	400.0	1.0	0.0	go_stim
215655.50498729933	2350.0	n/a	558	71	2750	200.495012701	stim	stop-signal	290	785498	0.0-11.46-1.46	beast_fmri_test	306	13.055716666666667,13.067,13.078316666666666,13.08965	t,t,t,t	<img class = center src='/static/experiments/beast_fmri_test/images/V.png'></img>	71,89	2750.0	test	<img class = center src='/static/experiments/beast_fmri_test/images/redV.png'></img>	stop	2350.0	2.0	46.0	stop	target	V	71,Green Button	89,Yellow Button	400.0	400.0	2350.0	2350.0	0.0	400.0	1.0	0.0	stop_stim
216055.50498729933	200.49501270061847	n/a	558	71	2750	200.495012701	stim	stop-signal	290	785498	0.0-11.46-1.46	beast_fmri_test	306	13.055716666666667,13.067,13.078316666666666,13.08965	t,t,t,t	<img class = center src='/static/experiments/beast_fmri_test/images/V.png'></img>	71,89	2750.0	test	<img class = center src='/static/experiments/beast_fmri_test/images/redV.png'></img>	stop	2350.0	2.0	46.0	stop	target	V	71,Green Button	89,Yellow Button	400.0	400.0	2350.0	2350.0	0.0	400.0	1.0	0.0	ITI
231487.0	15000	n/a	-1	-1	15000	0.0	practice-no-stop-feedback	poldrack-single-stim	291	800729	0.0-12.0	beast_fmri_test	306	13.100983333333334,13.1123,13.123633333333334,13.134983333333333,13.146316666666667,13.15765,13.168983333333333,13.180316666666666,13.19165,13.202983333333334,13.214316666666667,13.2256,13.236916666666668,13.248233333333333,13.259566666666666,13.2709,13.282233333333334,13.293566666666667,13.3049,13.316233333333333,13.3276,13.338916666666666	t,t,t,t,t,t,t,t,t,t,t,t,t,t,t,t,t,t,t,t,t,t	"<div class = ""centerbox""><p class = ""center-block-text"">Your delay is 1 trials.</p><p class = center-block-text>Please wait for the scanner to start the block</p></div>"	77	15000.0	n/a	n/a	n/a	n/a	n/a	n/a	n/a	n/a	n/a	n/a	n/a	n/a	n/a	n/a	n/a	n/a	n/a	n/a	n/a	practice-no-stop-feedback
231990.0	500	n/a	-1	-1	500	0.0	fixation	poldrack-single-stim	292	801232	0.0-13.0-0.0	beast_fmri_test	306	13.350233333333334	t	<div class = centerbox><div class = fixation>+</div></div>	none	500.0	test	n/a	n/a	n/a	n/a	n/a	n/a	n/a	n/a	n/a	n/a	n/a	n/a	n/a	n/a	n/a	n/a	n/a	n/a	fixation
231708.85516333277	temp_go_duration	n/a	483	89	2750	280.144836667	stim	stop-signal	293	803981	0.0-13.0-1.0	beast_fmri_test	306	13.3616,13.372916666666667,13.38425,13.395533333333333	t,t,t,t	<img class = center src='/static/experiments/beast_fmri_test/images/T.png'></img>	71,89	2750.0	test	<img class = center src='/static/experiments/beast_fmri_test/images/redT.png'></img>	stop	-1.0	1.0	0.0	stop	temp-non-target	T	71,Green Button	89,Yellow Button	350.0	400.0	2350.0	2350.0	0.0	n/a	n/a	0.0	go_stim
temp-non-target	temp_stop_duration	n/a	483	89	2750	280.144836667	stim	stop-signal	293	803981	0.0-13.0-1.0	beast_fmri_test	306	13.3616,13.372916666666667,13.38425,13.395533333333333	t,t,t,t	<img class = center src='/static/experiments/beast_fmri_test/images/T.png'></img>	71,89	2750.0	test	<img class = center src='/static/experiments/beast_fmri_test/images/redT.png'></img>	stop	-1.0	1.0	0.0	stop	temp-non-target	T	71,Green Button	89,Yellow Button	350.0	400.0	2350.0	2350.0	0.0	n/a	n/a	0.0	stop_stim
234458.85516333277	280.14483666725567	n/a	483	89	2750	280.144836667	stim	stop-signal	293	803981	0.0-13.0-1.0	beast_fmri_test	306	13.3616,13.372916666666667,13.38425,13.395533333333333	t,t,t,t	<img class = center src='/static/experiments/beast_fmri_test/images/T.png'></img>	71,89	2750.0	test	<img class = center src='/static/experiments/beast_fmri_test/images/redT.png'></img>	stop	-1.0	1.0	0.0	stop	temp-non-target	T	71,Green Button	89,Yellow Button	350.0	400.0	2350.0	2350.0	0.0	n/a	n/a	0.0	ITI
235550.0	500	n/a	-1	-1	500	0.0	fixation	poldrack-single-stim	294	804792	0.0-13.1-0.1	beast_fmri_test	306	13.406833333333333	t	<div class = centerbox><div class = fixation>+</div></div>	none	500.0	test	n/a	n/a	n/a	n/a	n/a	n/a	n/a	n/a	n/a	n/a	n/a	n/a	n/a	n/a	n/a	n/a	n/a	n/a	fixation
235172.37959877343	2750	n/a	591	89	2750	381.620401227	stim	stop-signal	295	807546	0.0-13.1-1.1	beast_fmri_test	306	13.41815,13.4295,13.440833333333334,13.452166666666667,13.4635	t,t,t,t,t	<img class = center src='/static/experiments/beast_fmri_test/images/P.png'></img>	71,89	2750.0	test	<img class = center src='/static/experiments/beast_fmri_test/images/redP.png'></img>	go	2350.0	1.0	1.0	go	non-target	P	71,Green Button	89,Yellow Button	350.0	400.0	2350.0	2350.0	1.0	400.0	1.0	n/a	go_stim
237922.37959877343	381.62040122656862	n/a	591	89	2750	381.620401227	stim	stop-signal	295	807546	0.0-13.1-1.1	beast_fmri_test	306	13.41815,13.4295,13.440833333333334,13.452166666666667,13.4635	t,t,t,t,t	<img class = center src='/static/experiments/beast_fmri_test/images/P.png'></img>	71,89	2750.0	test	<img class = center src='/static/experiments/beast_fmri_test/images/redP.png'></img>	go	2350.0	1.0	1.0	go	non-target	P	71,Green Button	89,Yellow Button	350.0	400.0	2350.0	2350.0	1.0	400.0	1.0	n/a	ITI
239216.0	500	n/a	-1	-1	500	0.0	fixation	poldrack-single-stim	296	808458	0.0-13.2-0.2	beast_fmri_test	306	n/a	n/a	<div class = centerbox><div class = fixation>+</div></div>	none	500.0	test	n/a	n/a	n/a	n/a	n/a	n/a	n/a	n/a	n/a	n/a	n/a	n/a	n/a	n/a	n/a	n/a	n/a	n/a	fixation
238739.2106247989	2750	n/a	596	89	2750	479.789375201	stim	stop-signal	297	811211	0.0-13.2-1.2	beast_fmri_test	306	13.474816666666667,13.486166666666668,13.4975,13.508833333333333,13.520166666666666	t,t,t,t,t	<img class = center src='/static/experiments/beast_fmri_test/images/B.png'></img>	71,89	2750.0	test	<img class = center src='/static/experiments/beast_fmri_test/images/redB.png'></img>	go	2350.0	1.0	2.0	go	non-target	B	71,Green Button	89,Yellow Button	350.0	400.0	2350.0	2350.0	1.0	400.0	1.0	n/a	go_stim
241489.2106247989	479.78937520112686	n/a	596	89	2750	479.789375201	stim	stop-signal	297	811211	0.0-13.2-1.2	beast_fmri_test	306	13.474816666666667,13.486166666666668,13.4975,13.508833333333333,13.520166666666666	t,t,t,t,t	<img class = center src='/static/experiments/beast_fmri_test/images/B.png'></img>	71,89	2750.0	test	<img class = center src='/static/experiments/beast_fmri_test/images/redB.png'></img>	go	2350.0	1.0	2.0	go	non-target	B	71,Green Button	89,Yellow Button	350.0	400.0	2350.0	2350.0	1.0	400.0	1.0	n/a	ITI
242974.0	500	n/a	-1	-1	500	0.0	fixation	poldrack-single-stim	298	812216	0.0-13.3-0.3	beast_fmri_test	306	13.5315	t	<div class = centerbox><div class = fixation>+</div></div>	none	500.0	test	n/a	n/a	n/a	n/a	n/a	n/a	n/a	n/a	n/a	n/a	n/a	n/a	n/a	n/a	n/a	n/a	n/a	n/a	fixation
242667.45644763554	2750	n/a	557	89	2750	305.543552364	stim	stop-signal	299	814965	0.0-13.3-1.3	beast_fmri_test	306	13.542833333333334,13.554166666666667,13.565433333333333,13.57675	t,t,t,t	<img class = center src='/static/experiments/beast_fmri_test/images/T.png'></img>	71,89	2750.0	test	<img class = center src='/static/experiments/beast_fmri_test/images/redT.png'></img>	go	2350.0	1.0	3.0	go	non-target	T	71,Green Button	89,Yellow Button	350.0	400.0	2350.0	2350.0	1.0	400.0	1.0	n/a	go_stim
245417.45644763554	305.54355236440466	n/a	557	89	2750	305.543552364	stim	stop-signal	299	814965	0.0-13.3-1.3	beast_fmri_test	306	13.542833333333334,13.554166666666667,13.565433333333333,13.57675	t,t,t,t	<img class = center src='/static/experiments/beast_fmri_test/images/T.png'></img>	71,89	2750.0	test	<img class = center src='/static/experiments/beast_fmri_test/images/redT.png'></img>	go	2350.0	1.0	3.0	go	non-target	T	71,Green Button	89,Yellow Button	350.0	400.0	2350.0	2350.0	1.0	400.0	1.0	n/a	ITI
246561.0	500	n/a	-1	-1	500	0.0	fixation	poldrack-single-stim	300	815803	0.0-13.4-0.4	beast_fmri_test	306	13.58835	t	<div class = centerbox><div class = fixation>+</div></div>	none	500.0	test	n/a	n/a	n/a	n/a	n/a	n/a	n/a	n/a	n/a	n/a	n/a	n/a	n/a	n/a	n/a	n/a	n/a	n/a	fixation
241564.0	2750	n/a	498	89	2750	5000.0	stim	stop-signal	301	818556	0.0-13.4-1.4	beast_fmri_test	306	13.5994,13.61075,13.622083333333334,13.633416666666667,13.644733333333333,13.656083333333333,13.667416666666666,13.678733333333334,13.690066666666667,13.701416666666667,13.71275,13.72405	t,t,t,t,t,t,t,t,t,t,t,t	<img class = center src='/static/experiments/beast_fmri_test/images/B.png'></img>	71,89	2750.0	test	<img class = center src='/static/experiments/beast_fmri_test/images/redB.png'></img>	go	2350.0	1.0	4.0	go	non-target	B	71,Green Button	89,Yellow Button	350.0	400.0	2350.0	2350.0	1.0	400.0	1.0	n/a	go_stim
244314.0	5000.0	n/a	498	89	2750	5000.0	stim	stop-signal	301	818556	0.0-13.4-1.4	beast_fmri_test	306	13.5994,13.61075,13.622083333333334,13.633416666666667,13.644733333333333,13.656083333333333,13.667416666666666,13.678733333333334,13.690066666666667,13.701416666666667,13.71275,13.72405	t,t,t,t,t,t,t,t,t,t,t,t	<img class = center src='/static/experiments/beast_fmri_test/images/B.png'></img>	71,89	2750.0	test	<img class = center src='/static/experiments/beast_fmri_test/images/redB.png'></img>	go	2350.0	1.0	4.0	go	non-target	B	71,Green Button	89,Yellow Button	350.0	400.0	2350.0	2350.0	1.0	400.0	1.0	n/a	ITI
254842.0	500	n/a	-1	-1	500	0.0	fixation	poldrack-single-stim	302	824084	0.0-13.5-0.5	beast_fmri_test	306	n/a	n/a	<div class = centerbox><div class = fixation>+</div></div>	none	500.0	test	n/a	n/a	n/a	n/a	n/a	n/a	n/a	n/a	n/a	n/a	n/a	n/a	n/a	n/a	n/a	n/a	n/a	n/a	fixation
254539.01674944838	400.0	n/a	433	89	2750	304.983250552	stim	stop-signal	303	826836	0.0-13.5-1.5	beast_fmri_test	306	13.735333333333333,13.746683333333333,13.758,13.769333333333334,13.780666666666667	t,t,t,t,t	<img class = center src='/static/experiments/beast_fmri_test/images/V.png'></img>	71,89	2750.0	test	<img class = center src='/static/experiments/beast_fmri_test/images/redV.png'></img>	stop	2350.0	1.0	5.0	stop	non-target	V	71,Green Button	89,Yellow Button	350.0	400.0	2350.0	2350.0	0.0	400.0	1.0	0.0	go_stim
256889.01674944838	2350.0	n/a	433	89	2750	304.983250552	stim	stop-signal	303	826836	0.0-13.5-1.5	beast_fmri_test	306	13.735333333333333,13.746683333333333,13.758,13.769333333333334,13.780666666666667	t,t,t,t,t	<img class = center src='/static/experiments/beast_fmri_test/images/V.png'></img>	71,89	2750.0	test	<img class = center src='/static/experiments/beast_fmri_test/images/redV.png'></img>	stop	2350.0	1.0	5.0	stop	non-target	V	71,Green Button	89,Yellow Button	350.0	400.0	2350.0	2350.0	0.0	400.0	1.0	0.0	stop_stim
257289.01674944838	304.98325055164526	n/a	433	89	2750	304.983250552	stim	stop-signal	303	826836	0.0-13.5-1.5	beast_fmri_test	306	13.735333333333333,13.746683333333333,13.758,13.769333333333334,13.780666666666667	t,t,t,t,t	<img class = center src='/static/experiments/beast_fmri_test/images/V.png'></img>	71,89	2750.0	test	<img class = center src='/static/experiments/beast_fmri_test/images/redV.png'></img>	stop	2350.0	1.0	5.0	stop	non-target	V	71,Green Button	89,Yellow Button	350.0	400.0	2350.0	2350.0	0.0	400.0	1.0	0.0	ITI
258434.0	500	n/a	-1	-1	500	0.0	fixation	poldrack-single-stim	304	827676	0.0-13.6-0.6	beast_fmri_test	306	13.792016666666667	t	<div class = centerbox><div class = fixation>+</div></div>	none	500.0	test	n/a	n/a	n/a	n/a	n/a	n/a	n/a	n/a	n/a	n/a	n/a	n/a	n/a	n/a	n/a	n/a	n/a	n/a	fixation
257495.24212858651	350.0	n/a	761	71	2750	940.757871413	stim	stop-signal	305	830428	0.0-13.6-1.6	beast_fmri_test	306	13.80335,13.814683333333333,13.826,13.837333333333333,13.848666666666666	t,t,t,t,t	<img class = center src='/static/experiments/beast_fmri_test/images/V.png'></img>	71,89	2750.0	test	<img class = center src='/static/experiments/beast_fmri_test/images/redV.png'></img>	stop	2400.0	1.0	6.0	stop	target	V	71,Green Button	89,Yellow Button	350.0	350.0	2400.0	2350.0	0.0	350.0	1.0	0.0	go_stim
259895.24212858651	2400.0	n/a	761	71	2750	940.757871413	stim	stop-signal	305	830428	0.0-13.6-1.6	beast_fmri_test	306	13.80335,13.814683333333333,13.826,13.837333333333333,13.848666666666666	t,t,t,t,t	<img class = center src='/static/experiments/beast_fmri_test/images/V.png'></img>	71,89	2750.0	test	<img class = center src='/static/experiments/beast_fmri_test/images/redV.png'></img>	stop	2400.0	1.0	6.0	stop	target	V	71,Green Button	89,Yellow Button	350.0	350.0	2400.0	2350.0	0.0	350.0	1.0	0.0	stop_stim
260245.24212858651	940.7578714134944	n/a	761	71	2750	940.757871413	stim	stop-signal	305	830428	0.0-13.6-1.6	beast_fmri_test	306	13.80335,13.814683333333333,13.826,13.837333333333333,13.848666666666666	t,t,t,t,t	<img class = center src='/static/experiments/beast_fmri_test/images/V.png'></img>	71,89	2750.0	test	<img class = center src='/static/experiments/beast_fmri_test/images/redV.png'></img>	stop	2400.0	1.0	6.0	stop	target	V	71,Green Button	89,Yellow Button	350.0	350.0	2400.0	2350.0	0.0	350.0	1.0	0.0	ITI
262661.0	500	n/a	-1	-1	500	0.0	fixation	poldrack-single-stim	306	831903	0.0-13.7-0.7	beast_fmri_test	306	13.860033333333334	t	<div class = centerbox><div class = fixation>+</div></div>	none	500.0	test	n/a	n/a	n/a	n/a	n/a	n/a	n/a	n/a	n/a	n/a	n/a	n/a	n/a	n/a	n/a	n/a	n/a	n/a	fixation
260717.25796498801	350.0	n/a	447	89	2750	1941.74203501	stim	stop-signal	307	834651	0.0-13.7-1.7	beast_fmri_test	306	13.871366666666667,13.882666666666667,13.893966666666667,13.905266666666666,13.9166,13.9279,13.939266666666667	t,t,t,t,t,t,t	<img class = center src='/static/experiments/beast_fmri_test/images/P.png'></img>	71,89	2750.0	test	<img class = center src='/static/experiments/beast_fmri_test/images/redP.png'></img>	stop	2400.0	1.0	7.0	stop	non-target	P	71,Green Button	89,Yellow Button	300.0	350.0	2400.0	2400.0	0.0	350.0	1.0	0.0	go_stim
263117.25796498801	2400.0	n/a	447	89	2750	1941.74203501	stim	stop-signal	307	834651	0.0-13.7-1.7	beast_fmri_test	306	13.871366666666667,13.882666666666667,13.893966666666667,13.905266666666666,13.9166,13.9279,13.939266666666667	t,t,t,t,t,t,t	<img class = center src='/static/experiments/beast_fmri_test/images/P.png'></img>	71,89	2750.0	test	<img class = center src='/static/experiments/beast_fmri_test/images/redP.png'></img>	stop	2400.0	1.0	7.0	stop	non-target	P	71,Green Button	89,Yellow Button	300.0	350.0	2400.0	2400.0	0.0	350.0	1.0	0.0	stop_stim
263467.25796498801	1941.7420350120315	n/a	447	89	2750	1941.74203501	stim	stop-signal	307	834651	0.0-13.7-1.7	beast_fmri_test	306	13.871366666666667,13.882666666666667,13.893966666666667,13.905266666666666,13.9166,13.9279,13.939266666666667	t,t,t,t,t,t,t	<img class = center src='/static/experiments/beast_fmri_test/images/P.png'></img>	71,89	2750.0	test	<img class = center src='/static/experiments/beast_fmri_test/images/redP.png'></img>	stop	2400.0	1.0	7.0	stop	non-target	P	71,Green Button	89,Yellow Button	300.0	350.0	2400.0	2400.0	0.0	350.0	1.0	0.0	ITI
267886.0	500	n/a	-1	-1	500	0.0	fixation	poldrack-single-stim	308	837128	0.0-13.8-0.8	beast_fmri_test	306	13.9506	t	<div class = centerbox><div class = fixation>+</div></div>	none	500.0	test	n/a	n/a	n/a	n/a	n/a	n/a	n/a	n/a	n/a	n/a	n/a	n/a	n/a	n/a	n/a	n/a	n/a	n/a	fixation
267288.93207287765	300.0	n/a	397	71	2750	599.067927122	stim	stop-signal	309	839880	0.0-13.8-1.8	beast_fmri_test	306	13.961933333333333,13.97325,13.9846,13.995933333333333,14.007266666666666	t,t,t,t,t	<img class = center src='/static/experiments/beast_fmri_test/images/P.png'></img>	71,89	2750.0	test	<img class = center src='/static/experiments/beast_fmri_test/images/redP.png'></img>	stop	2450.0	1.0	8.0	stop	target	P	71,Green Button	89,Yellow Button	300.0	300.0	2450.0	2400.0	0.0	300.0	1.0	0.0	go_stim
269738.93207287765	2450.0	n/a	397	71	2750	599.067927122	stim	stop-signal	309	839880	0.0-13.8-1.8	beast_fmri_test	306	13.961933333333333,13.97325,13.9846,13.995933333333333,14.007266666666666	t,t,t,t,t	<img class = center src='/static/experiments/beast_fmri_test/images/P.png'></img>	71,89	2750.0	test	<img class = center src='/static/experiments/beast_fmri_test/images/redP.png'></img>	stop	2450.0	1.0	8.0	stop	target	P	71,Green Button	89,Yellow Button	300.0	300.0	2450.0	2400.0	0.0	300.0	1.0	0.0	stop_stim
270038.93207287765	599.06792712237882	n/a	397	71	2750	599.067927122	stim	stop-signal	309	839880	0.0-13.8-1.8	beast_fmri_test	306	13.961933333333333,13.97325,13.9846,13.995933333333333,14.007266666666666	t,t,t,t,t	<img class = center src='/static/experiments/beast_fmri_test/images/P.png'></img>	71,89	2750.0	test	<img class = center src='/static/experiments/beast_fmri_test/images/redP.png'></img>	stop	2450.0	1.0	8.0	stop	target	P	71,Green Button	89,Yellow Button	300.0	300.0	2450.0	2400.0	0.0	300.0	1.0	0.0	ITI
271771.0	500	n/a	-1	-1	500	0.0	fixation	poldrack-single-stim	310	841013	0.0-13.9-0.9	beast_fmri_test	306	n/a	n/a	<div class = centerbox><div class = fixation>+</div></div>	none	500.0	test	n/a	n/a	n/a	n/a	n/a	n/a	n/a	n/a	n/a	n/a	n/a	n/a	n/a	n/a	n/a	n/a	n/a	n/a	fixation
270660.94465408986	300.0	n/a	524	89	2750	1110.05534591	stim	stop-signal	311	843763	0.0-13.9-1.9	beast_fmri_test	306	14.0186,14.029933333333334,14.041266666666667,14.052583333333333,14.063866666666666,14.075183333333333	t,t,t,t,t,t	<img class = center src='/static/experiments/beast_fmri_test/images/T.png'></img>	71,89	2750.0	test	<img class = center src='/static/experiments/beast_fmri_test/images/redT.png'></img>	stop	2450.0	1.0	9.0	stop	non-target	T	71,Green Button	89,Yellow Button	250.0	300.0	2450.0	2450.0	0.0	300.0	1.0	0.0	go_stim
273110.94465408986	2450.0	n/a	524	89	2750	1110.05534591	stim	stop-signal	311	843763	0.0-13.9-1.9	beast_fmri_test	306	14.0186,14.029933333333334,14.041266666666667,14.052583333333333,14.063866666666666,14.075183333333333	t,t,t,t,t,t	<img class = center src='/static/experiments/beast_fmri_test/images/T.png'></img>	71,89	2750.0	test	<img class = center src='/static/experiments/beast_fmri_test/images/redT.png'></img>	stop	2450.0	1.0	9.0	stop	non-target	T	71,Green Button	89,Yellow Button	250.0	300.0	2450.0	2450.0	0.0	300.0	1.0	0.0	stop_stim
273410.94465408986	1110.0553459101034	n/a	524	89	2750	1110.05534591	stim	stop-signal	311	843763	0.0-13.9-1.9	beast_fmri_test	306	14.0186,14.029933333333334,14.041266666666667,14.052583333333333,14.063866666666666,14.075183333333333	t,t,t,t,t,t	<img class = center src='/static/experiments/beast_fmri_test/images/T.png'></img>	71,89	2750.0	test	<img class = center src='/static/experiments/beast_fmri_test/images/redT.png'></img>	stop	2450.0	1.0	9.0	stop	non-target	T	71,Green Button	89,Yellow Button	250.0	300.0	2450.0	2450.0	0.0	300.0	1.0	0.0	ITI
276165.0	500	n/a	-1	-1	500	0.0	fixation	poldrack-single-stim	312	845407	0.0-13.10-0.10	beast_fmri_test	306	14.086516666666666	t	<div class = centerbox><div class = fixation>+</div></div>	none	500.0	test	n/a	n/a	n/a	n/a	n/a	n/a	n/a	n/a	n/a	n/a	n/a	n/a	n/a	n/a	n/a	n/a	n/a	n/a	fixation
275399.78254480276	2750	n/a	343	71	2750	769.217455197	stim	stop-signal	313	848161	0.0-13.10-1.10	beast_fmri_test	306	14.09785,14.109183333333334,14.120516666666667,14.13185,14.143183333333333	t,t,t,t,t	<img class = center src='/static/experiments/beast_fmri_test/images/T.png'></img>	71,89	2750.0	test	<img class = center src='/static/experiments/beast_fmri_test/images/redT.png'></img>	go	2500.0	1.0	10.0	go	target	T	71,Green Button	89,Yellow Button	250.0	250.0	2500.0	2450.0	1.0	250.0	1.0	n/a	go_stim
278149.78254480276	769.21745519722458	n/a	343	71	2750	769.217455197	stim	stop-signal	313	848161	0.0-13.10-1.10	beast_fmri_test	306	14.09785,14.109183333333334,14.120516666666667,14.13185,14.143183333333333	t,t,t,t,t	<img class = center src='/static/experiments/beast_fmri_test/images/T.png'></img>	71,89	2750.0	test	<img class = center src='/static/experiments/beast_fmri_test/images/redT.png'></img>	go	2500.0	1.0	10.0	go	target	T	71,Green Button	89,Yellow Button	250.0	250.0	2500.0	2450.0	1.0	250.0	1.0	n/a	ITI
280222.0	500	n/a	-1	-1	500	0.0	fixation	poldrack-single-stim	314	849464	0.0-13.11-0.11	beast_fmri_test	306	14.154516666666666	t	<div class = centerbox><div class = fixation>+</div></div>	none	500.0	test	n/a	n/a	n/a	n/a	n/a	n/a	n/a	n/a	n/a	n/a	n/a	n/a	n/a	n/a	n/a	n/a	n/a	n/a	fixation
278224.94763228006	2750	n/a	610	89	2750	2000.05236772	stim	stop-signal	315	852217	0.0-13.11-1.11	beast_fmri_test	306	14.16585,14.177166666666666,14.188533333333334,14.19985,14.211183333333333,14.2225,14.233783333333333	t,t,t,t,t,t,t	<img class = center src='/static/experiments/beast_fmri_test/images/P.png'></img>	71,89	2750.0	test	<img class = center src='/static/experiments/beast_fmri_test/images/redP.png'></img>	go	2500.0	1.0	11.0	go	non-target	P	71,Green Button	89,Yellow Button	250.0	250.0	2500.0	2500.0	1.0	250.0	1.0	n/a	go_stim
280974.94763228006	2000.0523677199888	n/a	610	89	2750	2000.05236772	stim	stop-signal	315	852217	0.0-13.11-1.11	beast_fmri_test	306	14.16585,14.177166666666666,14.188533333333334,14.19985,14.211183333333333,14.2225,14.233783333333333	t,t,t,t,t,t,t	<img class = center src='/static/experiments/beast_fmri_test/images/P.png'></img>	71,89	2750.0	test	<img class = center src='/static/experiments/beast_fmri_test/images/redP.png'></img>	go	2500.0	1.0	11.0	go	non-target	P	71,Green Button	89,Yellow Button	250.0	250.0	2500.0	2500.0	1.0	250.0	1.0	n/a	ITI
285506.0	500	n/a	-1	-1	500	0.0	fixation	poldrack-single-stim	316	854748	0.0-13.12-0.12	beast_fmri_test	306	14.245083333333334	t	<div class = centerbox><div class = fixation>+</div></div>	none	500.0	test	n/a	n/a	n/a	n/a	n/a	n/a	n/a	n/a	n/a	n/a	n/a	n/a	n/a	n/a	n/a	n/a	n/a	n/a	fixation
285216.33937338542	2750	n/a	532	89	2750	292.660626615	stim	stop-signal	317	857501	0.0-13.12-1.12	beast_fmri_test	306	14.256433333333334,14.267766666666667,14.2791,14.29045	t,t,t,t	<img class = center src='/static/experiments/beast_fmri_test/images/B.png'></img>	71,89	2750.0	test	<img class = center src='/static/experiments/beast_fmri_test/images/redB.png'></img>	go	2500.0	1.0	12.0	go	non-target	B	71,Green Button	89,Yellow Button	250.0	250.0	2500.0	2500.0	1.0	250.0	1.0	n/a	go_stim
287966.33937338542	292.66062661463275	n/a	532	89	2750	292.660626615	stim	stop-signal	317	857501	0.0-13.12-1.12	beast_fmri_test	306	14.256433333333334,14.267766666666667,14.2791,14.29045	t,t,t,t	<img class = center src='/static/experiments/beast_fmri_test/images/B.png'></img>	71,89	2750.0	test	<img class = center src='/static/experiments/beast_fmri_test/images/redB.png'></img>	go	2500.0	1.0	12.0	go	non-target	B	71,Green Button	89,Yellow Button	250.0	250.0	2500.0	2500.0	1.0	250.0	1.0	n/a	ITI
289084.0	500	n/a	-1	-1	500	0.0	fixation	poldrack-single-stim	318	858326	0.0-13.13-0.13	beast_fmri_test	306	14.301766666666667	t	<div class = centerbox><div class = fixation>+</div></div>	none	500.0	test	n/a	n/a	n/a	n/a	n/a	n/a	n/a	n/a	n/a	n/a	n/a	n/a	n/a	n/a	n/a	n/a	n/a	n/a	fixation
288002.21334486105	2750	n/a	675	71	2750	1085.78665514	stim	stop-signal	319	861080	0.0-13.13-1.13	beast_fmri_test	306	14.313116666666666,14.32445,14.335783333333334,14.347116666666667,14.35845	t,t,t,t,t	<img class = center src='/static/experiments/beast_fmri_test/images/B.png'></img>	71,89	2750.0	test	<img class = center src='/static/experiments/beast_fmri_test/images/redB.png'></img>	go	2500.0	1.0	13.0	go	target	B	71,Green Button	89,Yellow Button	250.0	250.0	2500.0	2500.0	1.0	250.0	1.0	n/a	go_stim
290752.21334486105	1085.7866551389895	n/a	675	71	2750	1085.78665514	stim	stop-signal	319	861080	0.0-13.13-1.13	beast_fmri_test	306	14.313116666666666,14.32445,14.335783333333334,14.347116666666667,14.35845	t,t,t,t,t	<img class = center src='/static/experiments/beast_fmri_test/images/B.png'></img>	71,89	2750.0	test	<img class = center src='/static/experiments/beast_fmri_test/images/redB.png'></img>	go	2500.0	1.0	13.0	go	target	B	71,Green Button	89,Yellow Button	250.0	250.0	2500.0	2500.0	1.0	250.0	1.0	n/a	ITI
293460.0	500	n/a	-1	-1	500	0.0	fixation	poldrack-single-stim	320	862702	0.0-13.14-0.14	beast_fmri_test	306	14.370016666666666	t	<div class = centerbox><div class = fixation>+</div></div>	none	500.0	test	n/a	n/a	n/a	n/a	n/a	n/a	n/a	n/a	n/a	n/a	n/a	n/a	n/a	n/a	n/a	n/a	n/a	n/a	fixation
292681.03021597862	2750	n/a	594	89	2750	776.969784021	stim	stop-signal	321	865450	0.0-13.14-1.14	beast_fmri_test	306	14.381133333333333,14.392416666666668,14.403716666666666,14.415033333333334,14.426366666666667	t,t,t,t,t	<img class = center src='/static/experiments/beast_fmri_test/images/D.png'></img>	71,89	2750.0	test	<img class = center src='/static/experiments/beast_fmri_test/images/redD.png'></img>	go	2500.0	1.0	14.0	go	non-target	D	71,Green Button	89,Yellow Button	250.0	250.0	2500.0	2500.0	1.0	250.0	1.0	n/a	go_stim
295431.03021597862	776.96978402136028	n/a	594	89	2750	776.969784021	stim	stop-signal	321	865450	0.0-13.14-1.14	beast_fmri_test	306	14.381133333333333,14.392416666666668,14.403716666666666,14.415033333333334,14.426366666666667	t,t,t,t,t	<img class = center src='/static/experiments/beast_fmri_test/images/D.png'></img>	71,89	2750.0	test	<img class = center src='/static/experiments/beast_fmri_test/images/redD.png'></img>	go	2500.0	1.0	14.0	go	non-target	D	71,Green Button	89,Yellow Button	250.0	250.0	2500.0	2500.0	1.0	250.0	1.0	n/a	ITI
297519.0	500	n/a	-1	-1	500	0.0	fixation	poldrack-single-stim	322	866761	0.0-13.15-0.15	beast_fmri_test	306	14.437683333333334	t	<div class = centerbox><div class = fixation>+</div></div>	none	500.0	test	n/a	n/a	n/a	n/a	n/a	n/a	n/a	n/a	n/a	n/a	n/a	n/a	n/a	n/a	n/a	n/a	n/a	n/a	fixation
297179.51407509379	2750	n/a	559	89	2750	342.485924906	stim	stop-signal	323	869514	0.0-13.15-1.15	beast_fmri_test	306	14.449033333333333,14.460366666666667,14.4717,14.48305,14.494366666666666	t,t,t,t,t	<img class = center src='/static/experiments/beast_fmri_test/images/V.png'></img>	71,89	2750.0	test	<img class = center src='/static/experiments/beast_fmri_test/images/redV.png'></img>	go	2500.0	1.0	15.0	go	non-target	V	71,Green Button	89,Yellow Button	250.0	250.0	2500.0	2500.0	1.0	250.0	1.0	n/a	go_stim
299929.51407509379	342.48592490621388	n/a	559	89	2750	342.485924906	stim	stop-signal	323	869514	0.0-13.15-1.15	beast_fmri_test	306	14.449033333333333,14.460366666666667,14.4717,14.48305,14.494366666666666	t,t,t,t,t	<img class = center src='/static/experiments/beast_fmri_test/images/V.png'></img>	71,89	2750.0	test	<img class = center src='/static/experiments/beast_fmri_test/images/redV.png'></img>	go	2500.0	1.0	15.0	go	non-target	V	71,Green Button	89,Yellow Button	250.0	250.0	2500.0	2500.0	1.0	250.0	1.0	n/a	ITI
301147.0	500	n/a	-1	-1	500	0.0	fixation	poldrack-single-stim	324	870389	0.0-13.16-0.16	beast_fmri_test	306	14.505716666666666	t	<div class = centerbox><div class = fixation>+</div></div>	none	500.0	test	n/a	n/a	n/a	n/a	n/a	n/a	n/a	n/a	n/a	n/a	n/a	n/a	n/a	n/a	n/a	n/a	n/a	n/a	fixation
300957.70062308677	250.0	n/a	-1	-1	2750	192.299376913	stim	stop-signal	325	873142	0.0-13.16-1.16	beast_fmri_test	306	14.517033333333334,14.528366666666667,14.539683333333333,14.551016666666667	t,t,t,t	<img class = center src='/static/experiments/beast_fmri_test/images/T.png'></img>	71,89	2750.0	test	<img class = center src='/static/experiments/beast_fmri_test/images/redT.png'></img>	stop	2500.0	1.0	16.0	stop	non-target	T	71,Green Button	89,Yellow Button	250.0	250.0	2500.0	2500.0	0.0	250.0	0.0	1.0	go_stim
303457.70062308677	2500.0	n/a	-1	-1	2750	192.299376913	stim	stop-signal	325	873142	0.0-13.16-1.16	beast_fmri_test	306	14.517033333333334,14.528366666666667,14.539683333333333,14.551016666666667	t,t,t,t	<img class = center src='/static/experiments/beast_fmri_test/images/T.png'></img>	71,89	2750.0	test	<img class = center src='/static/experiments/beast_fmri_test/images/redT.png'></img>	stop	2500.0	1.0	16.0	stop	non-target	T	71,Green Button	89,Yellow Button	250.0	250.0	2500.0	2500.0	0.0	250.0	0.0	1.0	stop_stim
303707.70062308677	192.29937691319046	n/a	-1	-1	2750	192.299376913	stim	stop-signal	325	873142	0.0-13.16-1.16	beast_fmri_test	306	14.517033333333334,14.528366666666667,14.539683333333333,14.551016666666667	t,t,t,t	<img class = center src='/static/experiments/beast_fmri_test/images/T.png'></img>	71,89	2750.0	test	<img class = center src='/static/experiments/beast_fmri_test/images/redT.png'></img>	stop	2500.0	1.0	16.0	stop	non-target	T	71,Green Button	89,Yellow Button	250.0	250.0	2500.0	2500.0	0.0	250.0	0.0	1.0	ITI
304628.0	500	n/a	-1	-1	500	0.0	fixation	poldrack-single-stim	326	873870	0.0-13.17-0.17	beast_fmri_test	306	14.562316666666666	t	<div class = centerbox><div class = fixation>+</div></div>	none	500.0	test	n/a	n/a	n/a	n/a	n/a	n/a	n/a	n/a	n/a	n/a	n/a	n/a	n/a	n/a	n/a	n/a	n/a	n/a	fixation
304470.42214901967	300.0	n/a	434	89	2750	159.57785098	stim	stop-signal	327	876622	0.0-13.17-1.17	beast_fmri_test	306	14.573616666666666,14.58495,14.596266666666667,14.607616666666667	t,t,t,t	<img class = center src='/static/experiments/beast_fmri_test/images/B.png'></img>	71,89	2750.0	test	<img class = center src='/static/experiments/beast_fmri_test/images/redB.png'></img>	stop	2450.0	1.0	17.0	stop	non-target	B	71,Green Button	89,Yellow Button	250.0	300.0	2500.0	2450.0	0.0	300.0	1.0	0.0	go_stim
306920.42214901967	2450.0	n/a	434	89	2750	159.57785098	stim	stop-signal	327	876622	0.0-13.17-1.17	beast_fmri_test	306	14.573616666666666,14.58495,14.596266666666667,14.607616666666667	t,t,t,t	<img class = center src='/static/experiments/beast_fmri_test/images/B.png'></img>	71,89	2750.0	test	<img class = center src='/static/experiments/beast_fmri_test/images/redB.png'></img>	stop	2450.0	1.0	17.0	stop	non-target	B	71,Green Button	89,Yellow Button	250.0	300.0	2500.0	2450.0	0.0	300.0	1.0	0.0	stop_stim
307220.42214901967	159.57785098033762	n/a	434	89	2750	159.57785098	stim	stop-signal	327	876622	0.0-13.17-1.17	beast_fmri_test	306	14.573616666666666,14.58495,14.596266666666667,14.607616666666667	t,t,t,t	<img class = center src='/static/experiments/beast_fmri_test/images/B.png'></img>	71,89	2750.0	test	<img class = center src='/static/experiments/beast_fmri_test/images/redB.png'></img>	stop	2450.0	1.0	17.0	stop	non-target	B	71,Green Button	89,Yellow Button	250.0	300.0	2500.0	2450.0	0.0	300.0	1.0	0.0	ITI
