onset	duration	text	rt	key_press	block_duration	timing_post_trial	trial_id	trial_type	trial_index	time_elapsed	internal_node_id	exp_id	subject_id	trigger_times	triggers	stimulus	possible_responses	stim_duration	exp_stage	SS_stimulus	SS_trial_type	SS_duration	load	trial_num	stop_trial_type	adaptive_trial_type	stim	yes_response_key	no_response_key	SSD_target	SSD_non_target	SSTarget	SSNonTarget	go_acc	SS_delay	adaptive_acc	stop_acc	new_trial_type
test	10880.0	n/a	-1	-1	10880	0.0	practice-no-stop-feedback	poldrack-single-stim	6	37791	0.0-6.0	beast_fmri_test	301	26910,/,27589,/,28269,/,28949,/,29629,/,30309,/,30989,/,31669,/,32349,/,33029,/,33709,/,34389,/,35069,/,35749,/,36429,/,37110,/,37790,/	t,t,t,t,t,t,t,t,t,t,t,t,t,t,t,t,t	"<div class = ""centerbox""><p class = ""center-block-text"">Your delay is 2 trials.</p><p class = center-block-text>Please wait for the scanner to start the block</p></div>"	77	10880.0	n/a	n/a	n/a	n/a	n/a	n/a	n/a	n/a	n/a	n/a	n/a	n/a	n/a	n/a	n/a	n/a	n/a	n/a	n/a	start_functional_block
11383	500.0	n/a	-1	-1	500	0.0	fixation	poldrack-single-stim	7	38293	0.0-7.0-0.0	beast_fmri_test	301	n/a	n/a	<div class = centerbox><div class = fixation>+</div></div>	none	500.0	test	n/a	n/a	n/a	n/a	n/a	n/a	n/a	n/a	n/a	n/a	n/a	n/a	n/a	n/a	n/a	n/a	n/a	n/a	fixation
10981.389344637071	2750.0	n/a	1497	89	2750	405.610655363	stim	stop-signal	8	41047	0.0-7.0-1.0	beast_fmri_test	301	38470,/,39150,/,39830,/,40510,/,41190,/	t,t,t,t,t	<img class = center src='/static/experiments/beast_fmri_test/images/P.png'></img>	89,71	2750.0	test	<img class = center src='/static/experiments/beast_fmri_test/images/redP.png'></img>	go	-1.0	2.0	0.0	go	temp-non-target	P	89,Yellow Button	71,Green Button	500.0	500.0	0.0	0.0	0.0	n/a	n/a	n/a	go_stim
13731.389344637071	405.610655363	n/a	1497	89	2750	405.610655363	stim	stop-signal	8	41047	0.0-7.0-1.0	beast_fmri_test	301	38470,/,39150,/,39830,/,40510,/,41190,/	t,t,t,t,t	<img class = center src='/static/experiments/beast_fmri_test/images/P.png'></img>	89,71	2750.0	test	<img class = center src='/static/experiments/beast_fmri_test/images/redP.png'></img>	go	-1.0	2.0	0.0	go	temp-non-target	P	89,Yellow Button	71,Green Button	500.0	500.0	0.0	0.0	0.0	n/a	n/a	n/a	ITI
15049	500.0	n/a	-1	-1	500	0.0	fixation	poldrack-single-stim	9	41959	0.0-7.1-0.1	beast_fmri_test	301	41870,/	t	<div class = centerbox><div class = fixation>+</div></div>	none	500.0	test	n/a	n/a	n/a	n/a	n/a	n/a	n/a	n/a	n/a	n/a	n/a	n/a	n/a	n/a	n/a	n/a	n/a	n/a	fixation
14455.874513508701	2750.0	n/a	827	89	2750	595.125486491	stim	stop-signal	10	44711	0.0-7.1-1.1	beast_fmri_test	301	42550,/,43230,/,43910,/,44590,/,45270,/	t,t,t,t,t	<img class = center src='/static/experiments/beast_fmri_test/images/B.png'></img>	89,71	2750.0	test	<img class = center src='/static/experiments/beast_fmri_test/images/redB.png'></img>	go	-1.0	2.0	1.0	go	temp-non-target	B	89,Yellow Button	71,Green Button	500.0	500.0	0.0	0.0	0.0	n/a	n/a	n/a	go_stim
17205.874513508701	595.125486491	n/a	827	89	2750	595.125486491	stim	stop-signal	10	44711	0.0-7.1-1.1	beast_fmri_test	301	42550,/,43230,/,43910,/,44590,/,45270,/	t,t,t,t,t	<img class = center src='/static/experiments/beast_fmri_test/images/B.png'></img>	89,71	2750.0	test	<img class = center src='/static/experiments/beast_fmri_test/images/redB.png'></img>	go	-1.0	2.0	1.0	go	temp-non-target	B	89,Yellow Button	71,Green Button	500.0	500.0	0.0	0.0	0.0	n/a	n/a	n/a	ITI
18899	500.0	n/a	-1	-1	500	0.0	fixation	poldrack-single-stim	11	45809	0.0-7.2-0.2	beast_fmri_test	301	n/a	n/a	<div class = centerbox><div class = fixation>+</div></div>	none	500.0	test	n/a	n/a	n/a	n/a	n/a	n/a	n/a	n/a	n/a	n/a	n/a	n/a	n/a	n/a	n/a	n/a	n/a	n/a	fixation
18191.175731503754	2750.0	n/a	827	71	2750	709.824268496	stim	stop-signal	12	48561	0.0-7.2-1.2	beast_fmri_test	301	45950,/,46630,/,47310,/,47990,/,48670,/	t,t,t,t,t	<img class = center src='/static/experiments/beast_fmri_test/images/P.png'></img>	89,71	2750.0	test	<img class = center src='/static/experiments/beast_fmri_test/images/redP.png'></img>	go	2250.0	2.0	2.0	go	target	P	89,Yellow Button	71,Green Button	500.0	500.0	2250.0	0.0	0.0	500.0	0.0	n/a	go_stim
20941.175731503754	709.824268496	n/a	827	71	2750	709.824268496	stim	stop-signal	12	48561	0.0-7.2-1.2	beast_fmri_test	301	45950,/,46630,/,47310,/,47990,/,48670,/	t,t,t,t,t	<img class = center src='/static/experiments/beast_fmri_test/images/P.png'></img>	89,71	2750.0	test	<img class = center src='/static/experiments/beast_fmri_test/images/redP.png'></img>	go	2250.0	2.0	2.0	go	target	P	89,Yellow Button	71,Green Button	500.0	500.0	2250.0	0.0	0.0	500.0	0.0	n/a	ITI
22864	500.0	n/a	-1	-1	500	0.0	fixation	poldrack-single-stim	13	49774	0.0-7.3-0.3	beast_fmri_test	301	49350,/	t	<div class = centerbox><div class = fixation>+</div></div>	none	500.0	test	n/a	n/a	n/a	n/a	n/a	n/a	n/a	n/a	n/a	n/a	n/a	n/a	n/a	n/a	n/a	n/a	n/a	n/a	fixation
22559.304863230711	500.0	n/a	659	89	2750	307.695136769	stim	stop-signal	14	52527	0.0-7.3-1.3	beast_fmri_test	301	50030,/,50710,/,51390,/,52069,/,52749,/	t,t,t,t,t	<img class = center src='/static/experiments/beast_fmri_test/images/V.png'></img>	89,71	2750.0	test	<img class = center src='/static/experiments/beast_fmri_test/images/redV.png'></img>	stop	2250.0	2.0	3.0	stop	non-target	V	89,Yellow Button	71,Green Button	500.0	500.0	2250.0	2250.0	0.0	500.0	0.0	0.0	go_stim
24809.304863230711	2250.0	n/a	659	89	2750	307.695136769	stim	stop-signal	14	52527	0.0-7.3-1.3	beast_fmri_test	301	50030,/,50710,/,51390,/,52069,/,52749,/	t,t,t,t,t	<img class = center src='/static/experiments/beast_fmri_test/images/V.png'></img>	89,71	2750.0	test	<img class = center src='/static/experiments/beast_fmri_test/images/redV.png'></img>	stop	2250.0	2.0	3.0	stop	non-target	V	89,Yellow Button	71,Green Button	500.0	500.0	2250.0	2250.0	0.0	500.0	0.0	0.0	stop_stim
25309.304863230711	307.695136769	n/a	659	89	2750	307.695136769	stim	stop-signal	14	52527	0.0-7.3-1.3	beast_fmri_test	301	50030,/,50710,/,51390,/,52069,/,52749,/	t,t,t,t,t	<img class = center src='/static/experiments/beast_fmri_test/images/V.png'></img>	89,71	2750.0	test	<img class = center src='/static/experiments/beast_fmri_test/images/redV.png'></img>	stop	2250.0	2.0	3.0	stop	non-target	V	89,Yellow Button	71,Green Button	500.0	500.0	2250.0	2250.0	0.0	500.0	0.0	0.0	ITI
26428	500.0	n/a	-1	-1	500	0.0	fixation	poldrack-single-stim	15	53338	0.0-7.4-0.4	beast_fmri_test	301	n/a	n/a	<div class = centerbox><div class = fixation>+</div></div>	none	500.0	test	n/a	n/a	n/a	n/a	n/a	n/a	n/a	n/a	n/a	n/a	n/a	n/a	n/a	n/a	n/a	n/a	n/a	n/a	fixation
25985.522343489618	2750.0	n/a	1316	71	2750	444.47765651	stim	stop-signal	16	56090	0.0-7.4-1.4	beast_fmri_test	301	53430,/,54109,/,54790,/,55469,/,56150,/	t,t,t,t,t	<img class = center src='/static/experiments/beast_fmri_test/images/P.png'></img>	89,71	2750.0	test	<img class = center src='/static/experiments/beast_fmri_test/images/redP.png'></img>	go	2250.0	2.0	4.0	go	target	P	89,Yellow Button	71,Green Button	500.0	450.0	2250.0	2250.0	0.0	500.0	0.0	n/a	go_stim
28735.522343489618	444.47765651	n/a	1316	71	2750	444.47765651	stim	stop-signal	16	56090	0.0-7.4-1.4	beast_fmri_test	301	53430,/,54109,/,54790,/,55469,/,56150,/	t,t,t,t,t	<img class = center src='/static/experiments/beast_fmri_test/images/P.png'></img>	89,71	2750.0	test	<img class = center src='/static/experiments/beast_fmri_test/images/redP.png'></img>	go	2250.0	2.0	4.0	go	target	P	89,Yellow Button	71,Green Button	500.0	450.0	2250.0	2250.0	0.0	500.0	0.0	n/a	ITI
30129	500.0	n/a	-1	-1	500	0.0	fixation	poldrack-single-stim	17	57039	0.0-7.5-0.5	beast_fmri_test	301	56829,/	t	<div class = centerbox><div class = fixation>+</div></div>	none	500.0	test	n/a	n/a	n/a	n/a	n/a	n/a	n/a	n/a	n/a	n/a	n/a	n/a	n/a	n/a	n/a	n/a	n/a	n/a	fixation
27684.111952883402	2750.0	n/a	841	89	2750	2446.88804712	stim	stop-signal	18	59791	0.0-7.5-1.5	beast_fmri_test	301	57511,/,58189,/,58870,/,59550,/,60230,/,60909,/,61589,/	t,t,t,t,t,t,t	<img class = center src='/static/experiments/beast_fmri_test/images/D.png'></img>	89,71	2750.0	test	<img class = center src='/static/experiments/beast_fmri_test/images/redD.png'></img>	go	2300.0	2.0	5.0	go	non-target	D	89,Yellow Button	71,Green Button	500.0	450.0	2250.0	2300.0	0.0	450.0	0.0	n/a	go_stim
30434.111952883402	2446.88804712	n/a	841	89	2750	2446.88804712	stim	stop-signal	18	59791	0.0-7.5-1.5	beast_fmri_test	301	57511,/,58189,/,58870,/,59550,/,60230,/,60909,/,61589,/	t,t,t,t,t,t,t	<img class = center src='/static/experiments/beast_fmri_test/images/D.png'></img>	89,71	2750.0	test	<img class = center src='/static/experiments/beast_fmri_test/images/redD.png'></img>	go	2300.0	2.0	5.0	go	non-target	D	89,Yellow Button	71,Green Button	500.0	450.0	2250.0	2300.0	0.0	450.0	0.0	n/a	ITI
35832	500.0	n/a	-1	-1	500	0.0	fixation	poldrack-single-stim	19	62742	0.0-7.6-0.6	beast_fmri_test	301	62270,/	t	<div class = centerbox><div class = fixation>+</div></div>	none	500.0	test	n/a	n/a	n/a	n/a	n/a	n/a	n/a	n/a	n/a	n/a	n/a	n/a	n/a	n/a	n/a	n/a	n/a	n/a	fixation
32608.01378565043	500.0	n/a	-1	-1	2750	3225.98621435	stim	stop-signal	20	65494	0.0-7.6-1.6	beast_fmri_test	301	62949,/,63629,/,64310,/,64989,/,65669,/,66349,/,67030,/,67710,/,68389,/	t,t,t,t,t,t,t,t,t	<img class = center src='/static/experiments/beast_fmri_test/images/P.png'></img>	89,71	2750.0	test	<img class = center src='/static/experiments/beast_fmri_test/images/redP.png'></img>	stop	2250.0	2.0	6.0	stop	target	P	89,Yellow Button	71,Green Button	500.0	450.0	2250.0	2300.0	0.0	500.0	0.0	1.0	go_stim
34858.01378565043	2250.0	n/a	-1	-1	2750	3225.98621435	stim	stop-signal	20	65494	0.0-7.6-1.6	beast_fmri_test	301	62949,/,63629,/,64310,/,64989,/,65669,/,66349,/,67030,/,67710,/,68389,/	t,t,t,t,t,t,t,t,t	<img class = center src='/static/experiments/beast_fmri_test/images/P.png'></img>	89,71	2750.0	test	<img class = center src='/static/experiments/beast_fmri_test/images/redP.png'></img>	stop	2250.0	2.0	6.0	stop	target	P	89,Yellow Button	71,Green Button	500.0	450.0	2250.0	2300.0	0.0	500.0	0.0	1.0	stop_stim
35358.01378565043	3225.98621435	n/a	-1	-1	2750	3225.98621435	stim	stop-signal	20	65494	0.0-7.6-1.6	beast_fmri_test	301	62949,/,63629,/,64310,/,64989,/,65669,/,66349,/,67030,/,67710,/,68389,/	t,t,t,t,t,t,t,t,t	<img class = center src='/static/experiments/beast_fmri_test/images/P.png'></img>	89,71	2750.0	test	<img class = center src='/static/experiments/beast_fmri_test/images/redP.png'></img>	stop	2250.0	2.0	6.0	stop	target	P	89,Yellow Button	71,Green Button	500.0	450.0	2250.0	2300.0	0.0	500.0	0.0	1.0	ITI
42314	500.0	n/a	-1	-1	500	0.0	fixation	poldrack-single-stim	21	69224	0.0-7.7-0.7	beast_fmri_test	301	69070,/	t	<div class = centerbox><div class = fixation>+</div></div>	none	500.0	test	n/a	n/a	n/a	n/a	n/a	n/a	n/a	n/a	n/a	n/a	n/a	n/a	n/a	n/a	n/a	n/a	n/a	n/a	fixation
42148.359826930842	2750.0	n/a	1257	89	2750	167.640173069	stim	stop-signal	22	71976	0.0-7.7-1.7	beast_fmri_test	301	69750,/,70429,/,71110,/,71790,/	t,t,t,t	<img class = center src='/static/experiments/beast_fmri_test/images/B.png'></img>	89,71	2750.0	test	<img class = center src='/static/experiments/beast_fmri_test/images/redB.png'></img>	go	2300.0	2.0	7.0	go	non-target	B	89,Yellow Button	71,Green Button	550.0	450.0	2250.0	2300.0	0.0	450.0	0.0	n/a	go_stim
44898.359826930842	167.640173069	n/a	1257	89	2750	167.640173069	stim	stop-signal	22	71976	0.0-7.7-1.7	beast_fmri_test	301	69750,/,70429,/,71110,/,71790,/	t,t,t,t	<img class = center src='/static/experiments/beast_fmri_test/images/B.png'></img>	89,71	2750.0	test	<img class = center src='/static/experiments/beast_fmri_test/images/redB.png'></img>	go	2300.0	2.0	7.0	go	non-target	B	89,Yellow Button	71,Green Button	550.0	450.0	2250.0	2300.0	0.0	450.0	0.0	n/a	ITI
45736	500.0	n/a	-1	-1	500	0.0	fixation	poldrack-single-stim	23	72646	0.0-7.8-0.8	beast_fmri_test	301	72470,/	t	<div class = centerbox><div class = fixation>+</div></div>	none	500.0	test	n/a	n/a	n/a	n/a	n/a	n/a	n/a	n/a	n/a	n/a	n/a	n/a	n/a	n/a	n/a	n/a	n/a	n/a	fixation
44254.687262868334	2750.0	n/a	1665	89	2750	1484.31273713	stim	stop-signal	24	75399	0.0-7.8-1.8	beast_fmri_test	301	73150,/,73830,/,74510,/,75191,/,75870,/,76550,/	t,t,t,t,t,t	<img class = center src='/static/experiments/beast_fmri_test/images/B.png'></img>	89,71	2750.0	test	<img class = center src='/static/experiments/beast_fmri_test/images/redB.png'></img>	go	2300.0	2.0	8.0	go	non-target	B	89,Yellow Button	71,Green Button	550.0	450.0	2250.0	2300.0	0.0	450.0	0.0	n/a	go_stim
47004.687262868334	1484.31273713	n/a	1665	89	2750	1484.31273713	stim	stop-signal	24	75399	0.0-7.8-1.8	beast_fmri_test	301	73150,/,73830,/,74510,/,75191,/,75870,/,76550,/	t,t,t,t,t,t	<img class = center src='/static/experiments/beast_fmri_test/images/B.png'></img>	89,71	2750.0	test	<img class = center src='/static/experiments/beast_fmri_test/images/redB.png'></img>	go	2300.0	2.0	8.0	go	non-target	B	89,Yellow Button	71,Green Button	550.0	450.0	2250.0	2300.0	0.0	450.0	0.0	n/a	ITI
50478	500.0	n/a	-1	-1	500	0.0	fixation	poldrack-single-stim	25	77388	0.0-7.9-0.9	beast_fmri_test	301	77230,/	t	<div class = centerbox><div class = fixation>+</div></div>	none	500.0	test	n/a	n/a	n/a	n/a	n/a	n/a	n/a	n/a	n/a	n/a	n/a	n/a	n/a	n/a	n/a	n/a	n/a	n/a	fixation
49211.185918640927	2750.0	n/a	1332	89	2750	1268.81408136	stim	stop-signal	26	80140	0.0-7.9-1.9	beast_fmri_test	301	77911,/,78590,/,79270,/,79950,/,80630,/,81310,/	t,t,t,t,t,t	<img class = center src='/static/experiments/beast_fmri_test/images/T.png'></img>	89,71	2750.0	test	<img class = center src='/static/experiments/beast_fmri_test/images/redT.png'></img>	go	2300.0	2.0	9.0	go	non-target	T	89,Yellow Button	71,Green Button	550.0	450.0	2250.0	2300.0	0.0	450.0	0.0	n/a	go_stim
51961.185918640927	1268.81408136	n/a	1332	89	2750	1268.81408136	stim	stop-signal	26	80140	0.0-7.9-1.9	beast_fmri_test	301	77911,/,78590,/,79270,/,79950,/,80630,/,81310,/	t,t,t,t,t,t	<img class = center src='/static/experiments/beast_fmri_test/images/T.png'></img>	89,71	2750.0	test	<img class = center src='/static/experiments/beast_fmri_test/images/redT.png'></img>	go	2300.0	2.0	9.0	go	non-target	T	89,Yellow Button	71,Green Button	550.0	450.0	2250.0	2300.0	0.0	450.0	0.0	n/a	ITI
55003	500.0	n/a	-1	-1	500	0.0	fixation	poldrack-single-stim	27	81913	0.0-7.10-0.10	beast_fmri_test	301	n/a	n/a	<div class = centerbox><div class = fixation>+</div></div>	none	500.0	test	n/a	n/a	n/a	n/a	n/a	n/a	n/a	n/a	n/a	n/a	n/a	n/a	n/a	n/a	n/a	n/a	n/a	n/a	fixation
54039.438599979505	450.0	n/a	-1	-1	2750	965.56140002	stim	stop-signal	28	84665	0.0-7.10-1.10	beast_fmri_test	301	81990,/,82670,/,83350,/,84030,/,84710,/,85390,/	t,t,t,t,t,t	<img class = center src='/static/experiments/beast_fmri_test/images/T.png'></img>	89,71	2750.0	test	<img class = center src='/static/experiments/beast_fmri_test/images/redT.png'></img>	stop	2300.0	2.0	10.0	stop	non-target	T	89,Yellow Button	71,Green Button	550.0	450.0	2250.0	2300.0	0.0	450.0	0.0	1.0	go_stim
56339.438599979505	2300.0	n/a	-1	-1	2750	965.56140002	stim	stop-signal	28	84665	0.0-7.10-1.10	beast_fmri_test	301	81990,/,82670,/,83350,/,84030,/,84710,/,85390,/	t,t,t,t,t,t	<img class = center src='/static/experiments/beast_fmri_test/images/T.png'></img>	89,71	2750.0	test	<img class = center src='/static/experiments/beast_fmri_test/images/redT.png'></img>	stop	2300.0	2.0	10.0	stop	non-target	T	89,Yellow Button	71,Green Button	550.0	450.0	2250.0	2300.0	0.0	450.0	0.0	1.0	stop_stim
56789.438599979505	965.56140002	n/a	-1	-1	2750	965.56140002	stim	stop-signal	28	84665	0.0-7.10-1.10	beast_fmri_test	301	81990,/,82670,/,83350,/,84030,/,84710,/,85390,/	t,t,t,t,t,t	<img class = center src='/static/experiments/beast_fmri_test/images/T.png'></img>	89,71	2750.0	test	<img class = center src='/static/experiments/beast_fmri_test/images/redT.png'></img>	stop	2300.0	2.0	10.0	stop	non-target	T	89,Yellow Button	71,Green Button	550.0	450.0	2250.0	2300.0	0.0	450.0	0.0	1.0	ITI
59224	500.0	n/a	-1	-1	500	0.0	fixation	poldrack-single-stim	29	86134	0.0-7.11-0.11	beast_fmri_test	301	86070,/	t	<div class = centerbox><div class = fixation>+</div></div>	none	500.0	test	n/a	n/a	n/a	n/a	n/a	n/a	n/a	n/a	n/a	n/a	n/a	n/a	n/a	n/a	n/a	n/a	n/a	n/a	fixation
55782.757812765194	2750.0	n/a	466	71	2750	3443.24218723	stim	stop-signal	30	88886	0.0-7.11-1.11	beast_fmri_test	301	86750,/,87430,/,88110,/,88790,/,89470,/,90150,/,90830,/,91510,/,92190,/	t,t,t,t,t,t,t,t,t	<img class = center src='/static/experiments/beast_fmri_test/images/T.png'></img>	89,71	2750.0	test	<img class = center src='/static/experiments/beast_fmri_test/images/redT.png'></img>	go	2200.0	2.0	11.0	go	target	T	89,Yellow Button	71,Green Button	550.0	500.0	2200.0	2300.0	0.0	550.0	0.0	n/a	go_stim
58532.757812765194	3443.24218723	n/a	466	71	2750	3443.24218723	stim	stop-signal	30	88886	0.0-7.11-1.11	beast_fmri_test	301	86750,/,87430,/,88110,/,88790,/,89470,/,90150,/,90830,/,91510,/,92190,/	t,t,t,t,t,t,t,t,t	<img class = center src='/static/experiments/beast_fmri_test/images/T.png'></img>	89,71	2750.0	test	<img class = center src='/static/experiments/beast_fmri_test/images/redT.png'></img>	go	2200.0	2.0	11.0	go	target	T	89,Yellow Button	71,Green Button	550.0	500.0	2200.0	2300.0	0.0	550.0	0.0	n/a	ITI
65925	500.0	n/a	-1	-1	500	0.0	fixation	poldrack-single-stim	31	92835	0.0-7.12-0.12	beast_fmri_test	301	n/a	n/a	<div class = centerbox><div class = fixation>+</div></div>	none	500.0	test	n/a	n/a	n/a	n/a	n/a	n/a	n/a	n/a	n/a	n/a	n/a	n/a	n/a	n/a	n/a	n/a	n/a	n/a	fixation
65593.564622901642	2750.0	n/a	1034	89	2750	333.435377098	stim	stop-signal	32	95587	0.0-7.12-1.12	beast_fmri_test	301	92870,/,93550,/,94230,/,94910,/,95590,/	t,t,t,t,t	<img class = center src='/static/experiments/beast_fmri_test/images/B.png'></img>	89,71	2750.0	test	<img class = center src='/static/experiments/beast_fmri_test/images/redB.png'></img>	go	2250.0	2.0	12.0	go	non-target	B	89,Yellow Button	71,Green Button	550.0	500.0	2200.0	2250.0	0.0	500.0	0.0	n/a	go_stim
68343.564622901642	333.435377098	n/a	1034	89	2750	333.435377098	stim	stop-signal	32	95587	0.0-7.12-1.12	beast_fmri_test	301	92870,/,93550,/,94230,/,94910,/,95590,/	t,t,t,t,t	<img class = center src='/static/experiments/beast_fmri_test/images/B.png'></img>	89,71	2750.0	test	<img class = center src='/static/experiments/beast_fmri_test/images/redB.png'></img>	go	2250.0	2.0	12.0	go	non-target	B	89,Yellow Button	71,Green Button	550.0	500.0	2200.0	2250.0	0.0	500.0	0.0	n/a	ITI
69514	500.0	n/a	-1	-1	500	0.0	fixation	poldrack-single-stim	33	96424	0.0-7.13-0.13	beast_fmri_test	301	96270,/	t	<div class = centerbox><div class = fixation>+</div></div>	none	500.0	test	n/a	n/a	n/a	n/a	n/a	n/a	n/a	n/a	n/a	n/a	n/a	n/a	n/a	n/a	n/a	n/a	n/a	n/a	fixation
69138.216802244729	2750.0	n/a	2347	89	2750	378.783197755	stim	stop-signal	34	99177	0.0-7.13-1.13	beast_fmri_test	301	96950,/,97630,/,98311,/,98990,/	t,t,t,t	<img class = center src='/static/experiments/beast_fmri_test/images/P.png'></img>	89,71	2750.0	test	<img class = center src='/static/experiments/beast_fmri_test/images/redP.png'></img>	go	2250.0	2.0	13.0	go	non-target	P	89,Yellow Button	71,Green Button	550.0	500.0	2200.0	2250.0	0.0	500.0	0.0	n/a	go_stim
71888.216802244729	378.783197755	n/a	2347	89	2750	378.783197755	stim	stop-signal	34	99177	0.0-7.13-1.13	beast_fmri_test	301	96950,/,97630,/,98311,/,98990,/	t,t,t,t	<img class = center src='/static/experiments/beast_fmri_test/images/P.png'></img>	89,71	2750.0	test	<img class = center src='/static/experiments/beast_fmri_test/images/redP.png'></img>	go	2250.0	2.0	13.0	go	non-target	P	89,Yellow Button	71,Green Button	550.0	500.0	2200.0	2250.0	0.0	500.0	0.0	n/a	ITI
73149	500.0	n/a	-1	-1	500	0.0	fixation	poldrack-single-stim	35	100059	0.0-7.14-0.14	beast_fmri_test	301	99670,/	t	<div class = centerbox><div class = fixation>+</div></div>	none	500.0	test	n/a	n/a	n/a	n/a	n/a	n/a	n/a	n/a	n/a	n/a	n/a	n/a	n/a	n/a	n/a	n/a	n/a	n/a	fixation
72762.760208123858	2750.0	n/a	998	71	2750	388.239791876	stim	stop-signal	36	102811	0.0-7.14-1.14	beast_fmri_test	301	100350,/,101030,/,101709,/,102390,/,103070,/	t,t,t,t,t	<img class = center src='/static/experiments/beast_fmri_test/images/B.png'></img>	89,71	2750.0	test	<img class = center src='/static/experiments/beast_fmri_test/images/redB.png'></img>	go	2200.0	2.0	14.0	go	target	B	89,Yellow Button	71,Green Button	550.0	500.0	2200.0	2250.0	0.0	550.0	0.0	n/a	go_stim
75512.760208123858	388.239791876	n/a	998	71	2750	388.239791876	stim	stop-signal	36	102811	0.0-7.14-1.14	beast_fmri_test	301	100350,/,101030,/,101709,/,102390,/,103070,/	t,t,t,t,t	<img class = center src='/static/experiments/beast_fmri_test/images/B.png'></img>	89,71	2750.0	test	<img class = center src='/static/experiments/beast_fmri_test/images/redB.png'></img>	go	2200.0	2.0	14.0	go	target	B	89,Yellow Button	71,Green Button	550.0	500.0	2200.0	2250.0	0.0	550.0	0.0	n/a	ITI
76795	500.0	n/a	-1	-1	500	0.0	fixation	poldrack-single-stim	37	103705	0.0-7.15-0.15	beast_fmri_test	301	n/a	n/a	<div class = centerbox><div class = fixation>+</div></div>	none	500.0	test	n/a	n/a	n/a	n/a	n/a	n/a	n/a	n/a	n/a	n/a	n/a	n/a	n/a	n/a	n/a	n/a	n/a	n/a	fixation
74910.66126098868	2750.0	n/a	1230	89	2750	1887.33873901	stim	stop-signal	38	106458	0.0-7.15-1.15	beast_fmri_test	301	103750,/,104430,/,105111,/,105791,/,106471,/,107151,/,107831,/	t,t,t,t,t,t,t	<img class = center src='/static/experiments/beast_fmri_test/images/V.png'></img>	89,71	2750.0	test	<img class = center src='/static/experiments/beast_fmri_test/images/redV.png'></img>	go	2250.0	2.0	15.0	go	non-target	V	89,Yellow Button	71,Green Button	550.0	500.0	2200.0	2250.0	0.0	500.0	0.0	n/a	go_stim
77660.66126098868	1887.33873901	n/a	1230	89	2750	1887.33873901	stim	stop-signal	38	106458	0.0-7.15-1.15	beast_fmri_test	301	103750,/,104430,/,105111,/,105791,/,106471,/,107151,/,107831,/	t,t,t,t,t,t,t	<img class = center src='/static/experiments/beast_fmri_test/images/V.png'></img>	89,71	2750.0	test	<img class = center src='/static/experiments/beast_fmri_test/images/redV.png'></img>	go	2250.0	2.0	15.0	go	non-target	V	89,Yellow Button	71,Green Button	550.0	500.0	2200.0	2250.0	0.0	500.0	0.0	n/a	ITI
81941	500.0	n/a	-1	-1	500	0.0	fixation	poldrack-single-stim	39	108851	0.0-7.16-0.16	beast_fmri_test	301	108512,/	t	<div class = centerbox><div class = fixation>+</div></div>	none	500.0	test	n/a	n/a	n/a	n/a	n/a	n/a	n/a	n/a	n/a	n/a	n/a	n/a	n/a	n/a	n/a	n/a	n/a	n/a	fixation
81514.012588479673	500.0	n/a	-1	-1	2750	428.98741152	stim	stop-signal	40	111603	0.0-7.16-1.16	beast_fmri_test	301	109191,/,109871,/,110550,/,111231,/,111910,/	t,t,t,t,t	<img class = center src='/static/experiments/beast_fmri_test/images/T.png'></img>	89,71	2750.0	test	<img class = center src='/static/experiments/beast_fmri_test/images/redT.png'></img>	stop	2250.0	2.0	16.0	stop	non-target	T	89,Yellow Button	71,Green Button	550.0	500.0	2200.0	2250.0	0.0	500.0	0.0	1.0	go_stim
83764.012588479673	2250.0	n/a	-1	-1	2750	428.98741152	stim	stop-signal	40	111603	0.0-7.16-1.16	beast_fmri_test	301	109191,/,109871,/,110550,/,111231,/,111910,/	t,t,t,t,t	<img class = center src='/static/experiments/beast_fmri_test/images/T.png'></img>	89,71	2750.0	test	<img class = center src='/static/experiments/beast_fmri_test/images/redT.png'></img>	stop	2250.0	2.0	16.0	stop	non-target	T	89,Yellow Button	71,Green Button	550.0	500.0	2200.0	2250.0	0.0	500.0	0.0	1.0	stop_stim
84264.012588479673	428.98741152	n/a	-1	-1	2750	428.98741152	stim	stop-signal	40	111603	0.0-7.16-1.16	beast_fmri_test	301	109191,/,109871,/,110550,/,111231,/,111910,/	t,t,t,t,t	<img class = center src='/static/experiments/beast_fmri_test/images/T.png'></img>	89,71	2750.0	test	<img class = center src='/static/experiments/beast_fmri_test/images/redT.png'></img>	stop	2250.0	2.0	16.0	stop	non-target	T	89,Yellow Button	71,Green Button	550.0	500.0	2200.0	2250.0	0.0	500.0	0.0	1.0	ITI
85626	500.0	n/a	-1	-1	500	0.0	fixation	poldrack-single-stim	41	112536	0.0-7.17-0.17	beast_fmri_test	301	n/a	n/a	<div class = centerbox><div class = fixation>+</div></div>	none	500.0	test	n/a	n/a	n/a	n/a	n/a	n/a	n/a	n/a	n/a	n/a	n/a	n/a	n/a	n/a	n/a	n/a	n/a	n/a	fixation
84590.918868717345	550.0	n/a	-1	-1	2750	1037.08113128	stim	stop-signal	42	115288	0.0-7.17-1.17	beast_fmri_test	301	112591,/,113270,/,113950,/,114630,/,115310,/,115990,/	t,t,t,t,t,t	<img class = center src='/static/experiments/beast_fmri_test/images/V.png'></img>	89,71	2750.0	test	<img class = center src='/static/experiments/beast_fmri_test/images/redV.png'></img>	stop	2200.0	2.0	17.0	stop	target	V	89,Yellow Button	71,Green Button	550.0	550.0	2200.0	2250.0	0.0	550.0	0.0	1.0	go_stim
86790.918868717345	2200.0	n/a	-1	-1	2750	1037.08113128	stim	stop-signal	42	115288	0.0-7.17-1.17	beast_fmri_test	301	112591,/,113270,/,113950,/,114630,/,115310,/,115990,/	t,t,t,t,t,t	<img class = center src='/static/experiments/beast_fmri_test/images/V.png'></img>	89,71	2750.0	test	<img class = center src='/static/experiments/beast_fmri_test/images/redV.png'></img>	stop	2200.0	2.0	17.0	stop	target	V	89,Yellow Button	71,Green Button	550.0	550.0	2200.0	2250.0	0.0	550.0	0.0	1.0	stop_stim
87340.918868717345	1037.08113128	n/a	-1	-1	2750	1037.08113128	stim	stop-signal	42	115288	0.0-7.17-1.17	beast_fmri_test	301	112591,/,113270,/,113950,/,114630,/,115310,/,115990,/	t,t,t,t,t,t	<img class = center src='/static/experiments/beast_fmri_test/images/V.png'></img>	89,71	2750.0	test	<img class = center src='/static/experiments/beast_fmri_test/images/redV.png'></img>	stop	2200.0	2.0	17.0	stop	target	V	89,Yellow Button	71,Green Button	550.0	550.0	2200.0	2250.0	0.0	550.0	0.0	1.0	ITI
89920	500.0	n/a	-1	-1	500	0.0	fixation	poldrack-single-stim	43	116830	0.0-7.18-0.18	beast_fmri_test	301	116671,/	t	<div class = centerbox><div class = fixation>+</div></div>	none	500.0	test	n/a	n/a	n/a	n/a	n/a	n/a	n/a	n/a	n/a	n/a	n/a	n/a	n/a	n/a	n/a	n/a	n/a	n/a	fixation
86422.049124992089	550.0	n/a	-1	-1	2750	3500.95087501	stim	stop-signal	44	119583	0.0-7.18-1.18	beast_fmri_test	301	117350,/,118031,/,118711,/,119391,/,120070,/,120750,/,121430,/,122110,/,122790,/	t,t,t,t,t,t,t,t,t	<img class = center src='/static/experiments/beast_fmri_test/images/V.png'></img>	89,71	2750.0	test	<img class = center src='/static/experiments/beast_fmri_test/images/redV.png'></img>	stop	2200.0	2.0	18.0	stop	non-target	V	89,Yellow Button	71,Green Button	600.0	550.0	2200.0	2200.0	0.0	550.0	0.0	1.0	go_stim
88622.049124992089	2200.0	n/a	-1	-1	2750	3500.95087501	stim	stop-signal	44	119583	0.0-7.18-1.18	beast_fmri_test	301	117350,/,118031,/,118711,/,119391,/,120070,/,120750,/,121430,/,122110,/,122790,/	t,t,t,t,t,t,t,t,t	<img class = center src='/static/experiments/beast_fmri_test/images/V.png'></img>	89,71	2750.0	test	<img class = center src='/static/experiments/beast_fmri_test/images/redV.png'></img>	stop	2200.0	2.0	18.0	stop	non-target	V	89,Yellow Button	71,Green Button	600.0	550.0	2200.0	2200.0	0.0	550.0	0.0	1.0	stop_stim
89172.049124992089	3500.95087501	n/a	-1	-1	2750	3500.95087501	stim	stop-signal	44	119583	0.0-7.18-1.18	beast_fmri_test	301	117350,/,118031,/,118711,/,119391,/,120070,/,120750,/,121430,/,122110,/,122790,/	t,t,t,t,t,t,t,t,t	<img class = center src='/static/experiments/beast_fmri_test/images/V.png'></img>	89,71	2750.0	test	<img class = center src='/static/experiments/beast_fmri_test/images/redV.png'></img>	stop	2200.0	2.0	18.0	stop	non-target	V	89,Yellow Button	71,Green Button	600.0	550.0	2200.0	2200.0	0.0	550.0	0.0	1.0	ITI
96678	500.0	n/a	-1	-1	500	0.0	fixation	poldrack-single-stim	45	123588	0.0-7.19-0.19	beast_fmri_test	301	123471,/	t	<div class = centerbox><div class = fixation>+</div></div>	none	500.0	test	n/a	n/a	n/a	n/a	n/a	n/a	n/a	n/a	n/a	n/a	n/a	n/a	n/a	n/a	n/a	n/a	n/a	n/a	fixation
96500.216501888019	2750.0	n/a	405	71	2750	179.783498112	stim	stop-signal	46	126340	0.0-7.19-1.19	beast_fmri_test	301	124150,/,124830,/,125510,/,126190,/	t,t,t,t	<img class = center src='/static/experiments/beast_fmri_test/images/V.png'></img>	89,71	2750.0	test	<img class = center src='/static/experiments/beast_fmri_test/images/redV.png'></img>	go	2150.0	2.0	19.0	go	target	V	89,Yellow Button	71,Green Button	600.0	600.0	2150.0	2200.0	0.0	600.0	0.0	n/a	go_stim
99250.216501888019	179.783498112	n/a	405	71	2750	179.783498112	stim	stop-signal	46	126340	0.0-7.19-1.19	beast_fmri_test	301	124150,/,124830,/,125510,/,126190,/	t,t,t,t	<img class = center src='/static/experiments/beast_fmri_test/images/V.png'></img>	89,71	2750.0	test	<img class = center src='/static/experiments/beast_fmri_test/images/redV.png'></img>	go	2150.0	2.0	19.0	go	target	V	89,Yellow Button	71,Green Button	600.0	600.0	2150.0	2200.0	0.0	600.0	0.0	n/a	ITI
100117	500.0	n/a	-1	-1	500	0.0	fixation	poldrack-single-stim	47	127027	0.0-7.20-0.20	beast_fmri_test	301	126870,/	t	<div class = centerbox><div class = fixation>+</div></div>	none	500.0	test	n/a	n/a	n/a	n/a	n/a	n/a	n/a	n/a	n/a	n/a	n/a	n/a	n/a	n/a	n/a	n/a	n/a	n/a	fixation
98588.947395686628	600.0	n/a	-1	-1	2750	1530.05260431	stim	stop-signal	48	129779	0.0-7.20-1.20	beast_fmri_test	301	127551,/,128230,/,128911,/,129590,/,130270,/,130950,/	t,t,t,t,t,t	<img class = center src='/static/experiments/beast_fmri_test/images/P.png'></img>	89,71	2750.0	test	<img class = center src='/static/experiments/beast_fmri_test/images/redP.png'></img>	stop	2150.0	2.0	20.0	stop	non-target	P	89,Yellow Button	71,Green Button	600.0	600.0	2150.0	2150.0	0.0	600.0	0.0	1.0	go_stim
100738.94739568663	2150.0	n/a	-1	-1	2750	1530.05260431	stim	stop-signal	48	129779	0.0-7.20-1.20	beast_fmri_test	301	127551,/,128230,/,128911,/,129590,/,130270,/,130950,/	t,t,t,t,t,t	<img class = center src='/static/experiments/beast_fmri_test/images/P.png'></img>	89,71	2750.0	test	<img class = center src='/static/experiments/beast_fmri_test/images/redP.png'></img>	stop	2150.0	2.0	20.0	stop	non-target	P	89,Yellow Button	71,Green Button	600.0	600.0	2150.0	2150.0	0.0	600.0	0.0	1.0	stop_stim
101338.94739568663	1530.05260431	n/a	-1	-1	2750	1530.05260431	stim	stop-signal	48	129779	0.0-7.20-1.20	beast_fmri_test	301	127551,/,128230,/,128911,/,129590,/,130270,/,130950,/	t,t,t,t,t,t	<img class = center src='/static/experiments/beast_fmri_test/images/P.png'></img>	89,71	2750.0	test	<img class = center src='/static/experiments/beast_fmri_test/images/redP.png'></img>	stop	2150.0	2.0	20.0	stop	non-target	P	89,Yellow Button	71,Green Button	600.0	600.0	2150.0	2150.0	0.0	600.0	0.0	1.0	ITI
104904	500.0	n/a	-1	-1	500	0.0	fixation	poldrack-single-stim	49	131814	0.0-7.21-0.21	beast_fmri_test	301	131630,/	t	<div class = centerbox><div class = fixation>+</div></div>	none	500.0	test	n/a	n/a	n/a	n/a	n/a	n/a	n/a	n/a	n/a	n/a	n/a	n/a	n/a	n/a	n/a	n/a	n/a	n/a	fixation
103977.29328183446	2750.0	n/a	1594	89	2750	928.706718166	stim	stop-signal	50	134566	0.0-7.21-1.21	beast_fmri_test	301	132310,/,132990,/,133670,/,134350,/,135030,/	t,t,t,t,t	<img class = center src='/static/experiments/beast_fmri_test/images/T.png'></img>	89,71	2750.0	test	<img class = center src='/static/experiments/beast_fmri_test/images/redT.png'></img>	go	2100.0	2.0	21.0	go	non-target	T	89,Yellow Button	71,Green Button	600.0	650.0	2150.0	2100.0	0.0	650.0	0.0	n/a	go_stim
106727.29328183446	928.706718166	n/a	1594	89	2750	928.706718166	stim	stop-signal	50	134566	0.0-7.21-1.21	beast_fmri_test	301	132310,/,132990,/,133670,/,134350,/,135030,/	t,t,t,t,t	<img class = center src='/static/experiments/beast_fmri_test/images/T.png'></img>	89,71	2750.0	test	<img class = center src='/static/experiments/beast_fmri_test/images/redT.png'></img>	go	2100.0	2.0	21.0	go	non-target	T	89,Yellow Button	71,Green Button	600.0	650.0	2150.0	2100.0	0.0	650.0	0.0	n/a	ITI
109090	500.0	n/a	-1	-1	500	0.0	fixation	poldrack-single-stim	51	136000	0.0-7.22-0.22	beast_fmri_test	301	135710,/	t	<div class = centerbox><div class = fixation>+</div></div>	none	500.0	test	n/a	n/a	n/a	n/a	n/a	n/a	n/a	n/a	n/a	n/a	n/a	n/a	n/a	n/a	n/a	n/a	n/a	n/a	fixation
108605.34448843263	2750.0	n/a	861	71	2750	486.655511567	stim	stop-signal	52	138752	0.0-7.22-1.22	beast_fmri_test	301	136390,/,137070,/,137750,/,138431,/,139112,/	t,t,t,t,t	<img class = center src='/static/experiments/beast_fmri_test/images/P.png'></img>	89,71	2750.0	test	<img class = center src='/static/experiments/beast_fmri_test/images/redP.png'></img>	go	2150.0	2.0	22.0	go	target	P	89,Yellow Button	71,Green Button	600.0	650.0	2150.0	2100.0	0.0	600.0	0.0	n/a	go_stim
111355.34448843263	486.655511567	n/a	861	71	2750	486.655511567	stim	stop-signal	52	138752	0.0-7.22-1.22	beast_fmri_test	301	136390,/,137070,/,137750,/,138431,/,139112,/	t,t,t,t,t	<img class = center src='/static/experiments/beast_fmri_test/images/P.png'></img>	89,71	2750.0	test	<img class = center src='/static/experiments/beast_fmri_test/images/redP.png'></img>	go	2150.0	2.0	22.0	go	target	P	89,Yellow Button	71,Green Button	600.0	650.0	2150.0	2100.0	0.0	600.0	0.0	n/a	ITI
112834	500.0	n/a	-1	-1	500	0.0	fixation	poldrack-single-stim	53	139744	0.0-7.23-0.23	beast_fmri_test	301	n/a	n/a	<div class = centerbox><div class = fixation>+</div></div>	none	500.0	test	n/a	n/a	n/a	n/a	n/a	n/a	n/a	n/a	n/a	n/a	n/a	n/a	n/a	n/a	n/a	n/a	n/a	n/a	fixation
111921.29579341569	2750.0	n/a	1586	89	2750	914.704206584	stim	stop-signal	54	142496	0.0-7.23-1.23	beast_fmri_test	301	139791,/,140471,/,141151,/,141831,/,142511,/,143191,/	t,t,t,t,t,t	<img class = center src='/static/experiments/beast_fmri_test/images/V.png'></img>	89,71	2750.0	test	<img class = center src='/static/experiments/beast_fmri_test/images/redV.png'></img>	go	2100.0	2.0	23.0	go	non-target	V	89,Yellow Button	71,Green Button	600.0	650.0	2150.0	2100.0	0.0	650.0	0.0	n/a	go_stim
114671.29579341569	914.704206584	n/a	1586	89	2750	914.704206584	stim	stop-signal	54	142496	0.0-7.23-1.23	beast_fmri_test	301	139791,/,140471,/,141151,/,141831,/,142511,/,143191,/	t,t,t,t,t,t	<img class = center src='/static/experiments/beast_fmri_test/images/V.png'></img>	89,71	2750.0	test	<img class = center src='/static/experiments/beast_fmri_test/images/redV.png'></img>	go	2100.0	2.0	23.0	go	non-target	V	89,Yellow Button	71,Green Button	600.0	650.0	2150.0	2100.0	0.0	650.0	0.0	n/a	ITI
117006	500.0	n/a	-1	-1	500	0.0	fixation	poldrack-single-stim	55	143916	0.0-7.24-0.24	beast_fmri_test	301	143871,/	t	<div class = centerbox><div class = fixation>+</div></div>	none	500.0	test	n/a	n/a	n/a	n/a	n/a	n/a	n/a	n/a	n/a	n/a	n/a	n/a	n/a	n/a	n/a	n/a	n/a	n/a	fixation
116301.1028541901	2750.0	n/a	2194	89	2750	707.89714581	stim	stop-signal	56	146669	0.0-7.24-1.24	beast_fmri_test	301	144551,/,145231,/,145911,/,146591,/,147271,/	t,t,t,t,t	<img class = center src='/static/experiments/beast_fmri_test/images/D.png'></img>	89,71	2750.0	test	<img class = center src='/static/experiments/beast_fmri_test/images/redD.png'></img>	go	2100.0	2.0	24.0	go	non-target	D	89,Yellow Button	71,Green Button	600.0	650.0	2150.0	2100.0	0.0	650.0	0.0	n/a	go_stim
119051.1028541901	707.89714581	n/a	2194	89	2750	707.89714581	stim	stop-signal	56	146669	0.0-7.24-1.24	beast_fmri_test	301	144551,/,145231,/,145911,/,146591,/,147271,/	t,t,t,t,t	<img class = center src='/static/experiments/beast_fmri_test/images/D.png'></img>	89,71	2750.0	test	<img class = center src='/static/experiments/beast_fmri_test/images/redD.png'></img>	go	2100.0	2.0	24.0	go	non-target	D	89,Yellow Button	71,Green Button	600.0	650.0	2150.0	2100.0	0.0	650.0	0.0	n/a	ITI
120973	500.0	n/a	-1	-1	500	0.0	fixation	poldrack-single-stim	57	147883	0.0-7.25-0.25	beast_fmri_test	301	n/a	n/a	<div class = centerbox><div class = fixation>+</div></div>	none	500.0	test	n/a	n/a	n/a	n/a	n/a	n/a	n/a	n/a	n/a	n/a	n/a	n/a	n/a	n/a	n/a	n/a	n/a	n/a	fixation
119956.1370087167	2750.0	n/a	678	71	2750	1018.86299128	stim	stop-signal	58	150635	0.0-7.25-1.25	beast_fmri_test	301	147951,/,148631,/,149312,/,149991,/,150671,/,151351,/	t,t,t,t,t,t	<img class = center src='/static/experiments/beast_fmri_test/images/V.png'></img>	89,71	2750.0	test	<img class = center src='/static/experiments/beast_fmri_test/images/redV.png'></img>	go	2150.0	2.0	25.0	go	target	V	89,Yellow Button	71,Green Button	600.0	650.0	2150.0	2100.0	0.0	600.0	0.0	n/a	go_stim
122706.1370087167	1018.86299128	n/a	678	71	2750	1018.86299128	stim	stop-signal	58	150635	0.0-7.25-1.25	beast_fmri_test	301	147951,/,148631,/,149312,/,149991,/,150671,/,151351,/	t,t,t,t,t,t	<img class = center src='/static/experiments/beast_fmri_test/images/V.png'></img>	89,71	2750.0	test	<img class = center src='/static/experiments/beast_fmri_test/images/redV.png'></img>	go	2150.0	2.0	25.0	go	target	V	89,Yellow Button	71,Green Button	600.0	650.0	2150.0	2100.0	0.0	600.0	0.0	n/a	ITI
125249	500.0	n/a	-1	-1	500	0.0	fixation	poldrack-single-stim	59	152159	0.0-7.26-0.26	beast_fmri_test	301	152031,/	t	<div class = centerbox><div class = fixation>+</div></div>	none	500.0	test	n/a	n/a	n/a	n/a	n/a	n/a	n/a	n/a	n/a	n/a	n/a	n/a	n/a	n/a	n/a	n/a	n/a	n/a	fixation
125112.01470544602	2750.0	n/a	1076	89	2750	138.985294554	stim	stop-signal	60	154911	0.0-7.26-1.26	beast_fmri_test	301	152711,/,153391,/,154071,/,154751,/	t,t,t,t	<img class = center src='/static/experiments/beast_fmri_test/images/P.png'></img>	89,71	2750.0	test	<img class = center src='/static/experiments/beast_fmri_test/images/redP.png'></img>	go	2100.0	2.0	26.0	go	non-target	P	89,Yellow Button	71,Green Button	600.0	650.0	2150.0	2100.0	0.0	650.0	0.0	n/a	go_stim
127862.01470544602	138.985294554	n/a	1076	89	2750	138.985294554	stim	stop-signal	60	154911	0.0-7.26-1.26	beast_fmri_test	301	152711,/,153391,/,154071,/,154751,/	t,t,t,t	<img class = center src='/static/experiments/beast_fmri_test/images/P.png'></img>	89,71	2750.0	test	<img class = center src='/static/experiments/beast_fmri_test/images/redP.png'></img>	go	2100.0	2.0	26.0	go	non-target	P	89,Yellow Button	71,Green Button	600.0	650.0	2150.0	2100.0	0.0	650.0	0.0	n/a	ITI
128645	500.0	n/a	-1	-1	500	0.0	fixation	poldrack-single-stim	61	155555	0.0-7.27-0.27	beast_fmri_test	301	155431,/	t	<div class = centerbox><div class = fixation>+</div></div>	none	500.0	test	n/a	n/a	n/a	n/a	n/a	n/a	n/a	n/a	n/a	n/a	n/a	n/a	n/a	n/a	n/a	n/a	n/a	n/a	fixation
128285.71060488463	600.0	n/a	-1	-1	2750	361.289395115	stim	stop-signal	62	158307	0.0-7.27-1.27	beast_fmri_test	301	156111,/,156791,/,157471,/,158151,/	t,t,t,t	<img class = center src='/static/experiments/beast_fmri_test/images/V.png'></img>	89,71	2750.0	test	<img class = center src='/static/experiments/beast_fmri_test/images/redV.png'></img>	stop	2150.0	2.0	27.0	stop	target	V	89,Yellow Button	71,Green Button	600.0	650.0	2150.0	2100.0	0.0	600.0	0.0	1.0	go_stim
130435.71060488463	2150.0	n/a	-1	-1	2750	361.289395115	stim	stop-signal	62	158307	0.0-7.27-1.27	beast_fmri_test	301	156111,/,156791,/,157471,/,158151,/	t,t,t,t	<img class = center src='/static/experiments/beast_fmri_test/images/V.png'></img>	89,71	2750.0	test	<img class = center src='/static/experiments/beast_fmri_test/images/redV.png'></img>	stop	2150.0	2.0	27.0	stop	target	V	89,Yellow Button	71,Green Button	600.0	650.0	2150.0	2100.0	0.0	600.0	0.0	1.0	stop_stim
131035.71060488463	361.289395115	n/a	-1	-1	2750	361.289395115	stim	stop-signal	62	158307	0.0-7.27-1.27	beast_fmri_test	301	156111,/,156791,/,157471,/,158151,/	t,t,t,t	<img class = center src='/static/experiments/beast_fmri_test/images/V.png'></img>	89,71	2750.0	test	<img class = center src='/static/experiments/beast_fmri_test/images/redV.png'></img>	stop	2150.0	2.0	27.0	stop	target	V	89,Yellow Button	71,Green Button	600.0	650.0	2150.0	2100.0	0.0	600.0	0.0	1.0	ITI
132265	500.0	n/a	-1	-1	500	0.0	fixation	poldrack-single-stim	63	159175	0.0-7.28-0.28	beast_fmri_test	301	158831,/	t	<div class = centerbox><div class = fixation>+</div></div>	none	500.0	test	n/a	n/a	n/a	n/a	n/a	n/a	n/a	n/a	n/a	n/a	n/a	n/a	n/a	n/a	n/a	n/a	n/a	n/a	fixation
132260.4114874879	2750.0	n/a	545	71	2750	6.5885125121	stim	stop-signal	64	161927	0.0-7.28-1.28	beast_fmri_test	301	159511,/,160191,/,160871,/,161551,/	t,t,t,t	<img class = center src='/static/experiments/beast_fmri_test/images/P.png'></img>	89,71	2750.0	test	<img class = center src='/static/experiments/beast_fmri_test/images/redP.png'></img>	go	2100.0	2.0	28.0	go	target	P	89,Yellow Button	71,Green Button	650.0	650.0	2100.0	2100.0	0.0	650.0	0.0	n/a	go_stim
135010.4114874879	6.5885125121	n/a	545	71	2750	6.5885125121	stim	stop-signal	64	161927	0.0-7.28-1.28	beast_fmri_test	301	159511,/,160191,/,160871,/,161551,/	t,t,t,t	<img class = center src='/static/experiments/beast_fmri_test/images/P.png'></img>	89,71	2750.0	test	<img class = center src='/static/experiments/beast_fmri_test/images/redP.png'></img>	go	2100.0	2.0	28.0	go	target	P	89,Yellow Button	71,Green Button	650.0	650.0	2100.0	2100.0	0.0	650.0	0.0	n/a	ITI
135527	500.0	n/a	-1	-1	500	0.0	fixation	poldrack-single-stim	65	162437	0.0-7.29-0.29	beast_fmri_test	301	162231,/	t	<div class = centerbox><div class = fixation>+</div></div>	none	500.0	test	n/a	n/a	n/a	n/a	n/a	n/a	n/a	n/a	n/a	n/a	n/a	n/a	n/a	n/a	n/a	n/a	n/a	n/a	fixation
135413.70897581402	2750.0	n/a	1738	89	2750	115.291024186	stim	stop-signal	66	165189	0.0-7.29-1.29	beast_fmri_test	301	162911,/,163591,/,164271,/,164950,/	t,t,t,t	<img class = center src='/static/experiments/beast_fmri_test/images/V.png'></img>	89,71	2750.0	test	<img class = center src='/static/experiments/beast_fmri_test/images/redV.png'></img>	go	2100.0	2.0	29.0	go	target	V	89,Yellow Button	71,Green Button	650.0	650.0	2100.0	2100.0	1.0	650.0	1.0	n/a	go_stim
138163.70897581402	115.291024186	n/a	1738	89	2750	115.291024186	stim	stop-signal	66	165189	0.0-7.29-1.29	beast_fmri_test	301	162911,/,163591,/,164271,/,164950,/	t,t,t,t	<img class = center src='/static/experiments/beast_fmri_test/images/V.png'></img>	89,71	2750.0	test	<img class = center src='/static/experiments/beast_fmri_test/images/redV.png'></img>	go	2100.0	2.0	29.0	go	target	V	89,Yellow Button	71,Green Button	650.0	650.0	2100.0	2100.0	1.0	650.0	1.0	n/a	ITI
138901	500.0	n/a	-1	-1	500	0.0	fixation	poldrack-single-stim	67	165811	0.0-7.30-0.30	beast_fmri_test	301	165631,/	t	<div class = centerbox><div class = fixation>+</div></div>	none	500.0	test	n/a	n/a	n/a	n/a	n/a	n/a	n/a	n/a	n/a	n/a	n/a	n/a	n/a	n/a	n/a	n/a	n/a	n/a	fixation
138695.71777182209	2750.0	n/a	2265	89	2750	207.282228178	stim	stop-signal	68	168563	0.0-7.30-1.30	beast_fmri_test	301	166310,/,166991,/,167670,/,168351,/	t,t,t,t	<img class = center src='/static/experiments/beast_fmri_test/images/T.png'></img>	89,71	2750.0	test	<img class = center src='/static/experiments/beast_fmri_test/images/redT.png'></img>	go	2100.0	2.0	30.0	go	non-target	T	89,Yellow Button	71,Green Button	650.0	650.0	2100.0	2100.0	0.0	650.0	0.0	n/a	go_stim
141445.71777182209	207.282228178	n/a	2265	89	2750	207.282228178	stim	stop-signal	68	168563	0.0-7.30-1.30	beast_fmri_test	301	166310,/,166991,/,167670,/,168351,/	t,t,t,t	<img class = center src='/static/experiments/beast_fmri_test/images/T.png'></img>	89,71	2750.0	test	<img class = center src='/static/experiments/beast_fmri_test/images/redT.png'></img>	go	2100.0	2.0	30.0	go	non-target	T	89,Yellow Button	71,Green Button	650.0	650.0	2100.0	2100.0	0.0	650.0	0.0	n/a	ITI
142367	500.0	n/a	-1	-1	500	0.0	fixation	poldrack-single-stim	69	169277	0.0-7.31-0.31	beast_fmri_test	301	169031,/	t	<div class = centerbox><div class = fixation>+</div></div>	none	500.0	test	n/a	n/a	n/a	n/a	n/a	n/a	n/a	n/a	n/a	n/a	n/a	n/a	n/a	n/a	n/a	n/a	n/a	n/a	fixation
138639.46485234334	2750.0	n/a	1132	89	2750	3729.53514766	stim	stop-signal	70	172029	0.0-7.31-1.31	beast_fmri_test	301	169712,/,170390,/,171070,/,171751,/,172432,/,173112,/,173791,/,174471,/,175152,/	t,t,t,t,t,t,t,t,t	<img class = center src='/static/experiments/beast_fmri_test/images/B.png'></img>	89,71	2750.0	test	<img class = center src='/static/experiments/beast_fmri_test/images/redB.png'></img>	go	2100.0	2.0	31.0	go	non-target	B	89,Yellow Button	71,Green Button	650.0	650.0	2100.0	2100.0	0.0	650.0	0.0	n/a	go_stim
141389.46485234334	3729.53514766	n/a	1132	89	2750	3729.53514766	stim	stop-signal	70	172029	0.0-7.31-1.31	beast_fmri_test	301	169712,/,170390,/,171070,/,171751,/,172432,/,173112,/,173791,/,174471,/,175152,/	t,t,t,t,t,t,t,t,t	<img class = center src='/static/experiments/beast_fmri_test/images/B.png'></img>	89,71	2750.0	test	<img class = center src='/static/experiments/beast_fmri_test/images/redB.png'></img>	go	2100.0	2.0	31.0	go	non-target	B	89,Yellow Button	71,Green Button	650.0	650.0	2100.0	2100.0	0.0	650.0	0.0	n/a	ITI
149355	500.0	n/a	-1	-1	500	0.0	fixation	poldrack-single-stim	71	176265	0.0-7.32-0.32	beast_fmri_test	301	175831,/	t	<div class = centerbox><div class = fixation>+</div></div>	none	500.0	test	n/a	n/a	n/a	n/a	n/a	n/a	n/a	n/a	n/a	n/a	n/a	n/a	n/a	n/a	n/a	n/a	n/a	n/a	fixation
145102.79159439309	2750.0	n/a	1969	89	2750	4254.20840561	stim	stop-signal	72	179017	0.0-7.32-1.32	beast_fmri_test	301	176511,/,177192,/,177872,/,178551,/,179231,/,179912,/,180591,/,181271,/,181951,/,182632,/	t,t,t,t,t,t,t,t,t,t	<img class = center src='/static/experiments/beast_fmri_test/images/P.png'></img>	89,71	2750.0	test	<img class = center src='/static/experiments/beast_fmri_test/images/redP.png'></img>	go	2100.0	2.0	32.0	go	non-target	P	89,Yellow Button	71,Green Button	650.0	650.0	2100.0	2100.0	0.0	650.0	0.0	n/a	go_stim
147852.79159439309	4254.20840561	n/a	1969	89	2750	4254.20840561	stim	stop-signal	72	179017	0.0-7.32-1.32	beast_fmri_test	301	176511,/,177192,/,177872,/,178551,/,179231,/,179912,/,180591,/,181271,/,181951,/,182632,/	t,t,t,t,t,t,t,t,t,t	<img class = center src='/static/experiments/beast_fmri_test/images/P.png'></img>	89,71	2750.0	test	<img class = center src='/static/experiments/beast_fmri_test/images/redP.png'></img>	go	2100.0	2.0	32.0	go	non-target	P	89,Yellow Button	71,Green Button	650.0	650.0	2100.0	2100.0	0.0	650.0	0.0	n/a	ITI
156868	500.0	n/a	-1	-1	500	0.0	fixation	poldrack-single-stim	73	183778	0.0-7.33-0.33	beast_fmri_test	301	183312,/	t	<div class = centerbox><div class = fixation>+</div></div>	none	500.0	test	n/a	n/a	n/a	n/a	n/a	n/a	n/a	n/a	n/a	n/a	n/a	n/a	n/a	n/a	n/a	n/a	n/a	n/a	fixation
151871.0	650.0	n/a	-1	-1	2750	5000.0	stim	stop-signal	74	186531	0.0-7.33-1.33	beast_fmri_test	301	183991,/,184672,/,185351,/,186032,/,186712,/,187391,/,188071,/,188751,/,189431,/,190112,/,190791,/,191471,/	t,t,t,t,t,t,t,t,t,t,t,t	<img class = center src='/static/experiments/beast_fmri_test/images/P.png'></img>	89,71	2750.0	test	<img class = center src='/static/experiments/beast_fmri_test/images/redP.png'></img>	stop	2100.0	2.0	33.0	stop	non-target	P	89,Yellow Button	71,Green Button	650.0	650.0	2100.0	2100.0	0.0	650.0	0.0	1.0	go_stim
153971.0	2100.0	n/a	-1	-1	2750	5000.0	stim	stop-signal	74	186531	0.0-7.33-1.33	beast_fmri_test	301	183991,/,184672,/,185351,/,186032,/,186712,/,187391,/,188071,/,188751,/,189431,/,190112,/,190791,/,191471,/	t,t,t,t,t,t,t,t,t,t,t,t	<img class = center src='/static/experiments/beast_fmri_test/images/P.png'></img>	89,71	2750.0	test	<img class = center src='/static/experiments/beast_fmri_test/images/redP.png'></img>	stop	2100.0	2.0	33.0	stop	non-target	P	89,Yellow Button	71,Green Button	650.0	650.0	2100.0	2100.0	0.0	650.0	0.0	1.0	stop_stim
154621.0	5000.0	n/a	-1	-1	2750	5000.0	stim	stop-signal	74	186531	0.0-7.33-1.33	beast_fmri_test	301	183991,/,184672,/,185351,/,186032,/,186712,/,187391,/,188071,/,188751,/,189431,/,190112,/,190791,/,191471,/	t,t,t,t,t,t,t,t,t,t,t,t	<img class = center src='/static/experiments/beast_fmri_test/images/P.png'></img>	89,71	2750.0	test	<img class = center src='/static/experiments/beast_fmri_test/images/redP.png'></img>	stop	2100.0	2.0	33.0	stop	non-target	P	89,Yellow Button	71,Green Button	650.0	650.0	2100.0	2100.0	0.0	650.0	0.0	1.0	ITI
165127	500.0	n/a	-1	-1	500	0.0	fixation	poldrack-single-stim	75	192037	0.0-7.34-0.34	beast_fmri_test	301	n/a	n/a	<div class = centerbox><div class = fixation>+</div></div>	none	500.0	test	n/a	n/a	n/a	n/a	n/a	n/a	n/a	n/a	n/a	n/a	n/a	n/a	n/a	n/a	n/a	n/a	n/a	n/a	fixation
164562.66802877301	650.0	n/a	-1	-1	2750	566.331971227	stim	stop-signal	76	194789	0.0-7.34-1.34	beast_fmri_test	301	192151,/,192831,/,193511,/,194191,/,194871,/	t,t,t,t,t	<img class = center src='/static/experiments/beast_fmri_test/images/P.png'></img>	89,71	2750.0	test	<img class = center src='/static/experiments/beast_fmri_test/images/redP.png'></img>	stop	2100.0	2.0	34.0	stop	target	P	89,Yellow Button	71,Green Button	650.0	700.0	2100.0	2100.0	0.0	650.0	0.0	1.0	go_stim
166662.66802877301	2100.0	n/a	-1	-1	2750	566.331971227	stim	stop-signal	76	194789	0.0-7.34-1.34	beast_fmri_test	301	192151,/,192831,/,193511,/,194191,/,194871,/	t,t,t,t,t	<img class = center src='/static/experiments/beast_fmri_test/images/P.png'></img>	89,71	2750.0	test	<img class = center src='/static/experiments/beast_fmri_test/images/redP.png'></img>	stop	2100.0	2.0	34.0	stop	target	P	89,Yellow Button	71,Green Button	650.0	700.0	2100.0	2100.0	0.0	650.0	0.0	1.0	stop_stim
167312.66802877301	566.331971227	n/a	-1	-1	2750	566.331971227	stim	stop-signal	76	194789	0.0-7.34-1.34	beast_fmri_test	301	192151,/,192831,/,193511,/,194191,/,194871,/	t,t,t,t,t	<img class = center src='/static/experiments/beast_fmri_test/images/P.png'></img>	89,71	2750.0	test	<img class = center src='/static/experiments/beast_fmri_test/images/redP.png'></img>	stop	2100.0	2.0	34.0	stop	target	P	89,Yellow Button	71,Green Button	650.0	700.0	2100.0	2100.0	0.0	650.0	0.0	1.0	ITI
168951	500.0	n/a	-1	-1	500	0.0	fixation	poldrack-single-stim	77	195861	0.0-7.35-0.35	beast_fmri_test	301	195551,/	t	<div class = centerbox><div class = fixation>+</div></div>	none	500.0	test	n/a	n/a	n/a	n/a	n/a	n/a	n/a	n/a	n/a	n/a	n/a	n/a	n/a	n/a	n/a	n/a	n/a	n/a	fixation
168729.85297339063	700.0	n/a	-1	-1	2750	223.147026609	stim	stop-signal	78	198613	0.0-7.35-1.35	beast_fmri_test	301	196231,/,196911,/,197591,/,198271,/	t,t,t,t	<img class = center src='/static/experiments/beast_fmri_test/images/B.png'></img>	89,71	2750.0	test	<img class = center src='/static/experiments/beast_fmri_test/images/redB.png'></img>	stop	2050.0	2.0	35.0	stop	non-target	B	89,Yellow Button	71,Green Button	700.0	700.0	2100.0	2050.0	0.0	700.0	0.0	1.0	go_stim
170779.85297339063	2050.0	n/a	-1	-1	2750	223.147026609	stim	stop-signal	78	198613	0.0-7.35-1.35	beast_fmri_test	301	196231,/,196911,/,197591,/,198271,/	t,t,t,t	<img class = center src='/static/experiments/beast_fmri_test/images/B.png'></img>	89,71	2750.0	test	<img class = center src='/static/experiments/beast_fmri_test/images/redB.png'></img>	stop	2050.0	2.0	35.0	stop	non-target	B	89,Yellow Button	71,Green Button	700.0	700.0	2100.0	2050.0	0.0	700.0	0.0	1.0	stop_stim
171479.85297339063	223.147026609	n/a	-1	-1	2750	223.147026609	stim	stop-signal	78	198613	0.0-7.35-1.35	beast_fmri_test	301	196231,/,196911,/,197591,/,198271,/	t,t,t,t	<img class = center src='/static/experiments/beast_fmri_test/images/B.png'></img>	89,71	2750.0	test	<img class = center src='/static/experiments/beast_fmri_test/images/redB.png'></img>	stop	2050.0	2.0	35.0	stop	non-target	B	89,Yellow Button	71,Green Button	700.0	700.0	2100.0	2050.0	0.0	700.0	0.0	1.0	ITI
172434	500.0	n/a	-1	-1	500	0.0	fixation	poldrack-single-stim	79	199344	0.0-7.36-0.36	beast_fmri_test	301	198951,/	t	<div class = centerbox><div class = fixation>+</div></div>	none	500.0	test	n/a	n/a	n/a	n/a	n/a	n/a	n/a	n/a	n/a	n/a	n/a	n/a	n/a	n/a	n/a	n/a	n/a	n/a	fixation
170479.30656894937	2750.0	n/a	1458	89	2750	1956.69343105	stim	stop-signal	80	202096	0.0-7.36-1.36	beast_fmri_test	301	199631,/,200312,/,200991,/,201671,/,202351,/,203031,/,203711,/	t,t,t,t,t,t,t	<img class = center src='/static/experiments/beast_fmri_test/images/B.png'></img>	89,71	2750.0	test	<img class = center src='/static/experiments/beast_fmri_test/images/redB.png'></img>	go	2000.0	2.0	36.0	go	non-target	B	89,Yellow Button	71,Green Button	700.0	750.0	2100.0	2000.0	0.0	750.0	0.0	n/a	go_stim
173229.30656894937	1956.69343105	n/a	1458	89	2750	1956.69343105	stim	stop-signal	80	202096	0.0-7.36-1.36	beast_fmri_test	301	199631,/,200312,/,200991,/,201671,/,202351,/,203031,/,203711,/	t,t,t,t,t,t,t	<img class = center src='/static/experiments/beast_fmri_test/images/B.png'></img>	89,71	2750.0	test	<img class = center src='/static/experiments/beast_fmri_test/images/redB.png'></img>	go	2000.0	2.0	36.0	go	non-target	B	89,Yellow Button	71,Green Button	700.0	750.0	2100.0	2000.0	0.0	750.0	0.0	n/a	ITI
177648	500.0	n/a	-1	-1	500	0.0	fixation	poldrack-single-stim	81	204558	0.0-7.37-0.37	beast_fmri_test	301	204391,/	t	<div class = centerbox><div class = fixation>+</div></div>	none	500.0	test	n/a	n/a	n/a	n/a	n/a	n/a	n/a	n/a	n/a	n/a	n/a	n/a	n/a	n/a	n/a	n/a	n/a	n/a	fixation
175798.24035202872	750.0	n/a	1166	89	2750	1851.75964797	stim	stop-signal	82	207310	0.0-7.37-1.37	beast_fmri_test	301	205072,/,205752,/,206432,/,207112,/,207792,/,208472,/,209152,/	t,t,t,t,t,t,t	<img class = center src='/static/experiments/beast_fmri_test/images/V.png'></img>	89,71	2750.0	test	<img class = center src='/static/experiments/beast_fmri_test/images/redV.png'></img>	stop	2000.0	2.0	37.0	stop	non-target	V	89,Yellow Button	71,Green Button	700.0	750.0	2100.0	2000.0	0.0	750.0	0.0	0.0	go_stim
177798.24035202872	2000.0	n/a	1166	89	2750	1851.75964797	stim	stop-signal	82	207310	0.0-7.37-1.37	beast_fmri_test	301	205072,/,205752,/,206432,/,207112,/,207792,/,208472,/,209152,/	t,t,t,t,t,t,t	<img class = center src='/static/experiments/beast_fmri_test/images/V.png'></img>	89,71	2750.0	test	<img class = center src='/static/experiments/beast_fmri_test/images/redV.png'></img>	stop	2000.0	2.0	37.0	stop	non-target	V	89,Yellow Button	71,Green Button	700.0	750.0	2100.0	2000.0	0.0	750.0	0.0	0.0	stop_stim
178548.24035202872	1851.75964797	n/a	1166	89	2750	1851.75964797	stim	stop-signal	82	207310	0.0-7.37-1.37	beast_fmri_test	301	205072,/,205752,/,206432,/,207112,/,207792,/,208472,/,209152,/	t,t,t,t,t,t,t	<img class = center src='/static/experiments/beast_fmri_test/images/V.png'></img>	89,71	2750.0	test	<img class = center src='/static/experiments/beast_fmri_test/images/redV.png'></img>	stop	2000.0	2.0	37.0	stop	non-target	V	89,Yellow Button	71,Green Button	700.0	750.0	2100.0	2000.0	0.0	750.0	0.0	0.0	ITI
182757	500.0	n/a	-1	-1	500	0.0	fixation	poldrack-single-stim	83	209667	0.0-7.38-0.38	beast_fmri_test	301	n/a	n/a	<div class = centerbox><div class = fixation>+</div></div>	none	500.0	test	n/a	n/a	n/a	n/a	n/a	n/a	n/a	n/a	n/a	n/a	n/a	n/a	n/a	n/a	n/a	n/a	n/a	n/a	fixation
182409.36984146477	2750.0	n/a	956	89	2750	349.630158535	stim	stop-signal	84	212419	0.0-7.38-1.38	beast_fmri_test	301	209832,/,210512,/,211192,/,211872,/,212552,/	t,t,t,t,t	<img class = center src='/static/experiments/beast_fmri_test/images/T.png'></img>	89,71	2750.0	test	<img class = center src='/static/experiments/beast_fmri_test/images/redT.png'></img>	go	2050.0	2.0	38.0	go	non-target	T	89,Yellow Button	71,Green Button	700.0	700.0	2100.0	2050.0	0.0	700.0	0.0	n/a	go_stim
185159.36984146477	349.630158535	n/a	956	89	2750	349.630158535	stim	stop-signal	84	212419	0.0-7.38-1.38	beast_fmri_test	301	209832,/,210512,/,211192,/,211872,/,212552,/	t,t,t,t,t	<img class = center src='/static/experiments/beast_fmri_test/images/T.png'></img>	89,71	2750.0	test	<img class = center src='/static/experiments/beast_fmri_test/images/redT.png'></img>	go	2050.0	2.0	38.0	go	non-target	T	89,Yellow Button	71,Green Button	700.0	700.0	2100.0	2050.0	0.0	700.0	0.0	n/a	ITI
186364	500.0	n/a	-1	-1	500	0.0	fixation	poldrack-single-stim	85	213274	0.0-7.39-0.39	beast_fmri_test	301	213232,/	t	<div class = centerbox><div class = fixation>+</div></div>	none	500.0	test	n/a	n/a	n/a	n/a	n/a	n/a	n/a	n/a	n/a	n/a	n/a	n/a	n/a	n/a	n/a	n/a	n/a	n/a	fixation
186102.72345119077	700.0	n/a	-1	-1	2750	263.276548809	stim	stop-signal	86	216026	0.0-7.39-1.39	beast_fmri_test	301	213912,/,214592,/,215272,/,215952,/	t,t,t,t	<img class = center src='/static/experiments/beast_fmri_test/images/P.png'></img>	89,71	2750.0	test	<img class = center src='/static/experiments/beast_fmri_test/images/redP.png'></img>	stop	2050.0	2.0	39.0	stop	non-target	P	89,Yellow Button	71,Green Button	700.0	700.0	2100.0	2050.0	0.0	700.0	0.0	1.0	go_stim
188152.72345119077	2050.0	n/a	-1	-1	2750	263.276548809	stim	stop-signal	86	216026	0.0-7.39-1.39	beast_fmri_test	301	213912,/,214592,/,215272,/,215952,/	t,t,t,t	<img class = center src='/static/experiments/beast_fmri_test/images/P.png'></img>	89,71	2750.0	test	<img class = center src='/static/experiments/beast_fmri_test/images/redP.png'></img>	stop	2050.0	2.0	39.0	stop	non-target	P	89,Yellow Button	71,Green Button	700.0	700.0	2100.0	2050.0	0.0	700.0	0.0	1.0	stop_stim
188852.72345119077	263.276548809	n/a	-1	-1	2750	263.276548809	stim	stop-signal	86	216026	0.0-7.39-1.39	beast_fmri_test	301	213912,/,214592,/,215272,/,215952,/	t,t,t,t	<img class = center src='/static/experiments/beast_fmri_test/images/P.png'></img>	89,71	2750.0	test	<img class = center src='/static/experiments/beast_fmri_test/images/redP.png'></img>	stop	2050.0	2.0	39.0	stop	non-target	P	89,Yellow Button	71,Green Button	700.0	700.0	2100.0	2050.0	0.0	700.0	0.0	1.0	ITI
189888	500.0	n/a	-1	-1	500	0.0	fixation	poldrack-single-stim	87	216798	0.0-7.40-0.40	beast_fmri_test	301	216632,/	t	<div class = centerbox><div class = fixation>+</div></div>	none	500.0	test	n/a	n/a	n/a	n/a	n/a	n/a	n/a	n/a	n/a	n/a	n/a	n/a	n/a	n/a	n/a	n/a	n/a	n/a	fixation
189169.7744964349	2750.0	n/a	859	71	2750	721.225503565	stim	stop-signal	88	219551	0.0-7.40-1.40	beast_fmri_test	301	217312,/,217992,/,218672,/,219351,/,220032,/	t,t,t,t,t	<img class = center src='/static/experiments/beast_fmri_test/images/T.png'></img>	89,71	2750.0	test	<img class = center src='/static/experiments/beast_fmri_test/images/redT.png'></img>	go	2050.0	2.0	40.0	go	target	T	89,Yellow Button	71,Green Button	700.0	750.0	2050.0	2050.0	0.0	700.0	0.0	n/a	go_stim
191919.7744964349	721.225503565	n/a	859	71	2750	721.225503565	stim	stop-signal	88	219551	0.0-7.40-1.40	beast_fmri_test	301	217312,/,217992,/,218672,/,219351,/,220032,/	t,t,t,t,t	<img class = center src='/static/experiments/beast_fmri_test/images/T.png'></img>	89,71	2750.0	test	<img class = center src='/static/experiments/beast_fmri_test/images/redT.png'></img>	go	2050.0	2.0	40.0	go	target	T	89,Yellow Button	71,Green Button	700.0	750.0	2050.0	2050.0	0.0	700.0	0.0	n/a	ITI
193868	500.0	n/a	-1	-1	500	0.0	fixation	poldrack-single-stim	89	220778	0.0-7.41-0.41	beast_fmri_test	301	220713,/	t	<div class = centerbox><div class = fixation>+</div></div>	none	500.0	test	n/a	n/a	n/a	n/a	n/a	n/a	n/a	n/a	n/a	n/a	n/a	n/a	n/a	n/a	n/a	n/a	n/a	n/a	fixation
192253.19186195079	2750.0	n/a	1077	89	2750	1616.80813805	stim	stop-signal	90	223530	0.0-7.41-1.41	beast_fmri_test	301	221392,/,222071,/,222752,/,223431,/,224112,/,224791,/	t,t,t,t,t,t	<img class = center src='/static/experiments/beast_fmri_test/images/T.png'></img>	89,71	2750.0	test	<img class = center src='/static/experiments/beast_fmri_test/images/redT.png'></img>	go	2000.0	2.0	41.0	go	non-target	T	89,Yellow Button	71,Green Button	700.0	750.0	2050.0	2000.0	0.0	750.0	0.0	n/a	go_stim
195003.19186195079	1616.80813805	n/a	1077	89	2750	1616.80813805	stim	stop-signal	90	223530	0.0-7.41-1.41	beast_fmri_test	301	221392,/,222071,/,222752,/,223431,/,224112,/,224791,/	t,t,t,t,t,t	<img class = center src='/static/experiments/beast_fmri_test/images/T.png'></img>	89,71	2750.0	test	<img class = center src='/static/experiments/beast_fmri_test/images/redT.png'></img>	go	2000.0	2.0	41.0	go	non-target	T	89,Yellow Button	71,Green Button	700.0	750.0	2050.0	2000.0	0.0	750.0	0.0	n/a	ITI
198742	500.0	n/a	-1	-1	500	0.0	fixation	poldrack-single-stim	91	225652	0.0-7.42-0.42	beast_fmri_test	301	225472,/	t	<div class = centerbox><div class = fixation>+</div></div>	none	500.0	test	n/a	n/a	n/a	n/a	n/a	n/a	n/a	n/a	n/a	n/a	n/a	n/a	n/a	n/a	n/a	n/a	n/a	n/a	fixation
198741.64905706327	2750.0	n/a	1253	89	2750	3.35094293673	stim	stop-signal	92	228405	0.0-7.42-1.42	beast_fmri_test	301	226152,/,226832,/,227511,/,228192,/	t,t,t,t	<img class = center src='/static/experiments/beast_fmri_test/images/V.png'></img>	89,71	2750.0	test	<img class = center src='/static/experiments/beast_fmri_test/images/redV.png'></img>	go	2000.0	2.0	42.0	go	non-target	V	89,Yellow Button	71,Green Button	700.0	750.0	2050.0	2000.0	0.0	750.0	0.0	n/a	go_stim
201491.64905706327	3.35094293673	n/a	1253	89	2750	3.35094293673	stim	stop-signal	92	228405	0.0-7.42-1.42	beast_fmri_test	301	226152,/,226832,/,227511,/,228192,/	t,t,t,t	<img class = center src='/static/experiments/beast_fmri_test/images/V.png'></img>	89,71	2750.0	test	<img class = center src='/static/experiments/beast_fmri_test/images/redV.png'></img>	go	2000.0	2.0	42.0	go	non-target	V	89,Yellow Button	71,Green Button	700.0	750.0	2050.0	2000.0	0.0	750.0	0.0	n/a	ITI
202004	500.0	n/a	-1	-1	500	0.0	fixation	poldrack-single-stim	93	228914	0.0-7.43-0.43	beast_fmri_test	301	228871,/	t	<div class = centerbox><div class = fixation>+</div></div>	none	500.0	test	n/a	n/a	n/a	n/a	n/a	n/a	n/a	n/a	n/a	n/a	n/a	n/a	n/a	n/a	n/a	n/a	n/a	n/a	fixation
201829.40406373236	750.0	n/a	-1	-1	2750	176.595936268	stim	stop-signal	94	231666	0.0-7.43-1.43	beast_fmri_test	301	229552,/,230231,/,230912,/,231592,/	t,t,t,t	<img class = center src='/static/experiments/beast_fmri_test/images/P.png'></img>	89,71	2750.0	test	<img class = center src='/static/experiments/beast_fmri_test/images/redP.png'></img>	stop	2000.0	2.0	43.0	stop	non-target	P	89,Yellow Button	71,Green Button	700.0	750.0	2050.0	2000.0	0.0	750.0	0.0	1.0	go_stim
203829.40406373236	2000.0	n/a	-1	-1	2750	176.595936268	stim	stop-signal	94	231666	0.0-7.43-1.43	beast_fmri_test	301	229552,/,230231,/,230912,/,231592,/	t,t,t,t	<img class = center src='/static/experiments/beast_fmri_test/images/P.png'></img>	89,71	2750.0	test	<img class = center src='/static/experiments/beast_fmri_test/images/redP.png'></img>	stop	2000.0	2.0	43.0	stop	non-target	P	89,Yellow Button	71,Green Button	700.0	750.0	2050.0	2000.0	0.0	750.0	0.0	1.0	stop_stim
204579.40406373236	176.595936268	n/a	-1	-1	2750	176.595936268	stim	stop-signal	94	231666	0.0-7.43-1.43	beast_fmri_test	301	229552,/,230231,/,230912,/,231592,/	t,t,t,t	<img class = center src='/static/experiments/beast_fmri_test/images/P.png'></img>	89,71	2750.0	test	<img class = center src='/static/experiments/beast_fmri_test/images/redP.png'></img>	stop	2000.0	2.0	43.0	stop	non-target	P	89,Yellow Button	71,Green Button	700.0	750.0	2050.0	2000.0	0.0	750.0	0.0	1.0	ITI
205440	500.0	n/a	-1	-1	500	0.0	fixation	poldrack-single-stim	95	232350	0.0-7.44-0.44	beast_fmri_test	301	232272,/	t	<div class = centerbox><div class = fixation>+</div></div>	none	500.0	test	n/a	n/a	n/a	n/a	n/a	n/a	n/a	n/a	n/a	n/a	n/a	n/a	n/a	n/a	n/a	n/a	n/a	n/a	fixation
204885.8535787818	700.0	n/a	1026	71	2750	556.146421218	stim	stop-signal	96	235102	0.0-7.44-1.44	beast_fmri_test	301	232951,/,233631,/,234311,/,234991,/	t,t,t,t	<img class = center src='/static/experiments/beast_fmri_test/images/V.png'></img>	89,71	2750.0	test	<img class = center src='/static/experiments/beast_fmri_test/images/redV.png'></img>	stop	2050.0	2.0	44.0	stop	target	V	89,Yellow Button	71,Green Button	700.0	800.0	2050.0	2000.0	0.0	700.0	0.0	0.0	go_stim
206935.8535787818	2050.0	n/a	1026	71	2750	556.146421218	stim	stop-signal	96	235102	0.0-7.44-1.44	beast_fmri_test	301	232951,/,233631,/,234311,/,234991,/	t,t,t,t	<img class = center src='/static/experiments/beast_fmri_test/images/V.png'></img>	89,71	2750.0	test	<img class = center src='/static/experiments/beast_fmri_test/images/redV.png'></img>	stop	2050.0	2.0	44.0	stop	target	V	89,Yellow Button	71,Green Button	700.0	800.0	2050.0	2000.0	0.0	700.0	0.0	0.0	stop_stim
207635.8535787818	556.146421218	n/a	1026	71	2750	556.146421218	stim	stop-signal	96	235102	0.0-7.44-1.44	beast_fmri_test	301	232951,/,233631,/,234311,/,234991,/	t,t,t,t	<img class = center src='/static/experiments/beast_fmri_test/images/V.png'></img>	89,71	2750.0	test	<img class = center src='/static/experiments/beast_fmri_test/images/redV.png'></img>	stop	2050.0	2.0	44.0	stop	target	V	89,Yellow Button	71,Green Button	700.0	800.0	2050.0	2000.0	0.0	700.0	0.0	0.0	ITI
209257	500.0	n/a	-1	-1	500	0.0	fixation	poldrack-single-stim	97	236167	0.0-7.45-0.45	beast_fmri_test	301	235671,/	t	<div class = centerbox><div class = fixation>+</div></div>	none	500.0	test	n/a	n/a	n/a	n/a	n/a	n/a	n/a	n/a	n/a	n/a	n/a	n/a	n/a	n/a	n/a	n/a	n/a	n/a	fixation
207019.80384876954	2750.0	n/a	1793	89	2750	2239.19615123	stim	stop-signal	98	238919	0.0-7.45-1.45	beast_fmri_test	301	236351,/,237031,/,237712,/,238392,/,239072,/,239752,/,240432,/,241113,/	t,t,t,t,t,t,t,t	<img class = center src='/static/experiments/beast_fmri_test/images/T.png'></img>	89,71	2750.0	test	<img class = center src='/static/experiments/beast_fmri_test/images/redT.png'></img>	go	1950.0	2.0	45.0	go	non-target	T	89,Yellow Button	71,Green Button	650.0	800.0	2050.0	1950.0	0.0	800.0	0.0	n/a	go_stim
209769.80384876954	2239.19615123	n/a	1793	89	2750	2239.19615123	stim	stop-signal	98	238919	0.0-7.45-1.45	beast_fmri_test	301	236351,/,237031,/,237712,/,238392,/,239072,/,239752,/,240432,/,241113,/	t,t,t,t,t,t,t,t	<img class = center src='/static/experiments/beast_fmri_test/images/T.png'></img>	89,71	2750.0	test	<img class = center src='/static/experiments/beast_fmri_test/images/redT.png'></img>	go	1950.0	2.0	45.0	go	non-target	T	89,Yellow Button	71,Green Button	650.0	800.0	2050.0	1950.0	0.0	800.0	0.0	n/a	ITI
214756	500.0	n/a	-1	-1	500	0.0	fixation	poldrack-single-stim	99	241666	0.0-7.46-0.46	beast_fmri_test	301	n/a	n/a	<div class = centerbox><div class = fixation>+</div></div>	none	500.0	test	n/a	n/a	n/a	n/a	n/a	n/a	n/a	n/a	n/a	n/a	n/a	n/a	n/a	n/a	n/a	n/a	n/a	n/a	fixation
214059.36579133506	2750.0	n/a	1266	89	2750	698.634208665	stim	stop-signal	100	244418	0.0-7.46-1.46	beast_fmri_test	301	241792,/,242473,/,243152,/,243832,/,244512,/	t,t,t,t,t	<img class = center src='/static/experiments/beast_fmri_test/images/B.png'></img>	89,71	2750.0	test	<img class = center src='/static/experiments/beast_fmri_test/images/redB.png'></img>	go	1950.0	2.0	46.0	go	non-target	B	89,Yellow Button	71,Green Button	650.0	800.0	2050.0	1950.0	0.0	800.0	0.0	n/a	go_stim
216809.36579133506	698.634208665	n/a	1266	89	2750	698.634208665	stim	stop-signal	100	244418	0.0-7.46-1.46	beast_fmri_test	301	241792,/,242473,/,243152,/,243832,/,244512,/	t,t,t,t,t	<img class = center src='/static/experiments/beast_fmri_test/images/B.png'></img>	89,71	2750.0	test	<img class = center src='/static/experiments/beast_fmri_test/images/redB.png'></img>	go	1950.0	2.0	46.0	go	non-target	B	89,Yellow Button	71,Green Button	650.0	800.0	2050.0	1950.0	0.0	800.0	0.0	n/a	ITI
233214	15000.0	n/a	-1	-1	15000	0.0	practice-no-stop-feedback	poldrack-single-stim	101	260124	0.0-8.0	beast_fmri_test	301	245192,/,245872,/,246552,/,247232,/,247912,/,248592,/,249272,/,249952,/,250632,/,251313,/,251992,/,252672,/,253352,/,254032,/,254712,/,255392,/,256072,/,256752,/,257432,/,258112,/,258792,/,259472,/	t,t,t,t,t,t,t,t,t,t,t,t,t,t,t,t,t,t,t,t,t,t	"<div class = ""centerbox""><p class = ""center-block-text"">Your delay is 1 trials.</p><p class = center-block-text>Please wait for the scanner to start the block</p></div>"	77	15000.0	n/a	n/a	n/a	n/a	n/a	n/a	n/a	n/a	n/a	n/a	n/a	n/a	n/a	n/a	n/a	n/a	n/a	n/a	n/a	practice-no-stop-feedback
233716	500.0	n/a	-1	-1	500	0.0	fixation	poldrack-single-stim	102	260626	0.0-9.0-0.0	beast_fmri_test	301	260152,/	t	<div class = centerbox><div class = fixation>+</div></div>	none	500.0	test	n/a	n/a	n/a	n/a	n/a	n/a	n/a	n/a	n/a	n/a	n/a	n/a	n/a	n/a	n/a	n/a	n/a	n/a	fixation
232901.98302556784	2750.0	n/a	950	89	2750	816.016974432	stim	stop-signal	103	263378	0.0-9.0-1.0	beast_fmri_test	301	260832,/,261513,/,262192,/,262872,/,263552,/	t,t,t,t,t	<img class = center src='/static/experiments/beast_fmri_test/images/D.png'></img>	89,71	2750.0	test	<img class = center src='/static/experiments/beast_fmri_test/images/redD.png'></img>	go	-1.0	1.0	0.0	go	temp-non-target	D	89,Yellow Button	71,Green Button	650.0	800.0	2050.0	1950.0	0.0	n/a	n/a	n/a	go_stim
235651.98302556784	816.016974432	n/a	950	89	2750	816.016974432	stim	stop-signal	103	263378	0.0-9.0-1.0	beast_fmri_test	301	260832,/,261513,/,262192,/,262872,/,263552,/	t,t,t,t,t	<img class = center src='/static/experiments/beast_fmri_test/images/D.png'></img>	89,71	2750.0	test	<img class = center src='/static/experiments/beast_fmri_test/images/redD.png'></img>	go	-1.0	1.0	0.0	go	temp-non-target	D	89,Yellow Button	71,Green Button	650.0	800.0	2050.0	1950.0	0.0	n/a	n/a	n/a	ITI
237792	500.0	n/a	-1	-1	500	0.0	fixation	poldrack-single-stim	104	264702	0.0-9.1-0.1	beast_fmri_test	301	264232,/	t	<div class = centerbox><div class = fixation>+</div></div>	none	500.0	test	n/a	n/a	n/a	n/a	n/a	n/a	n/a	n/a	n/a	n/a	n/a	n/a	n/a	n/a	n/a	n/a	n/a	n/a	fixation
237161.23701563943	650.0	n/a	-1	-1	2750	632.762984361	stim	stop-signal	105	267454	0.0-9.1-1.1	beast_fmri_test	301	264912,/,265592,/,266272,/,266952,/,267632,/	t,t,t,t,t	<img class = center src='/static/experiments/beast_fmri_test/images/D.png'></img>	89,71	2750.0	test	<img class = center src='/static/experiments/beast_fmri_test/images/redD.png'></img>	stop	2100.0	1.0	1.0	stop	target	D	89,Yellow Button	71,Green Button	650.0	800.0	2100.0	1950.0	0.0	650.0	0.0	1.0	go_stim
239261.23701563943	2100.0	n/a	-1	-1	2750	632.762984361	stim	stop-signal	105	267454	0.0-9.1-1.1	beast_fmri_test	301	264912,/,265592,/,266272,/,266952,/,267632,/	t,t,t,t,t	<img class = center src='/static/experiments/beast_fmri_test/images/D.png'></img>	89,71	2750.0	test	<img class = center src='/static/experiments/beast_fmri_test/images/redD.png'></img>	stop	2100.0	1.0	1.0	stop	target	D	89,Yellow Button	71,Green Button	650.0	800.0	2100.0	1950.0	0.0	650.0	0.0	1.0	stop_stim
239911.23701563943	632.762984361	n/a	-1	-1	2750	632.762984361	stim	stop-signal	105	267454	0.0-9.1-1.1	beast_fmri_test	301	264912,/,265592,/,266272,/,266952,/,267632,/	t,t,t,t,t	<img class = center src='/static/experiments/beast_fmri_test/images/D.png'></img>	89,71	2750.0	test	<img class = center src='/static/experiments/beast_fmri_test/images/redD.png'></img>	stop	2100.0	1.0	1.0	stop	target	D	89,Yellow Button	71,Green Button	650.0	800.0	2100.0	1950.0	0.0	650.0	0.0	1.0	ITI
241685	500.0	n/a	-1	-1	500	0.0	fixation	poldrack-single-stim	106	268595	0.0-9.2-0.2	beast_fmri_test	301	268312,/	t	<div class = centerbox><div class = fixation>+</div></div>	none	500.0	test	n/a	n/a	n/a	n/a	n/a	n/a	n/a	n/a	n/a	n/a	n/a	n/a	n/a	n/a	n/a	n/a	n/a	n/a	fixation
241044.97205420706	2750.0	n/a	826	71	2750	642.027945793	stim	stop-signal	107	271347	0.0-9.2-1.2	beast_fmri_test	301	268992,/,269672,/,270353,/,271032,/,271713,/	t,t,t,t,t	<img class = center src='/static/experiments/beast_fmri_test/images/D.png'></img>	89,71	2750.0	test	<img class = center src='/static/experiments/beast_fmri_test/images/redD.png'></img>	go	2050.0	1.0	2.0	go	target	D	89,Yellow Button	71,Green Button	700.0	800.0	2050.0	1950.0	0.0	700.0	0.0	n/a	go_stim
243794.97205420706	642.027945793	n/a	826	71	2750	642.027945793	stim	stop-signal	107	271347	0.0-9.2-1.2	beast_fmri_test	301	268992,/,269672,/,270353,/,271032,/,271713,/	t,t,t,t,t	<img class = center src='/static/experiments/beast_fmri_test/images/D.png'></img>	89,71	2750.0	test	<img class = center src='/static/experiments/beast_fmri_test/images/redD.png'></img>	go	2050.0	1.0	2.0	go	target	D	89,Yellow Button	71,Green Button	700.0	800.0	2050.0	1950.0	0.0	700.0	0.0	n/a	ITI
245588	500.0	n/a	-1	-1	500	0.0	fixation	poldrack-single-stim	108	272498	0.0-9.3-0.3	beast_fmri_test	301	272393,/	t	<div class = centerbox><div class = fixation>+</div></div>	none	500.0	test	n/a	n/a	n/a	n/a	n/a	n/a	n/a	n/a	n/a	n/a	n/a	n/a	n/a	n/a	n/a	n/a	n/a	n/a	fixation
244856.37212605571	800.0	n/a	-1	-1	2750	733.627873944	stim	stop-signal	109	275250	0.0-9.3-1.3	beast_fmri_test	301	273073,/,273753,/,274433,/,275113,/,275792,/	t,t,t,t,t	<img class = center src='/static/experiments/beast_fmri_test/images/T.png'></img>	89,71	2750.0	test	<img class = center src='/static/experiments/beast_fmri_test/images/redT.png'></img>	stop	1950.0	1.0	3.0	stop	non-target	T	89,Yellow Button	71,Green Button	700.0	800.0	2050.0	1950.0	0.0	800.0	0.0	1.0	go_stim
246806.37212605571	1950.0	n/a	-1	-1	2750	733.627873944	stim	stop-signal	109	275250	0.0-9.3-1.3	beast_fmri_test	301	273073,/,273753,/,274433,/,275113,/,275792,/	t,t,t,t,t	<img class = center src='/static/experiments/beast_fmri_test/images/T.png'></img>	89,71	2750.0	test	<img class = center src='/static/experiments/beast_fmri_test/images/redT.png'></img>	stop	1950.0	1.0	3.0	stop	non-target	T	89,Yellow Button	71,Green Button	700.0	800.0	2050.0	1950.0	0.0	800.0	0.0	1.0	stop_stim
247606.37212605571	733.627873944	n/a	-1	-1	2750	733.627873944	stim	stop-signal	109	275250	0.0-9.3-1.3	beast_fmri_test	301	273073,/,273753,/,274433,/,275113,/,275792,/	t,t,t,t,t	<img class = center src='/static/experiments/beast_fmri_test/images/T.png'></img>	89,71	2750.0	test	<img class = center src='/static/experiments/beast_fmri_test/images/redT.png'></img>	stop	1950.0	1.0	3.0	stop	non-target	T	89,Yellow Button	71,Green Button	700.0	800.0	2050.0	1950.0	0.0	800.0	0.0	1.0	ITI
249582	500.0	n/a	-1	-1	500	0.0	fixation	poldrack-single-stim	110	276492	0.0-9.4-0.4	beast_fmri_test	301	276473,/	t	<div class = centerbox><div class = fixation>+</div></div>	none	500.0	test	n/a	n/a	n/a	n/a	n/a	n/a	n/a	n/a	n/a	n/a	n/a	n/a	n/a	n/a	n/a	n/a	n/a	n/a	fixation
245537.24413610826	850.0	n/a	-1	-1	2750	4046.75586389	stim	stop-signal	111	279244	0.0-9.4-1.4	beast_fmri_test	301	277153,/,277833,/,278513,/,279193,/,279873,/,280552,/,281233,/,281913,/,282592,/,283273,/	t,t,t,t,t,t,t,t,t,t	<img class = center src='/static/experiments/beast_fmri_test/images/D.png'></img>	89,71	2750.0	test	<img class = center src='/static/experiments/beast_fmri_test/images/redD.png'></img>	stop	1900.0	1.0	4.0	stop	non-target	D	89,Yellow Button	71,Green Button	700.0	850.0	2050.0	1900.0	0.0	850.0	0.0	1.0	go_stim
247437.24413610826	1900.0	n/a	-1	-1	2750	4046.75586389	stim	stop-signal	111	279244	0.0-9.4-1.4	beast_fmri_test	301	277153,/,277833,/,278513,/,279193,/,279873,/,280552,/,281233,/,281913,/,282592,/,283273,/	t,t,t,t,t,t,t,t,t,t	<img class = center src='/static/experiments/beast_fmri_test/images/D.png'></img>	89,71	2750.0	test	<img class = center src='/static/experiments/beast_fmri_test/images/redD.png'></img>	stop	1900.0	1.0	4.0	stop	non-target	D	89,Yellow Button	71,Green Button	700.0	850.0	2050.0	1900.0	0.0	850.0	0.0	1.0	stop_stim
248287.24413610826	4046.75586389	n/a	-1	-1	2750	4046.75586389	stim	stop-signal	111	279244	0.0-9.4-1.4	beast_fmri_test	301	277153,/,277833,/,278513,/,279193,/,279873,/,280552,/,281233,/,281913,/,282592,/,283273,/	t,t,t,t,t,t,t,t,t,t	<img class = center src='/static/experiments/beast_fmri_test/images/D.png'></img>	89,71	2750.0	test	<img class = center src='/static/experiments/beast_fmri_test/images/redD.png'></img>	stop	1900.0	1.0	4.0	stop	non-target	D	89,Yellow Button	71,Green Button	700.0	850.0	2050.0	1900.0	0.0	850.0	0.0	1.0	ITI
256889	500.0	n/a	-1	-1	500	0.0	fixation	poldrack-single-stim	112	283799	0.0-9.5-0.5	beast_fmri_test	301	n/a	n/a	<div class = centerbox><div class = fixation>+</div></div>	none	500.0	test	n/a	n/a	n/a	n/a	n/a	n/a	n/a	n/a	n/a	n/a	n/a	n/a	n/a	n/a	n/a	n/a	n/a	n/a	fixation
255445.44728289067	700.0	n/a	687	71	2750	1445.55271711	stim	stop-signal	113	286551	0.0-9.5-1.5	beast_fmri_test	301	283953,/,284633,/,285313,/,285993,/,286672,/,287353,/	t,t,t,t,t,t	<img class = center src='/static/experiments/beast_fmri_test/images/D.png'></img>	89,71	2750.0	test	<img class = center src='/static/experiments/beast_fmri_test/images/redD.png'></img>	stop	2050.0	1.0	5.0	stop	target	D	89,Yellow Button	71,Green Button	700.0	900.0	2050.0	1900.0	0.0	700.0	0.0	0.0	go_stim
257495.44728289067	2050.0	n/a	687	71	2750	1445.55271711	stim	stop-signal	113	286551	0.0-9.5-1.5	beast_fmri_test	301	283953,/,284633,/,285313,/,285993,/,286672,/,287353,/	t,t,t,t,t,t	<img class = center src='/static/experiments/beast_fmri_test/images/D.png'></img>	89,71	2750.0	test	<img class = center src='/static/experiments/beast_fmri_test/images/redD.png'></img>	stop	2050.0	1.0	5.0	stop	target	D	89,Yellow Button	71,Green Button	700.0	900.0	2050.0	1900.0	0.0	700.0	0.0	0.0	stop_stim
258195.44728289067	1445.55271711	n/a	687	71	2750	1445.55271711	stim	stop-signal	113	286551	0.0-9.5-1.5	beast_fmri_test	301	283953,/,284633,/,285313,/,285993,/,286672,/,287353,/	t,t,t,t,t,t	<img class = center src='/static/experiments/beast_fmri_test/images/D.png'></img>	89,71	2750.0	test	<img class = center src='/static/experiments/beast_fmri_test/images/redD.png'></img>	stop	2050.0	1.0	5.0	stop	target	D	89,Yellow Button	71,Green Button	700.0	900.0	2050.0	1900.0	0.0	700.0	0.0	0.0	ITI
261593	500.0	n/a	-1	-1	500	0.0	fixation	poldrack-single-stim	114	288503	0.0-9.6-0.6	beast_fmri_test	301	288032,/	t	<div class = centerbox><div class = fixation>+</div></div>	none	500.0	test	n/a	n/a	n/a	n/a	n/a	n/a	n/a	n/a	n/a	n/a	n/a	n/a	n/a	n/a	n/a	n/a	n/a	n/a	fixation
258642.3373012775	2750.0	n/a	2351	89	2750	2952.66269872	stim	stop-signal	115	291255	0.0-9.6-1.6	beast_fmri_test	301	288713,/,289392,/,290072,/,290752,/,291432,/,292113,/,292792,/,293472,/,294152,/	t,t,t,t,t,t,t,t,t	<img class = center src='/static/experiments/beast_fmri_test/images/P.png'></img>	89,71	2750.0	test	<img class = center src='/static/experiments/beast_fmri_test/images/redP.png'></img>	go	1850.0	1.0	6.0	go	non-target	P	89,Yellow Button	71,Green Button	650.0	900.0	2050.0	1850.0	0.0	900.0	0.0	n/a	go_stim
261392.3373012775	2952.66269872	n/a	2351	89	2750	2952.66269872	stim	stop-signal	115	291255	0.0-9.6-1.6	beast_fmri_test	301	288713,/,289392,/,290072,/,290752,/,291432,/,292113,/,292792,/,293472,/,294152,/	t,t,t,t,t,t,t,t,t	<img class = center src='/static/experiments/beast_fmri_test/images/P.png'></img>	89,71	2750.0	test	<img class = center src='/static/experiments/beast_fmri_test/images/redP.png'></img>	go	1850.0	1.0	6.0	go	non-target	P	89,Yellow Button	71,Green Button	650.0	900.0	2050.0	1850.0	0.0	900.0	0.0	n/a	ITI
267806	500.0	n/a	-1	-1	500	0.0	fixation	poldrack-single-stim	116	294716	0.0-9.7-0.7	beast_fmri_test	301	n/a	n/a	<div class = centerbox><div class = fixation>+</div></div>	none	500.0	test	n/a	n/a	n/a	n/a	n/a	n/a	n/a	n/a	n/a	n/a	n/a	n/a	n/a	n/a	n/a	n/a	n/a	n/a	fixation
267491.91766446386	2750.0	n/a	1086	89	2750	316.082335536	stim	stop-signal	117	297468	0.0-9.7-1.7	beast_fmri_test	301	294832,/,295513,/,296192,/,296872,/,297552,/	t,t,t,t,t	<img class = center src='/static/experiments/beast_fmri_test/images/T.png'></img>	89,71	2750.0	test	<img class = center src='/static/experiments/beast_fmri_test/images/redT.png'></img>	go	1850.0	1.0	7.0	go	non-target	T	89,Yellow Button	71,Green Button	650.0	900.0	2050.0	1850.0	0.0	900.0	0.0	n/a	go_stim
270241.91766446386	316.082335536	n/a	1086	89	2750	316.082335536	stim	stop-signal	117	297468	0.0-9.7-1.7	beast_fmri_test	301	294832,/,295513,/,296192,/,296872,/,297552,/	t,t,t,t,t	<img class = center src='/static/experiments/beast_fmri_test/images/T.png'></img>	89,71	2750.0	test	<img class = center src='/static/experiments/beast_fmri_test/images/redT.png'></img>	go	1850.0	1.0	7.0	go	non-target	T	89,Yellow Button	71,Green Button	650.0	900.0	2050.0	1850.0	0.0	900.0	0.0	n/a	ITI
271381	500.0	n/a	-1	-1	500	0.0	fixation	poldrack-single-stim	118	298291	0.0-9.8-0.8	beast_fmri_test	301	298233,/	t	<div class = centerbox><div class = fixation>+</div></div>	none	500.0	test	n/a	n/a	n/a	n/a	n/a	n/a	n/a	n/a	n/a	n/a	n/a	n/a	n/a	n/a	n/a	n/a	n/a	n/a	fixation
271267.94594394398	900.0	n/a	871	89	2750	116.054056056	stim	stop-signal	119	301044	0.0-9.8-1.8	beast_fmri_test	301	298912,/,299592,/,300272,/,300952,/	t,t,t,t	<img class = center src='/static/experiments/beast_fmri_test/images/B.png'></img>	89,71	2750.0	test	<img class = center src='/static/experiments/beast_fmri_test/images/redB.png'></img>	stop	1850.0	1.0	8.0	stop	non-target	B	89,Yellow Button	71,Green Button	650.0	900.0	2050.0	1850.0	0.0	900.0	0.0	0.0	go_stim
273117.94594394398	1850.0	n/a	871	89	2750	116.054056056	stim	stop-signal	119	301044	0.0-9.8-1.8	beast_fmri_test	301	298912,/,299592,/,300272,/,300952,/	t,t,t,t	<img class = center src='/static/experiments/beast_fmri_test/images/B.png'></img>	89,71	2750.0	test	<img class = center src='/static/experiments/beast_fmri_test/images/redB.png'></img>	stop	1850.0	1.0	8.0	stop	non-target	B	89,Yellow Button	71,Green Button	650.0	900.0	2050.0	1850.0	0.0	900.0	0.0	0.0	stop_stim
274017.94594394398	116.054056056	n/a	871	89	2750	116.054056056	stim	stop-signal	119	301044	0.0-9.8-1.8	beast_fmri_test	301	298912,/,299592,/,300272,/,300952,/	t,t,t,t	<img class = center src='/static/experiments/beast_fmri_test/images/B.png'></img>	89,71	2750.0	test	<img class = center src='/static/experiments/beast_fmri_test/images/redB.png'></img>	stop	1850.0	1.0	8.0	stop	non-target	B	89,Yellow Button	71,Green Button	650.0	900.0	2050.0	1850.0	0.0	900.0	0.0	0.0	ITI
274758	500.0	n/a	-1	-1	500	0.0	fixation	poldrack-single-stim	120	301668	0.0-9.9-0.9	beast_fmri_test	301	301633,/	t	<div class = centerbox><div class = fixation>+</div></div>	none	500.0	test	n/a	n/a	n/a	n/a	n/a	n/a	n/a	n/a	n/a	n/a	n/a	n/a	n/a	n/a	n/a	n/a	n/a	n/a	fixation
274701.67561434238	2750.0	n/a	1945	89	2750	58.3243856576	stim	stop-signal	121	304420	0.0-9.9-1.9	beast_fmri_test	301	302313,/,302992,/,303673,/,304352,/	t,t,t,t	<img class = center src='/static/experiments/beast_fmri_test/images/T.png'></img>	89,71	2750.0	test	<img class = center src='/static/experiments/beast_fmri_test/images/redT.png'></img>	go	1900.0	1.0	9.0	go	non-target	T	89,Yellow Button	71,Green Button	650.0	850.0	2050.0	1900.0	0.0	850.0	0.0	n/a	go_stim
277451.67561434238	58.3243856576	n/a	1945	89	2750	58.3243856576	stim	stop-signal	121	304420	0.0-9.9-1.9	beast_fmri_test	301	302313,/,302992,/,303673,/,304352,/	t,t,t,t	<img class = center src='/static/experiments/beast_fmri_test/images/T.png'></img>	89,71	2750.0	test	<img class = center src='/static/experiments/beast_fmri_test/images/redT.png'></img>	go	1900.0	1.0	9.0	go	non-target	T	89,Yellow Button	71,Green Button	650.0	850.0	2050.0	1900.0	0.0	850.0	0.0	n/a	ITI
278077	500.0	n/a	-1	-1	500	0.0	fixation	poldrack-single-stim	122	304987	0.0-9.10-0.10	beast_fmri_test	301	n/a	n/a	<div class = centerbox><div class = fixation>+</div></div>	none	500.0	test	n/a	n/a	n/a	n/a	n/a	n/a	n/a	n/a	n/a	n/a	n/a	n/a	n/a	n/a	n/a	n/a	n/a	n/a	fixation
274740.67809058831	2750.0	n/a	926	89	2750	3339.32190941	stim	stop-signal	123	307740	0.0-9.10-1.10	beast_fmri_test	301	305033,/,305713,/,306393,/,307073,/,307753,/,308433,/,309113,/,309793,/,310473,/	t,t,t,t,t,t,t,t,t	<img class = center src='/static/experiments/beast_fmri_test/images/P.png'></img>	89,71	2750.0	test	<img class = center src='/static/experiments/beast_fmri_test/images/redP.png'></img>	go	1900.0	1.0	10.0	go	non-target	P	89,Yellow Button	71,Green Button	650.0	850.0	2050.0	1900.0	0.0	850.0	0.0	n/a	go_stim
277490.67809058831	3339.32190941	n/a	926	89	2750	3339.32190941	stim	stop-signal	123	307740	0.0-9.10-1.10	beast_fmri_test	301	305033,/,305713,/,306393,/,307073,/,307753,/,308433,/,309113,/,309793,/,310473,/	t,t,t,t,t,t,t,t,t	<img class = center src='/static/experiments/beast_fmri_test/images/P.png'></img>	89,71	2750.0	test	<img class = center src='/static/experiments/beast_fmri_test/images/redP.png'></img>	go	1900.0	1.0	10.0	go	non-target	P	89,Yellow Button	71,Green Button	650.0	850.0	2050.0	1900.0	0.0	850.0	0.0	n/a	ITI
284677	500.0	n/a	-1	-1	500	0.0	fixation	poldrack-single-stim	124	311587	0.0-9.11-0.11	beast_fmri_test	301	311153,/	t	<div class = centerbox><div class = fixation>+</div></div>	none	500.0	test	n/a	n/a	n/a	n/a	n/a	n/a	n/a	n/a	n/a	n/a	n/a	n/a	n/a	n/a	n/a	n/a	n/a	n/a	fixation
282973.66936045157	2750.0	n/a	711	71	2750	1706.33063955	stim	stop-signal	125	314340	0.0-9.11-1.11	beast_fmri_test	301	311833,/,312514,/,313193,/,313873,/,314553,/,315233,/,315913,/	t,t,t,t,t,t,t	<img class = center src='/static/experiments/beast_fmri_test/images/P.png'></img>	89,71	2750.0	test	<img class = center src='/static/experiments/beast_fmri_test/images/redP.png'></img>	go	2100.0	1.0	11.0	go	target	P	89,Yellow Button	71,Green Button	650.0	850.0	2100.0	1900.0	0.0	650.0	0.0	n/a	go_stim
285723.66936045157	1706.33063955	n/a	711	71	2750	1706.33063955	stim	stop-signal	125	314340	0.0-9.11-1.11	beast_fmri_test	301	311833,/,312514,/,313193,/,313873,/,314553,/,315233,/,315913,/	t,t,t,t,t,t,t	<img class = center src='/static/experiments/beast_fmri_test/images/P.png'></img>	89,71	2750.0	test	<img class = center src='/static/experiments/beast_fmri_test/images/redP.png'></img>	go	2100.0	1.0	11.0	go	target	P	89,Yellow Button	71,Green Button	650.0	850.0	2100.0	1900.0	0.0	650.0	0.0	n/a	ITI
289643	500.0	n/a	-1	-1	500	0.0	fixation	poldrack-single-stim	126	316553	0.0-9.12-0.12	beast_fmri_test	301	n/a	n/a	<div class = centerbox><div class = fixation>+</div></div>	none	500.0	test	n/a	n/a	n/a	n/a	n/a	n/a	n/a	n/a	n/a	n/a	n/a	n/a	n/a	n/a	n/a	n/a	n/a	n/a	fixation
287738.69336933439	2750.0	n/a	537	89	2750	1906.30663067	stim	stop-signal	127	319305	0.0-9.12-1.12	beast_fmri_test	301	316593,/,317273,/,317953,/,318633,/,319312,/,319993,/,320673,/	t,t,t,t,t,t,t	<img class = center src='/static/experiments/beast_fmri_test/images/D.png'></img>	89,71	2750.0	test	<img class = center src='/static/experiments/beast_fmri_test/images/redD.png'></img>	go	1900.0	1.0	12.0	go	non-target	D	89,Yellow Button	71,Green Button	650.0	850.0	2100.0	1900.0	0.0	850.0	0.0	n/a	go_stim
290488.69336933439	1906.30663067	n/a	537	89	2750	1906.30663067	stim	stop-signal	127	319305	0.0-9.12-1.12	beast_fmri_test	301	316593,/,317273,/,317953,/,318633,/,319312,/,319993,/,320673,/	t,t,t,t,t,t,t	<img class = center src='/static/experiments/beast_fmri_test/images/D.png'></img>	89,71	2750.0	test	<img class = center src='/static/experiments/beast_fmri_test/images/redD.png'></img>	go	1900.0	1.0	12.0	go	non-target	D	89,Yellow Button	71,Green Button	650.0	850.0	2100.0	1900.0	0.0	850.0	0.0	n/a	ITI
294810	500.0	n/a	-1	-1	500	0.0	fixation	poldrack-single-stim	128	321720	0.0-9.13-0.13	beast_fmri_test	301	321353,/	t	<div class = centerbox><div class = fixation>+</div></div>	none	500.0	test	n/a	n/a	n/a	n/a	n/a	n/a	n/a	n/a	n/a	n/a	n/a	n/a	n/a	n/a	n/a	n/a	n/a	n/a	fixation
294702.5794524618	650.0	n/a	-1	-1	2750	110.420547538	stim	stop-signal	129	324473	0.0-9.13-1.13	beast_fmri_test	301	322033,/,322714,/,323393,/,324073,/	t,t,t,t	<img class = center src='/static/experiments/beast_fmri_test/images/D.png'></img>	89,71	2750.0	test	<img class = center src='/static/experiments/beast_fmri_test/images/redD.png'></img>	stop	2100.0	1.0	13.0	stop	target	D	89,Yellow Button	71,Green Button	650.0	850.0	2100.0	1900.0	0.0	650.0	0.0	1.0	go_stim
296802.5794524618	2100.0	n/a	-1	-1	2750	110.420547538	stim	stop-signal	129	324473	0.0-9.13-1.13	beast_fmri_test	301	322033,/,322714,/,323393,/,324073,/	t,t,t,t	<img class = center src='/static/experiments/beast_fmri_test/images/D.png'></img>	89,71	2750.0	test	<img class = center src='/static/experiments/beast_fmri_test/images/redD.png'></img>	stop	2100.0	1.0	13.0	stop	target	D	89,Yellow Button	71,Green Button	650.0	850.0	2100.0	1900.0	0.0	650.0	0.0	1.0	stop_stim
297452.5794524618	110.420547538	n/a	-1	-1	2750	110.420547538	stim	stop-signal	129	324473	0.0-9.13-1.13	beast_fmri_test	301	322033,/,322714,/,323393,/,324073,/	t,t,t,t	<img class = center src='/static/experiments/beast_fmri_test/images/D.png'></img>	89,71	2750.0	test	<img class = center src='/static/experiments/beast_fmri_test/images/redD.png'></img>	stop	2100.0	1.0	13.0	stop	target	D	89,Yellow Button	71,Green Button	650.0	850.0	2100.0	1900.0	0.0	650.0	0.0	1.0	ITI
298181	500.0	n/a	-1	-1	500	0.0	fixation	poldrack-single-stim	130	325091	0.0-9.14-0.14	beast_fmri_test	301	324753,/	t	<div class = centerbox><div class = fixation>+</div></div>	none	500.0	test	n/a	n/a	n/a	n/a	n/a	n/a	n/a	n/a	n/a	n/a	n/a	n/a	n/a	n/a	n/a	n/a	n/a	n/a	fixation
296075.26625165757	850.0	n/a	-1	-1	2750	2108.73374834	stim	stop-signal	131	327844	0.0-9.14-1.14	beast_fmri_test	301	325433,/,326113,/,326793,/,327473,/,328153,/,328833,/,329513,/	t,t,t,t,t,t,t	<img class = center src='/static/experiments/beast_fmri_test/images/T.png'></img>	89,71	2750.0	test	<img class = center src='/static/experiments/beast_fmri_test/images/redT.png'></img>	stop	1900.0	1.0	14.0	stop	non-target	T	89,Yellow Button	71,Green Button	700.0	850.0	2100.0	1900.0	0.0	850.0	0.0	1.0	go_stim
297975.26625165757	1900.0	n/a	-1	-1	2750	2108.73374834	stim	stop-signal	131	327844	0.0-9.14-1.14	beast_fmri_test	301	325433,/,326113,/,326793,/,327473,/,328153,/,328833,/,329513,/	t,t,t,t,t,t,t	<img class = center src='/static/experiments/beast_fmri_test/images/T.png'></img>	89,71	2750.0	test	<img class = center src='/static/experiments/beast_fmri_test/images/redT.png'></img>	stop	1900.0	1.0	14.0	stop	non-target	T	89,Yellow Button	71,Green Button	700.0	850.0	2100.0	1900.0	0.0	850.0	0.0	1.0	stop_stim
298825.26625165757	2108.73374834	n/a	-1	-1	2750	2108.73374834	stim	stop-signal	131	327844	0.0-9.14-1.14	beast_fmri_test	301	325433,/,326113,/,326793,/,327473,/,328153,/,328833,/,329513,/	t,t,t,t,t,t,t	<img class = center src='/static/experiments/beast_fmri_test/images/T.png'></img>	89,71	2750.0	test	<img class = center src='/static/experiments/beast_fmri_test/images/redT.png'></img>	stop	1900.0	1.0	14.0	stop	non-target	T	89,Yellow Button	71,Green Button	700.0	850.0	2100.0	1900.0	0.0	850.0	0.0	1.0	ITI
303552	500.0	n/a	-1	-1	500	0.0	fixation	poldrack-single-stim	132	330462	0.0-9.15-0.15	beast_fmri_test	301	330193,/	t	<div class = centerbox><div class = fixation>+</div></div>	none	500.0	test	n/a	n/a	n/a	n/a	n/a	n/a	n/a	n/a	n/a	n/a	n/a	n/a	n/a	n/a	n/a	n/a	n/a	n/a	fixation
301812.51890867745	2750.0	n/a	776	89	2750	1741.48109132	stim	stop-signal	133	333214	0.0-9.15-1.15	beast_fmri_test	301	330873,/,331552,/,332233,/,332913,/,333593,/,334272,/,334953,/	t,t,t,t,t,t,t	<img class = center src='/static/experiments/beast_fmri_test/images/D.png'></img>	89,71	2750.0	test	<img class = center src='/static/experiments/beast_fmri_test/images/redD.png'></img>	go	1850.0	1.0	15.0	go	non-target	D	89,Yellow Button	71,Green Button	700.0	900.0	2100.0	1850.0	0.0	900.0	0.0	n/a	go_stim
304562.51890867745	1741.48109132	n/a	776	89	2750	1741.48109132	stim	stop-signal	133	333214	0.0-9.15-1.15	beast_fmri_test	301	330873,/,331552,/,332233,/,332913,/,333593,/,334272,/,334953,/	t,t,t,t,t,t,t	<img class = center src='/static/experiments/beast_fmri_test/images/D.png'></img>	89,71	2750.0	test	<img class = center src='/static/experiments/beast_fmri_test/images/redD.png'></img>	go	1850.0	1.0	15.0	go	non-target	D	89,Yellow Button	71,Green Button	700.0	900.0	2100.0	1850.0	0.0	900.0	0.0	n/a	ITI
308555	500.0	n/a	-1	-1	500	0.0	fixation	poldrack-single-stim	134	335465	0.0-9.16-0.16	beast_fmri_test	301	n/a	n/a	<div class = centerbox><div class = fixation>+</div></div>	none	500.0	test	n/a	n/a	n/a	n/a	n/a	n/a	n/a	n/a	n/a	n/a	n/a	n/a	n/a	n/a	n/a	n/a	n/a	n/a	fixation
307602.61296246061	900.0	n/a	716	89	2750	954.387037539	stim	stop-signal	135	338217	0.0-9.16-1.16	beast_fmri_test	301	335633,/,336313,/,336993,/,337674,/,338352,/,339033,/	t,t,t,t,t,t	<img class = center src='/static/experiments/beast_fmri_test/images/P.png'></img>	89,71	2750.0	test	<img class = center src='/static/experiments/beast_fmri_test/images/redP.png'></img>	stop	1850.0	1.0	16.0	stop	non-target	P	89,Yellow Button	71,Green Button	700.0	900.0	2100.0	1850.0	0.0	900.0	0.0	0.0	go_stim
309452.61296246061	1850.0	n/a	716	89	2750	954.387037539	stim	stop-signal	135	338217	0.0-9.16-1.16	beast_fmri_test	301	335633,/,336313,/,336993,/,337674,/,338352,/,339033,/	t,t,t,t,t,t	<img class = center src='/static/experiments/beast_fmri_test/images/P.png'></img>	89,71	2750.0	test	<img class = center src='/static/experiments/beast_fmri_test/images/redP.png'></img>	stop	1850.0	1.0	16.0	stop	non-target	P	89,Yellow Button	71,Green Button	700.0	900.0	2100.0	1850.0	0.0	900.0	0.0	0.0	stop_stim
310352.61296246061	954.387037539	n/a	716	89	2750	954.387037539	stim	stop-signal	135	338217	0.0-9.16-1.16	beast_fmri_test	301	335633,/,336313,/,336993,/,337674,/,338352,/,339033,/	t,t,t,t,t,t	<img class = center src='/static/experiments/beast_fmri_test/images/P.png'></img>	89,71	2750.0	test	<img class = center src='/static/experiments/beast_fmri_test/images/redP.png'></img>	stop	1850.0	1.0	16.0	stop	non-target	P	89,Yellow Button	71,Green Button	700.0	900.0	2100.0	1850.0	0.0	900.0	0.0	0.0	ITI
312771	500.0	n/a	-1	-1	500	0.0	fixation	poldrack-single-stim	136	339681	0.0-9.17-0.17	beast_fmri_test	301	n/a	n/a	<div class = centerbox><div class = fixation>+</div></div>	none	500.0	test	n/a	n/a	n/a	n/a	n/a	n/a	n/a	n/a	n/a	n/a	n/a	n/a	n/a	n/a	n/a	n/a	n/a	n/a	fixation
309539.74263251753	850.0	n/a	-1	-1	2750	3233.25736748	stim	stop-signal	137	342433	0.0-9.17-1.17	beast_fmri_test	301	339714,/,340394,/,341074,/,341754,/,342434,/,343114,/,343794,/,344473,/,345154,/	t,t,t,t,t,t,t,t,t	<img class = center src='/static/experiments/beast_fmri_test/images/T.png'></img>	89,71	2750.0	test	<img class = center src='/static/experiments/beast_fmri_test/images/redT.png'></img>	stop	1900.0	1.0	17.0	stop	non-target	T	89,Yellow Button	71,Green Button	700.0	850.0	2100.0	1900.0	0.0	850.0	0.0	1.0	go_stim
311439.74263251753	1900.0	n/a	-1	-1	2750	3233.25736748	stim	stop-signal	137	342433	0.0-9.17-1.17	beast_fmri_test	301	339714,/,340394,/,341074,/,341754,/,342434,/,343114,/,343794,/,344473,/,345154,/	t,t,t,t,t,t,t,t,t	<img class = center src='/static/experiments/beast_fmri_test/images/T.png'></img>	89,71	2750.0	test	<img class = center src='/static/experiments/beast_fmri_test/images/redT.png'></img>	stop	1900.0	1.0	17.0	stop	non-target	T	89,Yellow Button	71,Green Button	700.0	850.0	2100.0	1900.0	0.0	850.0	0.0	1.0	stop_stim
312289.74263251753	3233.25736748	n/a	-1	-1	2750	3233.25736748	stim	stop-signal	137	342433	0.0-9.17-1.17	beast_fmri_test	301	339714,/,340394,/,341074,/,341754,/,342434,/,343114,/,343794,/,344473,/,345154,/	t,t,t,t,t,t,t,t,t	<img class = center src='/static/experiments/beast_fmri_test/images/T.png'></img>	89,71	2750.0	test	<img class = center src='/static/experiments/beast_fmri_test/images/redT.png'></img>	stop	1900.0	1.0	17.0	stop	non-target	T	89,Yellow Button	71,Green Button	700.0	850.0	2100.0	1900.0	0.0	850.0	0.0	1.0	ITI
319264	500.0	n/a	-1	-1	500	0.0	fixation	poldrack-single-stim	138	346174	0.0-9.18-0.18	beast_fmri_test	301	345833,/	t	<div class = centerbox><div class = fixation>+</div></div>	none	500.0	test	n/a	n/a	n/a	n/a	n/a	n/a	n/a	n/a	n/a	n/a	n/a	n/a	n/a	n/a	n/a	n/a	n/a	n/a	fixation
318907.99354014063	2750.0	n/a	-1	-1	2750	358.006459859	stim	stop-signal	139	348926	0.0-9.18-1.18	beast_fmri_test	301	346514,/,347193,/,347874,/,348553,/,349233,/	t,t,t,t,t	<img class = center src='/static/experiments/beast_fmri_test/images/B.png'></img>	89,71	2750.0	test	<img class = center src='/static/experiments/beast_fmri_test/images/redB.png'></img>	go	1850.0	1.0	18.0	go	non-target	B	89,Yellow Button	71,Green Button	700.0	900.0	2100.0	1850.0	0.0	900.0	0.0	n/a	go_stim
321657.99354014063	358.006459859	n/a	-1	-1	2750	358.006459859	stim	stop-signal	139	348926	0.0-9.18-1.18	beast_fmri_test	301	346514,/,347193,/,347874,/,348553,/,349233,/	t,t,t,t,t	<img class = center src='/static/experiments/beast_fmri_test/images/B.png'></img>	89,71	2750.0	test	<img class = center src='/static/experiments/beast_fmri_test/images/redB.png'></img>	go	1850.0	1.0	18.0	go	non-target	B	89,Yellow Button	71,Green Button	700.0	900.0	2100.0	1850.0	0.0	900.0	0.0	n/a	ITI
322885	500.0	n/a	-1	-1	500	0.0	fixation	poldrack-single-stim	140	349795	0.0-9.19-0.19	beast_fmri_test	301	n/a	n/a	<div class = centerbox><div class = fixation>+</div></div>	none	500.0	test	n/a	n/a	n/a	n/a	n/a	n/a	n/a	n/a	n/a	n/a	n/a	n/a	n/a	n/a	n/a	n/a	n/a	n/a	fixation
320757.73901638947	2750.0	n/a	2127	89	2750	2129.26098361	stim	stop-signal	141	352547	0.0-9.19-1.19	beast_fmri_test	301	349914,/,350594,/,351273,/,351953,/,352633,/,353314,/,353993,/,354673,/	t,t,t,t,t,t,t,t	<img class = center src='/static/experiments/beast_fmri_test/images/V.png'></img>	89,71	2750.0	test	<img class = center src='/static/experiments/beast_fmri_test/images/redV.png'></img>	go	1850.0	1.0	19.0	go	non-target	V	89,Yellow Button	71,Green Button	700.0	900.0	2100.0	1850.0	0.0	900.0	0.0	n/a	go_stim
323507.73901638947	2129.26098361	n/a	2127	89	2750	2129.26098361	stim	stop-signal	141	352547	0.0-9.19-1.19	beast_fmri_test	301	349914,/,350594,/,351273,/,351953,/,352633,/,353314,/,353993,/,354673,/	t,t,t,t,t,t,t,t	<img class = center src='/static/experiments/beast_fmri_test/images/V.png'></img>	89,71	2750.0	test	<img class = center src='/static/experiments/beast_fmri_test/images/redV.png'></img>	go	1850.0	1.0	19.0	go	non-target	V	89,Yellow Button	71,Green Button	700.0	900.0	2100.0	1850.0	0.0	900.0	0.0	n/a	ITI
328274	500.0	n/a	-1	-1	500	0.0	fixation	poldrack-single-stim	142	355184	0.0-9.20-0.20	beast_fmri_test	301	n/a	n/a	<div class = centerbox><div class = fixation>+</div></div>	none	500.0	test	n/a	n/a	n/a	n/a	n/a	n/a	n/a	n/a	n/a	n/a	n/a	n/a	n/a	n/a	n/a	n/a	n/a	n/a	fixation
328022.01382274478	700.0	n/a	683	71	2750	253.986177255	stim	stop-signal	143	357936	0.0-9.20-1.20	beast_fmri_test	301	355353,/,356033,/,356713,/,357393,/,358073,/	t,t,t,t,t	<img class = center src='/static/experiments/beast_fmri_test/images/V.png'></img>	89,71	2750.0	test	<img class = center src='/static/experiments/beast_fmri_test/images/redV.png'></img>	stop	2050.0	1.0	20.0	stop	target	V	89,Yellow Button	71,Green Button	700.0	900.0	2050.0	1850.0	0.0	700.0	0.0	0.0	go_stim
330072.01382274478	2050.0	n/a	683	71	2750	253.986177255	stim	stop-signal	143	357936	0.0-9.20-1.20	beast_fmri_test	301	355353,/,356033,/,356713,/,357393,/,358073,/	t,t,t,t,t	<img class = center src='/static/experiments/beast_fmri_test/images/V.png'></img>	89,71	2750.0	test	<img class = center src='/static/experiments/beast_fmri_test/images/redV.png'></img>	stop	2050.0	1.0	20.0	stop	target	V	89,Yellow Button	71,Green Button	700.0	900.0	2050.0	1850.0	0.0	700.0	0.0	0.0	stop_stim
330772.01382274478	253.986177255	n/a	683	71	2750	253.986177255	stim	stop-signal	143	357936	0.0-9.20-1.20	beast_fmri_test	301	355353,/,356033,/,356713,/,357393,/,358073,/	t,t,t,t,t	<img class = center src='/static/experiments/beast_fmri_test/images/V.png'></img>	89,71	2750.0	test	<img class = center src='/static/experiments/beast_fmri_test/images/redV.png'></img>	stop	2050.0	1.0	20.0	stop	target	V	89,Yellow Button	71,Green Button	700.0	900.0	2050.0	1850.0	0.0	700.0	0.0	0.0	ITI
331789	500.0	n/a	-1	-1	500	0.0	fixation	poldrack-single-stim	144	358699	0.0-9.21-0.21	beast_fmri_test	301	n/a	n/a	<div class = centerbox><div class = fixation>+</div></div>	none	500.0	test	n/a	n/a	n/a	n/a	n/a	n/a	n/a	n/a	n/a	n/a	n/a	n/a	n/a	n/a	n/a	n/a	n/a	n/a	fixation
331526.96678839036	2750.0	n/a	1281	89	2750	264.03321161	stim	stop-signal	145	361451	0.0-9.21-1.21	beast_fmri_test	301	358754,/,359433,/,360113,/,360793,/,361473,/	t,t,t,t,t	<img class = center src='/static/experiments/beast_fmri_test/images/P.png'></img>	89,71	2750.0	test	<img class = center src='/static/experiments/beast_fmri_test/images/redP.png'></img>	go	1850.0	1.0	21.0	go	non-target	P	89,Yellow Button	71,Green Button	650.0	900.0	2050.0	1850.0	0.0	900.0	0.0	n/a	go_stim
334276.96678839036	264.03321161	n/a	1281	89	2750	264.03321161	stim	stop-signal	145	361451	0.0-9.21-1.21	beast_fmri_test	301	358754,/,359433,/,360113,/,360793,/,361473,/	t,t,t,t,t	<img class = center src='/static/experiments/beast_fmri_test/images/P.png'></img>	89,71	2750.0	test	<img class = center src='/static/experiments/beast_fmri_test/images/redP.png'></img>	go	1850.0	1.0	21.0	go	non-target	P	89,Yellow Button	71,Green Button	650.0	900.0	2050.0	1850.0	0.0	900.0	0.0	n/a	ITI
335314	500.0	n/a	-1	-1	500	0.0	fixation	poldrack-single-stim	146	362224	0.0-9.22-0.22	beast_fmri_test	301	362153,/	t	<div class = centerbox><div class = fixation>+</div></div>	none	500.0	test	n/a	n/a	n/a	n/a	n/a	n/a	n/a	n/a	n/a	n/a	n/a	n/a	n/a	n/a	n/a	n/a	n/a	n/a	fixation
