onset	duration	text	rt	key_press	block_duration	timing_post_trial	trial_id	trial_type	trial_index	time_elapsed	internal_node_id	exp_id	subject_id	trigger_times	triggers	stimulus	possible_responses	stim_duration	exp_stage	SS_stimulus	SS_trial_type	SS_duration	load	trial_num	stop_trial_type	adaptive_trial_type	stim	yes_response_key	no_response_key	SSD_target	SSD_non_target	SSTarget	SSNonTarget	go_acc	SS_delay	adaptive_acc	stop_acc	new_trial_type
test	10880.0	n/a	-1	-1	10880	0.0	practice-no-stop-feedback	poldrack-single-stim	196	606260	0.0-12.0	beast_fmri_test	330	595384,/,596061,/,596741,/,597421,/,598102,/,598782,/,599460,/,600140,/,600819,/,601500,/,602179,/,602859,/,603539,/,604218,/,604899,/,605577,/,606257,/	t,t,t,t,t,t,t,t,t,t,t,t,t,t,t,t,t	"<div class = ""centerbox""><p class = ""block-text"">Your delay is 1 trials.</p><p class = block-text>Please wait for the scanner to start the block</p></div>"	77	10880.0	n/a	n/a	n/a	n/a	n/a	n/a	n/a	n/a	n/a	n/a	n/a	n/a	n/a	n/a	n/a	n/a	n/a	n/a	n/a	start_functional_block
11379	500.0	n/a	-1	-1	500	0.0	fixation	poldrack-single-stim	197	606763	0.0-13.0-0.0	beast_fmri_test	330	n/a	n/a	<div class = centerbox2><div class = fixation>+</div></div>	none	500.0	test	n/a	n/a	n/a	n/a	n/a	n/a	n/a	n/a	n/a	n/a	n/a	n/a	n/a	n/a	n/a	n/a	n/a	n/a	fixation
10148.228796698619	2750.0	n/a	775	71	2750	1233.7712033	stim	stop-signal	198	609516	0.0-13.0-1.0	beast_fmri_test	330	606938,/,607617,/,608297,/,608976,/,609656,/,610335,/	t,t,t,t,t,t	<img class = center src='/static/experiments/beast_fmri_test/images/V.png'></img>	71,89	2750.0	test	<img class = center src='/static/experiments/beast_fmri_test/images/redV.png'></img>	go	-1.0	1.0	0.0	go	temp-non-target	V	71,Index Finger	89,Middle Finger	400.0	400.0	2350.0	2350.0	0.0	n/a	n/a	n/a	go_stim
12898.228796698619	1233.7712033	n/a	775	71	2750	1233.7712033	stim	stop-signal	198	609516	0.0-13.0-1.0	beast_fmri_test	330	606938,/,607617,/,608297,/,608976,/,609656,/,610335,/	t,t,t,t,t,t	<img class = center src='/static/experiments/beast_fmri_test/images/V.png'></img>	71,89	2750.0	test	<img class = center src='/static/experiments/beast_fmri_test/images/redV.png'></img>	go	-1.0	1.0	0.0	go	temp-non-target	V	71,Index Finger	89,Middle Finger	400.0	400.0	2350.0	2350.0	0.0	n/a	n/a	n/a	ITI
15889	500.0	n/a	-1	-1	500	0.0	fixation	poldrack-single-stim	199	611273	0.0-13.1-0.1	beast_fmri_test	330	611014,/	t	<div class = centerbox2><div class = fixation>+</div></div>	none	500.0	test	n/a	n/a	n/a	n/a	n/a	n/a	n/a	n/a	n/a	n/a	n/a	n/a	n/a	n/a	n/a	n/a	n/a	n/a	fixation
15616.021507799276	2750.0	n/a	773	71	2750	273.978492201	stim	stop-signal	200	614024	0.0-13.1-1.1	beast_fmri_test	330	611694,/,612375,/,613055,/,613735,/	t,t,t,t	<img class = center src='/static/experiments/beast_fmri_test/images/B.png'></img>	71,89	2750.0	test	<img class = center src='/static/experiments/beast_fmri_test/images/redB.png'></img>	go	2350.0	1.0	1.0	go	non-target	B	71,Index Finger	89,Middle Finger	400.0	400.0	2350.0	2350.0	0.0	400.0	0.0	n/a	go_stim
18366.021507799276	273.978492201	n/a	773	71	2750	273.978492201	stim	stop-signal	200	614024	0.0-13.1-1.1	beast_fmri_test	330	611694,/,612375,/,613055,/,613735,/	t,t,t,t	<img class = center src='/static/experiments/beast_fmri_test/images/B.png'></img>	71,89	2750.0	test	<img class = center src='/static/experiments/beast_fmri_test/images/redB.png'></img>	go	2350.0	1.0	1.0	go	non-target	B	71,Index Finger	89,Middle Finger	400.0	400.0	2350.0	2350.0	0.0	400.0	0.0	n/a	ITI
19438	500.0	n/a	-1	-1	500	0.0	fixation	poldrack-single-stim	201	614822	0.0-13.2-0.2	beast_fmri_test	330	614413,/	t	<div class = centerbox2><div class = fixation>+</div></div>	none	500.0	test	n/a	n/a	n/a	n/a	n/a	n/a	n/a	n/a	n/a	n/a	n/a	n/a	n/a	n/a	n/a	n/a	n/a	n/a	fixation
19384.463728492963	2750.0	n/a	755	89	2750	56.5362715071	stim	stop-signal	202	617575	0.0-13.2-1.2	beast_fmri_test	330	615092,/,615773,/,616451,/,617131,/	t,t,t,t	<img class = center src='/static/experiments/beast_fmri_test/images/V.png'></img>	71,89	2750.0	test	<img class = center src='/static/experiments/beast_fmri_test/images/redV.png'></img>	go	2350.0	1.0	2.0	go	non-target	V	71,Index Finger	89,Middle Finger	400.0	400.0	2350.0	2350.0	1.0	400.0	1.0	n/a	go_stim
22134.463728492963	56.5362715071	n/a	755	89	2750	56.5362715071	stim	stop-signal	202	617575	0.0-13.2-1.2	beast_fmri_test	330	615092,/,615773,/,616451,/,617131,/	t,t,t,t	<img class = center src='/static/experiments/beast_fmri_test/images/V.png'></img>	71,89	2750.0	test	<img class = center src='/static/experiments/beast_fmri_test/images/redV.png'></img>	go	2350.0	1.0	2.0	go	non-target	V	71,Index Finger	89,Middle Finger	400.0	400.0	2350.0	2350.0	1.0	400.0	1.0	n/a	ITI
22768	500.0	n/a	-1	-1	500	0.0	fixation	poldrack-single-stim	203	618152	0.0-13.3-0.3	beast_fmri_test	330	617812,/	t	<div class = centerbox2><div class = fixation>+</div></div>	none	500.0	test	n/a	n/a	n/a	n/a	n/a	n/a	n/a	n/a	n/a	n/a	n/a	n/a	n/a	n/a	n/a	n/a	n/a	n/a	fixation
19902.741327783326	2750.0	n/a	638	71	2750	2868.25867222	stim	stop-signal	204	620905	0.0-13.3-1.3	beast_fmri_test	330	618492,/,619171,/,619850,/,620531,/,621210,/,621889,/,622570,/,623249,/	t,t,t,t,t,t,t,t	<img class = center src='/static/experiments/beast_fmri_test/images/T.png'></img>	71,89	2750.0	test	<img class = center src='/static/experiments/beast_fmri_test/images/redT.png'></img>	go	2350.0	1.0	3.0	go	non-target	T	71,Index Finger	89,Middle Finger	400.0	400.0	2350.0	2350.0	0.0	400.0	0.0	n/a	go_stim
22652.741327783326	2868.25867222	n/a	638	71	2750	2868.25867222	stim	stop-signal	204	620905	0.0-13.3-1.3	beast_fmri_test	330	618492,/,619171,/,619850,/,620531,/,621210,/,621889,/,622570,/,623249,/	t,t,t,t,t,t,t,t	<img class = center src='/static/experiments/beast_fmri_test/images/T.png'></img>	71,89	2750.0	test	<img class = center src='/static/experiments/beast_fmri_test/images/redT.png'></img>	go	2350.0	1.0	3.0	go	non-target	T	71,Index Finger	89,Middle Finger	400.0	400.0	2350.0	2350.0	0.0	400.0	0.0	n/a	ITI
28914	500.0	n/a	-1	-1	500	0.0	fixation	poldrack-single-stim	205	624298	0.0-13.4-0.4	beast_fmri_test	330	623929,/	t	<div class = centerbox2><div class = fixation>+</div></div>	none	500.0	test	n/a	n/a	n/a	n/a	n/a	n/a	n/a	n/a	n/a	n/a	n/a	n/a	n/a	n/a	n/a	n/a	n/a	n/a	fixation
28820.226907572825	2750.0	n/a	868	71	2750	94.7730924272	stim	stop-signal	206	627049	0.0-13.4-1.4	beast_fmri_test	330	624608,/,625287,/,625967,/,626648,/	t,t,t,t	<img class = center src='/static/experiments/beast_fmri_test/images/V.png'></img>	71,89	2750.0	test	<img class = center src='/static/experiments/beast_fmri_test/images/redV.png'></img>	go	2350.0	1.0	4.0	go	non-target	V	71,Index Finger	89,Middle Finger	400.0	400.0	2350.0	2350.0	0.0	400.0	0.0	n/a	go_stim
31570.226907572825	94.7730924272	n/a	868	71	2750	94.7730924272	stim	stop-signal	206	627049	0.0-13.4-1.4	beast_fmri_test	330	624608,/,625287,/,625967,/,626648,/	t,t,t,t	<img class = center src='/static/experiments/beast_fmri_test/images/V.png'></img>	71,89	2750.0	test	<img class = center src='/static/experiments/beast_fmri_test/images/redV.png'></img>	go	2350.0	1.0	4.0	go	non-target	V	71,Index Finger	89,Middle Finger	400.0	400.0	2350.0	2350.0	0.0	400.0	0.0	n/a	ITI
32287	500.0	n/a	-1	-1	500	0.0	fixation	poldrack-single-stim	207	627671	0.0-13.5-0.5	beast_fmri_test	330	627327,/	t	<div class = centerbox2><div class = fixation>+</div></div>	none	500.0	test	n/a	n/a	n/a	n/a	n/a	n/a	n/a	n/a	n/a	n/a	n/a	n/a	n/a	n/a	n/a	n/a	n/a	n/a	fixation
31918.969545266591	400.0	n/a	642	71	2750	369.030454733	stim	stop-signal	208	630422	0.0-13.5-1.5	beast_fmri_test	330	628008,/,628687,/,629367,/,630045,/,630727,/	t,t,t,t,t	<img class = center src='/static/experiments/beast_fmri_test/images/D.png'></img>	71,89	2750.0	test	<img class = center src='/static/experiments/beast_fmri_test/images/redD.png'></img>	stop	2350.0	1.0	5.0	stop	non-target	D	71,Index Finger	89,Middle Finger	400.0	400.0	2350.0	2350.0	0.0	400.0	n/a	0.0	go_stim
34268.969545266591	2350.0	n/a	642	71	2750	369.030454733	stim	stop-signal	208	630422	0.0-13.5-1.5	beast_fmri_test	330	628008,/,628687,/,629367,/,630045,/,630727,/	t,t,t,t,t	<img class = center src='/static/experiments/beast_fmri_test/images/D.png'></img>	71,89	2750.0	test	<img class = center src='/static/experiments/beast_fmri_test/images/redD.png'></img>	stop	2350.0	1.0	5.0	stop	non-target	D	71,Index Finger	89,Middle Finger	400.0	400.0	2350.0	2350.0	0.0	400.0	n/a	0.0	stop_stim
34668.969545266591	369.030454733	n/a	642	71	2750	369.030454733	stim	stop-signal	208	630422	0.0-13.5-1.5	beast_fmri_test	330	628008,/,628687,/,629367,/,630045,/,630727,/	t,t,t,t,t	<img class = center src='/static/experiments/beast_fmri_test/images/D.png'></img>	71,89	2750.0	test	<img class = center src='/static/experiments/beast_fmri_test/images/redD.png'></img>	stop	2350.0	1.0	5.0	stop	non-target	D	71,Index Finger	89,Middle Finger	400.0	400.0	2350.0	2350.0	0.0	400.0	n/a	0.0	ITI
35935	500.0	n/a	-1	-1	500	0.0	fixation	poldrack-single-stim	209	631319	0.0-13.6-0.6	beast_fmri_test	330	n/a	n/a	<div class = centerbox2><div class = fixation>+</div></div>	none	500.0	test	n/a	n/a	n/a	n/a	n/a	n/a	n/a	n/a	n/a	n/a	n/a	n/a	n/a	n/a	n/a	n/a	n/a	n/a	fixation
35912.25834684819	2750.0	n/a	898	89	2750	23.7416531518	stim	stop-signal	210	634070	0.0-13.6-1.6	beast_fmri_test	330	631405,/,632086,/,632766,/,633445,/	t,t,t,t	<img class = center src='/static/experiments/beast_fmri_test/images/D.png'></img>	71,89	2750.0	test	<img class = center src='/static/experiments/beast_fmri_test/images/redD.png'></img>	go	2350.0	1.0	6.0	go	target	D	71,Index Finger	89,Middle Finger	400.0	350.0	2350.0	2350.0	0.0	400.0	0.0	n/a	go_stim
38662.25834684819	23.7416531518	n/a	898	89	2750	23.7416531518	stim	stop-signal	210	634070	0.0-13.6-1.6	beast_fmri_test	330	631405,/,632086,/,632766,/,633445,/	t,t,t,t	<img class = center src='/static/experiments/beast_fmri_test/images/D.png'></img>	71,89	2750.0	test	<img class = center src='/static/experiments/beast_fmri_test/images/redD.png'></img>	go	2350.0	1.0	6.0	go	target	D	71,Index Finger	89,Middle Finger	400.0	350.0	2350.0	2350.0	0.0	400.0	0.0	n/a	ITI
39231	500.0	n/a	-1	-1	500	0.0	fixation	poldrack-single-stim	211	634615	0.0-13.7-0.7	beast_fmri_test	330	634124,/	t	<div class = centerbox2><div class = fixation>+</div></div>	none	500.0	test	n/a	n/a	n/a	n/a	n/a	n/a	n/a	n/a	n/a	n/a	n/a	n/a	n/a	n/a	n/a	n/a	n/a	n/a	fixation
36447.970807449659	400.0	n/a	-1	-1	2750	2783.02919255	stim	stop-signal	212	637365	0.0-13.7-1.7	beast_fmri_test	330	634804,/,635483,/,636164,/,636843,/,637524,/,638202,/,638882,/,639561,/	t,t,t,t,t,t,t,t	<img class = center src='/static/experiments/beast_fmri_test/images/D.png'></img>	71,89	2750.0	test	<img class = center src='/static/experiments/beast_fmri_test/images/redD.png'></img>	stop	2350.0	1.0	7.0	stop	target	D	71,Index Finger	89,Middle Finger	400.0	350.0	2350.0	2350.0	0.0	400.0	n/a	1.0	go_stim
38797.970807449659	2350.0	n/a	-1	-1	2750	2783.02919255	stim	stop-signal	212	637365	0.0-13.7-1.7	beast_fmri_test	330	634804,/,635483,/,636164,/,636843,/,637524,/,638202,/,638882,/,639561,/	t,t,t,t,t,t,t,t	<img class = center src='/static/experiments/beast_fmri_test/images/D.png'></img>	71,89	2750.0	test	<img class = center src='/static/experiments/beast_fmri_test/images/redD.png'></img>	stop	2350.0	1.0	7.0	stop	target	D	71,Index Finger	89,Middle Finger	400.0	350.0	2350.0	2350.0	0.0	400.0	n/a	1.0	stop_stim
39197.970807449659	2783.02919255	n/a	-1	-1	2750	2783.02919255	stim	stop-signal	212	637365	0.0-13.7-1.7	beast_fmri_test	330	634804,/,635483,/,636164,/,636843,/,637524,/,638202,/,638882,/,639561,/	t,t,t,t,t,t,t,t	<img class = center src='/static/experiments/beast_fmri_test/images/D.png'></img>	71,89	2750.0	test	<img class = center src='/static/experiments/beast_fmri_test/images/redD.png'></img>	stop	2350.0	1.0	7.0	stop	target	D	71,Index Finger	89,Middle Finger	400.0	350.0	2350.0	2350.0	0.0	400.0	n/a	1.0	ITI
45291	500.0	n/a	-1	-1	500	0.0	fixation	poldrack-single-stim	213	640675	0.0-13.8-0.8	beast_fmri_test	330	640243,/	t	<div class = centerbox2><div class = fixation>+</div></div>	none	500.0	test	n/a	n/a	n/a	n/a	n/a	n/a	n/a	n/a	n/a	n/a	n/a	n/a	n/a	n/a	n/a	n/a	n/a	n/a	fixation
44740.270425406401	2750.0	n/a	717	71	2750	551.729574594	stim	stop-signal	214	643426	0.0-13.8-1.8	beast_fmri_test	330	640922,/,641601,/,642281,/,642959,/,643639,/	t,t,t,t,t	<img class = center src='/static/experiments/beast_fmri_test/images/B.png'></img>	71,89	2750.0	test	<img class = center src='/static/experiments/beast_fmri_test/images/redB.png'></img>	go	2400.0	1.0	8.0	go	non-target	B	71,Index Finger	89,Middle Finger	450.0	350.0	2350.0	2400.0	0.0	350.0	0.0	n/a	go_stim
47490.270425406401	551.729574594	n/a	717	71	2750	551.729574594	stim	stop-signal	214	643426	0.0-13.8-1.8	beast_fmri_test	330	640922,/,641601,/,642281,/,642959,/,643639,/	t,t,t,t,t	<img class = center src='/static/experiments/beast_fmri_test/images/B.png'></img>	71,89	2750.0	test	<img class = center src='/static/experiments/beast_fmri_test/images/redB.png'></img>	go	2400.0	1.0	8.0	go	non-target	B	71,Index Finger	89,Middle Finger	450.0	350.0	2350.0	2400.0	0.0	350.0	0.0	n/a	ITI
49120	500.0	n/a	-1	-1	500	0.0	fixation	poldrack-single-stim	215	644504	0.0-13.9-0.9	beast_fmri_test	330	644319,/	t	<div class = centerbox2><div class = fixation>+</div></div>	none	500.0	test	n/a	n/a	n/a	n/a	n/a	n/a	n/a	n/a	n/a	n/a	n/a	n/a	n/a	n/a	n/a	n/a	n/a	n/a	fixation
48039.643408703269	2750.0	n/a	769	89	2750	1083.3565913	stim	stop-signal	216	647257	0.0-13.9-1.9	beast_fmri_test	330	644998,/,645679,/,646358,/,647038,/,647717,/	t,t,t,t,t	<img class = center src='/static/experiments/beast_fmri_test/images/B.png'></img>	71,89	2750.0	test	<img class = center src='/static/experiments/beast_fmri_test/images/redB.png'></img>	go	2300.0	1.0	9.0	go	target	B	71,Index Finger	89,Middle Finger	450.0	350.0	2300.0	2400.0	0.0	450.0	0.0	n/a	go_stim
50789.643408703269	1083.3565913	n/a	769	89	2750	1083.3565913	stim	stop-signal	216	647257	0.0-13.9-1.9	beast_fmri_test	330	644998,/,645679,/,646358,/,647038,/,647717,/	t,t,t,t,t	<img class = center src='/static/experiments/beast_fmri_test/images/B.png'></img>	71,89	2750.0	test	<img class = center src='/static/experiments/beast_fmri_test/images/redB.png'></img>	go	2300.0	1.0	9.0	go	target	B	71,Index Finger	89,Middle Finger	450.0	350.0	2300.0	2400.0	0.0	450.0	0.0	n/a	ITI
53480	500.0	n/a	-1	-1	500	0.0	fixation	poldrack-single-stim	217	648864	0.0-13.10-0.10	beast_fmri_test	330	648397,/	t	<div class = centerbox2><div class = fixation>+</div></div>	none	500.0	test	n/a	n/a	n/a	n/a	n/a	n/a	n/a	n/a	n/a	n/a	n/a	n/a	n/a	n/a	n/a	n/a	n/a	n/a	fixation
53467.400081704487	2750.0	n/a	768	71	2750	13.5999182955	stim	stop-signal	218	651615	0.0-13.10-1.10	beast_fmri_test	330	649077,/,649758,/,650437,/,651116,/	t,t,t,t	<img class = center src='/static/experiments/beast_fmri_test/images/D.png'></img>	71,89	2750.0	test	<img class = center src='/static/experiments/beast_fmri_test/images/redD.png'></img>	go	2400.0	1.0	10.0	go	non-target	D	71,Index Finger	89,Middle Finger	450.0	350.0	2300.0	2400.0	0.0	350.0	0.0	n/a	go_stim
56217.400081704487	13.5999182955	n/a	768	71	2750	13.5999182955	stim	stop-signal	218	651615	0.0-13.10-1.10	beast_fmri_test	330	649077,/,649758,/,650437,/,651116,/	t,t,t,t	<img class = center src='/static/experiments/beast_fmri_test/images/D.png'></img>	71,89	2750.0	test	<img class = center src='/static/experiments/beast_fmri_test/images/redD.png'></img>	go	2400.0	1.0	10.0	go	non-target	D	71,Index Finger	89,Middle Finger	450.0	350.0	2300.0	2400.0	0.0	350.0	0.0	n/a	ITI
56768	500.0	n/a	-1	-1	500	0.0	fixation	poldrack-single-stim	219	652152	0.0-13.11-0.11	beast_fmri_test	330	651796,/	t	<div class = centerbox2><div class = fixation>+</div></div>	none	500.0	test	n/a	n/a	n/a	n/a	n/a	n/a	n/a	n/a	n/a	n/a	n/a	n/a	n/a	n/a	n/a	n/a	n/a	n/a	fixation
56040.830668177339	2750.0	n/a	844	71	2750	728.169331823	stim	stop-signal	220	654903	0.0-13.11-1.11	beast_fmri_test	330	652475,/,653154,/,653834,/,654515,/,655195,/	t,t,t,t,t	<img class = center src='/static/experiments/beast_fmri_test/images/B.png'></img>	71,89	2750.0	test	<img class = center src='/static/experiments/beast_fmri_test/images/redB.png'></img>	go	2400.0	1.0	11.0	go	non-target	B	71,Index Finger	89,Middle Finger	450.0	350.0	2300.0	2400.0	0.0	350.0	0.0	n/a	go_stim
58790.830668177339	728.169331823	n/a	844	71	2750	728.169331823	stim	stop-signal	220	654903	0.0-13.11-1.11	beast_fmri_test	330	652475,/,653154,/,653834,/,654515,/,655195,/	t,t,t,t,t	<img class = center src='/static/experiments/beast_fmri_test/images/B.png'></img>	71,89	2750.0	test	<img class = center src='/static/experiments/beast_fmri_test/images/redB.png'></img>	go	2400.0	1.0	11.0	go	non-target	B	71,Index Finger	89,Middle Finger	450.0	350.0	2300.0	2400.0	0.0	350.0	0.0	n/a	ITI
60774	500.0	n/a	-1	-1	500	0.0	fixation	poldrack-single-stim	221	656158	0.0-13.12-0.12	beast_fmri_test	330	655874,/	t	<div class = centerbox2><div class = fixation>+</div></div>	none	500.0	test	n/a	n/a	n/a	n/a	n/a	n/a	n/a	n/a	n/a	n/a	n/a	n/a	n/a	n/a	n/a	n/a	n/a	n/a	fixation
58206.427638271824	350.0	n/a	-1	-1	2750	2570.57236173	stim	stop-signal	222	658911	0.0-13.12-1.12	beast_fmri_test	330	656554,/,657232,/,657913,/,658593,/,659274,/,659952,/,660633,/,661312,/	t,t,t,t,t,t,t,t	<img class = center src='/static/experiments/beast_fmri_test/images/T.png'></img>	71,89	2750.0	test	<img class = center src='/static/experiments/beast_fmri_test/images/redT.png'></img>	stop	2400.0	1.0	12.0	stop	non-target	T	71,Index Finger	89,Middle Finger	450.0	350.0	2300.0	2400.0	0.0	350.0	n/a	1.0	go_stim
60606.427638271824	2400.0	n/a	-1	-1	2750	2570.57236173	stim	stop-signal	222	658911	0.0-13.12-1.12	beast_fmri_test	330	656554,/,657232,/,657913,/,658593,/,659274,/,659952,/,660633,/,661312,/	t,t,t,t,t,t,t,t	<img class = center src='/static/experiments/beast_fmri_test/images/T.png'></img>	71,89	2750.0	test	<img class = center src='/static/experiments/beast_fmri_test/images/redT.png'></img>	stop	2400.0	1.0	12.0	stop	non-target	T	71,Index Finger	89,Middle Finger	450.0	350.0	2300.0	2400.0	0.0	350.0	n/a	1.0	stop_stim
60956.427638271824	2570.57236173	n/a	-1	-1	2750	2570.57236173	stim	stop-signal	222	658911	0.0-13.12-1.12	beast_fmri_test	330	656554,/,657232,/,657913,/,658593,/,659274,/,659952,/,660633,/,661312,/	t,t,t,t,t,t,t,t	<img class = center src='/static/experiments/beast_fmri_test/images/T.png'></img>	71,89	2750.0	test	<img class = center src='/static/experiments/beast_fmri_test/images/redT.png'></img>	stop	2400.0	1.0	12.0	stop	non-target	T	71,Index Finger	89,Middle Finger	450.0	350.0	2300.0	2400.0	0.0	350.0	n/a	1.0	ITI
66626	500.0	n/a	-1	-1	500	0.0	fixation	poldrack-single-stim	223	662010	0.0-13.13-0.13	beast_fmri_test	330	661990,/	t	<div class = centerbox2><div class = fixation>+</div></div>	none	500.0	test	n/a	n/a	n/a	n/a	n/a	n/a	n/a	n/a	n/a	n/a	n/a	n/a	n/a	n/a	n/a	n/a	n/a	n/a	fixation
64967.245686079608	2750.0	n/a	570	71	2750	1661.75431392	stim	stop-signal	224	664763	0.0-13.13-1.13	beast_fmri_test	330	662672,/,663350,/,664030,/,664711,/,665390,/,666069,/	t,t,t,t,t,t	<img class = center src='/static/experiments/beast_fmri_test/images/V.png'></img>	71,89	2750.0	test	<img class = center src='/static/experiments/beast_fmri_test/images/redV.png'></img>	go	2350.0	1.0	13.0	go	non-target	V	71,Index Finger	89,Middle Finger	450.0	400.0	2300.0	2350.0	0.0	400.0	0.0	n/a	go_stim
67717.245686079608	1661.75431392	n/a	570	71	2750	1661.75431392	stim	stop-signal	224	664763	0.0-13.13-1.13	beast_fmri_test	330	662672,/,663350,/,664030,/,664711,/,665390,/,666069,/	t,t,t,t,t,t	<img class = center src='/static/experiments/beast_fmri_test/images/V.png'></img>	71,89	2750.0	test	<img class = center src='/static/experiments/beast_fmri_test/images/redV.png'></img>	go	2350.0	1.0	13.0	go	non-target	V	71,Index Finger	89,Middle Finger	450.0	400.0	2300.0	2350.0	0.0	400.0	0.0	n/a	ITI
71567	500.0	n/a	-1	-1	500	0.0	fixation	poldrack-single-stim	225	666951	0.0-13.14-0.14	beast_fmri_test	330	666750,/	t	<div class = centerbox2><div class = fixation>+</div></div>	none	500.0	test	n/a	n/a	n/a	n/a	n/a	n/a	n/a	n/a	n/a	n/a	n/a	n/a	n/a	n/a	n/a	n/a	n/a	n/a	fixation
70513.515728258411	400.0	n/a	689	71	2750	1055.48427174	stim	stop-signal	226	669703	0.0-13.14-1.14	beast_fmri_test	330	667429,/,668107,/,668789,/,669468,/,670147,/	t,t,t,t,t	<img class = center src='/static/experiments/beast_fmri_test/images/B.png'></img>	71,89	2750.0	test	<img class = center src='/static/experiments/beast_fmri_test/images/redB.png'></img>	stop	2350.0	1.0	14.0	stop	non-target	B	71,Index Finger	89,Middle Finger	450.0	400.0	2300.0	2350.0	0.0	400.0	n/a	0.0	go_stim
72863.515728258411	2350.0	n/a	689	71	2750	1055.48427174	stim	stop-signal	226	669703	0.0-13.14-1.14	beast_fmri_test	330	667429,/,668107,/,668789,/,669468,/,670147,/	t,t,t,t,t	<img class = center src='/static/experiments/beast_fmri_test/images/B.png'></img>	71,89	2750.0	test	<img class = center src='/static/experiments/beast_fmri_test/images/redB.png'></img>	stop	2350.0	1.0	14.0	stop	non-target	B	71,Index Finger	89,Middle Finger	450.0	400.0	2300.0	2350.0	0.0	400.0	n/a	0.0	stop_stim
73263.515728258411	1055.48427174	n/a	689	71	2750	1055.48427174	stim	stop-signal	226	669703	0.0-13.14-1.14	beast_fmri_test	330	667429,/,668107,/,668789,/,669468,/,670147,/	t,t,t,t,t	<img class = center src='/static/experiments/beast_fmri_test/images/B.png'></img>	71,89	2750.0	test	<img class = center src='/static/experiments/beast_fmri_test/images/redB.png'></img>	stop	2350.0	1.0	14.0	stop	non-target	B	71,Index Finger	89,Middle Finger	450.0	400.0	2300.0	2350.0	0.0	400.0	n/a	0.0	ITI
75906	500.0	n/a	-1	-1	500	0.0	fixation	poldrack-single-stim	227	671290	0.0-13.15-0.15	beast_fmri_test	330	670827,/	t	<div class = centerbox2><div class = fixation>+</div></div>	none	500.0	test	n/a	n/a	n/a	n/a	n/a	n/a	n/a	n/a	n/a	n/a	n/a	n/a	n/a	n/a	n/a	n/a	n/a	n/a	fixation
75680.24939549563	2750.0	n/a	615	71	2750	226.750604504	stim	stop-signal	228	674041	0.0-13.15-1.15	beast_fmri_test	330	671507,/,672186,/,672866,/,673546,/,674225,/	t,t,t,t,t	<img class = center src='/static/experiments/beast_fmri_test/images/T.png'></img>	71,89	2750.0	test	<img class = center src='/static/experiments/beast_fmri_test/images/redT.png'></img>	go	2400.0	1.0	15.0	go	non-target	T	71,Index Finger	89,Middle Finger	450.0	350.0	2300.0	2400.0	0.0	350.0	0.0	n/a	go_stim
78430.24939549563	226.750604504	n/a	615	71	2750	226.750604504	stim	stop-signal	228	674041	0.0-13.15-1.15	beast_fmri_test	330	671507,/,672186,/,672866,/,673546,/,674225,/	t,t,t,t,t	<img class = center src='/static/experiments/beast_fmri_test/images/T.png'></img>	71,89	2750.0	test	<img class = center src='/static/experiments/beast_fmri_test/images/redT.png'></img>	go	2400.0	1.0	15.0	go	non-target	T	71,Index Finger	89,Middle Finger	450.0	350.0	2300.0	2400.0	0.0	350.0	0.0	n/a	ITI
79413	500.0	n/a	-1	-1	500	0.0	fixation	poldrack-single-stim	229	674797	0.0-13.16-0.16	beast_fmri_test	330	n/a	n/a	<div class = centerbox2><div class = fixation>+</div></div>	none	500.0	test	n/a	n/a	n/a	n/a	n/a	n/a	n/a	n/a	n/a	n/a	n/a	n/a	n/a	n/a	n/a	n/a	n/a	n/a	fixation
76994.444220243255	2750.0	n/a	563	71	2750	2420.55577976	stim	stop-signal	230	677549	0.0-13.16-1.16	beast_fmri_test	330	674905,/,675586,/,676264,/,676943,/,677625,/,678303,/,678983,/,679663,/	t,t,t,t,t,t,t,t	<img class = center src='/static/experiments/beast_fmri_test/images/B.png'></img>	71,89	2750.0	test	<img class = center src='/static/experiments/beast_fmri_test/images/redB.png'></img>	go	2400.0	1.0	16.0	go	non-target	B	71,Index Finger	89,Middle Finger	450.0	350.0	2300.0	2400.0	0.0	350.0	0.0	n/a	go_stim
79744.444220243255	2420.55577976	n/a	563	71	2750	2420.55577976	stim	stop-signal	230	677549	0.0-13.16-1.16	beast_fmri_test	330	674905,/,675586,/,676264,/,676943,/,677625,/,678303,/,678983,/,679663,/	t,t,t,t,t,t,t,t	<img class = center src='/static/experiments/beast_fmri_test/images/B.png'></img>	71,89	2750.0	test	<img class = center src='/static/experiments/beast_fmri_test/images/redB.png'></img>	go	2400.0	1.0	16.0	go	non-target	B	71,Index Finger	89,Middle Finger	450.0	350.0	2300.0	2400.0	0.0	350.0	0.0	n/a	ITI
85112	500.0	n/a	-1	-1	500	0.0	fixation	poldrack-single-stim	231	680496	0.0-13.17-0.17	beast_fmri_test	330	680344,/	t	<div class = centerbox2><div class = fixation>+</div></div>	none	500.0	test	n/a	n/a	n/a	n/a	n/a	n/a	n/a	n/a	n/a	n/a	n/a	n/a	n/a	n/a	n/a	n/a	n/a	n/a	fixation
83843.143898117472	350.0	n/a	-1	-1	2750	1270.85610188	stim	stop-signal	232	683248	0.0-13.17-1.17	beast_fmri_test	330	681021,/,681702,/,682381,/,683060,/,683741,/,684421,/	t,t,t,t,t,t	<img class = center src='/static/experiments/beast_fmri_test/images/P.png'></img>	71,89	2750.0	test	<img class = center src='/static/experiments/beast_fmri_test/images/redP.png'></img>	stop	2400.0	1.0	17.0	stop	non-target	P	71,Index Finger	89,Middle Finger	450.0	350.0	2300.0	2400.0	0.0	350.0	n/a	1.0	go_stim
86243.143898117472	2400.0	n/a	-1	-1	2750	1270.85610188	stim	stop-signal	232	683248	0.0-13.17-1.17	beast_fmri_test	330	681021,/,681702,/,682381,/,683060,/,683741,/,684421,/	t,t,t,t,t,t	<img class = center src='/static/experiments/beast_fmri_test/images/P.png'></img>	71,89	2750.0	test	<img class = center src='/static/experiments/beast_fmri_test/images/redP.png'></img>	stop	2400.0	1.0	17.0	stop	non-target	P	71,Index Finger	89,Middle Finger	450.0	350.0	2300.0	2400.0	0.0	350.0	n/a	1.0	stop_stim
86593.143898117472	1270.85610188	n/a	-1	-1	2750	1270.85610188	stim	stop-signal	232	683248	0.0-13.17-1.17	beast_fmri_test	330	681021,/,681702,/,682381,/,683060,/,683741,/,684421,/	t,t,t,t,t,t	<img class = center src='/static/experiments/beast_fmri_test/images/P.png'></img>	71,89	2750.0	test	<img class = center src='/static/experiments/beast_fmri_test/images/redP.png'></img>	stop	2400.0	1.0	17.0	stop	non-target	P	71,Index Finger	89,Middle Finger	450.0	350.0	2300.0	2400.0	0.0	350.0	n/a	1.0	ITI
89663	500.0	n/a	-1	-1	500	0.0	fixation	poldrack-single-stim	233	685047	0.0-13.18-0.18	beast_fmri_test	330	n/a	n/a	<div class = centerbox2><div class = fixation>+</div></div>	none	500.0	test	n/a	n/a	n/a	n/a	n/a	n/a	n/a	n/a	n/a	n/a	n/a	n/a	n/a	n/a	n/a	n/a	n/a	n/a	fixation
89592.798235036433	2750.0	n/a	768	89	2750	71.2017649636	stim	stop-signal	234	687798	0.0-13.18-1.18	beast_fmri_test	330	685100,/,685780,/,686460,/,687141,/,687820,/	t,t,t,t,t	<img class = center src='/static/experiments/beast_fmri_test/images/P.png'></img>	71,89	2750.0	test	<img class = center src='/static/experiments/beast_fmri_test/images/redP.png'></img>	go	2300.0	1.0	18.0	go	target	P	71,Index Finger	89,Middle Finger	450.0	400.0	2300.0	2400.0	0.0	450.0	0.0	n/a	go_stim
92342.798235036433	71.2017649636	n/a	768	89	2750	71.2017649636	stim	stop-signal	234	687798	0.0-13.18-1.18	beast_fmri_test	330	685100,/,685780,/,686460,/,687141,/,687820,/	t,t,t,t,t	<img class = center src='/static/experiments/beast_fmri_test/images/P.png'></img>	71,89	2750.0	test	<img class = center src='/static/experiments/beast_fmri_test/images/redP.png'></img>	go	2300.0	1.0	18.0	go	target	P	71,Index Finger	89,Middle Finger	450.0	400.0	2300.0	2400.0	0.0	450.0	0.0	n/a	ITI
93013	500.0	n/a	-1	-1	500	0.0	fixation	poldrack-single-stim	235	688397	0.0-13.19-0.19	beast_fmri_test	330	n/a	n/a	<div class = centerbox2><div class = fixation>+</div></div>	none	500.0	test	n/a	n/a	n/a	n/a	n/a	n/a	n/a	n/a	n/a	n/a	n/a	n/a	n/a	n/a	n/a	n/a	n/a	n/a	fixation
92627.967837257311	2750.0	n/a	708	89	2750	386.032162743	stim	stop-signal	236	691148	0.0-13.19-1.19	beast_fmri_test	330	688500,/,689180,/,689858,/,690538,/,691217,/	t,t,t,t,t	<img class = center src='/static/experiments/beast_fmri_test/images/P.png'></img>	71,89	2750.0	test	<img class = center src='/static/experiments/beast_fmri_test/images/redP.png'></img>	go	2300.0	1.0	19.0	go	target	P	71,Index Finger	89,Middle Finger	450.0	400.0	2300.0	2400.0	0.0	450.0	0.0	n/a	go_stim
95377.967837257311	386.032162743	n/a	708	89	2750	386.032162743	stim	stop-signal	236	691148	0.0-13.19-1.19	beast_fmri_test	330	688500,/,689180,/,689858,/,690538,/,691217,/	t,t,t,t,t	<img class = center src='/static/experiments/beast_fmri_test/images/P.png'></img>	71,89	2750.0	test	<img class = center src='/static/experiments/beast_fmri_test/images/redP.png'></img>	go	2300.0	1.0	19.0	go	target	P	71,Index Finger	89,Middle Finger	450.0	400.0	2300.0	2400.0	0.0	450.0	0.0	n/a	ITI
96677	500.0	n/a	-1	-1	500	0.0	fixation	poldrack-single-stim	237	692061	0.0-13.20-0.20	beast_fmri_test	330	691897,/	t	<div class = centerbox2><div class = fixation>+</div></div>	none	500.0	test	n/a	n/a	n/a	n/a	n/a	n/a	n/a	n/a	n/a	n/a	n/a	n/a	n/a	n/a	n/a	n/a	n/a	n/a	fixation
94578.67473328847	450.0	n/a	522	89	2750	2101.32526671	stim	stop-signal	238	694814	0.0-13.20-1.20	beast_fmri_test	330	692578,/,693257,/,693937,/,694617,/,695295,/,695975,/,696655,/	t,t,t,t,t,t,t	<img class = center src='/static/experiments/beast_fmri_test/images/P.png'></img>	71,89	2750.0	test	<img class = center src='/static/experiments/beast_fmri_test/images/redP.png'></img>	stop	2300.0	1.0	20.0	stop	target	P	71,Index Finger	89,Middle Finger	450.0	400.0	2300.0	2400.0	0.0	450.0	n/a	0.0	go_stim
96878.67473328847	2300.0	n/a	522	89	2750	2101.32526671	stim	stop-signal	238	694814	0.0-13.20-1.20	beast_fmri_test	330	692578,/,693257,/,693937,/,694617,/,695295,/,695975,/,696655,/	t,t,t,t,t,t,t	<img class = center src='/static/experiments/beast_fmri_test/images/P.png'></img>	71,89	2750.0	test	<img class = center src='/static/experiments/beast_fmri_test/images/redP.png'></img>	stop	2300.0	1.0	20.0	stop	target	P	71,Index Finger	89,Middle Finger	450.0	400.0	2300.0	2400.0	0.0	450.0	n/a	0.0	stop_stim
97328.67473328847	2101.32526671	n/a	522	89	2750	2101.32526671	stim	stop-signal	238	694814	0.0-13.20-1.20	beast_fmri_test	330	692578,/,693257,/,693937,/,694617,/,695295,/,695975,/,696655,/	t,t,t,t,t,t,t	<img class = center src='/static/experiments/beast_fmri_test/images/P.png'></img>	71,89	2750.0	test	<img class = center src='/static/experiments/beast_fmri_test/images/redP.png'></img>	stop	2300.0	1.0	20.0	stop	target	P	71,Index Finger	89,Middle Finger	450.0	400.0	2300.0	2400.0	0.0	450.0	n/a	0.0	ITI
102064	500.0	n/a	-1	-1	500	0.0	fixation	poldrack-single-stim	239	697448	0.0-13.21-0.21	beast_fmri_test	330	697336,/	t	<div class = centerbox2><div class = fixation>+</div></div>	none	500.0	test	n/a	n/a	n/a	n/a	n/a	n/a	n/a	n/a	n/a	n/a	n/a	n/a	n/a	n/a	n/a	n/a	n/a	n/a	fixation
102030.80347227352	2750.0	n/a	788	89	2750	34.1965277265	stim	stop-signal	240	700199	0.0-13.21-1.21	beast_fmri_test	330	698016,/,698694,/,699375,/,700053,/	t,t,t,t	<img class = center src='/static/experiments/beast_fmri_test/images/P.png'></img>	71,89	2750.0	test	<img class = center src='/static/experiments/beast_fmri_test/images/redP.png'></img>	go	2350.0	1.0	21.0	go	target	P	71,Index Finger	89,Middle Finger	400.0	400.0	2350.0	2400.0	0.0	400.0	0.0	n/a	go_stim
104780.80347227352	34.1965277265	n/a	788	89	2750	34.1965277265	stim	stop-signal	240	700199	0.0-13.21-1.21	beast_fmri_test	330	698016,/,698694,/,699375,/,700053,/	t,t,t,t	<img class = center src='/static/experiments/beast_fmri_test/images/P.png'></img>	71,89	2750.0	test	<img class = center src='/static/experiments/beast_fmri_test/images/redP.png'></img>	go	2350.0	1.0	21.0	go	target	P	71,Index Finger	89,Middle Finger	400.0	400.0	2350.0	2400.0	0.0	400.0	0.0	n/a	ITI
105375	500.0	n/a	-1	-1	500	0.0	fixation	poldrack-single-stim	241	700759	0.0-13.22-0.22	beast_fmri_test	330	700733,/	t	<div class = centerbox2><div class = fixation>+</div></div>	none	500.0	test	n/a	n/a	n/a	n/a	n/a	n/a	n/a	n/a	n/a	n/a	n/a	n/a	n/a	n/a	n/a	n/a	n/a	n/a	fixation
104233.3011339386	400.0	n/a	-1	-1	2750	1142.69886606	stim	stop-signal	242	703510	0.0-13.22-1.22	beast_fmri_test	330	701414,/,702094,/,702773,/,703453,/,704131,/	t,t,t,t,t	<img class = center src='/static/experiments/beast_fmri_test/images/D.png'></img>	71,89	2750.0	test	<img class = center src='/static/experiments/beast_fmri_test/images/redD.png'></img>	stop	2350.0	1.0	22.0	stop	non-target	D	71,Index Finger	89,Middle Finger	400.0	400.0	2350.0	2350.0	0.0	400.0	n/a	1.0	go_stim
106583.3011339386	2350.0	n/a	-1	-1	2750	1142.69886606	stim	stop-signal	242	703510	0.0-13.22-1.22	beast_fmri_test	330	701414,/,702094,/,702773,/,703453,/,704131,/	t,t,t,t,t	<img class = center src='/static/experiments/beast_fmri_test/images/D.png'></img>	71,89	2750.0	test	<img class = center src='/static/experiments/beast_fmri_test/images/redD.png'></img>	stop	2350.0	1.0	22.0	stop	non-target	D	71,Index Finger	89,Middle Finger	400.0	400.0	2350.0	2350.0	0.0	400.0	n/a	1.0	stop_stim
106983.3011339386	1142.69886606	n/a	-1	-1	2750	1142.69886606	stim	stop-signal	242	703510	0.0-13.22-1.22	beast_fmri_test	330	701414,/,702094,/,702773,/,703453,/,704131,/	t,t,t,t,t	<img class = center src='/static/experiments/beast_fmri_test/images/D.png'></img>	71,89	2750.0	test	<img class = center src='/static/experiments/beast_fmri_test/images/redD.png'></img>	stop	2350.0	1.0	22.0	stop	non-target	D	71,Index Finger	89,Middle Finger	400.0	400.0	2350.0	2350.0	0.0	400.0	n/a	1.0	ITI
109797	500.0	n/a	-1	-1	500	0.0	fixation	poldrack-single-stim	243	705181	0.0-13.23-0.23	beast_fmri_test	330	704811,/	t	<div class = centerbox2><div class = fixation>+</div></div>	none	500.0	test	n/a	n/a	n/a	n/a	n/a	n/a	n/a	n/a	n/a	n/a	n/a	n/a	n/a	n/a	n/a	n/a	n/a	n/a	fixation
109735.43576685921	2750.0	n/a	564	71	2750	66.5642331407	stim	stop-signal	244	707936	0.0-13.23-1.23	beast_fmri_test	330	705490,/,706170,/,706851,/,707530,/	t,t,t,t	<img class = center src='/static/experiments/beast_fmri_test/images/D.png'></img>	71,89	2750.0	test	<img class = center src='/static/experiments/beast_fmri_test/images/redD.png'></img>	go	2350.0	1.0	23.0	go	target	D	71,Index Finger	89,Middle Finger	400.0	450.0	2350.0	2350.0	1.0	400.0	1.0	n/a	go_stim
112485.43576685921	66.5642331407	n/a	564	71	2750	66.5642331407	stim	stop-signal	244	707936	0.0-13.23-1.23	beast_fmri_test	330	705490,/,706170,/,706851,/,707530,/	t,t,t,t	<img class = center src='/static/experiments/beast_fmri_test/images/D.png'></img>	71,89	2750.0	test	<img class = center src='/static/experiments/beast_fmri_test/images/redD.png'></img>	go	2350.0	1.0	23.0	go	target	D	71,Index Finger	89,Middle Finger	400.0	450.0	2350.0	2350.0	1.0	400.0	1.0	n/a	ITI
113146	500.0	n/a	-1	-1	500	0.0	fixation	poldrack-single-stim	245	708530	0.0-13.24-0.24	beast_fmri_test	330	708210,/	t	<div class = centerbox2><div class = fixation>+</div></div>	none	500.0	test	n/a	n/a	n/a	n/a	n/a	n/a	n/a	n/a	n/a	n/a	n/a	n/a	n/a	n/a	n/a	n/a	n/a	n/a	fixation
112952.51227936405	400.0	n/a	-1	-1	2750	194.487720636	stim	stop-signal	246	711281	0.0-13.24-1.24	beast_fmri_test	330	708890,/,709569,/,710248,/,710928,/	t,t,t,t	<img class = center src='/static/experiments/beast_fmri_test/images/D.png'></img>	71,89	2750.0	test	<img class = center src='/static/experiments/beast_fmri_test/images/redD.png'></img>	stop	2350.0	1.0	24.0	stop	target	D	71,Index Finger	89,Middle Finger	400.0	450.0	2350.0	2350.0	0.0	400.0	n/a	1.0	go_stim
115302.51227936405	2350.0	n/a	-1	-1	2750	194.487720636	stim	stop-signal	246	711281	0.0-13.24-1.24	beast_fmri_test	330	708890,/,709569,/,710248,/,710928,/	t,t,t,t	<img class = center src='/static/experiments/beast_fmri_test/images/D.png'></img>	71,89	2750.0	test	<img class = center src='/static/experiments/beast_fmri_test/images/redD.png'></img>	stop	2350.0	1.0	24.0	stop	target	D	71,Index Finger	89,Middle Finger	400.0	450.0	2350.0	2350.0	0.0	400.0	n/a	1.0	stop_stim
115702.51227936405	194.487720636	n/a	-1	-1	2750	194.487720636	stim	stop-signal	246	711281	0.0-13.24-1.24	beast_fmri_test	330	708890,/,709569,/,710248,/,710928,/	t,t,t,t	<img class = center src='/static/experiments/beast_fmri_test/images/D.png'></img>	71,89	2750.0	test	<img class = center src='/static/experiments/beast_fmri_test/images/redD.png'></img>	stop	2350.0	1.0	24.0	stop	target	D	71,Index Finger	89,Middle Finger	400.0	450.0	2350.0	2350.0	0.0	400.0	n/a	1.0	ITI
116619	500.0	n/a	-1	-1	500	0.0	fixation	poldrack-single-stim	247	712003	0.0-13.25-0.25	beast_fmri_test	330	711608,/	t	<div class = centerbox2><div class = fixation>+</div></div>	none	500.0	test	n/a	n/a	n/a	n/a	n/a	n/a	n/a	n/a	n/a	n/a	n/a	n/a	n/a	n/a	n/a	n/a	n/a	n/a	fixation
114440.37979837914	450.0	n/a	692	71	2750	2179.62020162	stim	stop-signal	248	714754	0.0-13.25-1.25	beast_fmri_test	330	712288,/,712968,/,713647,/,714328,/,715006,/,715688,/,716366,/	t,t,t,t,t,t,t	<img class = center src='/static/experiments/beast_fmri_test/images/B.png'></img>	71,89	2750.0	test	<img class = center src='/static/experiments/beast_fmri_test/images/redB.png'></img>	stop	2300.0	1.0	25.0	stop	non-target	B	71,Index Finger	89,Middle Finger	450.0	450.0	2350.0	2300.0	0.0	450.0	n/a	0.0	go_stim
116740.37979837914	2300.0	n/a	692	71	2750	2179.62020162	stim	stop-signal	248	714754	0.0-13.25-1.25	beast_fmri_test	330	712288,/,712968,/,713647,/,714328,/,715006,/,715688,/,716366,/	t,t,t,t,t,t,t	<img class = center src='/static/experiments/beast_fmri_test/images/B.png'></img>	71,89	2750.0	test	<img class = center src='/static/experiments/beast_fmri_test/images/redB.png'></img>	stop	2300.0	1.0	25.0	stop	non-target	B	71,Index Finger	89,Middle Finger	450.0	450.0	2350.0	2300.0	0.0	450.0	n/a	0.0	stop_stim
117190.37979837914	2179.62020162	n/a	692	71	2750	2179.62020162	stim	stop-signal	248	714754	0.0-13.25-1.25	beast_fmri_test	330	712288,/,712968,/,713647,/,714328,/,715006,/,715688,/,716366,/	t,t,t,t,t,t,t	<img class = center src='/static/experiments/beast_fmri_test/images/B.png'></img>	71,89	2750.0	test	<img class = center src='/static/experiments/beast_fmri_test/images/redB.png'></img>	stop	2300.0	1.0	25.0	stop	non-target	B	71,Index Finger	89,Middle Finger	450.0	450.0	2350.0	2300.0	0.0	450.0	n/a	0.0	ITI
122078	500.0	n/a	-1	-1	500	0.0	fixation	poldrack-single-stim	249	717462	0.0-13.26-0.26	beast_fmri_test	330	717046,/	t	<div class = centerbox2><div class = fixation>+</div></div>	none	500.0	test	n/a	n/a	n/a	n/a	n/a	n/a	n/a	n/a	n/a	n/a	n/a	n/a	n/a	n/a	n/a	n/a	n/a	n/a	fixation
122049.40402393695	450.0	n/a	605	89	2750	29.595976063	stim	stop-signal	250	720213	0.0-13.26-1.26	beast_fmri_test	330	717726,/,718405,/,719084,/,719765,/	t,t,t,t	<img class = center src='/static/experiments/beast_fmri_test/images/B.png'></img>	71,89	2750.0	test	<img class = center src='/static/experiments/beast_fmri_test/images/redB.png'></img>	stop	2300.0	1.0	26.0	stop	target	B	71,Index Finger	89,Middle Finger	450.0	400.0	2300.0	2300.0	0.0	450.0	n/a	0.0	go_stim
124349.40402393695	2300.0	n/a	605	89	2750	29.595976063	stim	stop-signal	250	720213	0.0-13.26-1.26	beast_fmri_test	330	717726,/,718405,/,719084,/,719765,/	t,t,t,t	<img class = center src='/static/experiments/beast_fmri_test/images/B.png'></img>	71,89	2750.0	test	<img class = center src='/static/experiments/beast_fmri_test/images/redB.png'></img>	stop	2300.0	1.0	26.0	stop	target	B	71,Index Finger	89,Middle Finger	450.0	400.0	2300.0	2300.0	0.0	450.0	n/a	0.0	stop_stim
124799.40402393695	29.595976063	n/a	605	89	2750	29.595976063	stim	stop-signal	250	720213	0.0-13.26-1.26	beast_fmri_test	330	717726,/,718405,/,719084,/,719765,/	t,t,t,t	<img class = center src='/static/experiments/beast_fmri_test/images/B.png'></img>	71,89	2750.0	test	<img class = center src='/static/experiments/beast_fmri_test/images/redB.png'></img>	stop	2300.0	1.0	26.0	stop	target	B	71,Index Finger	89,Middle Finger	450.0	400.0	2300.0	2300.0	0.0	450.0	n/a	0.0	ITI
125387	500.0	n/a	-1	-1	500	0.0	fixation	poldrack-single-stim	251	720771	0.0-13.27-0.27	beast_fmri_test	330	720445,/	t	<div class = centerbox2><div class = fixation>+</div></div>	none	500.0	test	n/a	n/a	n/a	n/a	n/a	n/a	n/a	n/a	n/a	n/a	n/a	n/a	n/a	n/a	n/a	n/a	n/a	n/a	fixation
123717.25953789719	2750.0	n/a	704	71	2750	1669.7404621	stim	stop-signal	252	723521	0.0-13.27-1.27	beast_fmri_test	330	721124,/,721805,/,722484,/,723163,/,723842,/,724522,/	t,t,t,t,t,t	<img class = center src='/static/experiments/beast_fmri_test/images/V.png'></img>	71,89	2750.0	test	<img class = center src='/static/experiments/beast_fmri_test/images/redV.png'></img>	go	2350.0	1.0	27.0	go	non-target	V	71,Index Finger	89,Middle Finger	400.0	400.0	2300.0	2350.0	0.0	400.0	0.0	n/a	go_stim
126467.25953789719	1669.7404621	n/a	704	71	2750	1669.7404621	stim	stop-signal	252	723521	0.0-13.27-1.27	beast_fmri_test	330	721124,/,721805,/,722484,/,723163,/,723842,/,724522,/	t,t,t,t,t,t	<img class = center src='/static/experiments/beast_fmri_test/images/V.png'></img>	71,89	2750.0	test	<img class = center src='/static/experiments/beast_fmri_test/images/redV.png'></img>	go	2350.0	1.0	27.0	go	non-target	V	71,Index Finger	89,Middle Finger	400.0	400.0	2300.0	2350.0	0.0	400.0	0.0	n/a	ITI
130336	500.0	n/a	-1	-1	500	0.0	fixation	poldrack-single-stim	253	725720	0.0-13.28-0.28	beast_fmri_test	330	725218,/	t	<div class = centerbox2><div class = fixation>+</div></div>	none	500.0	test	n/a	n/a	n/a	n/a	n/a	n/a	n/a	n/a	n/a	n/a	n/a	n/a	n/a	n/a	n/a	n/a	n/a	n/a	fixation
126531.17312037945	2750.0	n/a	828	71	2750	3806.82687962	stim	stop-signal	254	728472	0.0-13.28-1.28	beast_fmri_test	330	725882,/,726562,/,727241,/,727920,/,728611,/,729281,/,729960,/,730641,/,731320,/,731998,/	t,t,t,t,t,t,t,t,t,t	<img class = center src='/static/experiments/beast_fmri_test/images/T.png'></img>	71,89	2750.0	test	<img class = center src='/static/experiments/beast_fmri_test/images/redT.png'></img>	go	2350.0	1.0	28.0	go	non-target	T	71,Index Finger	89,Middle Finger	400.0	400.0	2300.0	2350.0	0.0	400.0	0.0	n/a	go_stim
129281.17312037945	3806.82687962	n/a	828	71	2750	3806.82687962	stim	stop-signal	254	728472	0.0-13.28-1.28	beast_fmri_test	330	725882,/,726562,/,727241,/,727920,/,728611,/,729281,/,729960,/,730641,/,731320,/,731998,/	t,t,t,t,t,t,t,t,t,t	<img class = center src='/static/experiments/beast_fmri_test/images/T.png'></img>	71,89	2750.0	test	<img class = center src='/static/experiments/beast_fmri_test/images/redT.png'></img>	go	2350.0	1.0	28.0	go	non-target	T	71,Index Finger	89,Middle Finger	400.0	400.0	2300.0	2350.0	0.0	400.0	0.0	n/a	ITI
137420	500.0	n/a	-1	-1	500	0.0	fixation	poldrack-single-stim	255	732804	0.0-13.29-0.29	beast_fmri_test	330	732678,/	t	<div class = centerbox2><div class = fixation>+</div></div>	none	500.0	test	n/a	n/a	n/a	n/a	n/a	n/a	n/a	n/a	n/a	n/a	n/a	n/a	n/a	n/a	n/a	n/a	n/a	n/a	fixation
136390.37727914006	2750.0	n/a	895	71	2750	1031.62272086	stim	stop-signal	256	735556	0.0-13.29-1.29	beast_fmri_test	330	733357,/,734037,/,734718,/,735398,/,736077,/	t,t,t,t,t	<img class = center src='/static/experiments/beast_fmri_test/images/D.png'></img>	71,89	2750.0	test	<img class = center src='/static/experiments/beast_fmri_test/images/redD.png'></img>	go	2350.0	1.0	29.0	go	non-target	D	71,Index Finger	89,Middle Finger	400.0	400.0	2300.0	2350.0	0.0	400.0	0.0	n/a	go_stim
139140.37727914006	1031.62272086	n/a	895	71	2750	1031.62272086	stim	stop-signal	256	735556	0.0-13.29-1.29	beast_fmri_test	330	733357,/,734037,/,734718,/,735398,/,736077,/	t,t,t,t,t	<img class = center src='/static/experiments/beast_fmri_test/images/D.png'></img>	71,89	2750.0	test	<img class = center src='/static/experiments/beast_fmri_test/images/redD.png'></img>	go	2350.0	1.0	29.0	go	non-target	D	71,Index Finger	89,Middle Finger	400.0	400.0	2300.0	2350.0	0.0	400.0	0.0	n/a	ITI
141733	500.0	n/a	-1	-1	500	0.0	fixation	poldrack-single-stim	257	737117	0.0-13.30-0.30	beast_fmri_test	330	736757,/	t	<div class = centerbox2><div class = fixation>+</div></div>	none	500.0	test	n/a	n/a	n/a	n/a	n/a	n/a	n/a	n/a	n/a	n/a	n/a	n/a	n/a	n/a	n/a	n/a	n/a	n/a	fixation
140782.87004599115	2750.0	n/a	638	89	2750	952.129954009	stim	stop-signal	258	739869	0.0-13.30-1.30	beast_fmri_test	330	737436,/,738115,/,738797,/,739474,/,740155,/	t,t,t,t,t	<img class = center src='/static/experiments/beast_fmri_test/images/D.png'></img>	71,89	2750.0	test	<img class = center src='/static/experiments/beast_fmri_test/images/redD.png'></img>	go	2350.0	1.0	30.0	go	target	D	71,Index Finger	89,Middle Finger	400.0	400.0	2350.0	2350.0	0.0	400.0	0.0	n/a	go_stim
143532.87004599115	952.129954009	n/a	638	89	2750	952.129954009	stim	stop-signal	258	739869	0.0-13.30-1.30	beast_fmri_test	330	737436,/,738115,/,738797,/,739474,/,740155,/	t,t,t,t,t	<img class = center src='/static/experiments/beast_fmri_test/images/D.png'></img>	71,89	2750.0	test	<img class = center src='/static/experiments/beast_fmri_test/images/redD.png'></img>	go	2350.0	1.0	30.0	go	target	D	71,Index Finger	89,Middle Finger	400.0	400.0	2350.0	2350.0	0.0	400.0	0.0	n/a	ITI
145967	500.0	n/a	-1	-1	500	0.0	fixation	poldrack-single-stim	259	741351	0.0-13.31-0.31	beast_fmri_test	330	740851,/	t	<div class = centerbox2><div class = fixation>+</div></div>	none	500.0	test	n/a	n/a	n/a	n/a	n/a	n/a	n/a	n/a	n/a	n/a	n/a	n/a	n/a	n/a	n/a	n/a	n/a	n/a	fixation
144505.04497084045	2750.0	n/a	593	71	2750	1462.95502916	stim	stop-signal	260	744102	0.0-13.31-1.31	beast_fmri_test	330	741516,/,742194,/,742876,/,743552,/,744234,/,744914,/	t,t,t,t,t,t	<img class = center src='/static/experiments/beast_fmri_test/images/V.png'></img>	71,89	2750.0	test	<img class = center src='/static/experiments/beast_fmri_test/images/redV.png'></img>	go	2350.0	1.0	31.0	go	non-target	V	71,Index Finger	89,Middle Finger	400.0	400.0	2350.0	2350.0	0.0	400.0	0.0	n/a	go_stim
147255.04497084045	1462.95502916	n/a	593	71	2750	1462.95502916	stim	stop-signal	260	744102	0.0-13.31-1.31	beast_fmri_test	330	741516,/,742194,/,742876,/,743552,/,744234,/,744914,/	t,t,t,t,t,t	<img class = center src='/static/experiments/beast_fmri_test/images/V.png'></img>	71,89	2750.0	test	<img class = center src='/static/experiments/beast_fmri_test/images/redV.png'></img>	go	2350.0	1.0	31.0	go	non-target	V	71,Index Finger	89,Middle Finger	400.0	400.0	2350.0	2350.0	0.0	400.0	0.0	n/a	ITI
150709	500.0	n/a	-1	-1	500	0.0	fixation	poldrack-single-stim	261	746093	0.0-13.32-0.32	beast_fmri_test	330	745592,/	t	<div class = centerbox2><div class = fixation>+</div></div>	none	500.0	test	n/a	n/a	n/a	n/a	n/a	n/a	n/a	n/a	n/a	n/a	n/a	n/a	n/a	n/a	n/a	n/a	n/a	n/a	fixation
149045.4593211551	2750.0	n/a	808	71	2750	1664.54067884	stim	stop-signal	262	748844	0.0-13.32-1.32	beast_fmri_test	330	746272,/,746951,/,747631,/,748311,/,748991,/,749671,/,750351,/	t,t,t,t,t,t,t	<img class = center src='/static/experiments/beast_fmri_test/images/D.png'></img>	71,89	2750.0	test	<img class = center src='/static/experiments/beast_fmri_test/images/redD.png'></img>	go	2350.0	1.0	32.0	go	non-target	D	71,Index Finger	89,Middle Finger	400.0	400.0	2350.0	2350.0	0.0	400.0	0.0	n/a	go_stim
151795.4593211551	1664.54067884	n/a	808	71	2750	1664.54067884	stim	stop-signal	262	748844	0.0-13.32-1.32	beast_fmri_test	330	746272,/,746951,/,747631,/,748311,/,748991,/,749671,/,750351,/	t,t,t,t,t,t,t	<img class = center src='/static/experiments/beast_fmri_test/images/D.png'></img>	71,89	2750.0	test	<img class = center src='/static/experiments/beast_fmri_test/images/redD.png'></img>	go	2350.0	1.0	32.0	go	non-target	D	71,Index Finger	89,Middle Finger	400.0	400.0	2350.0	2350.0	0.0	400.0	0.0	n/a	ITI
155652	500.0	n/a	-1	-1	500	0.0	fixation	poldrack-single-stim	263	751036	0.0-13.33-0.33	beast_fmri_test	330	751030,/	t	<div class = centerbox2><div class = fixation>+</div></div>	none	500.0	test	n/a	n/a	n/a	n/a	n/a	n/a	n/a	n/a	n/a	n/a	n/a	n/a	n/a	n/a	n/a	n/a	n/a	n/a	fixation
155312.11664415209	2750.0	n/a	765	89	2750	341.883355848	stim	stop-signal	264	753788	0.0-13.33-1.33	beast_fmri_test	330	751710,/,752389,/,753070,/,753750,/	t,t,t,t	<img class = center src='/static/experiments/beast_fmri_test/images/D.png'></img>	71,89	2750.0	test	<img class = center src='/static/experiments/beast_fmri_test/images/redD.png'></img>	go	2350.0	1.0	33.0	go	target	D	71,Index Finger	89,Middle Finger	400.0	400.0	2350.0	2350.0	0.0	400.0	0.0	n/a	go_stim
158062.11664415209	341.883355848	n/a	765	89	2750	341.883355848	stim	stop-signal	264	753788	0.0-13.33-1.33	beast_fmri_test	330	751710,/,752389,/,753070,/,753750,/	t,t,t,t	<img class = center src='/static/experiments/beast_fmri_test/images/D.png'></img>	71,89	2750.0	test	<img class = center src='/static/experiments/beast_fmri_test/images/redD.png'></img>	go	2350.0	1.0	33.0	go	target	D	71,Index Finger	89,Middle Finger	400.0	400.0	2350.0	2350.0	0.0	400.0	0.0	n/a	ITI
159278	500.0	n/a	-1	-1	500	0.0	fixation	poldrack-single-stim	265	754662	0.0-13.34-0.34	beast_fmri_test	330	754429,/	t	<div class = centerbox2><div class = fixation>+</div></div>	none	500.0	test	n/a	n/a	n/a	n/a	n/a	n/a	n/a	n/a	n/a	n/a	n/a	n/a	n/a	n/a	n/a	n/a	n/a	n/a	fixation
158839.34538765426	2750.0	n/a	975	71	2750	438.654612346	stim	stop-signal	266	757412	0.0-13.34-1.34	beast_fmri_test	330	755108,/,755788,/,756467,/,757146,/,757828,/	t,t,t,t,t	<img class = center src='/static/experiments/beast_fmri_test/images/T.png'></img>	71,89	2750.0	test	<img class = center src='/static/experiments/beast_fmri_test/images/redT.png'></img>	go	2350.0	1.0	34.0	go	non-target	T	71,Index Finger	89,Middle Finger	400.0	400.0	2350.0	2350.0	0.0	400.0	0.0	n/a	go_stim
161589.34538765426	438.654612346	n/a	975	71	2750	438.654612346	stim	stop-signal	266	757412	0.0-13.34-1.34	beast_fmri_test	330	755108,/,755788,/,756467,/,757146,/,757828,/	t,t,t,t,t	<img class = center src='/static/experiments/beast_fmri_test/images/T.png'></img>	71,89	2750.0	test	<img class = center src='/static/experiments/beast_fmri_test/images/redT.png'></img>	go	2350.0	1.0	34.0	go	non-target	T	71,Index Finger	89,Middle Finger	400.0	400.0	2350.0	2350.0	0.0	400.0	0.0	n/a	ITI
162996	500.0	n/a	-1	-1	500	0.0	fixation	poldrack-single-stim	267	758380	0.0-13.35-0.35	beast_fmri_test	330	n/a	n/a	<div class = centerbox2><div class = fixation>+</div></div>	none	500.0	test	n/a	n/a	n/a	n/a	n/a	n/a	n/a	n/a	n/a	n/a	n/a	n/a	n/a	n/a	n/a	n/a	n/a	n/a	fixation
162390.94245454704	400.0	n/a	-1	-1	2750	605.057545453	stim	stop-signal	268	761130	0.0-13.35-1.35	beast_fmri_test	330	758508,/,759186,/,759866,/,760546,/,761225,/	t,t,t,t,t	<img class = center src='/static/experiments/beast_fmri_test/images/P.png'></img>	71,89	2750.0	test	<img class = center src='/static/experiments/beast_fmri_test/images/redP.png'></img>	stop	2350.0	1.0	35.0	stop	non-target	P	71,Index Finger	89,Middle Finger	400.0	400.0	2350.0	2350.0	0.0	400.0	n/a	1.0	go_stim
164740.94245454704	2350.0	n/a	-1	-1	2750	605.057545453	stim	stop-signal	268	761130	0.0-13.35-1.35	beast_fmri_test	330	758508,/,759186,/,759866,/,760546,/,761225,/	t,t,t,t,t	<img class = center src='/static/experiments/beast_fmri_test/images/P.png'></img>	71,89	2750.0	test	<img class = center src='/static/experiments/beast_fmri_test/images/redP.png'></img>	stop	2350.0	1.0	35.0	stop	non-target	P	71,Index Finger	89,Middle Finger	400.0	400.0	2350.0	2350.0	0.0	400.0	n/a	1.0	stop_stim
165140.94245454704	605.057545453	n/a	-1	-1	2750	605.057545453	stim	stop-signal	268	761130	0.0-13.35-1.35	beast_fmri_test	330	758508,/,759186,/,759866,/,760546,/,761225,/	t,t,t,t,t	<img class = center src='/static/experiments/beast_fmri_test/images/P.png'></img>	71,89	2750.0	test	<img class = center src='/static/experiments/beast_fmri_test/images/redP.png'></img>	stop	2350.0	1.0	35.0	stop	non-target	P	71,Index Finger	89,Middle Finger	400.0	400.0	2350.0	2350.0	0.0	400.0	n/a	1.0	ITI
166883	500.0	n/a	-1	-1	500	0.0	fixation	poldrack-single-stim	269	762267	0.0-13.36-0.36	beast_fmri_test	330	761905,/	t	<div class = centerbox2><div class = fixation>+</div></div>	none	500.0	test	n/a	n/a	n/a	n/a	n/a	n/a	n/a	n/a	n/a	n/a	n/a	n/a	n/a	n/a	n/a	n/a	n/a	n/a	fixation
166340.34116845054	2750.0	n/a	566	71	2750	543.658831549	stim	stop-signal	270	765018	0.0-13.36-1.36	beast_fmri_test	330	762584,/,763265,/,763943,/,764625,/,765304,/	t,t,t,t,t	<img class = center src='/static/experiments/beast_fmri_test/images/V.png'></img>	71,89	2750.0	test	<img class = center src='/static/experiments/beast_fmri_test/images/redV.png'></img>	go	2300.0	1.0	36.0	go	non-target	V	71,Index Finger	89,Middle Finger	400.0	450.0	2350.0	2300.0	0.0	450.0	0.0	n/a	go_stim
169090.34116845054	543.658831549	n/a	566	71	2750	543.658831549	stim	stop-signal	270	765018	0.0-13.36-1.36	beast_fmri_test	330	762584,/,763265,/,763943,/,764625,/,765304,/	t,t,t,t,t	<img class = center src='/static/experiments/beast_fmri_test/images/V.png'></img>	71,89	2750.0	test	<img class = center src='/static/experiments/beast_fmri_test/images/redV.png'></img>	go	2300.0	1.0	36.0	go	non-target	V	71,Index Finger	89,Middle Finger	400.0	450.0	2350.0	2300.0	0.0	450.0	0.0	n/a	ITI
170709	500.0	n/a	-1	-1	500	0.0	fixation	poldrack-single-stim	271	766093	0.0-13.37-0.37	beast_fmri_test	330	765982,/	t	<div class = centerbox2><div class = fixation>+</div></div>	none	500.0	test	n/a	n/a	n/a	n/a	n/a	n/a	n/a	n/a	n/a	n/a	n/a	n/a	n/a	n/a	n/a	n/a	n/a	n/a	fixation
170231.00779627461	450.0	n/a	-1	-1	2750	479.992203725	stim	stop-signal	272	768845	0.0-13.37-1.37	beast_fmri_test	330	766663,/,767341,/,768023,/,768703,/	t,t,t,t	<img class = center src='/static/experiments/beast_fmri_test/images/D.png'></img>	71,89	2750.0	test	<img class = center src='/static/experiments/beast_fmri_test/images/redD.png'></img>	stop	2300.0	1.0	37.0	stop	non-target	D	71,Index Finger	89,Middle Finger	400.0	450.0	2350.0	2300.0	0.0	450.0	n/a	1.0	go_stim
172531.00779627461	2300.0	n/a	-1	-1	2750	479.992203725	stim	stop-signal	272	768845	0.0-13.37-1.37	beast_fmri_test	330	766663,/,767341,/,768023,/,768703,/	t,t,t,t	<img class = center src='/static/experiments/beast_fmri_test/images/D.png'></img>	71,89	2750.0	test	<img class = center src='/static/experiments/beast_fmri_test/images/redD.png'></img>	stop	2300.0	1.0	37.0	stop	non-target	D	71,Index Finger	89,Middle Finger	400.0	450.0	2350.0	2300.0	0.0	450.0	n/a	1.0	stop_stim
172981.00779627461	479.992203725	n/a	-1	-1	2750	479.992203725	stim	stop-signal	272	768845	0.0-13.37-1.37	beast_fmri_test	330	766663,/,767341,/,768023,/,768703,/	t,t,t,t	<img class = center src='/static/experiments/beast_fmri_test/images/D.png'></img>	71,89	2750.0	test	<img class = center src='/static/experiments/beast_fmri_test/images/redD.png'></img>	stop	2300.0	1.0	37.0	stop	non-target	D	71,Index Finger	89,Middle Finger	400.0	450.0	2350.0	2300.0	0.0	450.0	n/a	1.0	ITI
174470	500.0	n/a	-1	-1	500	0.0	fixation	poldrack-single-stim	273	769854	0.0-13.38-0.38	beast_fmri_test	330	769381,/	t	<div class = centerbox2><div class = fixation>+</div></div>	none	500.0	test	n/a	n/a	n/a	n/a	n/a	n/a	n/a	n/a	n/a	n/a	n/a	n/a	n/a	n/a	n/a	n/a	n/a	n/a	fixation
173857.07337314158	2750.0	n/a	926	71	2750	618.926626858	stim	stop-signal	274	772610	0.0-13.38-1.38	beast_fmri_test	330	770060,/,770740,/,771420,/,772099,/,772780,/	t,t,t,t,t	<img class = center src='/static/experiments/beast_fmri_test/images/P.png'></img>	71,89	2750.0	test	<img class = center src='/static/experiments/beast_fmri_test/images/redP.png'></img>	go	2250.0	1.0	38.0	go	non-target	P	71,Index Finger	89,Middle Finger	400.0	500.0	2350.0	2250.0	0.0	500.0	0.0	n/a	go_stim
176607.07337314158	618.926626858	n/a	926	71	2750	618.926626858	stim	stop-signal	274	772610	0.0-13.38-1.38	beast_fmri_test	330	770060,/,770740,/,771420,/,772099,/,772780,/	t,t,t,t,t	<img class = center src='/static/experiments/beast_fmri_test/images/P.png'></img>	71,89	2750.0	test	<img class = center src='/static/experiments/beast_fmri_test/images/redP.png'></img>	go	2250.0	1.0	38.0	go	non-target	P	71,Index Finger	89,Middle Finger	400.0	500.0	2350.0	2250.0	0.0	500.0	0.0	n/a	ITI
178383	500.0	n/a	-1	-1	500	0.0	fixation	poldrack-single-stim	275	773767	0.0-13.39-0.39	beast_fmri_test	330	773459,/	t	<div class = centerbox2><div class = fixation>+</div></div>	none	500.0	test	n/a	n/a	n/a	n/a	n/a	n/a	n/a	n/a	n/a	n/a	n/a	n/a	n/a	n/a	n/a	n/a	n/a	n/a	fixation
178216.92607110145	2750.0	n/a	684	71	2750	166.073928899	stim	stop-signal	276	776517	0.0-13.39-1.39	beast_fmri_test	330	774140,/,774819,/,775498,/,776180,/	t,t,t,t	<img class = center src='/static/experiments/beast_fmri_test/images/D.png'></img>	71,89	2750.0	test	<img class = center src='/static/experiments/beast_fmri_test/images/redD.png'></img>	go	2250.0	1.0	39.0	go	non-target	D	71,Index Finger	89,Middle Finger	400.0	500.0	2350.0	2250.0	0.0	500.0	0.0	n/a	go_stim
180966.92607110145	166.073928899	n/a	684	71	2750	166.073928899	stim	stop-signal	276	776517	0.0-13.39-1.39	beast_fmri_test	330	774140,/,774819,/,775498,/,776180,/	t,t,t,t	<img class = center src='/static/experiments/beast_fmri_test/images/D.png'></img>	71,89	2750.0	test	<img class = center src='/static/experiments/beast_fmri_test/images/redD.png'></img>	go	2250.0	1.0	39.0	go	non-target	D	71,Index Finger	89,Middle Finger	400.0	500.0	2350.0	2250.0	0.0	500.0	0.0	n/a	ITI
181827	500.0	n/a	-1	-1	500	0.0	fixation	poldrack-single-stim	277	777211	0.0-13.40-0.40	beast_fmri_test	330	776859,/	t	<div class = centerbox2><div class = fixation>+</div></div>	none	500.0	test	n/a	n/a	n/a	n/a	n/a	n/a	n/a	n/a	n/a	n/a	n/a	n/a	n/a	n/a	n/a	n/a	n/a	n/a	fixation
180908.85007385374	500.0	n/a	617	71	2750	920.149926146	stim	stop-signal	278	779963	0.0-13.40-1.40	beast_fmri_test	330	777539,/,778218,/,778897,/,779576,/,780256,/	t,t,t,t,t	<img class = center src='/static/experiments/beast_fmri_test/images/V.png'></img>	71,89	2750.0	test	<img class = center src='/static/experiments/beast_fmri_test/images/redV.png'></img>	stop	2250.0	1.0	40.0	stop	non-target	V	71,Index Finger	89,Middle Finger	400.0	500.0	2350.0	2250.0	0.0	500.0	n/a	0.0	go_stim
183158.85007385374	2250.0	n/a	617	71	2750	920.149926146	stim	stop-signal	278	779963	0.0-13.40-1.40	beast_fmri_test	330	777539,/,778218,/,778897,/,779576,/,780256,/	t,t,t,t,t	<img class = center src='/static/experiments/beast_fmri_test/images/V.png'></img>	71,89	2750.0	test	<img class = center src='/static/experiments/beast_fmri_test/images/redV.png'></img>	stop	2250.0	1.0	40.0	stop	non-target	V	71,Index Finger	89,Middle Finger	400.0	500.0	2350.0	2250.0	0.0	500.0	n/a	0.0	stop_stim
183658.85007385374	920.149926146	n/a	617	71	2750	920.149926146	stim	stop-signal	278	779963	0.0-13.40-1.40	beast_fmri_test	330	777539,/,778218,/,778897,/,779576,/,780256,/	t,t,t,t,t	<img class = center src='/static/experiments/beast_fmri_test/images/V.png'></img>	71,89	2750.0	test	<img class = center src='/static/experiments/beast_fmri_test/images/redV.png'></img>	stop	2250.0	1.0	40.0	stop	non-target	V	71,Index Finger	89,Middle Finger	400.0	500.0	2350.0	2250.0	0.0	500.0	n/a	0.0	ITI
186029	500.0	n/a	-1	-1	500	0.0	fixation	poldrack-single-stim	279	781413	0.0-13.41-0.41	beast_fmri_test	330	780937,/	t	<div class = centerbox2><div class = fixation>+</div></div>	none	500.0	test	n/a	n/a	n/a	n/a	n/a	n/a	n/a	n/a	n/a	n/a	n/a	n/a	n/a	n/a	n/a	n/a	n/a	n/a	fixation
184184.00788035686	2750.0	n/a	883	71	2750	1845.99211964	stim	stop-signal	280	784164	0.0-13.41-1.41	beast_fmri_test	330	781617,/,782296,/,782976,/,783655,/,784334,/,785014,/,785695,/	t,t,t,t,t,t,t	<img class = center src='/static/experiments/beast_fmri_test/images/B.png'></img>	71,89	2750.0	test	<img class = center src='/static/experiments/beast_fmri_test/images/redB.png'></img>	go	2300.0	1.0	41.0	go	non-target	B	71,Index Finger	89,Middle Finger	400.0	450.0	2350.0	2300.0	0.0	450.0	0.0	n/a	go_stim
186934.00788035686	1845.99211964	n/a	883	71	2750	1845.99211964	stim	stop-signal	280	784164	0.0-13.41-1.41	beast_fmri_test	330	781617,/,782296,/,782976,/,783655,/,784334,/,785014,/,785695,/	t,t,t,t,t,t,t	<img class = center src='/static/experiments/beast_fmri_test/images/B.png'></img>	71,89	2750.0	test	<img class = center src='/static/experiments/beast_fmri_test/images/redB.png'></img>	go	2300.0	1.0	41.0	go	non-target	B	71,Index Finger	89,Middle Finger	400.0	450.0	2350.0	2300.0	0.0	450.0	0.0	n/a	ITI
191150	500.0	n/a	-1	-1	500	0.0	fixation	poldrack-single-stim	281	786534	0.0-13.42-0.42	beast_fmri_test	330	786375,/	t	<div class = centerbox2><div class = fixation>+</div></div>	none	500.0	test	n/a	n/a	n/a	n/a	n/a	n/a	n/a	n/a	n/a	n/a	n/a	n/a	n/a	n/a	n/a	n/a	n/a	n/a	fixation
190184.34465945326	2750.0	n/a	527	89	2750	968.655340547	stim	stop-signal	282	789287	0.0-13.42-1.42	beast_fmri_test	330	787053,/,787734,/,788412,/,789092,/,789771,/	t,t,t,t,t	<img class = center src='/static/experiments/beast_fmri_test/images/B.png'></img>	71,89	2750.0	test	<img class = center src='/static/experiments/beast_fmri_test/images/redB.png'></img>	go	2350.0	1.0	42.0	go	target	B	71,Index Finger	89,Middle Finger	400.0	450.0	2350.0	2300.0	0.0	400.0	0.0	n/a	go_stim
192934.34465945326	968.655340547	n/a	527	89	2750	968.655340547	stim	stop-signal	282	789287	0.0-13.42-1.42	beast_fmri_test	330	787053,/,787734,/,788412,/,789092,/,789771,/	t,t,t,t,t	<img class = center src='/static/experiments/beast_fmri_test/images/B.png'></img>	71,89	2750.0	test	<img class = center src='/static/experiments/beast_fmri_test/images/redB.png'></img>	go	2350.0	1.0	42.0	go	target	B	71,Index Finger	89,Middle Finger	400.0	450.0	2350.0	2300.0	0.0	400.0	0.0	n/a	ITI
195406	500.0	n/a	-1	-1	500	0.0	fixation	poldrack-single-stim	283	790790	0.0-13.43-0.43	beast_fmri_test	330	790451,/	t	<div class = centerbox2><div class = fixation>+</div></div>	none	500.0	test	n/a	n/a	n/a	n/a	n/a	n/a	n/a	n/a	n/a	n/a	n/a	n/a	n/a	n/a	n/a	n/a	n/a	n/a	fixation
193137.26385823172	2750.0	n/a	553	89	2750	2269.73614177	stim	stop-signal	284	793541	0.0-13.43-1.43	beast_fmri_test	330	791131,/,791813,/,792490,/,793171,/,793849,/,794530,/,795210,/	t,t,t,t,t,t,t	<img class = center src='/static/experiments/beast_fmri_test/images/B.png'></img>	71,89	2750.0	test	<img class = center src='/static/experiments/beast_fmri_test/images/redB.png'></img>	go	2350.0	1.0	43.0	go	target	B	71,Index Finger	89,Middle Finger	400.0	450.0	2350.0	2300.0	0.0	400.0	0.0	n/a	go_stim
195887.26385823172	2269.73614177	n/a	553	89	2750	2269.73614177	stim	stop-signal	284	793541	0.0-13.43-1.43	beast_fmri_test	330	791131,/,791813,/,792490,/,793171,/,793849,/,794530,/,795210,/	t,t,t,t,t,t,t	<img class = center src='/static/experiments/beast_fmri_test/images/B.png'></img>	71,89	2750.0	test	<img class = center src='/static/experiments/beast_fmri_test/images/redB.png'></img>	go	2350.0	1.0	43.0	go	target	B	71,Index Finger	89,Middle Finger	400.0	450.0	2350.0	2300.0	0.0	400.0	0.0	n/a	ITI
200959	500.0	n/a	-1	-1	500	0.0	fixation	poldrack-single-stim	285	796343	0.0-13.44-0.44	beast_fmri_test	330	795888,/	t	<div class = centerbox2><div class = fixation>+</div></div>	none	500.0	test	n/a	n/a	n/a	n/a	n/a	n/a	n/a	n/a	n/a	n/a	n/a	n/a	n/a	n/a	n/a	n/a	n/a	n/a	fixation
199299.01828917384	400.0	n/a	579	89	2750	1661.98171083	stim	stop-signal	286	799095	0.0-13.44-1.44	beast_fmri_test	330	796569,/,797248,/,797928,/,798607,/,799287,/,799969,/,800646,/	t,t,t,t,t,t,t	<img class = center src='/static/experiments/beast_fmri_test/images/B.png'></img>	71,89	2750.0	test	<img class = center src='/static/experiments/beast_fmri_test/images/redB.png'></img>	stop	2350.0	1.0	44.0	stop	target	B	71,Index Finger	89,Middle Finger	400.0	450.0	2350.0	2300.0	0.0	400.0	n/a	0.0	go_stim
201649.01828917384	2350.0	n/a	579	89	2750	1661.98171083	stim	stop-signal	286	799095	0.0-13.44-1.44	beast_fmri_test	330	796569,/,797248,/,797928,/,798607,/,799287,/,799969,/,800646,/	t,t,t,t,t,t,t	<img class = center src='/static/experiments/beast_fmri_test/images/B.png'></img>	71,89	2750.0	test	<img class = center src='/static/experiments/beast_fmri_test/images/redB.png'></img>	stop	2350.0	1.0	44.0	stop	target	B	71,Index Finger	89,Middle Finger	400.0	450.0	2350.0	2300.0	0.0	400.0	n/a	0.0	stop_stim
202049.01828917384	1661.98171083	n/a	579	89	2750	1661.98171083	stim	stop-signal	286	799095	0.0-13.44-1.44	beast_fmri_test	330	796569,/,797248,/,797928,/,798607,/,799287,/,799969,/,800646,/	t,t,t,t,t,t,t	<img class = center src='/static/experiments/beast_fmri_test/images/B.png'></img>	71,89	2750.0	test	<img class = center src='/static/experiments/beast_fmri_test/images/redB.png'></img>	stop	2350.0	1.0	44.0	stop	target	B	71,Index Finger	89,Middle Finger	400.0	450.0	2350.0	2300.0	0.0	400.0	n/a	0.0	ITI
205904	500.0	n/a	-1	-1	500	0.0	fixation	poldrack-single-stim	287	801288	0.0-13.45-0.45	beast_fmri_test	330	n/a	n/a	<div class = centerbox2><div class = fixation>+</div></div>	none	500.0	test	n/a	n/a	n/a	n/a	n/a	n/a	n/a	n/a	n/a	n/a	n/a	n/a	n/a	n/a	n/a	n/a	n/a	n/a	fixation
205673.94990021025	450.0	n/a	514	71	2750	231.05009979	stim	stop-signal	288	804039	0.0-13.45-1.45	beast_fmri_test	330	801338,/,802006,/,802686,/,803365,/,804045,/	t,t,t,t,t	<img class = center src='/static/experiments/beast_fmri_test/images/P.png'></img>	71,89	2750.0	test	<img class = center src='/static/experiments/beast_fmri_test/images/redP.png'></img>	stop	2300.0	1.0	45.0	stop	non-target	P	71,Index Finger	89,Middle Finger	350.0	450.0	2350.0	2300.0	0.0	450.0	n/a	0.0	go_stim
207973.94990021025	2300.0	n/a	514	71	2750	231.05009979	stim	stop-signal	288	804039	0.0-13.45-1.45	beast_fmri_test	330	801338,/,802006,/,802686,/,803365,/,804045,/	t,t,t,t,t	<img class = center src='/static/experiments/beast_fmri_test/images/P.png'></img>	71,89	2750.0	test	<img class = center src='/static/experiments/beast_fmri_test/images/redP.png'></img>	stop	2300.0	1.0	45.0	stop	non-target	P	71,Index Finger	89,Middle Finger	350.0	450.0	2350.0	2300.0	0.0	450.0	n/a	0.0	stop_stim
208423.94990021025	231.05009979	n/a	514	71	2750	231.05009979	stim	stop-signal	288	804039	0.0-13.45-1.45	beast_fmri_test	330	801338,/,802006,/,802686,/,803365,/,804045,/	t,t,t,t,t	<img class = center src='/static/experiments/beast_fmri_test/images/P.png'></img>	71,89	2750.0	test	<img class = center src='/static/experiments/beast_fmri_test/images/redP.png'></img>	stop	2300.0	1.0	45.0	stop	non-target	P	71,Index Finger	89,Middle Finger	350.0	450.0	2350.0	2300.0	0.0	450.0	n/a	0.0	ITI
223912	15000.0	n/a	-1	-1	15000	0.0	practice-no-stop-feedback	poldrack-single-stim	289	819296	0.0-14.0	beast_fmri_test	330	804726,/,805405,/,806086,/,806765,/,807444,/,808123,/,808803,/,809484,/,810163,/,810842,/,811523,/,812202,/,812881,/,813563,/,814242,/,814923,/,815601,/,816281,/,816959,/,817638,/,818318,/,818998,/	t,t,t,t,t,t,t,t,t,t,t,t,t,t,t,t,t,t,t,t,t,t	"<div class = ""centerbox""><p class = ""block-text"">Your delay is 1 trials.</p><p class = block-text>Please wait for the scanner to start the block</p></div>"	77	15000.0	n/a	n/a	n/a	n/a	n/a	n/a	n/a	n/a	n/a	n/a	n/a	n/a	n/a	n/a	n/a	n/a	n/a	n/a	n/a	practice-no-stop-feedback
224417	500.0	n/a	-1	-1	500	0.0	fixation	poldrack-single-stim	290	819801	0.0-15.0-0.0	beast_fmri_test	330	819679,/	t	<div class = centerbox2><div class = fixation>+</div></div>	none	500.0	test	n/a	n/a	n/a	n/a	n/a	n/a	n/a	n/a	n/a	n/a	n/a	n/a	n/a	n/a	n/a	n/a	n/a	n/a	fixation
222403.50389732735	2750.0	n/a	663	71	2750	2013.49610267	stim	stop-signal	291	822551	0.0-15.0-1.0	beast_fmri_test	330	820358,/,821038,/,821717,/,822396,/,823076,/,823757,/,824436,/	t,t,t,t,t,t,t	<img class = center src='/static/experiments/beast_fmri_test/images/T.png'></img>	71,89	2750.0	test	<img class = center src='/static/experiments/beast_fmri_test/images/redT.png'></img>	go	-1.0	1.0	0.0	go	temp-non-target	T	71,Index Finger	89,Middle Finger	350.0	400.0	2350.0	2300.0	0.0	n/a	n/a	n/a	go_stim
225153.50389732735	2013.49610267	n/a	663	71	2750	2013.49610267	stim	stop-signal	291	822551	0.0-15.0-1.0	beast_fmri_test	330	820358,/,821038,/,821717,/,822396,/,823076,/,823757,/,824436,/	t,t,t,t,t,t,t	<img class = center src='/static/experiments/beast_fmri_test/images/T.png'></img>	71,89	2750.0	test	<img class = center src='/static/experiments/beast_fmri_test/images/redT.png'></img>	go	-1.0	1.0	0.0	go	temp-non-target	T	71,Index Finger	89,Middle Finger	350.0	400.0	2350.0	2300.0	0.0	n/a	n/a	n/a	ITI
229714	500.0	n/a	-1	-1	500	0.0	fixation	poldrack-single-stim	292	825098	0.0-15.1-0.1	beast_fmri_test	330	n/a	n/a	<div class = centerbox2><div class = fixation>+</div></div>	none	500.0	test	n/a	n/a	n/a	n/a	n/a	n/a	n/a	n/a	n/a	n/a	n/a	n/a	n/a	n/a	n/a	n/a	n/a	n/a	fixation
227740.14062843437	400.0	n/a	604	71	2750	1974.85937157	stim	stop-signal	293	827849	0.0-15.1-1.1	beast_fmri_test	330	825116,/,825796,/,826475,/,827155,/,827833,/,828515,/,829194,/	t,t,t,t,t,t,t	<img class = center src='/static/experiments/beast_fmri_test/images/P.png'></img>	71,89	2750.0	test	<img class = center src='/static/experiments/beast_fmri_test/images/redP.png'></img>	stop	2350.0	1.0	1.0	stop	non-target	P	71,Index Finger	89,Middle Finger	350.0	400.0	2350.0	2350.0	0.0	400.0	n/a	0.0	go_stim
230090.14062843437	2350.0	n/a	604	71	2750	1974.85937157	stim	stop-signal	293	827849	0.0-15.1-1.1	beast_fmri_test	330	825116,/,825796,/,826475,/,827155,/,827833,/,828515,/,829194,/	t,t,t,t,t,t,t	<img class = center src='/static/experiments/beast_fmri_test/images/P.png'></img>	71,89	2750.0	test	<img class = center src='/static/experiments/beast_fmri_test/images/redP.png'></img>	stop	2350.0	1.0	1.0	stop	non-target	P	71,Index Finger	89,Middle Finger	350.0	400.0	2350.0	2350.0	0.0	400.0	n/a	0.0	stop_stim
230490.14062843437	1974.85937157	n/a	604	71	2750	1974.85937157	stim	stop-signal	293	827849	0.0-15.1-1.1	beast_fmri_test	330	825116,/,825796,/,826475,/,827155,/,827833,/,828515,/,829194,/	t,t,t,t,t,t,t	<img class = center src='/static/experiments/beast_fmri_test/images/P.png'></img>	71,89	2750.0	test	<img class = center src='/static/experiments/beast_fmri_test/images/redP.png'></img>	stop	2350.0	1.0	1.0	stop	non-target	P	71,Index Finger	89,Middle Finger	350.0	400.0	2350.0	2350.0	0.0	400.0	n/a	0.0	ITI
234971	500.0	n/a	-1	-1	500	0.0	fixation	poldrack-single-stim	294	830355	0.0-15.2-0.2	beast_fmri_test	330	829875,/	t	<div class = centerbox2><div class = fixation>+</div></div>	none	500.0	test	n/a	n/a	n/a	n/a	n/a	n/a	n/a	n/a	n/a	n/a	n/a	n/a	n/a	n/a	n/a	n/a	n/a	n/a	fixation
232693.61102289928	2750.0	n/a	982	71	2750	2277.3889771	stim	stop-signal	295	833105	0.0-15.2-1.2	beast_fmri_test	330	830553,/,831233,/,831912,/,832592,/,833272,/,833952,/,834632,/,835312,/	t,t,t,t,t,t,t,t	<img class = center src='/static/experiments/beast_fmri_test/images/B.png'></img>	71,89	2750.0	test	<img class = center src='/static/experiments/beast_fmri_test/images/redB.png'></img>	go	2400.0	1.0	2.0	go	non-target	B	71,Index Finger	89,Middle Finger	350.0	350.0	2350.0	2400.0	0.0	350.0	0.0	n/a	go_stim
235443.61102289928	2277.3889771	n/a	982	71	2750	2277.3889771	stim	stop-signal	295	833105	0.0-15.2-1.2	beast_fmri_test	330	830553,/,831233,/,831912,/,832592,/,833272,/,833952,/,834632,/,835312,/	t,t,t,t,t,t,t,t	<img class = center src='/static/experiments/beast_fmri_test/images/B.png'></img>	71,89	2750.0	test	<img class = center src='/static/experiments/beast_fmri_test/images/redB.png'></img>	go	2400.0	1.0	2.0	go	non-target	B	71,Index Finger	89,Middle Finger	350.0	350.0	2350.0	2400.0	0.0	350.0	0.0	n/a	ITI
240531	500.0	n/a	-1	-1	500	0.0	fixation	poldrack-single-stim	296	835915	0.0-15.3-0.3	beast_fmri_test	330	n/a	n/a	<div class = centerbox2><div class = fixation>+</div></div>	none	500.0	test	n/a	n/a	n/a	n/a	n/a	n/a	n/a	n/a	n/a	n/a	n/a	n/a	n/a	n/a	n/a	n/a	n/a	n/a	fixation
240390.99107475684	2750.0	n/a	624	89	2750	142.008925243	stim	stop-signal	297	838667	0.0-15.3-1.3	beast_fmri_test	330	835990,/,836671,/,837350,/,838031,/,838709,/	t,t,t,t,t	<img class = center src='/static/experiments/beast_fmri_test/images/B.png'></img>	71,89	2750.0	test	<img class = center src='/static/experiments/beast_fmri_test/images/redB.png'></img>	go	2400.0	1.0	3.0	go	target	B	71,Index Finger	89,Middle Finger	350.0	350.0	2400.0	2400.0	0.0	350.0	0.0	n/a	go_stim
243140.99107475684	142.008925243	n/a	624	89	2750	142.008925243	stim	stop-signal	297	838667	0.0-15.3-1.3	beast_fmri_test	330	835990,/,836671,/,837350,/,838031,/,838709,/	t,t,t,t,t	<img class = center src='/static/experiments/beast_fmri_test/images/B.png'></img>	71,89	2750.0	test	<img class = center src='/static/experiments/beast_fmri_test/images/redB.png'></img>	go	2400.0	1.0	3.0	go	target	B	71,Index Finger	89,Middle Finger	350.0	350.0	2400.0	2400.0	0.0	350.0	0.0	n/a	ITI
243958	500.0	n/a	-1	-1	500	0.0	fixation	poldrack-single-stim	298	839342	0.0-15.4-0.4	beast_fmri_test	330	n/a	n/a	<div class = centerbox2><div class = fixation>+</div></div>	none	500.0	test	n/a	n/a	n/a	n/a	n/a	n/a	n/a	n/a	n/a	n/a	n/a	n/a	n/a	n/a	n/a	n/a	n/a	n/a	fixation
243767.2780872978	2750.0	n/a	707	71	2750	191.721912702	stim	stop-signal	299	842093	0.0-15.4-1.4	beast_fmri_test	330	839389,/,840069,/,840749,/,841431,/,842107,/	t,t,t,t,t	<img class = center src='/static/experiments/beast_fmri_test/images/T.png'></img>	71,89	2750.0	test	<img class = center src='/static/experiments/beast_fmri_test/images/redT.png'></img>	go	2400.0	1.0	4.0	go	non-target	T	71,Index Finger	89,Middle Finger	350.0	350.0	2400.0	2400.0	0.0	350.0	0.0	n/a	go_stim
246517.2780872978	191.721912702	n/a	707	71	2750	191.721912702	stim	stop-signal	299	842093	0.0-15.4-1.4	beast_fmri_test	330	839389,/,840069,/,840749,/,841431,/,842107,/	t,t,t,t,t	<img class = center src='/static/experiments/beast_fmri_test/images/T.png'></img>	71,89	2750.0	test	<img class = center src='/static/experiments/beast_fmri_test/images/redT.png'></img>	go	2400.0	1.0	4.0	go	non-target	T	71,Index Finger	89,Middle Finger	350.0	350.0	2400.0	2400.0	0.0	350.0	0.0	n/a	ITI
247433	500.0	n/a	-1	-1	500	0.0	fixation	poldrack-single-stim	300	842817	0.0-15.5-0.5	beast_fmri_test	330	842788,/	t	<div class = centerbox2><div class = fixation>+</div></div>	none	500.0	test	n/a	n/a	n/a	n/a	n/a	n/a	n/a	n/a	n/a	n/a	n/a	n/a	n/a	n/a	n/a	n/a	n/a	n/a	fixation
246940.68221144902	2750.0	n/a	726	71	2750	493.317788551	stim	stop-signal	301	845568	0.0-15.5-1.5	beast_fmri_test	330	843468,/,844147,/,844826,/,845506,/	t,t,t,t	<img class = center src='/static/experiments/beast_fmri_test/images/P.png'></img>	71,89	2750.0	test	<img class = center src='/static/experiments/beast_fmri_test/images/redP.png'></img>	go	2400.0	1.0	5.0	go	non-target	P	71,Index Finger	89,Middle Finger	350.0	350.0	2400.0	2400.0	0.0	350.0	0.0	n/a	go_stim
249690.68221144902	493.317788551	n/a	726	71	2750	493.317788551	stim	stop-signal	301	845568	0.0-15.5-1.5	beast_fmri_test	330	843468,/,844147,/,844826,/,845506,/	t,t,t,t	<img class = center src='/static/experiments/beast_fmri_test/images/P.png'></img>	71,89	2750.0	test	<img class = center src='/static/experiments/beast_fmri_test/images/redP.png'></img>	go	2400.0	1.0	5.0	go	non-target	P	71,Index Finger	89,Middle Finger	350.0	350.0	2400.0	2400.0	0.0	350.0	0.0	n/a	ITI
251213	500.0	n/a	-1	-1	500	0.0	fixation	poldrack-single-stim	302	846597	0.0-15.6-0.6	beast_fmri_test	330	846185,/	t	<div class = centerbox2><div class = fixation>+</div></div>	none	500.0	test	n/a	n/a	n/a	n/a	n/a	n/a	n/a	n/a	n/a	n/a	n/a	n/a	n/a	n/a	n/a	n/a	n/a	n/a	fixation
249573.99877543829	2750.0	n/a	731	89	2750	1641.00122456	stim	stop-signal	303	849349	0.0-15.6-1.6	beast_fmri_test	330	846865,/,847547,/,848226,/,848904,/,849584,/,850263,/,850943,/	t,t,t,t,t,t,t	<img class = center src='/static/experiments/beast_fmri_test/images/P.png'></img>	71,89	2750.0	test	<img class = center src='/static/experiments/beast_fmri_test/images/redP.png'></img>	go	2400.0	1.0	6.0	go	target	P	71,Index Finger	89,Middle Finger	350.0	350.0	2400.0	2400.0	0.0	350.0	0.0	n/a	go_stim
252323.99877543829	1641.00122456	n/a	731	89	2750	1641.00122456	stim	stop-signal	303	849349	0.0-15.6-1.6	beast_fmri_test	330	846865,/,847547,/,848226,/,848904,/,849584,/,850263,/,850943,/	t,t,t,t,t,t,t	<img class = center src='/static/experiments/beast_fmri_test/images/P.png'></img>	71,89	2750.0	test	<img class = center src='/static/experiments/beast_fmri_test/images/redP.png'></img>	go	2400.0	1.0	6.0	go	target	P	71,Index Finger	89,Middle Finger	350.0	350.0	2400.0	2400.0	0.0	350.0	0.0	n/a	ITI
256139	500.0	n/a	-1	-1	500	0.0	fixation	poldrack-single-stim	304	851523	0.0-15.7-0.7	beast_fmri_test	330	n/a	n/a	<div class = centerbox2><div class = fixation>+</div></div>	none	500.0	test	n/a	n/a	n/a	n/a	n/a	n/a	n/a	n/a	n/a	n/a	n/a	n/a	n/a	n/a	n/a	n/a	n/a	n/a	fixation
255722.25086374988	2750.0	n/a	461	71	2750	419.74913625	stim	stop-signal	305	854276	0.0-15.7-1.7	beast_fmri_test	330	851623,/,852303,/,852982,/,853662,/,854342,/	t,t,t,t,t	<img class = center src='/static/experiments/beast_fmri_test/images/T.png'></img>	71,89	2750.0	test	<img class = center src='/static/experiments/beast_fmri_test/images/redT.png'></img>	go	2400.0	1.0	7.0	go	non-target	T	71,Index Finger	89,Middle Finger	350.0	350.0	2400.0	2400.0	0.0	350.0	0.0	n/a	go_stim
258472.25086374988	419.74913625	n/a	461	71	2750	419.74913625	stim	stop-signal	305	854276	0.0-15.7-1.7	beast_fmri_test	330	851623,/,852303,/,852982,/,853662,/,854342,/	t,t,t,t,t	<img class = center src='/static/experiments/beast_fmri_test/images/T.png'></img>	71,89	2750.0	test	<img class = center src='/static/experiments/beast_fmri_test/images/redT.png'></img>	go	2400.0	1.0	7.0	go	non-target	T	71,Index Finger	89,Middle Finger	350.0	350.0	2400.0	2400.0	0.0	350.0	0.0	n/a	ITI
259844	500.0	n/a	-1	-1	500	0.0	fixation	poldrack-single-stim	306	855228	0.0-15.8-0.8	beast_fmri_test	330	855021,/	t	<div class = centerbox2><div class = fixation>+</div></div>	none	500.0	test	n/a	n/a	n/a	n/a	n/a	n/a	n/a	n/a	n/a	n/a	n/a	n/a	n/a	n/a	n/a	n/a	n/a	n/a	fixation
255724.13996908767	350.0	n/a	-1	-1	2750	4120.86003091	stim	stop-signal	307	857979	0.0-15.8-1.8	beast_fmri_test	330	855701,/,856380,/,857061,/,857743,/,858420,/,859099,/,859780,/,860461,/,861140,/,861819,/	t,t,t,t,t,t,t,t,t,t	<img class = center src='/static/experiments/beast_fmri_test/images/D.png'></img>	71,89	2750.0	test	<img class = center src='/static/experiments/beast_fmri_test/images/redD.png'></img>	stop	2400.0	1.0	8.0	stop	non-target	D	71,Index Finger	89,Middle Finger	350.0	350.0	2400.0	2400.0	0.0	350.0	n/a	1.0	go_stim
258124.13996908767	2400.0	n/a	-1	-1	2750	4120.86003091	stim	stop-signal	307	857979	0.0-15.8-1.8	beast_fmri_test	330	855701,/,856380,/,857061,/,857743,/,858420,/,859099,/,859780,/,860461,/,861140,/,861819,/	t,t,t,t,t,t,t,t,t,t	<img class = center src='/static/experiments/beast_fmri_test/images/D.png'></img>	71,89	2750.0	test	<img class = center src='/static/experiments/beast_fmri_test/images/redD.png'></img>	stop	2400.0	1.0	8.0	stop	non-target	D	71,Index Finger	89,Middle Finger	350.0	350.0	2400.0	2400.0	0.0	350.0	n/a	1.0	stop_stim
258474.13996908767	4120.86003091	n/a	-1	-1	2750	4120.86003091	stim	stop-signal	307	857979	0.0-15.8-1.8	beast_fmri_test	330	855701,/,856380,/,857061,/,857743,/,858420,/,859099,/,859780,/,860461,/,861140,/,861819,/	t,t,t,t,t,t,t,t,t,t	<img class = center src='/static/experiments/beast_fmri_test/images/D.png'></img>	71,89	2750.0	test	<img class = center src='/static/experiments/beast_fmri_test/images/redD.png'></img>	stop	2400.0	1.0	8.0	stop	non-target	D	71,Index Finger	89,Middle Finger	350.0	350.0	2400.0	2400.0	0.0	350.0	n/a	1.0	ITI
267248	500.0	n/a	-1	-1	500	0.0	fixation	poldrack-single-stim	308	862632	0.0-15.9-0.9	beast_fmri_test	330	862499,/	t	<div class = centerbox2><div class = fixation>+</div></div>	none	500.0	test	n/a	n/a	n/a	n/a	n/a	n/a	n/a	n/a	n/a	n/a	n/a	n/a	n/a	n/a	n/a	n/a	n/a	n/a	fixation
264908.98123321217	400.0	n/a	615	71	2750	2342.01876679	stim	stop-signal	309	865385	0.0-15.9-1.9	beast_fmri_test	330	863179,/,863859,/,864537,/,865217,/,865897,/,866577,/,867256,/	t,t,t,t,t,t,t	<img class = center src='/static/experiments/beast_fmri_test/images/P.png'></img>	71,89	2750.0	test	<img class = center src='/static/experiments/beast_fmri_test/images/redP.png'></img>	stop	2350.0	1.0	9.0	stop	non-target	P	71,Index Finger	89,Middle Finger	350.0	400.0	2400.0	2350.0	0.0	400.0	n/a	0.0	go_stim
267258.98123321217	2350.0	n/a	615	71	2750	2342.01876679	stim	stop-signal	309	865385	0.0-15.9-1.9	beast_fmri_test	330	863179,/,863859,/,864537,/,865217,/,865897,/,866577,/,867256,/	t,t,t,t,t,t,t	<img class = center src='/static/experiments/beast_fmri_test/images/P.png'></img>	71,89	2750.0	test	<img class = center src='/static/experiments/beast_fmri_test/images/redP.png'></img>	stop	2350.0	1.0	9.0	stop	non-target	P	71,Index Finger	89,Middle Finger	350.0	400.0	2400.0	2350.0	0.0	400.0	n/a	0.0	stop_stim
267658.98123321217	2342.01876679	n/a	615	71	2750	2342.01876679	stim	stop-signal	309	865385	0.0-15.9-1.9	beast_fmri_test	330	863179,/,863859,/,864537,/,865217,/,865897,/,866577,/,867256,/	t,t,t,t,t,t,t	<img class = center src='/static/experiments/beast_fmri_test/images/P.png'></img>	71,89	2750.0	test	<img class = center src='/static/experiments/beast_fmri_test/images/redP.png'></img>	stop	2350.0	1.0	9.0	stop	non-target	P	71,Index Finger	89,Middle Finger	350.0	400.0	2400.0	2350.0	0.0	400.0	n/a	0.0	ITI
272879	500.0	n/a	-1	-1	500	0.0	fixation	poldrack-single-stim	310	868263	0.0-15.10-0.10	beast_fmri_test	330	867936,/	t	<div class = centerbox2><div class = fixation>+</div></div>	none	500.0	test	n/a	n/a	n/a	n/a	n/a	n/a	n/a	n/a	n/a	n/a	n/a	n/a	n/a	n/a	n/a	n/a	n/a	n/a	fixation
272192.29153616366	2750.0	n/a	900	71	2750	688.708463836	stim	stop-signal	311	871015	0.0-15.10-1.10	beast_fmri_test	330	868617,/,869296,/,869974,/,870655,/,871335,/	t,t,t,t,t	<img class = center src='/static/experiments/beast_fmri_test/images/B.png'></img>	71,89	2750.0	test	<img class = center src='/static/experiments/beast_fmri_test/images/redB.png'></img>	go	2400.0	1.0	10.0	go	non-target	B	71,Index Finger	89,Middle Finger	350.0	350.0	2400.0	2400.0	0.0	350.0	0.0	n/a	go_stim
274942.29153616366	688.708463836	n/a	900	71	2750	688.708463836	stim	stop-signal	311	871015	0.0-15.10-1.10	beast_fmri_test	330	868617,/,869296,/,869974,/,870655,/,871335,/	t,t,t,t,t	<img class = center src='/static/experiments/beast_fmri_test/images/B.png'></img>	71,89	2750.0	test	<img class = center src='/static/experiments/beast_fmri_test/images/redB.png'></img>	go	2400.0	1.0	10.0	go	non-target	B	71,Index Finger	89,Middle Finger	350.0	350.0	2400.0	2400.0	0.0	350.0	0.0	n/a	ITI
276856	500.0	n/a	-1	-1	500	0.0	fixation	poldrack-single-stim	312	872240	0.0-15.11-0.11	beast_fmri_test	330	872014,/	t	<div class = centerbox2><div class = fixation>+</div></div>	none	500.0	test	n/a	n/a	n/a	n/a	n/a	n/a	n/a	n/a	n/a	n/a	n/a	n/a	n/a	n/a	n/a	n/a	n/a	n/a	fixation
276260.72679961962	350.0	n/a	-1	-1	2750	596.27320038	stim	stop-signal	313	874991	0.0-15.11-1.11	beast_fmri_test	330	872695,/,873374,/,874052,/,874734,/,875413,/	t,t,t,t,t	<img class = center src='/static/experiments/beast_fmri_test/images/V.png'></img>	71,89	2750.0	test	<img class = center src='/static/experiments/beast_fmri_test/images/redV.png'></img>	stop	2400.0	1.0	11.0	stop	non-target	V	71,Index Finger	89,Middle Finger	350.0	350.0	2400.0	2400.0	0.0	350.0	n/a	1.0	go_stim
278660.72679961962	2400.0	n/a	-1	-1	2750	596.27320038	stim	stop-signal	313	874991	0.0-15.11-1.11	beast_fmri_test	330	872695,/,873374,/,874052,/,874734,/,875413,/	t,t,t,t,t	<img class = center src='/static/experiments/beast_fmri_test/images/V.png'></img>	71,89	2750.0	test	<img class = center src='/static/experiments/beast_fmri_test/images/redV.png'></img>	stop	2400.0	1.0	11.0	stop	non-target	V	71,Index Finger	89,Middle Finger	350.0	350.0	2400.0	2400.0	0.0	350.0	n/a	1.0	stop_stim
279010.72679961962	596.27320038	n/a	-1	-1	2750	596.27320038	stim	stop-signal	313	874991	0.0-15.11-1.11	beast_fmri_test	330	872695,/,873374,/,874052,/,874734,/,875413,/	t,t,t,t,t	<img class = center src='/static/experiments/beast_fmri_test/images/V.png'></img>	71,89	2750.0	test	<img class = center src='/static/experiments/beast_fmri_test/images/redV.png'></img>	stop	2400.0	1.0	11.0	stop	non-target	V	71,Index Finger	89,Middle Finger	350.0	350.0	2400.0	2400.0	0.0	350.0	n/a	1.0	ITI
280739	500.0	n/a	-1	-1	500	0.0	fixation	poldrack-single-stim	314	876123	0.0-15.12-0.12	beast_fmri_test	330	876092,/	t	<div class = centerbox2><div class = fixation>+</div></div>	none	500.0	test	n/a	n/a	n/a	n/a	n/a	n/a	n/a	n/a	n/a	n/a	n/a	n/a	n/a	n/a	n/a	n/a	n/a	n/a	fixation
280509.82041286502	400.0	n/a	823	71	2750	230.179587135	stim	stop-signal	315	878874	0.0-15.12-1.12	beast_fmri_test	330	876773,/,877451,/,878130,/,878811,/	t,t,t,t	<img class = center src='/static/experiments/beast_fmri_test/images/T.png'></img>	71,89	2750.0	test	<img class = center src='/static/experiments/beast_fmri_test/images/redT.png'></img>	stop	2350.0	1.0	12.0	stop	non-target	T	71,Index Finger	89,Middle Finger	350.0	400.0	2400.0	2350.0	0.0	400.0	n/a	0.0	go_stim
282859.82041286502	2350.0	n/a	823	71	2750	230.179587135	stim	stop-signal	315	878874	0.0-15.12-1.12	beast_fmri_test	330	876773,/,877451,/,878130,/,878811,/	t,t,t,t	<img class = center src='/static/experiments/beast_fmri_test/images/T.png'></img>	71,89	2750.0	test	<img class = center src='/static/experiments/beast_fmri_test/images/redT.png'></img>	stop	2350.0	1.0	12.0	stop	non-target	T	71,Index Finger	89,Middle Finger	350.0	400.0	2400.0	2350.0	0.0	400.0	n/a	0.0	stop_stim
283259.82041286502	230.179587135	n/a	823	71	2750	230.179587135	stim	stop-signal	315	878874	0.0-15.12-1.12	beast_fmri_test	330	876773,/,877451,/,878130,/,878811,/	t,t,t,t	<img class = center src='/static/experiments/beast_fmri_test/images/T.png'></img>	71,89	2750.0	test	<img class = center src='/static/experiments/beast_fmri_test/images/redT.png'></img>	stop	2350.0	1.0	12.0	stop	non-target	T	71,Index Finger	89,Middle Finger	350.0	400.0	2400.0	2350.0	0.0	400.0	n/a	0.0	ITI
284256	500.0	n/a	-1	-1	500	0.0	fixation	poldrack-single-stim	316	879640	0.0-15.13-0.13	beast_fmri_test	330	879490,/	t	<div class = centerbox2><div class = fixation>+</div></div>	none	500.0	test	n/a	n/a	n/a	n/a	n/a	n/a	n/a	n/a	n/a	n/a	n/a	n/a	n/a	n/a	n/a	n/a	n/a	n/a	fixation
284102.03302770411	2750.0	n/a	703	71	2750	155.966972296	stim	stop-signal	317	882392	0.0-15.13-1.13	beast_fmri_test	330	880169,/,880851,/,881530,/,882209,/	t,t,t,t	<img class = center src='/static/experiments/beast_fmri_test/images/V.png'></img>	71,89	2750.0	test	<img class = center src='/static/experiments/beast_fmri_test/images/redV.png'></img>	go	2400.0	1.0	13.0	go	non-target	V	71,Index Finger	89,Middle Finger	350.0	350.0	2400.0	2400.0	0.0	350.0	0.0	n/a	go_stim
286852.03302770411	155.966972296	n/a	703	71	2750	155.966972296	stim	stop-signal	317	882392	0.0-15.13-1.13	beast_fmri_test	330	880169,/,880851,/,881530,/,882209,/	t,t,t,t	<img class = center src='/static/experiments/beast_fmri_test/images/V.png'></img>	71,89	2750.0	test	<img class = center src='/static/experiments/beast_fmri_test/images/redV.png'></img>	go	2400.0	1.0	13.0	go	non-target	V	71,Index Finger	89,Middle Finger	350.0	350.0	2400.0	2400.0	0.0	350.0	0.0	n/a	ITI
287697	500.0	n/a	-1	-1	500	0.0	fixation	poldrack-single-stim	318	883081	0.0-15.14-0.14	beast_fmri_test	330	882889,/	t	<div class = centerbox2><div class = fixation>+</div></div>	none	500.0	test	n/a	n/a	n/a	n/a	n/a	n/a	n/a	n/a	n/a	n/a	n/a	n/a	n/a	n/a	n/a	n/a	n/a	n/a	fixation
287417.77072078944	2750.0	n/a	671	71	2750	281.229279211	stim	stop-signal	319	885833	0.0-15.14-1.14	beast_fmri_test	330	883569,/,884248,/,884927,/,885608,/	t,t,t,t	<img class = center src='/static/experiments/beast_fmri_test/images/B.png'></img>	71,89	2750.0	test	<img class = center src='/static/experiments/beast_fmri_test/images/redB.png'></img>	go	2400.0	1.0	14.0	go	non-target	B	71,Index Finger	89,Middle Finger	350.0	350.0	2400.0	2400.0	0.0	350.0	0.0	n/a	go_stim
290167.77072078944	281.229279211	n/a	671	71	2750	281.229279211	stim	stop-signal	319	885833	0.0-15.14-1.14	beast_fmri_test	330	883569,/,884248,/,884927,/,885608,/	t,t,t,t	<img class = center src='/static/experiments/beast_fmri_test/images/B.png'></img>	71,89	2750.0	test	<img class = center src='/static/experiments/beast_fmri_test/images/redB.png'></img>	go	2400.0	1.0	14.0	go	non-target	B	71,Index Finger	89,Middle Finger	350.0	350.0	2400.0	2400.0	0.0	350.0	0.0	n/a	ITI
291271	500.0	n/a	-1	-1	500	0.0	fixation	poldrack-single-stim	320	886655	0.0-15.15-0.15	beast_fmri_test	330	886287,/	t	<div class = centerbox2><div class = fixation>+</div></div>	none	500.0	test	n/a	n/a	n/a	n/a	n/a	n/a	n/a	n/a	n/a	n/a	n/a	n/a	n/a	n/a	n/a	n/a	n/a	n/a	fixation
290777.93101770419	350.0	n/a	-1	-1	2750	495.068982296	stim	stop-signal	321	889407	0.0-15.15-1.15	beast_fmri_test	330	886967,/,887647,/,888326,/,889005,/,889687,/	t,t,t,t,t	<img class = center src='/static/experiments/beast_fmri_test/images/V.png'></img>	71,89	2750.0	test	<img class = center src='/static/experiments/beast_fmri_test/images/redV.png'></img>	stop	2400.0	1.0	15.0	stop	non-target	V	71,Index Finger	89,Middle Finger	350.0	350.0	2400.0	2400.0	0.0	350.0	n/a	1.0	go_stim
293177.93101770419	2400.0	n/a	-1	-1	2750	495.068982296	stim	stop-signal	321	889407	0.0-15.15-1.15	beast_fmri_test	330	886967,/,887647,/,888326,/,889005,/,889687,/	t,t,t,t,t	<img class = center src='/static/experiments/beast_fmri_test/images/V.png'></img>	71,89	2750.0	test	<img class = center src='/static/experiments/beast_fmri_test/images/redV.png'></img>	stop	2400.0	1.0	15.0	stop	non-target	V	71,Index Finger	89,Middle Finger	350.0	350.0	2400.0	2400.0	0.0	350.0	n/a	1.0	stop_stim
293527.93101770419	495.068982296	n/a	-1	-1	2750	495.068982296	stim	stop-signal	321	889407	0.0-15.15-1.15	beast_fmri_test	330	886967,/,887647,/,888326,/,889005,/,889687,/	t,t,t,t,t	<img class = center src='/static/experiments/beast_fmri_test/images/V.png'></img>	71,89	2750.0	test	<img class = center src='/static/experiments/beast_fmri_test/images/redV.png'></img>	stop	2400.0	1.0	15.0	stop	non-target	V	71,Index Finger	89,Middle Finger	350.0	350.0	2400.0	2400.0	0.0	350.0	n/a	1.0	ITI
295054	500.0	n/a	-1	-1	500	0.0	fixation	poldrack-single-stim	322	890438	0.0-15.16-0.16	beast_fmri_test	330	890367,/	t	<div class = centerbox2><div class = fixation>+</div></div>	none	500.0	test	n/a	n/a	n/a	n/a	n/a	n/a	n/a	n/a	n/a	n/a	n/a	n/a	n/a	n/a	n/a	n/a	n/a	n/a	fixation
292887.46693072375	2750.0	n/a	667	71	2750	2167.53306928	stim	stop-signal	323	893189	0.0-15.16-1.16	beast_fmri_test	330	891046,/,891725,/,892404,/,893084,/,893765,/,894444,/,895123,/	t,t,t,t,t,t,t	<img class = center src='/static/experiments/beast_fmri_test/images/T.png'></img>	71,89	2750.0	test	<img class = center src='/static/experiments/beast_fmri_test/images/redT.png'></img>	go	2350.0	1.0	16.0	go	non-target	T	71,Index Finger	89,Middle Finger	350.0	400.0	2400.0	2350.0	0.0	400.0	0.0	n/a	go_stim
295637.46693072375	2167.53306928	n/a	667	71	2750	2167.53306928	stim	stop-signal	323	893189	0.0-15.16-1.16	beast_fmri_test	330	891046,/,891725,/,892404,/,893084,/,893765,/,894444,/,895123,/	t,t,t,t,t,t,t	<img class = center src='/static/experiments/beast_fmri_test/images/T.png'></img>	71,89	2750.0	test	<img class = center src='/static/experiments/beast_fmri_test/images/redT.png'></img>	go	2350.0	1.0	16.0	go	non-target	T	71,Index Finger	89,Middle Finger	350.0	400.0	2400.0	2350.0	0.0	400.0	0.0	n/a	ITI
300505	500.0	n/a	-1	-1	500	0.0	fixation	poldrack-single-stim	324	895889	0.0-15.17-0.17	beast_fmri_test	330	895804,/	t	<div class = centerbox2><div class = fixation>+</div></div>	none	500.0	test	n/a	n/a	n/a	n/a	n/a	n/a	n/a	n/a	n/a	n/a	n/a	n/a	n/a	n/a	n/a	n/a	n/a	n/a	fixation
300356.33919583715	350.0	n/a	589	89	2750	150.660804163	stim	stop-signal	325	898641	0.0-15.17-1.17	beast_fmri_test	330	896482,/,897162,/,897841,/,898523,/	t,t,t,t	<img class = center src='/static/experiments/beast_fmri_test/images/T.png'></img>	71,89	2750.0	test	<img class = center src='/static/experiments/beast_fmri_test/images/redT.png'></img>	stop	2400.0	1.0	17.0	stop	target	T	71,Index Finger	89,Middle Finger	350.0	400.0	2400.0	2350.0	0.0	350.0	n/a	0.0	go_stim
302756.33919583715	2400.0	n/a	589	89	2750	150.660804163	stim	stop-signal	325	898641	0.0-15.17-1.17	beast_fmri_test	330	896482,/,897162,/,897841,/,898523,/	t,t,t,t	<img class = center src='/static/experiments/beast_fmri_test/images/T.png'></img>	71,89	2750.0	test	<img class = center src='/static/experiments/beast_fmri_test/images/redT.png'></img>	stop	2400.0	1.0	17.0	stop	target	T	71,Index Finger	89,Middle Finger	350.0	400.0	2400.0	2350.0	0.0	350.0	n/a	0.0	stop_stim
303106.33919583715	150.660804163	n/a	589	89	2750	150.660804163	stim	stop-signal	325	898641	0.0-15.17-1.17	beast_fmri_test	330	896482,/,897162,/,897841,/,898523,/	t,t,t,t	<img class = center src='/static/experiments/beast_fmri_test/images/T.png'></img>	71,89	2750.0	test	<img class = center src='/static/experiments/beast_fmri_test/images/redT.png'></img>	stop	2400.0	1.0	17.0	stop	target	T	71,Index Finger	89,Middle Finger	350.0	400.0	2400.0	2350.0	0.0	350.0	n/a	0.0	ITI
303943	500.0	n/a	-1	-1	500	0.0	fixation	poldrack-single-stim	326	899327	0.0-15.18-0.18	beast_fmri_test	330	899202,/	t	<div class = centerbox2><div class = fixation>+</div></div>	none	500.0	test	n/a	n/a	n/a	n/a	n/a	n/a	n/a	n/a	n/a	n/a	n/a	n/a	n/a	n/a	n/a	n/a	n/a	n/a	fixation
302681.73440865171	2750.0	n/a	1029	71	2750	1264.26559135	stim	stop-signal	327	902080	0.0-15.18-1.18	beast_fmri_test	330	899881,/,900561,/,901241,/,901919,/,902599,/,903279,/	t,t,t,t,t,t	<img class = center src='/static/experiments/beast_fmri_test/images/B.png'></img>	71,89	2750.0	test	<img class = center src='/static/experiments/beast_fmri_test/images/redB.png'></img>	go	2350.0	1.0	18.0	go	non-target	B	71,Index Finger	89,Middle Finger	300.0	400.0	2400.0	2350.0	0.0	400.0	0.0	n/a	go_stim
305431.73440865171	1264.26559135	n/a	1029	71	2750	1264.26559135	stim	stop-signal	327	902080	0.0-15.18-1.18	beast_fmri_test	330	899881,/,900561,/,901241,/,901919,/,902599,/,903279,/	t,t,t,t,t,t	<img class = center src='/static/experiments/beast_fmri_test/images/B.png'></img>	71,89	2750.0	test	<img class = center src='/static/experiments/beast_fmri_test/images/redB.png'></img>	go	2350.0	1.0	18.0	go	non-target	B	71,Index Finger	89,Middle Finger	300.0	400.0	2400.0	2350.0	0.0	400.0	0.0	n/a	ITI
308497	500.0	n/a	-1	-1	500	0.0	fixation	poldrack-single-stim	328	903881	0.0-15.19-0.19	beast_fmri_test	330	n/a	n/a	<div class = centerbox2><div class = fixation>+</div></div>	none	500.0	test	n/a	n/a	n/a	n/a	n/a	n/a	n/a	n/a	n/a	n/a	n/a	n/a	n/a	n/a	n/a	n/a	n/a	n/a	fixation
308253.66963774909	2750.0	n/a	702	71	2750	245.330362251	stim	stop-signal	329	906633	0.0-15.19-1.19	beast_fmri_test	330	903959,/,904640,/,905318,/,905998,/,906678,/	t,t,t,t,t	<img class = center src='/static/experiments/beast_fmri_test/images/P.png'></img>	71,89	2750.0	test	<img class = center src='/static/experiments/beast_fmri_test/images/redP.png'></img>	go	2350.0	1.0	19.0	go	non-target	P	71,Index Finger	89,Middle Finger	300.0	400.0	2400.0	2350.0	0.0	400.0	0.0	n/a	go_stim
311003.66963774909	245.330362251	n/a	702	71	2750	245.330362251	stim	stop-signal	329	906633	0.0-15.19-1.19	beast_fmri_test	330	903959,/,904640,/,905318,/,905998,/,906678,/	t,t,t,t,t	<img class = center src='/static/experiments/beast_fmri_test/images/P.png'></img>	71,89	2750.0	test	<img class = center src='/static/experiments/beast_fmri_test/images/redP.png'></img>	go	2350.0	1.0	19.0	go	non-target	P	71,Index Finger	89,Middle Finger	300.0	400.0	2400.0	2350.0	0.0	400.0	0.0	n/a	ITI
312029	500.0	n/a	-1	-1	500	0.0	fixation	poldrack-single-stim	330	907413	0.0-15.20-0.20	beast_fmri_test	330	907358,/	t	<div class = centerbox2><div class = fixation>+</div></div>	none	500.0	test	n/a	n/a	n/a	n/a	n/a	n/a	n/a	n/a	n/a	n/a	n/a	n/a	n/a	n/a	n/a	n/a	n/a	n/a	fixation
311395.64204428159	300.0	n/a	-1	-1	2750	635.357955718	stim	stop-signal	331	910165	0.0-15.20-1.20	beast_fmri_test	330	908036,/,908718,/,909397,/,910077,/,910756,/	t,t,t,t,t	<img class = center src='/static/experiments/beast_fmri_test/images/P.png'></img>	71,89	2750.0	test	<img class = center src='/static/experiments/beast_fmri_test/images/redP.png'></img>	stop	2450.0	1.0	20.0	stop	target	P	71,Index Finger	89,Middle Finger	300.0	400.0	2450.0	2350.0	0.0	300.0	n/a	1.0	go_stim
313845.64204428159	2450.0	n/a	-1	-1	2750	635.357955718	stim	stop-signal	331	910165	0.0-15.20-1.20	beast_fmri_test	330	908036,/,908718,/,909397,/,910077,/,910756,/	t,t,t,t,t	<img class = center src='/static/experiments/beast_fmri_test/images/P.png'></img>	71,89	2750.0	test	<img class = center src='/static/experiments/beast_fmri_test/images/redP.png'></img>	stop	2450.0	1.0	20.0	stop	target	P	71,Index Finger	89,Middle Finger	300.0	400.0	2450.0	2350.0	0.0	300.0	n/a	1.0	stop_stim
314145.64204428159	635.357955718	n/a	-1	-1	2750	635.357955718	stim	stop-signal	331	910165	0.0-15.20-1.20	beast_fmri_test	330	908036,/,908718,/,909397,/,910077,/,910756,/	t,t,t,t,t	<img class = center src='/static/experiments/beast_fmri_test/images/P.png'></img>	71,89	2750.0	test	<img class = center src='/static/experiments/beast_fmri_test/images/redP.png'></img>	stop	2450.0	1.0	20.0	stop	target	P	71,Index Finger	89,Middle Finger	300.0	400.0	2450.0	2350.0	0.0	300.0	n/a	1.0	ITI
315957	500.0	n/a	-1	-1	500	0.0	fixation	poldrack-single-stim	332	911341	0.0-15.21-0.21	beast_fmri_test	330	n/a	n/a	<div class = centerbox2><div class = fixation>+</div></div>	none	500.0	test	n/a	n/a	n/a	n/a	n/a	n/a	n/a	n/a	n/a	n/a	n/a	n/a	n/a	n/a	n/a	n/a	n/a	n/a	fixation
315421.88548717822	400.0	n/a	747	71	2750	537.114512822	stim	stop-signal	333	914093	0.0-15.21-1.21	beast_fmri_test	330	911435,/,912114,/,912794,/,913475,/,914154,/	t,t,t,t,t	<img class = center src='/static/experiments/beast_fmri_test/images/B.png'></img>	71,89	2750.0	test	<img class = center src='/static/experiments/beast_fmri_test/images/redB.png'></img>	stop	2350.0	1.0	21.0	stop	non-target	B	71,Index Finger	89,Middle Finger	350.0	400.0	2450.0	2350.0	0.0	400.0	n/a	0.0	go_stim
317771.88548717822	2350.0	n/a	747	71	2750	537.114512822	stim	stop-signal	333	914093	0.0-15.21-1.21	beast_fmri_test	330	911435,/,912114,/,912794,/,913475,/,914154,/	t,t,t,t,t	<img class = center src='/static/experiments/beast_fmri_test/images/B.png'></img>	71,89	2750.0	test	<img class = center src='/static/experiments/beast_fmri_test/images/redB.png'></img>	stop	2350.0	1.0	21.0	stop	non-target	B	71,Index Finger	89,Middle Finger	350.0	400.0	2450.0	2350.0	0.0	400.0	n/a	0.0	stop_stim
318171.88548717822	537.114512822	n/a	747	71	2750	537.114512822	stim	stop-signal	333	914093	0.0-15.21-1.21	beast_fmri_test	330	911435,/,912114,/,912794,/,913475,/,914154,/	t,t,t,t,t	<img class = center src='/static/experiments/beast_fmri_test/images/B.png'></img>	71,89	2750.0	test	<img class = center src='/static/experiments/beast_fmri_test/images/redB.png'></img>	stop	2350.0	1.0	21.0	stop	non-target	B	71,Index Finger	89,Middle Finger	350.0	400.0	2450.0	2350.0	0.0	400.0	n/a	0.0	ITI
319782	500.0	n/a	-1	-1	500	0.0	fixation	poldrack-single-stim	334	915166	0.0-15.22-0.22	beast_fmri_test	330	914834,/	t	<div class = centerbox2><div class = fixation>+</div></div>	none	500.0	test	n/a	n/a	n/a	n/a	n/a	n/a	n/a	n/a	n/a	n/a	n/a	n/a	n/a	n/a	n/a	n/a	n/a	n/a	fixation
314783.0	2750.0	n/a	799	71	2750	5000.0	stim	stop-signal	335	917917	0.0-15.22-1.22	beast_fmri_test	330	915513,/,916192,/,916874,/,917553,/,918233,/,918914,/,919593,/,920272,/,920951,/,921631,/,922311,/	t,t,t,t,t,t,t,t,t,t,t	<img class = center src='/static/experiments/beast_fmri_test/images/P.png'></img>	71,89	2750.0	test	<img class = center src='/static/experiments/beast_fmri_test/images/redP.png'></img>	go	2400.0	1.0	22.0	go	non-target	P	71,Index Finger	89,Middle Finger	350.0	350.0	2450.0	2400.0	0.0	350.0	0.0	n/a	go_stim
317533.0	5000.0	n/a	799	71	2750	5000.0	stim	stop-signal	335	917917	0.0-15.22-1.22	beast_fmri_test	330	915513,/,916192,/,916874,/,917553,/,918233,/,918914,/,919593,/,920272,/,920951,/,921631,/,922311,/	t,t,t,t,t,t,t,t,t,t,t	<img class = center src='/static/experiments/beast_fmri_test/images/P.png'></img>	71,89	2750.0	test	<img class = center src='/static/experiments/beast_fmri_test/images/redP.png'></img>	go	2400.0	1.0	22.0	go	non-target	P	71,Index Finger	89,Middle Finger	350.0	350.0	2450.0	2400.0	0.0	350.0	0.0	n/a	ITI
328068	500.0	n/a	-1	-1	500	0.0	fixation	poldrack-single-stim	336	923452	0.0-15.23-0.23	beast_fmri_test	330	922990,/	t	<div class = centerbox2><div class = fixation>+</div></div>	none	500.0	test	n/a	n/a	n/a	n/a	n/a	n/a	n/a	n/a	n/a	n/a	n/a	n/a	n/a	n/a	n/a	n/a	n/a	n/a	fixation
