onset	duration	text	rt	key_press	block_duration	timing_post_trial	trial_id	trial_type	trial_index	time_elapsed	internal_node_id	exp_id	subject_id	trigger_times	triggers	stimulus	possible_responses	stim_duration	exp_stage	SS_stimulus	SS_trial_type	SS_duration	load	trial_num	stop_trial_type	adaptive_trial_type	stim	yes_response_key	no_response_key	SSD_target	SSD_non_target	SSTarget	SSNonTarget	go_acc	SS_delay	adaptive_acc	stop_acc	new_trial_type
test	10880.0	n/a	-1	-1	10880	0.0	practice-no-stop-feedback	poldrack-single-stim	384	1120600	0.0-18.0	beast_fmri_test	330	1109725,/,1110401,/,1111080,/,1111759,/,1112439,/,1113120,/,1113798,/,1114479,/,1115158,/,1115838,/,1116518,/,1117196,/,1117876,/,1118558,/,1119236,/,1119916,/,1120596,/	t,t,t,t,t,t,t,t,t,t,t,t,t,t,t,t,t	"<div class = ""centerbox""><p class = ""block-text"">Your delay is 1 trials.</p><p class = block-text>Please wait for the scanner to start the block</p></div>"	77	10880.0	n/a	n/a	n/a	n/a	n/a	n/a	n/a	n/a	n/a	n/a	n/a	n/a	n/a	n/a	n/a	n/a	n/a	n/a	n/a	start_functional_block
11378	500.0	n/a	-1	-1	500	0.0	fixation	poldrack-single-stim	385	1121103	0.0-19.0-0.0	beast_fmri_test	330	n/a	n/a	<div class = centerbox2><div class = fixation>+</div></div>	none	500.0	test	n/a	n/a	n/a	n/a	n/a	n/a	n/a	n/a	n/a	n/a	n/a	n/a	n/a	n/a	n/a	n/a	n/a	n/a	fixation
11119.8945491747	2750.0	n/a	687	71	2750	259.105450825	stim	stop-signal	386	1123854	0.0-19.0-1.0	beast_fmri_test	330	1121274,/,1121954,/,1122635,/,1123314,/,1123994,/	t,t,t,t,t	<img class = center src='/static/experiments/beast_fmri_test/images/P.png'></img>	71,89	2750.0	test	<img class = center src='/static/experiments/beast_fmri_test/images/redP.png'></img>	go	-1.0	1.0	0.0	go	temp-non-target	P	71,Index Finger	89,Middle Finger	500.0	400.0	2250.0	2350.0	0.0	n/a	n/a	n/a	go_stim
13869.8945491747	259.105450825	n/a	687	71	2750	259.105450825	stim	stop-signal	386	1123854	0.0-19.0-1.0	beast_fmri_test	330	1121274,/,1121954,/,1122635,/,1123314,/,1123994,/	t,t,t,t,t	<img class = center src='/static/experiments/beast_fmri_test/images/P.png'></img>	71,89	2750.0	test	<img class = center src='/static/experiments/beast_fmri_test/images/redP.png'></img>	go	-1.0	1.0	0.0	go	temp-non-target	P	71,Index Finger	89,Middle Finger	500.0	400.0	2250.0	2350.0	0.0	n/a	n/a	n/a	ITI
14933	500.0	n/a	-1	-1	500	0.0	fixation	poldrack-single-stim	387	1124658	0.0-19.1-0.1	beast_fmri_test	330	n/a	n/a	<div class = centerbox2><div class = fixation>+</div></div>	none	500.0	test	n/a	n/a	n/a	n/a	n/a	n/a	n/a	n/a	n/a	n/a	n/a	n/a	n/a	n/a	n/a	n/a	n/a	n/a	fixation
13782.475249601994	400.0	n/a	561	71	2750	1153.5247504	stim	stop-signal	388	1127411	0.0-19.1-1.1	beast_fmri_test	330	1124676,/,1125353,/,1126032,/,1126711,/,1127391,/,1128072,/	t,t,t,t,t,t	<img class = center src='/static/experiments/beast_fmri_test/images/B.png'></img>	71,89	2750.0	test	<img class = center src='/static/experiments/beast_fmri_test/images/redB.png'></img>	stop	2350.0	1.0	1.0	stop	non-target	B	71,Index Finger	89,Middle Finger	500.0	400.0	2250.0	2350.0	0.0	400.0	n/a	0.0	go_stim
16132.475249601994	2350.0	n/a	561	71	2750	1153.5247504	stim	stop-signal	388	1127411	0.0-19.1-1.1	beast_fmri_test	330	1124676,/,1125353,/,1126032,/,1126711,/,1127391,/,1128072,/	t,t,t,t,t,t	<img class = center src='/static/experiments/beast_fmri_test/images/B.png'></img>	71,89	2750.0	test	<img class = center src='/static/experiments/beast_fmri_test/images/redB.png'></img>	stop	2350.0	1.0	1.0	stop	non-target	B	71,Index Finger	89,Middle Finger	500.0	400.0	2250.0	2350.0	0.0	400.0	n/a	0.0	stop_stim
16532.475249601994	1153.5247504	n/a	561	71	2750	1153.5247504	stim	stop-signal	388	1127411	0.0-19.1-1.1	beast_fmri_test	330	1124676,/,1125353,/,1126032,/,1126711,/,1127391,/,1128072,/	t,t,t,t,t,t	<img class = center src='/static/experiments/beast_fmri_test/images/B.png'></img>	71,89	2750.0	test	<img class = center src='/static/experiments/beast_fmri_test/images/redB.png'></img>	stop	2350.0	1.0	1.0	stop	non-target	B	71,Index Finger	89,Middle Finger	500.0	400.0	2250.0	2350.0	0.0	400.0	n/a	0.0	ITI
19379	500.0	n/a	-1	-1	500	0.0	fixation	poldrack-single-stim	389	1129104	0.0-19.2-0.2	beast_fmri_test	330	1128752,/	t	<div class = centerbox2><div class = fixation>+</div></div>	none	500.0	test	n/a	n/a	n/a	n/a	n/a	n/a	n/a	n/a	n/a	n/a	n/a	n/a	n/a	n/a	n/a	n/a	n/a	n/a	fixation
19333.819837595103	500.0	n/a	513	89	2750	46.1801624048	stim	stop-signal	390	1131855	0.0-19.2-1.2	beast_fmri_test	330	1129431,/,1130109,/,1130789,/,1131470,/	t,t,t,t	<img class = center src='/static/experiments/beast_fmri_test/images/B.png'></img>	71,89	2750.0	test	<img class = center src='/static/experiments/beast_fmri_test/images/redB.png'></img>	stop	2250.0	1.0	2.0	stop	target	B	71,Index Finger	89,Middle Finger	500.0	350.0	2250.0	2350.0	0.0	500.0	n/a	0.0	go_stim
21583.819837595103	2250.0	n/a	513	89	2750	46.1801624048	stim	stop-signal	390	1131855	0.0-19.2-1.2	beast_fmri_test	330	1129431,/,1130109,/,1130789,/,1131470,/	t,t,t,t	<img class = center src='/static/experiments/beast_fmri_test/images/B.png'></img>	71,89	2750.0	test	<img class = center src='/static/experiments/beast_fmri_test/images/redB.png'></img>	stop	2250.0	1.0	2.0	stop	target	B	71,Index Finger	89,Middle Finger	500.0	350.0	2250.0	2350.0	0.0	500.0	n/a	0.0	stop_stim
22083.819837595103	46.1801624048	n/a	513	89	2750	46.1801624048	stim	stop-signal	390	1131855	0.0-19.2-1.2	beast_fmri_test	330	1129431,/,1130109,/,1130789,/,1131470,/	t,t,t,t	<img class = center src='/static/experiments/beast_fmri_test/images/B.png'></img>	71,89	2750.0	test	<img class = center src='/static/experiments/beast_fmri_test/images/redB.png'></img>	stop	2250.0	1.0	2.0	stop	target	B	71,Index Finger	89,Middle Finger	500.0	350.0	2250.0	2350.0	0.0	500.0	n/a	0.0	ITI
22717	500.0	n/a	-1	-1	500	0.0	fixation	poldrack-single-stim	391	1132442	0.0-19.3-0.3	beast_fmri_test	330	1132150,/	t	<div class = centerbox2><div class = fixation>+</div></div>	none	500.0	test	n/a	n/a	n/a	n/a	n/a	n/a	n/a	n/a	n/a	n/a	n/a	n/a	n/a	n/a	n/a	n/a	n/a	n/a	fixation
21493.060229924275	450.0	n/a	945	89	2750	1224.93977008	stim	stop-signal	392	1135193	0.0-19.3-1.3	beast_fmri_test	330	1132830,/,1133510,/,1134189,/,1134868,/,1135548,/,1136228,/	t,t,t,t,t,t	<img class = center src='/static/experiments/beast_fmri_test/images/B.png'></img>	71,89	2750.0	test	<img class = center src='/static/experiments/beast_fmri_test/images/redB.png'></img>	stop	2300.0	1.0	3.0	stop	target	B	71,Index Finger	89,Middle Finger	450.0	350.0	2300.0	2350.0	0.0	450.0	n/a	0.0	go_stim
23793.060229924275	2300.0	n/a	945	89	2750	1224.93977008	stim	stop-signal	392	1135193	0.0-19.3-1.3	beast_fmri_test	330	1132830,/,1133510,/,1134189,/,1134868,/,1135548,/,1136228,/	t,t,t,t,t,t	<img class = center src='/static/experiments/beast_fmri_test/images/B.png'></img>	71,89	2750.0	test	<img class = center src='/static/experiments/beast_fmri_test/images/redB.png'></img>	stop	2300.0	1.0	3.0	stop	target	B	71,Index Finger	89,Middle Finger	450.0	350.0	2300.0	2350.0	0.0	450.0	n/a	0.0	stop_stim
24243.060229924275	1224.93977008	n/a	945	89	2750	1224.93977008	stim	stop-signal	392	1135193	0.0-19.3-1.3	beast_fmri_test	330	1132830,/,1133510,/,1134189,/,1134868,/,1135548,/,1136228,/	t,t,t,t,t,t	<img class = center src='/static/experiments/beast_fmri_test/images/B.png'></img>	71,89	2750.0	test	<img class = center src='/static/experiments/beast_fmri_test/images/redB.png'></img>	stop	2300.0	1.0	3.0	stop	target	B	71,Index Finger	89,Middle Finger	450.0	350.0	2300.0	2350.0	0.0	450.0	n/a	0.0	ITI
27237	500.0	n/a	-1	-1	500	0.0	fixation	poldrack-single-stim	393	1136962	0.0-19.4-0.4	beast_fmri_test	330	1136908,/	t	<div class = centerbox2><div class = fixation>+</div></div>	none	500.0	test	n/a	n/a	n/a	n/a	n/a	n/a	n/a	n/a	n/a	n/a	n/a	n/a	n/a	n/a	n/a	n/a	n/a	n/a	fixation
27009.954032282112	2750.0	n/a	738	89	2750	229.045967718	stim	stop-signal	394	1139714	0.0-19.4-1.4	beast_fmri_test	330	1137588,/,1138268,/,1138947,/,1139627,/	t,t,t,t	<img class = center src='/static/experiments/beast_fmri_test/images/B.png'></img>	71,89	2750.0	test	<img class = center src='/static/experiments/beast_fmri_test/images/redB.png'></img>	go	2350.0	1.0	4.0	go	target	B	71,Index Finger	89,Middle Finger	400.0	350.0	2350.0	2350.0	0.0	400.0	0.0	n/a	go_stim
29759.954032282112	229.045967718	n/a	738	89	2750	229.045967718	stim	stop-signal	394	1139714	0.0-19.4-1.4	beast_fmri_test	330	1137588,/,1138268,/,1138947,/,1139627,/	t,t,t,t	<img class = center src='/static/experiments/beast_fmri_test/images/B.png'></img>	71,89	2750.0	test	<img class = center src='/static/experiments/beast_fmri_test/images/redB.png'></img>	go	2350.0	1.0	4.0	go	target	B	71,Index Finger	89,Middle Finger	400.0	350.0	2350.0	2350.0	0.0	400.0	0.0	n/a	ITI
30764	500.0	n/a	-1	-1	500	0.0	fixation	poldrack-single-stim	395	1140489	0.0-19.5-0.5	beast_fmri_test	330	1140306,/	t	<div class = centerbox2><div class = fixation>+</div></div>	none	500.0	test	n/a	n/a	n/a	n/a	n/a	n/a	n/a	n/a	n/a	n/a	n/a	n/a	n/a	n/a	n/a	n/a	n/a	n/a	fixation
30733.305387111846	2750.0	n/a	580	71	2750	31.6946128882	stim	stop-signal	396	1143240	0.0-19.5-1.5	beast_fmri_test	330	1140985,/,1141666,/,1142346,/,1143026,/	t,t,t,t	<img class = center src='/static/experiments/beast_fmri_test/images/V.png'></img>	71,89	2750.0	test	<img class = center src='/static/experiments/beast_fmri_test/images/redV.png'></img>	go	2400.0	1.0	5.0	go	non-target	V	71,Index Finger	89,Middle Finger	400.0	350.0	2350.0	2400.0	0.0	350.0	0.0	n/a	go_stim
33483.305387111846	31.6946128882	n/a	580	71	2750	31.6946128882	stim	stop-signal	396	1143240	0.0-19.5-1.5	beast_fmri_test	330	1140985,/,1141666,/,1142346,/,1143026,/	t,t,t,t	<img class = center src='/static/experiments/beast_fmri_test/images/V.png'></img>	71,89	2750.0	test	<img class = center src='/static/experiments/beast_fmri_test/images/redV.png'></img>	go	2400.0	1.0	5.0	go	non-target	V	71,Index Finger	89,Middle Finger	400.0	350.0	2350.0	2400.0	0.0	350.0	0.0	n/a	ITI
34088	500.0	n/a	-1	-1	500	0.0	fixation	poldrack-single-stim	397	1143813	0.0-19.6-0.6	beast_fmri_test	330	1143705,/	t	<div class = centerbox2><div class = fixation>+</div></div>	none	500.0	test	n/a	n/a	n/a	n/a	n/a	n/a	n/a	n/a	n/a	n/a	n/a	n/a	n/a	n/a	n/a	n/a	n/a	n/a	fixation
33227.78778830939	2750.0	n/a	762	89	2750	862.212211691	stim	stop-signal	398	1146565	0.0-19.6-1.6	beast_fmri_test	330	1144384,/,1145064,/,1145743,/,1146425,/,1147103,/	t,t,t,t,t	<img class = center src='/static/experiments/beast_fmri_test/images/V.png'></img>	71,89	2750.0	test	<img class = center src='/static/experiments/beast_fmri_test/images/redV.png'></img>	go	2350.0	1.0	6.0	go	target	V	71,Index Finger	89,Middle Finger	400.0	350.0	2350.0	2400.0	0.0	400.0	0.0	n/a	go_stim
35977.78778830939	862.212211691	n/a	762	89	2750	862.212211691	stim	stop-signal	398	1146565	0.0-19.6-1.6	beast_fmri_test	330	1144384,/,1145064,/,1145743,/,1146425,/,1147103,/	t,t,t,t,t	<img class = center src='/static/experiments/beast_fmri_test/images/V.png'></img>	71,89	2750.0	test	<img class = center src='/static/experiments/beast_fmri_test/images/redV.png'></img>	go	2350.0	1.0	6.0	go	target	V	71,Index Finger	89,Middle Finger	400.0	350.0	2350.0	2400.0	0.0	400.0	0.0	n/a	ITI
38248	500.0	n/a	-1	-1	500	0.0	fixation	poldrack-single-stim	399	1147973	0.0-19.7-0.7	beast_fmri_test	330	1147782,/	t	<div class = centerbox2><div class = fixation>+</div></div>	none	500.0	test	n/a	n/a	n/a	n/a	n/a	n/a	n/a	n/a	n/a	n/a	n/a	n/a	n/a	n/a	n/a	n/a	n/a	n/a	fixation
35891.299010405317	2750.0	n/a	728	71	2750	2358.70098959	stim	stop-signal	400	1150725	0.0-19.7-1.7	beast_fmri_test	330	1148463,/,1149141,/,1149821,/,1150501,/,1151181,/,1151861,/,1152541,/	t,t,t,t,t,t,t	<img class = center src='/static/experiments/beast_fmri_test/images/B.png'></img>	71,89	2750.0	test	<img class = center src='/static/experiments/beast_fmri_test/images/redB.png'></img>	go	2400.0	1.0	7.0	go	non-target	B	71,Index Finger	89,Middle Finger	400.0	350.0	2350.0	2400.0	0.0	350.0	0.0	n/a	go_stim
38641.299010405317	2358.70098959	n/a	728	71	2750	2358.70098959	stim	stop-signal	400	1150725	0.0-19.7-1.7	beast_fmri_test	330	1148463,/,1149141,/,1149821,/,1150501,/,1151181,/,1151861,/,1152541,/	t,t,t,t,t,t,t	<img class = center src='/static/experiments/beast_fmri_test/images/B.png'></img>	71,89	2750.0	test	<img class = center src='/static/experiments/beast_fmri_test/images/redB.png'></img>	go	2400.0	1.0	7.0	go	non-target	B	71,Index Finger	89,Middle Finger	400.0	350.0	2350.0	2400.0	0.0	350.0	0.0	n/a	ITI
43908	500.0	n/a	-1	-1	500	0.0	fixation	poldrack-single-stim	401	1153633	0.0-19.8-0.8	beast_fmri_test	330	1153220,/	t	<div class = centerbox2><div class = fixation>+</div></div>	none	500.0	test	n/a	n/a	n/a	n/a	n/a	n/a	n/a	n/a	n/a	n/a	n/a	n/a	n/a	n/a	n/a	n/a	n/a	n/a	fixation
43897.799439849099	350.0	n/a	-1	-1	2750	13.200560151	stim	stop-signal	402	1156386	0.0-19.8-1.8	beast_fmri_test	330	1153899,/,1154579,/,1155258,/,1155940,/	t,t,t,t	<img class = center src='/static/experiments/beast_fmri_test/images/P.png'></img>	71,89	2750.0	test	<img class = center src='/static/experiments/beast_fmri_test/images/redP.png'></img>	stop	2400.0	1.0	8.0	stop	non-target	P	71,Index Finger	89,Middle Finger	400.0	350.0	2350.0	2400.0	0.0	350.0	n/a	1.0	go_stim
46297.799439849099	2400.0	n/a	-1	-1	2750	13.200560151	stim	stop-signal	402	1156386	0.0-19.8-1.8	beast_fmri_test	330	1153899,/,1154579,/,1155258,/,1155940,/	t,t,t,t	<img class = center src='/static/experiments/beast_fmri_test/images/P.png'></img>	71,89	2750.0	test	<img class = center src='/static/experiments/beast_fmri_test/images/redP.png'></img>	stop	2400.0	1.0	8.0	stop	non-target	P	71,Index Finger	89,Middle Finger	400.0	350.0	2350.0	2400.0	0.0	350.0	n/a	1.0	stop_stim
46647.799439849099	13.200560151	n/a	-1	-1	2750	13.200560151	stim	stop-signal	402	1156386	0.0-19.8-1.8	beast_fmri_test	330	1153899,/,1154579,/,1155258,/,1155940,/	t,t,t,t	<img class = center src='/static/experiments/beast_fmri_test/images/P.png'></img>	71,89	2750.0	test	<img class = center src='/static/experiments/beast_fmri_test/images/redP.png'></img>	stop	2400.0	1.0	8.0	stop	non-target	P	71,Index Finger	89,Middle Finger	400.0	350.0	2350.0	2400.0	0.0	350.0	n/a	1.0	ITI
47218	500.0	n/a	-1	-1	500	0.0	fixation	poldrack-single-stim	403	1156943	0.0-19.9-0.9	beast_fmri_test	330	1156619,/	t	<div class = centerbox2><div class = fixation>+</div></div>	none	500.0	test	n/a	n/a	n/a	n/a	n/a	n/a	n/a	n/a	n/a	n/a	n/a	n/a	n/a	n/a	n/a	n/a	n/a	n/a	fixation
47121.087696981616	400.0	n/a	-1	-1	2750	97.9123030185	stim	stop-signal	404	1159694	0.0-19.9-1.9	beast_fmri_test	330	1157299,/,1157978,/,1158658,/,1159337,/	t,t,t,t	<img class = center src='/static/experiments/beast_fmri_test/images/B.png'></img>	71,89	2750.0	test	<img class = center src='/static/experiments/beast_fmri_test/images/redB.png'></img>	stop	2350.0	1.0	9.0	stop	non-target	B	71,Index Finger	89,Middle Finger	400.0	400.0	2350.0	2350.0	0.0	400.0	n/a	1.0	go_stim
49471.087696981616	2350.0	n/a	-1	-1	2750	97.9123030185	stim	stop-signal	404	1159694	0.0-19.9-1.9	beast_fmri_test	330	1157299,/,1157978,/,1158658,/,1159337,/	t,t,t,t	<img class = center src='/static/experiments/beast_fmri_test/images/B.png'></img>	71,89	2750.0	test	<img class = center src='/static/experiments/beast_fmri_test/images/redB.png'></img>	stop	2350.0	1.0	9.0	stop	non-target	B	71,Index Finger	89,Middle Finger	400.0	400.0	2350.0	2350.0	0.0	400.0	n/a	1.0	stop_stim
49871.087696981616	97.9123030185	n/a	-1	-1	2750	97.9123030185	stim	stop-signal	404	1159694	0.0-19.9-1.9	beast_fmri_test	330	1157299,/,1157978,/,1158658,/,1159337,/	t,t,t,t	<img class = center src='/static/experiments/beast_fmri_test/images/B.png'></img>	71,89	2750.0	test	<img class = center src='/static/experiments/beast_fmri_test/images/redB.png'></img>	stop	2350.0	1.0	9.0	stop	non-target	B	71,Index Finger	89,Middle Finger	400.0	400.0	2350.0	2350.0	0.0	400.0	n/a	1.0	ITI
50611	500.0	n/a	-1	-1	500	0.0	fixation	poldrack-single-stim	405	1160336	0.0-19.10-0.10	beast_fmri_test	330	1160018,/	t	<div class = centerbox2><div class = fixation>+</div></div>	none	500.0	test	n/a	n/a	n/a	n/a	n/a	n/a	n/a	n/a	n/a	n/a	n/a	n/a	n/a	n/a	n/a	n/a	n/a	n/a	fixation
49569.4897181876	2750.0	n/a	711	89	2750	1043.51028181	stim	stop-signal	406	1163088	0.0-19.10-1.10	beast_fmri_test	330	1160696,/,1161376,/,1162057,/,1162735,/,1163416,/,1164095,/	t,t,t,t,t,t	<img class = center src='/static/experiments/beast_fmri_test/images/B.png'></img>	71,89	2750.0	test	<img class = center src='/static/experiments/beast_fmri_test/images/redB.png'></img>	go	2350.0	1.0	10.0	go	target	B	71,Index Finger	89,Middle Finger	400.0	450.0	2350.0	2350.0	0.0	400.0	0.0	n/a	go_stim
52319.4897181876	1043.51028181	n/a	711	89	2750	1043.51028181	stim	stop-signal	406	1163088	0.0-19.10-1.10	beast_fmri_test	330	1160696,/,1161376,/,1162057,/,1162735,/,1163416,/,1164095,/	t,t,t,t,t,t	<img class = center src='/static/experiments/beast_fmri_test/images/B.png'></img>	71,89	2750.0	test	<img class = center src='/static/experiments/beast_fmri_test/images/redB.png'></img>	go	2350.0	1.0	10.0	go	target	B	71,Index Finger	89,Middle Finger	400.0	450.0	2350.0	2350.0	0.0	400.0	0.0	n/a	ITI
54959	500.0	n/a	-1	-1	500	0.0	fixation	poldrack-single-stim	407	1164684	0.0-19.11-0.11	beast_fmri_test	330	n/a	n/a	<div class = centerbox2><div class = fixation>+</div></div>	none	500.0	test	n/a	n/a	n/a	n/a	n/a	n/a	n/a	n/a	n/a	n/a	n/a	n/a	n/a	n/a	n/a	n/a	n/a	n/a	fixation
54873.259138113586	450.0	n/a	673	71	2750	87.7408618864	stim	stop-signal	408	1167436	0.0-19.11-1.11	beast_fmri_test	330	1164776,/,1165455,/,1166135,/,1166814,/,1167494,/	t,t,t,t,t	<img class = center src='/static/experiments/beast_fmri_test/images/P.png'></img>	71,89	2750.0	test	<img class = center src='/static/experiments/beast_fmri_test/images/redP.png'></img>	stop	2300.0	1.0	11.0	stop	non-target	P	71,Index Finger	89,Middle Finger	400.0	450.0	2350.0	2300.0	0.0	450.0	n/a	0.0	go_stim
57173.259138113586	2300.0	n/a	673	71	2750	87.7408618864	stim	stop-signal	408	1167436	0.0-19.11-1.11	beast_fmri_test	330	1164776,/,1165455,/,1166135,/,1166814,/,1167494,/	t,t,t,t,t	<img class = center src='/static/experiments/beast_fmri_test/images/P.png'></img>	71,89	2750.0	test	<img class = center src='/static/experiments/beast_fmri_test/images/redP.png'></img>	stop	2300.0	1.0	11.0	stop	non-target	P	71,Index Finger	89,Middle Finger	400.0	450.0	2350.0	2300.0	0.0	450.0	n/a	0.0	stop_stim
57623.259138113586	87.7408618864	n/a	673	71	2750	87.7408618864	stim	stop-signal	408	1167436	0.0-19.11-1.11	beast_fmri_test	330	1164776,/,1165455,/,1166135,/,1166814,/,1167494,/	t,t,t,t,t	<img class = center src='/static/experiments/beast_fmri_test/images/P.png'></img>	71,89	2750.0	test	<img class = center src='/static/experiments/beast_fmri_test/images/redP.png'></img>	stop	2300.0	1.0	11.0	stop	non-target	P	71,Index Finger	89,Middle Finger	400.0	450.0	2350.0	2300.0	0.0	450.0	n/a	0.0	ITI
58349	500.0	n/a	-1	-1	500	0.0	fixation	poldrack-single-stim	409	1168074	0.0-19.12-0.12	beast_fmri_test	330	n/a	n/a	<div class = centerbox2><div class = fixation>+</div></div>	none	500.0	test	n/a	n/a	n/a	n/a	n/a	n/a	n/a	n/a	n/a	n/a	n/a	n/a	n/a	n/a	n/a	n/a	n/a	n/a	fixation
56883.822011097334	2750.0	n/a	1058	71	2750	1470.1779889	stim	stop-signal	410	1170829	0.0-19.12-1.12	beast_fmri_test	330	1168173,/,1168855,/,1169534,/,1170213,/,1170892,/,1171573,/,1172251,/	t,t,t,t,t,t,t	<img class = center src='/static/experiments/beast_fmri_test/images/B.png'></img>	71,89	2750.0	test	<img class = center src='/static/experiments/beast_fmri_test/images/redB.png'></img>	go	2350.0	1.0	12.0	go	non-target	B	71,Index Finger	89,Middle Finger	400.0	400.0	2350.0	2350.0	0.0	400.0	0.0	n/a	go_stim
59633.822011097334	1470.1779889	n/a	1058	71	2750	1470.1779889	stim	stop-signal	410	1170829	0.0-19.12-1.12	beast_fmri_test	330	1168173,/,1168855,/,1169534,/,1170213,/,1170892,/,1171573,/,1172251,/	t,t,t,t,t,t,t	<img class = center src='/static/experiments/beast_fmri_test/images/B.png'></img>	71,89	2750.0	test	<img class = center src='/static/experiments/beast_fmri_test/images/redB.png'></img>	go	2350.0	1.0	12.0	go	non-target	B	71,Index Finger	89,Middle Finger	400.0	400.0	2350.0	2350.0	0.0	400.0	0.0	n/a	ITI
63121	500.0	n/a	-1	-1	500	0.0	fixation	poldrack-single-stim	411	1172846	0.0-19.13-0.13	beast_fmri_test	330	n/a	n/a	<div class = centerbox2><div class = fixation>+</div></div>	none	500.0	test	n/a	n/a	n/a	n/a	n/a	n/a	n/a	n/a	n/a	n/a	n/a	n/a	n/a	n/a	n/a	n/a	n/a	n/a	fixation
61856.574864866445	400.0	n/a	-1	-1	2750	1266.42513513	stim	stop-signal	412	1175598	0.0-19.13-1.13	beast_fmri_test	330	1172933,/,1173613,/,1174291,/,1174971,/,1175650,/,1176330,/	t,t,t,t,t,t	<img class = center src='/static/experiments/beast_fmri_test/images/D.png'></img>	71,89	2750.0	test	<img class = center src='/static/experiments/beast_fmri_test/images/redD.png'></img>	stop	2350.0	1.0	13.0	stop	non-target	D	71,Index Finger	89,Middle Finger	400.0	400.0	2350.0	2350.0	0.0	400.0	n/a	1.0	go_stim
64206.574864866445	2350.0	n/a	-1	-1	2750	1266.42513513	stim	stop-signal	412	1175598	0.0-19.13-1.13	beast_fmri_test	330	1172933,/,1173613,/,1174291,/,1174971,/,1175650,/,1176330,/	t,t,t,t,t,t	<img class = center src='/static/experiments/beast_fmri_test/images/D.png'></img>	71,89	2750.0	test	<img class = center src='/static/experiments/beast_fmri_test/images/redD.png'></img>	stop	2350.0	1.0	13.0	stop	non-target	D	71,Index Finger	89,Middle Finger	400.0	400.0	2350.0	2350.0	0.0	400.0	n/a	1.0	stop_stim
64606.574864866445	1266.42513513	n/a	-1	-1	2750	1266.42513513	stim	stop-signal	412	1175598	0.0-19.13-1.13	beast_fmri_test	330	1172933,/,1173613,/,1174291,/,1174971,/,1175650,/,1176330,/	t,t,t,t,t,t	<img class = center src='/static/experiments/beast_fmri_test/images/D.png'></img>	71,89	2750.0	test	<img class = center src='/static/experiments/beast_fmri_test/images/redD.png'></img>	stop	2350.0	1.0	13.0	stop	non-target	D	71,Index Finger	89,Middle Finger	400.0	400.0	2350.0	2350.0	0.0	400.0	n/a	1.0	ITI
67688	500.0	n/a	-1	-1	500	0.0	fixation	poldrack-single-stim	413	1177413	0.0-19.14-0.14	beast_fmri_test	330	1177009,/	t	<div class = centerbox2><div class = fixation>+</div></div>	none	500.0	test	n/a	n/a	n/a	n/a	n/a	n/a	n/a	n/a	n/a	n/a	n/a	n/a	n/a	n/a	n/a	n/a	n/a	n/a	fixation
62689.0	2750.0	n/a	714	71	2750	5000.0	stim	stop-signal	414	1180164	0.0-19.14-1.14	beast_fmri_test	330	1177690,/,1178368,/,1179049,/,1179728,/,1180408,/,1181087,/,1181766,/,1182447,/,1183126,/,1183805,/,1184487,/	t,t,t,t,t,t,t,t,t,t,t	<img class = center src='/static/experiments/beast_fmri_test/images/P.png'></img>	71,89	2750.0	test	<img class = center src='/static/experiments/beast_fmri_test/images/redP.png'></img>	go	2300.0	1.0	14.0	go	non-target	P	71,Index Finger	89,Middle Finger	400.0	450.0	2350.0	2300.0	0.0	450.0	0.0	n/a	go_stim
65439.0	5000.0	n/a	714	71	2750	5000.0	stim	stop-signal	414	1180164	0.0-19.14-1.14	beast_fmri_test	330	1177690,/,1178368,/,1179049,/,1179728,/,1180408,/,1181087,/,1181766,/,1182447,/,1183126,/,1183805,/,1184487,/	t,t,t,t,t,t,t,t,t,t,t	<img class = center src='/static/experiments/beast_fmri_test/images/P.png'></img>	71,89	2750.0	test	<img class = center src='/static/experiments/beast_fmri_test/images/redP.png'></img>	go	2300.0	1.0	14.0	go	non-target	P	71,Index Finger	89,Middle Finger	400.0	450.0	2350.0	2300.0	0.0	450.0	0.0	n/a	ITI
75991	500.0	n/a	-1	-1	500	0.0	fixation	poldrack-single-stim	415	1185716	0.0-19.15-0.15	beast_fmri_test	330	1185215,/	t	<div class = centerbox2><div class = fixation>+</div></div>	none	500.0	test	n/a	n/a	n/a	n/a	n/a	n/a	n/a	n/a	n/a	n/a	n/a	n/a	n/a	n/a	n/a	n/a	n/a	n/a	fixation
74591.928189217113	2750.0	n/a	724	71	2750	1401.07181078	stim	stop-signal	416	1188468	0.0-19.15-1.15	beast_fmri_test	330	1185845,/,1186525,/,1187204,/,1187883,/,1188563,/,1189244,/	t,t,t,t,t,t	<img class = center src='/static/experiments/beast_fmri_test/images/B.png'></img>	71,89	2750.0	test	<img class = center src='/static/experiments/beast_fmri_test/images/redB.png'></img>	go	2300.0	1.0	15.0	go	non-target	B	71,Index Finger	89,Middle Finger	400.0	450.0	2350.0	2300.0	0.0	450.0	0.0	n/a	go_stim
77341.928189217113	1401.07181078	n/a	724	71	2750	1401.07181078	stim	stop-signal	416	1188468	0.0-19.15-1.15	beast_fmri_test	330	1185845,/,1186525,/,1187204,/,1187883,/,1188563,/,1189244,/	t,t,t,t,t,t	<img class = center src='/static/experiments/beast_fmri_test/images/B.png'></img>	71,89	2750.0	test	<img class = center src='/static/experiments/beast_fmri_test/images/redB.png'></img>	go	2300.0	1.0	15.0	go	non-target	B	71,Index Finger	89,Middle Finger	400.0	450.0	2350.0	2300.0	0.0	450.0	0.0	n/a	ITI
80691	500.0	n/a	-1	-1	500	0.0	fixation	poldrack-single-stim	417	1190416	0.0-19.16-0.16	beast_fmri_test	330	1189923,/	t	<div class = centerbox2><div class = fixation>+</div></div>	none	500.0	test	n/a	n/a	n/a	n/a	n/a	n/a	n/a	n/a	n/a	n/a	n/a	n/a	n/a	n/a	n/a	n/a	n/a	n/a	fixation
80669.242252851138	2750.0	n/a	646	71	2750	22.7577471488	stim	stop-signal	418	1193167	0.0-19.16-1.16	beast_fmri_test	330	1190604,/,1191283,/,1191962,/,1192642,/	t,t,t,t	<img class = center src='/static/experiments/beast_fmri_test/images/P.png'></img>	71,89	2750.0	test	<img class = center src='/static/experiments/beast_fmri_test/images/redP.png'></img>	go	2300.0	1.0	16.0	go	non-target	P	71,Index Finger	89,Middle Finger	400.0	450.0	2350.0	2300.0	0.0	450.0	0.0	n/a	go_stim
83419.242252851138	22.7577471488	n/a	646	71	2750	22.7577471488	stim	stop-signal	418	1193167	0.0-19.16-1.16	beast_fmri_test	330	1190604,/,1191283,/,1191962,/,1192642,/	t,t,t,t	<img class = center src='/static/experiments/beast_fmri_test/images/P.png'></img>	71,89	2750.0	test	<img class = center src='/static/experiments/beast_fmri_test/images/redP.png'></img>	go	2300.0	1.0	16.0	go	non-target	P	71,Index Finger	89,Middle Finger	400.0	450.0	2350.0	2300.0	0.0	450.0	0.0	n/a	ITI
84010	500.0	n/a	-1	-1	500	0.0	fixation	poldrack-single-stim	419	1193735	0.0-19.17-0.17	beast_fmri_test	330	1193321,/	t	<div class = centerbox2><div class = fixation>+</div></div>	none	500.0	test	n/a	n/a	n/a	n/a	n/a	n/a	n/a	n/a	n/a	n/a	n/a	n/a	n/a	n/a	n/a	n/a	n/a	n/a	fixation
81609.830898317741	2750.0	n/a	729	71	2750	2402.16910168	stim	stop-signal	420	1196487	0.0-19.17-1.17	beast_fmri_test	330	1194003,/,1194681,/,1195361,/,1196040,/,1196720,/,1197400,/,1198080,/,1198760,/	t,t,t,t,t,t,t,t	<img class = center src='/static/experiments/beast_fmri_test/images/B.png'></img>	71,89	2750.0	test	<img class = center src='/static/experiments/beast_fmri_test/images/redB.png'></img>	go	2300.0	1.0	17.0	go	non-target	B	71,Index Finger	89,Middle Finger	400.0	450.0	2350.0	2300.0	0.0	450.0	0.0	n/a	go_stim
84359.830898317741	2402.16910168	n/a	729	71	2750	2402.16910168	stim	stop-signal	420	1196487	0.0-19.17-1.17	beast_fmri_test	330	1194003,/,1194681,/,1195361,/,1196040,/,1196720,/,1197400,/,1198080,/,1198760,/	t,t,t,t,t,t,t,t	<img class = center src='/static/experiments/beast_fmri_test/images/B.png'></img>	71,89	2750.0	test	<img class = center src='/static/experiments/beast_fmri_test/images/redB.png'></img>	go	2300.0	1.0	17.0	go	non-target	B	71,Index Finger	89,Middle Finger	400.0	450.0	2350.0	2300.0	0.0	450.0	0.0	n/a	ITI
89715	500.0	n/a	-1	-1	500	0.0	fixation	poldrack-single-stim	421	1199440	0.0-19.18-0.18	beast_fmri_test	330	1199440,/	t	<div class = centerbox2><div class = fixation>+</div></div>	none	500.0	test	n/a	n/a	n/a	n/a	n/a	n/a	n/a	n/a	n/a	n/a	n/a	n/a	n/a	n/a	n/a	n/a	n/a	n/a	fixation
89083.106668669032	2750.0	n/a	644	71	2750	633.893331331	stim	stop-signal	422	1202192	0.0-19.18-1.18	beast_fmri_test	330	1200118,/,1200799,/,1201478,/,1202157,/	t,t,t,t	<img class = center src='/static/experiments/beast_fmri_test/images/V.png'></img>	71,89	2750.0	test	<img class = center src='/static/experiments/beast_fmri_test/images/redV.png'></img>	go	2300.0	1.0	18.0	go	non-target	V	71,Index Finger	89,Middle Finger	400.0	450.0	2350.0	2300.0	0.0	450.0	0.0	n/a	go_stim
91833.106668669032	633.893331331	n/a	644	71	2750	633.893331331	stim	stop-signal	422	1202192	0.0-19.18-1.18	beast_fmri_test	330	1200118,/,1200799,/,1201478,/,1202157,/	t,t,t,t	<img class = center src='/static/experiments/beast_fmri_test/images/V.png'></img>	71,89	2750.0	test	<img class = center src='/static/experiments/beast_fmri_test/images/redV.png'></img>	go	2300.0	1.0	18.0	go	non-target	V	71,Index Finger	89,Middle Finger	400.0	450.0	2350.0	2300.0	0.0	450.0	0.0	n/a	ITI
93655	500.0	n/a	-1	-1	500	0.0	fixation	poldrack-single-stim	423	1203380	0.0-19.19-0.19	beast_fmri_test	330	1202878,/	t	<div class = centerbox2><div class = fixation>+</div></div>	none	500.0	test	n/a	n/a	n/a	n/a	n/a	n/a	n/a	n/a	n/a	n/a	n/a	n/a	n/a	n/a	n/a	n/a	n/a	n/a	fixation
92270.675301254494	2750.0	n/a	966	89	2750	1385.32469875	stim	stop-signal	424	1206131	0.0-19.19-1.19	beast_fmri_test	330	1203517,/,1204198,/,1204876,/,1205557,/,1206235,/,1206915,/	t,t,t,t,t,t	<img class = center src='/static/experiments/beast_fmri_test/images/V.png'></img>	71,89	2750.0	test	<img class = center src='/static/experiments/beast_fmri_test/images/redV.png'></img>	go	2350.0	1.0	19.0	go	target	V	71,Index Finger	89,Middle Finger	400.0	450.0	2350.0	2300.0	0.0	400.0	0.0	n/a	go_stim
95020.675301254494	1385.32469875	n/a	966	89	2750	1385.32469875	stim	stop-signal	424	1206131	0.0-19.19-1.19	beast_fmri_test	330	1203517,/,1204198,/,1204876,/,1205557,/,1206235,/,1206915,/	t,t,t,t,t,t	<img class = center src='/static/experiments/beast_fmri_test/images/V.png'></img>	71,89	2750.0	test	<img class = center src='/static/experiments/beast_fmri_test/images/redV.png'></img>	go	2350.0	1.0	19.0	go	target	V	71,Index Finger	89,Middle Finger	400.0	450.0	2350.0	2300.0	0.0	400.0	0.0	n/a	ITI
98352	500.0	n/a	-1	-1	500	0.0	fixation	poldrack-single-stim	425	1208077	0.0-19.20-0.20	beast_fmri_test	330	1207596,/	t	<div class = centerbox2><div class = fixation>+</div></div>	none	500.0	test	n/a	n/a	n/a	n/a	n/a	n/a	n/a	n/a	n/a	n/a	n/a	n/a	n/a	n/a	n/a	n/a	n/a	n/a	fixation
97946.949645783054	450.0	n/a	-1	-1	2750	406.050354217	stim	stop-signal	426	1210828	0.0-19.20-1.20	beast_fmri_test	330	1208275,/,1208955,/,1209634,/,1210313,/,1210993,/	t,t,t,t,t	<img class = center src='/static/experiments/beast_fmri_test/images/T.png'></img>	71,89	2750.0	test	<img class = center src='/static/experiments/beast_fmri_test/images/redT.png'></img>	stop	2300.0	1.0	20.0	stop	non-target	T	71,Index Finger	89,Middle Finger	400.0	450.0	2350.0	2300.0	0.0	450.0	n/a	1.0	go_stim
100246.94964578305	2300.0	n/a	-1	-1	2750	406.050354217	stim	stop-signal	426	1210828	0.0-19.20-1.20	beast_fmri_test	330	1208275,/,1208955,/,1209634,/,1210313,/,1210993,/	t,t,t,t,t	<img class = center src='/static/experiments/beast_fmri_test/images/T.png'></img>	71,89	2750.0	test	<img class = center src='/static/experiments/beast_fmri_test/images/redT.png'></img>	stop	2300.0	1.0	20.0	stop	non-target	T	71,Index Finger	89,Middle Finger	400.0	450.0	2350.0	2300.0	0.0	450.0	n/a	1.0	stop_stim
100696.94964578305	406.050354217	n/a	-1	-1	2750	406.050354217	stim	stop-signal	426	1210828	0.0-19.20-1.20	beast_fmri_test	330	1208275,/,1208955,/,1209634,/,1210313,/,1210993,/	t,t,t,t,t	<img class = center src='/static/experiments/beast_fmri_test/images/T.png'></img>	71,89	2750.0	test	<img class = center src='/static/experiments/beast_fmri_test/images/redT.png'></img>	stop	2300.0	1.0	20.0	stop	non-target	T	71,Index Finger	89,Middle Finger	400.0	450.0	2350.0	2300.0	0.0	450.0	n/a	1.0	ITI
102065	500.0	n/a	-1	-1	500	0.0	fixation	poldrack-single-stim	427	1211790	0.0-19.21-0.21	beast_fmri_test	330	1211673,/	t	<div class = centerbox2><div class = fixation>+</div></div>	none	500.0	test	n/a	n/a	n/a	n/a	n/a	n/a	n/a	n/a	n/a	n/a	n/a	n/a	n/a	n/a	n/a	n/a	n/a	n/a	fixation
101170.25795636186	500.0	n/a	-1	-1	2750	896.742043638	stim	stop-signal	428	1214542	0.0-19.21-1.21	beast_fmri_test	330	1212353,/,1213034,/,1213713,/,1214392,/,1215072,/	t,t,t,t,t	<img class = center src='/static/experiments/beast_fmri_test/images/V.png'></img>	71,89	2750.0	test	<img class = center src='/static/experiments/beast_fmri_test/images/redV.png'></img>	stop	2250.0	1.0	21.0	stop	non-target	V	71,Index Finger	89,Middle Finger	400.0	500.0	2350.0	2250.0	0.0	500.0	n/a	1.0	go_stim
103420.25795636186	2250.0	n/a	-1	-1	2750	896.742043638	stim	stop-signal	428	1214542	0.0-19.21-1.21	beast_fmri_test	330	1212353,/,1213034,/,1213713,/,1214392,/,1215072,/	t,t,t,t,t	<img class = center src='/static/experiments/beast_fmri_test/images/V.png'></img>	71,89	2750.0	test	<img class = center src='/static/experiments/beast_fmri_test/images/redV.png'></img>	stop	2250.0	1.0	21.0	stop	non-target	V	71,Index Finger	89,Middle Finger	400.0	500.0	2350.0	2250.0	0.0	500.0	n/a	1.0	stop_stim
103920.25795636186	896.742043638	n/a	-1	-1	2750	896.742043638	stim	stop-signal	428	1214542	0.0-19.21-1.21	beast_fmri_test	330	1212353,/,1213034,/,1213713,/,1214392,/,1215072,/	t,t,t,t,t	<img class = center src='/static/experiments/beast_fmri_test/images/V.png'></img>	71,89	2750.0	test	<img class = center src='/static/experiments/beast_fmri_test/images/redV.png'></img>	stop	2250.0	1.0	21.0	stop	non-target	V	71,Index Finger	89,Middle Finger	400.0	500.0	2350.0	2250.0	0.0	500.0	n/a	1.0	ITI
106269	500.0	n/a	-1	-1	500	0.0	fixation	poldrack-single-stim	429	1215994	0.0-19.22-0.22	beast_fmri_test	330	1215751,/	t	<div class = centerbox2><div class = fixation>+</div></div>	none	500.0	test	n/a	n/a	n/a	n/a	n/a	n/a	n/a	n/a	n/a	n/a	n/a	n/a	n/a	n/a	n/a	n/a	n/a	n/a	fixation
105476.62195260799	2750.0	n/a	1165	71	2750	792.378047392	stim	stop-signal	430	1218744	0.0-19.22-1.22	beast_fmri_test	330	1216431,/,1217111,/,1217790,/,1218470,/,1219149,/	t,t,t,t,t	<img class = center src='/static/experiments/beast_fmri_test/images/B.png'></img>	71,89	2750.0	test	<img class = center src='/static/experiments/beast_fmri_test/images/redB.png'></img>	go	2200.0	1.0	22.0	go	non-target	B	71,Index Finger	89,Middle Finger	400.0	550.0	2350.0	2200.0	0.0	550.0	0.0	n/a	go_stim
108226.62195260799	792.378047392	n/a	1165	71	2750	792.378047392	stim	stop-signal	430	1218744	0.0-19.22-1.22	beast_fmri_test	330	1216431,/,1217111,/,1217790,/,1218470,/,1219149,/	t,t,t,t,t	<img class = center src='/static/experiments/beast_fmri_test/images/B.png'></img>	71,89	2750.0	test	<img class = center src='/static/experiments/beast_fmri_test/images/redB.png'></img>	go	2200.0	1.0	22.0	go	non-target	B	71,Index Finger	89,Middle Finger	400.0	550.0	2350.0	2200.0	0.0	550.0	0.0	n/a	ITI
110367	500.0	n/a	-1	-1	500	0.0	fixation	poldrack-single-stim	431	1220092	0.0-19.23-0.23	beast_fmri_test	330	1219829,/	t	<div class = centerbox2><div class = fixation>+</div></div>	none	500.0	test	n/a	n/a	n/a	n/a	n/a	n/a	n/a	n/a	n/a	n/a	n/a	n/a	n/a	n/a	n/a	n/a	n/a	n/a	fixation
109945.41581278644	550.0	n/a	-1	-1	2750	424.584187213	stim	stop-signal	432	1222845	0.0-19.23-1.23	beast_fmri_test	330	1220509,/,1221190,/,1221869,/,1222550,/,1223229,/	t,t,t,t,t	<img class = center src='/static/experiments/beast_fmri_test/images/P.png'></img>	71,89	2750.0	test	<img class = center src='/static/experiments/beast_fmri_test/images/redP.png'></img>	stop	2200.0	1.0	23.0	stop	non-target	P	71,Index Finger	89,Middle Finger	400.0	550.0	2350.0	2200.0	0.0	550.0	n/a	1.0	go_stim
112145.41581278644	2200.0	n/a	-1	-1	2750	424.584187213	stim	stop-signal	432	1222845	0.0-19.23-1.23	beast_fmri_test	330	1220509,/,1221190,/,1221869,/,1222550,/,1223229,/	t,t,t,t,t	<img class = center src='/static/experiments/beast_fmri_test/images/P.png'></img>	71,89	2750.0	test	<img class = center src='/static/experiments/beast_fmri_test/images/redP.png'></img>	stop	2200.0	1.0	23.0	stop	non-target	P	71,Index Finger	89,Middle Finger	400.0	550.0	2350.0	2200.0	0.0	550.0	n/a	1.0	stop_stim
112695.41581278644	424.584187213	n/a	-1	-1	2750	424.584187213	stim	stop-signal	432	1222845	0.0-19.23-1.23	beast_fmri_test	330	1220509,/,1221190,/,1221869,/,1222550,/,1223229,/	t,t,t,t,t	<img class = center src='/static/experiments/beast_fmri_test/images/P.png'></img>	71,89	2750.0	test	<img class = center src='/static/experiments/beast_fmri_test/images/redP.png'></img>	stop	2200.0	1.0	23.0	stop	non-target	P	71,Index Finger	89,Middle Finger	400.0	550.0	2350.0	2200.0	0.0	550.0	n/a	1.0	ITI
114101	500.0	n/a	-1	-1	500	0.0	fixation	poldrack-single-stim	433	1223826	0.0-19.24-0.24	beast_fmri_test	330	n/a	n/a	<div class = centerbox2><div class = fixation>+</div></div>	none	500.0	test	n/a	n/a	n/a	n/a	n/a	n/a	n/a	n/a	n/a	n/a	n/a	n/a	n/a	n/a	n/a	n/a	n/a	n/a	fixation
113782.74746168032	2750.0	n/a	950	71	2750	319.25253832	stim	stop-signal	434	1226577	0.0-19.24-1.24	beast_fmri_test	330	1223908,/,1224590,/,1225269,/,1225949,/,1226627,/	t,t,t,t,t	<img class = center src='/static/experiments/beast_fmri_test/images/B.png'></img>	71,89	2750.0	test	<img class = center src='/static/experiments/beast_fmri_test/images/redB.png'></img>	go	2150.0	1.0	24.0	go	non-target	B	71,Index Finger	89,Middle Finger	400.0	600.0	2350.0	2150.0	0.0	600.0	0.0	n/a	go_stim
116532.74746168032	319.25253832	n/a	950	71	2750	319.25253832	stim	stop-signal	434	1226577	0.0-19.24-1.24	beast_fmri_test	330	1223908,/,1224590,/,1225269,/,1225949,/,1226627,/	t,t,t,t,t	<img class = center src='/static/experiments/beast_fmri_test/images/B.png'></img>	71,89	2750.0	test	<img class = center src='/static/experiments/beast_fmri_test/images/redB.png'></img>	go	2150.0	1.0	24.0	go	non-target	B	71,Index Finger	89,Middle Finger	400.0	600.0	2350.0	2150.0	0.0	600.0	0.0	n/a	ITI
117729	500.0	n/a	-1	-1	500	0.0	fixation	poldrack-single-stim	435	1227454	0.0-19.25-0.25	beast_fmri_test	330	1227308,/	t	<div class = centerbox2><div class = fixation>+</div></div>	none	500.0	test	n/a	n/a	n/a	n/a	n/a	n/a	n/a	n/a	n/a	n/a	n/a	n/a	n/a	n/a	n/a	n/a	n/a	n/a	fixation
116078.34297662997	2750.0	n/a	600	71	2750	1653.65702337	stim	stop-signal	436	1230207	0.0-19.25-1.25	beast_fmri_test	330	1227986,/,1228667,/,1229346,/,1230025,/,1230705,/,1231385,/	t,t,t,t,t,t	<img class = center src='/static/experiments/beast_fmri_test/images/V.png'></img>	71,89	2750.0	test	<img class = center src='/static/experiments/beast_fmri_test/images/redV.png'></img>	go	2150.0	1.0	25.0	go	non-target	V	71,Index Finger	89,Middle Finger	400.0	600.0	2350.0	2150.0	0.0	600.0	0.0	n/a	go_stim
118828.34297662997	1653.65702337	n/a	600	71	2750	1653.65702337	stim	stop-signal	436	1230207	0.0-19.25-1.25	beast_fmri_test	330	1227986,/,1228667,/,1229346,/,1230025,/,1230705,/,1231385,/	t,t,t,t,t,t	<img class = center src='/static/experiments/beast_fmri_test/images/V.png'></img>	71,89	2750.0	test	<img class = center src='/static/experiments/beast_fmri_test/images/redV.png'></img>	go	2150.0	1.0	25.0	go	non-target	V	71,Index Finger	89,Middle Finger	400.0	600.0	2350.0	2150.0	0.0	600.0	0.0	n/a	ITI
122684	500.0	n/a	-1	-1	500	0.0	fixation	poldrack-single-stim	437	1232409	0.0-19.26-0.26	beast_fmri_test	330	1232066,/	t	<div class = centerbox2><div class = fixation>+</div></div>	none	500.0	test	n/a	n/a	n/a	n/a	n/a	n/a	n/a	n/a	n/a	n/a	n/a	n/a	n/a	n/a	n/a	n/a	n/a	n/a	fixation
122663.70120609691	2750.0	n/a	997	71	2750	23.298793903	stim	stop-signal	438	1235162	0.0-19.26-1.26	beast_fmri_test	330	1232744,/,1233423,/,1234103,/,1234782,/	t,t,t,t	<img class = center src='/static/experiments/beast_fmri_test/images/B.png'></img>	71,89	2750.0	test	<img class = center src='/static/experiments/beast_fmri_test/images/redB.png'></img>	go	2150.0	1.0	26.0	go	non-target	B	71,Index Finger	89,Middle Finger	400.0	600.0	2350.0	2150.0	0.0	600.0	0.0	n/a	go_stim
125413.70120609691	23.298793903	n/a	997	71	2750	23.298793903	stim	stop-signal	438	1235162	0.0-19.26-1.26	beast_fmri_test	330	1232744,/,1233423,/,1234103,/,1234782,/	t,t,t,t	<img class = center src='/static/experiments/beast_fmri_test/images/B.png'></img>	71,89	2750.0	test	<img class = center src='/static/experiments/beast_fmri_test/images/redB.png'></img>	go	2150.0	1.0	26.0	go	non-target	B	71,Index Finger	89,Middle Finger	400.0	600.0	2350.0	2150.0	0.0	600.0	0.0	n/a	ITI
126007	500.0	n/a	-1	-1	500	0.0	fixation	poldrack-single-stim	439	1235732	0.0-19.27-0.27	beast_fmri_test	330	1235463,/	t	<div class = centerbox2><div class = fixation>+</div></div>	none	500.0	test	n/a	n/a	n/a	n/a	n/a	n/a	n/a	n/a	n/a	n/a	n/a	n/a	n/a	n/a	n/a	n/a	n/a	n/a	fixation
125462.22212640755	400.0	n/a	-1	-1	2750	545.777873593	stim	stop-signal	440	1238483	0.0-19.27-1.27	beast_fmri_test	330	1236144,/,1236823,/,1237502,/,1238182,/,1238860,/	t,t,t,t,t	<img class = center src='/static/experiments/beast_fmri_test/images/B.png'></img>	71,89	2750.0	test	<img class = center src='/static/experiments/beast_fmri_test/images/redB.png'></img>	stop	2350.0	1.0	27.0	stop	target	B	71,Index Finger	89,Middle Finger	400.0	600.0	2350.0	2150.0	0.0	400.0	n/a	1.0	go_stim
127812.22212640755	2350.0	n/a	-1	-1	2750	545.777873593	stim	stop-signal	440	1238483	0.0-19.27-1.27	beast_fmri_test	330	1236144,/,1236823,/,1237502,/,1238182,/,1238860,/	t,t,t,t,t	<img class = center src='/static/experiments/beast_fmri_test/images/B.png'></img>	71,89	2750.0	test	<img class = center src='/static/experiments/beast_fmri_test/images/redB.png'></img>	stop	2350.0	1.0	27.0	stop	target	B	71,Index Finger	89,Middle Finger	400.0	600.0	2350.0	2150.0	0.0	400.0	n/a	1.0	stop_stim
128212.22212640755	545.777873593	n/a	-1	-1	2750	545.777873593	stim	stop-signal	440	1238483	0.0-19.27-1.27	beast_fmri_test	330	1236144,/,1236823,/,1237502,/,1238182,/,1238860,/	t,t,t,t,t	<img class = center src='/static/experiments/beast_fmri_test/images/B.png'></img>	71,89	2750.0	test	<img class = center src='/static/experiments/beast_fmri_test/images/redB.png'></img>	stop	2350.0	1.0	27.0	stop	target	B	71,Index Finger	89,Middle Finger	400.0	600.0	2350.0	2150.0	0.0	400.0	n/a	1.0	ITI
129850	500.0	n/a	-1	-1	500	0.0	fixation	poldrack-single-stim	441	1239575	0.0-19.28-0.28	beast_fmri_test	330	1239542,/	t	<div class = centerbox2><div class = fixation>+</div></div>	none	500.0	test	n/a	n/a	n/a	n/a	n/a	n/a	n/a	n/a	n/a	n/a	n/a	n/a	n/a	n/a	n/a	n/a	n/a	n/a	fixation
128702.54843576881	2750.0	n/a	1857	71	2750	1149.45156423	stim	stop-signal	442	1242327	0.0-19.28-1.28	beast_fmri_test	330	1240221,/,1240901,/,1241581,/,1242259,/,1242939,/	t,t,t,t,t	<img class = center src='/static/experiments/beast_fmri_test/images/P.png'></img>	71,89	2750.0	test	<img class = center src='/static/experiments/beast_fmri_test/images/redP.png'></img>	go	2150.0	1.0	28.0	go	non-target	P	71,Index Finger	89,Middle Finger	450.0	600.0	2350.0	2150.0	0.0	600.0	0.0	n/a	go_stim
131452.54843576881	1149.45156423	n/a	1857	71	2750	1149.45156423	stim	stop-signal	442	1242327	0.0-19.28-1.28	beast_fmri_test	330	1240221,/,1240901,/,1241581,/,1242259,/,1242939,/	t,t,t,t,t	<img class = center src='/static/experiments/beast_fmri_test/images/P.png'></img>	71,89	2750.0	test	<img class = center src='/static/experiments/beast_fmri_test/images/redP.png'></img>	go	2150.0	1.0	28.0	go	non-target	P	71,Index Finger	89,Middle Finger	450.0	600.0	2350.0	2150.0	0.0	600.0	0.0	n/a	ITI
134303	500.0	n/a	-1	-1	500	0.0	fixation	poldrack-single-stim	443	1244028	0.0-19.29-0.29	beast_fmri_test	330	1243619,/	t	<div class = centerbox2><div class = fixation>+</div></div>	none	500.0	test	n/a	n/a	n/a	n/a	n/a	n/a	n/a	n/a	n/a	n/a	n/a	n/a	n/a	n/a	n/a	n/a	n/a	n/a	fixation
131696.71235198248	2750.0	n/a	708	89	2750	2606.28764802	stim	stop-signal	444	1246778	0.0-19.29-1.29	beast_fmri_test	330	1244298,/,1244979,/,1245658,/,1246337,/,1247017,/,1247696,/,1248377,/,1249056,/	t,t,t,t,t,t,t,t	<img class = center src='/static/experiments/beast_fmri_test/images/P.png'></img>	71,89	2750.0	test	<img class = center src='/static/experiments/beast_fmri_test/images/redP.png'></img>	go	2300.0	1.0	29.0	go	target	P	71,Index Finger	89,Middle Finger	450.0	600.0	2300.0	2150.0	0.0	450.0	0.0	n/a	go_stim
134446.71235198248	2606.28764802	n/a	708	89	2750	2606.28764802	stim	stop-signal	444	1246778	0.0-19.29-1.29	beast_fmri_test	330	1244298,/,1244979,/,1245658,/,1246337,/,1247017,/,1247696,/,1248377,/,1249056,/	t,t,t,t,t,t,t,t	<img class = center src='/static/experiments/beast_fmri_test/images/P.png'></img>	71,89	2750.0	test	<img class = center src='/static/experiments/beast_fmri_test/images/redP.png'></img>	go	2300.0	1.0	29.0	go	target	P	71,Index Finger	89,Middle Finger	450.0	600.0	2300.0	2150.0	0.0	450.0	0.0	n/a	ITI
140210	500.0	n/a	-1	-1	500	0.0	fixation	poldrack-single-stim	445	1249935	0.0-19.30-0.30	beast_fmri_test	330	1249737,/	t	<div class = centerbox2><div class = fixation>+</div></div>	none	500.0	test	n/a	n/a	n/a	n/a	n/a	n/a	n/a	n/a	n/a	n/a	n/a	n/a	n/a	n/a	n/a	n/a	n/a	n/a	fixation
139089.47334526433	2750.0	n/a	1092	71	2750	1121.52665474	stim	stop-signal	446	1252686	0.0-19.30-1.30	beast_fmri_test	330	1250416,/,1251096,/,1251775,/,1252455,/,1253135,/	t,t,t,t,t	<img class = center src='/static/experiments/beast_fmri_test/images/T.png'></img>	71,89	2750.0	test	<img class = center src='/static/experiments/beast_fmri_test/images/redT.png'></img>	go	2150.0	1.0	30.0	go	non-target	T	71,Index Finger	89,Middle Finger	450.0	600.0	2300.0	2150.0	0.0	600.0	0.0	n/a	go_stim
141839.47334526433	1121.52665474	n/a	1092	71	2750	1121.52665474	stim	stop-signal	446	1252686	0.0-19.30-1.30	beast_fmri_test	330	1250416,/,1251096,/,1251775,/,1252455,/,1253135,/	t,t,t,t,t	<img class = center src='/static/experiments/beast_fmri_test/images/T.png'></img>	71,89	2750.0	test	<img class = center src='/static/experiments/beast_fmri_test/images/redT.png'></img>	go	2150.0	1.0	30.0	go	non-target	T	71,Index Finger	89,Middle Finger	450.0	600.0	2300.0	2150.0	0.0	600.0	0.0	n/a	ITI
144636	500.0	n/a	-1	-1	500	0.0	fixation	poldrack-single-stim	447	1254361	0.0-19.31-0.31	beast_fmri_test	330	1253858,/	t	<div class = centerbox2><div class = fixation>+</div></div>	none	500.0	test	n/a	n/a	n/a	n/a	n/a	n/a	n/a	n/a	n/a	n/a	n/a	n/a	n/a	n/a	n/a	n/a	n/a	n/a	fixation
144170.72631904436	600.0	n/a	-1	-1	2750	466.273680956	stim	stop-signal	448	1257112	0.0-19.31-1.31	beast_fmri_test	330	1254495,/,1255174,/,1255853,/,1256534,/,1257212,/	t,t,t,t,t	<img class = center src='/static/experiments/beast_fmri_test/images/D.png'></img>	71,89	2750.0	test	<img class = center src='/static/experiments/beast_fmri_test/images/redD.png'></img>	stop	2150.0	1.0	31.0	stop	non-target	D	71,Index Finger	89,Middle Finger	450.0	600.0	2300.0	2150.0	0.0	600.0	n/a	1.0	go_stim
146320.72631904436	2150.0	n/a	-1	-1	2750	466.273680956	stim	stop-signal	448	1257112	0.0-19.31-1.31	beast_fmri_test	330	1254495,/,1255174,/,1255853,/,1256534,/,1257212,/	t,t,t,t,t	<img class = center src='/static/experiments/beast_fmri_test/images/D.png'></img>	71,89	2750.0	test	<img class = center src='/static/experiments/beast_fmri_test/images/redD.png'></img>	stop	2150.0	1.0	31.0	stop	non-target	D	71,Index Finger	89,Middle Finger	450.0	600.0	2300.0	2150.0	0.0	600.0	n/a	1.0	stop_stim
146920.72631904436	466.273680956	n/a	-1	-1	2750	466.273680956	stim	stop-signal	448	1257112	0.0-19.31-1.31	beast_fmri_test	330	1254495,/,1255174,/,1255853,/,1256534,/,1257212,/	t,t,t,t,t	<img class = center src='/static/experiments/beast_fmri_test/images/D.png'></img>	71,89	2750.0	test	<img class = center src='/static/experiments/beast_fmri_test/images/redD.png'></img>	stop	2150.0	1.0	31.0	stop	non-target	D	71,Index Finger	89,Middle Finger	450.0	600.0	2300.0	2150.0	0.0	600.0	n/a	1.0	ITI
148408	500.0	n/a	-1	-1	500	0.0	fixation	poldrack-single-stim	449	1258133	0.0-19.32-0.32	beast_fmri_test	330	1257893,/	t	<div class = centerbox2><div class = fixation>+</div></div>	none	500.0	test	n/a	n/a	n/a	n/a	n/a	n/a	n/a	n/a	n/a	n/a	n/a	n/a	n/a	n/a	n/a	n/a	n/a	n/a	fixation
147845.40224797884	2750.0	n/a	1009	71	2750	564.597752021	stim	stop-signal	450	1260885	0.0-19.32-1.32	beast_fmri_test	330	1258574,/,1259252,/,1259933,/,1260612,/,1261291,/	t,t,t,t,t	<img class = center src='/static/experiments/beast_fmri_test/images/V.png'></img>	71,89	2750.0	test	<img class = center src='/static/experiments/beast_fmri_test/images/redV.png'></img>	go	2100.0	1.0	32.0	go	non-target	V	71,Index Finger	89,Middle Finger	450.0	650.0	2300.0	2100.0	0.0	650.0	0.0	n/a	go_stim
150595.40224797884	564.597752021	n/a	1009	71	2750	564.597752021	stim	stop-signal	450	1260885	0.0-19.32-1.32	beast_fmri_test	330	1258574,/,1259252,/,1259933,/,1260612,/,1261291,/	t,t,t,t,t	<img class = center src='/static/experiments/beast_fmri_test/images/V.png'></img>	71,89	2750.0	test	<img class = center src='/static/experiments/beast_fmri_test/images/redV.png'></img>	go	2100.0	1.0	32.0	go	non-target	V	71,Index Finger	89,Middle Finger	450.0	650.0	2300.0	2100.0	0.0	650.0	0.0	n/a	ITI
152284	500.0	n/a	-1	-1	500	0.0	fixation	poldrack-single-stim	451	1262009	0.0-19.33-0.33	beast_fmri_test	330	1261971,/	t	<div class = centerbox2><div class = fixation>+</div></div>	none	500.0	test	n/a	n/a	n/a	n/a	n/a	n/a	n/a	n/a	n/a	n/a	n/a	n/a	n/a	n/a	n/a	n/a	n/a	n/a	fixation
151891.0880276286	2750.0	n/a	780	89	2750	392.911972371	stim	stop-signal	452	1264759	0.0-19.33-1.33	beast_fmri_test	330	1262652,/,1263329,/,1264010,/,1264690,/	t,t,t,t	<img class = center src='/static/experiments/beast_fmri_test/images/V.png'></img>	71,89	2750.0	test	<img class = center src='/static/experiments/beast_fmri_test/images/redV.png'></img>	go	2300.0	1.0	33.0	go	target	V	71,Index Finger	89,Middle Finger	450.0	650.0	2300.0	2100.0	0.0	450.0	0.0	n/a	go_stim
154641.0880276286	392.911972371	n/a	780	89	2750	392.911972371	stim	stop-signal	452	1264759	0.0-19.33-1.33	beast_fmri_test	330	1262652,/,1263329,/,1264010,/,1264690,/	t,t,t,t	<img class = center src='/static/experiments/beast_fmri_test/images/V.png'></img>	71,89	2750.0	test	<img class = center src='/static/experiments/beast_fmri_test/images/redV.png'></img>	go	2300.0	1.0	33.0	go	target	V	71,Index Finger	89,Middle Finger	450.0	650.0	2300.0	2100.0	0.0	450.0	0.0	n/a	ITI
155982	500.0	n/a	-1	-1	500	0.0	fixation	poldrack-single-stim	453	1265707	0.0-19.34-0.34	beast_fmri_test	330	1265371,/	t	<div class = centerbox2><div class = fixation>+</div></div>	none	500.0	test	n/a	n/a	n/a	n/a	n/a	n/a	n/a	n/a	n/a	n/a	n/a	n/a	n/a	n/a	n/a	n/a	n/a	n/a	fixation
155587.62436452298	650.0	n/a	-1	-1	2750	397.375635477	stim	stop-signal	454	1268460	0.0-19.34-1.34	beast_fmri_test	330	1266048,/,1266728,/,1267408,/,1268087,/,1268768,/	t,t,t,t,t	<img class = center src='/static/experiments/beast_fmri_test/images/T.png'></img>	71,89	2750.0	test	<img class = center src='/static/experiments/beast_fmri_test/images/redT.png'></img>	stop	2100.0	1.0	34.0	stop	non-target	T	71,Index Finger	89,Middle Finger	450.0	650.0	2300.0	2100.0	0.0	650.0	n/a	1.0	go_stim
157687.62436452298	2100.0	n/a	-1	-1	2750	397.375635477	stim	stop-signal	454	1268460	0.0-19.34-1.34	beast_fmri_test	330	1266048,/,1266728,/,1267408,/,1268087,/,1268768,/	t,t,t,t,t	<img class = center src='/static/experiments/beast_fmri_test/images/T.png'></img>	71,89	2750.0	test	<img class = center src='/static/experiments/beast_fmri_test/images/redT.png'></img>	stop	2100.0	1.0	34.0	stop	non-target	T	71,Index Finger	89,Middle Finger	450.0	650.0	2300.0	2100.0	0.0	650.0	n/a	1.0	stop_stim
158337.62436452298	397.375635477	n/a	-1	-1	2750	397.375635477	stim	stop-signal	454	1268460	0.0-19.34-1.34	beast_fmri_test	330	1266048,/,1266728,/,1267408,/,1268087,/,1268768,/	t,t,t,t,t	<img class = center src='/static/experiments/beast_fmri_test/images/T.png'></img>	71,89	2750.0	test	<img class = center src='/static/experiments/beast_fmri_test/images/redT.png'></img>	stop	2100.0	1.0	34.0	stop	non-target	T	71,Index Finger	89,Middle Finger	450.0	650.0	2300.0	2100.0	0.0	650.0	n/a	1.0	ITI
159687	500.0	n/a	-1	-1	500	0.0	fixation	poldrack-single-stim	455	1269412	0.0-19.35-0.35	beast_fmri_test	330	n/a	n/a	<div class = centerbox2><div class = fixation>+</div></div>	none	500.0	test	n/a	n/a	n/a	n/a	n/a	n/a	n/a	n/a	n/a	n/a	n/a	n/a	n/a	n/a	n/a	n/a	n/a	n/a	fixation
157148.57160745654	2750.0	n/a	916	71	2750	2539.42839254	stim	stop-signal	456	1272163	0.0-19.35-1.35	beast_fmri_test	330	1269447,/,1270128,/,1270806,/,1271486,/,1272165,/,1272846,/,1273525,/,1274206,/	t,t,t,t,t,t,t,t	<img class = center src='/static/experiments/beast_fmri_test/images/P.png'></img>	71,89	2750.0	test	<img class = center src='/static/experiments/beast_fmri_test/images/redP.png'></img>	go	2050.0	1.0	35.0	go	non-target	P	71,Index Finger	89,Middle Finger	450.0	700.0	2300.0	2050.0	0.0	700.0	0.0	n/a	go_stim
159898.57160745654	2539.42839254	n/a	916	71	2750	2539.42839254	stim	stop-signal	456	1272163	0.0-19.35-1.35	beast_fmri_test	330	1269447,/,1270128,/,1270806,/,1271486,/,1272165,/,1272846,/,1273525,/,1274206,/	t,t,t,t,t,t,t,t	<img class = center src='/static/experiments/beast_fmri_test/images/P.png'></img>	71,89	2750.0	test	<img class = center src='/static/experiments/beast_fmri_test/images/redP.png'></img>	go	2050.0	1.0	35.0	go	non-target	P	71,Index Finger	89,Middle Finger	450.0	700.0	2300.0	2050.0	0.0	700.0	0.0	n/a	ITI
165532	500.0	n/a	-1	-1	500	0.0	fixation	poldrack-single-stim	457	1275257	0.0-19.36-0.36	beast_fmri_test	330	1274884,/	t	<div class = centerbox2><div class = fixation>+</div></div>	none	500.0	test	n/a	n/a	n/a	n/a	n/a	n/a	n/a	n/a	n/a	n/a	n/a	n/a	n/a	n/a	n/a	n/a	n/a	n/a	fixation
165038.73185847956	2750.0	n/a	707	71	2750	494.268141521	stim	stop-signal	458	1278008	0.0-19.36-1.36	beast_fmri_test	330	1275565,/,1276243,/,1276923,/,1277604,/,1278283,/	t,t,t,t,t	<img class = center src='/static/experiments/beast_fmri_test/images/T.png'></img>	71,89	2750.0	test	<img class = center src='/static/experiments/beast_fmri_test/images/redT.png'></img>	go	2050.0	1.0	36.0	go	non-target	T	71,Index Finger	89,Middle Finger	450.0	700.0	2300.0	2050.0	0.0	700.0	0.0	n/a	go_stim
167788.73185847956	494.268141521	n/a	707	71	2750	494.268141521	stim	stop-signal	458	1278008	0.0-19.36-1.36	beast_fmri_test	330	1275565,/,1276243,/,1276923,/,1277604,/,1278283,/	t,t,t,t,t	<img class = center src='/static/experiments/beast_fmri_test/images/T.png'></img>	71,89	2750.0	test	<img class = center src='/static/experiments/beast_fmri_test/images/redT.png'></img>	go	2050.0	1.0	36.0	go	non-target	T	71,Index Finger	89,Middle Finger	450.0	700.0	2300.0	2050.0	0.0	700.0	0.0	n/a	ITI
169333	500.0	n/a	-1	-1	500	0.0	fixation	poldrack-single-stim	459	1279058	0.0-19.37-0.37	beast_fmri_test	330	1278964,/	t	<div class = centerbox2><div class = fixation>+</div></div>	none	500.0	test	n/a	n/a	n/a	n/a	n/a	n/a	n/a	n/a	n/a	n/a	n/a	n/a	n/a	n/a	n/a	n/a	n/a	n/a	fixation
169125.66637040069	450.0	n/a	-1	-1	2750	208.333629599	stim	stop-signal	460	1281809	0.0-19.37-1.37	beast_fmri_test	330	1279642,/,1280322,/,1281003,/,1281682,/	t,t,t,t	<img class = center src='/static/experiments/beast_fmri_test/images/T.png'></img>	71,89	2750.0	test	<img class = center src='/static/experiments/beast_fmri_test/images/redT.png'></img>	stop	2300.0	1.0	37.0	stop	target	T	71,Index Finger	89,Middle Finger	450.0	700.0	2300.0	2050.0	0.0	450.0	n/a	1.0	go_stim
171425.66637040069	2300.0	n/a	-1	-1	2750	208.333629599	stim	stop-signal	460	1281809	0.0-19.37-1.37	beast_fmri_test	330	1279642,/,1280322,/,1281003,/,1281682,/	t,t,t,t	<img class = center src='/static/experiments/beast_fmri_test/images/T.png'></img>	71,89	2750.0	test	<img class = center src='/static/experiments/beast_fmri_test/images/redT.png'></img>	stop	2300.0	1.0	37.0	stop	target	T	71,Index Finger	89,Middle Finger	450.0	700.0	2300.0	2050.0	0.0	450.0	n/a	1.0	stop_stim
171875.66637040069	208.333629599	n/a	-1	-1	2750	208.333629599	stim	stop-signal	460	1281809	0.0-19.37-1.37	beast_fmri_test	330	1279642,/,1280322,/,1281003,/,1281682,/	t,t,t,t	<img class = center src='/static/experiments/beast_fmri_test/images/T.png'></img>	71,89	2750.0	test	<img class = center src='/static/experiments/beast_fmri_test/images/redT.png'></img>	stop	2300.0	1.0	37.0	stop	target	T	71,Index Finger	89,Middle Finger	450.0	700.0	2300.0	2050.0	0.0	450.0	n/a	1.0	ITI
172847	500.0	n/a	-1	-1	500	0.0	fixation	poldrack-single-stim	461	1282572	0.0-19.38-0.38	beast_fmri_test	330	1282362,/	t	<div class = centerbox2><div class = fixation>+</div></div>	none	500.0	test	n/a	n/a	n/a	n/a	n/a	n/a	n/a	n/a	n/a	n/a	n/a	n/a	n/a	n/a	n/a	n/a	n/a	n/a	fixation
172313.85140044475	2750.0	n/a	1117	71	2750	534.148599555	stim	stop-signal	462	1285323	0.0-19.38-1.38	beast_fmri_test	330	1283042,/,1283722,/,1284400,/,1285080,/,1285760,/	t,t,t,t,t	<img class = center src='/static/experiments/beast_fmri_test/images/B.png'></img>	71,89	2750.0	test	<img class = center src='/static/experiments/beast_fmri_test/images/redB.png'></img>	go	2050.0	1.0	38.0	go	non-target	B	71,Index Finger	89,Middle Finger	500.0	700.0	2300.0	2050.0	0.0	700.0	0.0	n/a	go_stim
175063.85140044475	534.148599555	n/a	1117	71	2750	534.148599555	stim	stop-signal	462	1285323	0.0-19.38-1.38	beast_fmri_test	330	1283042,/,1283722,/,1284400,/,1285080,/,1285760,/	t,t,t,t,t	<img class = center src='/static/experiments/beast_fmri_test/images/B.png'></img>	71,89	2750.0	test	<img class = center src='/static/experiments/beast_fmri_test/images/redB.png'></img>	go	2050.0	1.0	38.0	go	non-target	B	71,Index Finger	89,Middle Finger	500.0	700.0	2300.0	2050.0	0.0	700.0	0.0	n/a	ITI
176690	500.0	n/a	-1	-1	500	0.0	fixation	poldrack-single-stim	463	1286415	0.0-19.39-0.39	beast_fmri_test	330	n/a	n/a	<div class = centerbox2><div class = fixation>+</div></div>	none	500.0	test	n/a	n/a	n/a	n/a	n/a	n/a	n/a	n/a	n/a	n/a	n/a	n/a	n/a	n/a	n/a	n/a	n/a	n/a	fixation
176305.16420514439	2750.0	n/a	847	89	2750	385.835794856	stim	stop-signal	464	1289166	0.0-19.39-1.39	beast_fmri_test	330	1286439,/,1287120,/,1287800,/,1288479,/,1289159,/	t,t,t,t,t	<img class = center src='/static/experiments/beast_fmri_test/images/B.png'></img>	71,89	2750.0	test	<img class = center src='/static/experiments/beast_fmri_test/images/redB.png'></img>	go	2250.0	1.0	39.0	go	target	B	71,Index Finger	89,Middle Finger	500.0	700.0	2250.0	2050.0	0.0	500.0	0.0	n/a	go_stim
179055.16420514439	385.835794856	n/a	847	89	2750	385.835794856	stim	stop-signal	464	1289166	0.0-19.39-1.39	beast_fmri_test	330	1286439,/,1287120,/,1287800,/,1288479,/,1289159,/	t,t,t,t,t	<img class = center src='/static/experiments/beast_fmri_test/images/B.png'></img>	71,89	2750.0	test	<img class = center src='/static/experiments/beast_fmri_test/images/redB.png'></img>	go	2250.0	1.0	39.0	go	target	B	71,Index Finger	89,Middle Finger	500.0	700.0	2250.0	2050.0	0.0	500.0	0.0	n/a	ITI
180384	500.0	n/a	-1	-1	500	0.0	fixation	poldrack-single-stim	465	1290109	0.0-19.40-0.40	beast_fmri_test	330	1289837,/	t	<div class = centerbox2><div class = fixation>+</div></div>	none	500.0	test	n/a	n/a	n/a	n/a	n/a	n/a	n/a	n/a	n/a	n/a	n/a	n/a	n/a	n/a	n/a	n/a	n/a	n/a	fixation
180303.70119379903	2750.0	n/a	638	71	2750	81.298806201	stim	stop-signal	466	1292860	0.0-19.40-1.40	beast_fmri_test	330	1290519,/,1291197,/,1291877,/,1292557,/	t,t,t,t	<img class = center src='/static/experiments/beast_fmri_test/images/V.png'></img>	71,89	2750.0	test	<img class = center src='/static/experiments/beast_fmri_test/images/redV.png'></img>	go	2050.0	1.0	40.0	go	non-target	V	71,Index Finger	89,Middle Finger	500.0	700.0	2250.0	2050.0	0.0	700.0	0.0	n/a	go_stim
183053.70119379903	81.298806201	n/a	638	71	2750	81.298806201	stim	stop-signal	466	1292860	0.0-19.40-1.40	beast_fmri_test	330	1290519,/,1291197,/,1291877,/,1292557,/	t,t,t,t	<img class = center src='/static/experiments/beast_fmri_test/images/V.png'></img>	71,89	2750.0	test	<img class = center src='/static/experiments/beast_fmri_test/images/redV.png'></img>	go	2050.0	1.0	40.0	go	non-target	V	71,Index Finger	89,Middle Finger	500.0	700.0	2250.0	2050.0	0.0	700.0	0.0	n/a	ITI
183783	500.0	n/a	-1	-1	500	0.0	fixation	poldrack-single-stim	467	1293508	0.0-19.41-0.41	beast_fmri_test	330	1293238,/	t	<div class = centerbox2><div class = fixation>+</div></div>	none	500.0	test	n/a	n/a	n/a	n/a	n/a	n/a	n/a	n/a	n/a	n/a	n/a	n/a	n/a	n/a	n/a	n/a	n/a	n/a	fixation
179836.35331436642	2750.0	n/a	1079	71	2750	3948.64668563	stim	stop-signal	468	1296260	0.0-19.41-1.41	beast_fmri_test	330	1293917,/,1294595,/,1295275,/,1295955,/,1296635,/,1297315,/,1297995,/,1298674,/,1299354,/,1300033,/	t,t,t,t,t,t,t,t,t,t	<img class = center src='/static/experiments/beast_fmri_test/images/V.png'></img>	71,89	2750.0	test	<img class = center src='/static/experiments/beast_fmri_test/images/redV.png'></img>	go	2250.0	1.0	41.0	go	target	V	71,Index Finger	89,Middle Finger	500.0	700.0	2250.0	2050.0	1.0	500.0	1.0	n/a	go_stim
182586.35331436642	3948.64668563	n/a	1079	71	2750	3948.64668563	stim	stop-signal	468	1296260	0.0-19.41-1.41	beast_fmri_test	330	1293917,/,1294595,/,1295275,/,1295955,/,1296635,/,1297315,/,1297995,/,1298674,/,1299354,/,1300033,/	t,t,t,t,t,t,t,t,t,t	<img class = center src='/static/experiments/beast_fmri_test/images/V.png'></img>	71,89	2750.0	test	<img class = center src='/static/experiments/beast_fmri_test/images/redV.png'></img>	go	2250.0	1.0	41.0	go	target	V	71,Index Finger	89,Middle Finger	500.0	700.0	2250.0	2050.0	1.0	500.0	1.0	n/a	ITI
191032	500.0	n/a	-1	-1	500	0.0	fixation	poldrack-single-stim	469	1300757	0.0-19.42-0.42	beast_fmri_test	330	1300714,/	t	<div class = centerbox2><div class = fixation>+</div></div>	none	500.0	test	n/a	n/a	n/a	n/a	n/a	n/a	n/a	n/a	n/a	n/a	n/a	n/a	n/a	n/a	n/a	n/a	n/a	n/a	fixation
190712.56329451106	2750.0	n/a	742	71	2750	321.436705489	stim	stop-signal	470	1303509	0.0-19.42-1.42	beast_fmri_test	330	1301393,/,1302072,/,1302752,/,1303432,/	t,t,t,t	<img class = center src='/static/experiments/beast_fmri_test/images/V.png'></img>	71,89	2750.0	test	<img class = center src='/static/experiments/beast_fmri_test/images/redV.png'></img>	go	2250.0	1.0	42.0	go	target	V	71,Index Finger	89,Middle Finger	500.0	700.0	2250.0	2050.0	1.0	500.0	1.0	n/a	go_stim
193462.56329451106	321.436705489	n/a	742	71	2750	321.436705489	stim	stop-signal	470	1303509	0.0-19.42-1.42	beast_fmri_test	330	1301393,/,1302072,/,1302752,/,1303432,/	t,t,t,t	<img class = center src='/static/experiments/beast_fmri_test/images/V.png'></img>	71,89	2750.0	test	<img class = center src='/static/experiments/beast_fmri_test/images/redV.png'></img>	go	2250.0	1.0	42.0	go	target	V	71,Index Finger	89,Middle Finger	500.0	700.0	2250.0	2050.0	1.0	500.0	1.0	n/a	ITI
194660	500.0	n/a	-1	-1	500	0.0	fixation	poldrack-single-stim	471	1304385	0.0-19.43-0.43	beast_fmri_test	330	1304111,/	t	<div class = centerbox2><div class = fixation>+</div></div>	none	500.0	test	n/a	n/a	n/a	n/a	n/a	n/a	n/a	n/a	n/a	n/a	n/a	n/a	n/a	n/a	n/a	n/a	n/a	n/a	fixation
194000.44461273472	2750.0	n/a	1459	89	2750	661.555387265	stim	stop-signal	472	1307137	0.0-19.43-1.43	beast_fmri_test	330	1304791,/,1305472,/,1306151,/,1306831,/,1307510,/	t,t,t,t,t	<img class = center src='/static/experiments/beast_fmri_test/images/V.png'></img>	71,89	2750.0	test	<img class = center src='/static/experiments/beast_fmri_test/images/redV.png'></img>	go	2250.0	1.0	43.0	go	target	V	71,Index Finger	89,Middle Finger	500.0	700.0	2250.0	2050.0	0.0	500.0	0.0	n/a	go_stim
196750.44461273472	661.555387265	n/a	1459	89	2750	661.555387265	stim	stop-signal	472	1307137	0.0-19.43-1.43	beast_fmri_test	330	1304791,/,1305472,/,1306151,/,1306831,/,1307510,/	t,t,t,t,t	<img class = center src='/static/experiments/beast_fmri_test/images/V.png'></img>	71,89	2750.0	test	<img class = center src='/static/experiments/beast_fmri_test/images/redV.png'></img>	go	2250.0	1.0	43.0	go	target	V	71,Index Finger	89,Middle Finger	500.0	700.0	2250.0	2050.0	0.0	500.0	0.0	n/a	ITI
198626	500.0	n/a	-1	-1	500	0.0	fixation	poldrack-single-stim	473	1308351	0.0-19.44-0.44	beast_fmri_test	330	1308190,/	t	<div class = centerbox2><div class = fixation>+</div></div>	none	500.0	test	n/a	n/a	n/a	n/a	n/a	n/a	n/a	n/a	n/a	n/a	n/a	n/a	n/a	n/a	n/a	n/a	n/a	n/a	fixation
197567.72358723753	500.0	n/a	890	89	2750	1060.27641276	stim	stop-signal	474	1311103	0.0-19.44-1.44	beast_fmri_test	330	1308869,/,1309549,/,1310228,/,1310910,/,1311589,/	t,t,t,t,t	<img class = center src='/static/experiments/beast_fmri_test/images/V.png'></img>	71,89	2750.0	test	<img class = center src='/static/experiments/beast_fmri_test/images/redV.png'></img>	stop	2250.0	1.0	44.0	stop	target	V	71,Index Finger	89,Middle Finger	500.0	700.0	2250.0	2050.0	0.0	500.0	n/a	0.0	go_stim
199817.72358723753	2250.0	n/a	890	89	2750	1060.27641276	stim	stop-signal	474	1311103	0.0-19.44-1.44	beast_fmri_test	330	1308869,/,1309549,/,1310228,/,1310910,/,1311589,/	t,t,t,t,t	<img class = center src='/static/experiments/beast_fmri_test/images/V.png'></img>	71,89	2750.0	test	<img class = center src='/static/experiments/beast_fmri_test/images/redV.png'></img>	stop	2250.0	1.0	44.0	stop	target	V	71,Index Finger	89,Middle Finger	500.0	700.0	2250.0	2050.0	0.0	500.0	n/a	0.0	stop_stim
200317.72358723753	1060.27641276	n/a	890	89	2750	1060.27641276	stim	stop-signal	474	1311103	0.0-19.44-1.44	beast_fmri_test	330	1308869,/,1309549,/,1310228,/,1310910,/,1311589,/	t,t,t,t,t	<img class = center src='/static/experiments/beast_fmri_test/images/V.png'></img>	71,89	2750.0	test	<img class = center src='/static/experiments/beast_fmri_test/images/redV.png'></img>	stop	2250.0	1.0	44.0	stop	target	V	71,Index Finger	89,Middle Finger	500.0	700.0	2250.0	2050.0	0.0	500.0	n/a	0.0	ITI
202988	500.0	n/a	-1	-1	500	0.0	fixation	poldrack-single-stim	475	1312713	0.0-19.45-0.45	beast_fmri_test	330	1312268,/	t	<div class = centerbox2><div class = fixation>+</div></div>	none	500.0	test	n/a	n/a	n/a	n/a	n/a	n/a	n/a	n/a	n/a	n/a	n/a	n/a	n/a	n/a	n/a	n/a	n/a	n/a	fixation
202167.91596986563	2750.0	n/a	667	71	2750	821.084030134	stim	stop-signal	476	1315464	0.0-19.45-1.45	beast_fmri_test	330	1312947,/,1313628,/,1314307,/,1314987,/,1315666,/	t,t,t,t,t	<img class = center src='/static/experiments/beast_fmri_test/images/T.png'></img>	71,89	2750.0	test	<img class = center src='/static/experiments/beast_fmri_test/images/redT.png'></img>	go	2050.0	1.0	45.0	go	non-target	T	71,Index Finger	89,Middle Finger	450.0	700.0	2250.0	2050.0	0.0	700.0	0.0	n/a	go_stim
204917.91596986563	821.084030134	n/a	667	71	2750	821.084030134	stim	stop-signal	476	1315464	0.0-19.45-1.45	beast_fmri_test	330	1312947,/,1313628,/,1314307,/,1314987,/,1315666,/	t,t,t,t,t	<img class = center src='/static/experiments/beast_fmri_test/images/T.png'></img>	71,89	2750.0	test	<img class = center src='/static/experiments/beast_fmri_test/images/redT.png'></img>	go	2050.0	1.0	45.0	go	non-target	T	71,Index Finger	89,Middle Finger	450.0	700.0	2250.0	2050.0	0.0	700.0	0.0	n/a	ITI
221605	15000.0	n/a	-1	-1	15000	0.0	practice-no-stop-feedback	poldrack-single-stim	477	1331330	0.0-20.0	beast_fmri_test	330	1316346,/,1317026,/,1317705,/,1318385,/,1319064,/,1319745,/,1320425,/,1321104,/,1321784,/,1322463,/,1323142,/,1323822,/,1324503,/,1325182,/,1325862,/,1326542,/,1327221,/,1327900,/,1328580,/,1329261,/,1329939,/,1330620,/,1331300,/	t,t,t,t,t,t,t,t,t,t,t,t,t,t,t,t,t,t,t,t,t,t,t	"<div class = ""centerbox""><p class = ""block-text"">Your delay is 1 trials.</p><p class = block-text>Please wait for the scanner to start the block</p></div>"	77	15000.0	n/a	n/a	n/a	n/a	n/a	n/a	n/a	n/a	n/a	n/a	n/a	n/a	n/a	n/a	n/a	n/a	n/a	n/a	n/a	practice-no-stop-feedback
222107	500.0	n/a	-1	-1	500	0.0	fixation	poldrack-single-stim	478	1331832	0.0-21.0-0.0	beast_fmri_test	330	n/a	n/a	<div class = centerbox2><div class = fixation>+</div></div>	none	500.0	test	n/a	n/a	n/a	n/a	n/a	n/a	n/a	n/a	n/a	n/a	n/a	n/a	n/a	n/a	n/a	n/a	n/a	n/a	fixation
222069.00107810344	2750.0	n/a	632	71	2750	38.9989218965	stim	stop-signal	479	1334583	0.0-21.0-1.0	beast_fmri_test	330	1331977,/,1332657,/,1333338,/,1334018,/	t,t,t,t	<img class = center src='/static/experiments/beast_fmri_test/images/V.png'></img>	71,89	2750.0	test	<img class = center src='/static/experiments/beast_fmri_test/images/redV.png'></img>	go	-1.0	1.0	0.0	go	temp-non-target	V	71,Index Finger	89,Middle Finger	450.0	700.0	2250.0	2050.0	0.0	n/a	n/a	n/a	go_stim
224819.00107810344	38.9989218965	n/a	632	71	2750	38.9989218965	stim	stop-signal	479	1334583	0.0-21.0-1.0	beast_fmri_test	330	1331977,/,1332657,/,1333338,/,1334018,/	t,t,t,t	<img class = center src='/static/experiments/beast_fmri_test/images/V.png'></img>	71,89	2750.0	test	<img class = center src='/static/experiments/beast_fmri_test/images/redV.png'></img>	go	-1.0	1.0	0.0	go	temp-non-target	V	71,Index Finger	89,Middle Finger	450.0	700.0	2250.0	2050.0	0.0	n/a	n/a	n/a	ITI
225448	500.0	n/a	-1	-1	500	0.0	fixation	poldrack-single-stim	480	1335173	0.0-21.1-0.1	beast_fmri_test	330	1334697,/	t	<div class = centerbox2><div class = fixation>+</div></div>	none	500.0	test	n/a	n/a	n/a	n/a	n/a	n/a	n/a	n/a	n/a	n/a	n/a	n/a	n/a	n/a	n/a	n/a	n/a	n/a	fixation
223440.11106951698	2750.0	n/a	651	71	2750	2008.88893048	stim	stop-signal	481	1337924	0.0-21.1-1.1	beast_fmri_test	330	1335377,/,1336056,/,1336736,/,1337416,/,1338097,/,1338774,/,1339456,/	t,t,t,t,t,t,t	<img class = center src='/static/experiments/beast_fmri_test/images/P.png'></img>	71,89	2750.0	test	<img class = center src='/static/experiments/beast_fmri_test/images/redP.png'></img>	go	2050.0	1.0	1.0	go	non-target	P	71,Index Finger	89,Middle Finger	450.0	700.0	2250.0	2050.0	0.0	700.0	0.0	n/a	go_stim
226190.11106951698	2008.88893048	n/a	651	71	2750	2008.88893048	stim	stop-signal	481	1337924	0.0-21.1-1.1	beast_fmri_test	330	1335377,/,1336056,/,1336736,/,1337416,/,1338097,/,1338774,/,1339456,/	t,t,t,t,t,t,t	<img class = center src='/static/experiments/beast_fmri_test/images/P.png'></img>	71,89	2750.0	test	<img class = center src='/static/experiments/beast_fmri_test/images/redP.png'></img>	go	2050.0	1.0	1.0	go	non-target	P	71,Index Finger	89,Middle Finger	450.0	700.0	2250.0	2050.0	0.0	700.0	0.0	n/a	ITI
230761	500.0	n/a	-1	-1	500	0.0	fixation	poldrack-single-stim	482	1340486	0.0-21.2-0.2	beast_fmri_test	330	1340137,/	t	<div class = centerbox2><div class = fixation>+</div></div>	none	500.0	test	n/a	n/a	n/a	n/a	n/a	n/a	n/a	n/a	n/a	n/a	n/a	n/a	n/a	n/a	n/a	n/a	n/a	n/a	fixation
229787.07620967738	2750.0	n/a	560	71	2750	976.923790323	stim	stop-signal	483	1343239	0.0-21.2-1.2	beast_fmri_test	330	1340816,/,1341494,/,1342175,/,1342854,/,1343535,/,1344215,/	t,t,t,t,t,t	<img class = center src='/static/experiments/beast_fmri_test/images/B.png'></img>	71,89	2750.0	test	<img class = center src='/static/experiments/beast_fmri_test/images/redB.png'></img>	go	2050.0	1.0	2.0	go	non-target	B	71,Index Finger	89,Middle Finger	450.0	700.0	2250.0	2050.0	0.0	700.0	0.0	n/a	go_stim
232537.07620967738	976.923790323	n/a	560	71	2750	976.923790323	stim	stop-signal	483	1343239	0.0-21.2-1.2	beast_fmri_test	330	1340816,/,1341494,/,1342175,/,1342854,/,1343535,/,1344215,/	t,t,t,t,t,t	<img class = center src='/static/experiments/beast_fmri_test/images/B.png'></img>	71,89	2750.0	test	<img class = center src='/static/experiments/beast_fmri_test/images/redB.png'></img>	go	2050.0	1.0	2.0	go	non-target	B	71,Index Finger	89,Middle Finger	450.0	700.0	2250.0	2050.0	0.0	700.0	0.0	n/a	ITI
235039	500.0	n/a	-1	-1	500	0.0	fixation	poldrack-single-stim	484	1344764	0.0-21.3-0.3	beast_fmri_test	330	n/a	n/a	<div class = centerbox2><div class = fixation>+</div></div>	none	500.0	test	n/a	n/a	n/a	n/a	n/a	n/a	n/a	n/a	n/a	n/a	n/a	n/a	n/a	n/a	n/a	n/a	n/a	n/a	fixation
233950.94233794534	700.0	n/a	830	71	2750	1090.05766205	stim	stop-signal	485	1347516	0.0-21.3-1.3	beast_fmri_test	330	1344893,/,1345573,/,1346252,/,1346933,/,1347611,/,1348293,/	t,t,t,t,t,t	<img class = center src='/static/experiments/beast_fmri_test/images/T.png'></img>	71,89	2750.0	test	<img class = center src='/static/experiments/beast_fmri_test/images/redT.png'></img>	stop	2050.0	1.0	3.0	stop	non-target	T	71,Index Finger	89,Middle Finger	450.0	700.0	2250.0	2050.0	0.0	700.0	n/a	0.0	go_stim
236000.94233794534	2050.0	n/a	830	71	2750	1090.05766205	stim	stop-signal	485	1347516	0.0-21.3-1.3	beast_fmri_test	330	1344893,/,1345573,/,1346252,/,1346933,/,1347611,/,1348293,/	t,t,t,t,t,t	<img class = center src='/static/experiments/beast_fmri_test/images/T.png'></img>	71,89	2750.0	test	<img class = center src='/static/experiments/beast_fmri_test/images/redT.png'></img>	stop	2050.0	1.0	3.0	stop	non-target	T	71,Index Finger	89,Middle Finger	450.0	700.0	2250.0	2050.0	0.0	700.0	n/a	0.0	stop_stim
236700.94233794534	1090.05766205	n/a	830	71	2750	1090.05766205	stim	stop-signal	485	1347516	0.0-21.3-1.3	beast_fmri_test	330	1344893,/,1345573,/,1346252,/,1346933,/,1347611,/,1348293,/	t,t,t,t,t,t	<img class = center src='/static/experiments/beast_fmri_test/images/T.png'></img>	71,89	2750.0	test	<img class = center src='/static/experiments/beast_fmri_test/images/redT.png'></img>	stop	2050.0	1.0	3.0	stop	non-target	T	71,Index Finger	89,Middle Finger	450.0	700.0	2250.0	2050.0	0.0	700.0	n/a	0.0	ITI
239432	500.0	n/a	-1	-1	500	0.0	fixation	poldrack-single-stim	486	1349157	0.0-21.4-0.4	beast_fmri_test	330	1348972,/	t	<div class = centerbox2><div class = fixation>+</div></div>	none	500.0	test	n/a	n/a	n/a	n/a	n/a	n/a	n/a	n/a	n/a	n/a	n/a	n/a	n/a	n/a	n/a	n/a	n/a	n/a	fixation
238817.21394274826	650.0	n/a	567	71	2750	615.786057252	stim	stop-signal	487	1351908	0.0-21.4-1.4	beast_fmri_test	330	1349653,/,1350330,/,1351010,/,1351690,/,1352370,/	t,t,t,t,t	<img class = center src='/static/experiments/beast_fmri_test/images/D.png'></img>	71,89	2750.0	test	<img class = center src='/static/experiments/beast_fmri_test/images/redD.png'></img>	stop	2100.0	1.0	4.0	stop	non-target	D	71,Index Finger	89,Middle Finger	450.0	650.0	2250.0	2100.0	0.0	650.0	n/a	0.0	go_stim
240917.21394274826	2100.0	n/a	567	71	2750	615.786057252	stim	stop-signal	487	1351908	0.0-21.4-1.4	beast_fmri_test	330	1349653,/,1350330,/,1351010,/,1351690,/,1352370,/	t,t,t,t,t	<img class = center src='/static/experiments/beast_fmri_test/images/D.png'></img>	71,89	2750.0	test	<img class = center src='/static/experiments/beast_fmri_test/images/redD.png'></img>	stop	2100.0	1.0	4.0	stop	non-target	D	71,Index Finger	89,Middle Finger	450.0	650.0	2250.0	2100.0	0.0	650.0	n/a	0.0	stop_stim
241567.21394274826	615.786057252	n/a	567	71	2750	615.786057252	stim	stop-signal	487	1351908	0.0-21.4-1.4	beast_fmri_test	330	1349653,/,1350330,/,1351010,/,1351690,/,1352370,/	t,t,t,t,t	<img class = center src='/static/experiments/beast_fmri_test/images/D.png'></img>	71,89	2750.0	test	<img class = center src='/static/experiments/beast_fmri_test/images/redD.png'></img>	stop	2100.0	1.0	4.0	stop	non-target	D	71,Index Finger	89,Middle Finger	450.0	650.0	2250.0	2100.0	0.0	650.0	n/a	0.0	ITI
243352	500.0	n/a	-1	-1	500	0.0	fixation	poldrack-single-stim	488	1353077	0.0-21.5-0.5	beast_fmri_test	330	1353049,/	t	<div class = centerbox2><div class = fixation>+</div></div>	none	500.0	test	n/a	n/a	n/a	n/a	n/a	n/a	n/a	n/a	n/a	n/a	n/a	n/a	n/a	n/a	n/a	n/a	n/a	n/a	fixation
241529.32043979969	2750.0	n/a	1353	89	2750	1824.6795602	stim	stop-signal	489	1355829	0.0-21.5-1.5	beast_fmri_test	330	1353729,/,1354410,/,1355089,/,1355767,/,1356447,/,1357128,/	t,t,t,t,t,t	<img class = center src='/static/experiments/beast_fmri_test/images/D.png'></img>	71,89	2750.0	test	<img class = center src='/static/experiments/beast_fmri_test/images/redD.png'></img>	go	2300.0	1.0	5.0	go	target	D	71,Index Finger	89,Middle Finger	450.0	600.0	2300.0	2100.0	0.0	450.0	0.0	n/a	go_stim
244279.32043979969	1824.6795602	n/a	1353	89	2750	1824.6795602	stim	stop-signal	489	1355829	0.0-21.5-1.5	beast_fmri_test	330	1353729,/,1354410,/,1355089,/,1355767,/,1356447,/,1357128,/	t,t,t,t,t,t	<img class = center src='/static/experiments/beast_fmri_test/images/D.png'></img>	71,89	2750.0	test	<img class = center src='/static/experiments/beast_fmri_test/images/redD.png'></img>	go	2300.0	1.0	5.0	go	target	D	71,Index Finger	89,Middle Finger	450.0	600.0	2300.0	2100.0	0.0	450.0	0.0	n/a	ITI
248484	500.0	n/a	-1	-1	500	0.0	fixation	poldrack-single-stim	490	1358209	0.0-21.6-0.6	beast_fmri_test	330	1357809,/	t	<div class = centerbox2><div class = fixation>+</div></div>	none	500.0	test	n/a	n/a	n/a	n/a	n/a	n/a	n/a	n/a	n/a	n/a	n/a	n/a	n/a	n/a	n/a	n/a	n/a	n/a	fixation
246260.09142965381	600.0	n/a	717	71	2750	2225.90857035	stim	stop-signal	491	1360961	0.0-21.6-1.6	beast_fmri_test	330	1358488,/,1359166,/,1359846,/,1360527,/,1361205,/,1361885,/,1362565,/	t,t,t,t,t,t,t	<img class = center src='/static/experiments/beast_fmri_test/images/P.png'></img>	71,89	2750.0	test	<img class = center src='/static/experiments/beast_fmri_test/images/redP.png'></img>	stop	2150.0	1.0	6.0	stop	non-target	P	71,Index Finger	89,Middle Finger	450.0	600.0	2300.0	2150.0	0.0	600.0	n/a	0.0	go_stim
248410.09142965381	2150.0	n/a	717	71	2750	2225.90857035	stim	stop-signal	491	1360961	0.0-21.6-1.6	beast_fmri_test	330	1358488,/,1359166,/,1359846,/,1360527,/,1361205,/,1361885,/,1362565,/	t,t,t,t,t,t,t	<img class = center src='/static/experiments/beast_fmri_test/images/P.png'></img>	71,89	2750.0	test	<img class = center src='/static/experiments/beast_fmri_test/images/redP.png'></img>	stop	2150.0	1.0	6.0	stop	non-target	P	71,Index Finger	89,Middle Finger	450.0	600.0	2300.0	2150.0	0.0	600.0	n/a	0.0	stop_stim
249010.09142965381	2225.90857035	n/a	717	71	2750	2225.90857035	stim	stop-signal	491	1360961	0.0-21.6-1.6	beast_fmri_test	330	1358488,/,1359166,/,1359846,/,1360527,/,1361205,/,1361885,/,1362565,/	t,t,t,t,t,t,t	<img class = center src='/static/experiments/beast_fmri_test/images/P.png'></img>	71,89	2750.0	test	<img class = center src='/static/experiments/beast_fmri_test/images/redP.png'></img>	stop	2150.0	1.0	6.0	stop	non-target	P	71,Index Finger	89,Middle Finger	450.0	600.0	2300.0	2150.0	0.0	600.0	n/a	0.0	ITI
254018	500.0	n/a	-1	-1	500	0.0	fixation	poldrack-single-stim	492	1363743	0.0-21.7-0.7	beast_fmri_test	330	1363244,/	t	<div class = centerbox2><div class = fixation>+</div></div>	none	500.0	test	n/a	n/a	n/a	n/a	n/a	n/a	n/a	n/a	n/a	n/a	n/a	n/a	n/a	n/a	n/a	n/a	n/a	n/a	fixation
253754.07190305414	2750.0	n/a	987	71	2750	266.928096946	stim	stop-signal	493	1366496	0.0-21.7-1.7	beast_fmri_test	330	1363925,/,1364604,/,1365283,/,1365963,/,1366644,/	t,t,t,t,t	<img class = center src='/static/experiments/beast_fmri_test/images/D.png'></img>	71,89	2750.0	test	<img class = center src='/static/experiments/beast_fmri_test/images/redD.png'></img>	go	2200.0	1.0	7.0	go	non-target	D	71,Index Finger	89,Middle Finger	450.0	550.0	2300.0	2200.0	0.0	550.0	0.0	n/a	go_stim
256504.07190305414	266.928096946	n/a	987	71	2750	266.928096946	stim	stop-signal	493	1366496	0.0-21.7-1.7	beast_fmri_test	330	1363925,/,1364604,/,1365283,/,1365963,/,1366644,/	t,t,t,t,t	<img class = center src='/static/experiments/beast_fmri_test/images/D.png'></img>	71,89	2750.0	test	<img class = center src='/static/experiments/beast_fmri_test/images/redD.png'></img>	go	2200.0	1.0	7.0	go	non-target	D	71,Index Finger	89,Middle Finger	450.0	550.0	2300.0	2200.0	0.0	550.0	0.0	n/a	ITI
257591	500.0	n/a	-1	-1	500	0.0	fixation	poldrack-single-stim	494	1367316	0.0-21.8-0.8	beast_fmri_test	330	n/a	n/a	<div class = centerbox2><div class = fixation>+</div></div>	none	500.0	test	n/a	n/a	n/a	n/a	n/a	n/a	n/a	n/a	n/a	n/a	n/a	n/a	n/a	n/a	n/a	n/a	n/a	n/a	fixation
254253.32205280662	2750.0	n/a	767	89	2750	3339.67794719	stim	stop-signal	495	1370068	0.0-21.8-1.8	beast_fmri_test	330	1367324,/,1368003,/,1368683,/,1369362,/,1370042,/,1370721,/,1371401,/,1372081,/,1372760,/	t,t,t,t,t,t,t,t,t	<img class = center src='/static/experiments/beast_fmri_test/images/D.png'></img>	71,89	2750.0	test	<img class = center src='/static/experiments/beast_fmri_test/images/redD.png'></img>	go	2300.0	1.0	8.0	go	target	D	71,Index Finger	89,Middle Finger	450.0	550.0	2300.0	2200.0	0.0	450.0	0.0	n/a	go_stim
257003.32205280662	3339.67794719	n/a	767	89	2750	3339.67794719	stim	stop-signal	495	1370068	0.0-21.8-1.8	beast_fmri_test	330	1367324,/,1368003,/,1368683,/,1369362,/,1370042,/,1370721,/,1371401,/,1372081,/,1372760,/	t,t,t,t,t,t,t,t,t	<img class = center src='/static/experiments/beast_fmri_test/images/D.png'></img>	71,89	2750.0	test	<img class = center src='/static/experiments/beast_fmri_test/images/redD.png'></img>	go	2300.0	1.0	8.0	go	target	D	71,Index Finger	89,Middle Finger	450.0	550.0	2300.0	2200.0	0.0	450.0	0.0	n/a	ITI
264240	500.0	n/a	-1	-1	500	0.0	fixation	poldrack-single-stim	496	1373965	0.0-21.9-0.9	beast_fmri_test	330	1373464,/	t	<div class = centerbox2><div class = fixation>+</div></div>	none	500.0	test	n/a	n/a	n/a	n/a	n/a	n/a	n/a	n/a	n/a	n/a	n/a	n/a	n/a	n/a	n/a	n/a	n/a	n/a	fixation
262187.6233656269	2750.0	n/a	698	71	2750	2054.37663437	stim	stop-signal	497	1376717	0.0-21.9-1.9	beast_fmri_test	330	1374119,/,1374800,/,1375479,/,1376160,/,1376838,/,1377519,/,1378198,/	t,t,t,t,t,t,t	<img class = center src='/static/experiments/beast_fmri_test/images/B.png'></img>	71,89	2750.0	test	<img class = center src='/static/experiments/beast_fmri_test/images/redB.png'></img>	go	2200.0	1.0	9.0	go	non-target	B	71,Index Finger	89,Middle Finger	450.0	550.0	2300.0	2200.0	0.0	550.0	0.0	n/a	go_stim
264937.6233656269	2054.37663437	n/a	698	71	2750	2054.37663437	stim	stop-signal	497	1376717	0.0-21.9-1.9	beast_fmri_test	330	1374119,/,1374800,/,1375479,/,1376160,/,1376838,/,1377519,/,1378198,/	t,t,t,t,t,t,t	<img class = center src='/static/experiments/beast_fmri_test/images/B.png'></img>	71,89	2750.0	test	<img class = center src='/static/experiments/beast_fmri_test/images/redB.png'></img>	go	2200.0	1.0	9.0	go	non-target	B	71,Index Finger	89,Middle Finger	450.0	550.0	2300.0	2200.0	0.0	550.0	0.0	n/a	ITI
269600	500.0	n/a	-1	-1	500	0.0	fixation	poldrack-single-stim	498	1379325	0.0-21.10-0.10	beast_fmri_test	330	1378877,/	t	<div class = centerbox2><div class = fixation>+</div></div>	none	500.0	test	n/a	n/a	n/a	n/a	n/a	n/a	n/a	n/a	n/a	n/a	n/a	n/a	n/a	n/a	n/a	n/a	n/a	n/a	fixation
268154.00887444732	550.0	n/a	639	71	2750	1445.99112555	stim	stop-signal	499	1382075	0.0-21.10-1.10	beast_fmri_test	330	1379557,/,1380236,/,1380917,/,1381596,/,1382275,/,1382955,/	t,t,t,t,t,t	<img class = center src='/static/experiments/beast_fmri_test/images/T.png'></img>	71,89	2750.0	test	<img class = center src='/static/experiments/beast_fmri_test/images/redT.png'></img>	stop	2200.0	1.0	10.0	stop	non-target	T	71,Index Finger	89,Middle Finger	450.0	550.0	2300.0	2200.0	0.0	550.0	n/a	0.0	go_stim
270354.00887444732	2200.0	n/a	639	71	2750	1445.99112555	stim	stop-signal	499	1382075	0.0-21.10-1.10	beast_fmri_test	330	1379557,/,1380236,/,1380917,/,1381596,/,1382275,/,1382955,/	t,t,t,t,t,t	<img class = center src='/static/experiments/beast_fmri_test/images/T.png'></img>	71,89	2750.0	test	<img class = center src='/static/experiments/beast_fmri_test/images/redT.png'></img>	stop	2200.0	1.0	10.0	stop	non-target	T	71,Index Finger	89,Middle Finger	450.0	550.0	2300.0	2200.0	0.0	550.0	n/a	0.0	stop_stim
270904.00887444732	1445.99112555	n/a	639	71	2750	1445.99112555	stim	stop-signal	499	1382075	0.0-21.10-1.10	beast_fmri_test	330	1379557,/,1380236,/,1380917,/,1381596,/,1382275,/,1382955,/	t,t,t,t,t,t	<img class = center src='/static/experiments/beast_fmri_test/images/T.png'></img>	71,89	2750.0	test	<img class = center src='/static/experiments/beast_fmri_test/images/redT.png'></img>	stop	2200.0	1.0	10.0	stop	non-target	T	71,Index Finger	89,Middle Finger	450.0	550.0	2300.0	2200.0	0.0	550.0	n/a	0.0	ITI
274349	500.0	n/a	-1	-1	500	0.0	fixation	poldrack-single-stim	500	1384074	0.0-21.11-0.11	beast_fmri_test	330	1383634,/	t	<div class = centerbox2><div class = fixation>+</div></div>	none	500.0	test	n/a	n/a	n/a	n/a	n/a	n/a	n/a	n/a	n/a	n/a	n/a	n/a	n/a	n/a	n/a	n/a	n/a	n/a	fixation
274081.4614271163	2750.0	n/a	653	71	2750	268.538572884	stim	stop-signal	501	1386825	0.0-21.11-1.11	beast_fmri_test	330	1384315,/,1384996,/,1385675,/,1386354,/,1387033,/	t,t,t,t,t	<img class = center src='/static/experiments/beast_fmri_test/images/B.png'></img>	71,89	2750.0	test	<img class = center src='/static/experiments/beast_fmri_test/images/redB.png'></img>	go	2250.0	1.0	11.0	go	non-target	B	71,Index Finger	89,Middle Finger	450.0	500.0	2300.0	2250.0	0.0	500.0	0.0	n/a	go_stim
276831.4614271163	268.538572884	n/a	653	71	2750	268.538572884	stim	stop-signal	501	1386825	0.0-21.11-1.11	beast_fmri_test	330	1384315,/,1384996,/,1385675,/,1386354,/,1387033,/	t,t,t,t,t	<img class = center src='/static/experiments/beast_fmri_test/images/B.png'></img>	71,89	2750.0	test	<img class = center src='/static/experiments/beast_fmri_test/images/redB.png'></img>	go	2250.0	1.0	11.0	go	non-target	B	71,Index Finger	89,Middle Finger	450.0	500.0	2300.0	2250.0	0.0	500.0	0.0	n/a	ITI
277926	500.0	n/a	-1	-1	500	0.0	fixation	poldrack-single-stim	502	1387651	0.0-21.12-0.12	beast_fmri_test	330	n/a	n/a	<div class = centerbox2><div class = fixation>+</div></div>	none	500.0	test	n/a	n/a	n/a	n/a	n/a	n/a	n/a	n/a	n/a	n/a	n/a	n/a	n/a	n/a	n/a	n/a	n/a	n/a	fixation
277884.98234882159	2750.0	n/a	685	89	2750	43.0176511784	stim	stop-signal	503	1390403	0.0-21.12-1.12	beast_fmri_test	330	1387713,/,1388393,/,1389073,/,1389753,/,1390431,/	t,t,t,t,t	<img class = center src='/static/experiments/beast_fmri_test/images/B.png'></img>	71,89	2750.0	test	<img class = center src='/static/experiments/beast_fmri_test/images/redB.png'></img>	go	2300.0	1.0	12.0	go	target	B	71,Index Finger	89,Middle Finger	450.0	500.0	2300.0	2250.0	0.0	450.0	0.0	n/a	go_stim
280634.98234882159	43.0176511784	n/a	685	89	2750	43.0176511784	stim	stop-signal	503	1390403	0.0-21.12-1.12	beast_fmri_test	330	1387713,/,1388393,/,1389073,/,1389753,/,1390431,/	t,t,t,t,t	<img class = center src='/static/experiments/beast_fmri_test/images/B.png'></img>	71,89	2750.0	test	<img class = center src='/static/experiments/beast_fmri_test/images/redB.png'></img>	go	2300.0	1.0	12.0	go	target	B	71,Index Finger	89,Middle Finger	450.0	500.0	2300.0	2250.0	0.0	450.0	0.0	n/a	ITI
281280	500.0	n/a	-1	-1	500	0.0	fixation	poldrack-single-stim	504	1391005	0.0-21.13-0.13	beast_fmri_test	330	n/a	n/a	<div class = centerbox2><div class = fixation>+</div></div>	none	500.0	test	n/a	n/a	n/a	n/a	n/a	n/a	n/a	n/a	n/a	n/a	n/a	n/a	n/a	n/a	n/a	n/a	n/a	n/a	fixation
280242.61851751292	2750.0	n/a	630	71	2750	1037.38148249	stim	stop-signal	505	1393755	0.0-21.13-1.13	beast_fmri_test	330	1391112,/,1391791,/,1392471,/,1393150,/,1393829,/,1394510,/	t,t,t,t,t,t	<img class = center src='/static/experiments/beast_fmri_test/images/T.png'></img>	71,89	2750.0	test	<img class = center src='/static/experiments/beast_fmri_test/images/redT.png'></img>	go	2250.0	1.0	13.0	go	non-target	T	71,Index Finger	89,Middle Finger	450.0	500.0	2300.0	2250.0	0.0	500.0	0.0	n/a	go_stim
282992.61851751292	1037.38148249	n/a	630	71	2750	1037.38148249	stim	stop-signal	505	1393755	0.0-21.13-1.13	beast_fmri_test	330	1391112,/,1391791,/,1392471,/,1393150,/,1393829,/,1394510,/	t,t,t,t,t,t	<img class = center src='/static/experiments/beast_fmri_test/images/T.png'></img>	71,89	2750.0	test	<img class = center src='/static/experiments/beast_fmri_test/images/redT.png'></img>	go	2250.0	1.0	13.0	go	non-target	T	71,Index Finger	89,Middle Finger	450.0	500.0	2300.0	2250.0	0.0	500.0	0.0	n/a	ITI
285627	500.0	n/a	-1	-1	500	0.0	fixation	poldrack-single-stim	506	1395352	0.0-21.14-0.14	beast_fmri_test	330	1395189,/	t	<div class = centerbox2><div class = fixation>+</div></div>	none	500.0	test	n/a	n/a	n/a	n/a	n/a	n/a	n/a	n/a	n/a	n/a	n/a	n/a	n/a	n/a	n/a	n/a	n/a	n/a	fixation
285009.37119170604	450.0	n/a	-1	-1	2750	619.628808294	stim	stop-signal	507	1398104	0.0-21.14-1.14	beast_fmri_test	330	1395869,/,1396550,/,1397228,/,1397909,/,1398590,/	t,t,t,t,t	<img class = center src='/static/experiments/beast_fmri_test/images/T.png'></img>	71,89	2750.0	test	<img class = center src='/static/experiments/beast_fmri_test/images/redT.png'></img>	stop	2300.0	1.0	14.0	stop	target	T	71,Index Finger	89,Middle Finger	450.0	500.0	2300.0	2250.0	0.0	450.0	n/a	1.0	go_stim
287309.37119170604	2300.0	n/a	-1	-1	2750	619.628808294	stim	stop-signal	507	1398104	0.0-21.14-1.14	beast_fmri_test	330	1395869,/,1396550,/,1397228,/,1397909,/,1398590,/	t,t,t,t,t	<img class = center src='/static/experiments/beast_fmri_test/images/T.png'></img>	71,89	2750.0	test	<img class = center src='/static/experiments/beast_fmri_test/images/redT.png'></img>	stop	2300.0	1.0	14.0	stop	target	T	71,Index Finger	89,Middle Finger	450.0	500.0	2300.0	2250.0	0.0	450.0	n/a	1.0	stop_stim
287759.37119170604	619.628808294	n/a	-1	-1	2750	619.628808294	stim	stop-signal	507	1398104	0.0-21.14-1.14	beast_fmri_test	330	1395869,/,1396550,/,1397228,/,1397909,/,1398590,/	t,t,t,t,t	<img class = center src='/static/experiments/beast_fmri_test/images/T.png'></img>	71,89	2750.0	test	<img class = center src='/static/experiments/beast_fmri_test/images/redT.png'></img>	stop	2300.0	1.0	14.0	stop	target	T	71,Index Finger	89,Middle Finger	450.0	500.0	2300.0	2250.0	0.0	450.0	n/a	1.0	ITI
289551	500.0	n/a	-1	-1	500	0.0	fixation	poldrack-single-stim	508	1399276	0.0-21.15-0.15	beast_fmri_test	330	1399268,/	t	<div class = centerbox2><div class = fixation>+</div></div>	none	500.0	test	n/a	n/a	n/a	n/a	n/a	n/a	n/a	n/a	n/a	n/a	n/a	n/a	n/a	n/a	n/a	n/a	n/a	n/a	fixation
289233.4075167689	2750.0	n/a	526	71	2750	319.592483231	stim	stop-signal	509	1402028	0.0-21.15-1.15	beast_fmri_test	330	1399948,/,1400627,/,1401307,/,1401987,/	t,t,t,t	<img class = center src='/static/experiments/beast_fmri_test/images/P.png'></img>	71,89	2750.0	test	<img class = center src='/static/experiments/beast_fmri_test/images/redP.png'></img>	go	2250.0	1.0	15.0	go	non-target	P	71,Index Finger	89,Middle Finger	500.0	500.0	2300.0	2250.0	0.0	500.0	0.0	n/a	go_stim
291983.4075167689	319.592483231	n/a	526	71	2750	319.592483231	stim	stop-signal	509	1402028	0.0-21.15-1.15	beast_fmri_test	330	1399948,/,1400627,/,1401307,/,1401987,/	t,t,t,t	<img class = center src='/static/experiments/beast_fmri_test/images/P.png'></img>	71,89	2750.0	test	<img class = center src='/static/experiments/beast_fmri_test/images/redP.png'></img>	go	2250.0	1.0	15.0	go	non-target	P	71,Index Finger	89,Middle Finger	500.0	500.0	2300.0	2250.0	0.0	500.0	0.0	n/a	ITI
293180	500.0	n/a	-1	-1	500	0.0	fixation	poldrack-single-stim	510	1402905	0.0-21.16-0.16	beast_fmri_test	330	1402667,/	t	<div class = centerbox2><div class = fixation>+</div></div>	none	500.0	test	n/a	n/a	n/a	n/a	n/a	n/a	n/a	n/a	n/a	n/a	n/a	n/a	n/a	n/a	n/a	n/a	n/a	n/a	fixation
293059.94312651199	2750.0	n/a	1332	71	2750	123.056873488	stim	stop-signal	511	1405658	0.0-21.16-1.16	beast_fmri_test	330	1403348,/,1404026,/,1404706,/,1405386,/	t,t,t,t	<img class = center src='/static/experiments/beast_fmri_test/images/T.png'></img>	71,89	2750.0	test	<img class = center src='/static/experiments/beast_fmri_test/images/redT.png'></img>	go	2250.0	1.0	16.0	go	non-target	T	71,Index Finger	89,Middle Finger	500.0	500.0	2300.0	2250.0	0.0	500.0	0.0	n/a	go_stim
295809.94312651199	123.056873488	n/a	1332	71	2750	123.056873488	stim	stop-signal	511	1405658	0.0-21.16-1.16	beast_fmri_test	330	1403348,/,1404026,/,1404706,/,1405386,/	t,t,t,t	<img class = center src='/static/experiments/beast_fmri_test/images/T.png'></img>	71,89	2750.0	test	<img class = center src='/static/experiments/beast_fmri_test/images/redT.png'></img>	go	2250.0	1.0	16.0	go	non-target	T	71,Index Finger	89,Middle Finger	500.0	500.0	2300.0	2250.0	0.0	500.0	0.0	n/a	ITI
296612	500.0	n/a	-1	-1	500	0.0	fixation	poldrack-single-stim	512	1406337	0.0-21.17-0.17	beast_fmri_test	330	1406066,/	t	<div class = centerbox2><div class = fixation>+</div></div>	none	500.0	test	n/a	n/a	n/a	n/a	n/a	n/a	n/a	n/a	n/a	n/a	n/a	n/a	n/a	n/a	n/a	n/a	n/a	n/a	fixation
296363.56121269497	500.0	n/a	679	71	2750	249.438787305	stim	stop-signal	513	1409088	0.0-21.17-1.17	beast_fmri_test	330	1406744,/,1407425,/,1408105,/,1408785,/	t,t,t,t	<img class = center src='/static/experiments/beast_fmri_test/images/B.png'></img>	71,89	2750.0	test	<img class = center src='/static/experiments/beast_fmri_test/images/redB.png'></img>	stop	2250.0	1.0	17.0	stop	non-target	B	71,Index Finger	89,Middle Finger	500.0	500.0	2300.0	2250.0	0.0	500.0	n/a	0.0	go_stim
298613.56121269497	2250.0	n/a	679	71	2750	249.438787305	stim	stop-signal	513	1409088	0.0-21.17-1.17	beast_fmri_test	330	1406744,/,1407425,/,1408105,/,1408785,/	t,t,t,t	<img class = center src='/static/experiments/beast_fmri_test/images/B.png'></img>	71,89	2750.0	test	<img class = center src='/static/experiments/beast_fmri_test/images/redB.png'></img>	stop	2250.0	1.0	17.0	stop	non-target	B	71,Index Finger	89,Middle Finger	500.0	500.0	2300.0	2250.0	0.0	500.0	n/a	0.0	stop_stim
299113.56121269497	249.438787305	n/a	679	71	2750	249.438787305	stim	stop-signal	513	1409088	0.0-21.17-1.17	beast_fmri_test	330	1406744,/,1407425,/,1408105,/,1408785,/	t,t,t,t	<img class = center src='/static/experiments/beast_fmri_test/images/B.png'></img>	71,89	2750.0	test	<img class = center src='/static/experiments/beast_fmri_test/images/redB.png'></img>	stop	2250.0	1.0	17.0	stop	non-target	B	71,Index Finger	89,Middle Finger	500.0	500.0	2300.0	2250.0	0.0	500.0	n/a	0.0	ITI
300169	500.0	n/a	-1	-1	500	0.0	fixation	poldrack-single-stim	514	1409894	0.0-21.18-0.18	beast_fmri_test	330	1409464,/	t	<div class = centerbox2><div class = fixation>+</div></div>	none	500.0	test	n/a	n/a	n/a	n/a	n/a	n/a	n/a	n/a	n/a	n/a	n/a	n/a	n/a	n/a	n/a	n/a	n/a	n/a	fixation
299893.39830108383	2750.0	n/a	766	71	2750	277.601698916	stim	stop-signal	515	1412646	0.0-21.18-1.18	beast_fmri_test	330	1410144,/,1410824,/,1411503,/,1412181,/,1412861,/	t,t,t,t,t	<img class = center src='/static/experiments/beast_fmri_test/images/D.png'></img>	71,89	2750.0	test	<img class = center src='/static/experiments/beast_fmri_test/images/redD.png'></img>	go	2300.0	1.0	18.0	go	non-target	D	71,Index Finger	89,Middle Finger	500.0	450.0	2300.0	2300.0	0.0	450.0	0.0	n/a	go_stim
302643.39830108383	277.601698916	n/a	766	71	2750	277.601698916	stim	stop-signal	515	1412646	0.0-21.18-1.18	beast_fmri_test	330	1410144,/,1410824,/,1411503,/,1412181,/,1412861,/	t,t,t,t,t	<img class = center src='/static/experiments/beast_fmri_test/images/D.png'></img>	71,89	2750.0	test	<img class = center src='/static/experiments/beast_fmri_test/images/redD.png'></img>	go	2300.0	1.0	18.0	go	non-target	D	71,Index Finger	89,Middle Finger	500.0	450.0	2300.0	2300.0	0.0	450.0	0.0	n/a	ITI
303764	500.0	n/a	-1	-1	500	0.0	fixation	poldrack-single-stim	516	1413489	0.0-21.19-0.19	beast_fmri_test	330	n/a	n/a	<div class = centerbox2><div class = fixation>+</div></div>	none	500.0	test	n/a	n/a	n/a	n/a	n/a	n/a	n/a	n/a	n/a	n/a	n/a	n/a	n/a	n/a	n/a	n/a	n/a	n/a	fixation
302853.24565728381	450.0	n/a	-1	-1	2750	912.754342716	stim	stop-signal	517	1416241	0.0-21.19-1.19	beast_fmri_test	330	1413541,/,1414222,/,1414901,/,1415581,/,1416261,/,1416940,/	t,t,t,t,t,t	<img class = center src='/static/experiments/beast_fmri_test/images/B.png'></img>	71,89	2750.0	test	<img class = center src='/static/experiments/beast_fmri_test/images/redB.png'></img>	stop	2300.0	1.0	19.0	stop	non-target	B	71,Index Finger	89,Middle Finger	500.0	450.0	2300.0	2300.0	0.0	450.0	n/a	1.0	go_stim
305153.24565728381	2300.0	n/a	-1	-1	2750	912.754342716	stim	stop-signal	517	1416241	0.0-21.19-1.19	beast_fmri_test	330	1413541,/,1414222,/,1414901,/,1415581,/,1416261,/,1416940,/	t,t,t,t,t,t	<img class = center src='/static/experiments/beast_fmri_test/images/B.png'></img>	71,89	2750.0	test	<img class = center src='/static/experiments/beast_fmri_test/images/redB.png'></img>	stop	2300.0	1.0	19.0	stop	non-target	B	71,Index Finger	89,Middle Finger	500.0	450.0	2300.0	2300.0	0.0	450.0	n/a	1.0	stop_stim
305603.24565728381	912.754342716	n/a	-1	-1	2750	912.754342716	stim	stop-signal	517	1416241	0.0-21.19-1.19	beast_fmri_test	330	1413541,/,1414222,/,1414901,/,1415581,/,1416261,/,1416940,/	t,t,t,t,t,t	<img class = center src='/static/experiments/beast_fmri_test/images/B.png'></img>	71,89	2750.0	test	<img class = center src='/static/experiments/beast_fmri_test/images/redB.png'></img>	stop	2300.0	1.0	19.0	stop	non-target	B	71,Index Finger	89,Middle Finger	500.0	450.0	2300.0	2300.0	0.0	450.0	n/a	1.0	ITI
307990	500.0	n/a	-1	-1	500	0.0	fixation	poldrack-single-stim	518	1417715	0.0-21.20-0.20	beast_fmri_test	330	1417619,/	t	<div class = centerbox2><div class = fixation>+</div></div>	none	500.0	test	n/a	n/a	n/a	n/a	n/a	n/a	n/a	n/a	n/a	n/a	n/a	n/a	n/a	n/a	n/a	n/a	n/a	n/a	fixation
307865.41942674853	2750.0	n/a	883	71	2750	125.580573252	stim	stop-signal	519	1420466	0.0-21.20-1.20	beast_fmri_test	330	1418301,/,1418980,/,1419659,/,1420339,/	t,t,t,t	<img class = center src='/static/experiments/beast_fmri_test/images/D.png'></img>	71,89	2750.0	test	<img class = center src='/static/experiments/beast_fmri_test/images/redD.png'></img>	go	2250.0	1.0	20.0	go	non-target	D	71,Index Finger	89,Middle Finger	500.0	500.0	2300.0	2250.0	0.0	500.0	0.0	n/a	go_stim
310615.41942674853	125.580573252	n/a	883	71	2750	125.580573252	stim	stop-signal	519	1420466	0.0-21.20-1.20	beast_fmri_test	330	1418301,/,1418980,/,1419659,/,1420339,/	t,t,t,t	<img class = center src='/static/experiments/beast_fmri_test/images/D.png'></img>	71,89	2750.0	test	<img class = center src='/static/experiments/beast_fmri_test/images/redD.png'></img>	go	2250.0	1.0	20.0	go	non-target	D	71,Index Finger	89,Middle Finger	500.0	500.0	2300.0	2250.0	0.0	500.0	0.0	n/a	ITI
311428	500.0	n/a	-1	-1	500	0.0	fixation	poldrack-single-stim	520	1421153	0.0-21.21-0.21	beast_fmri_test	330	1421019,/	t	<div class = centerbox2><div class = fixation>+</div></div>	none	500.0	test	n/a	n/a	n/a	n/a	n/a	n/a	n/a	n/a	n/a	n/a	n/a	n/a	n/a	n/a	n/a	n/a	n/a	n/a	fixation
309476.73823302309	500.0	n/a	730	89	2750	1954.26176698	stim	stop-signal	521	1423906	0.0-21.21-1.21	beast_fmri_test	330	1421697,/,1422377,/,1423058,/,1423737,/,1424416,/,1425096,/,1425776,/	t,t,t,t,t,t,t	<img class = center src='/static/experiments/beast_fmri_test/images/D.png'></img>	71,89	2750.0	test	<img class = center src='/static/experiments/beast_fmri_test/images/redD.png'></img>	stop	2250.0	1.0	21.0	stop	target	D	71,Index Finger	89,Middle Finger	500.0	500.0	2250.0	2250.0	0.0	500.0	n/a	0.0	go_stim
311726.73823302309	2250.0	n/a	730	89	2750	1954.26176698	stim	stop-signal	521	1423906	0.0-21.21-1.21	beast_fmri_test	330	1421697,/,1422377,/,1423058,/,1423737,/,1424416,/,1425096,/,1425776,/	t,t,t,t,t,t,t	<img class = center src='/static/experiments/beast_fmri_test/images/D.png'></img>	71,89	2750.0	test	<img class = center src='/static/experiments/beast_fmri_test/images/redD.png'></img>	stop	2250.0	1.0	21.0	stop	target	D	71,Index Finger	89,Middle Finger	500.0	500.0	2250.0	2250.0	0.0	500.0	n/a	0.0	stop_stim
312226.73823302309	1954.26176698	n/a	730	89	2750	1954.26176698	stim	stop-signal	521	1423906	0.0-21.21-1.21	beast_fmri_test	330	1421697,/,1422377,/,1423058,/,1423737,/,1424416,/,1425096,/,1425776,/	t,t,t,t,t,t,t	<img class = center src='/static/experiments/beast_fmri_test/images/D.png'></img>	71,89	2750.0	test	<img class = center src='/static/experiments/beast_fmri_test/images/redD.png'></img>	stop	2250.0	1.0	21.0	stop	target	D	71,Index Finger	89,Middle Finger	500.0	500.0	2250.0	2250.0	0.0	500.0	n/a	0.0	ITI
316693	500.0	n/a	-1	-1	500	0.0	fixation	poldrack-single-stim	522	1426418	0.0-21.22-0.22	beast_fmri_test	330	n/a	n/a	<div class = centerbox2><div class = fixation>+</div></div>	none	500.0	test	n/a	n/a	n/a	n/a	n/a	n/a	n/a	n/a	n/a	n/a	n/a	n/a	n/a	n/a	n/a	n/a	n/a	n/a	fixation
316300.71683301451	2750.0	n/a	992	71	2750	392.283166985	stim	stop-signal	523	1429168	0.0-21.22-1.22	beast_fmri_test	330	1426459,/,1427136,/,1427816,/,1428497,/,1429176,/	t,t,t,t,t	<img class = center src='/static/experiments/beast_fmri_test/images/B.png'></img>	71,89	2750.0	test	<img class = center src='/static/experiments/beast_fmri_test/images/redB.png'></img>	go	2250.0	1.0	22.0	go	non-target	B	71,Index Finger	89,Middle Finger	450.0	500.0	2250.0	2250.0	0.0	500.0	0.0	n/a	go_stim
319050.71683301451	392.283166985	n/a	992	71	2750	392.283166985	stim	stop-signal	523	1429168	0.0-21.22-1.22	beast_fmri_test	330	1426459,/,1427136,/,1427816,/,1428497,/,1429176,/	t,t,t,t,t	<img class = center src='/static/experiments/beast_fmri_test/images/B.png'></img>	71,89	2750.0	test	<img class = center src='/static/experiments/beast_fmri_test/images/redB.png'></img>	go	2250.0	1.0	22.0	go	non-target	B	71,Index Finger	89,Middle Finger	450.0	500.0	2250.0	2250.0	0.0	500.0	0.0	n/a	ITI
320395	500.0	n/a	-1	-1	500	0.0	fixation	poldrack-single-stim	524	1430120	0.0-21.23-0.23	beast_fmri_test	330	1429855,/	t	<div class = centerbox2><div class = fixation>+</div></div>	none	500.0	test	n/a	n/a	n/a	n/a	n/a	n/a	n/a	n/a	n/a	n/a	n/a	n/a	n/a	n/a	n/a	n/a	n/a	n/a	fixation
