onset	duration	text	rt	key_press	block_duration	timing_post_trial	trial_id	trial_type	trial_index	time_elapsed	internal_node_id	exp_id	subject_id	trigger_times	triggers	stimulus	possible_responses	stim_duration	exp_stage	SS_stimulus	SS_trial_type	SS_duration	load	trial_num	stop_trial_type	adaptive_trial_type	stim	yes_response_key	no_response_key	SSD_target	SSD_non_target	SSTarget	SSNonTarget	go_acc	stop_acc	SS_delay	adaptive_acc	new_trial_type
test	10880	n/a	-1	-1	10880	0.0	practice-no-stop-feedback	poldrack-single-stim	394	1046260	0.0-18.0	beast_fmri_test	314	1035379,/,1036058,/,1036738,/,1037418,/,1038098,/,1038778,/,1039458,/,1040138,/,1040818,/,1041498,/,1042178,/,1042859,/,1043538,/,1044218,/,1044898,/,1045578,/,1046258,/	t,t,t,t,t,t,t,t,t,t,t,t,t,t,t,t,t	"<div class = ""centerbox""><p class = ""center-block-text"">Your delay is 3 trials.</p><p class = center-block-text>Please wait for the scanner to start the block</p></div>"	77	10880.0	n/a	n/a	n/a	n/a	n/a	n/a	n/a	n/a	n/a	n/a	n/a	n/a	n/a	n/a	n/a	n/a	n/a	n/a	n/a	start_functional_block
11381	500	n/a	-1	-1	500	0.0	fixation	poldrack-single-stim	395	1046760	0.0-19.0-0.0	beast_fmri_test	314	n/a	n/a	<div class = centerbox><div class = fixation>+</div></div>	none	500.0	test	n/a	n/a	n/a	n/a	n/a	n/a	n/a	n/a	n/a	n/a	n/a	n/a	n/a	n/a	n/a	n/a	n/a	n/a	fixation
10848.799737599911	2750	n/a	1220	89	2750	534.2002624	stim	stop-signal	396	1049512	0.0-19.0-1.0	beast_fmri_test	314	1046938,/,1047618,/,1048298,/,1048978,/,1049659,/	t,t,t,t,t	<img class = center src='/static/experiments/beast_fmri_test/images/T.png'></img>	71,89	2750.0	test	<img class = center src='/static/experiments/beast_fmri_test/images/redT.png'></img>	go	-1.0	3.0	0.0	go	temp-non-target	T	71,Green Button	89,Yellow Button	900.0	1200.0	1850.0	1550.0	0.0	n/a	n/a	n/a	go_stim
13598.799737599911	534.20026239999993	n/a	1220	89	2750	534.2002624	stim	stop-signal	396	1049512	0.0-19.0-1.0	beast_fmri_test	314	1046938,/,1047618,/,1048298,/,1048978,/,1049659,/	t,t,t,t,t	<img class = center src='/static/experiments/beast_fmri_test/images/T.png'></img>	71,89	2750.0	test	<img class = center src='/static/experiments/beast_fmri_test/images/redT.png'></img>	go	-1.0	3.0	0.0	go	temp-non-target	T	71,Green Button	89,Yellow Button	900.0	1200.0	1850.0	1550.0	0.0	n/a	n/a	n/a	ITI
15188	500	n/a	-1	-1	500	0.0	fixation	poldrack-single-stim	397	1050567	0.0-19.1-0.1	beast_fmri_test	314	1050339,/	t	<div class = centerbox><div class = fixation>+</div></div>	none	500.0	test	n/a	n/a	n/a	n/a	n/a	n/a	n/a	n/a	n/a	n/a	n/a	n/a	n/a	n/a	n/a	n/a	n/a	n/a	fixation
14507.145624799887	2750	n/a	658	89	2750	681.8543752	stim	stop-signal	398	1053318	0.0-19.1-1.1	beast_fmri_test	314	1051019,/,1051699,/,1052379,/,1053059,/,1053739,/	t,t,t,t,t	<img class = center src='/static/experiments/beast_fmri_test/images/P.png'></img>	71,89	2750.0	test	<img class = center src='/static/experiments/beast_fmri_test/images/redP.png'></img>	go	-1.0	3.0	1.0	go	temp-non-target	P	71,Green Button	89,Yellow Button	900.0	1200.0	1850.0	1550.0	0.0	n/a	n/a	n/a	go_stim
17257.145624799887	681.85437520000005	n/a	658	89	2750	681.8543752	stim	stop-signal	398	1053318	0.0-19.1-1.1	beast_fmri_test	314	1051019,/,1051699,/,1052379,/,1053059,/,1053739,/	t,t,t,t,t	<img class = center src='/static/experiments/beast_fmri_test/images/P.png'></img>	71,89	2750.0	test	<img class = center src='/static/experiments/beast_fmri_test/images/redP.png'></img>	go	-1.0	3.0	1.0	go	temp-non-target	P	71,Green Button	89,Yellow Button	900.0	1200.0	1850.0	1550.0	0.0	n/a	n/a	n/a	ITI
19143	500	n/a	-1	-1	500	0.0	fixation	poldrack-single-stim	399	1054522	0.0-19.2-0.2	beast_fmri_test	314	1054419,/	t	<div class = centerbox><div class = fixation>+</div></div>	none	500.0	test	n/a	n/a	n/a	n/a	n/a	n/a	n/a	n/a	n/a	n/a	n/a	n/a	n/a	n/a	n/a	n/a	n/a	n/a	fixation
17899.495553999906	2750	n/a	1787	89	2750	1244.504446	stim	stop-signal	400	1057273	0.0-19.2-1.2	beast_fmri_test	314	1055099,/,1055779,/,1056459,/,1057138,/,1057818,/,1058499,/	t,t,t,t,t,t	<img class = center src='/static/experiments/beast_fmri_test/images/B.png'></img>	71,89	2750.0	test	<img class = center src='/static/experiments/beast_fmri_test/images/redB.png'></img>	go	-1.0	3.0	2.0	go	temp-non-target	B	71,Green Button	89,Yellow Button	900.0	1200.0	1850.0	1550.0	0.0	n/a	n/a	n/a	go_stim
20649.495553999906	1244.5044460000001	n/a	1787	89	2750	1244.504446	stim	stop-signal	400	1057273	0.0-19.2-1.2	beast_fmri_test	314	1055099,/,1055779,/,1056459,/,1057138,/,1057818,/,1058499,/	t,t,t,t,t,t	<img class = center src='/static/experiments/beast_fmri_test/images/B.png'></img>	71,89	2750.0	test	<img class = center src='/static/experiments/beast_fmri_test/images/redB.png'></img>	go	-1.0	3.0	2.0	go	temp-non-target	B	71,Green Button	89,Yellow Button	900.0	1200.0	1850.0	1550.0	0.0	n/a	n/a	n/a	ITI
23656	500	n/a	-1	-1	500	0.0	fixation	poldrack-single-stim	401	1059035	0.0-19.3-0.3	beast_fmri_test	314	n/a	n/a	<div class = centerbox><div class = fixation>+</div></div>	none	500.0	test	n/a	n/a	n/a	n/a	n/a	n/a	n/a	n/a	n/a	n/a	n/a	n/a	n/a	n/a	n/a	n/a	n/a	n/a	fixation
23133.026237600017	2750	n/a	817	71	2750	524.9737624	stim	stop-signal	402	1061787	0.0-19.3-1.3	beast_fmri_test	314	1059178,/,1059858,/,1060538,/,1061218,/,1061898,/	t,t,t,t,t	<img class = center src='/static/experiments/beast_fmri_test/images/T.png'></img>	71,89	2750.0	test	<img class = center src='/static/experiments/beast_fmri_test/images/redT.png'></img>	go	1850.0	3.0	3.0	go	target	T	71,Green Button	89,Yellow Button	900.0	1200.0	1850.0	1550.0	1.0	n/a	900.0	1.0	go_stim
25883.026237600017	524.97376239999994	n/a	817	71	2750	524.9737624	stim	stop-signal	402	1061787	0.0-19.3-1.3	beast_fmri_test	314	1059178,/,1059858,/,1060538,/,1061218,/,1061898,/	t,t,t,t,t	<img class = center src='/static/experiments/beast_fmri_test/images/T.png'></img>	71,89	2750.0	test	<img class = center src='/static/experiments/beast_fmri_test/images/redT.png'></img>	go	1850.0	3.0	3.0	go	target	T	71,Green Button	89,Yellow Button	900.0	1200.0	1850.0	1550.0	1.0	n/a	900.0	1.0	ITI
27450	500	n/a	-1	-1	500	0.0	fixation	poldrack-single-stim	403	1062829	0.0-19.4-0.4	beast_fmri_test	314	1062578,/	t	<div class = centerbox><div class = fixation>+</div></div>	none	500.0	test	n/a	n/a	n/a	n/a	n/a	n/a	n/a	n/a	n/a	n/a	n/a	n/a	n/a	n/a	n/a	n/a	n/a	n/a	fixation
25441.886230000062	2750	n/a	1252	89	2750	2009.11377	stim	stop-signal	404	1065580	0.0-19.4-1.4	beast_fmri_test	314	1063259,/,1063938,/,1064618,/,1065298,/,1065978,/,1066658,/,1067338,/	t,t,t,t,t,t,t	<img class = center src='/static/experiments/beast_fmri_test/images/B.png'></img>	71,89	2750.0	test	<img class = center src='/static/experiments/beast_fmri_test/images/redB.png'></img>	go	1550.0	3.0	4.0	go	non-target	B	71,Green Button	89,Yellow Button	900.0	1200.0	1850.0	1550.0	1.0	n/a	1200.0	1.0	go_stim
28191.886230000062	2009.1137699999999	n/a	1252	89	2750	2009.11377	stim	stop-signal	404	1065580	0.0-19.4-1.4	beast_fmri_test	314	1063259,/,1063938,/,1064618,/,1065298,/,1065978,/,1066658,/,1067338,/	t,t,t,t,t,t,t	<img class = center src='/static/experiments/beast_fmri_test/images/B.png'></img>	71,89	2750.0	test	<img class = center src='/static/experiments/beast_fmri_test/images/redB.png'></img>	go	1550.0	3.0	4.0	go	non-target	B	71,Green Button	89,Yellow Button	900.0	1200.0	1850.0	1550.0	1.0	n/a	1200.0	1.0	ITI
32731	500	n/a	-1	-1	500	0.0	fixation	poldrack-single-stim	405	1068110	0.0-19.5-0.5	beast_fmri_test	314	1068018,/	t	<div class = centerbox><div class = fixation>+</div></div>	none	500.0	test	n/a	n/a	n/a	n/a	n/a	n/a	n/a	n/a	n/a	n/a	n/a	n/a	n/a	n/a	n/a	n/a	n/a	n/a	fixation
32495.526729499921	2750	n/a	1214	89	2750	237.4732705	stim	stop-signal	406	1070862	0.0-19.5-1.5	beast_fmri_test	314	1068699,/,1069378,/,1070058,/,1070738,/	t,t,t,t	<img class = center src='/static/experiments/beast_fmri_test/images/P.png'></img>	71,89	2750.0	test	<img class = center src='/static/experiments/beast_fmri_test/images/redP.png'></img>	go	1550.0	3.0	5.0	go	non-target	P	71,Green Button	89,Yellow Button	900.0	1200.0	1850.0	1550.0	1.0	n/a	1200.0	1.0	go_stim
35245.526729499921	237.47327050000001	n/a	1214	89	2750	237.4732705	stim	stop-signal	406	1070862	0.0-19.5-1.5	beast_fmri_test	314	1068699,/,1069378,/,1070058,/,1070738,/	t,t,t,t	<img class = center src='/static/experiments/beast_fmri_test/images/P.png'></img>	71,89	2750.0	test	<img class = center src='/static/experiments/beast_fmri_test/images/redP.png'></img>	go	1550.0	3.0	5.0	go	non-target	P	71,Green Button	89,Yellow Button	900.0	1200.0	1850.0	1550.0	1.0	n/a	1200.0	1.0	ITI
36242	500	n/a	-1	-1	500	0.0	fixation	poldrack-single-stim	407	1071621	0.0-19.6-0.6	beast_fmri_test	314	1071418,/	t	<div class = centerbox><div class = fixation>+</div></div>	none	500.0	test	n/a	n/a	n/a	n/a	n/a	n/a	n/a	n/a	n/a	n/a	n/a	n/a	n/a	n/a	n/a	n/a	n/a	n/a	fixation
32507.981829999946	2750	n/a	1740	89	2750	3737.01817	stim	stop-signal	408	1074374	0.0-19.6-1.6	beast_fmri_test	314	1072098,/,1072778,/,1073458,/,1074138,/,1074818,/,1075498,/,1076178,/,1076858,/,1077538,/	t,t,t,t,t,t,t,t,t	<img class = center src='/static/experiments/beast_fmri_test/images/D.png'></img>	71,89	2750.0	test	<img class = center src='/static/experiments/beast_fmri_test/images/redD.png'></img>	go	1550.0	3.0	6.0	go	non-target	D	71,Green Button	89,Yellow Button	900.0	1200.0	1850.0	1550.0	1.0	n/a	1200.0	1.0	go_stim
35257.981829999946	3737.0181700000003	n/a	1740	89	2750	3737.01817	stim	stop-signal	408	1074374	0.0-19.6-1.6	beast_fmri_test	314	1072098,/,1072778,/,1073458,/,1074138,/,1074818,/,1075498,/,1076178,/,1076858,/,1077538,/	t,t,t,t,t,t,t,t,t	<img class = center src='/static/experiments/beast_fmri_test/images/D.png'></img>	71,89	2750.0	test	<img class = center src='/static/experiments/beast_fmri_test/images/redD.png'></img>	go	1550.0	3.0	6.0	go	non-target	D	71,Green Button	89,Yellow Button	900.0	1200.0	1850.0	1550.0	1.0	n/a	1200.0	1.0	ITI
43250	500	n/a	-1	-1	500	0.0	fixation	poldrack-single-stim	409	1078629	0.0-19.7-0.7	beast_fmri_test	314	1078218,/	t	<div class = centerbox><div class = fixation>+</div></div>	none	500.0	test	n/a	n/a	n/a	n/a	n/a	n/a	n/a	n/a	n/a	n/a	n/a	n/a	n/a	n/a	n/a	n/a	n/a	n/a	fixation
41799.365613000002	1200.0	n/a	1492	89	2750	1452.634387	stim	stop-signal	410	1081381	0.0-19.7-1.7	beast_fmri_test	314	1078898,/,1079578,/,1080258,/,1080938,/,1081618,/,1082298,/	t,t,t,t,t,t	<img class = center src='/static/experiments/beast_fmri_test/images/D.png'></img>	71,89	2750.0	test	<img class = center src='/static/experiments/beast_fmri_test/images/redD.png'></img>	stop	1550.0	3.0	7.0	stop	non-target	D	71,Green Button	89,Yellow Button	900.0	1200.0	1850.0	1550.0	0.0	0.0	1200.0	1.0	go_stim
43349.365613000002	1550.0	n/a	1492	89	2750	1452.634387	stim	stop-signal	410	1081381	0.0-19.7-1.7	beast_fmri_test	314	1078898,/,1079578,/,1080258,/,1080938,/,1081618,/,1082298,/	t,t,t,t,t,t	<img class = center src='/static/experiments/beast_fmri_test/images/D.png'></img>	71,89	2750.0	test	<img class = center src='/static/experiments/beast_fmri_test/images/redD.png'></img>	stop	1550.0	3.0	7.0	stop	non-target	D	71,Green Button	89,Yellow Button	900.0	1200.0	1850.0	1550.0	0.0	0.0	1200.0	1.0	stop_stim
44549.365613000002	1452.6343869999998	n/a	1492	89	2750	1452.634387	stim	stop-signal	410	1081381	0.0-19.7-1.7	beast_fmri_test	314	1078898,/,1079578,/,1080258,/,1080938,/,1081618,/,1082298,/	t,t,t,t,t,t	<img class = center src='/static/experiments/beast_fmri_test/images/D.png'></img>	71,89	2750.0	test	<img class = center src='/static/experiments/beast_fmri_test/images/redD.png'></img>	stop	1550.0	3.0	7.0	stop	non-target	D	71,Green Button	89,Yellow Button	900.0	1200.0	1850.0	1550.0	0.0	0.0	1200.0	1.0	ITI
47972	500	n/a	-1	-1	500	0.0	fixation	poldrack-single-stim	411	1083351	0.0-19.8-0.8	beast_fmri_test	314	1082979,/	t	<div class = centerbox><div class = fixation>+</div></div>	none	500.0	test	n/a	n/a	n/a	n/a	n/a	n/a	n/a	n/a	n/a	n/a	n/a	n/a	n/a	n/a	n/a	n/a	n/a	n/a	fixation
47796.450977100059	2750	n/a	-1	-1	2750	176.5490229	stim	stop-signal	412	1086102	0.0-19.8-1.8	beast_fmri_test	314	1083660,/,1084339,/,1085019,/,1085699,/	t,t,t,t	<img class = center src='/static/experiments/beast_fmri_test/images/P.png'></img>	71,89	2750.0	test	<img class = center src='/static/experiments/beast_fmri_test/images/redP.png'></img>	go	1850.0	3.0	8.0	go	target	P	71,Green Button	89,Yellow Button	900.0	1150.0	1850.0	1550.0	0.0	n/a	900.0	0.0	go_stim
50546.450977100059	176.54902290000001	n/a	-1	-1	2750	176.5490229	stim	stop-signal	412	1086102	0.0-19.8-1.8	beast_fmri_test	314	1083660,/,1084339,/,1085019,/,1085699,/	t,t,t,t	<img class = center src='/static/experiments/beast_fmri_test/images/P.png'></img>	71,89	2750.0	test	<img class = center src='/static/experiments/beast_fmri_test/images/redP.png'></img>	go	1850.0	3.0	8.0	go	target	P	71,Green Button	89,Yellow Button	900.0	1150.0	1850.0	1550.0	0.0	n/a	900.0	0.0	ITI
51418	500	n/a	-1	-1	500	0.0	fixation	poldrack-single-stim	413	1086797	0.0-19.9-0.9	beast_fmri_test	314	1086379,/	t	<div class = centerbox><div class = fixation>+</div></div>	none	500.0	test	n/a	n/a	n/a	n/a	n/a	n/a	n/a	n/a	n/a	n/a	n/a	n/a	n/a	n/a	n/a	n/a	n/a	n/a	fixation
51246.065647199983	1150.0	n/a	1351	89	2750	172.9343528	stim	stop-signal	414	1089548	0.0-19.9-1.9	beast_fmri_test	314	1087059,/,1087739,/,1088418,/,1089099,/	t,t,t,t	<img class = center src='/static/experiments/beast_fmri_test/images/P.png'></img>	71,89	2750.0	test	<img class = center src='/static/experiments/beast_fmri_test/images/redP.png'></img>	stop	1600.0	3.0	9.0	stop	non-target	P	71,Green Button	89,Yellow Button	900.0	1150.0	1850.0	1600.0	0.0	0.0	1150.0	1.0	go_stim
52846.065647199983	1600.0	n/a	1351	89	2750	172.9343528	stim	stop-signal	414	1089548	0.0-19.9-1.9	beast_fmri_test	314	1087059,/,1087739,/,1088418,/,1089099,/	t,t,t,t	<img class = center src='/static/experiments/beast_fmri_test/images/P.png'></img>	71,89	2750.0	test	<img class = center src='/static/experiments/beast_fmri_test/images/redP.png'></img>	stop	1600.0	3.0	9.0	stop	non-target	P	71,Green Button	89,Yellow Button	900.0	1150.0	1850.0	1600.0	0.0	0.0	1150.0	1.0	stop_stim
53996.065647199983	172.93435280000003	n/a	1351	89	2750	172.9343528	stim	stop-signal	414	1089548	0.0-19.9-1.9	beast_fmri_test	314	1087059,/,1087739,/,1088418,/,1089099,/	t,t,t,t	<img class = center src='/static/experiments/beast_fmri_test/images/P.png'></img>	71,89	2750.0	test	<img class = center src='/static/experiments/beast_fmri_test/images/redP.png'></img>	stop	1600.0	3.0	9.0	stop	non-target	P	71,Green Button	89,Yellow Button	900.0	1150.0	1850.0	1600.0	0.0	0.0	1150.0	1.0	ITI
54860	500	n/a	-1	-1	500	0.0	fixation	poldrack-single-stim	415	1090239	0.0-19.10-0.10	beast_fmri_test	314	1089778,/	t	<div class = centerbox><div class = fixation>+</div></div>	none	500.0	test	n/a	n/a	n/a	n/a	n/a	n/a	n/a	n/a	n/a	n/a	n/a	n/a	n/a	n/a	n/a	n/a	n/a	n/a	fixation
54213.095869600074	2750	n/a	1296	89	2750	647.9041304	stim	stop-signal	416	1092990	0.0-19.10-1.10	beast_fmri_test	314	1090459,/,1091139,/,1091818,/,1092499,/,1093178,/	t,t,t,t,t	<img class = center src='/static/experiments/beast_fmri_test/images/V.png'></img>	71,89	2750.0	test	<img class = center src='/static/experiments/beast_fmri_test/images/redV.png'></img>	go	1650.0	3.0	10.0	go	non-target	V	71,Green Button	89,Yellow Button	900.0	1100.0	1850.0	1650.0	1.0	n/a	1100.0	1.0	go_stim
56963.095869600074	647.90413039999999	n/a	1296	89	2750	647.9041304	stim	stop-signal	416	1092990	0.0-19.10-1.10	beast_fmri_test	314	1090459,/,1091139,/,1091818,/,1092499,/,1093178,/	t,t,t,t,t	<img class = center src='/static/experiments/beast_fmri_test/images/V.png'></img>	71,89	2750.0	test	<img class = center src='/static/experiments/beast_fmri_test/images/redV.png'></img>	go	1650.0	3.0	10.0	go	non-target	V	71,Green Button	89,Yellow Button	900.0	1100.0	1850.0	1650.0	1.0	n/a	1100.0	1.0	ITI
58780	500	n/a	-1	-1	500	0.0	fixation	poldrack-single-stim	417	1094159	0.0-19.11-0.11	beast_fmri_test	314	1093859,/	t	<div class = centerbox><div class = fixation>+</div></div>	none	500.0	test	n/a	n/a	n/a	n/a	n/a	n/a	n/a	n/a	n/a	n/a	n/a	n/a	n/a	n/a	n/a	n/a	n/a	n/a	fixation
57106.314593000105	2750	n/a	2065	89	2750	1674.685407	stim	stop-signal	418	1096910	0.0-19.11-1.11	beast_fmri_test	314	1094539,/,1095218,/,1095898,/,1096578,/,1097259,/,1097938,/	t,t,t,t,t,t	<img class = center src='/static/experiments/beast_fmri_test/images/T.png'></img>	71,89	2750.0	test	<img class = center src='/static/experiments/beast_fmri_test/images/redT.png'></img>	go	1650.0	3.0	11.0	go	non-target	T	71,Green Button	89,Yellow Button	900.0	1100.0	1850.0	1650.0	1.0	n/a	1100.0	1.0	go_stim
59856.314593000105	1674.6854069999999	n/a	2065	89	2750	1674.685407	stim	stop-signal	418	1096910	0.0-19.11-1.11	beast_fmri_test	314	1094539,/,1095218,/,1095898,/,1096578,/,1097259,/,1097938,/	t,t,t,t,t,t	<img class = center src='/static/experiments/beast_fmri_test/images/T.png'></img>	71,89	2750.0	test	<img class = center src='/static/experiments/beast_fmri_test/images/redT.png'></img>	go	1650.0	3.0	11.0	go	non-target	T	71,Green Button	89,Yellow Button	900.0	1100.0	1850.0	1650.0	1.0	n/a	1100.0	1.0	ITI
63726	500	n/a	-1	-1	500	0.0	fixation	poldrack-single-stim	419	1099105	0.0-19.12-0.12	beast_fmri_test	314	1098618,/	t	<div class = centerbox><div class = fixation>+</div></div>	none	500.0	test	n/a	n/a	n/a	n/a	n/a	n/a	n/a	n/a	n/a	n/a	n/a	n/a	n/a	n/a	n/a	n/a	n/a	n/a	fixation
63453.415485000005	2750	n/a	-1	-1	2750	273.584515	stim	stop-signal	420	1101856	0.0-19.12-1.12	beast_fmri_test	314	1099298,/,1099979,/,1100658,/,1101338,/,1102018,/	t,t,t,t,t	<img class = center src='/static/experiments/beast_fmri_test/images/T.png'></img>	71,89	2750.0	test	<img class = center src='/static/experiments/beast_fmri_test/images/redT.png'></img>	go	1650.0	3.0	12.0	go	non-target	T	71,Green Button	89,Yellow Button	900.0	1100.0	1850.0	1650.0	0.0	n/a	1100.0	0.0	go_stim
66203.415485000005	273.58451500000001	n/a	-1	-1	2750	273.584515	stim	stop-signal	420	1101856	0.0-19.12-1.12	beast_fmri_test	314	1099298,/,1099979,/,1100658,/,1101338,/,1102018,/	t,t,t,t,t	<img class = center src='/static/experiments/beast_fmri_test/images/T.png'></img>	71,89	2750.0	test	<img class = center src='/static/experiments/beast_fmri_test/images/redT.png'></img>	go	1650.0	3.0	12.0	go	non-target	T	71,Green Button	89,Yellow Button	900.0	1100.0	1850.0	1650.0	0.0	n/a	1100.0	0.0	ITI
67271	500	n/a	-1	-1	500	0.0	fixation	poldrack-single-stim	421	1102650	0.0-19.13-0.13	beast_fmri_test	314	n/a	n/a	<div class = centerbox><div class = fixation>+</div></div>	none	500.0	test	n/a	n/a	n/a	n/a	n/a	n/a	n/a	n/a	n/a	n/a	n/a	n/a	n/a	n/a	n/a	n/a	n/a	n/a	fixation
64610.775991000002	900.0	n/a	1226	89	2750	2661.224009	stim	stop-signal	422	1105401	0.0-19.13-1.13	beast_fmri_test	314	1102699,/,1103378,/,1104058,/,1104738,/,1105418,/,1106098,/,1106778,/,1107458,/	t,t,t,t,t,t,t,t	<img class = center src='/static/experiments/beast_fmri_test/images/V.png'></img>	71,89	2750.0	test	<img class = center src='/static/experiments/beast_fmri_test/images/redV.png'></img>	stop	1850.0	3.0	13.0	stop	target	V	71,Green Button	89,Yellow Button	900.0	1100.0	1850.0	1650.0	0.0	0.0	900.0	0.0	go_stim
66460.775991000002	1850.0	n/a	1226	89	2750	2661.224009	stim	stop-signal	422	1105401	0.0-19.13-1.13	beast_fmri_test	314	1102699,/,1103378,/,1104058,/,1104738,/,1105418,/,1106098,/,1106778,/,1107458,/	t,t,t,t,t,t,t,t	<img class = center src='/static/experiments/beast_fmri_test/images/V.png'></img>	71,89	2750.0	test	<img class = center src='/static/experiments/beast_fmri_test/images/redV.png'></img>	stop	1850.0	3.0	13.0	stop	target	V	71,Green Button	89,Yellow Button	900.0	1100.0	1850.0	1650.0	0.0	0.0	900.0	0.0	stop_stim
67360.775991000002	2661.224009	n/a	1226	89	2750	2661.224009	stim	stop-signal	422	1105401	0.0-19.13-1.13	beast_fmri_test	314	1102699,/,1103378,/,1104058,/,1104738,/,1105418,/,1106098,/,1106778,/,1107458,/	t,t,t,t,t,t,t,t	<img class = center src='/static/experiments/beast_fmri_test/images/V.png'></img>	71,89	2750.0	test	<img class = center src='/static/experiments/beast_fmri_test/images/redV.png'></img>	stop	1850.0	3.0	13.0	stop	target	V	71,Green Button	89,Yellow Button	900.0	1100.0	1850.0	1650.0	0.0	0.0	900.0	0.0	ITI
73202	500	n/a	-1	-1	500	0.0	fixation	poldrack-single-stim	423	1108581	0.0-19.14-0.14	beast_fmri_test	314	1108138,/	t	<div class = centerbox><div class = fixation>+</div></div>	none	500.0	test	n/a	n/a	n/a	n/a	n/a	n/a	n/a	n/a	n/a	n/a	n/a	n/a	n/a	n/a	n/a	n/a	n/a	n/a	fixation
72925.241276999936	2750	n/a	1057	89	2750	278.758723	stim	stop-signal	424	1111333	0.0-19.14-1.14	beast_fmri_test	314	1108818,/,1109498,/,1110178,/,1110858,/,1111538,/	t,t,t,t,t	<img class = center src='/static/experiments/beast_fmri_test/images/D.png'></img>	71,89	2750.0	test	<img class = center src='/static/experiments/beast_fmri_test/images/redD.png'></img>	go	1650.0	3.0	14.0	go	non-target	D	71,Green Button	89,Yellow Button	850.0	1100.0	1850.0	1650.0	1.0	n/a	1100.0	1.0	go_stim
75675.241276999936	278.75872299999997	n/a	1057	89	2750	278.758723	stim	stop-signal	424	1111333	0.0-19.14-1.14	beast_fmri_test	314	1108818,/,1109498,/,1110178,/,1110858,/,1111538,/	t,t,t,t,t	<img class = center src='/static/experiments/beast_fmri_test/images/D.png'></img>	71,89	2750.0	test	<img class = center src='/static/experiments/beast_fmri_test/images/redD.png'></img>	go	1650.0	3.0	14.0	go	non-target	D	71,Green Button	89,Yellow Button	850.0	1100.0	1850.0	1650.0	1.0	n/a	1100.0	1.0	ITI
76750	500	n/a	-1	-1	500	0.0	fixation	poldrack-single-stim	425	1112129	0.0-19.15-0.15	beast_fmri_test	314	n/a	n/a	<div class = centerbox><div class = fixation>+</div></div>	none	500.0	test	n/a	n/a	n/a	n/a	n/a	n/a	n/a	n/a	n/a	n/a	n/a	n/a	n/a	n/a	n/a	n/a	n/a	n/a	fixation
76594.111633300083	1100.0	n/a	-1	-1	2750	156.8883667	stim	stop-signal	426	1114880	0.0-19.15-1.15	beast_fmri_test	314	1112218,/,1112898,/,1113578,/,1114258,/,1114939,/	t,t,t,t,t	<img class = center src='/static/experiments/beast_fmri_test/images/V.png'></img>	71,89	2750.0	test	<img class = center src='/static/experiments/beast_fmri_test/images/redV.png'></img>	stop	1650.0	3.0	15.0	stop	non-target	V	71,Green Button	89,Yellow Button	850.0	1100.0	1850.0	1650.0	0.0	1.0	1100.0	0.0	go_stim
78244.111633300083	1650.0	n/a	-1	-1	2750	156.8883667	stim	stop-signal	426	1114880	0.0-19.15-1.15	beast_fmri_test	314	1112218,/,1112898,/,1113578,/,1114258,/,1114939,/	t,t,t,t,t	<img class = center src='/static/experiments/beast_fmri_test/images/V.png'></img>	71,89	2750.0	test	<img class = center src='/static/experiments/beast_fmri_test/images/redV.png'></img>	stop	1650.0	3.0	15.0	stop	non-target	V	71,Green Button	89,Yellow Button	850.0	1100.0	1850.0	1650.0	0.0	1.0	1100.0	0.0	stop_stim
79344.111633300083	156.88836669999998	n/a	-1	-1	2750	156.8883667	stim	stop-signal	426	1114880	0.0-19.15-1.15	beast_fmri_test	314	1112218,/,1112898,/,1113578,/,1114258,/,1114939,/	t,t,t,t,t	<img class = center src='/static/experiments/beast_fmri_test/images/V.png'></img>	71,89	2750.0	test	<img class = center src='/static/experiments/beast_fmri_test/images/redV.png'></img>	stop	1650.0	3.0	15.0	stop	non-target	V	71,Green Button	89,Yellow Button	850.0	1100.0	1850.0	1650.0	0.0	1.0	1100.0	0.0	ITI
80173	500	n/a	-1	-1	500	0.0	fixation	poldrack-single-stim	427	1115552	0.0-19.16-0.16	beast_fmri_test	314	n/a	n/a	<div class = centerbox><div class = fixation>+</div></div>	none	500.0	test	n/a	n/a	n/a	n/a	n/a	n/a	n/a	n/a	n/a	n/a	n/a	n/a	n/a	n/a	n/a	n/a	n/a	n/a	fixation
80070.766385300085	850.0	n/a	-1	-1	2750	104.2336147	stim	stop-signal	428	1118304	0.0-19.16-1.16	beast_fmri_test	314	1115618,/,1116299,/,1116979,/,1117659,/,1118339,/	t,t,t,t,t	<img class = center src='/static/experiments/beast_fmri_test/images/V.png'></img>	71,89	2750.0	test	<img class = center src='/static/experiments/beast_fmri_test/images/redV.png'></img>	stop	1900.0	3.0	16.0	stop	target	V	71,Green Button	89,Yellow Button	850.0	1150.0	1900.0	1650.0	0.0	1.0	850.0	0.0	go_stim
81970.766385300085	1900.0	n/a	-1	-1	2750	104.2336147	stim	stop-signal	428	1118304	0.0-19.16-1.16	beast_fmri_test	314	1115618,/,1116299,/,1116979,/,1117659,/,1118339,/	t,t,t,t,t	<img class = center src='/static/experiments/beast_fmri_test/images/V.png'></img>	71,89	2750.0	test	<img class = center src='/static/experiments/beast_fmri_test/images/redV.png'></img>	stop	1900.0	3.0	16.0	stop	target	V	71,Green Button	89,Yellow Button	850.0	1150.0	1900.0	1650.0	0.0	1.0	850.0	0.0	stop_stim
82820.766385300085	104.2336147	n/a	-1	-1	2750	104.2336147	stim	stop-signal	428	1118304	0.0-19.16-1.16	beast_fmri_test	314	1115618,/,1116299,/,1116979,/,1117659,/,1118339,/	t,t,t,t,t	<img class = center src='/static/experiments/beast_fmri_test/images/V.png'></img>	71,89	2750.0	test	<img class = center src='/static/experiments/beast_fmri_test/images/redV.png'></img>	stop	1900.0	3.0	16.0	stop	target	V	71,Green Button	89,Yellow Button	850.0	1150.0	1900.0	1650.0	0.0	1.0	850.0	0.0	ITI
83547	500	n/a	-1	-1	500	0.0	fixation	poldrack-single-stim	429	1118926	0.0-19.17-0.17	beast_fmri_test	314	n/a	n/a	<div class = centerbox><div class = fixation>+</div></div>	none	500.0	test	n/a	n/a	n/a	n/a	n/a	n/a	n/a	n/a	n/a	n/a	n/a	n/a	n/a	n/a	n/a	n/a	n/a	n/a	fixation
83418.460552300094	2750	n/a	2491	71	2750	129.5394477	stim	stop-signal	430	1121677	0.0-19.17-1.17	beast_fmri_test	314	1119019,/,1119699,/,1120379,/,1121059,/,1121738,/	t,t,t,t,t	<img class = center src='/static/experiments/beast_fmri_test/images/V.png'></img>	71,89	2750.0	test	<img class = center src='/static/experiments/beast_fmri_test/images/redV.png'></img>	go	1600.0	3.0	17.0	go	non-target	V	71,Green Button	89,Yellow Button	900.0	1150.0	1900.0	1600.0	0.0	n/a	1150.0	0.0	go_stim
86168.460552300094	129.53944769999998	n/a	2491	71	2750	129.5394477	stim	stop-signal	430	1121677	0.0-19.17-1.17	beast_fmri_test	314	1119019,/,1119699,/,1120379,/,1121059,/,1121738,/	t,t,t,t,t	<img class = center src='/static/experiments/beast_fmri_test/images/V.png'></img>	71,89	2750.0	test	<img class = center src='/static/experiments/beast_fmri_test/images/redV.png'></img>	go	1600.0	3.0	17.0	go	non-target	V	71,Green Button	89,Yellow Button	900.0	1150.0	1900.0	1600.0	0.0	n/a	1150.0	0.0	ITI
86948	500	n/a	-1	-1	500	0.0	fixation	poldrack-single-stim	431	1122327	0.0-19.18-0.18	beast_fmri_test	314	n/a	n/a	<div class = centerbox><div class = fixation>+</div></div>	none	500.0	test	n/a	n/a	n/a	n/a	n/a	n/a	n/a	n/a	n/a	n/a	n/a	n/a	n/a	n/a	n/a	n/a	n/a	n/a	fixation
82000.175726999994	2750	n/a	2594	71	2750	4949.824273	stim	stop-signal	432	1125079	0.0-19.18-1.18	beast_fmri_test	314	1122419,/,1123099,/,1123779,/,1124460,/,1125139,/,1125819,/,1126498,/,1127180,/,1127859,/,1128538,/,1129218,/,1129898,/	t,t,t,t,t,t,t,t,t,t,t,t	<img class = center src='/static/experiments/beast_fmri_test/images/V.png'></img>	71,89	2750.0	test	<img class = center src='/static/experiments/beast_fmri_test/images/redV.png'></img>	go	1850.0	3.0	18.0	go	target	V	71,Green Button	89,Yellow Button	900.0	1150.0	1850.0	1600.0	1.0	n/a	900.0	1.0	go_stim
84750.175726999994	4949.8242729999993	n/a	2594	71	2750	4949.824273	stim	stop-signal	432	1125079	0.0-19.18-1.18	beast_fmri_test	314	1122419,/,1123099,/,1123779,/,1124460,/,1125139,/,1125819,/,1126498,/,1127180,/,1127859,/,1128538,/,1129218,/,1129898,/	t,t,t,t,t,t,t,t,t,t,t,t	<img class = center src='/static/experiments/beast_fmri_test/images/V.png'></img>	71,89	2750.0	test	<img class = center src='/static/experiments/beast_fmri_test/images/redV.png'></img>	go	1850.0	3.0	18.0	go	target	V	71,Green Button	89,Yellow Button	900.0	1150.0	1850.0	1600.0	1.0	n/a	900.0	1.0	ITI
95169	500	n/a	-1	-1	500	0.0	fixation	poldrack-single-stim	433	1130548	0.0-19.19-0.19	beast_fmri_test	314	n/a	n/a	<div class = centerbox><div class = fixation>+</div></div>	none	500.0	test	n/a	n/a	n/a	n/a	n/a	n/a	n/a	n/a	n/a	n/a	n/a	n/a	n/a	n/a	n/a	n/a	n/a	n/a	fixation
91616.076009999961	2750	n/a	1200	71	2750	3553.92399	stim	stop-signal	434	1133299	0.0-19.19-1.19	beast_fmri_test	314	1130579,/,1131258,/,1131938,/,1132618,/,1133299,/,1133978,/,1134659,/,1135338,/,1136018,/,1136698,/	t,t,t,t,t,t,t,t,t,t	<img class = center src='/static/experiments/beast_fmri_test/images/V.png'></img>	71,89	2750.0	test	<img class = center src='/static/experiments/beast_fmri_test/images/redV.png'></img>	go	1850.0	3.0	19.0	go	target	V	71,Green Button	89,Yellow Button	900.0	1150.0	1850.0	1600.0	1.0	n/a	900.0	1.0	go_stim
94366.076009999961	3553.9239899999998	n/a	1200	71	2750	3553.92399	stim	stop-signal	434	1133299	0.0-19.19-1.19	beast_fmri_test	314	1130579,/,1131258,/,1131938,/,1132618,/,1133299,/,1133978,/,1134659,/,1135338,/,1136018,/,1136698,/	t,t,t,t,t,t,t,t,t,t	<img class = center src='/static/experiments/beast_fmri_test/images/V.png'></img>	71,89	2750.0	test	<img class = center src='/static/experiments/beast_fmri_test/images/redV.png'></img>	go	1850.0	3.0	19.0	go	target	V	71,Green Button	89,Yellow Button	900.0	1150.0	1850.0	1600.0	1.0	n/a	900.0	1.0	ITI
101994	500	n/a	-1	-1	500	0.0	fixation	poldrack-single-stim	435	1137373	0.0-19.20-0.20	beast_fmri_test	314	n/a	n/a	<div class = centerbox><div class = fixation>+</div></div>	none	500.0	test	n/a	n/a	n/a	n/a	n/a	n/a	n/a	n/a	n/a	n/a	n/a	n/a	n/a	n/a	n/a	n/a	n/a	n/a	fixation
99872.359011000022	2750	n/a	1972	89	2750	2123.640989	stim	stop-signal	436	1140125	0.0-19.20-1.20	beast_fmri_test	314	1137378,/,1138058,/,1138738,/,1139418,/,1140098,/,1140778,/,1141458,/,1142138,/	t,t,t,t,t,t,t,t	<img class = center src='/static/experiments/beast_fmri_test/images/P.png'></img>	71,89	2750.0	test	<img class = center src='/static/experiments/beast_fmri_test/images/redP.png'></img>	go	1600.0	3.0	20.0	go	non-target	P	71,Green Button	89,Yellow Button	900.0	1150.0	1850.0	1600.0	1.0	n/a	1150.0	1.0	go_stim
102622.35901100002	2123.640989	n/a	1972	89	2750	2123.640989	stim	stop-signal	436	1140125	0.0-19.20-1.20	beast_fmri_test	314	1137378,/,1138058,/,1138738,/,1139418,/,1140098,/,1140778,/,1141458,/,1142138,/	t,t,t,t,t,t,t,t	<img class = center src='/static/experiments/beast_fmri_test/images/P.png'></img>	71,89	2750.0	test	<img class = center src='/static/experiments/beast_fmri_test/images/redP.png'></img>	go	1600.0	3.0	20.0	go	non-target	P	71,Green Button	89,Yellow Button	900.0	1150.0	1850.0	1600.0	1.0	n/a	1150.0	1.0	ITI
107387	500	n/a	-1	-1	500	0.0	fixation	poldrack-single-stim	437	1142766	0.0-19.21-0.21	beast_fmri_test	314	n/a	n/a	<div class = centerbox><div class = fixation>+</div></div>	none	500.0	test	n/a	n/a	n/a	n/a	n/a	n/a	n/a	n/a	n/a	n/a	n/a	n/a	n/a	n/a	n/a	n/a	n/a	n/a	fixation
106944.90448409994	1150.0	n/a	1547	89	2750	444.0955159	stim	stop-signal	438	1145518	0.0-19.21-1.21	beast_fmri_test	314	1142818,/,1143498,/,1144178,/,1144859,/,1145538,/	t,t,t,t,t	<img class = center src='/static/experiments/beast_fmri_test/images/P.png'></img>	71,89	2750.0	test	<img class = center src='/static/experiments/beast_fmri_test/images/redP.png'></img>	stop	1600.0	3.0	21.0	stop	non-target	P	71,Green Button	89,Yellow Button	900.0	1150.0	1850.0	1600.0	0.0	0.0	1150.0	1.0	go_stim
108544.90448409994	1600.0	n/a	1547	89	2750	444.0955159	stim	stop-signal	438	1145518	0.0-19.21-1.21	beast_fmri_test	314	1142818,/,1143498,/,1144178,/,1144859,/,1145538,/	t,t,t,t,t	<img class = center src='/static/experiments/beast_fmri_test/images/P.png'></img>	71,89	2750.0	test	<img class = center src='/static/experiments/beast_fmri_test/images/redP.png'></img>	stop	1600.0	3.0	21.0	stop	non-target	P	71,Green Button	89,Yellow Button	900.0	1150.0	1850.0	1600.0	0.0	0.0	1150.0	1.0	stop_stim
109694.90448409994	444.09551590000001	n/a	1547	89	2750	444.0955159	stim	stop-signal	438	1145518	0.0-19.21-1.21	beast_fmri_test	314	1142818,/,1143498,/,1144178,/,1144859,/,1145538,/	t,t,t,t,t	<img class = center src='/static/experiments/beast_fmri_test/images/P.png'></img>	71,89	2750.0	test	<img class = center src='/static/experiments/beast_fmri_test/images/redP.png'></img>	stop	1600.0	3.0	21.0	stop	non-target	P	71,Green Button	89,Yellow Button	900.0	1150.0	1850.0	1600.0	0.0	0.0	1150.0	1.0	ITI
111104	500	n/a	-1	-1	500	0.0	fixation	poldrack-single-stim	439	1146483	0.0-19.22-0.22	beast_fmri_test	314	1146218,/	t	<div class = centerbox><div class = fixation>+</div></div>	none	500.0	test	n/a	n/a	n/a	n/a	n/a	n/a	n/a	n/a	n/a	n/a	n/a	n/a	n/a	n/a	n/a	n/a	n/a	n/a	fixation
110211.54089360009	2750	n/a	1636	71	2750	894.4591064	stim	stop-signal	440	1149235	0.0-19.22-1.22	beast_fmri_test	314	1146898,/,1147578,/,1148258,/,1148939,/,1149618,/	t,t,t,t,t	<img class = center src='/static/experiments/beast_fmri_test/images/V.png'></img>	71,89	2750.0	test	<img class = center src='/static/experiments/beast_fmri_test/images/redV.png'></img>	go	1850.0	3.0	22.0	go	target	V	71,Green Button	89,Yellow Button	900.0	1100.0	1850.0	1600.0	1.0	n/a	900.0	1.0	go_stim
112961.54089360009	894.45910639999988	n/a	1636	71	2750	894.4591064	stim	stop-signal	440	1149235	0.0-19.22-1.22	beast_fmri_test	314	1146898,/,1147578,/,1148258,/,1148939,/,1149618,/	t,t,t,t,t	<img class = center src='/static/experiments/beast_fmri_test/images/V.png'></img>	71,89	2750.0	test	<img class = center src='/static/experiments/beast_fmri_test/images/redV.png'></img>	go	1850.0	3.0	22.0	go	target	V	71,Green Button	89,Yellow Button	900.0	1100.0	1850.0	1600.0	1.0	n/a	900.0	1.0	ITI
115270	500	n/a	-1	-1	500	0.0	fixation	poldrack-single-stim	441	1150649	0.0-19.23-0.23	beast_fmri_test	314	1150299,/	t	<div class = centerbox><div class = fixation>+</div></div>	none	500.0	test	n/a	n/a	n/a	n/a	n/a	n/a	n/a	n/a	n/a	n/a	n/a	n/a	n/a	n/a	n/a	n/a	n/a	n/a	fixation
114653.92074230011	900.0	n/a	992	71	2750	618.0792577	stim	stop-signal	442	1153401	0.0-19.23-1.23	beast_fmri_test	314	1150979,/,1151658,/,1152339,/,1153019,/,1153699,/	t,t,t,t,t	<img class = center src='/static/experiments/beast_fmri_test/images/P.png'></img>	71,89	2750.0	test	<img class = center src='/static/experiments/beast_fmri_test/images/redP.png'></img>	stop	1850.0	3.0	23.0	stop	target	P	71,Green Button	89,Yellow Button	900.0	1100.0	1850.0	1600.0	0.0	0.0	900.0	1.0	go_stim
116503.92074230011	1850.0	n/a	992	71	2750	618.0792577	stim	stop-signal	442	1153401	0.0-19.23-1.23	beast_fmri_test	314	1150979,/,1151658,/,1152339,/,1153019,/,1153699,/	t,t,t,t,t	<img class = center src='/static/experiments/beast_fmri_test/images/P.png'></img>	71,89	2750.0	test	<img class = center src='/static/experiments/beast_fmri_test/images/redP.png'></img>	stop	1850.0	3.0	23.0	stop	target	P	71,Green Button	89,Yellow Button	900.0	1100.0	1850.0	1600.0	0.0	0.0	900.0	1.0	stop_stim
117403.92074230011	618.07925770000008	n/a	992	71	2750	618.0792577	stim	stop-signal	442	1153401	0.0-19.23-1.23	beast_fmri_test	314	1150979,/,1151658,/,1152339,/,1153019,/,1153699,/	t,t,t,t,t	<img class = center src='/static/experiments/beast_fmri_test/images/P.png'></img>	71,89	2750.0	test	<img class = center src='/static/experiments/beast_fmri_test/images/redP.png'></img>	stop	1850.0	3.0	23.0	stop	target	P	71,Green Button	89,Yellow Button	900.0	1100.0	1850.0	1600.0	0.0	0.0	900.0	1.0	ITI
119161	500	n/a	-1	-1	500	0.0	fixation	poldrack-single-stim	443	1154540	0.0-19.24-0.24	beast_fmri_test	314	1154379,/	t	<div class = centerbox><div class = fixation>+</div></div>	none	500.0	test	n/a	n/a	n/a	n/a	n/a	n/a	n/a	n/a	n/a	n/a	n/a	n/a	n/a	n/a	n/a	n/a	n/a	n/a	fixation
118959.23454169999	2750	n/a	1273	89	2750	203.7654583	stim	stop-signal	444	1157292	0.0-19.24-1.24	beast_fmri_test	314	1155059,/,1155739,/,1156418,/,1157099,/	t,t,t,t	<img class = center src='/static/experiments/beast_fmri_test/images/B.png'></img>	71,89	2750.0	test	<img class = center src='/static/experiments/beast_fmri_test/images/redB.png'></img>	go	1650.0	3.0	24.0	go	non-target	B	71,Green Button	89,Yellow Button	850.0	1100.0	1850.0	1650.0	1.0	n/a	1100.0	1.0	go_stim
121709.23454169999	203.76545830000001	n/a	1273	89	2750	203.7654583	stim	stop-signal	444	1157292	0.0-19.24-1.24	beast_fmri_test	314	1155059,/,1155739,/,1156418,/,1157099,/	t,t,t,t	<img class = center src='/static/experiments/beast_fmri_test/images/B.png'></img>	71,89	2750.0	test	<img class = center src='/static/experiments/beast_fmri_test/images/redB.png'></img>	go	1650.0	3.0	24.0	go	non-target	B	71,Green Button	89,Yellow Button	850.0	1100.0	1850.0	1650.0	1.0	n/a	1100.0	1.0	ITI
122637	500	n/a	-1	-1	500	0.0	fixation	poldrack-single-stim	445	1158016	0.0-19.25-0.25	beast_fmri_test	314	1157778,/	t	<div class = centerbox><div class = fixation>+</div></div>	none	500.0	test	n/a	n/a	n/a	n/a	n/a	n/a	n/a	n/a	n/a	n/a	n/a	n/a	n/a	n/a	n/a	n/a	n/a	n/a	fixation
121862.28526129993	1100.0	n/a	1273	89	2750	775.7147387	stim	stop-signal	446	1160767	0.0-19.25-1.25	beast_fmri_test	314	1158458,/,1159139,/,1159818,/,1160498,/,1161178,/	t,t,t,t,t	<img class = center src='/static/experiments/beast_fmri_test/images/B.png'></img>	71,89	2750.0	test	<img class = center src='/static/experiments/beast_fmri_test/images/redB.png'></img>	stop	1650.0	3.0	25.0	stop	non-target	B	71,Green Button	89,Yellow Button	850.0	1100.0	1850.0	1650.0	0.0	0.0	1100.0	1.0	go_stim
123512.28526129993	1650.0	n/a	1273	89	2750	775.7147387	stim	stop-signal	446	1160767	0.0-19.25-1.25	beast_fmri_test	314	1158458,/,1159139,/,1159818,/,1160498,/,1161178,/	t,t,t,t,t	<img class = center src='/static/experiments/beast_fmri_test/images/B.png'></img>	71,89	2750.0	test	<img class = center src='/static/experiments/beast_fmri_test/images/redB.png'></img>	stop	1650.0	3.0	25.0	stop	non-target	B	71,Green Button	89,Yellow Button	850.0	1100.0	1850.0	1650.0	0.0	0.0	1100.0	1.0	stop_stim
124612.28526129993	775.7147387	n/a	1273	89	2750	775.7147387	stim	stop-signal	446	1160767	0.0-19.25-1.25	beast_fmri_test	314	1158458,/,1159139,/,1159818,/,1160498,/,1161178,/	t,t,t,t,t	<img class = center src='/static/experiments/beast_fmri_test/images/B.png'></img>	71,89	2750.0	test	<img class = center src='/static/experiments/beast_fmri_test/images/redB.png'></img>	stop	1650.0	3.0	25.0	stop	non-target	B	71,Green Button	89,Yellow Button	850.0	1100.0	1850.0	1650.0	0.0	0.0	1100.0	1.0	ITI
126683	500	n/a	-1	-1	500	0.0	fixation	poldrack-single-stim	447	1162062	0.0-19.26-0.26	beast_fmri_test	314	1161859,/	t	<div class = centerbox><div class = fixation>+</div></div>	none	500.0	test	n/a	n/a	n/a	n/a	n/a	n/a	n/a	n/a	n/a	n/a	n/a	n/a	n/a	n/a	n/a	n/a	n/a	n/a	fixation
125177.25758400001	850.0	n/a	-1	-1	2750	1506.742416	stim	stop-signal	448	1164813	0.0-19.26-1.26	beast_fmri_test	314	1162538,/,1163219,/,1163898,/,1164578,/,1165260,/,1165938,/	t,t,t,t,t,t	<img class = center src='/static/experiments/beast_fmri_test/images/P.png'></img>	71,89	2750.0	test	<img class = center src='/static/experiments/beast_fmri_test/images/redP.png'></img>	stop	1900.0	3.0	26.0	stop	target	P	71,Green Button	89,Yellow Button	850.0	1050.0	1900.0	1650.0	0.0	1.0	850.0	0.0	go_stim
127077.25758400001	1900.0	n/a	-1	-1	2750	1506.742416	stim	stop-signal	448	1164813	0.0-19.26-1.26	beast_fmri_test	314	1162538,/,1163219,/,1163898,/,1164578,/,1165260,/,1165938,/	t,t,t,t,t,t	<img class = center src='/static/experiments/beast_fmri_test/images/P.png'></img>	71,89	2750.0	test	<img class = center src='/static/experiments/beast_fmri_test/images/redP.png'></img>	stop	1900.0	3.0	26.0	stop	target	P	71,Green Button	89,Yellow Button	850.0	1050.0	1900.0	1650.0	0.0	1.0	850.0	0.0	stop_stim
127927.25758400001	1506.742416	n/a	-1	-1	2750	1506.742416	stim	stop-signal	448	1164813	0.0-19.26-1.26	beast_fmri_test	314	1162538,/,1163219,/,1163898,/,1164578,/,1165260,/,1165938,/	t,t,t,t,t,t	<img class = center src='/static/experiments/beast_fmri_test/images/P.png'></img>	71,89	2750.0	test	<img class = center src='/static/experiments/beast_fmri_test/images/redP.png'></img>	stop	1900.0	3.0	26.0	stop	target	P	71,Green Button	89,Yellow Button	850.0	1050.0	1900.0	1650.0	0.0	1.0	850.0	0.0	ITI
131459	500	n/a	-1	-1	500	0.0	fixation	poldrack-single-stim	449	1166838	0.0-19.27-0.27	beast_fmri_test	314	1166618,/	t	<div class = centerbox><div class = fixation>+</div></div>	none	500.0	test	n/a	n/a	n/a	n/a	n/a	n/a	n/a	n/a	n/a	n/a	n/a	n/a	n/a	n/a	n/a	n/a	n/a	n/a	fixation
127733.13327799994	2750	n/a	1052	71	2750	3727.866722	stim	stop-signal	450	1169590	0.0-19.27-1.27	beast_fmri_test	314	1167299,/,1167978,/,1168658,/,1169338,/,1170018,/,1170698,/,1171378,/,1172058,/,1172738,/	t,t,t,t,t,t,t,t,t	<img class = center src='/static/experiments/beast_fmri_test/images/B.png'></img>	71,89	2750.0	test	<img class = center src='/static/experiments/beast_fmri_test/images/redB.png'></img>	go	1850.0	3.0	27.0	go	target	B	71,Green Button	89,Yellow Button	900.0	1050.0	1850.0	1650.0	1.0	n/a	900.0	1.0	go_stim
130483.13327799994	3727.8667219999998	n/a	1052	71	2750	3727.866722	stim	stop-signal	450	1169590	0.0-19.27-1.27	beast_fmri_test	314	1167299,/,1167978,/,1168658,/,1169338,/,1170018,/,1170698,/,1171378,/,1172058,/,1172738,/	t,t,t,t,t,t,t,t,t	<img class = center src='/static/experiments/beast_fmri_test/images/B.png'></img>	71,89	2750.0	test	<img class = center src='/static/experiments/beast_fmri_test/images/redB.png'></img>	go	1850.0	3.0	27.0	go	target	B	71,Green Button	89,Yellow Button	900.0	1050.0	1850.0	1650.0	1.0	n/a	900.0	1.0	ITI
138459	500	n/a	-1	-1	500	0.0	fixation	poldrack-single-stim	451	1173838	0.0-19.28-0.28	beast_fmri_test	314	1173418,/	t	<div class = centerbox><div class = fixation>+</div></div>	none	500.0	test	n/a	n/a	n/a	n/a	n/a	n/a	n/a	n/a	n/a	n/a	n/a	n/a	n/a	n/a	n/a	n/a	n/a	n/a	fixation
136131.61216800008	1050.0	n/a	1450	89	2750	2328.387832	stim	stop-signal	452	1176589	0.0-19.28-1.28	beast_fmri_test	314	1174098,/,1174778,/,1175458,/,1176138,/,1176818,/,1177498,/,1178178,/,1178858,/	t,t,t,t,t,t,t,t	<img class = center src='/static/experiments/beast_fmri_test/images/V.png'></img>	71,89	2750.0	test	<img class = center src='/static/experiments/beast_fmri_test/images/redV.png'></img>	stop	1700.0	3.0	28.0	stop	non-target	V	71,Green Button	89,Yellow Button	900.0	1050.0	1850.0	1700.0	0.0	0.0	1050.0	1.0	go_stim
137831.61216800008	1700.0	n/a	1450	89	2750	2328.387832	stim	stop-signal	452	1176589	0.0-19.28-1.28	beast_fmri_test	314	1174098,/,1174778,/,1175458,/,1176138,/,1176818,/,1177498,/,1178178,/,1178858,/	t,t,t,t,t,t,t,t	<img class = center src='/static/experiments/beast_fmri_test/images/V.png'></img>	71,89	2750.0	test	<img class = center src='/static/experiments/beast_fmri_test/images/redV.png'></img>	stop	1700.0	3.0	28.0	stop	non-target	V	71,Green Button	89,Yellow Button	900.0	1050.0	1850.0	1700.0	0.0	0.0	1050.0	1.0	stop_stim
138881.61216800008	2328.3878319999999	n/a	1450	89	2750	2328.387832	stim	stop-signal	452	1176589	0.0-19.28-1.28	beast_fmri_test	314	1174098,/,1174778,/,1175458,/,1176138,/,1176818,/,1177498,/,1178178,/,1178858,/	t,t,t,t,t,t,t,t	<img class = center src='/static/experiments/beast_fmri_test/images/V.png'></img>	71,89	2750.0	test	<img class = center src='/static/experiments/beast_fmri_test/images/redV.png'></img>	stop	1700.0	3.0	28.0	stop	non-target	V	71,Green Button	89,Yellow Button	900.0	1050.0	1850.0	1700.0	0.0	0.0	1050.0	1.0	ITI
144057	500	n/a	-1	-1	500	0.0	fixation	poldrack-single-stim	453	1179436	0.0-19.29-0.29	beast_fmri_test	314	n/a	n/a	<div class = centerbox><div class = fixation>+</div></div>	none	500.0	test	n/a	n/a	n/a	n/a	n/a	n/a	n/a	n/a	n/a	n/a	n/a	n/a	n/a	n/a	n/a	n/a	n/a	n/a	fixation
143025.86059900001	2750	n/a	1961	89	2750	1034.139401	stim	stop-signal	454	1182189	0.0-19.29-1.29	beast_fmri_test	314	1179538,/,1180218,/,1180898,/,1181578,/,1182259,/,1182939,/	t,t,t,t,t,t	<img class = center src='/static/experiments/beast_fmri_test/images/B.png'></img>	71,89	2750.0	test	<img class = center src='/static/experiments/beast_fmri_test/images/redB.png'></img>	go	1750.0	3.0	29.0	go	non-target	B	71,Green Button	89,Yellow Button	900.0	1000.0	1850.0	1750.0	1.0	n/a	1000.0	1.0	go_stim
145775.86059900001	1034.1394009999999	n/a	1961	89	2750	1034.139401	stim	stop-signal	454	1182189	0.0-19.29-1.29	beast_fmri_test	314	1179538,/,1180218,/,1180898,/,1181578,/,1182259,/,1182939,/	t,t,t,t,t,t	<img class = center src='/static/experiments/beast_fmri_test/images/B.png'></img>	71,89	2750.0	test	<img class = center src='/static/experiments/beast_fmri_test/images/redB.png'></img>	go	1750.0	3.0	29.0	go	non-target	B	71,Green Button	89,Yellow Button	900.0	1000.0	1850.0	1750.0	1.0	n/a	1000.0	1.0	ITI
148361	500	n/a	-1	-1	500	0.0	fixation	poldrack-single-stim	455	1183740	0.0-19.30-0.30	beast_fmri_test	314	1183619,/	t	<div class = centerbox><div class = fixation>+</div></div>	none	500.0	test	n/a	n/a	n/a	n/a	n/a	n/a	n/a	n/a	n/a	n/a	n/a	n/a	n/a	n/a	n/a	n/a	n/a	n/a	fixation
147617.9950943999	2750	n/a	1265	71	2750	744.0049056	stim	stop-signal	456	1186491	0.0-19.30-1.30	beast_fmri_test	314	1184299,/,1184979,/,1185659,/,1186339,/,1187019,/	t,t,t,t,t	<img class = center src='/static/experiments/beast_fmri_test/images/B.png'></img>	71,89	2750.0	test	<img class = center src='/static/experiments/beast_fmri_test/images/redB.png'></img>	go	1850.0	3.0	30.0	go	target	B	71,Green Button	89,Yellow Button	900.0	1000.0	1850.0	1750.0	1.0	n/a	900.0	1.0	go_stim
150367.9950943999	744.00490560000003	n/a	1265	71	2750	744.0049056	stim	stop-signal	456	1186491	0.0-19.30-1.30	beast_fmri_test	314	1184299,/,1184979,/,1185659,/,1186339,/,1187019,/	t,t,t,t,t	<img class = center src='/static/experiments/beast_fmri_test/images/B.png'></img>	71,89	2750.0	test	<img class = center src='/static/experiments/beast_fmri_test/images/redB.png'></img>	go	1850.0	3.0	30.0	go	target	B	71,Green Button	89,Yellow Button	900.0	1000.0	1850.0	1750.0	1.0	n/a	900.0	1.0	ITI
152377	500	n/a	-1	-1	500	0.0	fixation	poldrack-single-stim	457	1187756	0.0-19.31-0.31	beast_fmri_test	314	1187699,/	t	<div class = centerbox><div class = fixation>+</div></div>	none	500.0	test	n/a	n/a	n/a	n/a	n/a	n/a	n/a	n/a	n/a	n/a	n/a	n/a	n/a	n/a	n/a	n/a	n/a	n/a	fixation
152077.14912030008	1000.0	n/a	-1	-1	2750	300.8508797	stim	stop-signal	458	1190507	0.0-19.31-1.31	beast_fmri_test	314	1188379,/,1189058,/,1189738,/,1190419,/	t,t,t,t	<img class = center src='/static/experiments/beast_fmri_test/images/D.png'></img>	71,89	2750.0	test	<img class = center src='/static/experiments/beast_fmri_test/images/redD.png'></img>	stop	1750.0	3.0	31.0	stop	non-target	D	71,Green Button	89,Yellow Button	900.0	1000.0	1850.0	1750.0	0.0	1.0	1000.0	0.0	go_stim
153827.14912030008	1750.0	n/a	-1	-1	2750	300.8508797	stim	stop-signal	458	1190507	0.0-19.31-1.31	beast_fmri_test	314	1188379,/,1189058,/,1189738,/,1190419,/	t,t,t,t	<img class = center src='/static/experiments/beast_fmri_test/images/D.png'></img>	71,89	2750.0	test	<img class = center src='/static/experiments/beast_fmri_test/images/redD.png'></img>	stop	1750.0	3.0	31.0	stop	non-target	D	71,Green Button	89,Yellow Button	900.0	1000.0	1850.0	1750.0	0.0	1.0	1000.0	0.0	stop_stim
154827.14912030008	300.85087969999995	n/a	-1	-1	2750	300.8508797	stim	stop-signal	458	1190507	0.0-19.31-1.31	beast_fmri_test	314	1188379,/,1189058,/,1189738,/,1190419,/	t,t,t,t	<img class = center src='/static/experiments/beast_fmri_test/images/D.png'></img>	71,89	2750.0	test	<img class = center src='/static/experiments/beast_fmri_test/images/redD.png'></img>	stop	1750.0	3.0	31.0	stop	non-target	D	71,Green Button	89,Yellow Button	900.0	1000.0	1850.0	1750.0	0.0	1.0	1000.0	0.0	ITI
155947	500	n/a	-1	-1	500	0.0	fixation	poldrack-single-stim	459	1191326	0.0-19.32-0.32	beast_fmri_test	314	1191098,/	t	<div class = centerbox><div class = fixation>+</div></div>	none	500.0	test	n/a	n/a	n/a	n/a	n/a	n/a	n/a	n/a	n/a	n/a	n/a	n/a	n/a	n/a	n/a	n/a	n/a	n/a	fixation
154914.8508309999	900.0	n/a	-1	-1	2750	1034.149169	stim	stop-signal	460	1194078	0.0-19.32-1.32	beast_fmri_test	314	1191779,/,1192459,/,1193139,/,1193818,/,1194498,/	t,t,t,t,t	<img class = center src='/static/experiments/beast_fmri_test/images/B.png'></img>	71,89	2750.0	test	<img class = center src='/static/experiments/beast_fmri_test/images/redB.png'></img>	stop	1850.0	3.0	32.0	stop	target	B	71,Green Button	89,Yellow Button	900.0	1050.0	1850.0	1750.0	0.0	1.0	900.0	0.0	go_stim
156764.8508309999	1850.0	n/a	-1	-1	2750	1034.149169	stim	stop-signal	460	1194078	0.0-19.32-1.32	beast_fmri_test	314	1191779,/,1192459,/,1193139,/,1193818,/,1194498,/	t,t,t,t,t	<img class = center src='/static/experiments/beast_fmri_test/images/B.png'></img>	71,89	2750.0	test	<img class = center src='/static/experiments/beast_fmri_test/images/redB.png'></img>	stop	1850.0	3.0	32.0	stop	target	B	71,Green Button	89,Yellow Button	900.0	1050.0	1850.0	1750.0	0.0	1.0	900.0	0.0	stop_stim
157664.8508309999	1034.149169	n/a	-1	-1	2750	1034.149169	stim	stop-signal	460	1194078	0.0-19.32-1.32	beast_fmri_test	314	1191779,/,1192459,/,1193139,/,1193818,/,1194498,/	t,t,t,t,t	<img class = center src='/static/experiments/beast_fmri_test/images/B.png'></img>	71,89	2750.0	test	<img class = center src='/static/experiments/beast_fmri_test/images/redB.png'></img>	stop	1850.0	3.0	32.0	stop	target	B	71,Green Button	89,Yellow Button	900.0	1050.0	1850.0	1750.0	0.0	1.0	900.0	0.0	ITI
160255	500	n/a	-1	-1	500	0.0	fixation	poldrack-single-stim	461	1195634	0.0-19.33-0.33	beast_fmri_test	314	1195179,/	t	<div class = centerbox><div class = fixation>+</div></div>	none	500.0	test	n/a	n/a	n/a	n/a	n/a	n/a	n/a	n/a	n/a	n/a	n/a	n/a	n/a	n/a	n/a	n/a	n/a	n/a	fixation
159834.26613299991	2750	n/a	1874	71	2750	421.733867	stim	stop-signal	462	1198385	0.0-19.33-1.33	beast_fmri_test	314	1195859,/,1196538,/,1197219,/,1197898,/,1198578,/	t,t,t,t,t	<img class = center src='/static/experiments/beast_fmri_test/images/B.png'></img>	71,89	2750.0	test	<img class = center src='/static/experiments/beast_fmri_test/images/redB.png'></img>	go	1800.0	3.0	33.0	go	target	B	71,Green Button	89,Yellow Button	950.0	1050.0	1800.0	1750.0	1.0	n/a	950.0	1.0	go_stim
162584.26613299991	421.73386699999998	n/a	1874	71	2750	421.733867	stim	stop-signal	462	1198385	0.0-19.33-1.33	beast_fmri_test	314	1195859,/,1196538,/,1197219,/,1197898,/,1198578,/	t,t,t,t,t	<img class = center src='/static/experiments/beast_fmri_test/images/B.png'></img>	71,89	2750.0	test	<img class = center src='/static/experiments/beast_fmri_test/images/redB.png'></img>	go	1800.0	3.0	33.0	go	target	B	71,Green Button	89,Yellow Button	950.0	1050.0	1800.0	1750.0	1.0	n/a	950.0	1.0	ITI
163948	500	n/a	-1	-1	500	0.0	fixation	poldrack-single-stim	463	1199327	0.0-19.34-0.34	beast_fmri_test	314	1199258,/	t	<div class = centerbox><div class = fixation>+</div></div>	none	500.0	test	n/a	n/a	n/a	n/a	n/a	n/a	n/a	n/a	n/a	n/a	n/a	n/a	n/a	n/a	n/a	n/a	n/a	n/a	fixation
161934.09779700008	1050.0	n/a	-1	-1	2750	2015.902203	stim	stop-signal	464	1202079	0.0-19.34-1.34	beast_fmri_test	314	1199938,/,1200618,/,1201299,/,1201978,/,1202658,/,1203338,/,1204018,/	t,t,t,t,t,t,t	<img class = center src='/static/experiments/beast_fmri_test/images/P.png'></img>	71,89	2750.0	test	<img class = center src='/static/experiments/beast_fmri_test/images/redP.png'></img>	stop	1700.0	3.0	34.0	stop	non-target	P	71,Green Button	89,Yellow Button	950.0	1050.0	1800.0	1700.0	0.0	1.0	1050.0	0.0	go_stim
163634.09779700008	1700.0	n/a	-1	-1	2750	2015.902203	stim	stop-signal	464	1202079	0.0-19.34-1.34	beast_fmri_test	314	1199938,/,1200618,/,1201299,/,1201978,/,1202658,/,1203338,/,1204018,/	t,t,t,t,t,t,t	<img class = center src='/static/experiments/beast_fmri_test/images/P.png'></img>	71,89	2750.0	test	<img class = center src='/static/experiments/beast_fmri_test/images/redP.png'></img>	stop	1700.0	3.0	34.0	stop	non-target	P	71,Green Button	89,Yellow Button	950.0	1050.0	1800.0	1700.0	0.0	1.0	1050.0	0.0	stop_stim
164684.09779700008	2015.9022030000001	n/a	-1	-1	2750	2015.902203	stim	stop-signal	464	1202079	0.0-19.34-1.34	beast_fmri_test	314	1199938,/,1200618,/,1201299,/,1201978,/,1202658,/,1203338,/,1204018,/	t,t,t,t,t,t,t	<img class = center src='/static/experiments/beast_fmri_test/images/P.png'></img>	71,89	2750.0	test	<img class = center src='/static/experiments/beast_fmri_test/images/redP.png'></img>	stop	1700.0	3.0	34.0	stop	non-target	P	71,Green Button	89,Yellow Button	950.0	1050.0	1800.0	1700.0	0.0	1.0	1050.0	0.0	ITI
169235	500	n/a	-1	-1	500	0.0	fixation	poldrack-single-stim	465	1204614	0.0-19.35-0.35	beast_fmri_test	314	n/a	n/a	<div class = centerbox><div class = fixation>+</div></div>	none	500.0	test	n/a	n/a	n/a	n/a	n/a	n/a	n/a	n/a	n/a	n/a	n/a	n/a	n/a	n/a	n/a	n/a	n/a	n/a	fixation
168289.35802330007	2750	n/a	1875	89	2750	947.6419767	stim	stop-signal	466	1207366	0.0-19.35-1.35	beast_fmri_test	314	1204698,/,1205378,/,1206059,/,1206738,/,1207418,/,1208098,/	t,t,t,t,t,t	<img class = center src='/static/experiments/beast_fmri_test/images/V.png'></img>	71,89	2750.0	test	<img class = center src='/static/experiments/beast_fmri_test/images/redV.png'></img>	go	1650.0	3.0	35.0	go	non-target	V	71,Green Button	89,Yellow Button	950.0	1100.0	1800.0	1650.0	1.0	n/a	1100.0	1.0	go_stim
171039.35802330007	947.6419767000001	n/a	1875	89	2750	947.6419767	stim	stop-signal	466	1207366	0.0-19.35-1.35	beast_fmri_test	314	1204698,/,1205378,/,1206059,/,1206738,/,1207418,/,1208098,/	t,t,t,t,t,t	<img class = center src='/static/experiments/beast_fmri_test/images/V.png'></img>	71,89	2750.0	test	<img class = center src='/static/experiments/beast_fmri_test/images/redV.png'></img>	go	1650.0	3.0	35.0	go	non-target	V	71,Green Button	89,Yellow Button	950.0	1100.0	1800.0	1650.0	1.0	n/a	1100.0	1.0	ITI
173452	500	n/a	-1	-1	500	0.0	fixation	poldrack-single-stim	467	1208831	0.0-19.36-0.36	beast_fmri_test	314	1208778,/	t	<div class = centerbox><div class = fixation>+</div></div>	none	500.0	test	n/a	n/a	n/a	n/a	n/a	n/a	n/a	n/a	n/a	n/a	n/a	n/a	n/a	n/a	n/a	n/a	n/a	n/a	fixation
172970.11543640005	2750	n/a	1601	89	2750	483.8845636	stim	stop-signal	468	1211583	0.0-19.36-1.36	beast_fmri_test	314	1209458,/,1210138,/,1210818,/,1211498,/	t,t,t,t	<img class = center src='/static/experiments/beast_fmri_test/images/D.png'></img>	71,89	2750.0	test	<img class = center src='/static/experiments/beast_fmri_test/images/redD.png'></img>	go	1650.0	3.0	36.0	go	non-target	D	71,Green Button	89,Yellow Button	950.0	1100.0	1800.0	1650.0	1.0	n/a	1100.0	1.0	go_stim
175720.11543640005	483.88456359999998	n/a	1601	89	2750	483.8845636	stim	stop-signal	468	1211583	0.0-19.36-1.36	beast_fmri_test	314	1209458,/,1210138,/,1210818,/,1211498,/	t,t,t,t	<img class = center src='/static/experiments/beast_fmri_test/images/D.png'></img>	71,89	2750.0	test	<img class = center src='/static/experiments/beast_fmri_test/images/redD.png'></img>	go	1650.0	3.0	36.0	go	non-target	D	71,Green Button	89,Yellow Button	950.0	1100.0	1800.0	1650.0	1.0	n/a	1100.0	1.0	ITI
177207	500	n/a	-1	-1	500	0.0	fixation	poldrack-single-stim	469	1212586	0.0-19.37-0.37	beast_fmri_test	314	1212178,/	t	<div class = centerbox><div class = fixation>+</div></div>	none	500.0	test	n/a	n/a	n/a	n/a	n/a	n/a	n/a	n/a	n/a	n/a	n/a	n/a	n/a	n/a	n/a	n/a	n/a	n/a	fixation
175519.21897900011	2750	n/a	1210	71	2750	1688.781021	stim	stop-signal	470	1215337	0.0-19.37-1.37	beast_fmri_test	314	1212858,/,1213538,/,1214218,/,1214898,/,1215578,/,1216258,/,1216937,/	t,t,t,t,t,t,t	<img class = center src='/static/experiments/beast_fmri_test/images/P.png'></img>	71,89	2750.0	test	<img class = center src='/static/experiments/beast_fmri_test/images/redP.png'></img>	go	1800.0	3.0	37.0	go	target	P	71,Green Button	89,Yellow Button	950.0	1100.0	1800.0	1650.0	1.0	n/a	950.0	1.0	go_stim
178269.21897900011	1688.781021	n/a	1210	71	2750	1688.781021	stim	stop-signal	470	1215337	0.0-19.37-1.37	beast_fmri_test	314	1212858,/,1213538,/,1214218,/,1214898,/,1215578,/,1216258,/,1216937,/	t,t,t,t,t,t,t	<img class = center src='/static/experiments/beast_fmri_test/images/P.png'></img>	71,89	2750.0	test	<img class = center src='/static/experiments/beast_fmri_test/images/redP.png'></img>	go	1800.0	3.0	37.0	go	target	P	71,Green Button	89,Yellow Button	950.0	1100.0	1800.0	1650.0	1.0	n/a	950.0	1.0	ITI
182164	500	n/a	-1	-1	500	0.0	fixation	poldrack-single-stim	471	1217543	0.0-19.38-0.38	beast_fmri_test	314	n/a	n/a	<div class = centerbox><div class = fixation>+</div></div>	none	500.0	test	n/a	n/a	n/a	n/a	n/a	n/a	n/a	n/a	n/a	n/a	n/a	n/a	n/a	n/a	n/a	n/a	n/a	n/a	fixation
181884.78897099989	2750	n/a	1645	89	2750	281.211029	stim	stop-signal	472	1220295	0.0-19.38-1.38	beast_fmri_test	314	1217618,/,1218299,/,1218979,/,1219659,/,1220339,/	t,t,t,t,t	<img class = center src='/static/experiments/beast_fmri_test/images/B.png'></img>	71,89	2750.0	test	<img class = center src='/static/experiments/beast_fmri_test/images/redB.png'></img>	go	1650.0	3.0	38.0	go	non-target	B	71,Green Button	89,Yellow Button	950.0	1100.0	1800.0	1650.0	1.0	n/a	1100.0	1.0	go_stim
184634.78897099989	281.211029	n/a	1645	89	2750	281.211029	stim	stop-signal	472	1220295	0.0-19.38-1.38	beast_fmri_test	314	1217618,/,1218299,/,1218979,/,1219659,/,1220339,/	t,t,t,t,t	<img class = center src='/static/experiments/beast_fmri_test/images/B.png'></img>	71,89	2750.0	test	<img class = center src='/static/experiments/beast_fmri_test/images/redB.png'></img>	go	1650.0	3.0	38.0	go	non-target	B	71,Green Button	89,Yellow Button	950.0	1100.0	1800.0	1650.0	1.0	n/a	1100.0	1.0	ITI
185717	500	n/a	-1	-1	500	0.0	fixation	poldrack-single-stim	473	1221096	0.0-19.39-0.39	beast_fmri_test	314	1221019,/	t	<div class = centerbox><div class = fixation>+</div></div>	none	500.0	test	n/a	n/a	n/a	n/a	n/a	n/a	n/a	n/a	n/a	n/a	n/a	n/a	n/a	n/a	n/a	n/a	n/a	n/a	fixation
185551.45103850006	2750	n/a	2347	89	2750	167.5489615	stim	stop-signal	474	1223848	0.0-19.39-1.39	beast_fmri_test	314	1221699,/,1222379,/,1223059,/,1223738,/	t,t,t,t	<img class = center src='/static/experiments/beast_fmri_test/images/B.png'></img>	71,89	2750.0	test	<img class = center src='/static/experiments/beast_fmri_test/images/redB.png'></img>	go	1650.0	3.0	39.0	go	non-target	B	71,Green Button	89,Yellow Button	950.0	1100.0	1800.0	1650.0	1.0	n/a	1100.0	1.0	go_stim
188301.45103850006	167.54896149999999	n/a	2347	89	2750	167.5489615	stim	stop-signal	474	1223848	0.0-19.39-1.39	beast_fmri_test	314	1221699,/,1222379,/,1223059,/,1223738,/	t,t,t,t	<img class = center src='/static/experiments/beast_fmri_test/images/B.png'></img>	71,89	2750.0	test	<img class = center src='/static/experiments/beast_fmri_test/images/redB.png'></img>	go	1650.0	3.0	39.0	go	non-target	B	71,Green Button	89,Yellow Button	950.0	1100.0	1800.0	1650.0	1.0	n/a	1100.0	1.0	ITI
189156	500	n/a	-1	-1	500	0.0	fixation	poldrack-single-stim	475	1224535	0.0-19.40-0.40	beast_fmri_test	314	1224419,/	t	<div class = centerbox><div class = fixation>+</div></div>	none	500.0	test	n/a	n/a	n/a	n/a	n/a	n/a	n/a	n/a	n/a	n/a	n/a	n/a	n/a	n/a	n/a	n/a	n/a	n/a	fixation
188909.33533410006	2750	n/a	2053	89	2750	247.6646659	stim	stop-signal	476	1227286	0.0-19.40-1.40	beast_fmri_test	314	1225099,/,1225778,/,1226459,/,1227139,/	t,t,t,t	<img class = center src='/static/experiments/beast_fmri_test/images/B.png'></img>	71,89	2750.0	test	<img class = center src='/static/experiments/beast_fmri_test/images/redB.png'></img>	go	1650.0	3.0	40.0	go	non-target	B	71,Green Button	89,Yellow Button	950.0	1100.0	1800.0	1650.0	1.0	n/a	1100.0	1.0	go_stim
191659.33533410006	247.66466589999999	n/a	2053	89	2750	247.6646659	stim	stop-signal	476	1227286	0.0-19.40-1.40	beast_fmri_test	314	1225099,/,1225778,/,1226459,/,1227139,/	t,t,t,t	<img class = center src='/static/experiments/beast_fmri_test/images/B.png'></img>	71,89	2750.0	test	<img class = center src='/static/experiments/beast_fmri_test/images/redB.png'></img>	go	1650.0	3.0	40.0	go	non-target	B	71,Green Button	89,Yellow Button	950.0	1100.0	1800.0	1650.0	1.0	n/a	1100.0	1.0	ITI
192675	500	n/a	-1	-1	500	0.0	fixation	poldrack-single-stim	477	1228054	0.0-19.41-0.41	beast_fmri_test	314	1227818,/	t	<div class = centerbox><div class = fixation>+</div></div>	none	500.0	test	n/a	n/a	n/a	n/a	n/a	n/a	n/a	n/a	n/a	n/a	n/a	n/a	n/a	n/a	n/a	n/a	n/a	n/a	fixation
192308.67804379994	2750	n/a	1286	89	2750	368.3219562	stim	stop-signal	478	1230806	0.0-19.41-1.41	beast_fmri_test	314	1228498,/,1229178,/,1229859,/,1230538,/	t,t,t,t	<img class = center src='/static/experiments/beast_fmri_test/images/P.png'></img>	71,89	2750.0	test	<img class = center src='/static/experiments/beast_fmri_test/images/redP.png'></img>	go	1650.0	3.0	41.0	go	non-target	P	71,Green Button	89,Yellow Button	950.0	1100.0	1800.0	1650.0	1.0	n/a	1100.0	1.0	go_stim
195058.67804379994	368.32195619999999	n/a	1286	89	2750	368.3219562	stim	stop-signal	478	1230806	0.0-19.41-1.41	beast_fmri_test	314	1228498,/,1229178,/,1229859,/,1230538,/	t,t,t,t	<img class = center src='/static/experiments/beast_fmri_test/images/P.png'></img>	71,89	2750.0	test	<img class = center src='/static/experiments/beast_fmri_test/images/redP.png'></img>	go	1650.0	3.0	41.0	go	non-target	P	71,Green Button	89,Yellow Button	950.0	1100.0	1800.0	1650.0	1.0	n/a	1100.0	1.0	ITI
196315	500	n/a	-1	-1	500	0.0	fixation	poldrack-single-stim	479	1231694	0.0-19.42-0.42	beast_fmri_test	314	1231218,/	t	<div class = centerbox><div class = fixation>+</div></div>	none	500.0	test	n/a	n/a	n/a	n/a	n/a	n/a	n/a	n/a	n/a	n/a	n/a	n/a	n/a	n/a	n/a	n/a	n/a	n/a	fixation
195157.06339800009	1100.0	n/a	-1	-1	2750	1158.936602	stim	stop-signal	480	1234445	0.0-19.42-1.42	beast_fmri_test	314	1231898,/,1232578,/,1233258,/,1233938,/,1234618,/,1235298,/	t,t,t,t,t,t	<img class = center src='/static/experiments/beast_fmri_test/images/T.png'></img>	71,89	2750.0	test	<img class = center src='/static/experiments/beast_fmri_test/images/redT.png'></img>	stop	1650.0	3.0	42.0	stop	non-target	T	71,Green Button	89,Yellow Button	950.0	1100.0	1800.0	1650.0	0.0	1.0	1100.0	0.0	go_stim
196807.06339800009	1650.0	n/a	-1	-1	2750	1158.936602	stim	stop-signal	480	1234445	0.0-19.42-1.42	beast_fmri_test	314	1231898,/,1232578,/,1233258,/,1233938,/,1234618,/,1235298,/	t,t,t,t,t,t	<img class = center src='/static/experiments/beast_fmri_test/images/T.png'></img>	71,89	2750.0	test	<img class = center src='/static/experiments/beast_fmri_test/images/redT.png'></img>	stop	1650.0	3.0	42.0	stop	non-target	T	71,Green Button	89,Yellow Button	950.0	1100.0	1800.0	1650.0	0.0	1.0	1100.0	0.0	stop_stim
197907.06339800009	1158.936602	n/a	-1	-1	2750	1158.936602	stim	stop-signal	480	1234445	0.0-19.42-1.42	beast_fmri_test	314	1231898,/,1232578,/,1233258,/,1233938,/,1234618,/,1235298,/	t,t,t,t,t,t	<img class = center src='/static/experiments/beast_fmri_test/images/T.png'></img>	71,89	2750.0	test	<img class = center src='/static/experiments/beast_fmri_test/images/redT.png'></img>	stop	1650.0	3.0	42.0	stop	non-target	T	71,Green Button	89,Yellow Button	950.0	1100.0	1800.0	1650.0	0.0	1.0	1100.0	0.0	ITI
200742	500	n/a	-1	-1	500	0.0	fixation	poldrack-single-stim	481	1236121	0.0-19.43-0.43	beast_fmri_test	314	1235978,/	t	<div class = centerbox><div class = fixation>+</div></div>	none	500.0	test	n/a	n/a	n/a	n/a	n/a	n/a	n/a	n/a	n/a	n/a	n/a	n/a	n/a	n/a	n/a	n/a	n/a	n/a	fixation
200174.09907789994	2750	n/a	2222	89	2750	568.9009221	stim	stop-signal	482	1238872	0.0-19.43-1.43	beast_fmri_test	314	1236659,/,1237338,/,1238018,/,1238698,/,1239378,/	t,t,t,t,t	<img class = center src='/static/experiments/beast_fmri_test/images/P.png'></img>	71,89	2750.0	test	<img class = center src='/static/experiments/beast_fmri_test/images/redP.png'></img>	go	1600.0	3.0	43.0	go	non-target	P	71,Green Button	89,Yellow Button	950.0	1150.0	1800.0	1600.0	1.0	n/a	1150.0	1.0	go_stim
202924.09907789994	568.9009221	n/a	2222	89	2750	568.9009221	stim	stop-signal	482	1238872	0.0-19.43-1.43	beast_fmri_test	314	1236659,/,1237338,/,1238018,/,1238698,/,1239378,/	t,t,t,t,t	<img class = center src='/static/experiments/beast_fmri_test/images/P.png'></img>	71,89	2750.0	test	<img class = center src='/static/experiments/beast_fmri_test/images/redP.png'></img>	go	1600.0	3.0	43.0	go	non-target	P	71,Green Button	89,Yellow Button	950.0	1150.0	1800.0	1600.0	1.0	n/a	1150.0	1.0	ITI
204581	500	n/a	-1	-1	500	0.0	fixation	poldrack-single-stim	483	1239960	0.0-19.44-0.44	beast_fmri_test	314	n/a	n/a	<div class = centerbox><div class = fixation>+</div></div>	none	500.0	test	n/a	n/a	n/a	n/a	n/a	n/a	n/a	n/a	n/a	n/a	n/a	n/a	n/a	n/a	n/a	n/a	n/a	n/a	fixation
204560.68165262998	1150.0	n/a	-1	-1	2750	22.31834737	stim	stop-signal	484	1242712	0.0-19.44-1.44	beast_fmri_test	314	1240058,/,1240738,/,1241418,/,1242098,/	t,t,t,t	<img class = center src='/static/experiments/beast_fmri_test/images/B.png'></img>	71,89	2750.0	test	<img class = center src='/static/experiments/beast_fmri_test/images/redB.png'></img>	stop	1600.0	3.0	44.0	stop	non-target	B	71,Green Button	89,Yellow Button	950.0	1150.0	1800.0	1600.0	0.0	1.0	1150.0	0.0	go_stim
206160.68165262998	1600.0	n/a	-1	-1	2750	22.31834737	stim	stop-signal	484	1242712	0.0-19.44-1.44	beast_fmri_test	314	1240058,/,1240738,/,1241418,/,1242098,/	t,t,t,t	<img class = center src='/static/experiments/beast_fmri_test/images/B.png'></img>	71,89	2750.0	test	<img class = center src='/static/experiments/beast_fmri_test/images/redB.png'></img>	stop	1600.0	3.0	44.0	stop	non-target	B	71,Green Button	89,Yellow Button	950.0	1150.0	1800.0	1600.0	0.0	1.0	1150.0	0.0	stop_stim
207310.68165262998	22.318347370000001	n/a	-1	-1	2750	22.31834737	stim	stop-signal	484	1242712	0.0-19.44-1.44	beast_fmri_test	314	1240058,/,1240738,/,1241418,/,1242098,/	t,t,t,t	<img class = center src='/static/experiments/beast_fmri_test/images/B.png'></img>	71,89	2750.0	test	<img class = center src='/static/experiments/beast_fmri_test/images/redB.png'></img>	stop	1600.0	3.0	44.0	stop	non-target	B	71,Green Button	89,Yellow Button	950.0	1150.0	1800.0	1600.0	0.0	1.0	1150.0	0.0	ITI
207876	500	n/a	-1	-1	500	0.0	fixation	poldrack-single-stim	485	1243255	0.0-19.45-0.45	beast_fmri_test	314	1242778,/	t	<div class = centerbox><div class = fixation>+</div></div>	none	500.0	test	n/a	n/a	n/a	n/a	n/a	n/a	n/a	n/a	n/a	n/a	n/a	n/a	n/a	n/a	n/a	n/a	n/a	n/a	fixation
207711.71322600008	2750	n/a	2454	71	2750	166.286774	stim	stop-signal	486	1246007	0.0-19.45-1.45	beast_fmri_test	314	1243458,/,1244138,/,1244818,/,1245498,/	t,t,t,t	<img class = center src='/static/experiments/beast_fmri_test/images/T.png'></img>	71,89	2750.0	test	<img class = center src='/static/experiments/beast_fmri_test/images/redT.png'></img>	go	1800.0	3.0	45.0	go	target	T	71,Green Button	89,Yellow Button	950.0	1200.0	1800.0	1600.0	1.0	n/a	950.0	1.0	go_stim
210461.71322600008	166.28677400000001	n/a	2454	71	2750	166.286774	stim	stop-signal	486	1246007	0.0-19.45-1.45	beast_fmri_test	314	1243458,/,1244138,/,1244818,/,1245498,/	t,t,t,t	<img class = center src='/static/experiments/beast_fmri_test/images/T.png'></img>	71,89	2750.0	test	<img class = center src='/static/experiments/beast_fmri_test/images/redT.png'></img>	go	1800.0	3.0	45.0	go	target	T	71,Green Button	89,Yellow Button	950.0	1200.0	1800.0	1600.0	1.0	n/a	950.0	1.0	ITI
211318	500	n/a	-1	-1	500	0.0	fixation	poldrack-single-stim	487	1246697	0.0-19.46-0.46	beast_fmri_test	314	1246196,/	t	<div class = centerbox><div class = fixation>+</div></div>	none	500.0	test	n/a	n/a	n/a	n/a	n/a	n/a	n/a	n/a	n/a	n/a	n/a	n/a	n/a	n/a	n/a	n/a	n/a	n/a	fixation
211084.90076679992	2750	n/a	-1	-1	2750	235.0992332	stim	stop-signal	488	1249449	0.0-19.46-1.46	beast_fmri_test	314	1246859,/,1247537,/,1248218,/,1248898,/,1249579,/	t,t,t,t,t	<img class = center src='/static/experiments/beast_fmri_test/images/D.png'></img>	71,89	2750.0	test	<img class = center src='/static/experiments/beast_fmri_test/images/redD.png'></img>	go	1550.0	3.0	46.0	go	non-target	D	71,Green Button	89,Yellow Button	950.0	1200.0	1800.0	1550.0	0.0	n/a	1200.0	0.0	go_stim
213834.90076679992	235.09923319999999	n/a	-1	-1	2750	235.0992332	stim	stop-signal	488	1249449	0.0-19.46-1.46	beast_fmri_test	314	1246859,/,1247537,/,1248218,/,1248898,/,1249579,/	t,t,t,t,t	<img class = center src='/static/experiments/beast_fmri_test/images/D.png'></img>	71,89	2750.0	test	<img class = center src='/static/experiments/beast_fmri_test/images/redD.png'></img>	go	1550.0	3.0	46.0	go	non-target	D	71,Green Button	89,Yellow Button	950.0	1200.0	1800.0	1550.0	0.0	n/a	1200.0	0.0	ITI
214824	500	n/a	-1	-1	500	0.0	fixation	poldrack-single-stim	489	1250203	0.0-19.47-0.47	beast_fmri_test	314	n/a	n/a	<div class = centerbox><div class = fixation>+</div></div>	none	500.0	test	n/a	n/a	n/a	n/a	n/a	n/a	n/a	n/a	n/a	n/a	n/a	n/a	n/a	n/a	n/a	n/a	n/a	n/a	fixation
214158.07160159992	2750	n/a	1630	89	2750	667.9283984	stim	stop-signal	490	1252955	0.0-19.47-1.47	beast_fmri_test	314	1250259,/,1250939,/,1251619,/,1252299,/,1252978,/	t,t,t,t,t	<img class = center src='/static/experiments/beast_fmri_test/images/D.png'></img>	71,89	2750.0	test	<img class = center src='/static/experiments/beast_fmri_test/images/redD.png'></img>	go	1550.0	3.0	47.0	go	non-target	D	71,Green Button	89,Yellow Button	950.0	1200.0	1800.0	1550.0	1.0	n/a	1200.0	1.0	go_stim
216908.07160159992	667.92839839999999	n/a	1630	89	2750	667.9283984	stim	stop-signal	490	1252955	0.0-19.47-1.47	beast_fmri_test	314	1250259,/,1250939,/,1251619,/,1252299,/,1252978,/	t,t,t,t,t	<img class = center src='/static/experiments/beast_fmri_test/images/D.png'></img>	71,89	2750.0	test	<img class = center src='/static/experiments/beast_fmri_test/images/redD.png'></img>	go	1550.0	3.0	47.0	go	non-target	D	71,Green Button	89,Yellow Button	950.0	1200.0	1800.0	1550.0	1.0	n/a	1200.0	1.0	ITI
233263	15000	n/a	-1	-1	15000	0.0	practice-no-stop-feedback	poldrack-single-stim	491	1268642	0.0-20.0	beast_fmri_test	314	1253658,/,1254338,/,1255018,/,1255698,/,1256378,/,1257059,/,1257738,/,1258418,/,1259098,/,1259778,/,1260458,/,1261138,/,1261818,/,1262498,/,1263178,/,1263858,/,1264538,/,1265218,/,1265898,/,1266578,/,1267259,/,1267938,/,1268618,/	t,t,t,t,t,t,t,t,t,t,t,t,t,t,t,t,t,t,t,t,t,t,t	"<div class = ""centerbox""><p class = ""center-block-text"">Your delay is 3 trials.</p><p class = center-block-text>Please wait for the scanner to start the block</p></div>"	77	15000.0	n/a	n/a	n/a	n/a	n/a	n/a	n/a	n/a	n/a	n/a	n/a	n/a	n/a	n/a	n/a	n/a	n/a	n/a	n/a	practice-no-stop-feedback
233764	500	n/a	-1	-1	500	0.0	fixation	poldrack-single-stim	492	1269143	0.0-21.0-0.0	beast_fmri_test	314	n/a	n/a	<div class = centerbox><div class = fixation>+</div></div>	none	500.0	test	n/a	n/a	n/a	n/a	n/a	n/a	n/a	n/a	n/a	n/a	n/a	n/a	n/a	n/a	n/a	n/a	n/a	n/a	fixation
232895.77413729997	2750	n/a	1566	89	2750	870.2258627	stim	stop-signal	493	1271895	0.0-21.0-1.0	beast_fmri_test	314	1269298,/,1269978,/,1270658,/,1271338,/,1272018,/,1272698,/	t,t,t,t,t,t	<img class = center src='/static/experiments/beast_fmri_test/images/P.png'></img>	71,89	2750.0	test	<img class = center src='/static/experiments/beast_fmri_test/images/redP.png'></img>	go	-1.0	3.0	0.0	go	temp-non-target	P	71,Green Button	89,Yellow Button	950.0	1200.0	1800.0	1550.0	0.0	n/a	n/a	n/a	go_stim
235645.77413729997	870.22586269999999	n/a	1566	89	2750	870.2258627	stim	stop-signal	493	1271895	0.0-21.0-1.0	beast_fmri_test	314	1269298,/,1269978,/,1270658,/,1271338,/,1272018,/,1272698,/	t,t,t,t,t,t	<img class = center src='/static/experiments/beast_fmri_test/images/P.png'></img>	71,89	2750.0	test	<img class = center src='/static/experiments/beast_fmri_test/images/redP.png'></img>	go	-1.0	3.0	0.0	go	temp-non-target	P	71,Green Button	89,Yellow Button	950.0	1200.0	1800.0	1550.0	0.0	n/a	n/a	n/a	ITI
237909	500	n/a	-1	-1	500	0.0	fixation	poldrack-single-stim	494	1273288	0.0-21.1-0.1	beast_fmri_test	314	n/a	n/a	<div class = centerbox><div class = fixation>+</div></div>	none	500.0	test	n/a	n/a	n/a	n/a	n/a	n/a	n/a	n/a	n/a	n/a	n/a	n/a	n/a	n/a	n/a	n/a	n/a	n/a	fixation
236596.89873200003	2750	n/a	865	89	2750	1313.101268	stim	stop-signal	495	1276039	0.0-21.1-1.1	beast_fmri_test	314	1273378,/,1274058,/,1274738,/,1275418,/,1276098,/,1276778,/	t,t,t,t,t,t	<img class = center src='/static/experiments/beast_fmri_test/images/T.png'></img>	71,89	2750.0	test	<img class = center src='/static/experiments/beast_fmri_test/images/redT.png'></img>	go	-1.0	3.0	1.0	go	temp-non-target	T	71,Green Button	89,Yellow Button	950.0	1200.0	1800.0	1550.0	0.0	n/a	n/a	n/a	go_stim
239346.89873200003	1313.1012679999999	n/a	865	89	2750	1313.101268	stim	stop-signal	495	1276039	0.0-21.1-1.1	beast_fmri_test	314	1273378,/,1274058,/,1274738,/,1275418,/,1276098,/,1276778,/	t,t,t,t,t,t	<img class = center src='/static/experiments/beast_fmri_test/images/T.png'></img>	71,89	2750.0	test	<img class = center src='/static/experiments/beast_fmri_test/images/redT.png'></img>	go	-1.0	3.0	1.0	go	temp-non-target	T	71,Green Button	89,Yellow Button	950.0	1200.0	1800.0	1550.0	0.0	n/a	n/a	n/a	ITI
242491	500	n/a	-1	-1	500	0.0	fixation	poldrack-single-stim	496	1277870	0.0-21.2-0.2	beast_fmri_test	314	1277459,/	t	<div class = centerbox><div class = fixation>+</div></div>	none	500.0	test	n/a	n/a	n/a	n/a	n/a	n/a	n/a	n/a	n/a	n/a	n/a	n/a	n/a	n/a	n/a	n/a	n/a	n/a	fixation
241963.10322059994	temp_go_duration	n/a	1135	89	2750	528.8967794	stim	stop-signal	497	1280621	0.0-21.2-1.2	beast_fmri_test	314	1278138,/,1278818,/,1279498,/,1280178,/,1280858,/	t,t,t,t,t	<img class = center src='/static/experiments/beast_fmri_test/images/B.png'></img>	71,89	2750.0	test	<img class = center src='/static/experiments/beast_fmri_test/images/redB.png'></img>	stop	-1.0	3.0	2.0	stop	temp-non-target	B	71,Green Button	89,Yellow Button	950.0	1200.0	1800.0	1550.0	0.0	0.0	n/a	n/a	go_stim
temp-non-target	temp_stop_duration	n/a	1135	89	2750	528.8967794	stim	stop-signal	497	1280621	0.0-21.2-1.2	beast_fmri_test	314	1278138,/,1278818,/,1279498,/,1280178,/,1280858,/	t,t,t,t,t	<img class = center src='/static/experiments/beast_fmri_test/images/B.png'></img>	71,89	2750.0	test	<img class = center src='/static/experiments/beast_fmri_test/images/redB.png'></img>	stop	-1.0	3.0	2.0	stop	temp-non-target	B	71,Green Button	89,Yellow Button	950.0	1200.0	1800.0	1550.0	0.0	0.0	n/a	n/a	stop_stim
244713.10322059994	528.89677940000001	n/a	1135	89	2750	528.8967794	stim	stop-signal	497	1280621	0.0-21.2-1.2	beast_fmri_test	314	1278138,/,1278818,/,1279498,/,1280178,/,1280858,/	t,t,t,t,t	<img class = center src='/static/experiments/beast_fmri_test/images/B.png'></img>	71,89	2750.0	test	<img class = center src='/static/experiments/beast_fmri_test/images/redB.png'></img>	stop	-1.0	3.0	2.0	stop	temp-non-target	B	71,Green Button	89,Yellow Button	950.0	1200.0	1800.0	1550.0	0.0	0.0	n/a	n/a	ITI
246290	500	n/a	-1	-1	500	0.0	fixation	poldrack-single-stim	498	1281669	0.0-21.3-0.3	beast_fmri_test	314	1281538,/	t	<div class = centerbox><div class = fixation>+</div></div>	none	500.0	test	n/a	n/a	n/a	n/a	n/a	n/a	n/a	n/a	n/a	n/a	n/a	n/a	n/a	n/a	n/a	n/a	n/a	n/a	fixation
246069.76249080012	2750	n/a	1001	71	2750	221.2375092	stim	stop-signal	499	1284420	0.0-21.3-1.3	beast_fmri_test	314	1282217,/,1282897,/,1283579,/,1284258,/	t,t,t,t	<img class = center src='/static/experiments/beast_fmri_test/images/P.png'></img>	71,89	2750.0	test	<img class = center src='/static/experiments/beast_fmri_test/images/redP.png'></img>	go	1800.0	3.0	3.0	go	target	P	71,Green Button	89,Yellow Button	950.0	1200.0	1800.0	1550.0	1.0	n/a	950.0	1.0	go_stim
248819.76249080012	221.23750919999998	n/a	1001	71	2750	221.2375092	stim	stop-signal	499	1284420	0.0-21.3-1.3	beast_fmri_test	314	1282217,/,1282897,/,1283579,/,1284258,/	t,t,t,t	<img class = center src='/static/experiments/beast_fmri_test/images/P.png'></img>	71,89	2750.0	test	<img class = center src='/static/experiments/beast_fmri_test/images/redP.png'></img>	go	1800.0	3.0	3.0	go	target	P	71,Green Button	89,Yellow Button	950.0	1200.0	1800.0	1550.0	1.0	n/a	950.0	1.0	ITI
249785	500	n/a	-1	-1	500	0.0	fixation	poldrack-single-stim	500	1285164	0.0-21.4-0.4	beast_fmri_test	314	1284939,/	t	<div class = centerbox><div class = fixation>+</div></div>	none	500.0	test	n/a	n/a	n/a	n/a	n/a	n/a	n/a	n/a	n/a	n/a	n/a	n/a	n/a	n/a	n/a	n/a	n/a	n/a	fixation
249497.32672449993	1200.0	n/a	-1	-1	2750	289.6732755	stim	stop-signal	501	1287916	0.0-21.4-1.4	beast_fmri_test	314	1285619,/,1286299,/,1286979,/,1287659,/	t,t,t,t	<img class = center src='/static/experiments/beast_fmri_test/images/B.png'></img>	71,89	2750.0	test	<img class = center src='/static/experiments/beast_fmri_test/images/redB.png'></img>	stop	1550.0	3.0	4.0	stop	non-target	B	71,Green Button	89,Yellow Button	950.0	1200.0	1800.0	1550.0	0.0	1.0	1200.0	0.0	go_stim
251047.32672449993	1550.0	n/a	-1	-1	2750	289.6732755	stim	stop-signal	501	1287916	0.0-21.4-1.4	beast_fmri_test	314	1285619,/,1286299,/,1286979,/,1287659,/	t,t,t,t	<img class = center src='/static/experiments/beast_fmri_test/images/B.png'></img>	71,89	2750.0	test	<img class = center src='/static/experiments/beast_fmri_test/images/redB.png'></img>	stop	1550.0	3.0	4.0	stop	non-target	B	71,Green Button	89,Yellow Button	950.0	1200.0	1800.0	1550.0	0.0	1.0	1200.0	0.0	stop_stim
252247.32672449993	289.67327549999999	n/a	-1	-1	2750	289.6732755	stim	stop-signal	501	1287916	0.0-21.4-1.4	beast_fmri_test	314	1285619,/,1286299,/,1286979,/,1287659,/	t,t,t,t	<img class = center src='/static/experiments/beast_fmri_test/images/B.png'></img>	71,89	2750.0	test	<img class = center src='/static/experiments/beast_fmri_test/images/redB.png'></img>	stop	1550.0	3.0	4.0	stop	non-target	B	71,Green Button	89,Yellow Button	950.0	1200.0	1800.0	1550.0	0.0	1.0	1200.0	0.0	ITI
253348	500	n/a	-1	-1	500	0.0	fixation	poldrack-single-stim	502	1288727	0.0-21.5-0.5	beast_fmri_test	314	1288339,/	t	<div class = centerbox><div class = fixation>+</div></div>	none	500.0	test	n/a	n/a	n/a	n/a	n/a	n/a	n/a	n/a	n/a	n/a	n/a	n/a	n/a	n/a	n/a	n/a	n/a	n/a	fixation
252349.10141999996	2750	n/a	1812	89	2750	1000.89858	stim	stop-signal	503	1291479	0.0-21.5-1.5	beast_fmri_test	314	1289019,/,1289698,/,1290378,/,1291058,/,1291738,/,1292418,/	t,t,t,t,t,t	<img class = center src='/static/experiments/beast_fmri_test/images/T.png'></img>	71,89	2750.0	test	<img class = center src='/static/experiments/beast_fmri_test/images/redT.png'></img>	go	1500.0	3.0	5.0	go	non-target	T	71,Green Button	89,Yellow Button	950.0	1250.0	1800.0	1500.0	1.0	n/a	1250.0	1.0	go_stim
255099.10141999996	1000.89858	n/a	1812	89	2750	1000.89858	stim	stop-signal	503	1291479	0.0-21.5-1.5	beast_fmri_test	314	1289019,/,1289698,/,1290378,/,1291058,/,1291738,/,1292418,/	t,t,t,t,t,t	<img class = center src='/static/experiments/beast_fmri_test/images/T.png'></img>	71,89	2750.0	test	<img class = center src='/static/experiments/beast_fmri_test/images/redT.png'></img>	go	1500.0	3.0	5.0	go	non-target	T	71,Green Button	89,Yellow Button	950.0	1250.0	1800.0	1500.0	1.0	n/a	1250.0	1.0	ITI
257622	500	n/a	-1	-1	500	0.0	fixation	poldrack-single-stim	504	1293001	0.0-21.6-0.6	beast_fmri_test	314	n/a	n/a	<div class = centerbox><div class = fixation>+</div></div>	none	500.0	test	n/a	n/a	n/a	n/a	n/a	n/a	n/a	n/a	n/a	n/a	n/a	n/a	n/a	n/a	n/a	n/a	n/a	n/a	fixation
256783.22527910001	1250.0	n/a	1418	89	2750	839.7747209	stim	stop-signal	505	1295752	0.0-21.6-1.6	beast_fmri_test	314	1293098,/,1293778,/,1294458,/,1295138,/,1295818,/,1296498,/	t,t,t,t,t,t	<img class = center src='/static/experiments/beast_fmri_test/images/V.png'></img>	71,89	2750.0	test	<img class = center src='/static/experiments/beast_fmri_test/images/redV.png'></img>	stop	1500.0	3.0	6.0	stop	non-target	V	71,Green Button	89,Yellow Button	950.0	1250.0	1800.0	1500.0	0.0	0.0	1250.0	1.0	go_stim
258283.22527910001	1500.0	n/a	1418	89	2750	839.7747209	stim	stop-signal	505	1295752	0.0-21.6-1.6	beast_fmri_test	314	1293098,/,1293778,/,1294458,/,1295138,/,1295818,/,1296498,/	t,t,t,t,t,t	<img class = center src='/static/experiments/beast_fmri_test/images/V.png'></img>	71,89	2750.0	test	<img class = center src='/static/experiments/beast_fmri_test/images/redV.png'></img>	stop	1500.0	3.0	6.0	stop	non-target	V	71,Green Button	89,Yellow Button	950.0	1250.0	1800.0	1500.0	0.0	0.0	1250.0	1.0	stop_stim
259533.22527910001	839.77472089999992	n/a	1418	89	2750	839.7747209	stim	stop-signal	505	1295752	0.0-21.6-1.6	beast_fmri_test	314	1293098,/,1293778,/,1294458,/,1295138,/,1295818,/,1296498,/	t,t,t,t,t,t	<img class = center src='/static/experiments/beast_fmri_test/images/V.png'></img>	71,89	2750.0	test	<img class = center src='/static/experiments/beast_fmri_test/images/redV.png'></img>	stop	1500.0	3.0	6.0	stop	non-target	V	71,Green Button	89,Yellow Button	950.0	1250.0	1800.0	1500.0	0.0	0.0	1250.0	1.0	ITI
261737	500	n/a	-1	-1	500	0.0	fixation	poldrack-single-stim	506	1297116	0.0-21.7-0.7	beast_fmri_test	314	n/a	n/a	<div class = centerbox><div class = fixation>+</div></div>	none	500.0	test	n/a	n/a	n/a	n/a	n/a	n/a	n/a	n/a	n/a	n/a	n/a	n/a	n/a	n/a	n/a	n/a	n/a	n/a	fixation
261423.36009269999	2750	n/a	1377	89	2750	313.6399073	stim	stop-signal	507	1299866	0.0-21.7-1.7	beast_fmri_test	314	1297178,/,1297859,/,1298538,/,1299218,/,1299898,/	t,t,t,t,t	<img class = center src='/static/experiments/beast_fmri_test/images/B.png'></img>	71,89	2750.0	test	<img class = center src='/static/experiments/beast_fmri_test/images/redB.png'></img>	go	1800.0	3.0	7.0	go	target	B	71,Green Button	89,Yellow Button	950.0	1200.0	1800.0	1500.0	0.0	n/a	950.0	0.0	go_stim
264173.36009269999	313.6399073	n/a	1377	89	2750	313.6399073	stim	stop-signal	507	1299866	0.0-21.7-1.7	beast_fmri_test	314	1297178,/,1297859,/,1298538,/,1299218,/,1299898,/	t,t,t,t,t	<img class = center src='/static/experiments/beast_fmri_test/images/B.png'></img>	71,89	2750.0	test	<img class = center src='/static/experiments/beast_fmri_test/images/redB.png'></img>	go	1800.0	3.0	7.0	go	target	B	71,Green Button	89,Yellow Button	950.0	1200.0	1800.0	1500.0	0.0	n/a	950.0	0.0	ITI
265323	500	n/a	-1	-1	500	0.0	fixation	poldrack-single-stim	508	1300702	0.0-21.8-0.8	beast_fmri_test	314	1300578,/	t	<div class = centerbox><div class = fixation>+</div></div>	none	500.0	test	n/a	n/a	n/a	n/a	n/a	n/a	n/a	n/a	n/a	n/a	n/a	n/a	n/a	n/a	n/a	n/a	n/a	n/a	fixation
263750.66339499992	1200.0	n/a	-1	-1	2750	1573.336605	stim	stop-signal	509	1303453	0.0-21.8-1.8	beast_fmri_test	314	1301259,/,1301938,/,1302618,/,1303298,/,1303978,/,1304658,/	t,t,t,t,t,t	<img class = center src='/static/experiments/beast_fmri_test/images/P.png'></img>	71,89	2750.0	test	<img class = center src='/static/experiments/beast_fmri_test/images/redP.png'></img>	stop	1550.0	3.0	8.0	stop	non-target	P	71,Green Button	89,Yellow Button	950.0	1200.0	1800.0	1550.0	0.0	1.0	1200.0	0.0	go_stim
265300.66339499992	1550.0	n/a	-1	-1	2750	1573.336605	stim	stop-signal	509	1303453	0.0-21.8-1.8	beast_fmri_test	314	1301259,/,1301938,/,1302618,/,1303298,/,1303978,/,1304658,/	t,t,t,t,t,t	<img class = center src='/static/experiments/beast_fmri_test/images/P.png'></img>	71,89	2750.0	test	<img class = center src='/static/experiments/beast_fmri_test/images/redP.png'></img>	stop	1550.0	3.0	8.0	stop	non-target	P	71,Green Button	89,Yellow Button	950.0	1200.0	1800.0	1550.0	0.0	1.0	1200.0	0.0	stop_stim
266500.66339499992	1573.336605	n/a	-1	-1	2750	1573.336605	stim	stop-signal	509	1303453	0.0-21.8-1.8	beast_fmri_test	314	1301259,/,1301938,/,1302618,/,1303298,/,1303978,/,1304658,/	t,t,t,t,t,t	<img class = center src='/static/experiments/beast_fmri_test/images/P.png'></img>	71,89	2750.0	test	<img class = center src='/static/experiments/beast_fmri_test/images/redP.png'></img>	stop	1550.0	3.0	8.0	stop	non-target	P	71,Green Button	89,Yellow Button	950.0	1200.0	1800.0	1550.0	0.0	1.0	1200.0	0.0	ITI
270166	500	n/a	-1	-1	500	0.0	fixation	poldrack-single-stim	510	1305545	0.0-21.9-0.9	beast_fmri_test	314	1305338,/	t	<div class = centerbox><div class = fixation>+</div></div>	none	500.0	test	n/a	n/a	n/a	n/a	n/a	n/a	n/a	n/a	n/a	n/a	n/a	n/a	n/a	n/a	n/a	n/a	n/a	n/a	fixation
269708.0397045	2750	n/a	812	71	2750	458.9602955	stim	stop-signal	511	1308296	0.0-21.9-1.9	beast_fmri_test	314	1306018,/,1306698,/,1307378,/,1308059,/,1308738,/	t,t,t,t,t	<img class = center src='/static/experiments/beast_fmri_test/images/V.png'></img>	71,89	2750.0	test	<img class = center src='/static/experiments/beast_fmri_test/images/redV.png'></img>	go	1800.0	3.0	9.0	go	target	V	71,Green Button	89,Yellow Button	950.0	1250.0	1800.0	1550.0	1.0	n/a	950.0	1.0	go_stim
272458.0397045	458.96029550000003	n/a	812	71	2750	458.9602955	stim	stop-signal	511	1308296	0.0-21.9-1.9	beast_fmri_test	314	1306018,/,1306698,/,1307378,/,1308059,/,1308738,/	t,t,t,t,t	<img class = center src='/static/experiments/beast_fmri_test/images/V.png'></img>	71,89	2750.0	test	<img class = center src='/static/experiments/beast_fmri_test/images/redV.png'></img>	go	1800.0	3.0	9.0	go	target	V	71,Green Button	89,Yellow Button	950.0	1250.0	1800.0	1550.0	1.0	n/a	950.0	1.0	ITI
273901	500	n/a	-1	-1	500	0.0	fixation	poldrack-single-stim	512	1309280	0.0-21.10-0.10	beast_fmri_test	314	n/a	n/a	<div class = centerbox><div class = fixation>+</div></div>	none	500.0	test	n/a	n/a	n/a	n/a	n/a	n/a	n/a	n/a	n/a	n/a	n/a	n/a	n/a	n/a	n/a	n/a	n/a	n/a	fixation
272893.67816499993	2750	n/a	1882	89	2750	1008.321835	stim	stop-signal	513	1312031	0.0-21.10-1.10	beast_fmri_test	314	1309418,/,1310098,/,1310778,/,1311458,/,1312138,/,1312818,/	t,t,t,t,t,t	<img class = center src='/static/experiments/beast_fmri_test/images/V.png'></img>	71,89	2750.0	test	<img class = center src='/static/experiments/beast_fmri_test/images/redV.png'></img>	go	1500.0	3.0	10.0	go	non-target	V	71,Green Button	89,Yellow Button	950.0	1250.0	1800.0	1500.0	1.0	n/a	1250.0	1.0	go_stim
275643.67816499993	1008.321835	n/a	1882	89	2750	1008.321835	stim	stop-signal	513	1312031	0.0-21.10-1.10	beast_fmri_test	314	1309418,/,1310098,/,1310778,/,1311458,/,1312138,/,1312818,/	t,t,t,t,t,t	<img class = center src='/static/experiments/beast_fmri_test/images/V.png'></img>	71,89	2750.0	test	<img class = center src='/static/experiments/beast_fmri_test/images/redV.png'></img>	go	1500.0	3.0	10.0	go	non-target	V	71,Green Button	89,Yellow Button	950.0	1250.0	1800.0	1500.0	1.0	n/a	1250.0	1.0	ITI
278182	500	n/a	-1	-1	500	0.0	fixation	poldrack-single-stim	514	1313561	0.0-21.11-0.11	beast_fmri_test	314	1313498,/	t	<div class = centerbox><div class = fixation>+</div></div>	none	500.0	test	n/a	n/a	n/a	n/a	n/a	n/a	n/a	n/a	n/a	n/a	n/a	n/a	n/a	n/a	n/a	n/a	n/a	n/a	fixation
277074.05984	2750	n/a	1097	89	2750	1109.94016	stim	stop-signal	515	1316313	0.0-21.11-1.11	beast_fmri_test	314	1314178,/,1314858,/,1315537,/,1316217,/,1316897,/	t,t,t,t,t	<img class = center src='/static/experiments/beast_fmri_test/images/V.png'></img>	71,89	2750.0	test	<img class = center src='/static/experiments/beast_fmri_test/images/redV.png'></img>	go	1500.0	3.0	11.0	go	non-target	V	71,Green Button	89,Yellow Button	950.0	1250.0	1800.0	1500.0	1.0	n/a	1250.0	1.0	go_stim
279824.05984	1109.9401599999999	n/a	1097	89	2750	1109.94016	stim	stop-signal	515	1316313	0.0-21.11-1.11	beast_fmri_test	314	1314178,/,1314858,/,1315537,/,1316217,/,1316897,/	t,t,t,t,t	<img class = center src='/static/experiments/beast_fmri_test/images/V.png'></img>	71,89	2750.0	test	<img class = center src='/static/experiments/beast_fmri_test/images/redV.png'></img>	go	1500.0	3.0	11.0	go	non-target	V	71,Green Button	89,Yellow Button	950.0	1250.0	1800.0	1500.0	1.0	n/a	1250.0	1.0	ITI
282560	500	n/a	-1	-1	500	0.0	fixation	poldrack-single-stim	516	1317939	0.0-21.12-0.12	beast_fmri_test	314	1317578,/	t	<div class = centerbox><div class = fixation>+</div></div>	none	500.0	test	n/a	n/a	n/a	n/a	n/a	n/a	n/a	n/a	n/a	n/a	n/a	n/a	n/a	n/a	n/a	n/a	n/a	n/a	fixation
281819.35470640007	950.0	n/a	875	71	2750	742.6452936	stim	stop-signal	517	1320691	0.0-21.12-1.12	beast_fmri_test	314	1318259,/,1318939,/,1319618,/,1320299,/,1320978,/	t,t,t,t,t	<img class = center src='/static/experiments/beast_fmri_test/images/V.png'></img>	71,89	2750.0	test	<img class = center src='/static/experiments/beast_fmri_test/images/redV.png'></img>	stop	1800.0	3.0	12.0	stop	target	V	71,Green Button	89,Yellow Button	950.0	1250.0	1800.0	1500.0	0.0	0.0	950.0	1.0	go_stim
283619.35470640007	1800.0	n/a	875	71	2750	742.6452936	stim	stop-signal	517	1320691	0.0-21.12-1.12	beast_fmri_test	314	1318259,/,1318939,/,1319618,/,1320299,/,1320978,/	t,t,t,t,t	<img class = center src='/static/experiments/beast_fmri_test/images/V.png'></img>	71,89	2750.0	test	<img class = center src='/static/experiments/beast_fmri_test/images/redV.png'></img>	stop	1800.0	3.0	12.0	stop	target	V	71,Green Button	89,Yellow Button	950.0	1250.0	1800.0	1500.0	0.0	0.0	950.0	1.0	stop_stim
284569.35470640007	742.64529360000006	n/a	875	71	2750	742.6452936	stim	stop-signal	517	1320691	0.0-21.12-1.12	beast_fmri_test	314	1318259,/,1318939,/,1319618,/,1320299,/,1320978,/	t,t,t,t,t	<img class = center src='/static/experiments/beast_fmri_test/images/V.png'></img>	71,89	2750.0	test	<img class = center src='/static/experiments/beast_fmri_test/images/redV.png'></img>	stop	1800.0	3.0	12.0	stop	target	V	71,Green Button	89,Yellow Button	950.0	1250.0	1800.0	1500.0	0.0	0.0	950.0	1.0	ITI
286573	500	n/a	-1	-1	500	0.0	fixation	poldrack-single-stim	518	1321952	0.0-21.13-0.13	beast_fmri_test	314	1321659,/	t	<div class = centerbox><div class = fixation>+</div></div>	none	500.0	test	n/a	n/a	n/a	n/a	n/a	n/a	n/a	n/a	n/a	n/a	n/a	n/a	n/a	n/a	n/a	n/a	n/a	n/a	fixation
286505.21846632008	2750	n/a	999	89	2750	69.78153368	stim	stop-signal	519	1324704	0.0-21.13-1.13	beast_fmri_test	314	1322339,/,1323018,/,1323698,/,1324379,/	t,t,t,t	<img class = center src='/static/experiments/beast_fmri_test/images/D.png'></img>	71,89	2750.0	test	<img class = center src='/static/experiments/beast_fmri_test/images/redD.png'></img>	go	1500.0	3.0	13.0	go	non-target	D	71,Green Button	89,Yellow Button	900.0	1250.0	1800.0	1500.0	1.0	n/a	1250.0	1.0	go_stim
289255.21846632008	69.781533679999995	n/a	999	89	2750	69.78153368	stim	stop-signal	519	1324704	0.0-21.13-1.13	beast_fmri_test	314	1322339,/,1323018,/,1323698,/,1324379,/	t,t,t,t	<img class = center src='/static/experiments/beast_fmri_test/images/D.png'></img>	71,89	2750.0	test	<img class = center src='/static/experiments/beast_fmri_test/images/redD.png'></img>	go	1500.0	3.0	13.0	go	non-target	D	71,Green Button	89,Yellow Button	900.0	1250.0	1800.0	1500.0	1.0	n/a	1250.0	1.0	ITI
289914	500	n/a	-1	-1	500	0.0	fixation	poldrack-single-stim	520	1325293	0.0-21.14-0.14	beast_fmri_test	314	1325058,/	t	<div class = centerbox><div class = fixation>+</div></div>	none	500.0	test	n/a	n/a	n/a	n/a	n/a	n/a	n/a	n/a	n/a	n/a	n/a	n/a	n/a	n/a	n/a	n/a	n/a	n/a	fixation
289474.11489349999	900.0	n/a	-1	-1	2750	440.8851065	stim	stop-signal	521	1328044	0.0-21.14-1.14	beast_fmri_test	314	1325738,/,1326418,/,1327098,/,1327778,/,1328459,/	t,t,t,t,t	<img class = center src='/static/experiments/beast_fmri_test/images/V.png'></img>	71,89	2750.0	test	<img class = center src='/static/experiments/beast_fmri_test/images/redV.png'></img>	stop	1850.0	3.0	14.0	stop	target	V	71,Green Button	89,Yellow Button	900.0	1250.0	1850.0	1500.0	0.0	1.0	900.0	0.0	go_stim
291324.11489349999	1850.0	n/a	-1	-1	2750	440.8851065	stim	stop-signal	521	1328044	0.0-21.14-1.14	beast_fmri_test	314	1325738,/,1326418,/,1327098,/,1327778,/,1328459,/	t,t,t,t,t	<img class = center src='/static/experiments/beast_fmri_test/images/V.png'></img>	71,89	2750.0	test	<img class = center src='/static/experiments/beast_fmri_test/images/redV.png'></img>	stop	1850.0	3.0	14.0	stop	target	V	71,Green Button	89,Yellow Button	900.0	1250.0	1850.0	1500.0	0.0	1.0	900.0	0.0	stop_stim
292224.11489349999	440.88510650000006	n/a	-1	-1	2750	440.8851065	stim	stop-signal	521	1328044	0.0-21.14-1.14	beast_fmri_test	314	1325738,/,1326418,/,1327098,/,1327778,/,1328459,/	t,t,t,t,t	<img class = center src='/static/experiments/beast_fmri_test/images/V.png'></img>	71,89	2750.0	test	<img class = center src='/static/experiments/beast_fmri_test/images/redV.png'></img>	stop	1850.0	3.0	14.0	stop	target	V	71,Green Button	89,Yellow Button	900.0	1250.0	1850.0	1500.0	0.0	1.0	900.0	0.0	ITI
293625	500	n/a	-1	-1	500	0.0	fixation	poldrack-single-stim	522	1329004	0.0-21.15-0.15	beast_fmri_test	314	n/a	n/a	<div class = centerbox><div class = fixation>+</div></div>	none	500.0	test	n/a	n/a	n/a	n/a	n/a	n/a	n/a	n/a	n/a	n/a	n/a	n/a	n/a	n/a	n/a	n/a	n/a	n/a	fixation
291413.10535400012	950.0	n/a	-1	-1	2750	2212.894646	stim	stop-signal	523	1331755	0.0-21.15-1.15	beast_fmri_test	314	1329138,/,1329818,/,1330498,/,1331178,/,1331858,/,1332538,/,1333219,/,1333898,/	t,t,t,t,t,t,t,t	<img class = center src='/static/experiments/beast_fmri_test/images/V.png'></img>	71,89	2750.0	test	<img class = center src='/static/experiments/beast_fmri_test/images/redV.png'></img>	stop	1800.0	3.0	15.0	stop	target	V	71,Green Button	89,Yellow Button	950.0	1250.0	1800.0	1500.0	0.0	1.0	950.0	0.0	go_stim
293213.10535400012	1800.0	n/a	-1	-1	2750	2212.894646	stim	stop-signal	523	1331755	0.0-21.15-1.15	beast_fmri_test	314	1329138,/,1329818,/,1330498,/,1331178,/,1331858,/,1332538,/,1333219,/,1333898,/	t,t,t,t,t,t,t,t	<img class = center src='/static/experiments/beast_fmri_test/images/V.png'></img>	71,89	2750.0	test	<img class = center src='/static/experiments/beast_fmri_test/images/redV.png'></img>	stop	1800.0	3.0	15.0	stop	target	V	71,Green Button	89,Yellow Button	950.0	1250.0	1800.0	1500.0	0.0	1.0	950.0	0.0	stop_stim
294163.10535400012	2212.8946460000002	n/a	-1	-1	2750	2212.894646	stim	stop-signal	523	1331755	0.0-21.15-1.15	beast_fmri_test	314	1329138,/,1329818,/,1330498,/,1331178,/,1331858,/,1332538,/,1333219,/,1333898,/	t,t,t,t,t,t,t,t	<img class = center src='/static/experiments/beast_fmri_test/images/V.png'></img>	71,89	2750.0	test	<img class = center src='/static/experiments/beast_fmri_test/images/redV.png'></img>	stop	1800.0	3.0	15.0	stop	target	V	71,Green Button	89,Yellow Button	950.0	1250.0	1800.0	1500.0	0.0	1.0	950.0	0.0	ITI
299109	500	n/a	-1	-1	500	0.0	fixation	poldrack-single-stim	524	1334488	0.0-21.16-0.16	beast_fmri_test	314	n/a	n/a	<div class = centerbox><div class = fixation>+</div></div>	none	500.0	test	n/a	n/a	n/a	n/a	n/a	n/a	n/a	n/a	n/a	n/a	n/a	n/a	n/a	n/a	n/a	n/a	n/a	n/a	fixation
297603.11645000009	2750	n/a	960	89	2750	1506.88355	stim	stop-signal	525	1337239	0.0-21.16-1.16	beast_fmri_test	314	1334578,/,1335258,/,1335938,/,1336618,/,1337298,/,1337978,/,1338659,/	t,t,t,t,t,t,t	<img class = center src='/static/experiments/beast_fmri_test/images/P.png'></img>	71,89	2750.0	test	<img class = center src='/static/experiments/beast_fmri_test/images/redP.png'></img>	go	1500.0	3.0	16.0	go	non-target	P	71,Green Button	89,Yellow Button	1000.0	1250.0	1800.0	1500.0	1.0	n/a	1250.0	1.0	go_stim
300353.11645000009	1506.88355	n/a	960	89	2750	1506.88355	stim	stop-signal	525	1337239	0.0-21.16-1.16	beast_fmri_test	314	1334578,/,1335258,/,1335938,/,1336618,/,1337298,/,1337978,/,1338659,/	t,t,t,t,t,t,t	<img class = center src='/static/experiments/beast_fmri_test/images/P.png'></img>	71,89	2750.0	test	<img class = center src='/static/experiments/beast_fmri_test/images/redP.png'></img>	go	1500.0	3.0	16.0	go	non-target	P	71,Green Button	89,Yellow Button	1000.0	1250.0	1800.0	1500.0	1.0	n/a	1250.0	1.0	ITI
303887	500	n/a	-1	-1	500	0.0	fixation	poldrack-single-stim	526	1339266	0.0-21.17-0.17	beast_fmri_test	314	n/a	n/a	<div class = centerbox><div class = fixation>+</div></div>	none	500.0	test	n/a	n/a	n/a	n/a	n/a	n/a	n/a	n/a	n/a	n/a	n/a	n/a	n/a	n/a	n/a	n/a	n/a	n/a	fixation
302517.51781000011	2750	n/a	1562	71	2750	1371.48219	stim	stop-signal	527	1342018	0.0-21.17-1.17	beast_fmri_test	314	1339338,/,1340018,/,1340698,/,1341378,/,1342058,/,1342738,/	t,t,t,t,t,t	<img class = center src='/static/experiments/beast_fmri_test/images/V.png'></img>	71,89	2750.0	test	<img class = center src='/static/experiments/beast_fmri_test/images/redV.png'></img>	go	1750.0	3.0	17.0	go	target	V	71,Green Button	89,Yellow Button	1000.0	1250.0	1750.0	1500.0	1.0	n/a	1000.0	1.0	go_stim
305267.51781000011	1371.4821899999999	n/a	1562	71	2750	1371.48219	stim	stop-signal	527	1342018	0.0-21.17-1.17	beast_fmri_test	314	1339338,/,1340018,/,1340698,/,1341378,/,1342058,/,1342738,/	t,t,t,t,t,t	<img class = center src='/static/experiments/beast_fmri_test/images/V.png'></img>	71,89	2750.0	test	<img class = center src='/static/experiments/beast_fmri_test/images/redV.png'></img>	go	1750.0	3.0	17.0	go	target	V	71,Green Button	89,Yellow Button	1000.0	1250.0	1750.0	1500.0	1.0	n/a	1000.0	1.0	ITI
308533	500	n/a	-1	-1	500	0.0	fixation	poldrack-single-stim	528	1343912	0.0-21.18-0.18	beast_fmri_test	314	1343418,/	t	<div class = centerbox><div class = fixation>+</div></div>	none	500.0	test	n/a	n/a	n/a	n/a	n/a	n/a	n/a	n/a	n/a	n/a	n/a	n/a	n/a	n/a	n/a	n/a	n/a	n/a	fixation
307530.84084199998	2750	n/a	2112	89	2750	1003.159158	stim	stop-signal	529	1346663	0.0-21.18-1.18	beast_fmri_test	314	1344098,/,1344778,/,1345458,/,1346138,/,1346818,/,1347498,/	t,t,t,t,t,t	<img class = center src='/static/experiments/beast_fmri_test/images/P.png'></img>	71,89	2750.0	test	<img class = center src='/static/experiments/beast_fmri_test/images/redP.png'></img>	go	1500.0	3.0	18.0	go	non-target	P	71,Green Button	89,Yellow Button	1000.0	1250.0	1750.0	1500.0	1.0	n/a	1250.0	1.0	go_stim
310280.84084199998	1003.159158	n/a	2112	89	2750	1003.159158	stim	stop-signal	529	1346663	0.0-21.18-1.18	beast_fmri_test	314	1344098,/,1344778,/,1345458,/,1346138,/,1346818,/,1347498,/	t,t,t,t,t,t	<img class = center src='/static/experiments/beast_fmri_test/images/P.png'></img>	71,89	2750.0	test	<img class = center src='/static/experiments/beast_fmri_test/images/redP.png'></img>	go	1500.0	3.0	18.0	go	non-target	P	71,Green Button	89,Yellow Button	1000.0	1250.0	1750.0	1500.0	1.0	n/a	1250.0	1.0	ITI
312814	500	n/a	-1	-1	500	0.0	fixation	poldrack-single-stim	530	1348193	0.0-21.19-0.19	beast_fmri_test	314	1348178,/	t	<div class = centerbox><div class = fixation>+</div></div>	none	500.0	test	n/a	n/a	n/a	n/a	n/a	n/a	n/a	n/a	n/a	n/a	n/a	n/a	n/a	n/a	n/a	n/a	n/a	n/a	fixation
312002.50699099991	2750	n/a	2125	89	2750	812.493009	stim	stop-signal	531	1350944	0.0-21.19-1.19	beast_fmri_test	314	1348858,/,1349538,/,1350218,/,1350897,/,1351578,/	t,t,t,t,t	<img class = center src='/static/experiments/beast_fmri_test/images/V.png'></img>	71,89	2750.0	test	<img class = center src='/static/experiments/beast_fmri_test/images/redV.png'></img>	go	1500.0	3.0	19.0	go	non-target	V	71,Green Button	89,Yellow Button	1000.0	1250.0	1750.0	1500.0	1.0	n/a	1250.0	1.0	go_stim
314752.50699099991	812.49300900000003	n/a	2125	89	2750	812.493009	stim	stop-signal	531	1350944	0.0-21.19-1.19	beast_fmri_test	314	1348858,/,1349538,/,1350218,/,1350897,/,1351578,/	t,t,t,t,t	<img class = center src='/static/experiments/beast_fmri_test/images/V.png'></img>	71,89	2750.0	test	<img class = center src='/static/experiments/beast_fmri_test/images/redV.png'></img>	go	1500.0	3.0	19.0	go	non-target	V	71,Green Button	89,Yellow Button	1000.0	1250.0	1750.0	1500.0	1.0	n/a	1250.0	1.0	ITI
316898	500	n/a	-1	-1	500	0.0	fixation	poldrack-single-stim	532	1352277	0.0-21.20-0.20	beast_fmri_test	314	1352259,/	t	<div class = centerbox><div class = fixation>+</div></div>	none	500.0	test	n/a	n/a	n/a	n/a	n/a	n/a	n/a	n/a	n/a	n/a	n/a	n/a	n/a	n/a	n/a	n/a	n/a	n/a	fixation
313492.89032600005	2750	n/a	-1	-1	2750	3406.109674	stim	stop-signal	533	1355028	0.0-21.20-1.20	beast_fmri_test	314	1352939,/,1353619,/,1354298,/,1354978,/,1355659,/,1356339,/,1357018,/,1357698,/,1358378,/	t,t,t,t,t,t,t,t,t	<img class = center src='/static/experiments/beast_fmri_test/images/T.png'></img>	71,89	2750.0	test	<img class = center src='/static/experiments/beast_fmri_test/images/redT.png'></img>	go	1500.0	3.0	20.0	go	non-target	T	71,Green Button	89,Yellow Button	1000.0	1250.0	1750.0	1500.0	0.0	n/a	1250.0	0.0	go_stim
316242.89032600005	3406.1096740000003	n/a	-1	-1	2750	3406.109674	stim	stop-signal	533	1355028	0.0-21.20-1.20	beast_fmri_test	314	1352939,/,1353619,/,1354298,/,1354978,/,1355659,/,1356339,/,1357018,/,1357698,/,1358378,/	t,t,t,t,t,t,t,t,t	<img class = center src='/static/experiments/beast_fmri_test/images/T.png'></img>	71,89	2750.0	test	<img class = center src='/static/experiments/beast_fmri_test/images/redT.png'></img>	go	1500.0	3.0	20.0	go	non-target	T	71,Green Button	89,Yellow Button	1000.0	1250.0	1750.0	1500.0	0.0	n/a	1250.0	0.0	ITI
323574	500	n/a	-1	-1	500	0.0	fixation	poldrack-single-stim	534	1358953	0.0-21.21-0.21	beast_fmri_test	314	n/a	n/a	<div class = centerbox><div class = fixation>+</div></div>	none	500.0	test	n/a	n/a	n/a	n/a	n/a	n/a	n/a	n/a	n/a	n/a	n/a	n/a	n/a	n/a	n/a	n/a	n/a	n/a	fixation
