onset	duration	text	rt	key_press	block_duration	timing_post_trial	trial_id	trial_type	trial_index	time_elapsed	internal_node_id	exp_id	subject_id	trigger_times	triggers	stimulus	possible_responses	stim_duration	exp_stage	SS_stimulus	SS_trial_type	SS_duration	load	trial_num	stop_trial_type	adaptive_trial_type	stim	yes_response_key	no_response_key	SSD_target	SSD_non_target	SSTarget	SSNonTarget	go_acc	stop_acc	SS_delay	adaptive_acc	new_trial_type
test	10880	n/a	-1	-1	10880	0.0	practice-no-stop-feedback	poldrack-single-stim	590	1542562	0.0-24.0	beast_fmri_test	314	1531682,/,1532361,/,1533041,/,1533721,/,1534401,/,1535081,/,1535761,/,1536441,/,1537122,/,1537802,/,1538482,/,1539163,/,1539842,/,1540522,/,1541202,/,1541882,/,1542562,/	t,t,t,t,t,t,t,t,t,t,t,t,t,t,t,t,t	"<div class = ""centerbox""><p class = ""center-block-text"">Your delay is 3 trials.</p><p class = center-block-text>Please wait for the scanner to start the block</p></div>"	77	10880.0	n/a	n/a	n/a	n/a	n/a	n/a	n/a	n/a	n/a	n/a	n/a	n/a	n/a	n/a	n/a	n/a	n/a	n/a	n/a	start_functional_block
11382	500	n/a	-1	-1	500	0.0	fixation	poldrack-single-stim	591	1543064	0.0-25.0-0.0	beast_fmri_test	314	n/a	n/a	<div class = centerbox><div class = fixation>+</div></div>	none	500.0	test	n/a	n/a	n/a	n/a	n/a	n/a	n/a	n/a	n/a	n/a	n/a	n/a	n/a	n/a	n/a	n/a	n/a	n/a	fixation
11337.1103115601	temp_go_duration	n/a	1007	89	2750	45.88968844	stim	stop-signal	592	1545815	0.0-25.0-1.0	beast_fmri_test	314	1543242,/,1543922,/,1544602,/,1545281,/	t,t,t,t	<img class = center src='/static/experiments/beast_fmri_test/images/D.png'></img>	71,89	2750.0	test	<img class = center src='/static/experiments/beast_fmri_test/images/redD.png'></img>	stop	-1.0	3.0	0.0	stop	temp-non-target	D	71,Green Button	89,Yellow Button	1000.0	1100.0	1750.0	1600.0	0.0	0.0	n/a	n/a	go_stim
temp-non-target	temp_stop_duration	n/a	1007	89	2750	45.88968844	stim	stop-signal	592	1545815	0.0-25.0-1.0	beast_fmri_test	314	1543242,/,1543922,/,1544602,/,1545281,/	t,t,t,t	<img class = center src='/static/experiments/beast_fmri_test/images/D.png'></img>	71,89	2750.0	test	<img class = center src='/static/experiments/beast_fmri_test/images/redD.png'></img>	stop	-1.0	3.0	0.0	stop	temp-non-target	D	71,Green Button	89,Yellow Button	1000.0	1100.0	1750.0	1600.0	0.0	0.0	n/a	n/a	stop_stim
14087.1103115601	45.88968844	n/a	1007	89	2750	45.88968844	stim	stop-signal	592	1545815	0.0-25.0-1.0	beast_fmri_test	314	1543242,/,1543922,/,1544602,/,1545281,/	t,t,t,t	<img class = center src='/static/experiments/beast_fmri_test/images/D.png'></img>	71,89	2750.0	test	<img class = center src='/static/experiments/beast_fmri_test/images/redD.png'></img>	stop	-1.0	3.0	0.0	stop	temp-non-target	D	71,Green Button	89,Yellow Button	1000.0	1100.0	1750.0	1600.0	0.0	0.0	n/a	n/a	ITI
14705	500	n/a	-1	-1	500	0.0	fixation	poldrack-single-stim	593	1546387	0.0-25.1-0.1	beast_fmri_test	314	1545962,/	t	<div class = centerbox><div class = fixation>+</div></div>	none	500.0	test	n/a	n/a	n/a	n/a	n/a	n/a	n/a	n/a	n/a	n/a	n/a	n/a	n/a	n/a	n/a	n/a	n/a	n/a	fixation
14574.334625500022	temp_go_duration	n/a	2511	89	2750	131.6653745	stim	stop-signal	594	1549138	0.0-25.1-1.1	beast_fmri_test	314	1546642,/,1547322,/,1548002,/,1548682,/	t,t,t,t	<img class = center src='/static/experiments/beast_fmri_test/images/T.png'></img>	71,89	2750.0	test	<img class = center src='/static/experiments/beast_fmri_test/images/redT.png'></img>	stop	-1.0	3.0	1.0	stop	temp-non-target	T	71,Green Button	89,Yellow Button	1000.0	1100.0	1750.0	1600.0	0.0	0.0	n/a	n/a	go_stim
temp-non-target	temp_stop_duration	n/a	2511	89	2750	131.6653745	stim	stop-signal	594	1549138	0.0-25.1-1.1	beast_fmri_test	314	1546642,/,1547322,/,1548002,/,1548682,/	t,t,t,t	<img class = center src='/static/experiments/beast_fmri_test/images/T.png'></img>	71,89	2750.0	test	<img class = center src='/static/experiments/beast_fmri_test/images/redT.png'></img>	stop	-1.0	3.0	1.0	stop	temp-non-target	T	71,Green Button	89,Yellow Button	1000.0	1100.0	1750.0	1600.0	0.0	0.0	n/a	n/a	stop_stim
17324.334625500022	131.66537450000001	n/a	2511	89	2750	131.6653745	stim	stop-signal	594	1549138	0.0-25.1-1.1	beast_fmri_test	314	1546642,/,1547322,/,1548002,/,1548682,/	t,t,t,t	<img class = center src='/static/experiments/beast_fmri_test/images/T.png'></img>	71,89	2750.0	test	<img class = center src='/static/experiments/beast_fmri_test/images/redT.png'></img>	stop	-1.0	3.0	1.0	stop	temp-non-target	T	71,Green Button	89,Yellow Button	1000.0	1100.0	1750.0	1600.0	0.0	0.0	n/a	n/a	ITI
18111	500	n/a	-1	-1	500	0.0	fixation	poldrack-single-stim	595	1549793	0.0-25.2-0.2	beast_fmri_test	314	1549363,/	t	<div class = centerbox><div class = fixation>+</div></div>	none	500.0	test	n/a	n/a	n/a	n/a	n/a	n/a	n/a	n/a	n/a	n/a	n/a	n/a	n/a	n/a	n/a	n/a	n/a	n/a	fixation
16871.911654999945	temp_go_duration	n/a	1237	89	2750	1241.088345	stim	stop-signal	596	1552545	0.0-25.2-1.2	beast_fmri_test	314	1550042,/,1550722,/,1551402,/,1552082,/,1552762,/,1553442,/	t,t,t,t,t,t	<img class = center src='/static/experiments/beast_fmri_test/images/P.png'></img>	71,89	2750.0	test	<img class = center src='/static/experiments/beast_fmri_test/images/redP.png'></img>	stop	-1.0	3.0	2.0	stop	temp-non-target	P	71,Green Button	89,Yellow Button	1000.0	1100.0	1750.0	1600.0	0.0	0.0	n/a	n/a	go_stim
temp-non-target	temp_stop_duration	n/a	1237	89	2750	1241.088345	stim	stop-signal	596	1552545	0.0-25.2-1.2	beast_fmri_test	314	1550042,/,1550722,/,1551402,/,1552082,/,1552762,/,1553442,/	t,t,t,t,t,t	<img class = center src='/static/experiments/beast_fmri_test/images/P.png'></img>	71,89	2750.0	test	<img class = center src='/static/experiments/beast_fmri_test/images/redP.png'></img>	stop	-1.0	3.0	2.0	stop	temp-non-target	P	71,Green Button	89,Yellow Button	1000.0	1100.0	1750.0	1600.0	0.0	0.0	n/a	n/a	stop_stim
19621.911654999945	1241.0883449999999	n/a	1237	89	2750	1241.088345	stim	stop-signal	596	1552545	0.0-25.2-1.2	beast_fmri_test	314	1550042,/,1550722,/,1551402,/,1552082,/,1552762,/,1553442,/	t,t,t,t,t,t	<img class = center src='/static/experiments/beast_fmri_test/images/P.png'></img>	71,89	2750.0	test	<img class = center src='/static/experiments/beast_fmri_test/images/redP.png'></img>	stop	-1.0	3.0	2.0	stop	temp-non-target	P	71,Green Button	89,Yellow Button	1000.0	1100.0	1750.0	1600.0	0.0	0.0	n/a	n/a	ITI
22625	500	n/a	-1	-1	500	0.0	fixation	poldrack-single-stim	597	1554307	0.0-25.3-0.3	beast_fmri_test	314	1554122,/	t	<div class = centerbox><div class = fixation>+</div></div>	none	500.0	test	n/a	n/a	n/a	n/a	n/a	n/a	n/a	n/a	n/a	n/a	n/a	n/a	n/a	n/a	n/a	n/a	n/a	n/a	fixation
21662.030402200064	1100.0	n/a	895	89	2750	964.9695978	stim	stop-signal	598	1557059	0.0-25.3-1.3	beast_fmri_test	314	1554801,/,1555481,/,1556162,/,1556841,/,1557521,/	t,t,t,t,t	<img class = center src='/static/experiments/beast_fmri_test/images/B.png'></img>	71,89	2750.0	test	<img class = center src='/static/experiments/beast_fmri_test/images/redB.png'></img>	stop	1650.0	3.0	3.0	stop	non-target	B	71,Green Button	89,Yellow Button	1000.0	1100.0	1750.0	1650.0	0.0	0.0	1100.0	1.0	go_stim
23312.030402200064	1650.0	n/a	895	89	2750	964.9695978	stim	stop-signal	598	1557059	0.0-25.3-1.3	beast_fmri_test	314	1554801,/,1555481,/,1556162,/,1556841,/,1557521,/	t,t,t,t,t	<img class = center src='/static/experiments/beast_fmri_test/images/B.png'></img>	71,89	2750.0	test	<img class = center src='/static/experiments/beast_fmri_test/images/redB.png'></img>	stop	1650.0	3.0	3.0	stop	non-target	B	71,Green Button	89,Yellow Button	1000.0	1100.0	1750.0	1650.0	0.0	0.0	1100.0	1.0	stop_stim
24412.030402200064	964.96959779999997	n/a	895	89	2750	964.9695978	stim	stop-signal	598	1557059	0.0-25.3-1.3	beast_fmri_test	314	1554801,/,1555481,/,1556162,/,1556841,/,1557521,/	t,t,t,t,t	<img class = center src='/static/experiments/beast_fmri_test/images/B.png'></img>	71,89	2750.0	test	<img class = center src='/static/experiments/beast_fmri_test/images/redB.png'></img>	stop	1650.0	3.0	3.0	stop	non-target	B	71,Green Button	89,Yellow Button	1000.0	1100.0	1750.0	1650.0	0.0	0.0	1100.0	1.0	ITI
26868	500	n/a	-1	-1	500	0.0	fixation	poldrack-single-stim	599	1558550	0.0-25.4-0.4	beast_fmri_test	314	1558202,/	t	<div class = centerbox><div class = fixation>+</div></div>	none	500.0	test	n/a	n/a	n/a	n/a	n/a	n/a	n/a	n/a	n/a	n/a	n/a	n/a	n/a	n/a	n/a	n/a	n/a	n/a	fixation
23784.165897000115	2750	n/a	1571	89	2750	3085.834103	stim	stop-signal	600	1561302	0.0-25.4-1.4	beast_fmri_test	314	1558881,/,1559562,/,1560241,/,1560922,/,1561601,/,1562282,/,1562961,/,1563641,/,1564321,/	t,t,t,t,t,t,t,t,t	<img class = center src='/static/experiments/beast_fmri_test/images/P.png'></img>	71,89	2750.0	test	<img class = center src='/static/experiments/beast_fmri_test/images/redP.png'></img>	go	1700.0	3.0	4.0	go	non-target	P	71,Green Button	89,Yellow Button	1000.0	1050.0	1750.0	1700.0	1.0	n/a	1050.0	1.0	go_stim
26534.165897000115	3085.8341030000001	n/a	1571	89	2750	3085.834103	stim	stop-signal	600	1561302	0.0-25.4-1.4	beast_fmri_test	314	1558881,/,1559562,/,1560241,/,1560922,/,1561601,/,1562282,/,1562961,/,1563641,/,1564321,/	t,t,t,t,t,t,t,t,t	<img class = center src='/static/experiments/beast_fmri_test/images/P.png'></img>	71,89	2750.0	test	<img class = center src='/static/experiments/beast_fmri_test/images/redP.png'></img>	go	1700.0	3.0	4.0	go	non-target	P	71,Green Button	89,Yellow Button	1000.0	1050.0	1750.0	1700.0	1.0	n/a	1050.0	1.0	ITI
33231	500	n/a	-1	-1	500	0.0	fixation	poldrack-single-stim	601	1564913	0.0-25.5-0.5	beast_fmri_test	314	n/a	n/a	<div class = centerbox><div class = fixation>+</div></div>	none	500.0	test	n/a	n/a	n/a	n/a	n/a	n/a	n/a	n/a	n/a	n/a	n/a	n/a	n/a	n/a	n/a	n/a	n/a	n/a	fixation
33201.399357730057	1000.0	n/a	-1	-1	2750	31.60064227	stim	stop-signal	602	1567665	0.0-25.5-1.5	beast_fmri_test	314	1565002,/,1565682,/,1566361,/,1567041,/	t,t,t,t	<img class = center src='/static/experiments/beast_fmri_test/images/P.png'></img>	71,89	2750.0	test	<img class = center src='/static/experiments/beast_fmri_test/images/redP.png'></img>	stop	1750.0	3.0	5.0	stop	target	P	71,Green Button	89,Yellow Button	1000.0	1050.0	1750.0	1700.0	0.0	1.0	1000.0	0.0	go_stim
34951.399357730057	1750.0	n/a	-1	-1	2750	31.60064227	stim	stop-signal	602	1567665	0.0-25.5-1.5	beast_fmri_test	314	1565002,/,1565682,/,1566361,/,1567041,/	t,t,t,t	<img class = center src='/static/experiments/beast_fmri_test/images/P.png'></img>	71,89	2750.0	test	<img class = center src='/static/experiments/beast_fmri_test/images/redP.png'></img>	stop	1750.0	3.0	5.0	stop	target	P	71,Green Button	89,Yellow Button	1000.0	1050.0	1750.0	1700.0	0.0	1.0	1000.0	0.0	stop_stim
35951.399357730057	31.600642270000002	n/a	-1	-1	2750	31.60064227	stim	stop-signal	602	1567665	0.0-25.5-1.5	beast_fmri_test	314	1565002,/,1565682,/,1566361,/,1567041,/	t,t,t,t	<img class = center src='/static/experiments/beast_fmri_test/images/P.png'></img>	71,89	2750.0	test	<img class = center src='/static/experiments/beast_fmri_test/images/redP.png'></img>	stop	1750.0	3.0	5.0	stop	target	P	71,Green Button	89,Yellow Button	1000.0	1050.0	1750.0	1700.0	0.0	1.0	1000.0	0.0	ITI
36540	500	n/a	-1	-1	500	0.0	fixation	poldrack-single-stim	603	1568222	0.0-25.6-0.6	beast_fmri_test	314	1567722,/	t	<div class = centerbox><div class = fixation>+</div></div>	none	500.0	test	n/a	n/a	n/a	n/a	n/a	n/a	n/a	n/a	n/a	n/a	n/a	n/a	n/a	n/a	n/a	n/a	n/a	n/a	fixation
35486.674116000067	2750	n/a	1405	89	2750	1055.325884	stim	stop-signal	604	1570974	0.0-25.6-1.6	beast_fmri_test	314	1568401,/,1569081,/,1569761,/,1570441,/,1571122,/,1571802,/	t,t,t,t,t,t	<img class = center src='/static/experiments/beast_fmri_test/images/V.png'></img>	71,89	2750.0	test	<img class = center src='/static/experiments/beast_fmri_test/images/redV.png'></img>	go	1700.0	3.0	6.0	go	non-target	V	71,Green Button	89,Yellow Button	1050.0	1050.0	1750.0	1700.0	1.0	n/a	1050.0	1.0	go_stim
38236.674116000067	1055.3258840000001	n/a	1405	89	2750	1055.325884	stim	stop-signal	604	1570974	0.0-25.6-1.6	beast_fmri_test	314	1568401,/,1569081,/,1569761,/,1570441,/,1571122,/,1571802,/	t,t,t,t,t,t	<img class = center src='/static/experiments/beast_fmri_test/images/V.png'></img>	71,89	2750.0	test	<img class = center src='/static/experiments/beast_fmri_test/images/redV.png'></img>	go	1700.0	3.0	6.0	go	non-target	V	71,Green Button	89,Yellow Button	1050.0	1050.0	1750.0	1700.0	1.0	n/a	1050.0	1.0	ITI
40869	500	n/a	-1	-1	500	0.0	fixation	poldrack-single-stim	605	1572551	0.0-25.7-0.7	beast_fmri_test	314	1572482,/	t	<div class = centerbox><div class = fixation>+</div></div>	none	500.0	test	n/a	n/a	n/a	n/a	n/a	n/a	n/a	n/a	n/a	n/a	n/a	n/a	n/a	n/a	n/a	n/a	n/a	n/a	fixation
39371.403900000034	2750	n/a	1795	89	2750	1499.5961	stim	stop-signal	606	1575303	0.0-25.7-1.7	beast_fmri_test	314	1573162,/,1573842,/,1574522,/,1575202,/,1575882,/,1576562,/	t,t,t,t,t,t	<img class = center src='/static/experiments/beast_fmri_test/images/V.png'></img>	71,89	2750.0	test	<img class = center src='/static/experiments/beast_fmri_test/images/redV.png'></img>	go	1700.0	3.0	7.0	go	non-target	V	71,Green Button	89,Yellow Button	1050.0	1050.0	1750.0	1700.0	1.0	n/a	1050.0	1.0	go_stim
42121.403900000034	1499.5961	n/a	1795	89	2750	1499.5961	stim	stop-signal	606	1575303	0.0-25.7-1.7	beast_fmri_test	314	1573162,/,1573842,/,1574522,/,1575202,/,1575882,/,1576562,/	t,t,t,t,t,t	<img class = center src='/static/experiments/beast_fmri_test/images/V.png'></img>	71,89	2750.0	test	<img class = center src='/static/experiments/beast_fmri_test/images/redV.png'></img>	go	1700.0	3.0	7.0	go	non-target	V	71,Green Button	89,Yellow Button	1050.0	1050.0	1750.0	1700.0	1.0	n/a	1050.0	1.0	ITI
45644	500	n/a	-1	-1	500	0.0	fixation	poldrack-single-stim	607	1577326	0.0-25.8-0.8	beast_fmri_test	314	1577242,/	t	<div class = centerbox><div class = fixation>+</div></div>	none	500.0	test	n/a	n/a	n/a	n/a	n/a	n/a	n/a	n/a	n/a	n/a	n/a	n/a	n/a	n/a	n/a	n/a	n/a	n/a	fixation
45072.496324999956	1050.0	n/a	-1	-1	2750	573.503675	stim	stop-signal	608	1580078	0.0-25.8-1.8	beast_fmri_test	314	1577922,/,1578602,/,1579282,/,1579963,/,1580642,/	t,t,t,t,t	<img class = center src='/static/experiments/beast_fmri_test/images/B.png'></img>	71,89	2750.0	test	<img class = center src='/static/experiments/beast_fmri_test/images/redB.png'></img>	stop	1700.0	3.0	8.0	stop	non-target	B	71,Green Button	89,Yellow Button	1050.0	1050.0	1750.0	1700.0	0.0	1.0	1050.0	0.0	go_stim
46772.496324999956	1700.0	n/a	-1	-1	2750	573.503675	stim	stop-signal	608	1580078	0.0-25.8-1.8	beast_fmri_test	314	1577922,/,1578602,/,1579282,/,1579963,/,1580642,/	t,t,t,t,t	<img class = center src='/static/experiments/beast_fmri_test/images/B.png'></img>	71,89	2750.0	test	<img class = center src='/static/experiments/beast_fmri_test/images/redB.png'></img>	stop	1700.0	3.0	8.0	stop	non-target	B	71,Green Button	89,Yellow Button	1050.0	1050.0	1750.0	1700.0	0.0	1.0	1050.0	0.0	stop_stim
47822.496324999956	573.50367500000004	n/a	-1	-1	2750	573.503675	stim	stop-signal	608	1580078	0.0-25.8-1.8	beast_fmri_test	314	1577922,/,1578602,/,1579282,/,1579963,/,1580642,/	t,t,t,t,t	<img class = center src='/static/experiments/beast_fmri_test/images/B.png'></img>	71,89	2750.0	test	<img class = center src='/static/experiments/beast_fmri_test/images/redB.png'></img>	stop	1700.0	3.0	8.0	stop	non-target	B	71,Green Button	89,Yellow Button	1050.0	1050.0	1750.0	1700.0	0.0	1.0	1050.0	0.0	ITI
49497	500	n/a	-1	-1	500	0.0	fixation	poldrack-single-stim	609	1581179	0.0-25.9-0.9	beast_fmri_test	314	n/a	n/a	<div class = centerbox><div class = fixation>+</div></div>	none	500.0	test	n/a	n/a	n/a	n/a	n/a	n/a	n/a	n/a	n/a	n/a	n/a	n/a	n/a	n/a	n/a	n/a	n/a	n/a	fixation
49155.463343200041	1050.0	n/a	1307	71	2750	343.5366568	stim	stop-signal	610	1583931	0.0-25.9-1.9	beast_fmri_test	314	1581322,/,1582002,/,1582682,/,1583362,/,1584042,/	t,t,t,t,t	<img class = center src='/static/experiments/beast_fmri_test/images/V.png'></img>	71,89	2750.0	test	<img class = center src='/static/experiments/beast_fmri_test/images/redV.png'></img>	stop	1700.0	3.0	9.0	stop	target	V	71,Green Button	89,Yellow Button	1050.0	1100.0	1700.0	1700.0	0.0	0.0	1050.0	1.0	go_stim
50855.463343200041	1700.0	n/a	1307	71	2750	343.5366568	stim	stop-signal	610	1583931	0.0-25.9-1.9	beast_fmri_test	314	1581322,/,1582002,/,1582682,/,1583362,/,1584042,/	t,t,t,t,t	<img class = center src='/static/experiments/beast_fmri_test/images/V.png'></img>	71,89	2750.0	test	<img class = center src='/static/experiments/beast_fmri_test/images/redV.png'></img>	stop	1700.0	3.0	9.0	stop	target	V	71,Green Button	89,Yellow Button	1050.0	1100.0	1700.0	1700.0	0.0	0.0	1050.0	1.0	stop_stim
51905.463343200041	343.5366568	n/a	1307	71	2750	343.5366568	stim	stop-signal	610	1583931	0.0-25.9-1.9	beast_fmri_test	314	1581322,/,1582002,/,1582682,/,1583362,/,1584042,/	t,t,t,t,t	<img class = center src='/static/experiments/beast_fmri_test/images/V.png'></img>	71,89	2750.0	test	<img class = center src='/static/experiments/beast_fmri_test/images/redV.png'></img>	stop	1700.0	3.0	9.0	stop	target	V	71,Green Button	89,Yellow Button	1050.0	1100.0	1700.0	1700.0	0.0	0.0	1050.0	1.0	ITI
53115	500	n/a	-1	-1	500	0.0	fixation	poldrack-single-stim	611	1584797	0.0-25.10-0.10	beast_fmri_test	314	1584722,/	t	<div class = centerbox><div class = fixation>+</div></div>	none	500.0	test	n/a	n/a	n/a	n/a	n/a	n/a	n/a	n/a	n/a	n/a	n/a	n/a	n/a	n/a	n/a	n/a	n/a	n/a	fixation
50210.087557000108	2750	n/a	1536	71	2750	2906.912443	stim	stop-signal	612	1587549	0.0-25.10-1.10	beast_fmri_test	314	1585402,/,1586082,/,1586762,/,1587441,/,1588122,/,1588801,/,1589482,/,1590162,/	t,t,t,t,t,t,t,t	<img class = center src='/static/experiments/beast_fmri_test/images/V.png'></img>	71,89	2750.0	test	<img class = center src='/static/experiments/beast_fmri_test/images/redV.png'></img>	go	1750.0	3.0	10.0	go	target	V	71,Green Button	89,Yellow Button	1000.0	1100.0	1750.0	1700.0	1.0	n/a	1000.0	1.0	go_stim
52960.087557000108	2906.9124430000002	n/a	1536	71	2750	2906.912443	stim	stop-signal	612	1587549	0.0-25.10-1.10	beast_fmri_test	314	1585402,/,1586082,/,1586762,/,1587441,/,1588122,/,1588801,/,1589482,/,1590162,/	t,t,t,t,t,t,t,t	<img class = center src='/static/experiments/beast_fmri_test/images/V.png'></img>	71,89	2750.0	test	<img class = center src='/static/experiments/beast_fmri_test/images/redV.png'></img>	go	1750.0	3.0	10.0	go	target	V	71,Green Button	89,Yellow Button	1000.0	1100.0	1750.0	1700.0	1.0	n/a	1000.0	1.0	ITI
59298	500	n/a	-1	-1	500	0.0	fixation	poldrack-single-stim	613	1590980	0.0-25.11-0.11	beast_fmri_test	314	1590842,/	t	<div class = centerbox><div class = fixation>+</div></div>	none	500.0	test	n/a	n/a	n/a	n/a	n/a	n/a	n/a	n/a	n/a	n/a	n/a	n/a	n/a	n/a	n/a	n/a	n/a	n/a	fixation
58270.432981000049	1000.0	n/a	-1	-1	2750	1028.567019	stim	stop-signal	614	1593731	0.0-25.11-1.11	beast_fmri_test	314	1591521,/,1592202,/,1592881,/,1593562,/,1594241,/	t,t,t,t,t	<img class = center src='/static/experiments/beast_fmri_test/images/B.png'></img>	71,89	2750.0	test	<img class = center src='/static/experiments/beast_fmri_test/images/redB.png'></img>	stop	1750.0	3.0	11.0	stop	target	B	71,Green Button	89,Yellow Button	1000.0	1100.0	1750.0	1700.0	0.0	1.0	1000.0	0.0	go_stim
60020.432981000049	1750.0	n/a	-1	-1	2750	1028.567019	stim	stop-signal	614	1593731	0.0-25.11-1.11	beast_fmri_test	314	1591521,/,1592202,/,1592881,/,1593562,/,1594241,/	t,t,t,t,t	<img class = center src='/static/experiments/beast_fmri_test/images/B.png'></img>	71,89	2750.0	test	<img class = center src='/static/experiments/beast_fmri_test/images/redB.png'></img>	stop	1750.0	3.0	11.0	stop	target	B	71,Green Button	89,Yellow Button	1000.0	1100.0	1750.0	1700.0	0.0	1.0	1000.0	0.0	stop_stim
61020.432981000049	1028.5670189999998	n/a	-1	-1	2750	1028.567019	stim	stop-signal	614	1593731	0.0-25.11-1.11	beast_fmri_test	314	1591521,/,1592202,/,1592881,/,1593562,/,1594241,/	t,t,t,t,t	<img class = center src='/static/experiments/beast_fmri_test/images/B.png'></img>	71,89	2750.0	test	<img class = center src='/static/experiments/beast_fmri_test/images/redB.png'></img>	stop	1750.0	3.0	11.0	stop	target	B	71,Green Button	89,Yellow Button	1000.0	1100.0	1750.0	1700.0	0.0	1.0	1000.0	0.0	ITI
63602	500	n/a	-1	-1	500	0.0	fixation	poldrack-single-stim	615	1595284	0.0-25.12-0.12	beast_fmri_test	314	1594922,/	t	<div class = centerbox><div class = fixation>+</div></div>	none	500.0	test	n/a	n/a	n/a	n/a	n/a	n/a	n/a	n/a	n/a	n/a	n/a	n/a	n/a	n/a	n/a	n/a	n/a	n/a	fixation
62385.549824000103	2750	n/a	1272	71	2750	1217.450176	stim	stop-signal	616	1598035	0.0-25.12-1.12	beast_fmri_test	314	1595601,/,1596281,/,1596961,/,1597641,/,1598321,/,1599001,/	t,t,t,t,t,t	<img class = center src='/static/experiments/beast_fmri_test/images/V.png'></img>	71,89	2750.0	test	<img class = center src='/static/experiments/beast_fmri_test/images/redV.png'></img>	go	1700.0	3.0	12.0	go	target	V	71,Green Button	89,Yellow Button	1050.0	1100.0	1700.0	1700.0	1.0	n/a	1050.0	1.0	go_stim
65135.549824000103	1217.4501760000001	n/a	1272	71	2750	1217.450176	stim	stop-signal	616	1598035	0.0-25.12-1.12	beast_fmri_test	314	1595601,/,1596281,/,1596961,/,1597641,/,1598321,/,1599001,/	t,t,t,t,t,t	<img class = center src='/static/experiments/beast_fmri_test/images/V.png'></img>	71,89	2750.0	test	<img class = center src='/static/experiments/beast_fmri_test/images/redV.png'></img>	go	1700.0	3.0	12.0	go	target	V	71,Green Button	89,Yellow Button	1050.0	1100.0	1700.0	1700.0	1.0	n/a	1050.0	1.0	ITI
68092	500	n/a	-1	-1	500	0.0	fixation	poldrack-single-stim	617	1599774	0.0-25.13-0.13	beast_fmri_test	314	1599681,/	t	<div class = centerbox><div class = fixation>+</div></div>	none	500.0	test	n/a	n/a	n/a	n/a	n/a	n/a	n/a	n/a	n/a	n/a	n/a	n/a	n/a	n/a	n/a	n/a	n/a	n/a	fixation
68063.859889060026	2750	n/a	1450	89	2750	29.14011094	stim	stop-signal	618	1602525	0.0-25.13-1.13	beast_fmri_test	314	1600362,/,1601041,/,1601721,/,1602401,/	t,t,t,t	<img class = center src='/static/experiments/beast_fmri_test/images/D.png'></img>	71,89	2750.0	test	<img class = center src='/static/experiments/beast_fmri_test/images/redD.png'></img>	go	1650.0	3.0	13.0	go	non-target	D	71,Green Button	89,Yellow Button	1050.0	1100.0	1700.0	1650.0	1.0	n/a	1100.0	1.0	go_stim
70813.859889060026	29.14011094	n/a	1450	89	2750	29.14011094	stim	stop-signal	618	1602525	0.0-25.13-1.13	beast_fmri_test	314	1600362,/,1601041,/,1601721,/,1602401,/	t,t,t,t	<img class = center src='/static/experiments/beast_fmri_test/images/D.png'></img>	71,89	2750.0	test	<img class = center src='/static/experiments/beast_fmri_test/images/redD.png'></img>	go	1650.0	3.0	13.0	go	non-target	D	71,Green Button	89,Yellow Button	1050.0	1100.0	1700.0	1650.0	1.0	n/a	1100.0	1.0	ITI
71395	500	n/a	-1	-1	500	0.0	fixation	poldrack-single-stim	619	1603077	0.0-25.14-0.14	beast_fmri_test	314	n/a	n/a	<div class = centerbox><div class = fixation>+</div></div>	none	500.0	test	n/a	n/a	n/a	n/a	n/a	n/a	n/a	n/a	n/a	n/a	n/a	n/a	n/a	n/a	n/a	n/a	n/a	n/a	fixation
70669.763345299987	2750	n/a	2093	71	2750	727.2366547	stim	stop-signal	620	1605829	0.0-25.14-1.14	beast_fmri_test	314	1603081,/,1603761,/,1604441,/,1605122,/,1605802,/,1606482,/	t,t,t,t,t,t	<img class = center src='/static/experiments/beast_fmri_test/images/B.png'></img>	71,89	2750.0	test	<img class = center src='/static/experiments/beast_fmri_test/images/redB.png'></img>	go	1700.0	3.0	14.0	go	target	B	71,Green Button	89,Yellow Button	1050.0	1100.0	1700.0	1650.0	1.0	n/a	1050.0	1.0	go_stim
73419.763345299987	727.23665470000003	n/a	2093	71	2750	727.2366547	stim	stop-signal	620	1605829	0.0-25.14-1.14	beast_fmri_test	314	1603081,/,1603761,/,1604441,/,1605122,/,1605802,/,1606482,/	t,t,t,t,t,t	<img class = center src='/static/experiments/beast_fmri_test/images/B.png'></img>	71,89	2750.0	test	<img class = center src='/static/experiments/beast_fmri_test/images/redB.png'></img>	go	1700.0	3.0	14.0	go	target	B	71,Green Button	89,Yellow Button	1050.0	1100.0	1700.0	1650.0	1.0	n/a	1050.0	1.0	ITI
75400	500	n/a	-1	-1	500	0.0	fixation	poldrack-single-stim	621	1607082	0.0-25.15-0.15	beast_fmri_test	314	n/a	n/a	<div class = centerbox><div class = fixation>+</div></div>	none	500.0	test	n/a	n/a	n/a	n/a	n/a	n/a	n/a	n/a	n/a	n/a	n/a	n/a	n/a	n/a	n/a	n/a	n/a	n/a	fixation
71644.859417000087	2750	n/a	2010	89	2750	3756.140583	stim	stop-signal	622	1609833	0.0-25.15-1.15	beast_fmri_test	314	1607162,/,1607842,/,1608522,/,1609202,/,1609882,/,1610563,/,1611242,/,1611922,/,1612602,/,1613282,/	t,t,t,t,t,t,t,t,t,t	<img class = center src='/static/experiments/beast_fmri_test/images/T.png'></img>	71,89	2750.0	test	<img class = center src='/static/experiments/beast_fmri_test/images/redT.png'></img>	go	1650.0	3.0	15.0	go	non-target	T	71,Green Button	89,Yellow Button	1050.0	1100.0	1700.0	1650.0	1.0	n/a	1100.0	1.0	go_stim
74394.859417000087	3756.1405829999999	n/a	2010	89	2750	3756.140583	stim	stop-signal	622	1609833	0.0-25.15-1.15	beast_fmri_test	314	1607162,/,1607842,/,1608522,/,1609202,/,1609882,/,1610563,/,1611242,/,1611922,/,1612602,/,1613282,/	t,t,t,t,t,t,t,t,t,t	<img class = center src='/static/experiments/beast_fmri_test/images/T.png'></img>	71,89	2750.0	test	<img class = center src='/static/experiments/beast_fmri_test/images/redT.png'></img>	go	1650.0	3.0	15.0	go	non-target	T	71,Green Button	89,Yellow Button	1050.0	1100.0	1700.0	1650.0	1.0	n/a	1100.0	1.0	ITI
82439	500	n/a	-1	-1	500	0.0	fixation	poldrack-single-stim	623	1614121	0.0-25.16-0.16	beast_fmri_test	314	1613962,/	t	<div class = centerbox><div class = fixation>+</div></div>	none	500.0	test	n/a	n/a	n/a	n/a	n/a	n/a	n/a	n/a	n/a	n/a	n/a	n/a	n/a	n/a	n/a	n/a	n/a	n/a	fixation
82226.175099099986	2750	n/a	1019	71	2750	213.8249009	stim	stop-signal	624	1616872	0.0-25.16-1.16	beast_fmri_test	314	1614642,/,1615322,/,1616002,/,1616682,/	t,t,t,t	<img class = center src='/static/experiments/beast_fmri_test/images/D.png'></img>	71,89	2750.0	test	<img class = center src='/static/experiments/beast_fmri_test/images/redD.png'></img>	go	1700.0	3.0	16.0	go	target	D	71,Green Button	89,Yellow Button	1050.0	1100.0	1700.0	1650.0	1.0	n/a	1050.0	1.0	go_stim
84976.175099099986	213.82490090000002	n/a	1019	71	2750	213.8249009	stim	stop-signal	624	1616872	0.0-25.16-1.16	beast_fmri_test	314	1614642,/,1615322,/,1616002,/,1616682,/	t,t,t,t	<img class = center src='/static/experiments/beast_fmri_test/images/D.png'></img>	71,89	2750.0	test	<img class = center src='/static/experiments/beast_fmri_test/images/redD.png'></img>	go	1700.0	3.0	16.0	go	target	D	71,Green Button	89,Yellow Button	1050.0	1100.0	1700.0	1650.0	1.0	n/a	1050.0	1.0	ITI
85932	500	n/a	-1	-1	500	0.0	fixation	poldrack-single-stim	625	1617614	0.0-25.17-0.17	beast_fmri_test	314	1617362,/	t	<div class = centerbox><div class = fixation>+</div></div>	none	500.0	test	n/a	n/a	n/a	n/a	n/a	n/a	n/a	n/a	n/a	n/a	n/a	n/a	n/a	n/a	n/a	n/a	n/a	n/a	fixation
84311.184325000038	1100.0	n/a	1269	89	2750	1621.815675	stim	stop-signal	626	1620365	0.0-25.17-1.17	beast_fmri_test	314	1618042,/,1618721,/,1619402,/,1620082,/,1620762,/,1621441,/	t,t,t,t,t,t	<img class = center src='/static/experiments/beast_fmri_test/images/T.png'></img>	71,89	2750.0	test	<img class = center src='/static/experiments/beast_fmri_test/images/redT.png'></img>	stop	1650.0	3.0	17.0	stop	non-target	T	71,Green Button	89,Yellow Button	1050.0	1100.0	1700.0	1650.0	0.0	0.0	1100.0	1.0	go_stim
85961.184325000038	1650.0	n/a	1269	89	2750	1621.815675	stim	stop-signal	626	1620365	0.0-25.17-1.17	beast_fmri_test	314	1618042,/,1618721,/,1619402,/,1620082,/,1620762,/,1621441,/	t,t,t,t,t,t	<img class = center src='/static/experiments/beast_fmri_test/images/T.png'></img>	71,89	2750.0	test	<img class = center src='/static/experiments/beast_fmri_test/images/redT.png'></img>	stop	1650.0	3.0	17.0	stop	non-target	T	71,Green Button	89,Yellow Button	1050.0	1100.0	1700.0	1650.0	0.0	0.0	1100.0	1.0	stop_stim
87061.184325000038	1621.8156750000001	n/a	1269	89	2750	1621.815675	stim	stop-signal	626	1620365	0.0-25.17-1.17	beast_fmri_test	314	1618042,/,1618721,/,1619402,/,1620082,/,1620762,/,1621441,/	t,t,t,t,t,t	<img class = center src='/static/experiments/beast_fmri_test/images/T.png'></img>	71,89	2750.0	test	<img class = center src='/static/experiments/beast_fmri_test/images/redT.png'></img>	stop	1650.0	3.0	17.0	stop	non-target	T	71,Green Button	89,Yellow Button	1050.0	1100.0	1700.0	1650.0	0.0	0.0	1100.0	1.0	ITI
90830	500	n/a	-1	-1	500	0.0	fixation	poldrack-single-stim	627	1622512	0.0-25.18-0.18	beast_fmri_test	314	1622122,/	t	<div class = centerbox><div class = fixation>+</div></div>	none	500.0	test	n/a	n/a	n/a	n/a	n/a	n/a	n/a	n/a	n/a	n/a	n/a	n/a	n/a	n/a	n/a	n/a	n/a	n/a	fixation
89571.0469229999	2750	n/a	1120	89	2750	1259.953077	stim	stop-signal	628	1625263	0.0-25.18-1.18	beast_fmri_test	314	1622802,/,1623482,/,1624162,/,1624841,/,1625521,/,1626201,/	t,t,t,t,t,t	<img class = center src='/static/experiments/beast_fmri_test/images/D.png'></img>	71,89	2750.0	test	<img class = center src='/static/experiments/beast_fmri_test/images/redD.png'></img>	go	1700.0	3.0	18.0	go	non-target	D	71,Green Button	89,Yellow Button	1050.0	1050.0	1700.0	1700.0	1.0	n/a	1050.0	1.0	go_stim
92321.0469229999	1259.9530769999999	n/a	1120	89	2750	1259.953077	stim	stop-signal	628	1625263	0.0-25.18-1.18	beast_fmri_test	314	1622802,/,1623482,/,1624162,/,1624841,/,1625521,/,1626201,/	t,t,t,t,t,t	<img class = center src='/static/experiments/beast_fmri_test/images/D.png'></img>	71,89	2750.0	test	<img class = center src='/static/experiments/beast_fmri_test/images/redD.png'></img>	go	1700.0	3.0	18.0	go	non-target	D	71,Green Button	89,Yellow Button	1050.0	1050.0	1700.0	1700.0	1.0	n/a	1050.0	1.0	ITI
95366	500	n/a	-1	-1	500	0.0	fixation	poldrack-single-stim	629	1627048	0.0-25.19-0.19	beast_fmri_test	314	1626882,/	t	<div class = centerbox><div class = fixation>+</div></div>	none	500.0	test	n/a	n/a	n/a	n/a	n/a	n/a	n/a	n/a	n/a	n/a	n/a	n/a	n/a	n/a	n/a	n/a	n/a	n/a	fixation
95313.278871420072	2750	n/a	1235	71	2750	53.72112858	stim	stop-signal	630	1629799	0.0-25.19-1.19	beast_fmri_test	314	1627562,/,1628241,/,1628922,/,1629601,/	t,t,t,t	<img class = center src='/static/experiments/beast_fmri_test/images/D.png'></img>	71,89	2750.0	test	<img class = center src='/static/experiments/beast_fmri_test/images/redD.png'></img>	go	1700.0	3.0	19.0	go	target	D	71,Green Button	89,Yellow Button	1050.0	1050.0	1700.0	1700.0	1.0	n/a	1050.0	1.0	go_stim
98063.278871420072	53.721128579999998	n/a	1235	71	2750	53.72112858	stim	stop-signal	630	1629799	0.0-25.19-1.19	beast_fmri_test	314	1627562,/,1628241,/,1628922,/,1629601,/	t,t,t,t	<img class = center src='/static/experiments/beast_fmri_test/images/D.png'></img>	71,89	2750.0	test	<img class = center src='/static/experiments/beast_fmri_test/images/redD.png'></img>	go	1700.0	3.0	19.0	go	target	D	71,Green Button	89,Yellow Button	1050.0	1050.0	1700.0	1700.0	1.0	n/a	1050.0	1.0	ITI
98698	500	n/a	-1	-1	500	0.0	fixation	poldrack-single-stim	631	1630380	0.0-25.20-0.20	beast_fmri_test	314	1630282,/	t	<div class = centerbox><div class = fixation>+</div></div>	none	500.0	test	n/a	n/a	n/a	n/a	n/a	n/a	n/a	n/a	n/a	n/a	n/a	n/a	n/a	n/a	n/a	n/a	n/a	n/a	fixation
97899.84947320004	2750	n/a	2647	71	2750	800.1505268	stim	stop-signal	632	1633132	0.0-25.20-1.20	beast_fmri_test	314	1630963,/,1631641,/,1632321,/,1633001,/,1633681,/	t,t,t,t,t	<img class = center src='/static/experiments/beast_fmri_test/images/T.png'></img>	71,89	2750.0	test	<img class = center src='/static/experiments/beast_fmri_test/images/redT.png'></img>	go	1700.0	3.0	20.0	go	target	T	71,Green Button	89,Yellow Button	1050.0	1050.0	1700.0	1700.0	1.0	n/a	1050.0	1.0	go_stim
100649.84947320004	800.15052679999997	n/a	2647	71	2750	800.1505268	stim	stop-signal	632	1633132	0.0-25.20-1.20	beast_fmri_test	314	1630963,/,1631641,/,1632321,/,1633001,/,1633681,/	t,t,t,t,t	<img class = center src='/static/experiments/beast_fmri_test/images/T.png'></img>	71,89	2750.0	test	<img class = center src='/static/experiments/beast_fmri_test/images/redT.png'></img>	go	1700.0	3.0	20.0	go	target	T	71,Green Button	89,Yellow Button	1050.0	1050.0	1700.0	1700.0	1.0	n/a	1050.0	1.0	ITI
102781	500	n/a	-1	-1	500	0.0	fixation	poldrack-single-stim	633	1634463	0.0-25.21-0.21	beast_fmri_test	314	1634361,/	t	<div class = centerbox><div class = fixation>+</div></div>	none	500.0	test	n/a	n/a	n/a	n/a	n/a	n/a	n/a	n/a	n/a	n/a	n/a	n/a	n/a	n/a	n/a	n/a	n/a	n/a	fixation
102498.44089560001	2750	n/a	2194	71	2750	284.5591044	stim	stop-signal	634	1637215	0.0-25.21-1.21	beast_fmri_test	314	1635041,/,1635721,/,1636401,/,1637081,/	t,t,t,t	<img class = center src='/static/experiments/beast_fmri_test/images/D.png'></img>	71,89	2750.0	test	<img class = center src='/static/experiments/beast_fmri_test/images/redD.png'></img>	go	1700.0	3.0	21.0	go	target	D	71,Green Button	89,Yellow Button	1050.0	1050.0	1700.0	1700.0	1.0	n/a	1050.0	1.0	go_stim
105248.44089560001	284.55910439999997	n/a	2194	71	2750	284.5591044	stim	stop-signal	634	1637215	0.0-25.21-1.21	beast_fmri_test	314	1635041,/,1635721,/,1636401,/,1637081,/	t,t,t,t	<img class = center src='/static/experiments/beast_fmri_test/images/D.png'></img>	71,89	2750.0	test	<img class = center src='/static/experiments/beast_fmri_test/images/redD.png'></img>	go	1700.0	3.0	21.0	go	target	D	71,Green Button	89,Yellow Button	1050.0	1050.0	1700.0	1700.0	1.0	n/a	1050.0	1.0	ITI
106344	500	n/a	-1	-1	500	0.0	fixation	poldrack-single-stim	635	1638026	0.0-25.22-0.22	beast_fmri_test	314	1637761,/	t	<div class = centerbox><div class = fixation>+</div></div>	none	500.0	test	n/a	n/a	n/a	n/a	n/a	n/a	n/a	n/a	n/a	n/a	n/a	n/a	n/a	n/a	n/a	n/a	n/a	n/a	fixation
106266.39260404999	2750	n/a	2218	89	2750	78.60739595	stim	stop-signal	636	1640777	0.0-25.22-1.22	beast_fmri_test	314	1638442,/,1639122,/,1639802,/,1640482,/	t,t,t,t	<img class = center src='/static/experiments/beast_fmri_test/images/V.png'></img>	71,89	2750.0	test	<img class = center src='/static/experiments/beast_fmri_test/images/redV.png'></img>	go	1700.0	3.0	22.0	go	non-target	V	71,Green Button	89,Yellow Button	1050.0	1050.0	1700.0	1700.0	1.0	n/a	1050.0	1.0	go_stim
109016.39260404999	78.607395949999997	n/a	2218	89	2750	78.60739595	stim	stop-signal	636	1640777	0.0-25.22-1.22	beast_fmri_test	314	1638442,/,1639122,/,1639802,/,1640482,/	t,t,t,t	<img class = center src='/static/experiments/beast_fmri_test/images/V.png'></img>	71,89	2750.0	test	<img class = center src='/static/experiments/beast_fmri_test/images/redV.png'></img>	go	1700.0	3.0	22.0	go	non-target	V	71,Green Button	89,Yellow Button	1050.0	1050.0	1700.0	1700.0	1.0	n/a	1050.0	1.0	ITI
109701	500	n/a	-1	-1	500	0.0	fixation	poldrack-single-stim	637	1641383	0.0-25.23-0.23	beast_fmri_test	314	1641163,/	t	<div class = centerbox><div class = fixation>+</div></div>	none	500.0	test	n/a	n/a	n/a	n/a	n/a	n/a	n/a	n/a	n/a	n/a	n/a	n/a	n/a	n/a	n/a	n/a	n/a	n/a	fixation
109268.25212539989	1050.0	n/a	-1	-1	2750	433.7478746	stim	stop-signal	638	1644134	0.0-25.23-1.23	beast_fmri_test	314	1641842,/,1642522,/,1643202,/,1643882,/,1644562,/	t,t,t,t,t	<img class = center src='/static/experiments/beast_fmri_test/images/B.png'></img>	71,89	2750.0	test	<img class = center src='/static/experiments/beast_fmri_test/images/redB.png'></img>	stop	1700.0	3.0	23.0	stop	non-target	B	71,Green Button	89,Yellow Button	1050.0	1050.0	1700.0	1700.0	0.0	1.0	1050.0	0.0	go_stim
110968.25212539989	1700.0	n/a	-1	-1	2750	433.7478746	stim	stop-signal	638	1644134	0.0-25.23-1.23	beast_fmri_test	314	1641842,/,1642522,/,1643202,/,1643882,/,1644562,/	t,t,t,t,t	<img class = center src='/static/experiments/beast_fmri_test/images/B.png'></img>	71,89	2750.0	test	<img class = center src='/static/experiments/beast_fmri_test/images/redB.png'></img>	stop	1700.0	3.0	23.0	stop	non-target	B	71,Green Button	89,Yellow Button	1050.0	1050.0	1700.0	1700.0	0.0	1.0	1050.0	0.0	stop_stim
112018.25212539989	433.74787460000005	n/a	-1	-1	2750	433.7478746	stim	stop-signal	638	1644134	0.0-25.23-1.23	beast_fmri_test	314	1641842,/,1642522,/,1643202,/,1643882,/,1644562,/	t,t,t,t,t	<img class = center src='/static/experiments/beast_fmri_test/images/B.png'></img>	71,89	2750.0	test	<img class = center src='/static/experiments/beast_fmri_test/images/redB.png'></img>	stop	1700.0	3.0	23.0	stop	non-target	B	71,Green Button	89,Yellow Button	1050.0	1050.0	1700.0	1700.0	0.0	1.0	1050.0	0.0	ITI
113411	500	n/a	-1	-1	500	0.0	fixation	poldrack-single-stim	639	1645093	0.0-25.24-0.24	beast_fmri_test	314	n/a	n/a	<div class = centerbox><div class = fixation>+</div></div>	none	500.0	test	n/a	n/a	n/a	n/a	n/a	n/a	n/a	n/a	n/a	n/a	n/a	n/a	n/a	n/a	n/a	n/a	n/a	n/a	fixation
113201.44566259999	1100.0	n/a	1056	89	2750	210.5543374	stim	stop-signal	640	1647844	0.0-25.24-1.24	beast_fmri_test	314	1645242,/,1645922,/,1646602,/,1647282,/,1647962,/	t,t,t,t,t	<img class = center src='/static/experiments/beast_fmri_test/images/B.png'></img>	71,89	2750.0	test	<img class = center src='/static/experiments/beast_fmri_test/images/redB.png'></img>	stop	1650.0	3.0	24.0	stop	non-target	B	71,Green Button	89,Yellow Button	1050.0	1100.0	1700.0	1650.0	0.0	0.0	1100.0	1.0	go_stim
114851.44566259999	1650.0	n/a	1056	89	2750	210.5543374	stim	stop-signal	640	1647844	0.0-25.24-1.24	beast_fmri_test	314	1645242,/,1645922,/,1646602,/,1647282,/,1647962,/	t,t,t,t,t	<img class = center src='/static/experiments/beast_fmri_test/images/B.png'></img>	71,89	2750.0	test	<img class = center src='/static/experiments/beast_fmri_test/images/redB.png'></img>	stop	1650.0	3.0	24.0	stop	non-target	B	71,Green Button	89,Yellow Button	1050.0	1100.0	1700.0	1650.0	0.0	0.0	1100.0	1.0	stop_stim
115951.44566259999	210.55433739999998	n/a	1056	89	2750	210.5543374	stim	stop-signal	640	1647844	0.0-25.24-1.24	beast_fmri_test	314	1645242,/,1645922,/,1646602,/,1647282,/,1647962,/	t,t,t,t,t	<img class = center src='/static/experiments/beast_fmri_test/images/B.png'></img>	71,89	2750.0	test	<img class = center src='/static/experiments/beast_fmri_test/images/redB.png'></img>	stop	1650.0	3.0	24.0	stop	non-target	B	71,Green Button	89,Yellow Button	1050.0	1100.0	1700.0	1650.0	0.0	0.0	1100.0	1.0	ITI
116897	500	n/a	-1	-1	500	0.0	fixation	poldrack-single-stim	641	1648579	0.0-25.25-0.25	beast_fmri_test	314	n/a	n/a	<div class = centerbox><div class = fixation>+</div></div>	none	500.0	test	n/a	n/a	n/a	n/a	n/a	n/a	n/a	n/a	n/a	n/a	n/a	n/a	n/a	n/a	n/a	n/a	n/a	n/a	fixation
116313.12765150005	2750	n/a	1880	89	2750	584.8723485	stim	stop-signal	642	1651330	0.0-25.25-1.25	beast_fmri_test	314	1648642,/,1649322,/,1650002,/,1650681,/,1651362,/	t,t,t,t,t	<img class = center src='/static/experiments/beast_fmri_test/images/P.png'></img>	71,89	2750.0	test	<img class = center src='/static/experiments/beast_fmri_test/images/redP.png'></img>	go	1700.0	3.0	25.0	go	non-target	P	71,Green Button	89,Yellow Button	1050.0	1050.0	1700.0	1700.0	1.0	n/a	1050.0	1.0	go_stim
119063.12765150005	584.87234850000004	n/a	1880	89	2750	584.8723485	stim	stop-signal	642	1651330	0.0-25.25-1.25	beast_fmri_test	314	1648642,/,1649322,/,1650002,/,1650681,/,1651362,/	t,t,t,t,t	<img class = center src='/static/experiments/beast_fmri_test/images/P.png'></img>	71,89	2750.0	test	<img class = center src='/static/experiments/beast_fmri_test/images/redP.png'></img>	go	1700.0	3.0	25.0	go	non-target	P	71,Green Button	89,Yellow Button	1050.0	1050.0	1700.0	1700.0	1.0	n/a	1050.0	1.0	ITI
120759	500	n/a	-1	-1	500	0.0	fixation	poldrack-single-stim	643	1652441	0.0-25.26-0.26	beast_fmri_test	314	1652042,/	t	<div class = centerbox><div class = fixation>+</div></div>	none	500.0	test	n/a	n/a	n/a	n/a	n/a	n/a	n/a	n/a	n/a	n/a	n/a	n/a	n/a	n/a	n/a	n/a	n/a	n/a	fixation
120593.122493	1050.0	n/a	-1	-1	2750	167.877507	stim	stop-signal	644	1655193	0.0-25.26-1.26	beast_fmri_test	314	1652722,/,1653402,/,1654082,/,1654762,/	t,t,t,t	<img class = center src='/static/experiments/beast_fmri_test/images/V.png'></img>	71,89	2750.0	test	<img class = center src='/static/experiments/beast_fmri_test/images/redV.png'></img>	stop	1700.0	3.0	26.0	stop	non-target	V	71,Green Button	89,Yellow Button	1050.0	1050.0	1700.0	1700.0	0.0	1.0	1050.0	0.0	go_stim
122293.122493	1700.0	n/a	-1	-1	2750	167.877507	stim	stop-signal	644	1655193	0.0-25.26-1.26	beast_fmri_test	314	1652722,/,1653402,/,1654082,/,1654762,/	t,t,t,t	<img class = center src='/static/experiments/beast_fmri_test/images/V.png'></img>	71,89	2750.0	test	<img class = center src='/static/experiments/beast_fmri_test/images/redV.png'></img>	stop	1700.0	3.0	26.0	stop	non-target	V	71,Green Button	89,Yellow Button	1050.0	1050.0	1700.0	1700.0	0.0	1.0	1050.0	0.0	stop_stim
123343.122493	167.87750700000001	n/a	-1	-1	2750	167.877507	stim	stop-signal	644	1655193	0.0-25.26-1.26	beast_fmri_test	314	1652722,/,1653402,/,1654082,/,1654762,/	t,t,t,t	<img class = center src='/static/experiments/beast_fmri_test/images/V.png'></img>	71,89	2750.0	test	<img class = center src='/static/experiments/beast_fmri_test/images/redV.png'></img>	stop	1700.0	3.0	26.0	stop	non-target	V	71,Green Button	89,Yellow Button	1050.0	1050.0	1700.0	1700.0	0.0	1.0	1050.0	0.0	ITI
124203	500	n/a	-1	-1	500	0.0	fixation	poldrack-single-stim	645	1655885	0.0-25.27-0.27	beast_fmri_test	314	1655442,/	t	<div class = centerbox><div class = fixation>+</div></div>	none	500.0	test	n/a	n/a	n/a	n/a	n/a	n/a	n/a	n/a	n/a	n/a	n/a	n/a	n/a	n/a	n/a	n/a	n/a	n/a	fixation
123806.26587649994	2750	n/a	2630	89	2750	398.7341235	stim	stop-signal	646	1658637	0.0-25.27-1.27	beast_fmri_test	314	1656122,/,1656802,/,1657482,/,1658162,/,1658841,/	t,t,t,t,t	<img class = center src='/static/experiments/beast_fmri_test/images/D.png'></img>	71,89	2750.0	test	<img class = center src='/static/experiments/beast_fmri_test/images/redD.png'></img>	go	1650.0	3.0	27.0	go	non-target	D	71,Green Button	89,Yellow Button	1050.0	1100.0	1700.0	1650.0	1.0	n/a	1100.0	1.0	go_stim
126556.26587649994	398.73412350000001	n/a	2630	89	2750	398.7341235	stim	stop-signal	646	1658637	0.0-25.27-1.27	beast_fmri_test	314	1656122,/,1656802,/,1657482,/,1658162,/,1658841,/	t,t,t,t,t	<img class = center src='/static/experiments/beast_fmri_test/images/D.png'></img>	71,89	2750.0	test	<img class = center src='/static/experiments/beast_fmri_test/images/redD.png'></img>	go	1650.0	3.0	27.0	go	non-target	D	71,Green Button	89,Yellow Button	1050.0	1100.0	1700.0	1650.0	1.0	n/a	1100.0	1.0	ITI
127879	500	n/a	-1	-1	500	0.0	fixation	poldrack-single-stim	647	1659561	0.0-25.28-0.28	beast_fmri_test	314	1659522,/	t	<div class = centerbox><div class = fixation>+</div></div>	none	500.0	test	n/a	n/a	n/a	n/a	n/a	n/a	n/a	n/a	n/a	n/a	n/a	n/a	n/a	n/a	n/a	n/a	n/a	n/a	fixation
127682.57038579998	1100.0	n/a	1347	89	2750	198.4296142	stim	stop-signal	648	1662313	0.0-25.28-1.28	beast_fmri_test	314	1660202,/,1660882,/,1661562,/,1662241,/	t,t,t,t	<img class = center src='/static/experiments/beast_fmri_test/images/V.png'></img>	71,89	2750.0	test	<img class = center src='/static/experiments/beast_fmri_test/images/redV.png'></img>	stop	1650.0	3.0	28.0	stop	non-target	V	71,Green Button	89,Yellow Button	1050.0	1100.0	1700.0	1650.0	0.0	0.0	1100.0	1.0	go_stim
129332.57038579998	1650.0	n/a	1347	89	2750	198.4296142	stim	stop-signal	648	1662313	0.0-25.28-1.28	beast_fmri_test	314	1660202,/,1660882,/,1661562,/,1662241,/	t,t,t,t	<img class = center src='/static/experiments/beast_fmri_test/images/V.png'></img>	71,89	2750.0	test	<img class = center src='/static/experiments/beast_fmri_test/images/redV.png'></img>	stop	1650.0	3.0	28.0	stop	non-target	V	71,Green Button	89,Yellow Button	1050.0	1100.0	1700.0	1650.0	0.0	0.0	1100.0	1.0	stop_stim
130432.57038579998	198.4296142	n/a	1347	89	2750	198.4296142	stim	stop-signal	648	1662313	0.0-25.28-1.28	beast_fmri_test	314	1660202,/,1660882,/,1661562,/,1662241,/	t,t,t,t	<img class = center src='/static/experiments/beast_fmri_test/images/V.png'></img>	71,89	2750.0	test	<img class = center src='/static/experiments/beast_fmri_test/images/redV.png'></img>	stop	1650.0	3.0	28.0	stop	non-target	V	71,Green Button	89,Yellow Button	1050.0	1100.0	1700.0	1650.0	0.0	0.0	1100.0	1.0	ITI
131353	500	n/a	-1	-1	500	0.0	fixation	poldrack-single-stim	649	1663035	0.0-25.29-0.29	beast_fmri_test	314	1662922,/	t	<div class = centerbox><div class = fixation>+</div></div>	none	500.0	test	n/a	n/a	n/a	n/a	n/a	n/a	n/a	n/a	n/a	n/a	n/a	n/a	n/a	n/a	n/a	n/a	n/a	n/a	fixation
129990.72251500003	2750	n/a	2669	71	2750	1363.277485	stim	stop-signal	650	1665786	0.0-25.29-1.29	beast_fmri_test	314	1663602,/,1664281,/,1664962,/,1665641,/,1666321,/,1667001,/	t,t,t,t,t,t	<img class = center src='/static/experiments/beast_fmri_test/images/V.png'></img>	71,89	2750.0	test	<img class = center src='/static/experiments/beast_fmri_test/images/redV.png'></img>	go	1700.0	3.0	29.0	go	target	V	71,Green Button	89,Yellow Button	1050.0	1050.0	1700.0	1650.0	1.0	n/a	1050.0	1.0	go_stim
132740.72251500003	1363.2774850000001	n/a	2669	71	2750	1363.277485	stim	stop-signal	650	1665786	0.0-25.29-1.29	beast_fmri_test	314	1663602,/,1664281,/,1664962,/,1665641,/,1666321,/,1667001,/	t,t,t,t,t,t	<img class = center src='/static/experiments/beast_fmri_test/images/V.png'></img>	71,89	2750.0	test	<img class = center src='/static/experiments/beast_fmri_test/images/redV.png'></img>	go	1700.0	3.0	29.0	go	target	V	71,Green Button	89,Yellow Button	1050.0	1050.0	1700.0	1650.0	1.0	n/a	1050.0	1.0	ITI
135990	500	n/a	-1	-1	500	0.0	fixation	poldrack-single-stim	651	1667672	0.0-25.30-0.30	beast_fmri_test	314	n/a	n/a	<div class = centerbox><div class = fixation>+</div></div>	none	500.0	test	n/a	n/a	n/a	n/a	n/a	n/a	n/a	n/a	n/a	n/a	n/a	n/a	n/a	n/a	n/a	n/a	n/a	n/a	fixation
134221.4866510001	2750	n/a	1146	89	2750	1769.513349	stim	stop-signal	652	1670423	0.0-25.30-1.30	beast_fmri_test	314	1667681,/,1668361,/,1669041,/,1669721,/,1670401,/,1671081,/,1671761,/	t,t,t,t,t,t,t	<img class = center src='/static/experiments/beast_fmri_test/images/V.png'></img>	71,89	2750.0	test	<img class = center src='/static/experiments/beast_fmri_test/images/redV.png'></img>	go	1700.0	3.0	30.0	go	non-target	V	71,Green Button	89,Yellow Button	1050.0	1050.0	1700.0	1700.0	1.0	n/a	1050.0	1.0	go_stim
136971.4866510001	1769.5133489999998	n/a	1146	89	2750	1769.513349	stim	stop-signal	652	1670423	0.0-25.30-1.30	beast_fmri_test	314	1667681,/,1668361,/,1669041,/,1669721,/,1670401,/,1671081,/,1671761,/	t,t,t,t,t,t,t	<img class = center src='/static/experiments/beast_fmri_test/images/V.png'></img>	71,89	2750.0	test	<img class = center src='/static/experiments/beast_fmri_test/images/redV.png'></img>	go	1700.0	3.0	30.0	go	non-target	V	71,Green Button	89,Yellow Button	1050.0	1050.0	1700.0	1700.0	1.0	n/a	1050.0	1.0	ITI
141036	500	n/a	-1	-1	500	0.0	fixation	poldrack-single-stim	653	1672718	0.0-25.31-0.31	beast_fmri_test	314	1672442,/	t	<div class = centerbox><div class = fixation>+</div></div>	none	500.0	test	n/a	n/a	n/a	n/a	n/a	n/a	n/a	n/a	n/a	n/a	n/a	n/a	n/a	n/a	n/a	n/a	n/a	n/a	fixation
139328.29385400005	1050.0	n/a	638	71	2750	1709.706146	stim	stop-signal	654	1675470	0.0-25.31-1.31	beast_fmri_test	314	1673122,/,1673802,/,1674482,/,1675162,/,1675842,/,1676522,/	t,t,t,t,t,t	<img class = center src='/static/experiments/beast_fmri_test/images/V.png'></img>	71,89	2750.0	test	<img class = center src='/static/experiments/beast_fmri_test/images/redV.png'></img>	stop	1700.0	3.0	31.0	stop	target	V	71,Green Button	89,Yellow Button	1050.0	1050.0	1700.0	1700.0	0.0	0.0	1050.0	1.0	go_stim
141028.29385400005	1700.0	n/a	638	71	2750	1709.706146	stim	stop-signal	654	1675470	0.0-25.31-1.31	beast_fmri_test	314	1673122,/,1673802,/,1674482,/,1675162,/,1675842,/,1676522,/	t,t,t,t,t,t	<img class = center src='/static/experiments/beast_fmri_test/images/V.png'></img>	71,89	2750.0	test	<img class = center src='/static/experiments/beast_fmri_test/images/redV.png'></img>	stop	1700.0	3.0	31.0	stop	target	V	71,Green Button	89,Yellow Button	1050.0	1050.0	1700.0	1700.0	0.0	0.0	1050.0	1.0	stop_stim
142078.29385400005	1709.706146	n/a	638	71	2750	1709.706146	stim	stop-signal	654	1675470	0.0-25.31-1.31	beast_fmri_test	314	1673122,/,1673802,/,1674482,/,1675162,/,1675842,/,1676522,/	t,t,t,t,t,t	<img class = center src='/static/experiments/beast_fmri_test/images/V.png'></img>	71,89	2750.0	test	<img class = center src='/static/experiments/beast_fmri_test/images/redV.png'></img>	stop	1700.0	3.0	31.0	stop	target	V	71,Green Button	89,Yellow Button	1050.0	1050.0	1700.0	1700.0	0.0	0.0	1050.0	1.0	ITI
146026	500	n/a	-1	-1	500	0.0	fixation	poldrack-single-stim	655	1677708	0.0-25.32-0.32	beast_fmri_test	314	1677206,/	t	<div class = centerbox><div class = fixation>+</div></div>	none	500.0	test	n/a	n/a	n/a	n/a	n/a	n/a	n/a	n/a	n/a	n/a	n/a	n/a	n/a	n/a	n/a	n/a	n/a	n/a	fixation
143947.28934199992	1050.0	n/a	-1	-1	2750	2080.710658	stim	stop-signal	656	1680460	0.0-25.32-1.32	beast_fmri_test	314	1677882,/,1678562,/,1679242,/,1679922,/,1680602,/,1681282,/,1681962,/	t,t,t,t,t,t,t	<img class = center src='/static/experiments/beast_fmri_test/images/T.png'></img>	71,89	2750.0	test	<img class = center src='/static/experiments/beast_fmri_test/images/redT.png'></img>	stop	1700.0	3.0	32.0	stop	non-target	T	71,Green Button	89,Yellow Button	1000.0	1050.0	1700.0	1700.0	0.0	1.0	1050.0	0.0	go_stim
145647.28934199992	1700.0	n/a	-1	-1	2750	2080.710658	stim	stop-signal	656	1680460	0.0-25.32-1.32	beast_fmri_test	314	1677882,/,1678562,/,1679242,/,1679922,/,1680602,/,1681282,/,1681962,/	t,t,t,t,t,t,t	<img class = center src='/static/experiments/beast_fmri_test/images/T.png'></img>	71,89	2750.0	test	<img class = center src='/static/experiments/beast_fmri_test/images/redT.png'></img>	stop	1700.0	3.0	32.0	stop	non-target	T	71,Green Button	89,Yellow Button	1000.0	1050.0	1700.0	1700.0	0.0	1.0	1050.0	0.0	stop_stim
146697.28934199992	2080.710658	n/a	-1	-1	2750	2080.710658	stim	stop-signal	656	1680460	0.0-25.32-1.32	beast_fmri_test	314	1677882,/,1678562,/,1679242,/,1679922,/,1680602,/,1681282,/,1681962,/	t,t,t,t,t,t,t	<img class = center src='/static/experiments/beast_fmri_test/images/T.png'></img>	71,89	2750.0	test	<img class = center src='/static/experiments/beast_fmri_test/images/redT.png'></img>	stop	1700.0	3.0	32.0	stop	non-target	T	71,Green Button	89,Yellow Button	1000.0	1050.0	1700.0	1700.0	0.0	1.0	1050.0	0.0	ITI
151385	500	n/a	-1	-1	500	0.0	fixation	poldrack-single-stim	657	1683067	0.0-25.33-0.33	beast_fmri_test	314	1682642,/	t	<div class = centerbox><div class = fixation>+</div></div>	none	500.0	test	n/a	n/a	n/a	n/a	n/a	n/a	n/a	n/a	n/a	n/a	n/a	n/a	n/a	n/a	n/a	n/a	n/a	n/a	fixation
151000.85744179995	2750	n/a	1166	71	2750	386.1425582	stim	stop-signal	658	1685819	0.0-25.33-1.33	beast_fmri_test	314	1683322,/,1684002,/,1684681,/,1685362,/,1686041,/	t,t,t,t,t	<img class = center src='/static/experiments/beast_fmri_test/images/V.png'></img>	71,89	2750.0	test	<img class = center src='/static/experiments/beast_fmri_test/images/redV.png'></img>	go	1750.0	3.0	33.0	go	target	V	71,Green Button	89,Yellow Button	1000.0	1100.0	1750.0	1700.0	1.0	n/a	1000.0	1.0	go_stim
153750.85744179995	386.1425582	n/a	1166	71	2750	386.1425582	stim	stop-signal	658	1685819	0.0-25.33-1.33	beast_fmri_test	314	1683322,/,1684002,/,1684681,/,1685362,/,1686041,/	t,t,t,t,t	<img class = center src='/static/experiments/beast_fmri_test/images/V.png'></img>	71,89	2750.0	test	<img class = center src='/static/experiments/beast_fmri_test/images/redV.png'></img>	go	1750.0	3.0	33.0	go	target	V	71,Green Button	89,Yellow Button	1000.0	1100.0	1750.0	1700.0	1.0	n/a	1000.0	1.0	ITI
155049	500	n/a	-1	-1	500	0.0	fixation	poldrack-single-stim	659	1686731	0.0-25.34-0.34	beast_fmri_test	314	1686722,/	t	<div class = centerbox><div class = fixation>+</div></div>	none	500.0	test	n/a	n/a	n/a	n/a	n/a	n/a	n/a	n/a	n/a	n/a	n/a	n/a	n/a	n/a	n/a	n/a	n/a	n/a	fixation
153739.38212900003	2750	n/a	1566	89	2750	1311.617871	stim	stop-signal	660	1689483	0.0-25.34-1.34	beast_fmri_test	314	1687402,/,1688082,/,1688762,/,1689442,/,1690121,/	t,t,t,t,t	<img class = center src='/static/experiments/beast_fmri_test/images/T.png'></img>	71,89	2750.0	test	<img class = center src='/static/experiments/beast_fmri_test/images/redT.png'></img>	go	1650.0	3.0	34.0	go	non-target	T	71,Green Button	89,Yellow Button	1000.0	1100.0	1750.0	1650.0	1.0	n/a	1100.0	1.0	go_stim
156489.38212900003	1311.6178710000002	n/a	1566	89	2750	1311.617871	stim	stop-signal	660	1689483	0.0-25.34-1.34	beast_fmri_test	314	1687402,/,1688082,/,1688762,/,1689442,/,1690121,/	t,t,t,t,t	<img class = center src='/static/experiments/beast_fmri_test/images/T.png'></img>	71,89	2750.0	test	<img class = center src='/static/experiments/beast_fmri_test/images/redT.png'></img>	go	1650.0	3.0	34.0	go	non-target	T	71,Green Button	89,Yellow Button	1000.0	1100.0	1750.0	1650.0	1.0	n/a	1100.0	1.0	ITI
159638	500	n/a	-1	-1	500	0.0	fixation	poldrack-single-stim	661	1691320	0.0-25.35-0.35	beast_fmri_test	314	1690818,/	t	<div class = centerbox><div class = fixation>+</div></div>	none	500.0	test	n/a	n/a	n/a	n/a	n/a	n/a	n/a	n/a	n/a	n/a	n/a	n/a	n/a	n/a	n/a	n/a	n/a	n/a	fixation
158855.10469299997	2750	n/a	796	89	2750	784.895307	stim	stop-signal	662	1694072	0.0-25.35-1.35	beast_fmri_test	314	1691482,/,1692162,/,1692841,/,1693521,/,1694201,/	t,t,t,t,t	<img class = center src='/static/experiments/beast_fmri_test/images/P.png'></img>	71,89	2750.0	test	<img class = center src='/static/experiments/beast_fmri_test/images/redP.png'></img>	go	1650.0	3.0	35.0	go	non-target	P	71,Green Button	89,Yellow Button	1000.0	1100.0	1750.0	1650.0	1.0	n/a	1100.0	1.0	go_stim
161605.10469299997	784.895307	n/a	796	89	2750	784.895307	stim	stop-signal	662	1694072	0.0-25.35-1.35	beast_fmri_test	314	1691482,/,1692162,/,1692841,/,1693521,/,1694201,/	t,t,t,t,t	<img class = center src='/static/experiments/beast_fmri_test/images/P.png'></img>	71,89	2750.0	test	<img class = center src='/static/experiments/beast_fmri_test/images/redP.png'></img>	go	1650.0	3.0	35.0	go	non-target	P	71,Green Button	89,Yellow Button	1000.0	1100.0	1750.0	1650.0	1.0	n/a	1100.0	1.0	ITI
163699	500	n/a	-1	-1	500	0.0	fixation	poldrack-single-stim	663	1695381	0.0-25.36-0.36	beast_fmri_test	314	1694881,/	t	<div class = centerbox><div class = fixation>+</div></div>	none	500.0	test	n/a	n/a	n/a	n/a	n/a	n/a	n/a	n/a	n/a	n/a	n/a	n/a	n/a	n/a	n/a	n/a	n/a	n/a	fixation
163013.38791020005	2750	n/a	1865	71	2750	687.6120898	stim	stop-signal	664	1698133	0.0-25.36-1.36	beast_fmri_test	314	1695561,/,1696242,/,1696921,/,1697601,/,1698281,/	t,t,t,t,t	<img class = center src='/static/experiments/beast_fmri_test/images/V.png'></img>	71,89	2750.0	test	<img class = center src='/static/experiments/beast_fmri_test/images/redV.png'></img>	go	1750.0	3.0	36.0	go	target	V	71,Green Button	89,Yellow Button	1000.0	1100.0	1750.0	1650.0	1.0	n/a	1000.0	1.0	go_stim
165763.38791020005	687.61208979999992	n/a	1865	71	2750	687.6120898	stim	stop-signal	664	1698133	0.0-25.36-1.36	beast_fmri_test	314	1695561,/,1696242,/,1696921,/,1697601,/,1698281,/	t,t,t,t,t	<img class = center src='/static/experiments/beast_fmri_test/images/V.png'></img>	71,89	2750.0	test	<img class = center src='/static/experiments/beast_fmri_test/images/redV.png'></img>	go	1750.0	3.0	36.0	go	target	V	71,Green Button	89,Yellow Button	1000.0	1100.0	1750.0	1650.0	1.0	n/a	1000.0	1.0	ITI
167665	500	n/a	-1	-1	500	0.0	fixation	poldrack-single-stim	665	1699347	0.0-25.37-0.37	beast_fmri_test	314	1698961,/	t	<div class = centerbox><div class = fixation>+</div></div>	none	500.0	test	n/a	n/a	n/a	n/a	n/a	n/a	n/a	n/a	n/a	n/a	n/a	n/a	n/a	n/a	n/a	n/a	n/a	n/a	fixation
167276.86442540004	2750	n/a	1841	89	2750	390.1355746	stim	stop-signal	666	1702099	0.0-25.37-1.37	beast_fmri_test	314	1699641,/,1700321,/,1701001,/,1701681,/,1702362,/	t,t,t,t,t	<img class = center src='/static/experiments/beast_fmri_test/images/P.png'></img>	71,89	2750.0	test	<img class = center src='/static/experiments/beast_fmri_test/images/redP.png'></img>	go	1650.0	3.0	37.0	go	non-target	P	71,Green Button	89,Yellow Button	1000.0	1100.0	1750.0	1650.0	1.0	n/a	1100.0	1.0	go_stim
170026.86442540004	390.13557460000004	n/a	1841	89	2750	390.1355746	stim	stop-signal	666	1702099	0.0-25.37-1.37	beast_fmri_test	314	1699641,/,1700321,/,1701001,/,1701681,/,1702362,/	t,t,t,t,t	<img class = center src='/static/experiments/beast_fmri_test/images/P.png'></img>	71,89	2750.0	test	<img class = center src='/static/experiments/beast_fmri_test/images/redP.png'></img>	go	1650.0	3.0	37.0	go	non-target	P	71,Green Button	89,Yellow Button	1000.0	1100.0	1750.0	1650.0	1.0	n/a	1100.0	1.0	ITI
171336	500	n/a	-1	-1	500	0.0	fixation	poldrack-single-stim	667	1703018	0.0-25.38-0.38	beast_fmri_test	314	n/a	n/a	<div class = centerbox><div class = fixation>+</div></div>	none	500.0	test	n/a	n/a	n/a	n/a	n/a	n/a	n/a	n/a	n/a	n/a	n/a	n/a	n/a	n/a	n/a	n/a	n/a	n/a	fixation
170817.72914279997	2750	n/a	2307	89	2750	519.2708572	stim	stop-signal	668	1705769	0.0-25.38-1.38	beast_fmri_test	314	1703041,/,1703721,/,1704401,/,1705081,/,1705762,/	t,t,t,t,t	<img class = center src='/static/experiments/beast_fmri_test/images/D.png'></img>	71,89	2750.0	test	<img class = center src='/static/experiments/beast_fmri_test/images/redD.png'></img>	go	1650.0	3.0	38.0	go	non-target	D	71,Green Button	89,Yellow Button	1000.0	1100.0	1750.0	1650.0	1.0	n/a	1100.0	1.0	go_stim
173567.72914279997	519.27085720000002	n/a	2307	89	2750	519.2708572	stim	stop-signal	668	1705769	0.0-25.38-1.38	beast_fmri_test	314	1703041,/,1703721,/,1704401,/,1705081,/,1705762,/	t,t,t,t,t	<img class = center src='/static/experiments/beast_fmri_test/images/D.png'></img>	71,89	2750.0	test	<img class = center src='/static/experiments/beast_fmri_test/images/redD.png'></img>	go	1650.0	3.0	38.0	go	non-target	D	71,Green Button	89,Yellow Button	1000.0	1100.0	1750.0	1650.0	1.0	n/a	1100.0	1.0	ITI
175134	500	n/a	-1	-1	500	0.0	fixation	poldrack-single-stim	669	1706816	0.0-25.39-0.39	beast_fmri_test	314	1706442,/	t	<div class = centerbox><div class = fixation>+</div></div>	none	500.0	test	n/a	n/a	n/a	n/a	n/a	n/a	n/a	n/a	n/a	n/a	n/a	n/a	n/a	n/a	n/a	n/a	n/a	n/a	fixation
172881.46183199994	1100.0	n/a	-1	-1	2750	2254.538168	stim	stop-signal	670	1709568	0.0-25.39-1.39	beast_fmri_test	314	1707122,/,1707802,/,1708482,/,1709162,/,1709842,/,1710522,/,1711202,/	t,t,t,t,t,t,t	<img class = center src='/static/experiments/beast_fmri_test/images/B.png'></img>	71,89	2750.0	test	<img class = center src='/static/experiments/beast_fmri_test/images/redB.png'></img>	stop	1650.0	3.0	39.0	stop	non-target	B	71,Green Button	89,Yellow Button	1000.0	1100.0	1750.0	1650.0	0.0	1.0	1100.0	0.0	go_stim
174531.46183199994	1650.0	n/a	-1	-1	2750	2254.538168	stim	stop-signal	670	1709568	0.0-25.39-1.39	beast_fmri_test	314	1707122,/,1707802,/,1708482,/,1709162,/,1709842,/,1710522,/,1711202,/	t,t,t,t,t,t,t	<img class = center src='/static/experiments/beast_fmri_test/images/B.png'></img>	71,89	2750.0	test	<img class = center src='/static/experiments/beast_fmri_test/images/redB.png'></img>	stop	1650.0	3.0	39.0	stop	non-target	B	71,Green Button	89,Yellow Button	1000.0	1100.0	1750.0	1650.0	0.0	1.0	1100.0	0.0	stop_stim
175631.46183199994	2254.538168	n/a	-1	-1	2750	2254.538168	stim	stop-signal	670	1709568	0.0-25.39-1.39	beast_fmri_test	314	1707122,/,1707802,/,1708482,/,1709162,/,1709842,/,1710522,/,1711202,/	t,t,t,t,t,t,t	<img class = center src='/static/experiments/beast_fmri_test/images/B.png'></img>	71,89	2750.0	test	<img class = center src='/static/experiments/beast_fmri_test/images/redB.png'></img>	stop	1650.0	3.0	39.0	stop	non-target	B	71,Green Button	89,Yellow Button	1000.0	1100.0	1750.0	1650.0	0.0	1.0	1100.0	0.0	ITI
180665	500	n/a	-1	-1	500	0.0	fixation	poldrack-single-stim	671	1712347	0.0-25.40-0.40	beast_fmri_test	314	1711882,/	t	<div class = centerbox><div class = fixation>+</div></div>	none	500.0	test	n/a	n/a	n/a	n/a	n/a	n/a	n/a	n/a	n/a	n/a	n/a	n/a	n/a	n/a	n/a	n/a	n/a	n/a	fixation
179342.64978299988	2750	n/a	2095	89	2750	1324.350217	stim	stop-signal	672	1715099	0.0-25.40-1.40	beast_fmri_test	314	1712563,/,1713242,/,1713922,/,1714602,/,1715282,/,1715962,/	t,t,t,t,t,t	<img class = center src='/static/experiments/beast_fmri_test/images/T.png'></img>	71,89	2750.0	test	<img class = center src='/static/experiments/beast_fmri_test/images/redT.png'></img>	go	1600.0	3.0	40.0	go	non-target	T	71,Green Button	89,Yellow Button	1000.0	1150.0	1750.0	1600.0	1.0	n/a	1150.0	1.0	go_stim
182092.64978299988	1324.3502169999999	n/a	2095	89	2750	1324.350217	stim	stop-signal	672	1715099	0.0-25.40-1.40	beast_fmri_test	314	1712563,/,1713242,/,1713922,/,1714602,/,1715282,/,1715962,/	t,t,t,t,t,t	<img class = center src='/static/experiments/beast_fmri_test/images/T.png'></img>	71,89	2750.0	test	<img class = center src='/static/experiments/beast_fmri_test/images/redT.png'></img>	go	1600.0	3.0	40.0	go	non-target	T	71,Green Button	89,Yellow Button	1000.0	1150.0	1750.0	1600.0	1.0	n/a	1150.0	1.0	ITI
185265	500	n/a	-1	-1	500	0.0	fixation	poldrack-single-stim	673	1716947	0.0-25.41-0.41	beast_fmri_test	314	1716642,/	t	<div class = centerbox><div class = fixation>+</div></div>	none	500.0	test	n/a	n/a	n/a	n/a	n/a	n/a	n/a	n/a	n/a	n/a	n/a	n/a	n/a	n/a	n/a	n/a	n/a	n/a	fixation
183870.52022000006	2750	n/a	1120	89	2750	1395.47978	stim	stop-signal	674	1719698	0.0-25.41-1.41	beast_fmri_test	314	1717322,/,1718002,/,1718682,/,1719362,/,1720042,/,1720722,/	t,t,t,t,t,t	<img class = center src='/static/experiments/beast_fmri_test/images/T.png'></img>	71,89	2750.0	test	<img class = center src='/static/experiments/beast_fmri_test/images/redT.png'></img>	go	1600.0	3.0	41.0	go	non-target	T	71,Green Button	89,Yellow Button	1000.0	1150.0	1750.0	1600.0	1.0	n/a	1150.0	1.0	go_stim
186620.52022000006	1395.4797800000001	n/a	1120	89	2750	1395.47978	stim	stop-signal	674	1719698	0.0-25.41-1.41	beast_fmri_test	314	1717322,/,1718002,/,1718682,/,1719362,/,1720042,/,1720722,/	t,t,t,t,t,t	<img class = center src='/static/experiments/beast_fmri_test/images/T.png'></img>	71,89	2750.0	test	<img class = center src='/static/experiments/beast_fmri_test/images/redT.png'></img>	go	1600.0	3.0	41.0	go	non-target	T	71,Green Button	89,Yellow Button	1000.0	1150.0	1750.0	1600.0	1.0	n/a	1150.0	1.0	ITI
189940	500	n/a	-1	-1	500	0.0	fixation	poldrack-single-stim	675	1721622	0.0-25.42-0.42	beast_fmri_test	314	1721402,/	t	<div class = centerbox><div class = fixation>+</div></div>	none	500.0	test	n/a	n/a	n/a	n/a	n/a	n/a	n/a	n/a	n/a	n/a	n/a	n/a	n/a	n/a	n/a	n/a	n/a	n/a	fixation
188636.20747100003	2750	n/a	891	89	2750	1305.792529	stim	stop-signal	676	1724374	0.0-25.42-1.42	beast_fmri_test	314	1722082,/,1722762,/,1723441,/,1724121,/,1724802,/,1725481,/	t,t,t,t,t,t	<img class = center src='/static/experiments/beast_fmri_test/images/T.png'></img>	71,89	2750.0	test	<img class = center src='/static/experiments/beast_fmri_test/images/redT.png'></img>	go	1600.0	3.0	42.0	go	non-target	T	71,Green Button	89,Yellow Button	1000.0	1150.0	1750.0	1600.0	1.0	n/a	1150.0	1.0	go_stim
191386.20747100003	1305.7925289999998	n/a	891	89	2750	1305.792529	stim	stop-signal	676	1724374	0.0-25.42-1.42	beast_fmri_test	314	1722082,/,1722762,/,1723441,/,1724121,/,1724802,/,1725481,/	t,t,t,t,t,t	<img class = center src='/static/experiments/beast_fmri_test/images/T.png'></img>	71,89	2750.0	test	<img class = center src='/static/experiments/beast_fmri_test/images/redT.png'></img>	go	1600.0	3.0	42.0	go	non-target	T	71,Green Button	89,Yellow Button	1000.0	1150.0	1750.0	1600.0	1.0	n/a	1150.0	1.0	ITI
194525	500	n/a	-1	-1	500	0.0	fixation	poldrack-single-stim	677	1726207	0.0-25.43-0.43	beast_fmri_test	314	1726162,/	t	<div class = centerbox><div class = fixation>+</div></div>	none	500.0	test	n/a	n/a	n/a	n/a	n/a	n/a	n/a	n/a	n/a	n/a	n/a	n/a	n/a	n/a	n/a	n/a	n/a	n/a	fixation
193523.10941500007	1000.0	n/a	444	71	2750	1003.890585	stim	stop-signal	678	1728959	0.0-25.43-1.43	beast_fmri_test	314	1726841,/,1727522,/,1728201,/,1728881,/,1729561,/	t,t,t,t,t	<img class = center src='/static/experiments/beast_fmri_test/images/T.png'></img>	71,89	2750.0	test	<img class = center src='/static/experiments/beast_fmri_test/images/redT.png'></img>	stop	1750.0	3.0	43.0	stop	target	T	71,Green Button	89,Yellow Button	1000.0	1150.0	1750.0	1600.0	0.0	0.0	1000.0	1.0	go_stim
195273.10941500007	1750.0	n/a	444	71	2750	1003.890585	stim	stop-signal	678	1728959	0.0-25.43-1.43	beast_fmri_test	314	1726841,/,1727522,/,1728201,/,1728881,/,1729561,/	t,t,t,t,t	<img class = center src='/static/experiments/beast_fmri_test/images/T.png'></img>	71,89	2750.0	test	<img class = center src='/static/experiments/beast_fmri_test/images/redT.png'></img>	stop	1750.0	3.0	43.0	stop	target	T	71,Green Button	89,Yellow Button	1000.0	1150.0	1750.0	1600.0	0.0	0.0	1000.0	1.0	stop_stim
196273.10941500007	1003.890585	n/a	444	71	2750	1003.890585	stim	stop-signal	678	1728959	0.0-25.43-1.43	beast_fmri_test	314	1726841,/,1727522,/,1728201,/,1728881,/,1729561,/	t,t,t,t,t	<img class = center src='/static/experiments/beast_fmri_test/images/T.png'></img>	71,89	2750.0	test	<img class = center src='/static/experiments/beast_fmri_test/images/redT.png'></img>	stop	1750.0	3.0	43.0	stop	target	T	71,Green Button	89,Yellow Button	1000.0	1150.0	1750.0	1600.0	0.0	0.0	1000.0	1.0	ITI
198810	500	n/a	-1	-1	500	0.0	fixation	poldrack-single-stim	679	1730492	0.0-25.44-0.44	beast_fmri_test	314	1730241,/	t	<div class = centerbox><div class = fixation>+</div></div>	none	500.0	test	n/a	n/a	n/a	n/a	n/a	n/a	n/a	n/a	n/a	n/a	n/a	n/a	n/a	n/a	n/a	n/a	n/a	n/a	fixation
196261.90442400007	1150.0	n/a	966	89	2750	2549.095576	stim	stop-signal	680	1733243	0.0-25.44-1.44	beast_fmri_test	314	1730922,/,1731601,/,1732281,/,1732962,/,1733641,/,1734321,/,1735001,/,1735681,/	t,t,t,t,t,t,t,t	<img class = center src='/static/experiments/beast_fmri_test/images/B.png'></img>	71,89	2750.0	test	<img class = center src='/static/experiments/beast_fmri_test/images/redB.png'></img>	stop	1600.0	3.0	44.0	stop	non-target	B	71,Green Button	89,Yellow Button	950.0	1150.0	1750.0	1600.0	0.0	0.0	1150.0	1.0	go_stim
197861.90442400007	1600.0	n/a	966	89	2750	2549.095576	stim	stop-signal	680	1733243	0.0-25.44-1.44	beast_fmri_test	314	1730922,/,1731601,/,1732281,/,1732962,/,1733641,/,1734321,/,1735001,/,1735681,/	t,t,t,t,t,t,t,t	<img class = center src='/static/experiments/beast_fmri_test/images/B.png'></img>	71,89	2750.0	test	<img class = center src='/static/experiments/beast_fmri_test/images/redB.png'></img>	stop	1600.0	3.0	44.0	stop	non-target	B	71,Green Button	89,Yellow Button	950.0	1150.0	1750.0	1600.0	0.0	0.0	1150.0	1.0	stop_stim
199011.90442400007	2549.0955760000002	n/a	966	89	2750	2549.095576	stim	stop-signal	680	1733243	0.0-25.44-1.44	beast_fmri_test	314	1730922,/,1731601,/,1732281,/,1732962,/,1733641,/,1734321,/,1735001,/,1735681,/	t,t,t,t,t,t,t,t	<img class = center src='/static/experiments/beast_fmri_test/images/B.png'></img>	71,89	2750.0	test	<img class = center src='/static/experiments/beast_fmri_test/images/redB.png'></img>	stop	1600.0	3.0	44.0	stop	non-target	B	71,Green Button	89,Yellow Button	950.0	1150.0	1750.0	1600.0	0.0	0.0	1150.0	1.0	ITI
204632	500	n/a	-1	-1	500	0.0	fixation	poldrack-single-stim	681	1736314	0.0-25.45-0.45	beast_fmri_test	314	n/a	n/a	<div class = centerbox><div class = fixation>+</div></div>	none	500.0	test	n/a	n/a	n/a	n/a	n/a	n/a	n/a	n/a	n/a	n/a	n/a	n/a	n/a	n/a	n/a	n/a	n/a	n/a	fixation
204564.75138625992	2750	n/a	2085	89	2750	69.24861374	stim	stop-signal	682	1739066	0.0-25.45-1.45	beast_fmri_test	314	1736361,/,1737041,/,1737721,/,1738402,/,1739081,/	t,t,t,t,t	<img class = center src='/static/experiments/beast_fmri_test/images/V.png'></img>	71,89	2750.0	test	<img class = center src='/static/experiments/beast_fmri_test/images/redV.png'></img>	go	1650.0	3.0	45.0	go	non-target	V	71,Green Button	89,Yellow Button	950.0	1100.0	1750.0	1650.0	1.0	n/a	1100.0	1.0	go_stim
207314.75138625992	69.248613739999996	n/a	2085	89	2750	69.24861374	stim	stop-signal	682	1739066	0.0-25.45-1.45	beast_fmri_test	314	1736361,/,1737041,/,1737721,/,1738402,/,1739081,/	t,t,t,t,t	<img class = center src='/static/experiments/beast_fmri_test/images/V.png'></img>	71,89	2750.0	test	<img class = center src='/static/experiments/beast_fmri_test/images/redV.png'></img>	go	1650.0	3.0	45.0	go	non-target	V	71,Green Button	89,Yellow Button	950.0	1100.0	1750.0	1650.0	1.0	n/a	1100.0	1.0	ITI
207979	500	n/a	-1	-1	500	0.0	fixation	poldrack-single-stim	683	1739661	0.0-25.46-0.46	beast_fmri_test	314	n/a	n/a	<div class = centerbox><div class = fixation>+</div></div>	none	500.0	test	n/a	n/a	n/a	n/a	n/a	n/a	n/a	n/a	n/a	n/a	n/a	n/a	n/a	n/a	n/a	n/a	n/a	n/a	fixation
207715.02650379995	2750	n/a	2614	89	2750	264.9734962	stim	stop-signal	684	1742412	0.0-25.46-1.46	beast_fmri_test	314	1739762,/,1740441,/,1741122,/,1741802,/,1742482,/	t,t,t,t,t	<img class = center src='/static/experiments/beast_fmri_test/images/P.png'></img>	71,89	2750.0	test	<img class = center src='/static/experiments/beast_fmri_test/images/redP.png'></img>	go	1650.0	3.0	46.0	go	non-target	P	71,Green Button	89,Yellow Button	950.0	1100.0	1750.0	1650.0	1.0	n/a	1100.0	1.0	go_stim
210465.02650379995	264.9734962	n/a	2614	89	2750	264.9734962	stim	stop-signal	684	1742412	0.0-25.46-1.46	beast_fmri_test	314	1739762,/,1740441,/,1741122,/,1741802,/,1742482,/	t,t,t,t,t	<img class = center src='/static/experiments/beast_fmri_test/images/P.png'></img>	71,89	2750.0	test	<img class = center src='/static/experiments/beast_fmri_test/images/redP.png'></img>	go	1650.0	3.0	46.0	go	non-target	P	71,Green Button	89,Yellow Button	950.0	1100.0	1750.0	1650.0	1.0	n/a	1100.0	1.0	ITI
211520	500	n/a	-1	-1	500	0.0	fixation	poldrack-single-stim	685	1743202	0.0-25.47-0.47	beast_fmri_test	314	1743163,/	t	<div class = centerbox><div class = fixation>+</div></div>	none	500.0	test	n/a	n/a	n/a	n/a	n/a	n/a	n/a	n/a	n/a	n/a	n/a	n/a	n/a	n/a	n/a	n/a	n/a	n/a	fixation
211152.08551830007	2750	n/a	-1	-1	2750	369.9144817	stim	stop-signal	686	1745954	0.0-25.47-1.47	beast_fmri_test	314	1743842,/,1744522,/,1745202,/,1745882,/	t,t,t,t	<img class = center src='/static/experiments/beast_fmri_test/images/D.png'></img>	71,89	2750.0	test	<img class = center src='/static/experiments/beast_fmri_test/images/redD.png'></img>	go	1650.0	3.0	47.0	go	non-target	D	71,Green Button	89,Yellow Button	950.0	1100.0	1750.0	1650.0	0.0	n/a	1100.0	0.0	go_stim
213902.08551830007	369.91448169999995	n/a	-1	-1	2750	369.9144817	stim	stop-signal	686	1745954	0.0-25.47-1.47	beast_fmri_test	314	1743842,/,1744522,/,1745202,/,1745882,/	t,t,t,t	<img class = center src='/static/experiments/beast_fmri_test/images/D.png'></img>	71,89	2750.0	test	<img class = center src='/static/experiments/beast_fmri_test/images/redD.png'></img>	go	1650.0	3.0	47.0	go	non-target	D	71,Green Button	89,Yellow Button	950.0	1100.0	1750.0	1650.0	0.0	n/a	1100.0	0.0	ITI
229668	15000	n/a	-1	-1	15000	0.0	practice-no-stop-feedback	poldrack-single-stim	687	1761350	0.0-26.0	beast_fmri_test	314	1746562,/,1747242,/,1747922,/,1748602,/,1749282,/,1749962,/,1750642,/,1751322,/,1752002,/,1752682,/,1753362,/,1754042,/,1754722,/,1755402,/,1756082,/,1756762,/,1757442,/,1758121,/,1758802,/,1759481,/,1760161,/,1760841,/	t,t,t,t,t,t,t,t,t,t,t,t,t,t,t,t,t,t,t,t,t,t	"<div class = ""centerbox""><p class = ""center-block-text"">Your delay is 4 trials.</p><p class = center-block-text>Please wait for the scanner to start the block</p></div>"	77	15000.0	n/a	n/a	n/a	n/a	n/a	n/a	n/a	n/a	n/a	n/a	n/a	n/a	n/a	n/a	n/a	n/a	n/a	n/a	n/a	practice-no-stop-feedback
230170	500	n/a	-1	-1	500	0.0	fixation	poldrack-single-stim	688	1761852	0.0-27.0-0.0	beast_fmri_test	314	1761522,/	t	<div class = centerbox><div class = fixation>+</div></div>	none	500.0	test	n/a	n/a	n/a	n/a	n/a	n/a	n/a	n/a	n/a	n/a	n/a	n/a	n/a	n/a	n/a	n/a	n/a	n/a	fixation
229746.95365709998	2750	n/a	1010	89	2750	425.0463429	stim	stop-signal	689	1764604	0.0-27.0-1.0	beast_fmri_test	314	1762201,/,1762881,/,1763562,/,1764241,/,1764921,/	t,t,t,t,t	<img class = center src='/static/experiments/beast_fmri_test/images/P.png'></img>	71,89	2750.0	test	<img class = center src='/static/experiments/beast_fmri_test/images/redP.png'></img>	go	-1.0	4.0	0.0	go	temp-non-target	P	71,Green Button	89,Yellow Button	950.0	1100.0	1750.0	1650.0	0.0	n/a	n/a	n/a	go_stim
232496.95365709998	425.04634289999996	n/a	1010	89	2750	425.0463429	stim	stop-signal	689	1764604	0.0-27.0-1.0	beast_fmri_test	314	1762201,/,1762881,/,1763562,/,1764241,/,1764921,/	t,t,t,t,t	<img class = center src='/static/experiments/beast_fmri_test/images/P.png'></img>	71,89	2750.0	test	<img class = center src='/static/experiments/beast_fmri_test/images/redP.png'></img>	go	-1.0	4.0	0.0	go	temp-non-target	P	71,Green Button	89,Yellow Button	950.0	1100.0	1750.0	1650.0	0.0	n/a	n/a	n/a	ITI
233877	500	n/a	-1	-1	500	0.0	fixation	poldrack-single-stim	690	1765559	0.0-27.1-0.1	beast_fmri_test	314	n/a	n/a	<div class = centerbox><div class = fixation>+</div></div>	none	500.0	test	n/a	n/a	n/a	n/a	n/a	n/a	n/a	n/a	n/a	n/a	n/a	n/a	n/a	n/a	n/a	n/a	n/a	n/a	fixation
233785.14995095995	temp_go_duration	n/a	1199	89	2750	93.85004904	stim	stop-signal	691	1768311	0.0-27.1-1.1	beast_fmri_test	314	1765601,/,1766281,/,1766961,/,1767641,/,1768321,/	t,t,t,t,t	<img class = center src='/static/experiments/beast_fmri_test/images/T.png'></img>	71,89	2750.0	test	<img class = center src='/static/experiments/beast_fmri_test/images/redT.png'></img>	stop	-1.0	4.0	1.0	stop	temp-non-target	T	71,Green Button	89,Yellow Button	950.0	1100.0	1750.0	1650.0	0.0	0.0	n/a	n/a	go_stim
temp-non-target	temp_stop_duration	n/a	1199	89	2750	93.85004904	stim	stop-signal	691	1768311	0.0-27.1-1.1	beast_fmri_test	314	1765601,/,1766281,/,1766961,/,1767641,/,1768321,/	t,t,t,t,t	<img class = center src='/static/experiments/beast_fmri_test/images/T.png'></img>	71,89	2750.0	test	<img class = center src='/static/experiments/beast_fmri_test/images/redT.png'></img>	stop	-1.0	4.0	1.0	stop	temp-non-target	T	71,Green Button	89,Yellow Button	950.0	1100.0	1750.0	1650.0	0.0	0.0	n/a	n/a	stop_stim
236535.14995095995	93.850049040000002	n/a	1199	89	2750	93.85004904	stim	stop-signal	691	1768311	0.0-27.1-1.1	beast_fmri_test	314	1765601,/,1766281,/,1766961,/,1767641,/,1768321,/	t,t,t,t,t	<img class = center src='/static/experiments/beast_fmri_test/images/T.png'></img>	71,89	2750.0	test	<img class = center src='/static/experiments/beast_fmri_test/images/redT.png'></img>	stop	-1.0	4.0	1.0	stop	temp-non-target	T	71,Green Button	89,Yellow Button	950.0	1100.0	1750.0	1650.0	0.0	0.0	n/a	n/a	ITI
237255	500	n/a	-1	-1	500	0.0	fixation	poldrack-single-stim	692	1768937	0.0-27.2-0.2	beast_fmri_test	314	n/a	n/a	<div class = centerbox><div class = fixation>+</div></div>	none	500.0	test	n/a	n/a	n/a	n/a	n/a	n/a	n/a	n/a	n/a	n/a	n/a	n/a	n/a	n/a	n/a	n/a	n/a	n/a	fixation
236235.68956499989	temp_go_duration	n/a	1080	89	2750	1021.310435	stim	stop-signal	693	1771689	0.0-27.2-1.2	beast_fmri_test	314	1769001,/,1769681,/,1770361,/,1771041,/,1771721,/,1772401,/	t,t,t,t,t,t	<img class = center src='/static/experiments/beast_fmri_test/images/B.png'></img>	71,89	2750.0	test	<img class = center src='/static/experiments/beast_fmri_test/images/redB.png'></img>	stop	-1.0	4.0	2.0	stop	temp-non-target	B	71,Green Button	89,Yellow Button	950.0	1100.0	1750.0	1650.0	0.0	0.0	n/a	n/a	go_stim
temp-non-target	temp_stop_duration	n/a	1080	89	2750	1021.310435	stim	stop-signal	693	1771689	0.0-27.2-1.2	beast_fmri_test	314	1769001,/,1769681,/,1770361,/,1771041,/,1771721,/,1772401,/	t,t,t,t,t,t	<img class = center src='/static/experiments/beast_fmri_test/images/B.png'></img>	71,89	2750.0	test	<img class = center src='/static/experiments/beast_fmri_test/images/redB.png'></img>	stop	-1.0	4.0	2.0	stop	temp-non-target	B	71,Green Button	89,Yellow Button	950.0	1100.0	1750.0	1650.0	0.0	0.0	n/a	n/a	stop_stim
238985.68956499989	1021.310435	n/a	1080	89	2750	1021.310435	stim	stop-signal	693	1771689	0.0-27.2-1.2	beast_fmri_test	314	1769001,/,1769681,/,1770361,/,1771041,/,1771721,/,1772401,/	t,t,t,t,t,t	<img class = center src='/static/experiments/beast_fmri_test/images/B.png'></img>	71,89	2750.0	test	<img class = center src='/static/experiments/beast_fmri_test/images/redB.png'></img>	stop	-1.0	4.0	2.0	stop	temp-non-target	B	71,Green Button	89,Yellow Button	950.0	1100.0	1750.0	1650.0	0.0	0.0	n/a	n/a	ITI
241560	500	n/a	-1	-1	500	0.0	fixation	poldrack-single-stim	694	1773242	0.0-27.3-0.3	beast_fmri_test	314	1773081,/	t	<div class = centerbox><div class = fixation>+</div></div>	none	500.0	test	n/a	n/a	n/a	n/a	n/a	n/a	n/a	n/a	n/a	n/a	n/a	n/a	n/a	n/a	n/a	n/a	n/a	n/a	fixation
241532.94720959011	temp_go_duration	n/a	1717	89	2750	29.05279041	stim	stop-signal	695	1775994	0.0-27.3-1.3	beast_fmri_test	314	1773762,/,1774441,/,1775122,/,1775802,/	t,t,t,t	<img class = center src='/static/experiments/beast_fmri_test/images/V.png'></img>	71,89	2750.0	test	<img class = center src='/static/experiments/beast_fmri_test/images/redV.png'></img>	stop	-1.0	4.0	3.0	stop	temp-non-target	V	71,Green Button	89,Yellow Button	950.0	1100.0	1750.0	1650.0	0.0	0.0	n/a	n/a	go_stim
temp-non-target	temp_stop_duration	n/a	1717	89	2750	29.05279041	stim	stop-signal	695	1775994	0.0-27.3-1.3	beast_fmri_test	314	1773762,/,1774441,/,1775122,/,1775802,/	t,t,t,t	<img class = center src='/static/experiments/beast_fmri_test/images/V.png'></img>	71,89	2750.0	test	<img class = center src='/static/experiments/beast_fmri_test/images/redV.png'></img>	stop	-1.0	4.0	3.0	stop	temp-non-target	V	71,Green Button	89,Yellow Button	950.0	1100.0	1750.0	1650.0	0.0	0.0	n/a	n/a	stop_stim
244282.94720959011	29.05279041	n/a	1717	89	2750	29.05279041	stim	stop-signal	695	1775994	0.0-27.3-1.3	beast_fmri_test	314	1773762,/,1774441,/,1775122,/,1775802,/	t,t,t,t	<img class = center src='/static/experiments/beast_fmri_test/images/V.png'></img>	71,89	2750.0	test	<img class = center src='/static/experiments/beast_fmri_test/images/redV.png'></img>	stop	-1.0	4.0	3.0	stop	temp-non-target	V	71,Green Button	89,Yellow Button	950.0	1100.0	1750.0	1650.0	0.0	0.0	n/a	n/a	ITI
244866	500	n/a	-1	-1	500	0.0	fixation	poldrack-single-stim	696	1776548	0.0-27.4-0.4	beast_fmri_test	314	1776482,/	t	<div class = centerbox><div class = fixation>+</div></div>	none	500.0	test	n/a	n/a	n/a	n/a	n/a	n/a	n/a	n/a	n/a	n/a	n/a	n/a	n/a	n/a	n/a	n/a	n/a	n/a	fixation
243056.27403500001	2750	n/a	1725	89	2750	1810.725965	stim	stop-signal	697	1779299	0.0-27.4-1.4	beast_fmri_test	314	1777162,/,1777842,/,1778522,/,1779202,/,1779882,/,1780562,/	t,t,t,t,t,t	<img class = center src='/static/experiments/beast_fmri_test/images/V.png'></img>	71,89	2750.0	test	<img class = center src='/static/experiments/beast_fmri_test/images/redV.png'></img>	go	1650.0	4.0	4.0	go	non-target	V	71,Green Button	89,Yellow Button	950.0	1100.0	1750.0	1650.0	1.0	n/a	1100.0	1.0	go_stim
245806.27403500001	1810.7259649999999	n/a	1725	89	2750	1810.725965	stim	stop-signal	697	1779299	0.0-27.4-1.4	beast_fmri_test	314	1777162,/,1777842,/,1778522,/,1779202,/,1779882,/,1780562,/	t,t,t,t,t,t	<img class = center src='/static/experiments/beast_fmri_test/images/V.png'></img>	71,89	2750.0	test	<img class = center src='/static/experiments/beast_fmri_test/images/redV.png'></img>	go	1650.0	4.0	4.0	go	non-target	V	71,Green Button	89,Yellow Button	950.0	1100.0	1750.0	1650.0	1.0	n/a	1100.0	1.0	ITI
249953	500	n/a	-1	-1	500	0.0	fixation	poldrack-single-stim	698	1781635	0.0-27.5-0.5	beast_fmri_test	314	1781242,/	t	<div class = centerbox><div class = fixation>+</div></div>	none	500.0	test	n/a	n/a	n/a	n/a	n/a	n/a	n/a	n/a	n/a	n/a	n/a	n/a	n/a	n/a	n/a	n/a	n/a	n/a	fixation
249825.98061500001	2750	n/a	2580	89	2750	128.019385	stim	stop-signal	699	1784386	0.0-27.5-1.5	beast_fmri_test	314	1781922,/,1782602,/,1783282,/,1783963,/	t,t,t,t	<img class = center src='/static/experiments/beast_fmri_test/images/V.png'></img>	71,89	2750.0	test	<img class = center src='/static/experiments/beast_fmri_test/images/redV.png'></img>	go	1650.0	4.0	5.0	go	non-target	V	71,Green Button	89,Yellow Button	950.0	1100.0	1750.0	1650.0	1.0	n/a	1100.0	1.0	go_stim
252575.98061500001	128.019385	n/a	2580	89	2750	128.019385	stim	stop-signal	699	1784386	0.0-27.5-1.5	beast_fmri_test	314	1781922,/,1782602,/,1783282,/,1783963,/	t,t,t,t	<img class = center src='/static/experiments/beast_fmri_test/images/V.png'></img>	71,89	2750.0	test	<img class = center src='/static/experiments/beast_fmri_test/images/redV.png'></img>	go	1650.0	4.0	5.0	go	non-target	V	71,Green Button	89,Yellow Button	950.0	1100.0	1750.0	1650.0	1.0	n/a	1100.0	1.0	ITI
253356	500	n/a	-1	-1	500	0.0	fixation	poldrack-single-stim	700	1785038	0.0-27.6-0.6	beast_fmri_test	314	1784642,/	t	<div class = centerbox><div class = fixation>+</div></div>	none	500.0	test	n/a	n/a	n/a	n/a	n/a	n/a	n/a	n/a	n/a	n/a	n/a	n/a	n/a	n/a	n/a	n/a	n/a	n/a	fixation
253202.34067409998	2750	n/a	-1	-1	2750	155.6593259	stim	stop-signal	701	1787790	0.0-27.6-1.6	beast_fmri_test	314	1785322,/,1786002,/,1786682,/,1787362,/	t,t,t,t	<img class = center src='/static/experiments/beast_fmri_test/images/D.png'></img>	71,89	2750.0	test	<img class = center src='/static/experiments/beast_fmri_test/images/redD.png'></img>	go	1650.0	4.0	6.0	go	non-target	D	71,Green Button	89,Yellow Button	950.0	1100.0	1750.0	1650.0	0.0	n/a	1100.0	0.0	go_stim
255952.34067409998	155.6593259	n/a	-1	-1	2750	155.6593259	stim	stop-signal	701	1787790	0.0-27.6-1.6	beast_fmri_test	314	1785322,/,1786002,/,1786682,/,1787362,/	t,t,t,t	<img class = center src='/static/experiments/beast_fmri_test/images/D.png'></img>	71,89	2750.0	test	<img class = center src='/static/experiments/beast_fmri_test/images/redD.png'></img>	go	1650.0	4.0	6.0	go	non-target	D	71,Green Button	89,Yellow Button	950.0	1100.0	1750.0	1650.0	0.0	n/a	1100.0	0.0	ITI
256787	500	n/a	-1	-1	500	0.0	fixation	poldrack-single-stim	702	1788469	0.0-27.7-0.7	beast_fmri_test	314	1788042,/	t	<div class = centerbox><div class = fixation>+</div></div>	none	500.0	test	n/a	n/a	n/a	n/a	n/a	n/a	n/a	n/a	n/a	n/a	n/a	n/a	n/a	n/a	n/a	n/a	n/a	n/a	fixation
256745.55196274002	2750	n/a	1453	89	2750	43.44803726	stim	stop-signal	703	1791221	0.0-27.7-1.7	beast_fmri_test	314	1788722,/,1789402,/,1790081,/,1790761,/	t,t,t,t	<img class = center src='/static/experiments/beast_fmri_test/images/V.png'></img>	71,89	2750.0	test	<img class = center src='/static/experiments/beast_fmri_test/images/redV.png'></img>	go	1800.0	4.0	7.0	go	target	V	71,Green Button	89,Yellow Button	950.0	1100.0	1800.0	1650.0	0.0	n/a	950.0	0.0	go_stim
259495.55196274002	43.44803726	n/a	1453	89	2750	43.44803726	stim	stop-signal	703	1791221	0.0-27.7-1.7	beast_fmri_test	314	1788722,/,1789402,/,1790081,/,1790761,/	t,t,t,t	<img class = center src='/static/experiments/beast_fmri_test/images/V.png'></img>	71,89	2750.0	test	<img class = center src='/static/experiments/beast_fmri_test/images/redV.png'></img>	go	1800.0	4.0	7.0	go	target	V	71,Green Button	89,Yellow Button	950.0	1100.0	1800.0	1650.0	0.0	n/a	950.0	0.0	ITI
260109	500	n/a	-1	-1	500	0.0	fixation	poldrack-single-stim	704	1791791	0.0-27.8-0.8	beast_fmri_test	314	1791442,/	t	<div class = centerbox><div class = fixation>+</div></div>	none	500.0	test	n/a	n/a	n/a	n/a	n/a	n/a	n/a	n/a	n/a	n/a	n/a	n/a	n/a	n/a	n/a	n/a	n/a	n/a	fixation
257629.31163799996	1100.0	n/a	1501	89	2750	2480.688362	stim	stop-signal	705	1794542	0.0-27.8-1.8	beast_fmri_test	314	1792122,/,1792801,/,1793481,/,1794163,/,1794841,/,1795521,/,1796201,/,1796881,/	t,t,t,t,t,t,t,t	<img class = center src='/static/experiments/beast_fmri_test/images/T.png'></img>	71,89	2750.0	test	<img class = center src='/static/experiments/beast_fmri_test/images/redT.png'></img>	stop	1650.0	4.0	8.0	stop	non-target	T	71,Green Button	89,Yellow Button	950.0	1100.0	1800.0	1650.0	0.0	0.0	1100.0	1.0	go_stim
259279.31163799996	1650.0	n/a	1501	89	2750	2480.688362	stim	stop-signal	705	1794542	0.0-27.8-1.8	beast_fmri_test	314	1792122,/,1792801,/,1793481,/,1794163,/,1794841,/,1795521,/,1796201,/,1796881,/	t,t,t,t,t,t,t,t	<img class = center src='/static/experiments/beast_fmri_test/images/T.png'></img>	71,89	2750.0	test	<img class = center src='/static/experiments/beast_fmri_test/images/redT.png'></img>	stop	1650.0	4.0	8.0	stop	non-target	T	71,Green Button	89,Yellow Button	950.0	1100.0	1800.0	1650.0	0.0	0.0	1100.0	1.0	stop_stim
260379.31163799996	2480.6883620000003	n/a	1501	89	2750	2480.688362	stim	stop-signal	705	1794542	0.0-27.8-1.8	beast_fmri_test	314	1792122,/,1792801,/,1793481,/,1794163,/,1794841,/,1795521,/,1796201,/,1796881,/	t,t,t,t,t,t,t,t	<img class = center src='/static/experiments/beast_fmri_test/images/T.png'></img>	71,89	2750.0	test	<img class = center src='/static/experiments/beast_fmri_test/images/redT.png'></img>	stop	1650.0	4.0	8.0	stop	non-target	T	71,Green Button	89,Yellow Button	950.0	1100.0	1800.0	1650.0	0.0	0.0	1100.0	1.0	ITI
265867	500	n/a	-1	-1	500	0.0	fixation	poldrack-single-stim	706	1797549	0.0-27.9-0.9	beast_fmri_test	314	n/a	n/a	<div class = centerbox><div class = fixation>+</div></div>	none	500.0	test	n/a	n/a	n/a	n/a	n/a	n/a	n/a	n/a	n/a	n/a	n/a	n/a	n/a	n/a	n/a	n/a	n/a	n/a	fixation
265697.19992229994	2750	n/a	1245	71	2750	171.8000777	stim	stop-signal	707	1800301	0.0-27.9-1.9	beast_fmri_test	314	1797561,/,1798241,/,1798921,/,1799601,/,1800281,/	t,t,t,t,t	<img class = center src='/static/experiments/beast_fmri_test/images/B.png'></img>	71,89	2750.0	test	<img class = center src='/static/experiments/beast_fmri_test/images/redB.png'></img>	go	1700.0	4.0	9.0	go	non-target	B	71,Green Button	89,Yellow Button	950.0	1050.0	1800.0	1700.0	0.0	n/a	1050.0	0.0	go_stim
268447.19992229994	171.80007769999997	n/a	1245	71	2750	171.8000777	stim	stop-signal	707	1800301	0.0-27.9-1.9	beast_fmri_test	314	1797561,/,1798241,/,1798921,/,1799601,/,1800281,/	t,t,t,t,t	<img class = center src='/static/experiments/beast_fmri_test/images/B.png'></img>	71,89	2750.0	test	<img class = center src='/static/experiments/beast_fmri_test/images/redB.png'></img>	go	1700.0	4.0	9.0	go	non-target	B	71,Green Button	89,Yellow Button	950.0	1050.0	1800.0	1700.0	0.0	n/a	1050.0	0.0	ITI
269316	500	n/a	-1	-1	500	0.0	fixation	poldrack-single-stim	708	1800998	0.0-27.10-0.10	beast_fmri_test	314	1800961,/	t	<div class = centerbox><div class = fixation>+</div></div>	none	500.0	test	n/a	n/a	n/a	n/a	n/a	n/a	n/a	n/a	n/a	n/a	n/a	n/a	n/a	n/a	n/a	n/a	n/a	n/a	fixation
269137.99332650006	2750	n/a	1241	89	2750	180.0066735	stim	stop-signal	709	1803750	0.0-27.10-1.10	beast_fmri_test	314	1801641,/,1802321,/,1803001,/,1803681,/	t,t,t,t	<img class = center src='/static/experiments/beast_fmri_test/images/V.png'></img>	71,89	2750.0	test	<img class = center src='/static/experiments/beast_fmri_test/images/redV.png'></img>	go	1700.0	4.0	10.0	go	non-target	V	71,Green Button	89,Yellow Button	950.0	1050.0	1800.0	1700.0	1.0	n/a	1050.0	1.0	go_stim
271887.99332650006	180.00667350000001	n/a	1241	89	2750	180.0066735	stim	stop-signal	709	1803750	0.0-27.10-1.10	beast_fmri_test	314	1801641,/,1802321,/,1803001,/,1803681,/	t,t,t,t	<img class = center src='/static/experiments/beast_fmri_test/images/V.png'></img>	71,89	2750.0	test	<img class = center src='/static/experiments/beast_fmri_test/images/redV.png'></img>	go	1700.0	4.0	10.0	go	non-target	V	71,Green Button	89,Yellow Button	950.0	1050.0	1800.0	1700.0	1.0	n/a	1050.0	1.0	ITI
272777	500	n/a	-1	-1	500	0.0	fixation	poldrack-single-stim	710	1804459	0.0-27.11-0.11	beast_fmri_test	314	1804362,/	t	<div class = centerbox><div class = fixation>+</div></div>	none	500.0	test	n/a	n/a	n/a	n/a	n/a	n/a	n/a	n/a	n/a	n/a	n/a	n/a	n/a	n/a	n/a	n/a	n/a	n/a	fixation
272231.09510349995	2750	n/a	2185	89	2750	547.9048965	stim	stop-signal	711	1807211	0.0-27.11-1.11	beast_fmri_test	314	1805041,/,1805721,/,1806401,/,1807082,/	t,t,t,t	<img class = center src='/static/experiments/beast_fmri_test/images/T.png'></img>	71,89	2750.0	test	<img class = center src='/static/experiments/beast_fmri_test/images/redT.png'></img>	go	1700.0	4.0	11.0	go	non-target	T	71,Green Button	89,Yellow Button	950.0	1050.0	1800.0	1700.0	1.0	n/a	1050.0	1.0	go_stim
274981.09510349995	547.90489649999995	n/a	2185	89	2750	547.9048965	stim	stop-signal	711	1807211	0.0-27.11-1.11	beast_fmri_test	314	1805041,/,1805721,/,1806401,/,1807082,/	t,t,t,t	<img class = center src='/static/experiments/beast_fmri_test/images/T.png'></img>	71,89	2750.0	test	<img class = center src='/static/experiments/beast_fmri_test/images/redT.png'></img>	go	1700.0	4.0	11.0	go	non-target	T	71,Green Button	89,Yellow Button	950.0	1050.0	1800.0	1700.0	1.0	n/a	1050.0	1.0	ITI
276605	500	n/a	-1	-1	500	0.0	fixation	poldrack-single-stim	712	1808287	0.0-27.12-0.12	beast_fmri_test	314	1807786,/	t	<div class = centerbox><div class = fixation>+</div></div>	none	500.0	test	n/a	n/a	n/a	n/a	n/a	n/a	n/a	n/a	n/a	n/a	n/a	n/a	n/a	n/a	n/a	n/a	n/a	n/a	fixation
275776.16731619998	2750	n/a	2379	71	2750	831.8326838	stim	stop-signal	713	1811040	0.0-27.12-1.12	beast_fmri_test	314	1808442,/,1809122,/,1809802,/,1810482,/,1811162,/,1811842,/	t,t,t,t,t,t	<img class = center src='/static/experiments/beast_fmri_test/images/V.png'></img>	71,89	2750.0	test	<img class = center src='/static/experiments/beast_fmri_test/images/redV.png'></img>	go	1700.0	4.0	12.0	go	non-target	V	71,Green Button	89,Yellow Button	950.0	1050.0	1800.0	1700.0	0.0	n/a	1050.0	0.0	go_stim
278526.16731619998	831.83268379999993	n/a	2379	71	2750	831.8326838	stim	stop-signal	713	1811040	0.0-27.12-1.12	beast_fmri_test	314	1808442,/,1809122,/,1809802,/,1810482,/,1811162,/,1811842,/	t,t,t,t,t,t	<img class = center src='/static/experiments/beast_fmri_test/images/V.png'></img>	71,89	2750.0	test	<img class = center src='/static/experiments/beast_fmri_test/images/redV.png'></img>	go	1700.0	4.0	12.0	go	non-target	V	71,Green Button	89,Yellow Button	950.0	1050.0	1800.0	1700.0	0.0	n/a	1050.0	0.0	ITI
280716	500	n/a	-1	-1	500	0.0	fixation	poldrack-single-stim	714	1812398	0.0-27.13-0.13	beast_fmri_test	314	n/a	n/a	<div class = centerbox><div class = fixation>+</div></div>	none	500.0	test	n/a	n/a	n/a	n/a	n/a	n/a	n/a	n/a	n/a	n/a	n/a	n/a	n/a	n/a	n/a	n/a	n/a	n/a	fixation
279403.74535400001	2750	n/a	2699	71	2750	1314.254646	stim	stop-signal	715	1815150	0.0-27.13-1.13	beast_fmri_test	314	1812522,/,1813202,/,1813882,/,1814563,/,1815242,/,1815922,/	t,t,t,t,t,t	<img class = center src='/static/experiments/beast_fmri_test/images/B.png'></img>	71,89	2750.0	test	<img class = center src='/static/experiments/beast_fmri_test/images/redB.png'></img>	go	1800.0	4.0	13.0	go	target	B	71,Green Button	89,Yellow Button	950.0	1050.0	1800.0	1700.0	1.0	n/a	950.0	1.0	go_stim
282153.74535400001	1314.2546460000001	n/a	2699	71	2750	1314.254646	stim	stop-signal	715	1815150	0.0-27.13-1.13	beast_fmri_test	314	1812522,/,1813202,/,1813882,/,1814563,/,1815242,/,1815922,/	t,t,t,t,t,t	<img class = center src='/static/experiments/beast_fmri_test/images/B.png'></img>	71,89	2750.0	test	<img class = center src='/static/experiments/beast_fmri_test/images/redB.png'></img>	go	1800.0	4.0	13.0	go	target	B	71,Green Button	89,Yellow Button	950.0	1050.0	1800.0	1700.0	1.0	n/a	950.0	1.0	ITI
285310	500	n/a	-1	-1	500	0.0	fixation	poldrack-single-stim	716	1816992	0.0-27.14-0.14	beast_fmri_test	314	1816602,/	t	<div class = centerbox><div class = fixation>+</div></div>	none	500.0	test	n/a	n/a	n/a	n/a	n/a	n/a	n/a	n/a	n/a	n/a	n/a	n/a	n/a	n/a	n/a	n/a	n/a	n/a	fixation
284811.01438509999	2750	n/a	1448	71	2750	500.9856149	stim	stop-signal	717	1819744	0.0-27.14-1.14	beast_fmri_test	314	1817282,/,1817962,/,1818642,/,1819322,/,1820002,/	t,t,t,t,t	<img class = center src='/static/experiments/beast_fmri_test/images/V.png'></img>	71,89	2750.0	test	<img class = center src='/static/experiments/beast_fmri_test/images/redV.png'></img>	go	1800.0	4.0	14.0	go	target	V	71,Green Button	89,Yellow Button	950.0	1050.0	1800.0	1700.0	1.0	n/a	950.0	1.0	go_stim
287561.01438509999	500.98561490000003	n/a	1448	71	2750	500.9856149	stim	stop-signal	717	1819744	0.0-27.14-1.14	beast_fmri_test	314	1817282,/,1817962,/,1818642,/,1819322,/,1820002,/	t,t,t,t,t	<img class = center src='/static/experiments/beast_fmri_test/images/V.png'></img>	71,89	2750.0	test	<img class = center src='/static/experiments/beast_fmri_test/images/redV.png'></img>	go	1800.0	4.0	14.0	go	target	V	71,Green Button	89,Yellow Button	950.0	1050.0	1800.0	1700.0	1.0	n/a	950.0	1.0	ITI
289094	500	n/a	-1	-1	500	0.0	fixation	poldrack-single-stim	718	1820776	0.0-27.15-0.15	beast_fmri_test	314	1820682,/	t	<div class = centerbox><div class = fixation>+</div></div>	none	500.0	test	n/a	n/a	n/a	n/a	n/a	n/a	n/a	n/a	n/a	n/a	n/a	n/a	n/a	n/a	n/a	n/a	n/a	n/a	fixation
287320.00958500011	2750	n/a	1613	89	2750	1775.990415	stim	stop-signal	719	1823528	0.0-27.15-1.15	beast_fmri_test	314	1821361,/,1822042,/,1822721,/,1823402,/,1824081,/,1824763,/	t,t,t,t,t,t	<img class = center src='/static/experiments/beast_fmri_test/images/P.png'></img>	71,89	2750.0	test	<img class = center src='/static/experiments/beast_fmri_test/images/redP.png'></img>	go	1700.0	4.0	15.0	go	non-target	P	71,Green Button	89,Yellow Button	950.0	1050.0	1800.0	1700.0	1.0	n/a	1050.0	1.0	go_stim
290070.00958500011	1775.9904149999998	n/a	1613	89	2750	1775.990415	stim	stop-signal	719	1823528	0.0-27.15-1.15	beast_fmri_test	314	1821361,/,1822042,/,1822721,/,1823402,/,1824081,/,1824763,/	t,t,t,t,t,t	<img class = center src='/static/experiments/beast_fmri_test/images/P.png'></img>	71,89	2750.0	test	<img class = center src='/static/experiments/beast_fmri_test/images/redP.png'></img>	go	1700.0	4.0	15.0	go	non-target	P	71,Green Button	89,Yellow Button	950.0	1050.0	1800.0	1700.0	1.0	n/a	1050.0	1.0	ITI
294151	500	n/a	-1	-1	500	0.0	fixation	poldrack-single-stim	720	1825833	0.0-27.16-0.16	beast_fmri_test	314	1825441,/	t	<div class = centerbox><div class = fixation>+</div></div>	none	500.0	test	n/a	n/a	n/a	n/a	n/a	n/a	n/a	n/a	n/a	n/a	n/a	n/a	n/a	n/a	n/a	n/a	n/a	n/a	fixation
292326.54863899993	2750	n/a	-1	-1	2750	1825.451361	stim	stop-signal	721	1828584	0.0-27.16-1.16	beast_fmri_test	314	1826121,/,1826801,/,1827482,/,1828161,/,1828841,/,1829521,/,1830201,/	t,t,t,t,t,t,t	<img class = center src='/static/experiments/beast_fmri_test/images/V.png'></img>	71,89	2750.0	test	<img class = center src='/static/experiments/beast_fmri_test/images/redV.png'></img>	go	1800.0	4.0	16.0	go	target	V	71,Green Button	89,Yellow Button	950.0	1050.0	1800.0	1700.0	0.0	n/a	950.0	0.0	go_stim
295076.54863899993	1825.4513609999999	n/a	-1	-1	2750	1825.451361	stim	stop-signal	721	1828584	0.0-27.16-1.16	beast_fmri_test	314	1826121,/,1826801,/,1827482,/,1828161,/,1828841,/,1829521,/,1830201,/	t,t,t,t,t,t,t	<img class = center src='/static/experiments/beast_fmri_test/images/V.png'></img>	71,89	2750.0	test	<img class = center src='/static/experiments/beast_fmri_test/images/redV.png'></img>	go	1800.0	4.0	16.0	go	target	V	71,Green Button	89,Yellow Button	950.0	1050.0	1800.0	1700.0	0.0	n/a	950.0	0.0	ITI
299256	500	n/a	-1	-1	500	0.0	fixation	poldrack-single-stim	722	1830938	0.0-27.17-0.17	beast_fmri_test	314	1830881,/	t	<div class = centerbox><div class = fixation>+</div></div>	none	500.0	test	n/a	n/a	n/a	n/a	n/a	n/a	n/a	n/a	n/a	n/a	n/a	n/a	n/a	n/a	n/a	n/a	n/a	n/a	fixation
299009.20451309998	1050.0	n/a	-1	-1	2750	248.7954869	stim	stop-signal	723	1833690	0.0-27.17-1.17	beast_fmri_test	314	1831561,/,1832241,/,1832921,/,1833602,/	t,t,t,t	<img class = center src='/static/experiments/beast_fmri_test/images/T.png'></img>	71,89	2750.0	test	<img class = center src='/static/experiments/beast_fmri_test/images/redT.png'></img>	stop	1700.0	4.0	17.0	stop	non-target	T	71,Green Button	89,Yellow Button	950.0	1050.0	1800.0	1700.0	0.0	1.0	1050.0	0.0	go_stim
300709.20451309998	1700.0	n/a	-1	-1	2750	248.7954869	stim	stop-signal	723	1833690	0.0-27.17-1.17	beast_fmri_test	314	1831561,/,1832241,/,1832921,/,1833602,/	t,t,t,t	<img class = center src='/static/experiments/beast_fmri_test/images/T.png'></img>	71,89	2750.0	test	<img class = center src='/static/experiments/beast_fmri_test/images/redT.png'></img>	stop	1700.0	4.0	17.0	stop	non-target	T	71,Green Button	89,Yellow Button	950.0	1050.0	1800.0	1700.0	0.0	1.0	1050.0	0.0	stop_stim
301759.20451309998	248.79548689999999	n/a	-1	-1	2750	248.7954869	stim	stop-signal	723	1833690	0.0-27.17-1.17	beast_fmri_test	314	1831561,/,1832241,/,1832921,/,1833602,/	t,t,t,t	<img class = center src='/static/experiments/beast_fmri_test/images/T.png'></img>	71,89	2750.0	test	<img class = center src='/static/experiments/beast_fmri_test/images/redT.png'></img>	stop	1700.0	4.0	17.0	stop	non-target	T	71,Green Button	89,Yellow Button	950.0	1050.0	1800.0	1700.0	0.0	1.0	1050.0	0.0	ITI
302785	500	n/a	-1	-1	500	0.0	fixation	poldrack-single-stim	724	1834467	0.0-27.18-0.18	beast_fmri_test	314	1834282,/	t	<div class = centerbox><div class = fixation>+</div></div>	none	500.0	test	n/a	n/a	n/a	n/a	n/a	n/a	n/a	n/a	n/a	n/a	n/a	n/a	n/a	n/a	n/a	n/a	n/a	n/a	fixation
299883.0227979999	1100.0	n/a	-1	-1	2750	2903.977202	stim	stop-signal	725	1837219	0.0-27.18-1.18	beast_fmri_test	314	1834962,/,1835641,/,1836321,/,1837001,/,1837681,/,1838361,/,1839041,/,1839721,/	t,t,t,t,t,t,t,t	<img class = center src='/static/experiments/beast_fmri_test/images/P.png'></img>	71,89	2750.0	test	<img class = center src='/static/experiments/beast_fmri_test/images/redP.png'></img>	stop	1650.0	4.0	18.0	stop	non-target	P	71,Green Button	89,Yellow Button	950.0	1100.0	1800.0	1650.0	0.0	1.0	1100.0	0.0	go_stim
301533.0227979999	1650.0	n/a	-1	-1	2750	2903.977202	stim	stop-signal	725	1837219	0.0-27.18-1.18	beast_fmri_test	314	1834962,/,1835641,/,1836321,/,1837001,/,1837681,/,1838361,/,1839041,/,1839721,/	t,t,t,t,t,t,t,t	<img class = center src='/static/experiments/beast_fmri_test/images/P.png'></img>	71,89	2750.0	test	<img class = center src='/static/experiments/beast_fmri_test/images/redP.png'></img>	stop	1650.0	4.0	18.0	stop	non-target	P	71,Green Button	89,Yellow Button	950.0	1100.0	1800.0	1650.0	0.0	1.0	1100.0	0.0	stop_stim
302633.0227979999	2903.977202	n/a	-1	-1	2750	2903.977202	stim	stop-signal	725	1837219	0.0-27.18-1.18	beast_fmri_test	314	1834962,/,1835641,/,1836321,/,1837001,/,1837681,/,1838361,/,1839041,/,1839721,/	t,t,t,t,t,t,t,t	<img class = center src='/static/experiments/beast_fmri_test/images/P.png'></img>	71,89	2750.0	test	<img class = center src='/static/experiments/beast_fmri_test/images/redP.png'></img>	stop	1650.0	4.0	18.0	stop	non-target	P	71,Green Button	89,Yellow Button	950.0	1100.0	1800.0	1650.0	0.0	1.0	1100.0	0.0	ITI
308972	500	n/a	-1	-1	500	0.0	fixation	poldrack-single-stim	726	1840654	0.0-27.19-0.19	beast_fmri_test	314	1840401,/	t	<div class = centerbox><div class = fixation>+</div></div>	none	500.0	test	n/a	n/a	n/a	n/a	n/a	n/a	n/a	n/a	n/a	n/a	n/a	n/a	n/a	n/a	n/a	n/a	n/a	n/a	fixation
307819.69768500002	2750	n/a	2436	89	2750	1154.302315	stim	stop-signal	727	1843406	0.0-27.19-1.19	beast_fmri_test	314	1841082,/,1841762,/,1842442,/,1843122,/,1843802,/,1844482,/	t,t,t,t,t,t	<img class = center src='/static/experiments/beast_fmri_test/images/B.png'></img>	71,89	2750.0	test	<img class = center src='/static/experiments/beast_fmri_test/images/redB.png'></img>	go	1600.0	4.0	19.0	go	non-target	B	71,Green Button	89,Yellow Button	950.0	1150.0	1800.0	1600.0	1.0	n/a	1150.0	1.0	go_stim
310569.69768500002	1154.3023150000001	n/a	2436	89	2750	1154.302315	stim	stop-signal	727	1843406	0.0-27.19-1.19	beast_fmri_test	314	1841082,/,1841762,/,1842442,/,1843122,/,1843802,/,1844482,/	t,t,t,t,t,t	<img class = center src='/static/experiments/beast_fmri_test/images/B.png'></img>	71,89	2750.0	test	<img class = center src='/static/experiments/beast_fmri_test/images/redB.png'></img>	go	1600.0	4.0	19.0	go	non-target	B	71,Green Button	89,Yellow Button	950.0	1150.0	1800.0	1600.0	1.0	n/a	1150.0	1.0	ITI
313407	500	n/a	-1	-1	500	0.0	fixation	poldrack-single-stim	728	1845089	0.0-27.20-0.20	beast_fmri_test	314	n/a	n/a	<div class = centerbox><div class = fixation>+</div></div>	none	500.0	test	n/a	n/a	n/a	n/a	n/a	n/a	n/a	n/a	n/a	n/a	n/a	n/a	n/a	n/a	n/a	n/a	n/a	n/a	fixation
312916.31912590005	2750	n/a	2639	89	2750	492.6808741	stim	stop-signal	729	1847841	0.0-27.20-1.20	beast_fmri_test	314	1845163,/,1845842,/,1846522,/,1847202,/,1847882,/	t,t,t,t,t	<img class = center src='/static/experiments/beast_fmri_test/images/B.png'></img>	71,89	2750.0	test	<img class = center src='/static/experiments/beast_fmri_test/images/redB.png'></img>	go	1600.0	4.0	20.0	go	non-target	B	71,Green Button	89,Yellow Button	950.0	1150.0	1800.0	1600.0	1.0	n/a	1150.0	1.0	go_stim
