onset	duration	text	rt	key_press	block_duration	timing_post_trial	trial_id	trial_type	trial_index	time_elapsed	internal_node_id	exp_id	subject_id	trigger_times	triggers	stimulus	possible_responses	stim_duration	exp_stage	SS_stimulus	SS_trial_type	SS_duration	load	trial_num	stop_trial_type	adaptive_trial_type	stim	yes_response_key	no_response_key	SSD_target	SSD_non_target	SSTarget	SSNonTarget	go_acc	stop_acc	SS_delay	adaptive_acc	new_trial_type
test	10880.0	n/a	-1	-1	10880	0.0	practice-no-stop-feedback	poldrack-single-stim	390	1181505	0.0-18.0	beast_fmri_test	338	1170629,/,1171307,/,1171988,/,1172668,/,1173347,/,1174026,/,1174707,/,1175386,/,1176065,/,1176746,/,1177425,/,1178104,/,1178786,/,1179465,/,1180145,/,1180825,/,1181505,/	t,t,t,t,t,t,t,t,t,t,t,t,t,t,t,t,t	"<div class = ""centerbox""><p class = ""block-text"">Your delay is 3 trials.</p><p class = block-text>Please wait for the scanner to start the block</p></div>"	77	10880.0	n/a	n/a	n/a	n/a	n/a	n/a	n/a	n/a	n/a	n/a	n/a	n/a	n/a	n/a	n/a	n/a	n/a	n/a	n/a	start_functional_block
11379	500.0	n/a	-1	-1	500	0.0	fixation	poldrack-single-stim	391	1182008	0.0-19.0-0.0	beast_fmri_test	338	n/a	n/a	<div class = centerbox2><div class = fixation>+</div></div>	none	500.0	test	n/a	n/a	n/a	n/a	n/a	n/a	n/a	n/a	n/a	n/a	n/a	n/a	n/a	n/a	n/a	n/a	n/a	n/a	fixation
11270.910614396678	2750.0	n/a	1111	89	2750	110.089385603	stim	stop-signal	392	1184760	0.0-19.0-1.0	beast_fmri_test	338	1182184,/,1182863,/,1183542,/,1184221,/	t,t,t,t	<img class = center src='/static/experiments/beast_fmri_test/images/V.png'></img>	71,89	2750.0	test	<img class = center src='/static/experiments/beast_fmri_test/images/redV.png'></img>	go	-1.0	3.0	0.0	go	temp-non-target	V	71,Index Finger	89,Middle Finger	500.0	500.0	2250.0	2200.0	0.0	n/a	n/a	n/a	go_stim
14020.910614396678	110.089385603	n/a	1111	89	2750	110.089385603	stim	stop-signal	392	1184760	0.0-19.0-1.0	beast_fmri_test	338	1182184,/,1182863,/,1183542,/,1184221,/	t,t,t,t	<img class = center src='/static/experiments/beast_fmri_test/images/V.png'></img>	71,89	2750.0	test	<img class = center src='/static/experiments/beast_fmri_test/images/redV.png'></img>	go	-1.0	3.0	0.0	go	temp-non-target	V	71,Index Finger	89,Middle Finger	500.0	500.0	2250.0	2200.0	0.0	n/a	n/a	n/a	ITI
14791	500.0	n/a	-1	-1	500	0.0	fixation	poldrack-single-stim	393	1185420	0.0-19.1-0.1	beast_fmri_test	338	1184917,/	t	<div class = centerbox2><div class = fixation>+</div></div>	none	500.0	test	n/a	n/a	n/a	n/a	n/a	n/a	n/a	n/a	n/a	n/a	n/a	n/a	n/a	n/a	n/a	n/a	n/a	n/a	fixation
14408.322943463456	2750.0	n/a	545	89	2750	384.677056536	stim	stop-signal	394	1188172	0.0-19.1-1.1	beast_fmri_test	338	1185583,/,1186261,/,1186942,/,1187619,/,1188299,/	t,t,t,t,t	<img class = center src='/static/experiments/beast_fmri_test/images/D.png'></img>	71,89	2750.0	test	<img class = center src='/static/experiments/beast_fmri_test/images/redD.png'></img>	go	-1.0	3.0	1.0	go	temp-non-target	D	71,Index Finger	89,Middle Finger	500.0	500.0	2250.0	2200.0	0.0	n/a	n/a	n/a	go_stim
17158.322943463456	384.677056536	n/a	545	89	2750	384.677056536	stim	stop-signal	394	1188172	0.0-19.1-1.1	beast_fmri_test	338	1185583,/,1186261,/,1186942,/,1187619,/,1188299,/	t,t,t,t,t	<img class = center src='/static/experiments/beast_fmri_test/images/D.png'></img>	71,89	2750.0	test	<img class = center src='/static/experiments/beast_fmri_test/images/redD.png'></img>	go	-1.0	3.0	1.0	go	temp-non-target	D	71,Index Finger	89,Middle Finger	500.0	500.0	2250.0	2200.0	0.0	n/a	n/a	n/a	ITI
18476	500.0	n/a	-1	-1	500	0.0	fixation	poldrack-single-stim	395	1189105	0.0-19.2-0.2	beast_fmri_test	338	1188980,/	t	<div class = centerbox2><div class = fixation>+</div></div>	none	500.0	test	n/a	n/a	n/a	n/a	n/a	n/a	n/a	n/a	n/a	n/a	n/a	n/a	n/a	n/a	n/a	n/a	n/a	n/a	fixation
18210.552712167846	2750.0	n/a	951	89	2750	267.447287832	stim	stop-signal	396	1191857	0.0-19.2-1.2	beast_fmri_test	338	1189660,/,1190340,/,1191020,/,1191698,/	t,t,t,t	<img class = center src='/static/experiments/beast_fmri_test/images/D.png'></img>	71,89	2750.0	test	<img class = center src='/static/experiments/beast_fmri_test/images/redD.png'></img>	go	-1.0	3.0	2.0	go	temp-non-target	D	71,Index Finger	89,Middle Finger	500.0	500.0	2250.0	2200.0	0.0	n/a	n/a	n/a	go_stim
20960.552712167846	267.447287832	n/a	951	89	2750	267.447287832	stim	stop-signal	396	1191857	0.0-19.2-1.2	beast_fmri_test	338	1189660,/,1190340,/,1191020,/,1191698,/	t,t,t,t	<img class = center src='/static/experiments/beast_fmri_test/images/D.png'></img>	71,89	2750.0	test	<img class = center src='/static/experiments/beast_fmri_test/images/redD.png'></img>	go	-1.0	3.0	2.0	go	temp-non-target	D	71,Index Finger	89,Middle Finger	500.0	500.0	2250.0	2200.0	0.0	n/a	n/a	n/a	ITI
22044	500.0	n/a	-1	-1	500	0.0	fixation	poldrack-single-stim	397	1192673	0.0-19.3-0.3	beast_fmri_test	338	1192378,/	t	<div class = centerbox2><div class = fixation>+</div></div>	none	500.0	test	n/a	n/a	n/a	n/a	n/a	n/a	n/a	n/a	n/a	n/a	n/a	n/a	n/a	n/a	n/a	n/a	n/a	n/a	fixation
21801.042791868793	2750.0	n/a	1575	89	2750	243.957208131	stim	stop-signal	398	1195424	0.0-19.3-1.3	beast_fmri_test	338	1193058,/,1193738,/,1194417,/,1195097,/	t,t,t,t	<img class = center src='/static/experiments/beast_fmri_test/images/B.png'></img>	71,89	2750.0	test	<img class = center src='/static/experiments/beast_fmri_test/images/redB.png'></img>	go	2250.0	3.0	3.0	go	non-target	B	71,Index Finger	89,Middle Finger	500.0	500.0	2250.0	2250.0	1.0	n/a	500.0	1.0	go_stim
24551.042791868793	243.957208131	n/a	1575	89	2750	243.957208131	stim	stop-signal	398	1195424	0.0-19.3-1.3	beast_fmri_test	338	1193058,/,1193738,/,1194417,/,1195097,/	t,t,t,t	<img class = center src='/static/experiments/beast_fmri_test/images/B.png'></img>	71,89	2750.0	test	<img class = center src='/static/experiments/beast_fmri_test/images/redB.png'></img>	go	2250.0	3.0	3.0	go	non-target	B	71,Index Finger	89,Middle Finger	500.0	500.0	2250.0	2250.0	1.0	n/a	500.0	1.0	ITI
25593	500.0	n/a	-1	-1	500	0.0	fixation	poldrack-single-stim	399	1196222	0.0-19.4-0.4	beast_fmri_test	338	1195777,/	t	<div class = centerbox2><div class = fixation>+</div></div>	none	500.0	test	n/a	n/a	n/a	n/a	n/a	n/a	n/a	n/a	n/a	n/a	n/a	n/a	n/a	n/a	n/a	n/a	n/a	n/a	fixation
25243.485417198157	2750.0	n/a	1064	89	2750	351.514582802	stim	stop-signal	400	1198974	0.0-19.4-1.4	beast_fmri_test	338	1196456,/,1197135,/,1197816,/,1198495,/,1199174,/	t,t,t,t,t	<img class = center src='/static/experiments/beast_fmri_test/images/B.png'></img>	71,89	2750.0	test	<img class = center src='/static/experiments/beast_fmri_test/images/redB.png'></img>	go	2250.0	3.0	4.0	go	non-target	B	71,Index Finger	89,Middle Finger	500.0	500.0	2250.0	2250.0	1.0	n/a	500.0	1.0	go_stim
27993.485417198157	351.514582802	n/a	1064	89	2750	351.514582802	stim	stop-signal	400	1198974	0.0-19.4-1.4	beast_fmri_test	338	1196456,/,1197135,/,1197816,/,1198495,/,1199174,/	t,t,t,t,t	<img class = center src='/static/experiments/beast_fmri_test/images/B.png'></img>	71,89	2750.0	test	<img class = center src='/static/experiments/beast_fmri_test/images/redB.png'></img>	go	2250.0	3.0	4.0	go	non-target	B	71,Index Finger	89,Middle Finger	500.0	500.0	2250.0	2250.0	1.0	n/a	500.0	1.0	ITI
29250	500.0	n/a	-1	-1	500	0.0	fixation	poldrack-single-stim	401	1199879	0.0-19.5-0.5	beast_fmri_test	338	1199856,/	t	<div class = centerbox2><div class = fixation>+</div></div>	none	500.0	test	n/a	n/a	n/a	n/a	n/a	n/a	n/a	n/a	n/a	n/a	n/a	n/a	n/a	n/a	n/a	n/a	n/a	n/a	fixation
28316.22082309355	2750.0	n/a	706	71	2750	935.779176906	stim	stop-signal	402	1202631	0.0-19.5-1.5	beast_fmri_test	338	1200535,/,1201213,/,1201894,/,1202573,/,1203252,/	t,t,t,t,t	<img class = center src='/static/experiments/beast_fmri_test/images/D.png'></img>	71,89	2750.0	test	<img class = center src='/static/experiments/beast_fmri_test/images/redD.png'></img>	go	2250.0	3.0	5.0	go	target	D	71,Index Finger	89,Middle Finger	500.0	500.0	2250.0	2250.0	1.0	n/a	500.0	1.0	go_stim
31066.22082309355	935.779176906	n/a	706	71	2750	935.779176906	stim	stop-signal	402	1202631	0.0-19.5-1.5	beast_fmri_test	338	1200535,/,1201213,/,1201894,/,1202573,/,1203252,/	t,t,t,t,t	<img class = center src='/static/experiments/beast_fmri_test/images/D.png'></img>	71,89	2750.0	test	<img class = center src='/static/experiments/beast_fmri_test/images/redD.png'></img>	go	2250.0	3.0	5.0	go	target	D	71,Index Finger	89,Middle Finger	500.0	500.0	2250.0	2250.0	1.0	n/a	500.0	1.0	ITI
33487	500.0	n/a	-1	-1	500	0.0	fixation	poldrack-single-stim	403	1204116	0.0-19.6-0.6	beast_fmri_test	338	1203933,/	t	<div class = centerbox2><div class = fixation>+</div></div>	none	500.0	test	n/a	n/a	n/a	n/a	n/a	n/a	n/a	n/a	n/a	n/a	n/a	n/a	n/a	n/a	n/a	n/a	n/a	n/a	fixation
32989.379963643383	500.0	n/a	553	89	2750	499.620036357	stim	stop-signal	404	1206868	0.0-19.6-1.6	beast_fmri_test	338	1204612,/,1205292,/,1205971,/,1206695,/,1207332,/	t,t,t,t,t	<img class = center src='/static/experiments/beast_fmri_test/images/P.png'></img>	71,89	2750.0	test	<img class = center src='/static/experiments/beast_fmri_test/images/redP.png'></img>	stop	2250.0	3.0	6.0	stop	non-target	P	71,Index Finger	89,Middle Finger	500.0	500.0	2250.0	2250.0	0.0	0.0	500.0	n/a	go_stim
35239.379963643383	2250.0	n/a	553	89	2750	499.620036357	stim	stop-signal	404	1206868	0.0-19.6-1.6	beast_fmri_test	338	1204612,/,1205292,/,1205971,/,1206695,/,1207332,/	t,t,t,t,t	<img class = center src='/static/experiments/beast_fmri_test/images/P.png'></img>	71,89	2750.0	test	<img class = center src='/static/experiments/beast_fmri_test/images/redP.png'></img>	stop	2250.0	3.0	6.0	stop	non-target	P	71,Index Finger	89,Middle Finger	500.0	500.0	2250.0	2250.0	0.0	0.0	500.0	n/a	stop_stim
35739.379963643383	499.620036357	n/a	553	89	2750	499.620036357	stim	stop-signal	404	1206868	0.0-19.6-1.6	beast_fmri_test	338	1204612,/,1205292,/,1205971,/,1206695,/,1207332,/	t,t,t,t,t	<img class = center src='/static/experiments/beast_fmri_test/images/P.png'></img>	71,89	2750.0	test	<img class = center src='/static/experiments/beast_fmri_test/images/redP.png'></img>	stop	2250.0	3.0	6.0	stop	non-target	P	71,Index Finger	89,Middle Finger	500.0	500.0	2250.0	2250.0	0.0	0.0	500.0	n/a	ITI
37283	500.0	n/a	-1	-1	500	0.0	fixation	poldrack-single-stim	405	1207912	0.0-19.7-0.7	beast_fmri_test	338	n/a	n/a	<div class = centerbox2><div class = fixation>+</div></div>	none	500.0	test	n/a	n/a	n/a	n/a	n/a	n/a	n/a	n/a	n/a	n/a	n/a	n/a	n/a	n/a	n/a	n/a	n/a	n/a	fixation
36309.437621122925	450.0	n/a	-1	-1	2750	975.562378877	stim	stop-signal	406	1210664	0.0-19.7-1.7	beast_fmri_test	338	1208013,/,1208692,/,1209371,/,1210051,/,1210729,/,1211410,/	t,t,t,t,t,t	<img class = center src='/static/experiments/beast_fmri_test/images/P.png'></img>	71,89	2750.0	test	<img class = center src='/static/experiments/beast_fmri_test/images/redP.png'></img>	stop	2300.0	3.0	7.0	stop	non-target	P	71,Index Finger	89,Middle Finger	500.0	450.0	2250.0	2300.0	0.0	1.0	450.0	n/a	go_stim
38609.437621122925	2300.0	n/a	-1	-1	2750	975.562378877	stim	stop-signal	406	1210664	0.0-19.7-1.7	beast_fmri_test	338	1208013,/,1208692,/,1209371,/,1210051,/,1210729,/,1211410,/	t,t,t,t,t,t	<img class = center src='/static/experiments/beast_fmri_test/images/P.png'></img>	71,89	2750.0	test	<img class = center src='/static/experiments/beast_fmri_test/images/redP.png'></img>	stop	2300.0	3.0	7.0	stop	non-target	P	71,Index Finger	89,Middle Finger	500.0	450.0	2250.0	2300.0	0.0	1.0	450.0	n/a	stop_stim
39059.437621122925	975.562378877	n/a	-1	-1	2750	975.562378877	stim	stop-signal	406	1210664	0.0-19.7-1.7	beast_fmri_test	338	1208013,/,1208692,/,1209371,/,1210051,/,1210729,/,1211410,/	t,t,t,t,t,t	<img class = center src='/static/experiments/beast_fmri_test/images/P.png'></img>	71,89	2750.0	test	<img class = center src='/static/experiments/beast_fmri_test/images/redP.png'></img>	stop	2300.0	3.0	7.0	stop	non-target	P	71,Index Finger	89,Middle Finger	500.0	450.0	2250.0	2300.0	0.0	1.0	450.0	n/a	ITI
41555	500.0	n/a	-1	-1	500	0.0	fixation	poldrack-single-stim	407	1212184	0.0-19.8-0.8	beast_fmri_test	338	1212089,/	t	<div class = centerbox2><div class = fixation>+</div></div>	none	500.0	test	n/a	n/a	n/a	n/a	n/a	n/a	n/a	n/a	n/a	n/a	n/a	n/a	n/a	n/a	n/a	n/a	n/a	n/a	fixation
36556.0	2750.0	n/a	874	71	2750	5000.0	stim	stop-signal	408	1214935	0.0-19.8-1.8	beast_fmri_test	338	1212770,/,1213448,/,1214129,/,1214809,/,1215487,/,1216168,/,1216846,/,1217527,/,1218206,/,1218887,/,1219565,/	t,t,t,t,t,t,t,t,t,t,t	<img class = center src='/static/experiments/beast_fmri_test/images/D.png'></img>	71,89	2750.0	test	<img class = center src='/static/experiments/beast_fmri_test/images/redD.png'></img>	go	2250.0	3.0	8.0	go	target	D	71,Index Finger	89,Middle Finger	500.0	500.0	2250.0	2300.0	1.0	n/a	500.0	1.0	go_stim
39306.0	5000.0	n/a	874	71	2750	5000.0	stim	stop-signal	408	1214935	0.0-19.8-1.8	beast_fmri_test	338	1212770,/,1213448,/,1214129,/,1214809,/,1215487,/,1216168,/,1216846,/,1217527,/,1218206,/,1218887,/,1219565,/	t,t,t,t,t,t,t,t,t,t,t	<img class = center src='/static/experiments/beast_fmri_test/images/D.png'></img>	71,89	2750.0	test	<img class = center src='/static/experiments/beast_fmri_test/images/redD.png'></img>	go	2250.0	3.0	8.0	go	target	D	71,Index Finger	89,Middle Finger	500.0	500.0	2250.0	2300.0	1.0	n/a	500.0	1.0	ITI
49847	500.0	n/a	-1	-1	500	0.0	fixation	poldrack-single-stim	409	1220476	0.0-19.9-0.9	beast_fmri_test	338	1220245,/	t	<div class = centerbox2><div class = fixation>+</div></div>	none	500.0	test	n/a	n/a	n/a	n/a	n/a	n/a	n/a	n/a	n/a	n/a	n/a	n/a	n/a	n/a	n/a	n/a	n/a	n/a	fixation
49444.345901264111	2750.0	n/a	772	71	2750	403.654098736	stim	stop-signal	410	1223227	0.0-19.9-1.9	beast_fmri_test	338	1220925,/,1221604,/,1222284,/,1222965,/	t,t,t,t	<img class = center src='/static/experiments/beast_fmri_test/images/P.png'></img>	71,89	2750.0	test	<img class = center src='/static/experiments/beast_fmri_test/images/redP.png'></img>	go	2250.0	3.0	9.0	go	target	P	71,Index Finger	89,Middle Finger	500.0	500.0	2250.0	2300.0	1.0	n/a	500.0	1.0	go_stim
52194.345901264111	403.654098736	n/a	772	71	2750	403.654098736	stim	stop-signal	410	1223227	0.0-19.9-1.9	beast_fmri_test	338	1220925,/,1221604,/,1222284,/,1222965,/	t,t,t,t	<img class = center src='/static/experiments/beast_fmri_test/images/P.png'></img>	71,89	2750.0	test	<img class = center src='/static/experiments/beast_fmri_test/images/redP.png'></img>	go	2250.0	3.0	9.0	go	target	P	71,Index Finger	89,Middle Finger	500.0	500.0	2250.0	2300.0	1.0	n/a	500.0	1.0	ITI
53549	500.0	n/a	-1	-1	500	0.0	fixation	poldrack-single-stim	411	1224178	0.0-19.10-0.10	beast_fmri_test	338	1223675,/	t	<div class = centerbox2><div class = fixation>+</div></div>	none	500.0	test	n/a	n/a	n/a	n/a	n/a	n/a	n/a	n/a	n/a	n/a	n/a	n/a	n/a	n/a	n/a	n/a	n/a	n/a	fixation
52341.264907901641	2750.0	n/a	655	89	2750	1209.7350921	stim	stop-signal	412	1226930	0.0-19.10-1.10	beast_fmri_test	338	1224324,/,1225003,/,1225683,/,1226363,/,1227044,/,1227722,/	t,t,t,t,t,t	<img class = center src='/static/experiments/beast_fmri_test/images/D.png'></img>	71,89	2750.0	test	<img class = center src='/static/experiments/beast_fmri_test/images/redD.png'></img>	go	2250.0	3.0	10.0	go	non-target	D	71,Index Finger	89,Middle Finger	500.0	500.0	2250.0	2250.0	1.0	n/a	500.0	1.0	go_stim
55091.264907901641	1209.7350921	n/a	655	89	2750	1209.7350921	stim	stop-signal	412	1226930	0.0-19.10-1.10	beast_fmri_test	338	1224324,/,1225003,/,1225683,/,1226363,/,1227044,/,1227722,/	t,t,t,t,t,t	<img class = center src='/static/experiments/beast_fmri_test/images/D.png'></img>	71,89	2750.0	test	<img class = center src='/static/experiments/beast_fmri_test/images/redD.png'></img>	go	2250.0	3.0	10.0	go	non-target	D	71,Index Finger	89,Middle Finger	500.0	500.0	2250.0	2250.0	1.0	n/a	500.0	1.0	ITI
58055	500.0	n/a	-1	-1	500	0.0	fixation	poldrack-single-stim	413	1228684	0.0-19.11-0.11	beast_fmri_test	338	1228402,/	t	<div class = centerbox2><div class = fixation>+</div></div>	none	500.0	test	n/a	n/a	n/a	n/a	n/a	n/a	n/a	n/a	n/a	n/a	n/a	n/a	n/a	n/a	n/a	n/a	n/a	n/a	fixation
57651.550252193352	500.0	n/a	688	89	2750	404.449747807	stim	stop-signal	414	1231435	0.0-19.11-1.11	beast_fmri_test	338	1229082,/,1229768,/,1230441,/,1231119,/,1231800,/	t,t,t,t,t	<img class = center src='/static/experiments/beast_fmri_test/images/B.png'></img>	71,89	2750.0	test	<img class = center src='/static/experiments/beast_fmri_test/images/redB.png'></img>	stop	2250.0	3.0	11.0	stop	non-target	B	71,Index Finger	89,Middle Finger	500.0	500.0	2250.0	2250.0	0.0	0.0	500.0	n/a	go_stim
59901.550252193352	2250.0	n/a	688	89	2750	404.449747807	stim	stop-signal	414	1231435	0.0-19.11-1.11	beast_fmri_test	338	1229082,/,1229768,/,1230441,/,1231119,/,1231800,/	t,t,t,t,t	<img class = center src='/static/experiments/beast_fmri_test/images/B.png'></img>	71,89	2750.0	test	<img class = center src='/static/experiments/beast_fmri_test/images/redB.png'></img>	stop	2250.0	3.0	11.0	stop	non-target	B	71,Index Finger	89,Middle Finger	500.0	500.0	2250.0	2250.0	0.0	0.0	500.0	n/a	stop_stim
60401.550252193352	404.449747807	n/a	688	89	2750	404.449747807	stim	stop-signal	414	1231435	0.0-19.11-1.11	beast_fmri_test	338	1229082,/,1229768,/,1230441,/,1231119,/,1231800,/	t,t,t,t,t	<img class = center src='/static/experiments/beast_fmri_test/images/B.png'></img>	71,89	2750.0	test	<img class = center src='/static/experiments/beast_fmri_test/images/redB.png'></img>	stop	2250.0	3.0	11.0	stop	non-target	B	71,Index Finger	89,Middle Finger	500.0	500.0	2250.0	2250.0	0.0	0.0	500.0	n/a	ITI
61758	500.0	n/a	-1	-1	500	0.0	fixation	poldrack-single-stim	415	1232387	0.0-19.12-0.12	beast_fmri_test	338	n/a	n/a	<div class = centerbox2><div class = fixation>+</div></div>	none	500.0	test	n/a	n/a	n/a	n/a	n/a	n/a	n/a	n/a	n/a	n/a	n/a	n/a	n/a	n/a	n/a	n/a	n/a	n/a	fixation
60612.807951047318	2750.0	n/a	648	89	2750	1146.19204895	stim	stop-signal	416	1235138	0.0-19.12-1.12	beast_fmri_test	338	1232480,/,1233177,/,1233839,/,1234519,/,1235198,/,1235878,/	t,t,t,t,t,t	<img class = center src='/static/experiments/beast_fmri_test/images/V.png'></img>	71,89	2750.0	test	<img class = center src='/static/experiments/beast_fmri_test/images/redV.png'></img>	go	2300.0	3.0	12.0	go	non-target	V	71,Index Finger	89,Middle Finger	500.0	450.0	2250.0	2300.0	1.0	n/a	450.0	1.0	go_stim
63362.807951047318	1146.19204895	n/a	648	89	2750	1146.19204895	stim	stop-signal	416	1235138	0.0-19.12-1.12	beast_fmri_test	338	1232480,/,1233177,/,1233839,/,1234519,/,1235198,/,1235878,/	t,t,t,t,t,t	<img class = center src='/static/experiments/beast_fmri_test/images/V.png'></img>	71,89	2750.0	test	<img class = center src='/static/experiments/beast_fmri_test/images/redV.png'></img>	go	2300.0	3.0	12.0	go	non-target	V	71,Index Finger	89,Middle Finger	500.0	450.0	2250.0	2300.0	1.0	n/a	450.0	1.0	ITI
66210	500.0	n/a	-1	-1	500	0.0	fixation	poldrack-single-stim	417	1236839	0.0-19.13-0.13	beast_fmri_test	338	1236558,/	t	<div class = centerbox2><div class = fixation>+</div></div>	none	500.0	test	n/a	n/a	n/a	n/a	n/a	n/a	n/a	n/a	n/a	n/a	n/a	n/a	n/a	n/a	n/a	n/a	n/a	n/a	fixation
66052.697535654763	2750.0	n/a	721	89	2750	171.302464345	stim	stop-signal	418	1239603	0.0-19.13-1.13	beast_fmri_test	338	1237237,/,1237917,/,1238596,/,1239276,/	t,t,t,t	<img class = center src='/static/experiments/beast_fmri_test/images/B.png'></img>	71,89	2750.0	test	<img class = center src='/static/experiments/beast_fmri_test/images/redB.png'></img>	go	2300.0	3.0	13.0	go	non-target	B	71,Index Finger	89,Middle Finger	500.0	450.0	2250.0	2300.0	1.0	n/a	450.0	1.0	go_stim
68802.697535654763	171.302464345	n/a	721	89	2750	171.302464345	stim	stop-signal	418	1239603	0.0-19.13-1.13	beast_fmri_test	338	1237237,/,1237917,/,1238596,/,1239276,/	t,t,t,t	<img class = center src='/static/experiments/beast_fmri_test/images/B.png'></img>	71,89	2750.0	test	<img class = center src='/static/experiments/beast_fmri_test/images/redB.png'></img>	go	2300.0	3.0	13.0	go	non-target	B	71,Index Finger	89,Middle Finger	500.0	450.0	2250.0	2300.0	1.0	n/a	450.0	1.0	ITI
69689	500.0	n/a	-1	-1	500	0.0	fixation	poldrack-single-stim	419	1240318	0.0-19.14-0.14	beast_fmri_test	338	1239956,/	t	<div class = centerbox2><div class = fixation>+</div></div>	none	500.0	test	n/a	n/a	n/a	n/a	n/a	n/a	n/a	n/a	n/a	n/a	n/a	n/a	n/a	n/a	n/a	n/a	n/a	n/a	fixation
69125.175201667706	2750.0	n/a	935	71	2750	563.824798332	stim	stop-signal	420	1243068	0.0-19.14-1.14	beast_fmri_test	338	1240635,/,1241316,/,1241996,/,1242677,/,1243357,/	t,t,t,t,t	<img class = center src='/static/experiments/beast_fmri_test/images/B.png'></img>	71,89	2750.0	test	<img class = center src='/static/experiments/beast_fmri_test/images/redB.png'></img>	go	2250.0	3.0	14.0	go	target	B	71,Index Finger	89,Middle Finger	500.0	450.0	2250.0	2300.0	1.0	n/a	500.0	1.0	go_stim
71875.175201667706	563.824798332	n/a	935	71	2750	563.824798332	stim	stop-signal	420	1243068	0.0-19.14-1.14	beast_fmri_test	338	1240635,/,1241316,/,1241996,/,1242677,/,1243357,/	t,t,t,t,t	<img class = center src='/static/experiments/beast_fmri_test/images/B.png'></img>	71,89	2750.0	test	<img class = center src='/static/experiments/beast_fmri_test/images/redB.png'></img>	go	2250.0	3.0	14.0	go	target	B	71,Index Finger	89,Middle Finger	500.0	450.0	2250.0	2300.0	1.0	n/a	500.0	1.0	ITI
73557	500.0	n/a	-1	-1	500	0.0	fixation	poldrack-single-stim	421	1244186	0.0-19.15-0.15	beast_fmri_test	338	1244034,/	t	<div class = centerbox2><div class = fixation>+</div></div>	none	500.0	test	n/a	n/a	n/a	n/a	n/a	n/a	n/a	n/a	n/a	n/a	n/a	n/a	n/a	n/a	n/a	n/a	n/a	n/a	fixation
72170.865728862584	450.0	n/a	741	89	2750	1388.13427114	stim	stop-signal	422	1246938	0.0-19.15-1.15	beast_fmri_test	338	1244723,/,1245393,/,1246074,/,1246753,/,1247433,/,1248112,/	t,t,t,t,t,t	<img class = center src='/static/experiments/beast_fmri_test/images/P.png'></img>	71,89	2750.0	test	<img class = center src='/static/experiments/beast_fmri_test/images/redP.png'></img>	stop	2300.0	3.0	15.0	stop	non-target	P	71,Index Finger	89,Middle Finger	500.0	450.0	2250.0	2300.0	0.0	0.0	450.0	n/a	go_stim
74470.865728862584	2300.0	n/a	741	89	2750	1388.13427114	stim	stop-signal	422	1246938	0.0-19.15-1.15	beast_fmri_test	338	1244723,/,1245393,/,1246074,/,1246753,/,1247433,/,1248112,/	t,t,t,t,t,t	<img class = center src='/static/experiments/beast_fmri_test/images/P.png'></img>	71,89	2750.0	test	<img class = center src='/static/experiments/beast_fmri_test/images/redP.png'></img>	stop	2300.0	3.0	15.0	stop	non-target	P	71,Index Finger	89,Middle Finger	500.0	450.0	2250.0	2300.0	0.0	0.0	450.0	n/a	stop_stim
74920.865728862584	1388.13427114	n/a	741	89	2750	1388.13427114	stim	stop-signal	422	1246938	0.0-19.15-1.15	beast_fmri_test	338	1244723,/,1245393,/,1246074,/,1246753,/,1247433,/,1248112,/	t,t,t,t,t,t	<img class = center src='/static/experiments/beast_fmri_test/images/P.png'></img>	71,89	2750.0	test	<img class = center src='/static/experiments/beast_fmri_test/images/redP.png'></img>	stop	2300.0	3.0	15.0	stop	non-target	P	71,Index Finger	89,Middle Finger	500.0	450.0	2250.0	2300.0	0.0	0.0	450.0	n/a	ITI
78241	500.0	n/a	-1	-1	500	0.0	fixation	poldrack-single-stim	423	1248870	0.0-19.16-0.16	beast_fmri_test	338	1248793,/	t	<div class = centerbox2><div class = fixation>+</div></div>	none	500.0	test	n/a	n/a	n/a	n/a	n/a	n/a	n/a	n/a	n/a	n/a	n/a	n/a	n/a	n/a	n/a	n/a	n/a	n/a	fixation
78233.742030403344	2750.0	n/a	698	89	2750	8.25796959667	stim	stop-signal	424	1251621	0.0-19.16-1.16	beast_fmri_test	338	1249472,/,1250152,/,1250831,/,1251512,/	t,t,t,t	<img class = center src='/static/experiments/beast_fmri_test/images/T.png'></img>	71,89	2750.0	test	<img class = center src='/static/experiments/beast_fmri_test/images/redT.png'></img>	go	2350.0	3.0	16.0	go	non-target	T	71,Index Finger	89,Middle Finger	500.0	400.0	2250.0	2350.0	1.0	n/a	400.0	1.0	go_stim
80983.742030403344	8.25796959667	n/a	698	89	2750	8.25796959667	stim	stop-signal	424	1251621	0.0-19.16-1.16	beast_fmri_test	338	1249472,/,1250152,/,1250831,/,1251512,/	t,t,t,t	<img class = center src='/static/experiments/beast_fmri_test/images/T.png'></img>	71,89	2750.0	test	<img class = center src='/static/experiments/beast_fmri_test/images/redT.png'></img>	go	2350.0	3.0	16.0	go	non-target	T	71,Index Finger	89,Middle Finger	500.0	400.0	2250.0	2350.0	1.0	n/a	400.0	1.0	ITI
81547	500.0	n/a	-1	-1	500	0.0	fixation	poldrack-single-stim	425	1252176	0.0-19.17-0.17	beast_fmri_test	338	n/a	n/a	<div class = centerbox2><div class = fixation>+</div></div>	none	500.0	test	n/a	n/a	n/a	n/a	n/a	n/a	n/a	n/a	n/a	n/a	n/a	n/a	n/a	n/a	n/a	n/a	n/a	n/a	fixation
81244.23015232035	2750.0	n/a	1557	71	2750	304.76984768	stim	stop-signal	426	1254928	0.0-19.17-1.17	beast_fmri_test	338	1252193,/,1252871,/,1253550,/,1254230,/,1254909,/	t,t,t,t,t	<img class = center src='/static/experiments/beast_fmri_test/images/D.png'></img>	71,89	2750.0	test	<img class = center src='/static/experiments/beast_fmri_test/images/redD.png'></img>	go	2350.0	3.0	17.0	go	non-target	D	71,Index Finger	89,Middle Finger	500.0	400.0	2250.0	2350.0	0.0	n/a	400.0	0.0	go_stim
83994.23015232035	304.76984768	n/a	1557	71	2750	304.76984768	stim	stop-signal	426	1254928	0.0-19.17-1.17	beast_fmri_test	338	1252193,/,1252871,/,1253550,/,1254230,/,1254909,/	t,t,t,t,t	<img class = center src='/static/experiments/beast_fmri_test/images/D.png'></img>	71,89	2750.0	test	<img class = center src='/static/experiments/beast_fmri_test/images/redD.png'></img>	go	2350.0	3.0	17.0	go	non-target	D	71,Index Finger	89,Middle Finger	500.0	400.0	2250.0	2350.0	0.0	n/a	400.0	0.0	ITI
85154	500.0	n/a	-1	-1	500	0.0	fixation	poldrack-single-stim	427	1255783	0.0-19.18-0.18	beast_fmri_test	338	1255588,/	t	<div class = centerbox2><div class = fixation>+</div></div>	none	500.0	test	n/a	n/a	n/a	n/a	n/a	n/a	n/a	n/a	n/a	n/a	n/a	n/a	n/a	n/a	n/a	n/a	n/a	n/a	fixation
84439.360238224734	2750.0	n/a	919	71	2750	715.639761775	stim	stop-signal	428	1258534	0.0-19.18-1.18	beast_fmri_test	338	1256269,/,1256947,/,1257627,/,1258307,/,1258987,/	t,t,t,t,t	<img class = center src='/static/experiments/beast_fmri_test/images/D.png'></img>	71,89	2750.0	test	<img class = center src='/static/experiments/beast_fmri_test/images/redD.png'></img>	go	2350.0	3.0	18.0	go	non-target	D	71,Index Finger	89,Middle Finger	500.0	400.0	2250.0	2350.0	0.0	n/a	400.0	0.0	go_stim
87189.360238224734	715.639761775	n/a	919	71	2750	715.639761775	stim	stop-signal	428	1258534	0.0-19.18-1.18	beast_fmri_test	338	1256269,/,1256947,/,1257627,/,1258307,/,1258987,/	t,t,t,t,t	<img class = center src='/static/experiments/beast_fmri_test/images/D.png'></img>	71,89	2750.0	test	<img class = center src='/static/experiments/beast_fmri_test/images/redD.png'></img>	go	2350.0	3.0	18.0	go	non-target	D	71,Index Finger	89,Middle Finger	500.0	400.0	2250.0	2350.0	0.0	n/a	400.0	0.0	ITI
89170	500.0	n/a	-1	-1	500	0.0	fixation	poldrack-single-stim	429	1259799	0.0-19.19-0.19	beast_fmri_test	338	1259668,/	t	<div class = centerbox2><div class = fixation>+</div></div>	none	500.0	test	n/a	n/a	n/a	n/a	n/a	n/a	n/a	n/a	n/a	n/a	n/a	n/a	n/a	n/a	n/a	n/a	n/a	n/a	fixation
88639.061480148463	2750.0	n/a	1013	71	2750	531.938519852	stim	stop-signal	430	1262550	0.0-19.19-1.19	beast_fmri_test	338	1260346,/,1261027,/,1261705,/,1262385,/,1263065,/	t,t,t,t,t	<img class = center src='/static/experiments/beast_fmri_test/images/T.png'></img>	71,89	2750.0	test	<img class = center src='/static/experiments/beast_fmri_test/images/redT.png'></img>	go	2250.0	3.0	19.0	go	target	T	71,Index Finger	89,Middle Finger	500.0	400.0	2250.0	2350.0	1.0	n/a	500.0	1.0	go_stim
91389.061480148463	531.938519852	n/a	1013	71	2750	531.938519852	stim	stop-signal	430	1262550	0.0-19.19-1.19	beast_fmri_test	338	1260346,/,1261027,/,1261705,/,1262385,/,1263065,/	t,t,t,t,t	<img class = center src='/static/experiments/beast_fmri_test/images/T.png'></img>	71,89	2750.0	test	<img class = center src='/static/experiments/beast_fmri_test/images/redT.png'></img>	go	2250.0	3.0	19.0	go	target	T	71,Index Finger	89,Middle Finger	500.0	400.0	2250.0	2350.0	1.0	n/a	500.0	1.0	ITI
92999	500.0	n/a	-1	-1	500	0.0	fixation	poldrack-single-stim	431	1263628	0.0-19.20-0.20	beast_fmri_test	338	n/a	n/a	<div class = centerbox2><div class = fixation>+</div></div>	none	500.0	test	n/a	n/a	n/a	n/a	n/a	n/a	n/a	n/a	n/a	n/a	n/a	n/a	n/a	n/a	n/a	n/a	n/a	n/a	fixation
92967.034761600429	2750.0	n/a	1209	71	2750	34.9652383996	stim	stop-signal	432	1266381	0.0-19.20-1.20	beast_fmri_test	338	1263747,/,1264424,/,1265104,/,1265786,/	t,t,t,t	<img class = center src='/static/experiments/beast_fmri_test/images/T.png'></img>	71,89	2750.0	test	<img class = center src='/static/experiments/beast_fmri_test/images/redT.png'></img>	go	2350.0	3.0	20.0	go	non-target	T	71,Index Finger	89,Middle Finger	500.0	400.0	2250.0	2350.0	0.0	n/a	400.0	0.0	go_stim
95717.034761600429	34.9652383996	n/a	1209	71	2750	34.9652383996	stim	stop-signal	432	1266381	0.0-19.20-1.20	beast_fmri_test	338	1263747,/,1264424,/,1265104,/,1265786,/	t,t,t,t	<img class = center src='/static/experiments/beast_fmri_test/images/T.png'></img>	71,89	2750.0	test	<img class = center src='/static/experiments/beast_fmri_test/images/redT.png'></img>	go	2350.0	3.0	20.0	go	non-target	T	71,Index Finger	89,Middle Finger	500.0	400.0	2250.0	2350.0	0.0	n/a	400.0	0.0	ITI
96336	500.0	n/a	-1	-1	500	0.0	fixation	poldrack-single-stim	433	1266965	0.0-19.21-0.21	beast_fmri_test	338	1266464,/	t	<div class = centerbox2><div class = fixation>+</div></div>	none	500.0	test	n/a	n/a	n/a	n/a	n/a	n/a	n/a	n/a	n/a	n/a	n/a	n/a	n/a	n/a	n/a	n/a	n/a	n/a	fixation
95574.729073240887	500.0	n/a	-1	-1	2750	763.270926759	stim	stop-signal	434	1269717	0.0-19.21-1.21	beast_fmri_test	338	1267144,/,1267824,/,1268504,/,1269183,/,1269863,/	t,t,t,t,t	<img class = center src='/static/experiments/beast_fmri_test/images/D.png'></img>	71,89	2750.0	test	<img class = center src='/static/experiments/beast_fmri_test/images/redD.png'></img>	stop	2250.0	3.0	21.0	stop	target	D	71,Index Finger	89,Middle Finger	500.0	400.0	2250.0	2350.0	0.0	1.0	500.0	n/a	go_stim
97824.729073240887	2250.0	n/a	-1	-1	2750	763.270926759	stim	stop-signal	434	1269717	0.0-19.21-1.21	beast_fmri_test	338	1267144,/,1267824,/,1268504,/,1269183,/,1269863,/	t,t,t,t,t	<img class = center src='/static/experiments/beast_fmri_test/images/D.png'></img>	71,89	2750.0	test	<img class = center src='/static/experiments/beast_fmri_test/images/redD.png'></img>	stop	2250.0	3.0	21.0	stop	target	D	71,Index Finger	89,Middle Finger	500.0	400.0	2250.0	2350.0	0.0	1.0	500.0	n/a	stop_stim
98324.729073240887	763.270926759	n/a	-1	-1	2750	763.270926759	stim	stop-signal	434	1269717	0.0-19.21-1.21	beast_fmri_test	338	1267144,/,1267824,/,1268504,/,1269183,/,1269863,/	t,t,t,t,t	<img class = center src='/static/experiments/beast_fmri_test/images/D.png'></img>	71,89	2750.0	test	<img class = center src='/static/experiments/beast_fmri_test/images/redD.png'></img>	stop	2250.0	3.0	21.0	stop	target	D	71,Index Finger	89,Middle Finger	500.0	400.0	2250.0	2350.0	0.0	1.0	500.0	n/a	ITI
100398	500.0	n/a	-1	-1	500	0.0	fixation	poldrack-single-stim	435	1271027	0.0-19.22-0.22	beast_fmri_test	338	1270542,/	t	<div class = centerbox2><div class = fixation>+</div></div>	none	500.0	test	n/a	n/a	n/a	n/a	n/a	n/a	n/a	n/a	n/a	n/a	n/a	n/a	n/a	n/a	n/a	n/a	n/a	n/a	fixation
98437.383843835676	2750.0	n/a	689	89	2750	1961.61615616	stim	stop-signal	436	1273778	0.0-19.22-1.22	beast_fmri_test	338	1271221,/,1271901,/,1272581,/,1273261,/,1273941,/,1274620,/,1275300,/	t,t,t,t,t,t,t	<img class = center src='/static/experiments/beast_fmri_test/images/P.png'></img>	71,89	2750.0	test	<img class = center src='/static/experiments/beast_fmri_test/images/redP.png'></img>	go	2350.0	3.0	22.0	go	non-target	P	71,Index Finger	89,Middle Finger	550.0	400.0	2250.0	2350.0	1.0	n/a	400.0	1.0	go_stim
101187.38384383568	1961.61615616	n/a	689	89	2750	1961.61615616	stim	stop-signal	436	1273778	0.0-19.22-1.22	beast_fmri_test	338	1271221,/,1271901,/,1272581,/,1273261,/,1273941,/,1274620,/,1275300,/	t,t,t,t,t,t,t	<img class = center src='/static/experiments/beast_fmri_test/images/P.png'></img>	71,89	2750.0	test	<img class = center src='/static/experiments/beast_fmri_test/images/redP.png'></img>	go	2350.0	3.0	22.0	go	non-target	P	71,Index Finger	89,Middle Finger	550.0	400.0	2250.0	2350.0	1.0	n/a	400.0	1.0	ITI
105659	500.0	n/a	-1	-1	500	0.0	fixation	poldrack-single-stim	437	1276288	0.0-19.23-0.23	beast_fmri_test	338	1275980,/	t	<div class = centerbox2><div class = fixation>+</div></div>	none	500.0	test	n/a	n/a	n/a	n/a	n/a	n/a	n/a	n/a	n/a	n/a	n/a	n/a	n/a	n/a	n/a	n/a	n/a	n/a	fixation
104947.18629374704	2750.0	n/a	676	89	2750	715.813706253	stim	stop-signal	438	1279042	0.0-19.23-1.23	beast_fmri_test	338	1276660,/,1277338,/,1278018,/,1278698,/,1279377,/	t,t,t,t,t	<img class = center src='/static/experiments/beast_fmri_test/images/P.png'></img>	71,89	2750.0	test	<img class = center src='/static/experiments/beast_fmri_test/images/redP.png'></img>	go	2350.0	3.0	23.0	go	non-target	P	71,Index Finger	89,Middle Finger	550.0	400.0	2250.0	2350.0	1.0	n/a	400.0	1.0	go_stim
107697.18629374704	715.813706253	n/a	676	89	2750	715.813706253	stim	stop-signal	438	1279042	0.0-19.23-1.23	beast_fmri_test	338	1276660,/,1277338,/,1278018,/,1278698,/,1279377,/	t,t,t,t,t	<img class = center src='/static/experiments/beast_fmri_test/images/P.png'></img>	71,89	2750.0	test	<img class = center src='/static/experiments/beast_fmri_test/images/redP.png'></img>	go	2350.0	3.0	23.0	go	non-target	P	71,Index Finger	89,Middle Finger	550.0	400.0	2250.0	2350.0	1.0	n/a	400.0	1.0	ITI
109676	500.0	n/a	-1	-1	500	0.0	fixation	poldrack-single-stim	439	1280305	0.0-19.24-0.24	beast_fmri_test	338	1280058,/	t	<div class = centerbox2><div class = fixation>+</div></div>	none	500.0	test	n/a	n/a	n/a	n/a	n/a	n/a	n/a	n/a	n/a	n/a	n/a	n/a	n/a	n/a	n/a	n/a	n/a	n/a	fixation
107839.56399745634	400.0	n/a	592	89	2750	1838.43600254	stim	stop-signal	440	1283057	0.0-19.24-1.24	beast_fmri_test	338	1280738,/,1281416,/,1282097,/,1282777,/,1283456,/,1284136,/,1284816,/	t,t,t,t,t,t,t	<img class = center src='/static/experiments/beast_fmri_test/images/B.png'></img>	71,89	2750.0	test	<img class = center src='/static/experiments/beast_fmri_test/images/redB.png'></img>	stop	2350.0	3.0	24.0	stop	non-target	B	71,Index Finger	89,Middle Finger	550.0	400.0	2250.0	2350.0	0.0	0.0	400.0	n/a	go_stim
110189.56399745634	2350.0	n/a	592	89	2750	1838.43600254	stim	stop-signal	440	1283057	0.0-19.24-1.24	beast_fmri_test	338	1280738,/,1281416,/,1282097,/,1282777,/,1283456,/,1284136,/,1284816,/	t,t,t,t,t,t,t	<img class = center src='/static/experiments/beast_fmri_test/images/B.png'></img>	71,89	2750.0	test	<img class = center src='/static/experiments/beast_fmri_test/images/redB.png'></img>	stop	2350.0	3.0	24.0	stop	non-target	B	71,Index Finger	89,Middle Finger	550.0	400.0	2250.0	2350.0	0.0	0.0	400.0	n/a	stop_stim
110589.56399745634	1838.43600254	n/a	592	89	2750	1838.43600254	stim	stop-signal	440	1283057	0.0-19.24-1.24	beast_fmri_test	338	1280738,/,1281416,/,1282097,/,1282777,/,1283456,/,1284136,/,1284816,/	t,t,t,t,t,t,t	<img class = center src='/static/experiments/beast_fmri_test/images/B.png'></img>	71,89	2750.0	test	<img class = center src='/static/experiments/beast_fmri_test/images/redB.png'></img>	stop	2350.0	3.0	24.0	stop	non-target	B	71,Index Finger	89,Middle Finger	550.0	400.0	2250.0	2350.0	0.0	0.0	400.0	n/a	ITI
114815	500.0	n/a	-1	-1	500	0.0	fixation	poldrack-single-stim	441	1285444	0.0-19.25-0.25	beast_fmri_test	338	n/a	n/a	<div class = centerbox2><div class = fixation>+</div></div>	none	500.0	test	n/a	n/a	n/a	n/a	n/a	n/a	n/a	n/a	n/a	n/a	n/a	n/a	n/a	n/a	n/a	n/a	n/a	n/a	fixation
113744.89885114506	2750.0	n/a	1148	71	2750	1072.10114885	stim	stop-signal	442	1288196	0.0-19.25-1.25	beast_fmri_test	338	1285494,/,1286175,/,1286853,/,1287533,/,1288212,/,1288892,/	t,t,t,t,t,t	<img class = center src='/static/experiments/beast_fmri_test/images/T.png'></img>	71,89	2750.0	test	<img class = center src='/static/experiments/beast_fmri_test/images/redT.png'></img>	go	2400.0	3.0	25.0	go	non-target	T	71,Index Finger	89,Middle Finger	550.0	350.0	2250.0	2400.0	0.0	n/a	350.0	0.0	go_stim
116494.89885114506	1072.10114885	n/a	1148	71	2750	1072.10114885	stim	stop-signal	442	1288196	0.0-19.25-1.25	beast_fmri_test	338	1285494,/,1286175,/,1286853,/,1287533,/,1288212,/,1288892,/	t,t,t,t,t,t	<img class = center src='/static/experiments/beast_fmri_test/images/T.png'></img>	71,89	2750.0	test	<img class = center src='/static/experiments/beast_fmri_test/images/redT.png'></img>	go	2400.0	3.0	25.0	go	non-target	T	71,Index Finger	89,Middle Finger	550.0	350.0	2250.0	2400.0	0.0	n/a	350.0	0.0	ITI
119184	500.0	n/a	-1	-1	500	0.0	fixation	poldrack-single-stim	443	1289813	0.0-19.26-0.26	beast_fmri_test	338	1289572,/	t	<div class = centerbox2><div class = fixation>+</div></div>	none	500.0	test	n/a	n/a	n/a	n/a	n/a	n/a	n/a	n/a	n/a	n/a	n/a	n/a	n/a	n/a	n/a	n/a	n/a	n/a	fixation
118320.43027315452	550.0	n/a	1441	71	2750	864.569726845	stim	stop-signal	444	1292564	0.0-19.26-1.26	beast_fmri_test	338	1290252,/,1290932,/,1291612,/,1292292,/,1292971,/	t,t,t,t,t	<img class = center src='/static/experiments/beast_fmri_test/images/P.png'></img>	71,89	2750.0	test	<img class = center src='/static/experiments/beast_fmri_test/images/redP.png'></img>	stop	2200.0	3.0	26.0	stop	target	P	71,Index Finger	89,Middle Finger	550.0	350.0	2200.0	2400.0	0.0	0.0	550.0	n/a	go_stim
120520.43027315452	2200.0	n/a	1441	71	2750	864.569726845	stim	stop-signal	444	1292564	0.0-19.26-1.26	beast_fmri_test	338	1290252,/,1290932,/,1291612,/,1292292,/,1292971,/	t,t,t,t,t	<img class = center src='/static/experiments/beast_fmri_test/images/P.png'></img>	71,89	2750.0	test	<img class = center src='/static/experiments/beast_fmri_test/images/redP.png'></img>	stop	2200.0	3.0	26.0	stop	target	P	71,Index Finger	89,Middle Finger	550.0	350.0	2200.0	2400.0	0.0	0.0	550.0	n/a	stop_stim
121070.43027315452	864.569726845	n/a	1441	71	2750	864.569726845	stim	stop-signal	444	1292564	0.0-19.26-1.26	beast_fmri_test	338	1290252,/,1290932,/,1291612,/,1292292,/,1292971,/	t,t,t,t,t	<img class = center src='/static/experiments/beast_fmri_test/images/P.png'></img>	71,89	2750.0	test	<img class = center src='/static/experiments/beast_fmri_test/images/redP.png'></img>	stop	2200.0	3.0	26.0	stop	target	P	71,Index Finger	89,Middle Finger	550.0	350.0	2200.0	2400.0	0.0	0.0	550.0	n/a	ITI
123346	500.0	n/a	-1	-1	500	0.0	fixation	poldrack-single-stim	445	1293975	0.0-19.27-0.27	beast_fmri_test	338	1293651,/	t	<div class = centerbox2><div class = fixation>+</div></div>	none	500.0	test	n/a	n/a	n/a	n/a	n/a	n/a	n/a	n/a	n/a	n/a	n/a	n/a	n/a	n/a	n/a	n/a	n/a	n/a	fixation
122947.177021479	500.0	n/a	-1	-1	2750	399.822978521	stim	stop-signal	446	1296726	0.0-19.27-1.27	beast_fmri_test	338	1294330,/,1295010,/,1295690,/,1296371,/,1297049,/	t,t,t,t,t	<img class = center src='/static/experiments/beast_fmri_test/images/B.png'></img>	71,89	2750.0	test	<img class = center src='/static/experiments/beast_fmri_test/images/redB.png'></img>	stop	2250.0	3.0	27.0	stop	target	B	71,Index Finger	89,Middle Finger	500.0	350.0	2250.0	2400.0	0.0	1.0	500.0	n/a	go_stim
125197.177021479	2250.0	n/a	-1	-1	2750	399.822978521	stim	stop-signal	446	1296726	0.0-19.27-1.27	beast_fmri_test	338	1294330,/,1295010,/,1295690,/,1296371,/,1297049,/	t,t,t,t,t	<img class = center src='/static/experiments/beast_fmri_test/images/B.png'></img>	71,89	2750.0	test	<img class = center src='/static/experiments/beast_fmri_test/images/redB.png'></img>	stop	2250.0	3.0	27.0	stop	target	B	71,Index Finger	89,Middle Finger	500.0	350.0	2250.0	2400.0	0.0	1.0	500.0	n/a	stop_stim
125697.177021479	399.822978521	n/a	-1	-1	2750	399.822978521	stim	stop-signal	446	1296726	0.0-19.27-1.27	beast_fmri_test	338	1294330,/,1295010,/,1295690,/,1296371,/,1297049,/	t,t,t,t,t	<img class = center src='/static/experiments/beast_fmri_test/images/B.png'></img>	71,89	2750.0	test	<img class = center src='/static/experiments/beast_fmri_test/images/redB.png'></img>	stop	2250.0	3.0	27.0	stop	target	B	71,Index Finger	89,Middle Finger	500.0	350.0	2250.0	2400.0	0.0	1.0	500.0	n/a	ITI
127089	500.0	n/a	-1	-1	500	0.0	fixation	poldrack-single-stim	447	1297718	0.0-19.28-0.28	beast_fmri_test	338	n/a	n/a	<div class = centerbox2><div class = fixation>+</div></div>	none	500.0	test	n/a	n/a	n/a	n/a	n/a	n/a	n/a	n/a	n/a	n/a	n/a	n/a	n/a	n/a	n/a	n/a	n/a	n/a	fixation
126759.91629928071	2750.0	n/a	738	89	2750	330.083700719	stim	stop-signal	448	1300469	0.0-19.28-1.28	beast_fmri_test	338	1297739,/,1298410,/,1299088,/,1299767,/,1300447,/	t,t,t,t,t	<img class = center src='/static/experiments/beast_fmri_test/images/B.png'></img>	71,89	2750.0	test	<img class = center src='/static/experiments/beast_fmri_test/images/redB.png'></img>	go	2400.0	3.0	28.0	go	non-target	B	71,Index Finger	89,Middle Finger	550.0	350.0	2250.0	2400.0	1.0	n/a	350.0	1.0	go_stim
129509.91629928071	330.083700719	n/a	738	89	2750	330.083700719	stim	stop-signal	448	1300469	0.0-19.28-1.28	beast_fmri_test	338	1297739,/,1298410,/,1299088,/,1299767,/,1300447,/	t,t,t,t,t	<img class = center src='/static/experiments/beast_fmri_test/images/B.png'></img>	71,89	2750.0	test	<img class = center src='/static/experiments/beast_fmri_test/images/redB.png'></img>	go	2400.0	3.0	28.0	go	non-target	B	71,Index Finger	89,Middle Finger	550.0	350.0	2250.0	2400.0	1.0	n/a	350.0	1.0	ITI
130717	500.0	n/a	-1	-1	500	0.0	fixation	poldrack-single-stim	449	1301346	0.0-19.29-0.29	beast_fmri_test	338	1301127,/	t	<div class = centerbox2><div class = fixation>+</div></div>	none	500.0	test	n/a	n/a	n/a	n/a	n/a	n/a	n/a	n/a	n/a	n/a	n/a	n/a	n/a	n/a	n/a	n/a	n/a	n/a	fixation
129258.38038390549	550.0	n/a	-1	-1	2750	1460.61961609	stim	stop-signal	450	1304098	0.0-19.29-1.29	beast_fmri_test	338	1301807,/,1302487,/,1303166,/,1303961,/,1304525,/,1305205,/	t,t,t,t,t,t	<img class = center src='/static/experiments/beast_fmri_test/images/P.png'></img>	71,89	2750.0	test	<img class = center src='/static/experiments/beast_fmri_test/images/redP.png'></img>	stop	2200.0	3.0	29.0	stop	target	P	71,Index Finger	89,Middle Finger	550.0	350.0	2200.0	2400.0	0.0	1.0	550.0	n/a	go_stim
131458.38038390549	2200.0	n/a	-1	-1	2750	1460.61961609	stim	stop-signal	450	1304098	0.0-19.29-1.29	beast_fmri_test	338	1301807,/,1302487,/,1303166,/,1303961,/,1304525,/,1305205,/	t,t,t,t,t,t	<img class = center src='/static/experiments/beast_fmri_test/images/P.png'></img>	71,89	2750.0	test	<img class = center src='/static/experiments/beast_fmri_test/images/redP.png'></img>	stop	2200.0	3.0	29.0	stop	target	P	71,Index Finger	89,Middle Finger	550.0	350.0	2200.0	2400.0	0.0	1.0	550.0	n/a	stop_stim
132008.38038390549	1460.61961609	n/a	-1	-1	2750	1460.61961609	stim	stop-signal	450	1304098	0.0-19.29-1.29	beast_fmri_test	338	1301807,/,1302487,/,1303166,/,1303961,/,1304525,/,1305205,/	t,t,t,t,t,t	<img class = center src='/static/experiments/beast_fmri_test/images/P.png'></img>	71,89	2750.0	test	<img class = center src='/static/experiments/beast_fmri_test/images/redP.png'></img>	stop	2200.0	3.0	29.0	stop	target	P	71,Index Finger	89,Middle Finger	550.0	350.0	2200.0	2400.0	0.0	1.0	550.0	n/a	ITI
135471	500.0	n/a	-1	-1	500	0.0	fixation	poldrack-single-stim	451	1306100	0.0-19.30-0.30	beast_fmri_test	338	1305885,/	t	<div class = centerbox2><div class = fixation>+</div></div>	none	500.0	test	n/a	n/a	n/a	n/a	n/a	n/a	n/a	n/a	n/a	n/a	n/a	n/a	n/a	n/a	n/a	n/a	n/a	n/a	fixation
135038.89441168937	2750.0	n/a	1031	71	2750	435.105588311	stim	stop-signal	452	1308853	0.0-19.30-1.30	beast_fmri_test	338	1306565,/,1307244,/,1307925,/,1308605,/,1309284,/	t,t,t,t,t	<img class = center src='/static/experiments/beast_fmri_test/images/D.png'></img>	71,89	2750.0	test	<img class = center src='/static/experiments/beast_fmri_test/images/redD.png'></img>	go	2400.0	3.0	30.0	go	non-target	D	71,Index Finger	89,Middle Finger	600.0	350.0	2200.0	2400.0	0.0	n/a	350.0	0.0	go_stim
137788.89441168937	435.105588311	n/a	1031	71	2750	435.105588311	stim	stop-signal	452	1308853	0.0-19.30-1.30	beast_fmri_test	338	1306565,/,1307244,/,1307925,/,1308605,/,1309284,/	t,t,t,t,t	<img class = center src='/static/experiments/beast_fmri_test/images/D.png'></img>	71,89	2750.0	test	<img class = center src='/static/experiments/beast_fmri_test/images/redD.png'></img>	go	2400.0	3.0	30.0	go	non-target	D	71,Index Finger	89,Middle Finger	600.0	350.0	2200.0	2400.0	0.0	n/a	350.0	0.0	ITI
139200	500.0	n/a	-1	-1	500	0.0	fixation	poldrack-single-stim	453	1309829	0.0-19.31-0.31	beast_fmri_test	338	n/a	n/a	<div class = centerbox2><div class = fixation>+</div></div>	none	500.0	test	n/a	n/a	n/a	n/a	n/a	n/a	n/a	n/a	n/a	n/a	n/a	n/a	n/a	n/a	n/a	n/a	n/a	n/a	fixation
136343.06126736291	2750.0	n/a	1444	89	2750	2857.93873264	stim	stop-signal	454	1312580	0.0-19.31-1.31	beast_fmri_test	338	1309964,/,1310644,/,1311322,/,1312002,/,1312682,/,1313362,/,1314043,/,1314725,/,1315400,/	t,t,t,t,t,t,t,t,t	<img class = center src='/static/experiments/beast_fmri_test/images/P.png'></img>	71,89	2750.0	test	<img class = center src='/static/experiments/beast_fmri_test/images/redP.png'></img>	go	2400.0	3.0	31.0	go	non-target	P	71,Index Finger	89,Middle Finger	600.0	350.0	2200.0	2400.0	1.0	n/a	350.0	1.0	go_stim
139093.06126736291	2857.93873264	n/a	1444	89	2750	2857.93873264	stim	stop-signal	454	1312580	0.0-19.31-1.31	beast_fmri_test	338	1309964,/,1310644,/,1311322,/,1312002,/,1312682,/,1313362,/,1314043,/,1314725,/,1315400,/	t,t,t,t,t,t,t,t,t	<img class = center src='/static/experiments/beast_fmri_test/images/P.png'></img>	71,89	2750.0	test	<img class = center src='/static/experiments/beast_fmri_test/images/redP.png'></img>	go	2400.0	3.0	31.0	go	non-target	P	71,Index Finger	89,Middle Finger	600.0	350.0	2200.0	2400.0	1.0	n/a	350.0	1.0	ITI
145351	500.0	n/a	-1	-1	500	0.0	fixation	poldrack-single-stim	455	1315980	0.0-19.32-0.32	beast_fmri_test	338	n/a	n/a	<div class = centerbox2><div class = fixation>+</div></div>	none	500.0	test	n/a	n/a	n/a	n/a	n/a	n/a	n/a	n/a	n/a	n/a	n/a	n/a	n/a	n/a	n/a	n/a	n/a	n/a	fixation
144544.73389115278	350.0	n/a	-1	-1	2750	807.266108847	stim	stop-signal	456	1318731	0.0-19.32-1.32	beast_fmri_test	338	1316080,/,1316760,/,1317439,/,1318120,/,1318847,/,1319478,/	t,t,t,t,t,t	<img class = center src='/static/experiments/beast_fmri_test/images/D.png'></img>	71,89	2750.0	test	<img class = center src='/static/experiments/beast_fmri_test/images/redD.png'></img>	stop	2400.0	3.0	32.0	stop	non-target	D	71,Index Finger	89,Middle Finger	600.0	350.0	2200.0	2400.0	0.0	1.0	350.0	n/a	go_stim
146944.73389115278	2400.0	n/a	-1	-1	2750	807.266108847	stim	stop-signal	456	1318731	0.0-19.32-1.32	beast_fmri_test	338	1316080,/,1316760,/,1317439,/,1318120,/,1318847,/,1319478,/	t,t,t,t,t,t	<img class = center src='/static/experiments/beast_fmri_test/images/D.png'></img>	71,89	2750.0	test	<img class = center src='/static/experiments/beast_fmri_test/images/redD.png'></img>	stop	2400.0	3.0	32.0	stop	non-target	D	71,Index Finger	89,Middle Finger	600.0	350.0	2200.0	2400.0	0.0	1.0	350.0	n/a	stop_stim
147294.73389115278	807.266108847	n/a	-1	-1	2750	807.266108847	stim	stop-signal	456	1318731	0.0-19.32-1.32	beast_fmri_test	338	1316080,/,1316760,/,1317439,/,1318120,/,1318847,/,1319478,/	t,t,t,t,t,t	<img class = center src='/static/experiments/beast_fmri_test/images/D.png'></img>	71,89	2750.0	test	<img class = center src='/static/experiments/beast_fmri_test/images/redD.png'></img>	stop	2400.0	3.0	32.0	stop	non-target	D	71,Index Finger	89,Middle Finger	600.0	350.0	2200.0	2400.0	0.0	1.0	350.0	n/a	ITI
149459	500.0	n/a	-1	-1	500	0.0	fixation	poldrack-single-stim	457	1320088	0.0-19.33-0.33	beast_fmri_test	338	n/a	n/a	<div class = centerbox2><div class = fixation>+</div></div>	none	500.0	test	n/a	n/a	n/a	n/a	n/a	n/a	n/a	n/a	n/a	n/a	n/a	n/a	n/a	n/a	n/a	n/a	n/a	n/a	fixation
149392.7919042476	2750.0	n/a	986	71	2750	69.2080957525	stim	stop-signal	458	1322841	0.0-19.33-1.33	beast_fmri_test	338	1320159,/,1320839,/,1321519,/,1322197,/,1322877,/	t,t,t,t,t	<img class = center src='/static/experiments/beast_fmri_test/images/D.png'></img>	71,89	2750.0	test	<img class = center src='/static/experiments/beast_fmri_test/images/redD.png'></img>	go	2150.0	3.0	33.0	go	target	D	71,Index Finger	89,Middle Finger	600.0	400.0	2150.0	2400.0	1.0	n/a	600.0	1.0	go_stim
152142.7919042476	69.2080957525	n/a	986	71	2750	69.2080957525	stim	stop-signal	458	1322841	0.0-19.33-1.33	beast_fmri_test	338	1320159,/,1320839,/,1321519,/,1322197,/,1322877,/	t,t,t,t,t	<img class = center src='/static/experiments/beast_fmri_test/images/D.png'></img>	71,89	2750.0	test	<img class = center src='/static/experiments/beast_fmri_test/images/redD.png'></img>	go	2150.0	3.0	33.0	go	target	D	71,Index Finger	89,Middle Finger	600.0	400.0	2150.0	2400.0	1.0	n/a	600.0	1.0	ITI
152828	500.0	n/a	-1	-1	500	0.0	fixation	poldrack-single-stim	459	1323457	0.0-19.34-0.34	beast_fmri_test	338	n/a	n/a	<div class = centerbox2><div class = fixation>+</div></div>	none	500.0	test	n/a	n/a	n/a	n/a	n/a	n/a	n/a	n/a	n/a	n/a	n/a	n/a	n/a	n/a	n/a	n/a	n/a	n/a	fixation
152408.99432209018	400.0	n/a	2505	89	2750	421.00567791	stim	stop-signal	460	1326209	0.0-19.34-1.34	beast_fmri_test	338	1323557,/,1324238,/,1324917,/,1325596,/,1326275,/	t,t,t,t,t	<img class = center src='/static/experiments/beast_fmri_test/images/V.png'></img>	71,89	2750.0	test	<img class = center src='/static/experiments/beast_fmri_test/images/redV.png'></img>	stop	2350.0	3.0	34.0	stop	non-target	V	71,Index Finger	89,Middle Finger	600.0	400.0	2150.0	2350.0	0.0	0.0	400.0	n/a	go_stim
154758.99432209018	2350.0	n/a	2505	89	2750	421.00567791	stim	stop-signal	460	1326209	0.0-19.34-1.34	beast_fmri_test	338	1323557,/,1324238,/,1324917,/,1325596,/,1326275,/	t,t,t,t,t	<img class = center src='/static/experiments/beast_fmri_test/images/V.png'></img>	71,89	2750.0	test	<img class = center src='/static/experiments/beast_fmri_test/images/redV.png'></img>	stop	2350.0	3.0	34.0	stop	non-target	V	71,Index Finger	89,Middle Finger	600.0	400.0	2150.0	2350.0	0.0	0.0	400.0	n/a	stop_stim
155158.99432209018	421.00567791	n/a	2505	89	2750	421.00567791	stim	stop-signal	460	1326209	0.0-19.34-1.34	beast_fmri_test	338	1323557,/,1324238,/,1324917,/,1325596,/,1326275,/	t,t,t,t,t	<img class = center src='/static/experiments/beast_fmri_test/images/V.png'></img>	71,89	2750.0	test	<img class = center src='/static/experiments/beast_fmri_test/images/redV.png'></img>	stop	2350.0	3.0	34.0	stop	non-target	V	71,Index Finger	89,Middle Finger	600.0	400.0	2150.0	2350.0	0.0	0.0	400.0	n/a	ITI
156546	500.0	n/a	-1	-1	500	0.0	fixation	poldrack-single-stim	461	1327175	0.0-19.35-0.35	beast_fmri_test	338	1326956,/	t	<div class = centerbox2><div class = fixation>+</div></div>	none	500.0	test	n/a	n/a	n/a	n/a	n/a	n/a	n/a	n/a	n/a	n/a	n/a	n/a	n/a	n/a	n/a	n/a	n/a	n/a	fixation
154114.65922428342	2750.0	n/a	2226	89	2750	2433.34077572	stim	stop-signal	462	1329927	0.0-19.35-1.35	beast_fmri_test	338	1327635,/,1328315,/,1328994,/,1329675,/,1330353,/,1331034,/,1331714,/	t,t,t,t,t,t,t	<img class = center src='/static/experiments/beast_fmri_test/images/V.png'></img>	71,89	2750.0	test	<img class = center src='/static/experiments/beast_fmri_test/images/redV.png'></img>	go	2400.0	3.0	35.0	go	non-target	V	71,Index Finger	89,Middle Finger	600.0	350.0	2150.0	2400.0	1.0	n/a	350.0	1.0	go_stim
156864.65922428342	2433.34077572	n/a	2226	89	2750	2433.34077572	stim	stop-signal	462	1329927	0.0-19.35-1.35	beast_fmri_test	338	1327635,/,1328315,/,1328994,/,1329675,/,1330353,/,1331034,/,1331714,/	t,t,t,t,t,t,t	<img class = center src='/static/experiments/beast_fmri_test/images/V.png'></img>	71,89	2750.0	test	<img class = center src='/static/experiments/beast_fmri_test/images/redV.png'></img>	go	2400.0	3.0	35.0	go	non-target	V	71,Index Finger	89,Middle Finger	600.0	350.0	2150.0	2400.0	1.0	n/a	350.0	1.0	ITI
162281	500.0	n/a	-1	-1	500	0.0	fixation	poldrack-single-stim	463	1332910	0.0-19.36-0.36	beast_fmri_test	338	1332409,/	t	<div class = centerbox2><div class = fixation>+</div></div>	none	500.0	test	n/a	n/a	n/a	n/a	n/a	n/a	n/a	n/a	n/a	n/a	n/a	n/a	n/a	n/a	n/a	n/a	n/a	n/a	fixation
159194.99088445632	600.0	n/a	778	71	2750	3088.00911554	stim	stop-signal	464	1335662	0.0-19.36-1.36	beast_fmri_test	338	1333074,/,1333753,/,1334431,/,1335112,/,1335792,/,1336472,/,1337151,/,1337830,/,1338511,/	t,t,t,t,t,t,t,t,t	<img class = center src='/static/experiments/beast_fmri_test/images/D.png'></img>	71,89	2750.0	test	<img class = center src='/static/experiments/beast_fmri_test/images/redD.png'></img>	stop	2150.0	3.0	36.0	stop	target	D	71,Index Finger	89,Middle Finger	600.0	350.0	2150.0	2400.0	0.0	0.0	600.0	n/a	go_stim
161344.99088445632	2150.0	n/a	778	71	2750	3088.00911554	stim	stop-signal	464	1335662	0.0-19.36-1.36	beast_fmri_test	338	1333074,/,1333753,/,1334431,/,1335112,/,1335792,/,1336472,/,1337151,/,1337830,/,1338511,/	t,t,t,t,t,t,t,t,t	<img class = center src='/static/experiments/beast_fmri_test/images/D.png'></img>	71,89	2750.0	test	<img class = center src='/static/experiments/beast_fmri_test/images/redD.png'></img>	stop	2150.0	3.0	36.0	stop	target	D	71,Index Finger	89,Middle Finger	600.0	350.0	2150.0	2400.0	0.0	0.0	600.0	n/a	stop_stim
161944.99088445632	3088.00911554	n/a	778	71	2750	3088.00911554	stim	stop-signal	464	1335662	0.0-19.36-1.36	beast_fmri_test	338	1333074,/,1333753,/,1334431,/,1335112,/,1335792,/,1336472,/,1337151,/,1337830,/,1338511,/	t,t,t,t,t,t,t,t,t	<img class = center src='/static/experiments/beast_fmri_test/images/D.png'></img>	71,89	2750.0	test	<img class = center src='/static/experiments/beast_fmri_test/images/redD.png'></img>	stop	2150.0	3.0	36.0	stop	target	D	71,Index Finger	89,Middle Finger	600.0	350.0	2150.0	2400.0	0.0	0.0	600.0	n/a	ITI
168678	500.0	n/a	-1	-1	500	0.0	fixation	poldrack-single-stim	465	1339307	0.0-19.37-0.37	beast_fmri_test	338	1339191,/	t	<div class = centerbox2><div class = fixation>+</div></div>	none	500.0	test	n/a	n/a	n/a	n/a	n/a	n/a	n/a	n/a	n/a	n/a	n/a	n/a	n/a	n/a	n/a	n/a	n/a	n/a	fixation
168451.27157186042	2750.0	n/a	927	71	2750	228.72842814	stim	stop-signal	466	1342059	0.0-19.37-1.37	beast_fmri_test	338	1339870,/,1340549,/,1341229,/,1341909,/	t,t,t,t	<img class = center src='/static/experiments/beast_fmri_test/images/V.png'></img>	71,89	2750.0	test	<img class = center src='/static/experiments/beast_fmri_test/images/redV.png'></img>	go	2200.0	3.0	37.0	go	target	V	71,Index Finger	89,Middle Finger	550.0	350.0	2200.0	2400.0	1.0	n/a	550.0	1.0	go_stim
171201.27157186042	228.72842814	n/a	927	71	2750	228.72842814	stim	stop-signal	466	1342059	0.0-19.37-1.37	beast_fmri_test	338	1339870,/,1340549,/,1341229,/,1341909,/	t,t,t,t	<img class = center src='/static/experiments/beast_fmri_test/images/V.png'></img>	71,89	2750.0	test	<img class = center src='/static/experiments/beast_fmri_test/images/redV.png'></img>	go	2200.0	3.0	37.0	go	target	V	71,Index Finger	89,Middle Finger	550.0	350.0	2200.0	2400.0	1.0	n/a	550.0	1.0	ITI
172211	500.0	n/a	-1	-1	500	0.0	fixation	poldrack-single-stim	467	1342840	0.0-19.38-0.38	beast_fmri_test	338	1342588,/	t	<div class = centerbox2><div class = fixation>+</div></div>	none	500.0	test	n/a	n/a	n/a	n/a	n/a	n/a	n/a	n/a	n/a	n/a	n/a	n/a	n/a	n/a	n/a	n/a	n/a	n/a	fixation
171433.39127906761	2750.0	n/a	1672	71	2750	779.608720932	stim	stop-signal	468	1345592	0.0-19.38-1.38	beast_fmri_test	338	1343267,/,1343947,/,1344628,/,1345307,/,1345986,/	t,t,t,t,t	<img class = center src='/static/experiments/beast_fmri_test/images/V.png'></img>	71,89	2750.0	test	<img class = center src='/static/experiments/beast_fmri_test/images/redV.png'></img>	go	2200.0	3.0	38.0	go	target	V	71,Index Finger	89,Middle Finger	550.0	350.0	2200.0	2400.0	1.0	n/a	550.0	1.0	go_stim
174183.39127906761	779.608720932	n/a	1672	71	2750	779.608720932	stim	stop-signal	468	1345592	0.0-19.38-1.38	beast_fmri_test	338	1343267,/,1343947,/,1344628,/,1345307,/,1345986,/	t,t,t,t,t	<img class = center src='/static/experiments/beast_fmri_test/images/V.png'></img>	71,89	2750.0	test	<img class = center src='/static/experiments/beast_fmri_test/images/redV.png'></img>	go	2200.0	3.0	38.0	go	target	V	71,Index Finger	89,Middle Finger	550.0	350.0	2200.0	2400.0	1.0	n/a	550.0	1.0	ITI
176299	500.0	n/a	-1	-1	500	0.0	fixation	poldrack-single-stim	469	1346928	0.0-19.39-0.39	beast_fmri_test	338	1346667,/	t	<div class = centerbox2><div class = fixation>+</div></div>	none	500.0	test	n/a	n/a	n/a	n/a	n/a	n/a	n/a	n/a	n/a	n/a	n/a	n/a	n/a	n/a	n/a	n/a	n/a	n/a	fixation
175025.5093702008	2750.0	n/a	849	71	2750	1276.4906298	stim	stop-signal	470	1349681	0.0-19.39-1.39	beast_fmri_test	338	1347346,/,1348026,/,1348705,/,1349385,/,1350066,/,1350745,/	t,t,t,t,t,t	<img class = center src='/static/experiments/beast_fmri_test/images/D.png'></img>	71,89	2750.0	test	<img class = center src='/static/experiments/beast_fmri_test/images/redD.png'></img>	go	2200.0	3.0	39.0	go	target	D	71,Index Finger	89,Middle Finger	550.0	350.0	2200.0	2400.0	1.0	n/a	550.0	1.0	go_stim
177775.5093702008	1276.4906298	n/a	849	71	2750	1276.4906298	stim	stop-signal	470	1349681	0.0-19.39-1.39	beast_fmri_test	338	1347346,/,1348026,/,1348705,/,1349385,/,1350066,/,1350745,/	t,t,t,t,t,t	<img class = center src='/static/experiments/beast_fmri_test/images/D.png'></img>	71,89	2750.0	test	<img class = center src='/static/experiments/beast_fmri_test/images/redD.png'></img>	go	2200.0	3.0	39.0	go	target	D	71,Index Finger	89,Middle Finger	550.0	350.0	2200.0	2400.0	1.0	n/a	550.0	1.0	ITI
180883	500.0	n/a	-1	-1	500	0.0	fixation	poldrack-single-stim	471	1351512	0.0-19.40-0.40	beast_fmri_test	338	1351425,/	t	<div class = centerbox2><div class = fixation>+</div></div>	none	500.0	test	n/a	n/a	n/a	n/a	n/a	n/a	n/a	n/a	n/a	n/a	n/a	n/a	n/a	n/a	n/a	n/a	n/a	n/a	fixation
180597.66312496969	350.0	n/a	-1	-1	2750	286.33687503	stim	stop-signal	472	1354263	0.0-19.40-1.40	beast_fmri_test	338	1352104,/,1352784,/,1353465,/,1354144,/	t,t,t,t	<img class = center src='/static/experiments/beast_fmri_test/images/P.png'></img>	71,89	2750.0	test	<img class = center src='/static/experiments/beast_fmri_test/images/redP.png'></img>	stop	2400.0	3.0	40.0	stop	non-target	P	71,Index Finger	89,Middle Finger	550.0	350.0	2200.0	2400.0	0.0	1.0	350.0	n/a	go_stim
182997.66312496969	2400.0	n/a	-1	-1	2750	286.33687503	stim	stop-signal	472	1354263	0.0-19.40-1.40	beast_fmri_test	338	1352104,/,1352784,/,1353465,/,1354144,/	t,t,t,t	<img class = center src='/static/experiments/beast_fmri_test/images/P.png'></img>	71,89	2750.0	test	<img class = center src='/static/experiments/beast_fmri_test/images/redP.png'></img>	stop	2400.0	3.0	40.0	stop	non-target	P	71,Index Finger	89,Middle Finger	550.0	350.0	2200.0	2400.0	0.0	1.0	350.0	n/a	stop_stim
183347.66312496969	286.33687503	n/a	-1	-1	2750	286.33687503	stim	stop-signal	472	1354263	0.0-19.40-1.40	beast_fmri_test	338	1352104,/,1352784,/,1353465,/,1354144,/	t,t,t,t	<img class = center src='/static/experiments/beast_fmri_test/images/P.png'></img>	71,89	2750.0	test	<img class = center src='/static/experiments/beast_fmri_test/images/redP.png'></img>	stop	2400.0	3.0	40.0	stop	non-target	P	71,Index Finger	89,Middle Finger	550.0	350.0	2200.0	2400.0	0.0	1.0	350.0	n/a	ITI
184472	500.0	n/a	-1	-1	500	0.0	fixation	poldrack-single-stim	473	1355101	0.0-19.41-0.41	beast_fmri_test	338	1354824,/	t	<div class = centerbox2><div class = fixation>+</div></div>	none	500.0	test	n/a	n/a	n/a	n/a	n/a	n/a	n/a	n/a	n/a	n/a	n/a	n/a	n/a	n/a	n/a	n/a	n/a	n/a	fixation
184399.79888594011	2750.0	n/a	1236	89	2750	73.2011140599	stim	stop-signal	474	1357852	0.0-19.41-1.41	beast_fmri_test	338	1355504,/,1356182,/,1356863,/,1357541,/	t,t,t,t	<img class = center src='/static/experiments/beast_fmri_test/images/B.png'></img>	71,89	2750.0	test	<img class = center src='/static/experiments/beast_fmri_test/images/redB.png'></img>	go	2350.0	3.0	41.0	go	non-target	B	71,Index Finger	89,Middle Finger	550.0	400.0	2200.0	2350.0	1.0	n/a	400.0	1.0	go_stim
187149.79888594011	73.2011140599	n/a	1236	89	2750	73.2011140599	stim	stop-signal	474	1357852	0.0-19.41-1.41	beast_fmri_test	338	1355504,/,1356182,/,1356863,/,1357541,/	t,t,t,t	<img class = center src='/static/experiments/beast_fmri_test/images/B.png'></img>	71,89	2750.0	test	<img class = center src='/static/experiments/beast_fmri_test/images/redB.png'></img>	go	2350.0	3.0	41.0	go	non-target	B	71,Index Finger	89,Middle Finger	550.0	400.0	2200.0	2350.0	1.0	n/a	400.0	1.0	ITI
187872	500.0	n/a	-1	-1	500	0.0	fixation	poldrack-single-stim	475	1358501	0.0-19.42-0.42	beast_fmri_test	338	1358222,/	t	<div class = centerbox2><div class = fixation>+</div></div>	none	500.0	test	n/a	n/a	n/a	n/a	n/a	n/a	n/a	n/a	n/a	n/a	n/a	n/a	n/a	n/a	n/a	n/a	n/a	n/a	fixation
187314.85378507013	400.0	n/a	-1	-1	2750	560.14621493	stim	stop-signal	476	1361254	0.0-19.42-1.42	beast_fmri_test	338	1358901,/,1359581,/,1360260,/,1360940,/,1361620,/	t,t,t,t,t	<img class = center src='/static/experiments/beast_fmri_test/images/P.png'></img>	71,89	2750.0	test	<img class = center src='/static/experiments/beast_fmri_test/images/redP.png'></img>	stop	2350.0	3.0	42.0	stop	non-target	P	71,Index Finger	89,Middle Finger	550.0	400.0	2200.0	2350.0	0.0	1.0	400.0	n/a	go_stim
189664.85378507013	2350.0	n/a	-1	-1	2750	560.14621493	stim	stop-signal	476	1361254	0.0-19.42-1.42	beast_fmri_test	338	1358901,/,1359581,/,1360260,/,1360940,/,1361620,/	t,t,t,t,t	<img class = center src='/static/experiments/beast_fmri_test/images/P.png'></img>	71,89	2750.0	test	<img class = center src='/static/experiments/beast_fmri_test/images/redP.png'></img>	stop	2350.0	3.0	42.0	stop	non-target	P	71,Index Finger	89,Middle Finger	550.0	400.0	2200.0	2350.0	0.0	1.0	400.0	n/a	stop_stim
190064.85378507013	560.14621493	n/a	-1	-1	2750	560.14621493	stim	stop-signal	476	1361254	0.0-19.42-1.42	beast_fmri_test	338	1358901,/,1359581,/,1360260,/,1360940,/,1361620,/	t,t,t,t,t	<img class = center src='/static/experiments/beast_fmri_test/images/P.png'></img>	71,89	2750.0	test	<img class = center src='/static/experiments/beast_fmri_test/images/redP.png'></img>	stop	2350.0	3.0	42.0	stop	non-target	P	71,Index Finger	89,Middle Finger	550.0	400.0	2200.0	2350.0	0.0	1.0	400.0	n/a	ITI
191737	500.0	n/a	-1	-1	500	0.0	fixation	poldrack-single-stim	477	1362366	0.0-19.43-0.43	beast_fmri_test	338	1362300,/	t	<div class = centerbox2><div class = fixation>+</div></div>	none	500.0	test	n/a	n/a	n/a	n/a	n/a	n/a	n/a	n/a	n/a	n/a	n/a	n/a	n/a	n/a	n/a	n/a	n/a	n/a	fixation
191699.53971920907	2750.0	n/a	575	71	2750	38.460280791	stim	stop-signal	478	1365117	0.0-19.43-1.43	beast_fmri_test	338	1362978,/,1363659,/,1364338,/,1365019,/	t,t,t,t	<img class = center src='/static/experiments/beast_fmri_test/images/V.png'></img>	71,89	2750.0	test	<img class = center src='/static/experiments/beast_fmri_test/images/redV.png'></img>	go	2300.0	3.0	43.0	go	non-target	V	71,Index Finger	89,Middle Finger	550.0	450.0	2200.0	2300.0	0.0	n/a	450.0	0.0	go_stim
194449.53971920907	38.460280791	n/a	575	71	2750	38.460280791	stim	stop-signal	478	1365117	0.0-19.43-1.43	beast_fmri_test	338	1362978,/,1363659,/,1364338,/,1365019,/	t,t,t,t	<img class = center src='/static/experiments/beast_fmri_test/images/V.png'></img>	71,89	2750.0	test	<img class = center src='/static/experiments/beast_fmri_test/images/redV.png'></img>	go	2300.0	3.0	43.0	go	non-target	V	71,Index Finger	89,Middle Finger	550.0	450.0	2200.0	2300.0	0.0	n/a	450.0	0.0	ITI
195082	500.0	n/a	-1	-1	500	0.0	fixation	poldrack-single-stim	479	1365711	0.0-19.44-0.44	beast_fmri_test	338	1365698,/	t	<div class = centerbox2><div class = fixation>+</div></div>	none	500.0	test	n/a	n/a	n/a	n/a	n/a	n/a	n/a	n/a	n/a	n/a	n/a	n/a	n/a	n/a	n/a	n/a	n/a	n/a	fixation
192634.75411452982	2750.0	n/a	1125	71	2750	2450.24588547	stim	stop-signal	480	1368464	0.0-19.44-1.44	beast_fmri_test	338	1366377,/,1367056,/,1367738,/,1368417,/,1369097,/,1369777,/,1370456,/	t,t,t,t,t,t,t	<img class = center src='/static/experiments/beast_fmri_test/images/P.png'></img>	71,89	2750.0	test	<img class = center src='/static/experiments/beast_fmri_test/images/redP.png'></img>	go	2300.0	3.0	44.0	go	non-target	P	71,Index Finger	89,Middle Finger	550.0	450.0	2200.0	2300.0	0.0	n/a	450.0	0.0	go_stim
195384.75411452982	2450.24588547	n/a	1125	71	2750	2450.24588547	stim	stop-signal	480	1368464	0.0-19.44-1.44	beast_fmri_test	338	1366377,/,1367056,/,1367738,/,1368417,/,1369097,/,1369777,/,1370456,/	t,t,t,t,t,t,t	<img class = center src='/static/experiments/beast_fmri_test/images/P.png'></img>	71,89	2750.0	test	<img class = center src='/static/experiments/beast_fmri_test/images/redP.png'></img>	go	2300.0	3.0	44.0	go	non-target	P	71,Index Finger	89,Middle Finger	550.0	450.0	2200.0	2300.0	0.0	n/a	450.0	0.0	ITI
200836	500.0	n/a	-1	-1	500	0.0	fixation	poldrack-single-stim	481	1371465	0.0-19.45-0.45	beast_fmri_test	338	1371135,/	t	<div class = centerbox2><div class = fixation>+</div></div>	none	500.0	test	n/a	n/a	n/a	n/a	n/a	n/a	n/a	n/a	n/a	n/a	n/a	n/a	n/a	n/a	n/a	n/a	n/a	n/a	fixation
200021.97284261393	2750.0	n/a	955	89	2750	818.027157386	stim	stop-signal	482	1374219	0.0-19.45-1.45	beast_fmri_test	338	1371814,/,1372494,/,1373173,/,1373854,/,1374533,/	t,t,t,t,t	<img class = center src='/static/experiments/beast_fmri_test/images/P.png'></img>	71,89	2750.0	test	<img class = center src='/static/experiments/beast_fmri_test/images/redP.png'></img>	go	2200.0	3.0	45.0	go	target	P	71,Index Finger	89,Middle Finger	550.0	450.0	2200.0	2300.0	0.0	n/a	550.0	0.0	go_stim
202771.97284261393	818.027157386	n/a	955	89	2750	818.027157386	stim	stop-signal	482	1374219	0.0-19.45-1.45	beast_fmri_test	338	1371814,/,1372494,/,1373173,/,1373854,/,1374533,/	t,t,t,t,t	<img class = center src='/static/experiments/beast_fmri_test/images/P.png'></img>	71,89	2750.0	test	<img class = center src='/static/experiments/beast_fmri_test/images/redP.png'></img>	go	2200.0	3.0	45.0	go	target	P	71,Index Finger	89,Middle Finger	550.0	450.0	2200.0	2300.0	0.0	n/a	550.0	0.0	ITI
204964	500.0	n/a	-1	-1	500	0.0	fixation	poldrack-single-stim	483	1375593	0.0-19.46-0.46	beast_fmri_test	338	1375214,/	t	<div class = centerbox2><div class = fixation>+</div></div>	none	500.0	test	n/a	n/a	n/a	n/a	n/a	n/a	n/a	n/a	n/a	n/a	n/a	n/a	n/a	n/a	n/a	n/a	n/a	n/a	fixation
204378.36209411127	2750.0	n/a	1393	71	2750	586.637905889	stim	stop-signal	484	1378344	0.0-19.46-1.46	beast_fmri_test	338	1375892,/,1376572,/,1377251,/,1377932,/,1378612,/	t,t,t,t,t	<img class = center src='/static/experiments/beast_fmri_test/images/P.png'></img>	71,89	2750.0	test	<img class = center src='/static/experiments/beast_fmri_test/images/redP.png'></img>	go	2300.0	3.0	46.0	go	non-target	P	71,Index Finger	89,Middle Finger	550.0	450.0	2200.0	2300.0	0.0	n/a	450.0	0.0	go_stim
207128.36209411127	586.637905889	n/a	1393	71	2750	586.637905889	stim	stop-signal	484	1378344	0.0-19.46-1.46	beast_fmri_test	338	1375892,/,1376572,/,1377251,/,1377932,/,1378612,/	t,t,t,t,t	<img class = center src='/static/experiments/beast_fmri_test/images/P.png'></img>	71,89	2750.0	test	<img class = center src='/static/experiments/beast_fmri_test/images/redP.png'></img>	go	2300.0	3.0	46.0	go	non-target	P	71,Index Finger	89,Middle Finger	550.0	450.0	2200.0	2300.0	0.0	n/a	450.0	0.0	ITI
208852	500.0	n/a	-1	-1	500	0.0	fixation	poldrack-single-stim	485	1379481	0.0-19.47-0.47	beast_fmri_test	338	1379292,/	t	<div class = centerbox2><div class = fixation>+</div></div>	none	500.0	test	n/a	n/a	n/a	n/a	n/a	n/a	n/a	n/a	n/a	n/a	n/a	n/a	n/a	n/a	n/a	n/a	n/a	n/a	fixation
207626.106047587	450.0	n/a	-1	-1	2750	1228.89395241	stim	stop-signal	486	1382234	0.0-19.47-1.47	beast_fmri_test	338	1379970,/,1380651,/,1381330,/,1382009,/,1382691,/,1383370,/	t,t,t,t,t,t	<img class = center src='/static/experiments/beast_fmri_test/images/T.png'></img>	71,89	2750.0	test	<img class = center src='/static/experiments/beast_fmri_test/images/redT.png'></img>	stop	2300.0	3.0	47.0	stop	non-target	T	71,Index Finger	89,Middle Finger	550.0	450.0	2200.0	2300.0	0.0	1.0	450.0	n/a	go_stim
209926.106047587	2300.0	n/a	-1	-1	2750	1228.89395241	stim	stop-signal	486	1382234	0.0-19.47-1.47	beast_fmri_test	338	1379970,/,1380651,/,1381330,/,1382009,/,1382691,/,1383370,/	t,t,t,t,t,t	<img class = center src='/static/experiments/beast_fmri_test/images/T.png'></img>	71,89	2750.0	test	<img class = center src='/static/experiments/beast_fmri_test/images/redT.png'></img>	stop	2300.0	3.0	47.0	stop	non-target	T	71,Index Finger	89,Middle Finger	550.0	450.0	2200.0	2300.0	0.0	1.0	450.0	n/a	stop_stim
210376.106047587	1228.89395241	n/a	-1	-1	2750	1228.89395241	stim	stop-signal	486	1382234	0.0-19.47-1.47	beast_fmri_test	338	1379970,/,1380651,/,1381330,/,1382009,/,1382691,/,1383370,/	t,t,t,t,t,t	<img class = center src='/static/experiments/beast_fmri_test/images/T.png'></img>	71,89	2750.0	test	<img class = center src='/static/experiments/beast_fmri_test/images/redT.png'></img>	stop	2300.0	3.0	47.0	stop	non-target	T	71,Index Finger	89,Middle Finger	550.0	450.0	2200.0	2300.0	0.0	1.0	450.0	n/a	ITI
227880	15000.0	n/a	-1	-1	15000	0.0	practice-no-stop-feedback	poldrack-single-stim	487	1398509	0.0-20.0	beast_fmri_test	338	1384050,/,1384729,/,1385409,/,1386089,/,1386769,/,1387448,/,1388127,/,1388807,/,1389487,/,1390167,/,1390846,/,1391527,/,1392205,/,1392886,/,1393565,/,1394244,/,1394924,/,1395605,/,1396284,/,1396965,/,1397644,/,1398323,/	t,t,t,t,t,t,t,t,t,t,t,t,t,t,t,t,t,t,t,t,t,t	"<div class = ""centerbox""><p class = ""block-text"">Your delay is 2 trials.</p><p class = block-text>Please wait for the scanner to start the block</p></div>"	77	15000.0	n/a	n/a	n/a	n/a	n/a	n/a	n/a	n/a	n/a	n/a	n/a	n/a	n/a	n/a	n/a	n/a	n/a	n/a	n/a	practice-no-stop-feedback
228382	500.0	n/a	-1	-1	500	0.0	fixation	poldrack-single-stim	488	1399011	0.0-21.0-0.0	beast_fmri_test	338	1399002,/	t	<div class = centerbox2><div class = fixation>+</div></div>	none	500.0	test	n/a	n/a	n/a	n/a	n/a	n/a	n/a	n/a	n/a	n/a	n/a	n/a	n/a	n/a	n/a	n/a	n/a	n/a	fixation
228257.2396788504	2750.0	n/a	1240	89	2750	125.76032115	stim	stop-signal	489	1401762	0.0-21.0-1.0	beast_fmri_test	338	1399683,/,1400361,/,1401041,/,1401721,/	t,t,t,t	<img class = center src='/static/experiments/beast_fmri_test/images/V.png'></img>	71,89	2750.0	test	<img class = center src='/static/experiments/beast_fmri_test/images/redV.png'></img>	go	-1.0	2.0	0.0	go	temp-non-target	V	71,Index Finger	89,Middle Finger	550.0	500.0	2200.0	2300.0	0.0	n/a	n/a	n/a	go_stim
231007.2396788504	125.76032115	n/a	1240	89	2750	125.76032115	stim	stop-signal	489	1401762	0.0-21.0-1.0	beast_fmri_test	338	1399683,/,1400361,/,1401041,/,1401721,/	t,t,t,t	<img class = center src='/static/experiments/beast_fmri_test/images/V.png'></img>	71,89	2750.0	test	<img class = center src='/static/experiments/beast_fmri_test/images/redV.png'></img>	go	-1.0	2.0	0.0	go	temp-non-target	V	71,Index Finger	89,Middle Finger	550.0	500.0	2200.0	2300.0	0.0	n/a	n/a	n/a	ITI
231809	500.0	n/a	-1	-1	500	0.0	fixation	poldrack-single-stim	490	1402438	0.0-21.1-0.1	beast_fmri_test	338	1402402,/	t	<div class = centerbox2><div class = fixation>+</div></div>	none	500.0	test	n/a	n/a	n/a	n/a	n/a	n/a	n/a	n/a	n/a	n/a	n/a	n/a	n/a	n/a	n/a	n/a	n/a	n/a	fixation
229766.1386776662	2750.0	n/a	1385	89	2750	2045.86132233	stim	stop-signal	491	1405191	0.0-21.1-1.1	beast_fmri_test	338	1403081,/,1403760,/,1404440,/,1405118,/,1405800,/,1406479,/,1407159,/	t,t,t,t,t,t,t	<img class = center src='/static/experiments/beast_fmri_test/images/V.png'></img>	71,89	2750.0	test	<img class = center src='/static/experiments/beast_fmri_test/images/redV.png'></img>	go	-1.0	2.0	1.0	go	temp-non-target	V	71,Index Finger	89,Middle Finger	550.0	500.0	2200.0	2300.0	0.0	n/a	n/a	n/a	go_stim
232516.1386776662	2045.86132233	n/a	1385	89	2750	2045.86132233	stim	stop-signal	491	1405191	0.0-21.1-1.1	beast_fmri_test	338	1403081,/,1403760,/,1404440,/,1405118,/,1405800,/,1406479,/,1407159,/	t,t,t,t,t,t,t	<img class = center src='/static/experiments/beast_fmri_test/images/V.png'></img>	71,89	2750.0	test	<img class = center src='/static/experiments/beast_fmri_test/images/redV.png'></img>	go	-1.0	2.0	1.0	go	temp-non-target	V	71,Index Finger	89,Middle Finger	550.0	500.0	2200.0	2300.0	0.0	n/a	n/a	n/a	ITI
237155	500.0	n/a	-1	-1	500	0.0	fixation	poldrack-single-stim	492	1407784	0.0-21.2-0.2	beast_fmri_test	338	n/a	n/a	<div class = centerbox2><div class = fixation>+</div></div>	none	500.0	test	n/a	n/a	n/a	n/a	n/a	n/a	n/a	n/a	n/a	n/a	n/a	n/a	n/a	n/a	n/a	n/a	n/a	n/a	fixation
236644.81586822239	2750.0	n/a	570	71	2750	512.184131778	stim	stop-signal	493	1410536	0.0-21.2-1.2	beast_fmri_test	338	1407838,/,1408518,/,1409197,/,1409877,/,1410558,/	t,t,t,t,t	<img class = center src='/static/experiments/beast_fmri_test/images/V.png'></img>	71,89	2750.0	test	<img class = center src='/static/experiments/beast_fmri_test/images/redV.png'></img>	go	2200.0	2.0	2.0	go	target	V	71,Index Finger	89,Middle Finger	550.0	500.0	2200.0	2300.0	1.0	n/a	550.0	1.0	go_stim
239394.81586822239	512.184131778	n/a	570	71	2750	512.184131778	stim	stop-signal	493	1410536	0.0-21.2-1.2	beast_fmri_test	338	1407838,/,1408518,/,1409197,/,1409877,/,1410558,/	t,t,t,t,t	<img class = center src='/static/experiments/beast_fmri_test/images/V.png'></img>	71,89	2750.0	test	<img class = center src='/static/experiments/beast_fmri_test/images/redV.png'></img>	go	2200.0	2.0	2.0	go	target	V	71,Index Finger	89,Middle Finger	550.0	500.0	2200.0	2300.0	1.0	n/a	550.0	1.0	ITI
240966	500.0	n/a	-1	-1	500	0.0	fixation	poldrack-single-stim	494	1411595	0.0-21.3-0.3	beast_fmri_test	338	1411237,/	t	<div class = centerbox2><div class = fixation>+</div></div>	none	500.0	test	n/a	n/a	n/a	n/a	n/a	n/a	n/a	n/a	n/a	n/a	n/a	n/a	n/a	n/a	n/a	n/a	n/a	n/a	fixation
240877.87114168727	2750.0	n/a	496	89	2750	90.1288583128	stim	stop-signal	495	1414347	0.0-21.3-1.3	beast_fmri_test	338	1411918,/,1412596,/,1413276,/,1413955,/	t,t,t,t	<img class = center src='/static/experiments/beast_fmri_test/images/D.png'></img>	71,89	2750.0	test	<img class = center src='/static/experiments/beast_fmri_test/images/redD.png'></img>	go	2250.0	2.0	3.0	go	non-target	D	71,Index Finger	89,Middle Finger	550.0	500.0	2200.0	2250.0	1.0	n/a	500.0	1.0	go_stim
243627.87114168727	90.1288583128	n/a	496	89	2750	90.1288583128	stim	stop-signal	495	1414347	0.0-21.3-1.3	beast_fmri_test	338	1411918,/,1412596,/,1413276,/,1413955,/	t,t,t,t	<img class = center src='/static/experiments/beast_fmri_test/images/D.png'></img>	71,89	2750.0	test	<img class = center src='/static/experiments/beast_fmri_test/images/redD.png'></img>	go	2250.0	2.0	3.0	go	non-target	D	71,Index Finger	89,Middle Finger	550.0	500.0	2200.0	2250.0	1.0	n/a	500.0	1.0	ITI
244380	500.0	n/a	-1	-1	500	0.0	fixation	poldrack-single-stim	496	1415009	0.0-21.4-0.4	beast_fmri_test	338	1414636,/	t	<div class = centerbox2><div class = fixation>+</div></div>	none	500.0	test	n/a	n/a	n/a	n/a	n/a	n/a	n/a	n/a	n/a	n/a	n/a	n/a	n/a	n/a	n/a	n/a	n/a	n/a	fixation
244329.18569903821	2750.0	n/a	866	71	2750	51.8143009617	stim	stop-signal	497	1417760	0.0-21.4-1.4	beast_fmri_test	338	1415315,/,1415995,/,1416674,/,1417354,/	t,t,t,t	<img class = center src='/static/experiments/beast_fmri_test/images/V.png'></img>	71,89	2750.0	test	<img class = center src='/static/experiments/beast_fmri_test/images/redV.png'></img>	go	2200.0	2.0	4.0	go	target	V	71,Index Finger	89,Middle Finger	550.0	500.0	2200.0	2250.0	1.0	n/a	550.0	1.0	go_stim
247079.18569903821	51.8143009617	n/a	866	71	2750	51.8143009617	stim	stop-signal	497	1417760	0.0-21.4-1.4	beast_fmri_test	338	1415315,/,1415995,/,1416674,/,1417354,/	t,t,t,t	<img class = center src='/static/experiments/beast_fmri_test/images/V.png'></img>	71,89	2750.0	test	<img class = center src='/static/experiments/beast_fmri_test/images/redV.png'></img>	go	2200.0	2.0	4.0	go	target	V	71,Index Finger	89,Middle Finger	550.0	500.0	2200.0	2250.0	1.0	n/a	550.0	1.0	ITI
247736	500.0	n/a	-1	-1	500	0.0	fixation	poldrack-single-stim	498	1418365	0.0-21.5-0.5	beast_fmri_test	338	1418033,/	t	<div class = centerbox2><div class = fixation>+</div></div>	none	500.0	test	n/a	n/a	n/a	n/a	n/a	n/a	n/a	n/a	n/a	n/a	n/a	n/a	n/a	n/a	n/a	n/a	n/a	n/a	fixation
247003.00791876647	2750.0	n/a	599	89	2750	734.992081234	stim	stop-signal	499	1421117	0.0-21.5-1.5	beast_fmri_test	338	1418713,/,1419392,/,1420074,/,1420753,/,1421432,/	t,t,t,t,t	<img class = center src='/static/experiments/beast_fmri_test/images/P.png'></img>	71,89	2750.0	test	<img class = center src='/static/experiments/beast_fmri_test/images/redP.png'></img>	go	2250.0	2.0	5.0	go	non-target	P	71,Index Finger	89,Middle Finger	550.0	500.0	2200.0	2250.0	1.0	n/a	500.0	1.0	go_stim
249753.00791876647	734.992081234	n/a	599	89	2750	734.992081234	stim	stop-signal	499	1421117	0.0-21.5-1.5	beast_fmri_test	338	1418713,/,1419392,/,1420074,/,1420753,/,1421432,/	t,t,t,t,t	<img class = center src='/static/experiments/beast_fmri_test/images/P.png'></img>	71,89	2750.0	test	<img class = center src='/static/experiments/beast_fmri_test/images/redP.png'></img>	go	2250.0	2.0	5.0	go	non-target	P	71,Index Finger	89,Middle Finger	550.0	500.0	2200.0	2250.0	1.0	n/a	500.0	1.0	ITI
251776	500.0	n/a	-1	-1	500	0.0	fixation	poldrack-single-stim	500	1422405	0.0-21.6-0.6	beast_fmri_test	338	1422112,/	t	<div class = centerbox2><div class = fixation>+</div></div>	none	500.0	test	n/a	n/a	n/a	n/a	n/a	n/a	n/a	n/a	n/a	n/a	n/a	n/a	n/a	n/a	n/a	n/a	n/a	n/a	fixation
251019.78611545591	2750.0	n/a	552	89	2750	756.213884544	stim	stop-signal	501	1425155	0.0-21.6-1.6	beast_fmri_test	338	1422792,/,1423471,/,1424150,/,1424830,/,1425511,/	t,t,t,t,t	<img class = center src='/static/experiments/beast_fmri_test/images/P.png'></img>	71,89	2750.0	test	<img class = center src='/static/experiments/beast_fmri_test/images/redP.png'></img>	go	2250.0	2.0	6.0	go	non-target	P	71,Index Finger	89,Middle Finger	550.0	500.0	2200.0	2250.0	1.0	n/a	500.0	1.0	go_stim
253769.78611545591	756.213884544	n/a	552	89	2750	756.213884544	stim	stop-signal	501	1425155	0.0-21.6-1.6	beast_fmri_test	338	1422792,/,1423471,/,1424150,/,1424830,/,1425511,/	t,t,t,t,t	<img class = center src='/static/experiments/beast_fmri_test/images/P.png'></img>	71,89	2750.0	test	<img class = center src='/static/experiments/beast_fmri_test/images/redP.png'></img>	go	2250.0	2.0	6.0	go	non-target	P	71,Index Finger	89,Middle Finger	550.0	500.0	2200.0	2250.0	1.0	n/a	500.0	1.0	ITI
255837	500.0	n/a	-1	-1	500	0.0	fixation	poldrack-single-stim	502	1426466	0.0-21.7-0.7	beast_fmri_test	338	1426190,/	t	<div class = centerbox2><div class = fixation>+</div></div>	none	500.0	test	n/a	n/a	n/a	n/a	n/a	n/a	n/a	n/a	n/a	n/a	n/a	n/a	n/a	n/a	n/a	n/a	n/a	n/a	fixation
255423.0469495242	2750.0	n/a	468	89	2750	415.953050476	stim	stop-signal	503	1429218	0.0-21.7-1.7	beast_fmri_test	338	1426869,/,1427548,/,1428228,/,1428908,/,1429588,/	t,t,t,t,t	<img class = center src='/static/experiments/beast_fmri_test/images/T.png'></img>	71,89	2750.0	test	<img class = center src='/static/experiments/beast_fmri_test/images/redT.png'></img>	go	2250.0	2.0	7.0	go	non-target	T	71,Index Finger	89,Middle Finger	550.0	500.0	2200.0	2250.0	1.0	n/a	500.0	1.0	go_stim
258173.0469495242	415.953050476	n/a	468	89	2750	415.953050476	stim	stop-signal	503	1429218	0.0-21.7-1.7	beast_fmri_test	338	1426869,/,1427548,/,1428228,/,1428908,/,1429588,/	t,t,t,t,t	<img class = center src='/static/experiments/beast_fmri_test/images/T.png'></img>	71,89	2750.0	test	<img class = center src='/static/experiments/beast_fmri_test/images/redT.png'></img>	go	2250.0	2.0	7.0	go	non-target	T	71,Index Finger	89,Middle Finger	550.0	500.0	2200.0	2250.0	1.0	n/a	500.0	1.0	ITI
259556	500.0	n/a	-1	-1	500	0.0	fixation	poldrack-single-stim	504	1430185	0.0-21.8-0.8	beast_fmri_test	338	n/a	n/a	<div class = centerbox2><div class = fixation>+</div></div>	none	500.0	test	n/a	n/a	n/a	n/a	n/a	n/a	n/a	n/a	n/a	n/a	n/a	n/a	n/a	n/a	n/a	n/a	n/a	n/a	fixation
259555.25055113249	500.0	n/a	757	89	2750	2.74944886761	stim	stop-signal	505	1432937	0.0-21.8-1.8	beast_fmri_test	338	1430267,/,1430946,/,1431626,/,1432307,/	t,t,t,t	<img class = center src='/static/experiments/beast_fmri_test/images/V.png'></img>	71,89	2750.0	test	<img class = center src='/static/experiments/beast_fmri_test/images/redV.png'></img>	stop	2250.0	2.0	8.0	stop	non-target	V	71,Index Finger	89,Middle Finger	550.0	500.0	2200.0	2250.0	0.0	0.0	500.0	n/a	go_stim
261805.25055113249	2250.0	n/a	757	89	2750	2.74944886761	stim	stop-signal	505	1432937	0.0-21.8-1.8	beast_fmri_test	338	1430267,/,1430946,/,1431626,/,1432307,/	t,t,t,t	<img class = center src='/static/experiments/beast_fmri_test/images/V.png'></img>	71,89	2750.0	test	<img class = center src='/static/experiments/beast_fmri_test/images/redV.png'></img>	stop	2250.0	2.0	8.0	stop	non-target	V	71,Index Finger	89,Middle Finger	550.0	500.0	2200.0	2250.0	0.0	0.0	500.0	n/a	stop_stim
262305.25055113249	2.74944886761	n/a	757	89	2750	2.74944886761	stim	stop-signal	505	1432937	0.0-21.8-1.8	beast_fmri_test	338	1430267,/,1430946,/,1431626,/,1432307,/	t,t,t,t	<img class = center src='/static/experiments/beast_fmri_test/images/V.png'></img>	71,89	2750.0	test	<img class = center src='/static/experiments/beast_fmri_test/images/redV.png'></img>	stop	2250.0	2.0	8.0	stop	non-target	V	71,Index Finger	89,Middle Finger	550.0	500.0	2200.0	2250.0	0.0	0.0	500.0	n/a	ITI
262868	500.0	n/a	-1	-1	500	0.0	fixation	poldrack-single-stim	506	1433497	0.0-21.9-0.9	beast_fmri_test	338	1432998,/	t	<div class = centerbox2><div class = fixation>+</div></div>	none	500.0	test	n/a	n/a	n/a	n/a	n/a	n/a	n/a	n/a	n/a	n/a	n/a	n/a	n/a	n/a	n/a	n/a	n/a	n/a	fixation
262340.00031353906	2750.0	n/a	701	89	2750	528.999686461	stim	stop-signal	507	1436248	0.0-21.9-1.9	beast_fmri_test	338	1433667,/,1434346,/,1435026,/,1435706,/,1436385,/	t,t,t,t,t	<img class = center src='/static/experiments/beast_fmri_test/images/T.png'></img>	71,89	2750.0	test	<img class = center src='/static/experiments/beast_fmri_test/images/redT.png'></img>	go	2200.0	2.0	9.0	go	target	T	71,Index Finger	89,Middle Finger	550.0	450.0	2200.0	2250.0	0.0	n/a	550.0	0.0	go_stim
265090.00031353906	528.999686461	n/a	701	89	2750	528.999686461	stim	stop-signal	507	1436248	0.0-21.9-1.9	beast_fmri_test	338	1433667,/,1434346,/,1435026,/,1435706,/,1436385,/	t,t,t,t,t	<img class = center src='/static/experiments/beast_fmri_test/images/T.png'></img>	71,89	2750.0	test	<img class = center src='/static/experiments/beast_fmri_test/images/redT.png'></img>	go	2200.0	2.0	9.0	go	target	T	71,Index Finger	89,Middle Finger	550.0	450.0	2200.0	2250.0	0.0	n/a	550.0	0.0	ITI
266706	500.0	n/a	-1	-1	500	0.0	fixation	poldrack-single-stim	508	1437335	0.0-21.10-0.10	beast_fmri_test	338	1437065,/	t	<div class = centerbox2><div class = fixation>+</div></div>	none	500.0	test	n/a	n/a	n/a	n/a	n/a	n/a	n/a	n/a	n/a	n/a	n/a	n/a	n/a	n/a	n/a	n/a	n/a	n/a	fixation
265090.81707417686	2750.0	n/a	807	89	2750	1616.18292582	stim	stop-signal	509	1440086	0.0-21.10-1.10	beast_fmri_test	338	1437744,/,1438424,/,1439102,/,1439784,/,1440468,/,1441143,/	t,t,t,t,t,t	<img class = center src='/static/experiments/beast_fmri_test/images/D.png'></img>	71,89	2750.0	test	<img class = center src='/static/experiments/beast_fmri_test/images/redD.png'></img>	go	2300.0	2.0	10.0	go	non-target	D	71,Index Finger	89,Middle Finger	550.0	450.0	2200.0	2300.0	1.0	n/a	450.0	1.0	go_stim
267840.81707417686	1616.18292582	n/a	807	89	2750	1616.18292582	stim	stop-signal	509	1440086	0.0-21.10-1.10	beast_fmri_test	338	1437744,/,1438424,/,1439102,/,1439784,/,1440468,/,1441143,/	t,t,t,t,t,t	<img class = center src='/static/experiments/beast_fmri_test/images/D.png'></img>	71,89	2750.0	test	<img class = center src='/static/experiments/beast_fmri_test/images/redD.png'></img>	go	2300.0	2.0	10.0	go	non-target	D	71,Index Finger	89,Middle Finger	550.0	450.0	2200.0	2300.0	1.0	n/a	450.0	1.0	ITI
271634	500.0	n/a	-1	-1	500	0.0	fixation	poldrack-single-stim	510	1442263	0.0-21.11-0.11	beast_fmri_test	338	1441823,/	t	<div class = centerbox2><div class = fixation>+</div></div>	none	500.0	test	n/a	n/a	n/a	n/a	n/a	n/a	n/a	n/a	n/a	n/a	n/a	n/a	n/a	n/a	n/a	n/a	n/a	n/a	fixation
271527.4197086182	2750.0	n/a	495	89	2750	107.580291382	stim	stop-signal	511	1445014	0.0-21.11-1.11	beast_fmri_test	338	1442502,/,1443183,/,1443863,/,1444542,/	t,t,t,t	<img class = center src='/static/experiments/beast_fmri_test/images/B.png'></img>	71,89	2750.0	test	<img class = center src='/static/experiments/beast_fmri_test/images/redB.png'></img>	go	2300.0	2.0	11.0	go	non-target	B	71,Index Finger	89,Middle Finger	550.0	450.0	2200.0	2300.0	1.0	n/a	450.0	1.0	go_stim
274277.4197086182	107.580291382	n/a	495	89	2750	107.580291382	stim	stop-signal	511	1445014	0.0-21.11-1.11	beast_fmri_test	338	1442502,/,1443183,/,1443863,/,1444542,/	t,t,t,t	<img class = center src='/static/experiments/beast_fmri_test/images/B.png'></img>	71,89	2750.0	test	<img class = center src='/static/experiments/beast_fmri_test/images/redB.png'></img>	go	2300.0	2.0	11.0	go	non-target	B	71,Index Finger	89,Middle Finger	550.0	450.0	2200.0	2300.0	1.0	n/a	450.0	1.0	ITI
275069	500.0	n/a	-1	-1	500	0.0	fixation	poldrack-single-stim	512	1445698	0.0-21.12-0.12	beast_fmri_test	338	1445222,/	t	<div class = centerbox2><div class = fixation>+</div></div>	none	500.0	test	n/a	n/a	n/a	n/a	n/a	n/a	n/a	n/a	n/a	n/a	n/a	n/a	n/a	n/a	n/a	n/a	n/a	n/a	fixation
274227.29694620031	2750.0	n/a	1036	89	2750	844.7030538	stim	stop-signal	513	1448451	0.0-21.12-1.12	beast_fmri_test	338	1445901,/,1446580,/,1447260,/,1447940,/,1448623,/	t,t,t,t,t	<img class = center src='/static/experiments/beast_fmri_test/images/T.png'></img>	71,89	2750.0	test	<img class = center src='/static/experiments/beast_fmri_test/images/redT.png'></img>	go	2300.0	2.0	12.0	go	non-target	T	71,Index Finger	89,Middle Finger	550.0	450.0	2200.0	2300.0	1.0	n/a	450.0	1.0	go_stim
276977.29694620031	844.7030538	n/a	1036	89	2750	844.7030538	stim	stop-signal	513	1448451	0.0-21.12-1.12	beast_fmri_test	338	1445901,/,1446580,/,1447260,/,1447940,/,1448623,/	t,t,t,t,t	<img class = center src='/static/experiments/beast_fmri_test/images/T.png'></img>	71,89	2750.0	test	<img class = center src='/static/experiments/beast_fmri_test/images/redT.png'></img>	go	2300.0	2.0	12.0	go	non-target	T	71,Index Finger	89,Middle Finger	550.0	450.0	2200.0	2300.0	1.0	n/a	450.0	1.0	ITI
279227	500.0	n/a	-1	-1	500	0.0	fixation	poldrack-single-stim	514	1449856	0.0-21.13-0.13	beast_fmri_test	338	1449353,/	t	<div class = centerbox2><div class = fixation>+</div></div>	none	500.0	test	n/a	n/a	n/a	n/a	n/a	n/a	n/a	n/a	n/a	n/a	n/a	n/a	n/a	n/a	n/a	n/a	n/a	n/a	fixation
277649.86356249219	450.0	n/a	565	89	2750	1578.13643751	stim	stop-signal	515	1452607	0.0-21.13-1.13	beast_fmri_test	338	1449980,/,1450659,/,1451337,/,1452017,/,1452697,/,1453378,/,1454057,/	t,t,t,t,t,t,t	<img class = center src='/static/experiments/beast_fmri_test/images/T.png'></img>	71,89	2750.0	test	<img class = center src='/static/experiments/beast_fmri_test/images/redT.png'></img>	stop	2300.0	2.0	13.0	stop	non-target	T	71,Index Finger	89,Middle Finger	550.0	450.0	2200.0	2300.0	0.0	0.0	450.0	n/a	go_stim
279949.86356249219	2300.0	n/a	565	89	2750	1578.13643751	stim	stop-signal	515	1452607	0.0-21.13-1.13	beast_fmri_test	338	1449980,/,1450659,/,1451337,/,1452017,/,1452697,/,1453378,/,1454057,/	t,t,t,t,t,t,t	<img class = center src='/static/experiments/beast_fmri_test/images/T.png'></img>	71,89	2750.0	test	<img class = center src='/static/experiments/beast_fmri_test/images/redT.png'></img>	stop	2300.0	2.0	13.0	stop	non-target	T	71,Index Finger	89,Middle Finger	550.0	450.0	2200.0	2300.0	0.0	0.0	450.0	n/a	stop_stim
280399.86356249219	1578.13643751	n/a	565	89	2750	1578.13643751	stim	stop-signal	515	1452607	0.0-21.13-1.13	beast_fmri_test	338	1449980,/,1450659,/,1451337,/,1452017,/,1452697,/,1453378,/,1454057,/	t,t,t,t,t,t,t	<img class = center src='/static/experiments/beast_fmri_test/images/T.png'></img>	71,89	2750.0	test	<img class = center src='/static/experiments/beast_fmri_test/images/redT.png'></img>	stop	2300.0	2.0	13.0	stop	non-target	T	71,Index Finger	89,Middle Finger	550.0	450.0	2200.0	2300.0	0.0	0.0	450.0	n/a	ITI
284110	500.0	n/a	-1	-1	500	0.0	fixation	poldrack-single-stim	516	1454739	0.0-21.14-0.14	beast_fmri_test	338	1454737,/	t	<div class = centerbox2><div class = fixation>+</div></div>	none	500.0	test	n/a	n/a	n/a	n/a	n/a	n/a	n/a	n/a	n/a	n/a	n/a	n/a	n/a	n/a	n/a	n/a	n/a	n/a	fixation
282889.40302779921	2750.0	n/a	496	89	2750	1222.5969722	stim	stop-signal	517	1457491	0.0-21.14-1.14	beast_fmri_test	338	1455416,/,1456096,/,1456775,/,1457455,/,1458136,/	t,t,t,t,t	<img class = center src='/static/experiments/beast_fmri_test/images/D.png'></img>	71,89	2750.0	test	<img class = center src='/static/experiments/beast_fmri_test/images/redD.png'></img>	go	2350.0	2.0	14.0	go	non-target	D	71,Index Finger	89,Middle Finger	550.0	400.0	2200.0	2350.0	1.0	n/a	400.0	1.0	go_stim
285639.40302779921	1222.5969722	n/a	496	89	2750	1222.5969722	stim	stop-signal	517	1457491	0.0-21.14-1.14	beast_fmri_test	338	1455416,/,1456096,/,1456775,/,1457455,/,1458136,/	t,t,t,t,t	<img class = center src='/static/experiments/beast_fmri_test/images/D.png'></img>	71,89	2750.0	test	<img class = center src='/static/experiments/beast_fmri_test/images/redD.png'></img>	go	2350.0	2.0	14.0	go	non-target	D	71,Index Finger	89,Middle Finger	550.0	400.0	2200.0	2350.0	1.0	n/a	400.0	1.0	ITI
288641	500.0	n/a	-1	-1	500	0.0	fixation	poldrack-single-stim	518	1459270	0.0-21.15-0.15	beast_fmri_test	338	1458814,/	t	<div class = centerbox2><div class = fixation>+</div></div>	none	500.0	test	n/a	n/a	n/a	n/a	n/a	n/a	n/a	n/a	n/a	n/a	n/a	n/a	n/a	n/a	n/a	n/a	n/a	n/a	fixation
288232.13848386239	2750.0	n/a	844	89	2750	410.861516138	stim	stop-signal	519	1462022	0.0-21.15-1.15	beast_fmri_test	338	1459493,/,1460174,/,1460854,/,1461533,/,1462212,/	t,t,t,t,t	<img class = center src='/static/experiments/beast_fmri_test/images/D.png'></img>	71,89	2750.0	test	<img class = center src='/static/experiments/beast_fmri_test/images/redD.png'></img>	go	2350.0	2.0	15.0	go	non-target	D	71,Index Finger	89,Middle Finger	550.0	400.0	2200.0	2350.0	1.0	n/a	400.0	1.0	go_stim
290982.13848386239	410.861516138	n/a	844	89	2750	410.861516138	stim	stop-signal	519	1462022	0.0-21.15-1.15	beast_fmri_test	338	1459493,/,1460174,/,1460854,/,1461533,/,1462212,/	t,t,t,t,t	<img class = center src='/static/experiments/beast_fmri_test/images/D.png'></img>	71,89	2750.0	test	<img class = center src='/static/experiments/beast_fmri_test/images/redD.png'></img>	go	2350.0	2.0	15.0	go	non-target	D	71,Index Finger	89,Middle Finger	550.0	400.0	2200.0	2350.0	1.0	n/a	400.0	1.0	ITI
292364	500.0	n/a	-1	-1	500	0.0	fixation	poldrack-single-stim	520	1462993	0.0-21.16-0.16	beast_fmri_test	338	1462894,/	t	<div class = centerbox2><div class = fixation>+</div></div>	none	500.0	test	n/a	n/a	n/a	n/a	n/a	n/a	n/a	n/a	n/a	n/a	n/a	n/a	n/a	n/a	n/a	n/a	n/a	n/a	fixation
290482.95965616964	2750.0	n/a	961	71	2750	1882.04034383	stim	stop-signal	521	1465744	0.0-21.16-1.16	beast_fmri_test	338	1463573,/,1464251,/,1464932,/,1465610,/,1466290,/,1466971,/	t,t,t,t,t,t	<img class = center src='/static/experiments/beast_fmri_test/images/T.png'></img>	71,89	2750.0	test	<img class = center src='/static/experiments/beast_fmri_test/images/redT.png'></img>	go	2350.0	2.0	16.0	go	non-target	T	71,Index Finger	89,Middle Finger	550.0	400.0	2200.0	2350.0	0.0	n/a	400.0	0.0	go_stim
293232.95965616964	1882.04034383	n/a	961	71	2750	1882.04034383	stim	stop-signal	521	1465744	0.0-21.16-1.16	beast_fmri_test	338	1463573,/,1464251,/,1464932,/,1465610,/,1466290,/,1466971,/	t,t,t,t,t,t	<img class = center src='/static/experiments/beast_fmri_test/images/T.png'></img>	71,89	2750.0	test	<img class = center src='/static/experiments/beast_fmri_test/images/redT.png'></img>	go	2350.0	2.0	16.0	go	non-target	T	71,Index Finger	89,Middle Finger	550.0	400.0	2200.0	2350.0	0.0	n/a	400.0	0.0	ITI
297559	500.0	n/a	-1	-1	500	0.0	fixation	poldrack-single-stim	522	1468188	0.0-21.17-0.17	beast_fmri_test	338	1467687,/	t	<div class = centerbox2><div class = fixation>+</div></div>	none	500.0	test	n/a	n/a	n/a	n/a	n/a	n/a	n/a	n/a	n/a	n/a	n/a	n/a	n/a	n/a	n/a	n/a	n/a	n/a	fixation
295366.40008569392	2750.0	n/a	723	89	2750	2195.59991431	stim	stop-signal	523	1470941	0.0-21.17-1.17	beast_fmri_test	338	1468331,/,1469009,/,1469690,/,1470370,/,1471076,/,1471729,/,1472409,/,1473089,/	t,t,t,t,t,t,t,t	<img class = center src='/static/experiments/beast_fmri_test/images/V.png'></img>	71,89	2750.0	test	<img class = center src='/static/experiments/beast_fmri_test/images/redV.png'></img>	go	2350.0	2.0	17.0	go	non-target	V	71,Index Finger	89,Middle Finger	550.0	400.0	2200.0	2350.0	1.0	n/a	400.0	1.0	go_stim
298116.40008569392	2195.59991431	n/a	723	89	2750	2195.59991431	stim	stop-signal	523	1470941	0.0-21.17-1.17	beast_fmri_test	338	1468331,/,1469009,/,1469690,/,1470370,/,1471076,/,1471729,/,1472409,/,1473089,/	t,t,t,t,t,t,t,t	<img class = center src='/static/experiments/beast_fmri_test/images/V.png'></img>	71,89	2750.0	test	<img class = center src='/static/experiments/beast_fmri_test/images/redV.png'></img>	go	2350.0	2.0	17.0	go	non-target	V	71,Index Finger	89,Middle Finger	550.0	400.0	2200.0	2350.0	1.0	n/a	400.0	1.0	ITI
303061	500.0	n/a	-1	-1	500	0.0	fixation	poldrack-single-stim	524	1473690	0.0-21.18-0.18	beast_fmri_test	338	n/a	n/a	<div class = centerbox2><div class = fixation>+</div></div>	none	500.0	test	n/a	n/a	n/a	n/a	n/a	n/a	n/a	n/a	n/a	n/a	n/a	n/a	n/a	n/a	n/a	n/a	n/a	n/a	fixation
302456.1834223012	2750.0	n/a	1092	71	2750	607.816577699	stim	stop-signal	525	1476443	0.0-21.18-1.18	beast_fmri_test	338	1473767,/,1474447,/,1475128,/,1475810,/,1476486,/	t,t,t,t,t	<img class = center src='/static/experiments/beast_fmri_test/images/T.png'></img>	71,89	2750.0	test	<img class = center src='/static/experiments/beast_fmri_test/images/redT.png'></img>	go	2200.0	2.0	18.0	go	target	T	71,Index Finger	89,Middle Finger	550.0	400.0	2200.0	2350.0	1.0	n/a	550.0	1.0	go_stim
305206.1834223012	607.816577699	n/a	1092	71	2750	607.816577699	stim	stop-signal	525	1476443	0.0-21.18-1.18	beast_fmri_test	338	1473767,/,1474447,/,1475128,/,1475810,/,1476486,/	t,t,t,t,t	<img class = center src='/static/experiments/beast_fmri_test/images/T.png'></img>	71,89	2750.0	test	<img class = center src='/static/experiments/beast_fmri_test/images/redT.png'></img>	go	2200.0	2.0	18.0	go	target	T	71,Index Finger	89,Middle Finger	550.0	400.0	2200.0	2350.0	1.0	n/a	550.0	1.0	ITI
306990	500.0	n/a	-1	-1	500	0.0	fixation	poldrack-single-stim	526	1477619	0.0-21.19-0.19	beast_fmri_test	338	1477208,/	t	<div class = centerbox2><div class = fixation>+</div></div>	none	500.0	test	n/a	n/a	n/a	n/a	n/a	n/a	n/a	n/a	n/a	n/a	n/a	n/a	n/a	n/a	n/a	n/a	n/a	n/a	fixation
306676.31592565426	2750.0	n/a	1700	89	2750	322.684074346	stim	stop-signal	527	1480378	0.0-21.19-1.19	beast_fmri_test	338	1477847,/,1478526,/,1479205,/,1479884,/,1480565,/	t,t,t,t,t	<img class = center src='/static/experiments/beast_fmri_test/images/B.png'></img>	71,89	2750.0	test	<img class = center src='/static/experiments/beast_fmri_test/images/redB.png'></img>	go	2350.0	2.0	19.0	go	non-target	B	71,Index Finger	89,Middle Finger	550.0	400.0	2200.0	2350.0	1.0	n/a	400.0	1.0	go_stim
309426.31592565426	322.684074346	n/a	1700	89	2750	322.684074346	stim	stop-signal	527	1480378	0.0-21.19-1.19	beast_fmri_test	338	1477847,/,1478526,/,1479205,/,1479884,/,1480565,/	t,t,t,t,t	<img class = center src='/static/experiments/beast_fmri_test/images/B.png'></img>	71,89	2750.0	test	<img class = center src='/static/experiments/beast_fmri_test/images/redB.png'></img>	go	2350.0	2.0	19.0	go	non-target	B	71,Index Finger	89,Middle Finger	550.0	400.0	2200.0	2350.0	1.0	n/a	400.0	1.0	ITI
310625	500.0	n/a	-1	-1	500	0.0	fixation	poldrack-single-stim	528	1481254	0.0-21.20-0.20	beast_fmri_test	338	1481245,/	t	<div class = centerbox2><div class = fixation>+</div></div>	none	500.0	test	n/a	n/a	n/a	n/a	n/a	n/a	n/a	n/a	n/a	n/a	n/a	n/a	n/a	n/a	n/a	n/a	n/a	n/a	fixation
309942.27016902016	550.0	n/a	1069	71	2750	684.72983098	stim	stop-signal	529	1484006	0.0-21.20-1.20	beast_fmri_test	338	1481925,/,1482604,/,1483283,/,1483962,/,1484643,/	t,t,t,t,t	<img class = center src='/static/experiments/beast_fmri_test/images/T.png'></img>	71,89	2750.0	test	<img class = center src='/static/experiments/beast_fmri_test/images/redT.png'></img>	stop	2200.0	2.0	20.0	stop	target	T	71,Index Finger	89,Middle Finger	550.0	400.0	2200.0	2350.0	0.0	0.0	550.0	n/a	go_stim
312142.27016902016	2200.0	n/a	1069	71	2750	684.72983098	stim	stop-signal	529	1484006	0.0-21.20-1.20	beast_fmri_test	338	1481925,/,1482604,/,1483283,/,1483962,/,1484643,/	t,t,t,t,t	<img class = center src='/static/experiments/beast_fmri_test/images/T.png'></img>	71,89	2750.0	test	<img class = center src='/static/experiments/beast_fmri_test/images/redT.png'></img>	stop	2200.0	2.0	20.0	stop	target	T	71,Index Finger	89,Middle Finger	550.0	400.0	2200.0	2350.0	0.0	0.0	550.0	n/a	stop_stim
312692.27016902016	684.72983098	n/a	1069	71	2750	684.72983098	stim	stop-signal	529	1484006	0.0-21.20-1.20	beast_fmri_test	338	1481925,/,1482604,/,1483283,/,1483962,/,1484643,/	t,t,t,t,t	<img class = center src='/static/experiments/beast_fmri_test/images/T.png'></img>	71,89	2750.0	test	<img class = center src='/static/experiments/beast_fmri_test/images/redT.png'></img>	stop	2200.0	2.0	20.0	stop	target	T	71,Index Finger	89,Middle Finger	550.0	400.0	2200.0	2350.0	0.0	0.0	550.0	n/a	ITI
314624	500.0	n/a	-1	-1	500	0.0	fixation	poldrack-single-stim	530	1485253	0.0-21.21-0.21	beast_fmri_test	338	n/a	n/a	<div class = centerbox2><div class = fixation>+</div></div>	none	500.0	test	n/a	n/a	n/a	n/a	n/a	n/a	n/a	n/a	n/a	n/a	n/a	n/a	n/a	n/a	n/a	n/a	n/a	n/a	fixation
312594.35800911277	2750.0	n/a	1043	71	2750	2030.64199089	stim	stop-signal	531	1488004	0.0-21.21-1.21	beast_fmri_test	338	1485323,/,1486003,/,1486682,/,1487362,/,1488040,/,1488721,/,1489399,/	t,t,t,t,t,t,t	<img class = center src='/static/experiments/beast_fmri_test/images/B.png'></img>	71,89	2750.0	test	<img class = center src='/static/experiments/beast_fmri_test/images/redB.png'></img>	go	2250.0	2.0	21.0	go	target	B	71,Index Finger	89,Middle Finger	500.0	400.0	2250.0	2350.0	1.0	n/a	500.0	1.0	go_stim
315344.35800911277	2030.64199089	n/a	1043	71	2750	2030.64199089	stim	stop-signal	531	1488004	0.0-21.21-1.21	beast_fmri_test	338	1485323,/,1486003,/,1486682,/,1487362,/,1488040,/,1488721,/,1489399,/	t,t,t,t,t,t,t	<img class = center src='/static/experiments/beast_fmri_test/images/B.png'></img>	71,89	2750.0	test	<img class = center src='/static/experiments/beast_fmri_test/images/redB.png'></img>	go	2250.0	2.0	21.0	go	target	B	71,Index Finger	89,Middle Finger	500.0	400.0	2250.0	2350.0	1.0	n/a	500.0	1.0	ITI
319960	500.0	n/a	-1	-1	500	0.0	fixation	poldrack-single-stim	532	1490589	0.0-21.22-0.22	beast_fmri_test	338	1490087,/	t	<div class = centerbox2><div class = fixation>+</div></div>	none	500.0	test	n/a	n/a	n/a	n/a	n/a	n/a	n/a	n/a	n/a	n/a	n/a	n/a	n/a	n/a	n/a	n/a	n/a	n/a	fixation
319073.22950850171	2750.0	n/a	746	71	2750	888.770491498	stim	stop-signal	533	1493341	0.0-21.22-1.22	beast_fmri_test	338	1490760,/,1491440,/,1492120,/,1492798,/,1493500,/,1494157,/	t,t,t,t,t,t	<img class = center src='/static/experiments/beast_fmri_test/images/T.png'></img>	71,89	2750.0	test	<img class = center src='/static/experiments/beast_fmri_test/images/redT.png'></img>	go	2250.0	2.0	22.0	go	target	T	71,Index Finger	89,Middle Finger	500.0	400.0	2250.0	2350.0	1.0	n/a	500.0	1.0	go_stim
321823.22950850171	888.770491498	n/a	746	71	2750	888.770491498	stim	stop-signal	533	1493341	0.0-21.22-1.22	beast_fmri_test	338	1490760,/,1491440,/,1492120,/,1492798,/,1493500,/,1494157,/	t,t,t,t,t,t	<img class = center src='/static/experiments/beast_fmri_test/images/T.png'></img>	71,89	2750.0	test	<img class = center src='/static/experiments/beast_fmri_test/images/redT.png'></img>	go	2250.0	2.0	22.0	go	target	T	71,Index Finger	89,Middle Finger	500.0	400.0	2250.0	2350.0	1.0	n/a	500.0	1.0	ITI
324158	500.0	n/a	-1	-1	500	0.0	fixation	poldrack-single-stim	534	1494787	0.0-21.23-0.23	beast_fmri_test	338	n/a	n/a	<div class = centerbox2><div class = fixation>+</div></div>	none	500.0	test	n/a	n/a	n/a	n/a	n/a	n/a	n/a	n/a	n/a	n/a	n/a	n/a	n/a	n/a	n/a	n/a	n/a	n/a	fixation
