onset	duration	text	rt	key_press	block_duration	timing_post_trial	trial_id	trial_type	trial_index	time_elapsed	internal_node_id	exp_id	subject_id	trigger_times	triggers	stimulus	possible_responses	stim_duration	exp_stage	SS_stimulus	SS_trial_type	SS_duration	load	trial_num	stop_trial_type	adaptive_trial_type	stim	yes_response_key	no_response_key	SSD_target	SSD_non_target	SSTarget	SSNonTarget	go_acc	stop_acc	SS_delay	adaptive_acc	new_trial_type
test	10880.0	n/a	-1	-1	10880	0.0	practice-no-stop-feedback	poldrack-single-stim	584	1702316	0.0-24.0	beast_fmri_test	338	1691439,/,1692115,/,1692797,/,1693476,/,1694155,/,1694835,/,1695516,/,1696194,/,1696875,/,1697554,/,1698234,/,1698913,/,1699595,/,1700274,/,1700954,/,1701633,/,1702312,/	t,t,t,t,t,t,t,t,t,t,t,t,t,t,t,t,t	"<div class = ""centerbox""><p class = ""block-text"">Your delay is 1 trials.</p><p class = block-text>Please wait for the scanner to start the block</p></div>"	77	10880.0	n/a	n/a	n/a	n/a	n/a	n/a	n/a	n/a	n/a	n/a	n/a	n/a	n/a	n/a	n/a	n/a	n/a	n/a	n/a	start_functional_block
11380	500.0	n/a	-1	-1	500	0.0	fixation	poldrack-single-stim	585	1702819	0.0-25.0-0.0	beast_fmri_test	338	n/a	n/a	<div class = centerbox2><div class = fixation>+</div></div>	none	500.0	test	n/a	n/a	n/a	n/a	n/a	n/a	n/a	n/a	n/a	n/a	n/a	n/a	n/a	n/a	n/a	n/a	n/a	n/a	fixation
9307.6075805597939	2750.0	n/a	642	89	2750	2075.39241944	stim	stop-signal	586	1705572	0.0-25.0-1.0	beast_fmri_test	338	1702992,/,1703671,/,1704358,/,1705031,/,1705711,/,1706390,/,1707070,/	t,t,t,t,t,t,t	<img class = center src='/static/experiments/beast_fmri_test/images/B.png'></img>	71,89	2750.0	test	<img class = center src='/static/experiments/beast_fmri_test/images/redB.png'></img>	go	-1.0	1.0	0.0	go	temp-non-target	B	71,Index Finger	89,Middle Finger	500.0	400.0	2250.0	2300.0	0.0	n/a	n/a	n/a	go_stim
12057.607580559794	2075.39241944	n/a	642	89	2750	2075.39241944	stim	stop-signal	586	1705572	0.0-25.0-1.0	beast_fmri_test	338	1702992,/,1703671,/,1704358,/,1705031,/,1705711,/,1706390,/,1707070,/	t,t,t,t,t,t,t	<img class = center src='/static/experiments/beast_fmri_test/images/B.png'></img>	71,89	2750.0	test	<img class = center src='/static/experiments/beast_fmri_test/images/redB.png'></img>	go	-1.0	1.0	0.0	go	temp-non-target	B	71,Index Finger	89,Middle Finger	500.0	400.0	2250.0	2300.0	0.0	n/a	n/a	n/a	ITI
16784	500.0	n/a	-1	-1	500	0.0	fixation	poldrack-single-stim	587	1708223	0.0-25.1-0.1	beast_fmri_test	338	1707749,/	t	<div class = centerbox2><div class = fixation>+</div></div>	none	500.0	test	n/a	n/a	n/a	n/a	n/a	n/a	n/a	n/a	n/a	n/a	n/a	n/a	n/a	n/a	n/a	n/a	n/a	n/a	fixation
13912.268513776595	2750.0	n/a	402	71	2750	2873.73148622	stim	stop-signal	588	1710975	0.0-25.1-1.1	beast_fmri_test	338	1708429,/,1709108,/,1709789,/,1710469,/,1711148,/,1711828,/,1712507,/,1713187,/	t,t,t,t,t,t,t,t	<img class = center src='/static/experiments/beast_fmri_test/images/B.png'></img>	71,89	2750.0	test	<img class = center src='/static/experiments/beast_fmri_test/images/redB.png'></img>	go	2250.0	1.0	1.0	go	target	B	71,Index Finger	89,Middle Finger	500.0	400.0	2250.0	2300.0	1.0	n/a	500.0	1.0	go_stim
16662.268513776595	2873.73148622	n/a	402	71	2750	2873.73148622	stim	stop-signal	588	1710975	0.0-25.1-1.1	beast_fmri_test	338	1708429,/,1709108,/,1709789,/,1710469,/,1711148,/,1711828,/,1712507,/,1713187,/	t,t,t,t,t,t,t,t	<img class = center src='/static/experiments/beast_fmri_test/images/B.png'></img>	71,89	2750.0	test	<img class = center src='/static/experiments/beast_fmri_test/images/redB.png'></img>	go	2250.0	1.0	1.0	go	target	B	71,Index Finger	89,Middle Finger	500.0	400.0	2250.0	2300.0	1.0	n/a	500.0	1.0	ITI
22975	500.0	n/a	-1	-1	500	0.0	fixation	poldrack-single-stim	589	1714414	0.0-25.2-0.2	beast_fmri_test	338	1713913,/	t	<div class = centerbox2><div class = fixation>+</div></div>	none	500.0	test	n/a	n/a	n/a	n/a	n/a	n/a	n/a	n/a	n/a	n/a	n/a	n/a	n/a	n/a	n/a	n/a	n/a	n/a	fixation
21390.448584046215	2750.0	n/a	600	89	2750	1585.55141595	stim	stop-signal	590	1717165	0.0-25.2-1.2	beast_fmri_test	338	1714547,/,1715225,/,1715905,/,1716586,/,1717264,/,1717943,/,1718625,/	t,t,t,t,t,t,t	<img class = center src='/static/experiments/beast_fmri_test/images/T.png'></img>	71,89	2750.0	test	<img class = center src='/static/experiments/beast_fmri_test/images/redT.png'></img>	go	2350.0	1.0	2.0	go	non-target	T	71,Index Finger	89,Middle Finger	500.0	400.0	2250.0	2350.0	1.0	n/a	400.0	1.0	go_stim
24140.448584046215	1585.55141595	n/a	600	89	2750	1585.55141595	stim	stop-signal	590	1717165	0.0-25.2-1.2	beast_fmri_test	338	1714547,/,1715225,/,1715905,/,1716586,/,1717264,/,1717943,/,1718625,/	t,t,t,t,t,t,t	<img class = center src='/static/experiments/beast_fmri_test/images/T.png'></img>	71,89	2750.0	test	<img class = center src='/static/experiments/beast_fmri_test/images/redT.png'></img>	go	2350.0	1.0	2.0	go	non-target	T	71,Index Finger	89,Middle Finger	500.0	400.0	2250.0	2350.0	1.0	n/a	400.0	1.0	ITI
27882	500.0	n/a	-1	-1	500	0.0	fixation	poldrack-single-stim	591	1719321	0.0-25.3-0.3	beast_fmri_test	338	1719304,/	t	<div class = centerbox2><div class = fixation>+</div></div>	none	500.0	test	n/a	n/a	n/a	n/a	n/a	n/a	n/a	n/a	n/a	n/a	n/a	n/a	n/a	n/a	n/a	n/a	n/a	n/a	fixation
26380.800019394141	2750.0	n/a	391	71	2750	1503.19998061	stim	stop-signal	592	1722073	0.0-25.3-1.3	beast_fmri_test	338	1719984,/,1720663,/,1721347,/,1722022,/,1722701,/,1723381,/	t,t,t,t,t,t	<img class = center src='/static/experiments/beast_fmri_test/images/T.png'></img>	71,89	2750.0	test	<img class = center src='/static/experiments/beast_fmri_test/images/redT.png'></img>	go	2250.0	1.0	3.0	go	target	T	71,Index Finger	89,Middle Finger	500.0	400.0	2250.0	2350.0	1.0	n/a	500.0	1.0	go_stim
29130.800019394141	1503.19998061	n/a	391	71	2750	1503.19998061	stim	stop-signal	592	1722073	0.0-25.3-1.3	beast_fmri_test	338	1719984,/,1720663,/,1721347,/,1722022,/,1722701,/,1723381,/	t,t,t,t,t,t	<img class = center src='/static/experiments/beast_fmri_test/images/T.png'></img>	71,89	2750.0	test	<img class = center src='/static/experiments/beast_fmri_test/images/redT.png'></img>	go	2250.0	1.0	3.0	go	target	T	71,Index Finger	89,Middle Finger	500.0	400.0	2250.0	2350.0	1.0	n/a	500.0	1.0	ITI
32705	500.0	n/a	-1	-1	500	0.0	fixation	poldrack-single-stim	593	1724144	0.0-25.4-0.4	beast_fmri_test	338	1724061,/	t	<div class = centerbox2><div class = fixation>+</div></div>	none	500.0	test	n/a	n/a	n/a	n/a	n/a	n/a	n/a	n/a	n/a	n/a	n/a	n/a	n/a	n/a	n/a	n/a	n/a	n/a	fixation
32419.635239514057	2750.0	n/a	607	89	2750	286.364760486	stim	stop-signal	594	1726895	0.0-25.4-1.4	beast_fmri_test	338	1724742,/,1725420,/,1726101,/,1726781,/	t,t,t,t	<img class = center src='/static/experiments/beast_fmri_test/images/V.png'></img>	71,89	2750.0	test	<img class = center src='/static/experiments/beast_fmri_test/images/redV.png'></img>	go	2350.0	1.0	4.0	go	non-target	V	71,Index Finger	89,Middle Finger	500.0	400.0	2250.0	2350.0	1.0	n/a	400.0	1.0	go_stim
35169.635239514057	286.364760486	n/a	607	89	2750	286.364760486	stim	stop-signal	594	1726895	0.0-25.4-1.4	beast_fmri_test	338	1724742,/,1725420,/,1726101,/,1726781,/	t,t,t,t	<img class = center src='/static/experiments/beast_fmri_test/images/V.png'></img>	71,89	2750.0	test	<img class = center src='/static/experiments/beast_fmri_test/images/redV.png'></img>	go	2350.0	1.0	4.0	go	non-target	V	71,Index Finger	89,Middle Finger	500.0	400.0	2250.0	2350.0	1.0	n/a	400.0	1.0	ITI
36320	500.0	n/a	-1	-1	500	0.0	fixation	poldrack-single-stim	595	1727759	0.0-25.5-0.5	beast_fmri_test	338	1727485,/	t	<div class = centerbox2><div class = fixation>+</div></div>	none	500.0	test	n/a	n/a	n/a	n/a	n/a	n/a	n/a	n/a	n/a	n/a	n/a	n/a	n/a	n/a	n/a	n/a	n/a	n/a	fixation
35478.164325491292	2750.0	n/a	866	89	2750	844.835674509	stim	stop-signal	596	1730512	0.0-25.5-1.5	beast_fmri_test	338	1728140,/,1728821,/,1729500,/,1730179,/,1730859,/	t,t,t,t,t	<img class = center src='/static/experiments/beast_fmri_test/images/T.png'></img>	71,89	2750.0	test	<img class = center src='/static/experiments/beast_fmri_test/images/redT.png'></img>	go	2350.0	1.0	5.0	go	non-target	T	71,Index Finger	89,Middle Finger	500.0	400.0	2250.0	2350.0	1.0	n/a	400.0	1.0	go_stim
38228.164325491292	844.835674509	n/a	866	89	2750	844.835674509	stim	stop-signal	596	1730512	0.0-25.5-1.5	beast_fmri_test	338	1728140,/,1728821,/,1729500,/,1730179,/,1730859,/	t,t,t,t,t	<img class = center src='/static/experiments/beast_fmri_test/images/T.png'></img>	71,89	2750.0	test	<img class = center src='/static/experiments/beast_fmri_test/images/redT.png'></img>	go	2350.0	1.0	5.0	go	non-target	T	71,Index Finger	89,Middle Finger	500.0	400.0	2250.0	2350.0	1.0	n/a	400.0	1.0	ITI
40510	500.0	n/a	-1	-1	500	0.0	fixation	poldrack-single-stim	597	1731949	0.0-25.6-0.6	beast_fmri_test	338	1731538,/	t	<div class = centerbox2><div class = fixation>+</div></div>	none	500.0	test	n/a	n/a	n/a	n/a	n/a	n/a	n/a	n/a	n/a	n/a	n/a	n/a	n/a	n/a	n/a	n/a	n/a	n/a	fixation
38933.243092574878	500.0	n/a	499	71	2750	1580.75690743	stim	stop-signal	598	1734703	0.0-25.6-1.6	beast_fmri_test	338	1732247,/,1732898,/,1733578,/,1734257,/,1734937,/,1735617,/	t,t,t,t,t,t	<img class = center src='/static/experiments/beast_fmri_test/images/T.png'></img>	71,89	2750.0	test	<img class = center src='/static/experiments/beast_fmri_test/images/redT.png'></img>	stop	2250.0	1.0	6.0	stop	target	T	71,Index Finger	89,Middle Finger	500.0	400.0	2250.0	2350.0	0.0	0.0	500.0	n/a	go_stim
41183.243092574878	2250.0	n/a	499	71	2750	1580.75690743	stim	stop-signal	598	1734703	0.0-25.6-1.6	beast_fmri_test	338	1732247,/,1732898,/,1733578,/,1734257,/,1734937,/,1735617,/	t,t,t,t,t,t	<img class = center src='/static/experiments/beast_fmri_test/images/T.png'></img>	71,89	2750.0	test	<img class = center src='/static/experiments/beast_fmri_test/images/redT.png'></img>	stop	2250.0	1.0	6.0	stop	target	T	71,Index Finger	89,Middle Finger	500.0	400.0	2250.0	2350.0	0.0	0.0	500.0	n/a	stop_stim
41683.243092574878	1580.75690743	n/a	499	71	2750	1580.75690743	stim	stop-signal	598	1734703	0.0-25.6-1.6	beast_fmri_test	338	1732247,/,1732898,/,1733578,/,1734257,/,1734937,/,1735617,/	t,t,t,t,t,t	<img class = center src='/static/experiments/beast_fmri_test/images/T.png'></img>	71,89	2750.0	test	<img class = center src='/static/experiments/beast_fmri_test/images/redT.png'></img>	stop	2250.0	1.0	6.0	stop	target	T	71,Index Finger	89,Middle Finger	500.0	400.0	2250.0	2350.0	0.0	0.0	500.0	n/a	ITI
45409	500.0	n/a	-1	-1	500	0.0	fixation	poldrack-single-stim	599	1736848	0.0-25.7-0.7	beast_fmri_test	338	1736347,/	t	<div class = centerbox2><div class = fixation>+</div></div>	none	500.0	test	n/a	n/a	n/a	n/a	n/a	n/a	n/a	n/a	n/a	n/a	n/a	n/a	n/a	n/a	n/a	n/a	n/a	n/a	fixation
45286.848013638286	450.0	n/a	717	71	2750	125.151986362	stim	stop-signal	600	1739601	0.0-25.7-1.7	beast_fmri_test	338	1736976,/,1737657,/,1738380,/,1739015,/,1739695,/	t,t,t,t,t	<img class = center src='/static/experiments/beast_fmri_test/images/T.png'></img>	71,89	2750.0	test	<img class = center src='/static/experiments/beast_fmri_test/images/redT.png'></img>	stop	2300.0	1.0	7.0	stop	target	T	71,Index Finger	89,Middle Finger	450.0	400.0	2300.0	2350.0	0.0	0.0	450.0	n/a	go_stim
47586.848013638286	2300.0	n/a	717	71	2750	125.151986362	stim	stop-signal	600	1739601	0.0-25.7-1.7	beast_fmri_test	338	1736976,/,1737657,/,1738380,/,1739015,/,1739695,/	t,t,t,t,t	<img class = center src='/static/experiments/beast_fmri_test/images/T.png'></img>	71,89	2750.0	test	<img class = center src='/static/experiments/beast_fmri_test/images/redT.png'></img>	stop	2300.0	1.0	7.0	stop	target	T	71,Index Finger	89,Middle Finger	450.0	400.0	2300.0	2350.0	0.0	0.0	450.0	n/a	stop_stim
48036.848013638286	125.151986362	n/a	717	71	2750	125.151986362	stim	stop-signal	600	1739601	0.0-25.7-1.7	beast_fmri_test	338	1736976,/,1737657,/,1738380,/,1739015,/,1739695,/	t,t,t,t,t	<img class = center src='/static/experiments/beast_fmri_test/images/T.png'></img>	71,89	2750.0	test	<img class = center src='/static/experiments/beast_fmri_test/images/redT.png'></img>	stop	2300.0	1.0	7.0	stop	target	T	71,Index Finger	89,Middle Finger	450.0	400.0	2300.0	2350.0	0.0	0.0	450.0	n/a	ITI
48845	500.0	n/a	-1	-1	500	0.0	fixation	poldrack-single-stim	601	1740284	0.0-25.8-0.8	beast_fmri_test	338	n/a	n/a	<div class = centerbox2><div class = fixation>+</div></div>	none	500.0	test	n/a	n/a	n/a	n/a	n/a	n/a	n/a	n/a	n/a	n/a	n/a	n/a	n/a	n/a	n/a	n/a	n/a	n/a	fixation
48529.264737846563	2750.0	n/a	870	89	2750	317.735262153	stim	stop-signal	602	1743036	0.0-25.8-1.8	beast_fmri_test	338	1740375,/,1741054,/,1741734,/,1742414,/,1743092,/	t,t,t,t,t	<img class = center src='/static/experiments/beast_fmri_test/images/B.png'></img>	71,89	2750.0	test	<img class = center src='/static/experiments/beast_fmri_test/images/redB.png'></img>	go	2350.0	1.0	8.0	go	non-target	B	71,Index Finger	89,Middle Finger	400.0	400.0	2300.0	2350.0	1.0	n/a	400.0	1.0	go_stim
51279.264737846563	317.735262153	n/a	870	89	2750	317.735262153	stim	stop-signal	602	1743036	0.0-25.8-1.8	beast_fmri_test	338	1740375,/,1741054,/,1741734,/,1742414,/,1743092,/	t,t,t,t,t	<img class = center src='/static/experiments/beast_fmri_test/images/B.png'></img>	71,89	2750.0	test	<img class = center src='/static/experiments/beast_fmri_test/images/redB.png'></img>	go	2350.0	1.0	8.0	go	non-target	B	71,Index Finger	89,Middle Finger	400.0	400.0	2300.0	2350.0	1.0	n/a	400.0	1.0	ITI
52480	500.0	n/a	-1	-1	500	0.0	fixation	poldrack-single-stim	603	1743919	0.0-25.9-0.9	beast_fmri_test	338	1743773,/	t	<div class = centerbox2><div class = fixation>+</div></div>	none	500.0	test	n/a	n/a	n/a	n/a	n/a	n/a	n/a	n/a	n/a	n/a	n/a	n/a	n/a	n/a	n/a	n/a	n/a	n/a	fixation
50779.347207152285	2750.0	n/a	380	71	2750	1702.65279285	stim	stop-signal	604	1746671	0.0-25.9-1.9	beast_fmri_test	338	1744452,/,1745132,/,1745812,/,1746491,/,1747170,/,1747852,/	t,t,t,t,t,t	<img class = center src='/static/experiments/beast_fmri_test/images/B.png'></img>	71,89	2750.0	test	<img class = center src='/static/experiments/beast_fmri_test/images/redB.png'></img>	go	2350.0	1.0	9.0	go	target	B	71,Index Finger	89,Middle Finger	400.0	400.0	2350.0	2350.0	1.0	n/a	400.0	1.0	go_stim
53529.347207152285	1702.65279285	n/a	380	71	2750	1702.65279285	stim	stop-signal	604	1746671	0.0-25.9-1.9	beast_fmri_test	338	1744452,/,1745132,/,1745812,/,1746491,/,1747170,/,1747852,/	t,t,t,t,t,t	<img class = center src='/static/experiments/beast_fmri_test/images/B.png'></img>	71,89	2750.0	test	<img class = center src='/static/experiments/beast_fmri_test/images/redB.png'></img>	go	2350.0	1.0	9.0	go	target	B	71,Index Finger	89,Middle Finger	400.0	400.0	2350.0	2350.0	1.0	n/a	400.0	1.0	ITI
57492	500.0	n/a	-1	-1	500	0.0	fixation	poldrack-single-stim	605	1748931	0.0-25.10-0.10	beast_fmri_test	338	1748531,/	t	<div class = centerbox2><div class = fixation>+</div></div>	none	500.0	test	n/a	n/a	n/a	n/a	n/a	n/a	n/a	n/a	n/a	n/a	n/a	n/a	n/a	n/a	n/a	n/a	n/a	n/a	fixation
56088.103130861418	400.0	n/a	455	89	2750	1405.89686914	stim	stop-signal	606	1751683	0.0-25.10-1.10	beast_fmri_test	338	1749210,/,1749890,/,1750569,/,1751249,/,1751928,/,1752609,/	t,t,t,t,t,t	<img class = center src='/static/experiments/beast_fmri_test/images/T.png'></img>	71,89	2750.0	test	<img class = center src='/static/experiments/beast_fmri_test/images/redT.png'></img>	stop	2350.0	1.0	10.0	stop	non-target	T	71,Index Finger	89,Middle Finger	400.0	400.0	2350.0	2350.0	0.0	0.0	400.0	n/a	go_stim
58438.103130861418	2350.0	n/a	455	89	2750	1405.89686914	stim	stop-signal	606	1751683	0.0-25.10-1.10	beast_fmri_test	338	1749210,/,1749890,/,1750569,/,1751249,/,1751928,/,1752609,/	t,t,t,t,t,t	<img class = center src='/static/experiments/beast_fmri_test/images/T.png'></img>	71,89	2750.0	test	<img class = center src='/static/experiments/beast_fmri_test/images/redT.png'></img>	stop	2350.0	1.0	10.0	stop	non-target	T	71,Index Finger	89,Middle Finger	400.0	400.0	2350.0	2350.0	0.0	0.0	400.0	n/a	stop_stim
58838.103130861418	1405.89686914	n/a	455	89	2750	1405.89686914	stim	stop-signal	606	1751683	0.0-25.10-1.10	beast_fmri_test	338	1749210,/,1749890,/,1750569,/,1751249,/,1751928,/,1752609,/	t,t,t,t,t,t	<img class = center src='/static/experiments/beast_fmri_test/images/T.png'></img>	71,89	2750.0	test	<img class = center src='/static/experiments/beast_fmri_test/images/redT.png'></img>	stop	2350.0	1.0	10.0	stop	non-target	T	71,Index Finger	89,Middle Finger	400.0	400.0	2350.0	2350.0	0.0	0.0	400.0	n/a	ITI
62212	500.0	n/a	-1	-1	500	0.0	fixation	poldrack-single-stim	607	1753651	0.0-25.11-0.11	beast_fmri_test	338	1753289,/	t	<div class = centerbox2><div class = fixation>+</div></div>	none	500.0	test	n/a	n/a	n/a	n/a	n/a	n/a	n/a	n/a	n/a	n/a	n/a	n/a	n/a	n/a	n/a	n/a	n/a	n/a	fixation
60843.455890062731	350.0	n/a	-1	-1	2750	1371.54410994	stim	stop-signal	608	1756404	0.0-25.11-1.11	beast_fmri_test	338	1753967,/,1754648,/,1755330,/,1756007,/,1756687,/,1757367,/	t,t,t,t,t,t	<img class = center src='/static/experiments/beast_fmri_test/images/B.png'></img>	71,89	2750.0	test	<img class = center src='/static/experiments/beast_fmri_test/images/redB.png'></img>	stop	2400.0	1.0	11.0	stop	non-target	B	71,Index Finger	89,Middle Finger	400.0	350.0	2350.0	2400.0	0.0	1.0	350.0	n/a	go_stim
63243.455890062731	2400.0	n/a	-1	-1	2750	1371.54410994	stim	stop-signal	608	1756404	0.0-25.11-1.11	beast_fmri_test	338	1753967,/,1754648,/,1755330,/,1756007,/,1756687,/,1757367,/	t,t,t,t,t,t	<img class = center src='/static/experiments/beast_fmri_test/images/B.png'></img>	71,89	2750.0	test	<img class = center src='/static/experiments/beast_fmri_test/images/redB.png'></img>	stop	2400.0	1.0	11.0	stop	non-target	B	71,Index Finger	89,Middle Finger	400.0	350.0	2350.0	2400.0	0.0	1.0	350.0	n/a	stop_stim
63593.455890062731	1371.54410994	n/a	-1	-1	2750	1371.54410994	stim	stop-signal	608	1756404	0.0-25.11-1.11	beast_fmri_test	338	1753967,/,1754648,/,1755330,/,1756007,/,1756687,/,1757367,/	t,t,t,t,t,t	<img class = center src='/static/experiments/beast_fmri_test/images/B.png'></img>	71,89	2750.0	test	<img class = center src='/static/experiments/beast_fmri_test/images/redB.png'></img>	stop	2400.0	1.0	11.0	stop	non-target	B	71,Index Finger	89,Middle Finger	400.0	350.0	2350.0	2400.0	0.0	1.0	350.0	n/a	ITI
66893	500.0	n/a	-1	-1	500	0.0	fixation	poldrack-single-stim	609	1758332	0.0-25.12-0.12	beast_fmri_test	338	1758047,/	t	<div class = centerbox2><div class = fixation>+</div></div>	none	500.0	test	n/a	n/a	n/a	n/a	n/a	n/a	n/a	n/a	n/a	n/a	n/a	n/a	n/a	n/a	n/a	n/a	n/a	n/a	fixation
66318.90436942596	2750.0	n/a	717	71	2750	575.095630574	stim	stop-signal	610	1761083	0.0-25.12-1.12	beast_fmri_test	338	1758726,/,1759405,/,1760085,/,1760766,/,1761444,/	t,t,t,t,t	<img class = center src='/static/experiments/beast_fmri_test/images/B.png'></img>	71,89	2750.0	test	<img class = center src='/static/experiments/beast_fmri_test/images/redB.png'></img>	go	2350.0	1.0	12.0	go	target	B	71,Index Finger	89,Middle Finger	400.0	400.0	2350.0	2400.0	1.0	n/a	400.0	1.0	go_stim
69068.90436942596	575.095630574	n/a	717	71	2750	575.095630574	stim	stop-signal	610	1761083	0.0-25.12-1.12	beast_fmri_test	338	1758726,/,1759405,/,1760085,/,1760766,/,1761444,/	t,t,t,t,t	<img class = center src='/static/experiments/beast_fmri_test/images/B.png'></img>	71,89	2750.0	test	<img class = center src='/static/experiments/beast_fmri_test/images/redB.png'></img>	go	2350.0	1.0	12.0	go	target	B	71,Index Finger	89,Middle Finger	400.0	400.0	2350.0	2400.0	1.0	n/a	400.0	1.0	ITI
70786	500.0	n/a	-1	-1	500	0.0	fixation	poldrack-single-stim	611	1762225	0.0-25.13-0.13	beast_fmri_test	338	1762124,/	t	<div class = centerbox2><div class = fixation>+</div></div>	none	500.0	test	n/a	n/a	n/a	n/a	n/a	n/a	n/a	n/a	n/a	n/a	n/a	n/a	n/a	n/a	n/a	n/a	n/a	n/a	fixation
70630.188727476168	2750.0	n/a	823	89	2750	158.811272524	stim	stop-signal	612	1764978	0.0-25.13-1.13	beast_fmri_test	338	1762805,/,1763484,/,1764163,/,1764843,/	t,t,t,t	<img class = center src='/static/experiments/beast_fmri_test/images/V.png'></img>	71,89	2750.0	test	<img class = center src='/static/experiments/beast_fmri_test/images/redV.png'></img>	go	2350.0	1.0	13.0	go	non-target	V	71,Index Finger	89,Middle Finger	400.0	400.0	2350.0	2350.0	1.0	n/a	400.0	1.0	go_stim
73380.188727476168	158.811272524	n/a	823	89	2750	158.811272524	stim	stop-signal	612	1764978	0.0-25.13-1.13	beast_fmri_test	338	1762805,/,1763484,/,1764163,/,1764843,/	t,t,t,t	<img class = center src='/static/experiments/beast_fmri_test/images/V.png'></img>	71,89	2750.0	test	<img class = center src='/static/experiments/beast_fmri_test/images/redV.png'></img>	go	2350.0	1.0	13.0	go	non-target	V	71,Index Finger	89,Middle Finger	400.0	400.0	2350.0	2350.0	1.0	n/a	400.0	1.0	ITI
74267	500.0	n/a	-1	-1	500	0.0	fixation	poldrack-single-stim	613	1765706	0.0-25.14-0.14	beast_fmri_test	338	1765524,/	t	<div class = centerbox2><div class = fixation>+</div></div>	none	500.0	test	n/a	n/a	n/a	n/a	n/a	n/a	n/a	n/a	n/a	n/a	n/a	n/a	n/a	n/a	n/a	n/a	n/a	n/a	fixation
73352.002528547775	400.0	n/a	-1	-1	2750	916.997471452	stim	stop-signal	614	1768458	0.0-25.14-1.14	beast_fmri_test	338	1766202,/,1766882,/,1767562,/,1768241,/,1768921,/	t,t,t,t,t	<img class = center src='/static/experiments/beast_fmri_test/images/V.png'></img>	71,89	2750.0	test	<img class = center src='/static/experiments/beast_fmri_test/images/redV.png'></img>	stop	2350.0	1.0	14.0	stop	target	V	71,Index Finger	89,Middle Finger	400.0	400.0	2350.0	2350.0	0.0	1.0	400.0	n/a	go_stim
75702.002528547775	2350.0	n/a	-1	-1	2750	916.997471452	stim	stop-signal	614	1768458	0.0-25.14-1.14	beast_fmri_test	338	1766202,/,1766882,/,1767562,/,1768241,/,1768921,/	t,t,t,t,t	<img class = center src='/static/experiments/beast_fmri_test/images/V.png'></img>	71,89	2750.0	test	<img class = center src='/static/experiments/beast_fmri_test/images/redV.png'></img>	stop	2350.0	1.0	14.0	stop	target	V	71,Index Finger	89,Middle Finger	400.0	400.0	2350.0	2350.0	0.0	1.0	400.0	n/a	stop_stim
76102.002528547775	916.997471452	n/a	-1	-1	2750	916.997471452	stim	stop-signal	614	1768458	0.0-25.14-1.14	beast_fmri_test	338	1766202,/,1766882,/,1767562,/,1768241,/,1768921,/	t,t,t,t,t	<img class = center src='/static/experiments/beast_fmri_test/images/V.png'></img>	71,89	2750.0	test	<img class = center src='/static/experiments/beast_fmri_test/images/redV.png'></img>	stop	2350.0	1.0	14.0	stop	target	V	71,Index Finger	89,Middle Finger	400.0	400.0	2350.0	2350.0	0.0	1.0	400.0	n/a	ITI
78501	500.0	n/a	-1	-1	500	0.0	fixation	poldrack-single-stim	615	1769940	0.0-25.15-0.15	beast_fmri_test	338	1769601,/	t	<div class = centerbox2><div class = fixation>+</div></div>	none	500.0	test	n/a	n/a	n/a	n/a	n/a	n/a	n/a	n/a	n/a	n/a	n/a	n/a	n/a	n/a	n/a	n/a	n/a	n/a	fixation
77396.336374430219	2750.0	n/a	599	89	2750	1106.66362557	stim	stop-signal	616	1772692	0.0-25.15-1.15	beast_fmri_test	338	1770280,/,1770960,/,1771643,/,1772321,/,1772999,/,1773678,/	t,t,t,t,t,t	<img class = center src='/static/experiments/beast_fmri_test/images/B.png'></img>	71,89	2750.0	test	<img class = center src='/static/experiments/beast_fmri_test/images/redB.png'></img>	go	2350.0	1.0	15.0	go	non-target	B	71,Index Finger	89,Middle Finger	450.0	400.0	2350.0	2350.0	1.0	n/a	400.0	1.0	go_stim
80146.336374430219	1106.66362557	n/a	599	89	2750	1106.66362557	stim	stop-signal	616	1772692	0.0-25.15-1.15	beast_fmri_test	338	1770280,/,1770960,/,1771643,/,1772321,/,1772999,/,1773678,/	t,t,t,t,t,t	<img class = center src='/static/experiments/beast_fmri_test/images/B.png'></img>	71,89	2750.0	test	<img class = center src='/static/experiments/beast_fmri_test/images/redB.png'></img>	go	2350.0	1.0	15.0	go	non-target	B	71,Index Finger	89,Middle Finger	450.0	400.0	2350.0	2350.0	1.0	n/a	400.0	1.0	ITI
82930	500.0	n/a	-1	-1	500	0.0	fixation	poldrack-single-stim	617	1774369	0.0-25.16-0.16	beast_fmri_test	338	1774358,/	t	<div class = centerbox2><div class = fixation>+</div></div>	none	500.0	test	n/a	n/a	n/a	n/a	n/a	n/a	n/a	n/a	n/a	n/a	n/a	n/a	n/a	n/a	n/a	n/a	n/a	n/a	fixation
82486.646231752122	2750.0	n/a	626	89	2750	444.353768248	stim	stop-signal	618	1777120	0.0-25.16-1.16	beast_fmri_test	338	1775038,/,1775718,/,1776397,/,1777076,/	t,t,t,t	<img class = center src='/static/experiments/beast_fmri_test/images/T.png'></img>	71,89	2750.0	test	<img class = center src='/static/experiments/beast_fmri_test/images/redT.png'></img>	go	2350.0	1.0	16.0	go	non-target	T	71,Index Finger	89,Middle Finger	450.0	400.0	2350.0	2350.0	1.0	n/a	400.0	1.0	go_stim
85236.646231752122	444.353768248	n/a	626	89	2750	444.353768248	stim	stop-signal	618	1777120	0.0-25.16-1.16	beast_fmri_test	338	1775038,/,1775718,/,1776397,/,1777076,/	t,t,t,t	<img class = center src='/static/experiments/beast_fmri_test/images/T.png'></img>	71,89	2750.0	test	<img class = center src='/static/experiments/beast_fmri_test/images/redT.png'></img>	go	2350.0	1.0	16.0	go	non-target	T	71,Index Finger	89,Middle Finger	450.0	400.0	2350.0	2350.0	1.0	n/a	400.0	1.0	ITI
86698	500.0	n/a	-1	-1	500	0.0	fixation	poldrack-single-stim	619	1778137	0.0-25.17-0.17	beast_fmri_test	338	1777758,/	t	<div class = centerbox2><div class = fixation>+</div></div>	none	500.0	test	n/a	n/a	n/a	n/a	n/a	n/a	n/a	n/a	n/a	n/a	n/a	n/a	n/a	n/a	n/a	n/a	n/a	n/a	fixation
85634.250000517583	2750.0	n/a	838	89	2750	1064.74999948	stim	stop-signal	620	1780888	0.0-25.17-1.17	beast_fmri_test	338	1778437,/,1779116,/,1779797,/,1780475,/,1781155,/,1781835,/	t,t,t,t,t,t	<img class = center src='/static/experiments/beast_fmri_test/images/D.png'></img>	71,89	2750.0	test	<img class = center src='/static/experiments/beast_fmri_test/images/redD.png'></img>	go	2350.0	1.0	17.0	go	non-target	D	71,Index Finger	89,Middle Finger	450.0	400.0	2350.0	2350.0	1.0	n/a	400.0	1.0	go_stim
88384.250000517583	1064.74999948	n/a	838	89	2750	1064.74999948	stim	stop-signal	620	1780888	0.0-25.17-1.17	beast_fmri_test	338	1778437,/,1779116,/,1779797,/,1780475,/,1781155,/,1781835,/	t,t,t,t,t,t	<img class = center src='/static/experiments/beast_fmri_test/images/D.png'></img>	71,89	2750.0	test	<img class = center src='/static/experiments/beast_fmri_test/images/redD.png'></img>	go	2350.0	1.0	17.0	go	non-target	D	71,Index Finger	89,Middle Finger	450.0	400.0	2350.0	2350.0	1.0	n/a	400.0	1.0	ITI
91086	500.0	n/a	-1	-1	500	0.0	fixation	poldrack-single-stim	621	1782525	0.0-25.18-0.18	beast_fmri_test	338	1782515,/	t	<div class = centerbox2><div class = fixation>+</div></div>	none	500.0	test	n/a	n/a	n/a	n/a	n/a	n/a	n/a	n/a	n/a	n/a	n/a	n/a	n/a	n/a	n/a	n/a	n/a	n/a	fixation
90553.791292734677	400.0	n/a	-1	-1	2750	534.208707265	stim	stop-signal	622	1785277	0.0-25.18-1.18	beast_fmri_test	338	1783194,/,1783875,/,1784554,/,1785235,/	t,t,t,t	<img class = center src='/static/experiments/beast_fmri_test/images/B.png'></img>	71,89	2750.0	test	<img class = center src='/static/experiments/beast_fmri_test/images/redB.png'></img>	stop	2350.0	1.0	18.0	stop	non-target	B	71,Index Finger	89,Middle Finger	450.0	400.0	2350.0	2350.0	0.0	1.0	400.0	n/a	go_stim
92903.791292734677	2350.0	n/a	-1	-1	2750	534.208707265	stim	stop-signal	622	1785277	0.0-25.18-1.18	beast_fmri_test	338	1783194,/,1783875,/,1784554,/,1785235,/	t,t,t,t	<img class = center src='/static/experiments/beast_fmri_test/images/B.png'></img>	71,89	2750.0	test	<img class = center src='/static/experiments/beast_fmri_test/images/redB.png'></img>	stop	2350.0	1.0	18.0	stop	non-target	B	71,Index Finger	89,Middle Finger	450.0	400.0	2350.0	2350.0	0.0	1.0	400.0	n/a	stop_stim
93303.791292734677	534.208707265	n/a	-1	-1	2750	534.208707265	stim	stop-signal	622	1785277	0.0-25.18-1.18	beast_fmri_test	338	1783194,/,1783875,/,1784554,/,1785235,/	t,t,t,t	<img class = center src='/static/experiments/beast_fmri_test/images/B.png'></img>	71,89	2750.0	test	<img class = center src='/static/experiments/beast_fmri_test/images/redB.png'></img>	stop	2350.0	1.0	18.0	stop	non-target	B	71,Index Finger	89,Middle Finger	450.0	400.0	2350.0	2350.0	0.0	1.0	400.0	n/a	ITI
94943	500.0	n/a	-1	-1	500	0.0	fixation	poldrack-single-stim	623	1786382	0.0-25.19-0.19	beast_fmri_test	338	1785914,/	t	<div class = centerbox2><div class = fixation>+</div></div>	none	500.0	test	n/a	n/a	n/a	n/a	n/a	n/a	n/a	n/a	n/a	n/a	n/a	n/a	n/a	n/a	n/a	n/a	n/a	n/a	fixation
94486.242897704244	2750.0	n/a	683	89	2750	457.757102296	stim	stop-signal	624	1789133	0.0-25.19-1.19	beast_fmri_test	338	1786594,/,1787272,/,1787953,/,1788632,/,1789314,/	t,t,t,t,t	<img class = center src='/static/experiments/beast_fmri_test/images/T.png'></img>	71,89	2750.0	test	<img class = center src='/static/experiments/beast_fmri_test/images/redT.png'></img>	go	2300.0	1.0	19.0	go	non-target	T	71,Index Finger	89,Middle Finger	450.0	450.0	2350.0	2300.0	1.0	n/a	450.0	1.0	go_stim
97236.242897704244	457.757102296	n/a	683	89	2750	457.757102296	stim	stop-signal	624	1789133	0.0-25.19-1.19	beast_fmri_test	338	1786594,/,1787272,/,1787953,/,1788632,/,1789314,/	t,t,t,t,t	<img class = center src='/static/experiments/beast_fmri_test/images/T.png'></img>	71,89	2750.0	test	<img class = center src='/static/experiments/beast_fmri_test/images/redT.png'></img>	go	2300.0	1.0	19.0	go	non-target	T	71,Index Finger	89,Middle Finger	450.0	450.0	2350.0	2300.0	1.0	n/a	450.0	1.0	ITI
98727	500.0	n/a	-1	-1	500	0.0	fixation	poldrack-single-stim	625	1790166	0.0-25.20-0.20	beast_fmri_test	338	1789992,/	t	<div class = centerbox2><div class = fixation>+</div></div>	none	500.0	test	n/a	n/a	n/a	n/a	n/a	n/a	n/a	n/a	n/a	n/a	n/a	n/a	n/a	n/a	n/a	n/a	n/a	n/a	fixation
97838.909170284634	450.0	n/a	607	71	2750	889.090829715	stim	stop-signal	626	1792917	0.0-25.20-1.20	beast_fmri_test	338	1790671,/,1791352,/,1792031,/,1792710,/,1793391,/	t,t,t,t,t	<img class = center src='/static/experiments/beast_fmri_test/images/T.png'></img>	71,89	2750.0	test	<img class = center src='/static/experiments/beast_fmri_test/images/redT.png'></img>	stop	2300.0	1.0	20.0	stop	target	T	71,Index Finger	89,Middle Finger	450.0	450.0	2300.0	2300.0	0.0	0.0	450.0	n/a	go_stim
100138.90917028463	2300.0	n/a	607	71	2750	889.090829715	stim	stop-signal	626	1792917	0.0-25.20-1.20	beast_fmri_test	338	1790671,/,1791352,/,1792031,/,1792710,/,1793391,/	t,t,t,t,t	<img class = center src='/static/experiments/beast_fmri_test/images/T.png'></img>	71,89	2750.0	test	<img class = center src='/static/experiments/beast_fmri_test/images/redT.png'></img>	stop	2300.0	1.0	20.0	stop	target	T	71,Index Finger	89,Middle Finger	450.0	450.0	2300.0	2300.0	0.0	0.0	450.0	n/a	stop_stim
100588.90917028463	889.090829715	n/a	607	71	2750	889.090829715	stim	stop-signal	626	1792917	0.0-25.20-1.20	beast_fmri_test	338	1790671,/,1791352,/,1792031,/,1792710,/,1793391,/	t,t,t,t,t	<img class = center src='/static/experiments/beast_fmri_test/images/T.png'></img>	71,89	2750.0	test	<img class = center src='/static/experiments/beast_fmri_test/images/redT.png'></img>	stop	2300.0	1.0	20.0	stop	target	T	71,Index Finger	89,Middle Finger	450.0	450.0	2300.0	2300.0	0.0	0.0	450.0	n/a	ITI
102944	500.0	n/a	-1	-1	500	0.0	fixation	poldrack-single-stim	627	1794383	0.0-25.21-0.21	beast_fmri_test	338	1794069,/	t	<div class = centerbox2><div class = fixation>+</div></div>	none	500.0	test	n/a	n/a	n/a	n/a	n/a	n/a	n/a	n/a	n/a	n/a	n/a	n/a	n/a	n/a	n/a	n/a	n/a	n/a	fixation
102561.94097710564	450.0	n/a	-1	-1	2750	383.059022894	stim	stop-signal	628	1797134	0.0-25.21-1.21	beast_fmri_test	338	1794749,/,1795430,/,1796109,/,1796788,/,1797467,/	t,t,t,t,t	<img class = center src='/static/experiments/beast_fmri_test/images/B.png'></img>	71,89	2750.0	test	<img class = center src='/static/experiments/beast_fmri_test/images/redB.png'></img>	stop	2300.0	1.0	21.0	stop	non-target	B	71,Index Finger	89,Middle Finger	400.0	450.0	2300.0	2300.0	0.0	1.0	450.0	n/a	go_stim
104861.94097710564	2300.0	n/a	-1	-1	2750	383.059022894	stim	stop-signal	628	1797134	0.0-25.21-1.21	beast_fmri_test	338	1794749,/,1795430,/,1796109,/,1796788,/,1797467,/	t,t,t,t,t	<img class = center src='/static/experiments/beast_fmri_test/images/B.png'></img>	71,89	2750.0	test	<img class = center src='/static/experiments/beast_fmri_test/images/redB.png'></img>	stop	2300.0	1.0	21.0	stop	non-target	B	71,Index Finger	89,Middle Finger	400.0	450.0	2300.0	2300.0	0.0	1.0	450.0	n/a	stop_stim
105311.94097710564	383.059022894	n/a	-1	-1	2750	383.059022894	stim	stop-signal	628	1797134	0.0-25.21-1.21	beast_fmri_test	338	1794749,/,1795430,/,1796109,/,1796788,/,1797467,/	t,t,t,t,t	<img class = center src='/static/experiments/beast_fmri_test/images/B.png'></img>	71,89	2750.0	test	<img class = center src='/static/experiments/beast_fmri_test/images/redB.png'></img>	stop	2300.0	1.0	21.0	stop	non-target	B	71,Index Finger	89,Middle Finger	400.0	450.0	2300.0	2300.0	0.0	1.0	450.0	n/a	ITI
106651	500.0	n/a	-1	-1	500	0.0	fixation	poldrack-single-stim	629	1798090	0.0-25.22-0.22	beast_fmri_test	338	n/a	n/a	<div class = centerbox2><div class = fixation>+</div></div>	none	500.0	test	n/a	n/a	n/a	n/a	n/a	n/a	n/a	n/a	n/a	n/a	n/a	n/a	n/a	n/a	n/a	n/a	n/a	n/a	fixation
105449.80762979109	500.0	n/a	696	89	2750	1203.19237021	stim	stop-signal	630	1800842	0.0-25.22-1.22	beast_fmri_test	338	1798146,/,1798828,/,1799507,/,1800186,/,1800866,/,1801546,/	t,t,t,t,t,t	<img class = center src='/static/experiments/beast_fmri_test/images/V.png'></img>	71,89	2750.0	test	<img class = center src='/static/experiments/beast_fmri_test/images/redV.png'></img>	stop	2250.0	1.0	22.0	stop	non-target	V	71,Index Finger	89,Middle Finger	400.0	500.0	2300.0	2250.0	0.0	0.0	500.0	n/a	go_stim
107699.80762979109	2250.0	n/a	696	89	2750	1203.19237021	stim	stop-signal	630	1800842	0.0-25.22-1.22	beast_fmri_test	338	1798146,/,1798828,/,1799507,/,1800186,/,1800866,/,1801546,/	t,t,t,t,t,t	<img class = center src='/static/experiments/beast_fmri_test/images/V.png'></img>	71,89	2750.0	test	<img class = center src='/static/experiments/beast_fmri_test/images/redV.png'></img>	stop	2250.0	1.0	22.0	stop	non-target	V	71,Index Finger	89,Middle Finger	400.0	500.0	2300.0	2250.0	0.0	0.0	500.0	n/a	stop_stim
108199.80762979109	1203.19237021	n/a	696	89	2750	1203.19237021	stim	stop-signal	630	1800842	0.0-25.22-1.22	beast_fmri_test	338	1798146,/,1798828,/,1799507,/,1800186,/,1800866,/,1801546,/	t,t,t,t,t,t	<img class = center src='/static/experiments/beast_fmri_test/images/V.png'></img>	71,89	2750.0	test	<img class = center src='/static/experiments/beast_fmri_test/images/redV.png'></img>	stop	2250.0	1.0	22.0	stop	non-target	V	71,Index Finger	89,Middle Finger	400.0	500.0	2300.0	2250.0	0.0	0.0	500.0	n/a	ITI
111173	500.0	n/a	-1	-1	500	0.0	fixation	poldrack-single-stim	631	1802612	0.0-25.23-0.23	beast_fmri_test	338	1802226,/	t	<div class = centerbox2><div class = fixation>+</div></div>	none	500.0	test	n/a	n/a	n/a	n/a	n/a	n/a	n/a	n/a	n/a	n/a	n/a	n/a	n/a	n/a	n/a	n/a	n/a	n/a	fixation
109988.56871885108	2750.0	n/a	855	71	2750	1186.43128115	stim	stop-signal	632	1805364	0.0-25.23-1.23	beast_fmri_test	338	1802905,/,1803586,/,1804264,/,1804945,/,1805625,/,1806304,/	t,t,t,t,t,t	<img class = center src='/static/experiments/beast_fmri_test/images/V.png'></img>	71,89	2750.0	test	<img class = center src='/static/experiments/beast_fmri_test/images/redV.png'></img>	go	2350.0	1.0	23.0	go	target	V	71,Index Finger	89,Middle Finger	400.0	450.0	2350.0	2250.0	1.0	n/a	400.0	1.0	go_stim
112738.56871885108	1186.43128115	n/a	855	71	2750	1186.43128115	stim	stop-signal	632	1805364	0.0-25.23-1.23	beast_fmri_test	338	1802905,/,1803586,/,1804264,/,1804945,/,1805625,/,1806304,/	t,t,t,t,t,t	<img class = center src='/static/experiments/beast_fmri_test/images/V.png'></img>	71,89	2750.0	test	<img class = center src='/static/experiments/beast_fmri_test/images/redV.png'></img>	go	2350.0	1.0	23.0	go	target	V	71,Index Finger	89,Middle Finger	400.0	450.0	2350.0	2250.0	1.0	n/a	400.0	1.0	ITI
115681	500.0	n/a	-1	-1	500	0.0	fixation	poldrack-single-stim	633	1807120	0.0-25.24-0.24	beast_fmri_test	338	1806984,/	t	<div class = centerbox2><div class = fixation>+</div></div>	none	500.0	test	n/a	n/a	n/a	n/a	n/a	n/a	n/a	n/a	n/a	n/a	n/a	n/a	n/a	n/a	n/a	n/a	n/a	n/a	fixation
115176.95262106345	2750.0	n/a	460	71	2750	506.047378937	stim	stop-signal	634	1809872	0.0-25.24-1.24	beast_fmri_test	338	1807662,/,1808343,/,1809022,/,1809703,/	t,t,t,t	<img class = center src='/static/experiments/beast_fmri_test/images/V.png'></img>	71,89	2750.0	test	<img class = center src='/static/experiments/beast_fmri_test/images/redV.png'></img>	go	2350.0	1.0	24.0	go	target	V	71,Index Finger	89,Middle Finger	400.0	450.0	2350.0	2250.0	1.0	n/a	400.0	1.0	go_stim
117926.95262106345	506.047378937	n/a	460	71	2750	506.047378937	stim	stop-signal	634	1809872	0.0-25.24-1.24	beast_fmri_test	338	1807662,/,1808343,/,1809022,/,1809703,/	t,t,t,t	<img class = center src='/static/experiments/beast_fmri_test/images/V.png'></img>	71,89	2750.0	test	<img class = center src='/static/experiments/beast_fmri_test/images/redV.png'></img>	go	2350.0	1.0	24.0	go	target	V	71,Index Finger	89,Middle Finger	400.0	450.0	2350.0	2250.0	1.0	n/a	400.0	1.0	ITI
119504	500.0	n/a	-1	-1	500	0.0	fixation	poldrack-single-stim	635	1810943	0.0-25.25-0.25	beast_fmri_test	338	1810442,/	t	<div class = centerbox2><div class = fixation>+</div></div>	none	500.0	test	n/a	n/a	n/a	n/a	n/a	n/a	n/a	n/a	n/a	n/a	n/a	n/a	n/a	n/a	n/a	n/a	n/a	n/a	fixation
118252.77633255231	2750.0	n/a	543	89	2750	1254.22366745	stim	stop-signal	636	1813696	0.0-25.25-1.25	beast_fmri_test	338	1811061,/,1811742,/,1812440,/,1813101,/,1813780,/,1814461,/	t,t,t,t,t,t	<img class = center src='/static/experiments/beast_fmri_test/images/P.png'></img>	71,89	2750.0	test	<img class = center src='/static/experiments/beast_fmri_test/images/redP.png'></img>	go	2300.0	1.0	25.0	go	non-target	P	71,Index Finger	89,Middle Finger	400.0	450.0	2350.0	2300.0	1.0	n/a	450.0	1.0	go_stim
121002.77633255231	1254.22366745	n/a	543	89	2750	1254.22366745	stim	stop-signal	636	1813696	0.0-25.25-1.25	beast_fmri_test	338	1811061,/,1811742,/,1812440,/,1813101,/,1813780,/,1814461,/	t,t,t,t,t,t	<img class = center src='/static/experiments/beast_fmri_test/images/P.png'></img>	71,89	2750.0	test	<img class = center src='/static/experiments/beast_fmri_test/images/redP.png'></img>	go	2300.0	1.0	25.0	go	non-target	P	71,Index Finger	89,Middle Finger	400.0	450.0	2350.0	2300.0	1.0	n/a	450.0	1.0	ITI
124077	500.0	n/a	-1	-1	500	0.0	fixation	poldrack-single-stim	637	1815516	0.0-25.26-0.26	beast_fmri_test	338	1815140,/	t	<div class = centerbox2><div class = fixation>+</div></div>	none	500.0	test	n/a	n/a	n/a	n/a	n/a	n/a	n/a	n/a	n/a	n/a	n/a	n/a	n/a	n/a	n/a	n/a	n/a	n/a	fixation
123688.48453020165	450.0	n/a	-1	-1	2750	390.515469798	stim	stop-signal	638	1818268	0.0-25.26-1.26	beast_fmri_test	338	1815820,/,1816500,/,1817180,/,1817859,/,1818539,/	t,t,t,t,t	<img class = center src='/static/experiments/beast_fmri_test/images/T.png'></img>	71,89	2750.0	test	<img class = center src='/static/experiments/beast_fmri_test/images/redT.png'></img>	stop	2300.0	1.0	26.0	stop	non-target	T	71,Index Finger	89,Middle Finger	400.0	450.0	2350.0	2300.0	0.0	1.0	450.0	n/a	go_stim
125988.48453020165	2300.0	n/a	-1	-1	2750	390.515469798	stim	stop-signal	638	1818268	0.0-25.26-1.26	beast_fmri_test	338	1815820,/,1816500,/,1817180,/,1817859,/,1818539,/	t,t,t,t,t	<img class = center src='/static/experiments/beast_fmri_test/images/T.png'></img>	71,89	2750.0	test	<img class = center src='/static/experiments/beast_fmri_test/images/redT.png'></img>	stop	2300.0	1.0	26.0	stop	non-target	T	71,Index Finger	89,Middle Finger	400.0	450.0	2350.0	2300.0	0.0	1.0	450.0	n/a	stop_stim
126438.48453020165	390.515469798	n/a	-1	-1	2750	390.515469798	stim	stop-signal	638	1818268	0.0-25.26-1.26	beast_fmri_test	338	1815820,/,1816500,/,1817180,/,1817859,/,1818539,/	t,t,t,t,t	<img class = center src='/static/experiments/beast_fmri_test/images/T.png'></img>	71,89	2750.0	test	<img class = center src='/static/experiments/beast_fmri_test/images/redT.png'></img>	stop	2300.0	1.0	26.0	stop	non-target	T	71,Index Finger	89,Middle Finger	400.0	450.0	2350.0	2300.0	0.0	1.0	450.0	n/a	ITI
127781	500.0	n/a	-1	-1	500	0.0	fixation	poldrack-single-stim	639	1819220	0.0-25.27-0.27	beast_fmri_test	338	1819219,/	t	<div class = centerbox2><div class = fixation>+</div></div>	none	500.0	test	n/a	n/a	n/a	n/a	n/a	n/a	n/a	n/a	n/a	n/a	n/a	n/a	n/a	n/a	n/a	n/a	n/a	n/a	fixation
125936.03354515904	2750.0	n/a	969	89	2750	1845.96645484	stim	stop-signal	640	1821971	0.0-25.27-1.27	beast_fmri_test	338	1819897,/,1820577,/,1821257,/,1821937,/,1822618,/,1823296,/	t,t,t,t,t,t	<img class = center src='/static/experiments/beast_fmri_test/images/B.png'></img>	71,89	2750.0	test	<img class = center src='/static/experiments/beast_fmri_test/images/redB.png'></img>	go	2250.0	1.0	27.0	go	non-target	B	71,Index Finger	89,Middle Finger	400.0	500.0	2350.0	2250.0	1.0	n/a	500.0	1.0	go_stim
128686.03354515904	1845.96645484	n/a	969	89	2750	1845.96645484	stim	stop-signal	640	1821971	0.0-25.27-1.27	beast_fmri_test	338	1819897,/,1820577,/,1821257,/,1821937,/,1822618,/,1823296,/	t,t,t,t,t,t	<img class = center src='/static/experiments/beast_fmri_test/images/B.png'></img>	71,89	2750.0	test	<img class = center src='/static/experiments/beast_fmri_test/images/redB.png'></img>	go	2250.0	1.0	27.0	go	non-target	B	71,Index Finger	89,Middle Finger	400.0	500.0	2350.0	2250.0	1.0	n/a	500.0	1.0	ITI
132936	500.0	n/a	-1	-1	500	0.0	fixation	poldrack-single-stim	641	1824375	0.0-25.28-0.28	beast_fmri_test	338	1823976,/	t	<div class = centerbox2><div class = fixation>+</div></div>	none	500.0	test	n/a	n/a	n/a	n/a	n/a	n/a	n/a	n/a	n/a	n/a	n/a	n/a	n/a	n/a	n/a	n/a	n/a	n/a	fixation
132083.40179261263	2750.0	n/a	687	89	2750	854.598207387	stim	stop-signal	642	1827127	0.0-25.28-1.28	beast_fmri_test	338	1824655,/,1825334,/,1826014,/,1826694,/,1827374,/	t,t,t,t,t	<img class = center src='/static/experiments/beast_fmri_test/images/D.png'></img>	71,89	2750.0	test	<img class = center src='/static/experiments/beast_fmri_test/images/redD.png'></img>	go	2250.0	1.0	28.0	go	non-target	D	71,Index Finger	89,Middle Finger	400.0	500.0	2350.0	2250.0	1.0	n/a	500.0	1.0	go_stim
134833.40179261263	854.598207387	n/a	687	89	2750	854.598207387	stim	stop-signal	642	1827127	0.0-25.28-1.28	beast_fmri_test	338	1824655,/,1825334,/,1826014,/,1826694,/,1827374,/	t,t,t,t,t	<img class = center src='/static/experiments/beast_fmri_test/images/D.png'></img>	71,89	2750.0	test	<img class = center src='/static/experiments/beast_fmri_test/images/redD.png'></img>	go	2250.0	1.0	28.0	go	non-target	D	71,Index Finger	89,Middle Finger	400.0	500.0	2350.0	2250.0	1.0	n/a	500.0	1.0	ITI
137106	500.0	n/a	-1	-1	500	0.0	fixation	poldrack-single-stim	643	1828545	0.0-25.29-0.29	beast_fmri_test	338	1828053,/	t	<div class = centerbox2><div class = fixation>+</div></div>	none	500.0	test	n/a	n/a	n/a	n/a	n/a	n/a	n/a	n/a	n/a	n/a	n/a	n/a	n/a	n/a	n/a	n/a	n/a	n/a	fixation
137049.19048771309	2750.0	n/a	880	71	2750	57.809512287	stim	stop-signal	644	1831296	0.0-25.29-1.29	beast_fmri_test	338	1828734,/,1829413,/,1830092,/,1830772,/	t,t,t,t	<img class = center src='/static/experiments/beast_fmri_test/images/D.png'></img>	71,89	2750.0	test	<img class = center src='/static/experiments/beast_fmri_test/images/redD.png'></img>	go	2350.0	1.0	29.0	go	target	D	71,Index Finger	89,Middle Finger	400.0	500.0	2350.0	2250.0	1.0	n/a	400.0	1.0	go_stim
139799.19048771309	57.809512287	n/a	880	71	2750	57.809512287	stim	stop-signal	644	1831296	0.0-25.29-1.29	beast_fmri_test	338	1828734,/,1829413,/,1830092,/,1830772,/	t,t,t,t	<img class = center src='/static/experiments/beast_fmri_test/images/D.png'></img>	71,89	2750.0	test	<img class = center src='/static/experiments/beast_fmri_test/images/redD.png'></img>	go	2350.0	1.0	29.0	go	target	D	71,Index Finger	89,Middle Finger	400.0	500.0	2350.0	2250.0	1.0	n/a	400.0	1.0	ITI
140484	500.0	n/a	-1	-1	500	0.0	fixation	poldrack-single-stim	645	1831923	0.0-25.30-0.30	beast_fmri_test	338	1831451,/	t	<div class = centerbox2><div class = fixation>+</div></div>	none	500.0	test	n/a	n/a	n/a	n/a	n/a	n/a	n/a	n/a	n/a	n/a	n/a	n/a	n/a	n/a	n/a	n/a	n/a	n/a	fixation
139192.42315910757	2750.0	n/a	704	89	2750	1294.57684089	stim	stop-signal	646	1834676	0.0-25.30-1.30	beast_fmri_test	338	1832132,/,1832811,/,1833491,/,1834171,/,1834850,/,1835530,/	t,t,t,t,t,t	<img class = center src='/static/experiments/beast_fmri_test/images/T.png'></img>	71,89	2750.0	test	<img class = center src='/static/experiments/beast_fmri_test/images/redT.png'></img>	go	2250.0	1.0	30.0	go	non-target	T	71,Index Finger	89,Middle Finger	400.0	500.0	2350.0	2250.0	1.0	n/a	500.0	1.0	go_stim
141942.42315910757	1294.57684089	n/a	704	89	2750	1294.57684089	stim	stop-signal	646	1834676	0.0-25.30-1.30	beast_fmri_test	338	1832132,/,1832811,/,1833491,/,1834171,/,1834850,/,1835530,/	t,t,t,t,t,t	<img class = center src='/static/experiments/beast_fmri_test/images/T.png'></img>	71,89	2750.0	test	<img class = center src='/static/experiments/beast_fmri_test/images/redT.png'></img>	go	2250.0	1.0	30.0	go	non-target	T	71,Index Finger	89,Middle Finger	400.0	500.0	2350.0	2250.0	1.0	n/a	500.0	1.0	ITI
145105	500.0	n/a	-1	-1	500	0.0	fixation	poldrack-single-stim	647	1836544	0.0-25.31-0.31	beast_fmri_test	338	1836210,/	t	<div class = centerbox2><div class = fixation>+</div></div>	none	500.0	test	n/a	n/a	n/a	n/a	n/a	n/a	n/a	n/a	n/a	n/a	n/a	n/a	n/a	n/a	n/a	n/a	n/a	n/a	fixation
145054.23847941495	2750.0	n/a	797	71	2750	51.7615205851	stim	stop-signal	648	1839295	0.0-25.31-1.31	beast_fmri_test	338	1836890,/,1837569,/,1838249,/,1838929,/	t,t,t,t	<img class = center src='/static/experiments/beast_fmri_test/images/D.png'></img>	71,89	2750.0	test	<img class = center src='/static/experiments/beast_fmri_test/images/redD.png'></img>	go	2250.0	1.0	31.0	go	non-target	D	71,Index Finger	89,Middle Finger	400.0	500.0	2350.0	2250.0	0.0	n/a	500.0	0.0	go_stim
147804.23847941495	51.7615205851	n/a	797	71	2750	51.7615205851	stim	stop-signal	648	1839295	0.0-25.31-1.31	beast_fmri_test	338	1836890,/,1837569,/,1838249,/,1838929,/	t,t,t,t	<img class = center src='/static/experiments/beast_fmri_test/images/D.png'></img>	71,89	2750.0	test	<img class = center src='/static/experiments/beast_fmri_test/images/redD.png'></img>	go	2250.0	1.0	31.0	go	non-target	D	71,Index Finger	89,Middle Finger	400.0	500.0	2350.0	2250.0	0.0	n/a	500.0	0.0	ITI
148476	500.0	n/a	-1	-1	500	0.0	fixation	poldrack-single-stim	649	1839915	0.0-25.32-0.32	beast_fmri_test	338	1839609,/	t	<div class = centerbox2><div class = fixation>+</div></div>	none	500.0	test	n/a	n/a	n/a	n/a	n/a	n/a	n/a	n/a	n/a	n/a	n/a	n/a	n/a	n/a	n/a	n/a	n/a	n/a	fixation
145505.7560459231	2750.0	n/a	595	89	2750	2972.24395408	stim	stop-signal	650	1842667	0.0-25.32-1.32	beast_fmri_test	338	1840287,/,1840968,/,1841648,/,1842328,/,1843006,/,1843687,/,1844367,/,1845047,/	t,t,t,t,t,t,t,t	<img class = center src='/static/experiments/beast_fmri_test/images/P.png'></img>	71,89	2750.0	test	<img class = center src='/static/experiments/beast_fmri_test/images/redP.png'></img>	go	2250.0	1.0	32.0	go	non-target	P	71,Index Finger	89,Middle Finger	400.0	500.0	2350.0	2250.0	1.0	n/a	500.0	1.0	go_stim
148255.7560459231	2972.24395408	n/a	595	89	2750	2972.24395408	stim	stop-signal	650	1842667	0.0-25.32-1.32	beast_fmri_test	338	1840287,/,1840968,/,1841648,/,1842328,/,1843006,/,1843687,/,1844367,/,1845047,/	t,t,t,t,t,t,t,t	<img class = center src='/static/experiments/beast_fmri_test/images/P.png'></img>	71,89	2750.0	test	<img class = center src='/static/experiments/beast_fmri_test/images/redP.png'></img>	go	2250.0	1.0	32.0	go	non-target	P	71,Index Finger	89,Middle Finger	400.0	500.0	2350.0	2250.0	1.0	n/a	500.0	1.0	ITI
154763	500.0	n/a	-1	-1	500	0.0	fixation	poldrack-single-stim	651	1846202	0.0-25.33-0.33	beast_fmri_test	338	1845726,/	t	<div class = centerbox2><div class = fixation>+</div></div>	none	500.0	test	n/a	n/a	n/a	n/a	n/a	n/a	n/a	n/a	n/a	n/a	n/a	n/a	n/a	n/a	n/a	n/a	n/a	n/a	fixation
154479.62857535016	2750.0	n/a	786	89	2750	286.37142465	stim	stop-signal	652	1848955	0.0-25.33-1.33	beast_fmri_test	338	1846406,/,1847085,/,1847765,/,1848444,/,1849124,/	t,t,t,t,t	<img class = center src='/static/experiments/beast_fmri_test/images/B.png'></img>	71,89	2750.0	test	<img class = center src='/static/experiments/beast_fmri_test/images/redB.png'></img>	go	2250.0	1.0	33.0	go	non-target	B	71,Index Finger	89,Middle Finger	400.0	500.0	2350.0	2250.0	1.0	n/a	500.0	1.0	go_stim
157229.62857535016	286.37142465	n/a	786	89	2750	286.37142465	stim	stop-signal	652	1848955	0.0-25.33-1.33	beast_fmri_test	338	1846406,/,1847085,/,1847765,/,1848444,/,1849124,/	t,t,t,t,t	<img class = center src='/static/experiments/beast_fmri_test/images/B.png'></img>	71,89	2750.0	test	<img class = center src='/static/experiments/beast_fmri_test/images/redB.png'></img>	go	2250.0	1.0	33.0	go	non-target	B	71,Index Finger	89,Middle Finger	400.0	500.0	2350.0	2250.0	1.0	n/a	500.0	1.0	ITI
158375	500.0	n/a	-1	-1	500	0.0	fixation	poldrack-single-stim	653	1849814	0.0-25.34-0.34	beast_fmri_test	338	1849803,/	t	<div class = centerbox2><div class = fixation>+</div></div>	none	500.0	test	n/a	n/a	n/a	n/a	n/a	n/a	n/a	n/a	n/a	n/a	n/a	n/a	n/a	n/a	n/a	n/a	n/a	n/a	fixation
157333.42576005752	2750.0	n/a	561	71	2750	1043.57423994	stim	stop-signal	654	1852566	0.0-25.34-1.34	beast_fmri_test	338	1850484,/,1851164,/,1851842,/,1852524,/,1853202,/	t,t,t,t,t	<img class = center src='/static/experiments/beast_fmri_test/images/B.png'></img>	71,89	2750.0	test	<img class = center src='/static/experiments/beast_fmri_test/images/redB.png'></img>	go	2350.0	1.0	34.0	go	target	B	71,Index Finger	89,Middle Finger	400.0	500.0	2350.0	2250.0	1.0	n/a	400.0	1.0	go_stim
160083.42576005752	1043.57423994	n/a	561	71	2750	1043.57423994	stim	stop-signal	654	1852566	0.0-25.34-1.34	beast_fmri_test	338	1850484,/,1851164,/,1851842,/,1852524,/,1853202,/	t,t,t,t,t	<img class = center src='/static/experiments/beast_fmri_test/images/B.png'></img>	71,89	2750.0	test	<img class = center src='/static/experiments/beast_fmri_test/images/redB.png'></img>	go	2350.0	1.0	34.0	go	target	B	71,Index Finger	89,Middle Finger	400.0	500.0	2350.0	2250.0	1.0	n/a	400.0	1.0	ITI
162739	500.0	n/a	-1	-1	500	0.0	fixation	poldrack-single-stim	655	1854178	0.0-25.35-0.35	beast_fmri_test	338	1853883,/	t	<div class = centerbox2><div class = fixation>+</div></div>	none	500.0	test	n/a	n/a	n/a	n/a	n/a	n/a	n/a	n/a	n/a	n/a	n/a	n/a	n/a	n/a	n/a	n/a	n/a	n/a	fixation
160898.32441038848	2750.0	n/a	654	71	2750	1843.67558961	stim	stop-signal	656	1856931	0.0-25.35-1.35	beast_fmri_test	338	1854562,/,1855240,/,1855920,/,1856601,/,1857279,/,1857960,/,1858640,/	t,t,t,t,t,t,t	<img class = center src='/static/experiments/beast_fmri_test/images/B.png'></img>	71,89	2750.0	test	<img class = center src='/static/experiments/beast_fmri_test/images/redB.png'></img>	go	2350.0	1.0	35.0	go	target	B	71,Index Finger	89,Middle Finger	400.0	500.0	2350.0	2250.0	1.0	n/a	400.0	1.0	go_stim
163648.32441038848	1843.67558961	n/a	654	71	2750	1843.67558961	stim	stop-signal	656	1856931	0.0-25.35-1.35	beast_fmri_test	338	1854562,/,1855240,/,1855920,/,1856601,/,1857279,/,1857960,/,1858640,/	t,t,t,t,t,t,t	<img class = center src='/static/experiments/beast_fmri_test/images/B.png'></img>	71,89	2750.0	test	<img class = center src='/static/experiments/beast_fmri_test/images/redB.png'></img>	go	2350.0	1.0	35.0	go	target	B	71,Index Finger	89,Middle Finger	400.0	500.0	2350.0	2250.0	1.0	n/a	400.0	1.0	ITI
167902	500.0	n/a	-1	-1	500	0.0	fixation	poldrack-single-stim	657	1859341	0.0-25.36-0.36	beast_fmri_test	338	1859320,/	t	<div class = centerbox2><div class = fixation>+</div></div>	none	500.0	test	n/a	n/a	n/a	n/a	n/a	n/a	n/a	n/a	n/a	n/a	n/a	n/a	n/a	n/a	n/a	n/a	n/a	n/a	fixation
167874.03108586092	500.0	n/a	645	89	2750	30.9689141391	stim	stop-signal	658	1862094	0.0-25.36-1.36	beast_fmri_test	338	1859997,/,1860679,/,1861358,/,1862038,/	t,t,t,t	<img class = center src='/static/experiments/beast_fmri_test/images/T.png'></img>	71,89	2750.0	test	<img class = center src='/static/experiments/beast_fmri_test/images/redT.png'></img>	stop	2250.0	1.0	36.0	stop	non-target	T	71,Index Finger	89,Middle Finger	400.0	500.0	2350.0	2250.0	0.0	0.0	500.0	n/a	go_stim
170124.03108586092	2250.0	n/a	645	89	2750	30.9689141391	stim	stop-signal	658	1862094	0.0-25.36-1.36	beast_fmri_test	338	1859997,/,1860679,/,1861358,/,1862038,/	t,t,t,t	<img class = center src='/static/experiments/beast_fmri_test/images/T.png'></img>	71,89	2750.0	test	<img class = center src='/static/experiments/beast_fmri_test/images/redT.png'></img>	stop	2250.0	1.0	36.0	stop	non-target	T	71,Index Finger	89,Middle Finger	400.0	500.0	2350.0	2250.0	0.0	0.0	500.0	n/a	stop_stim
170624.03108586092	30.9689141391	n/a	645	89	2750	30.9689141391	stim	stop-signal	658	1862094	0.0-25.36-1.36	beast_fmri_test	338	1859997,/,1860679,/,1861358,/,1862038,/	t,t,t,t	<img class = center src='/static/experiments/beast_fmri_test/images/T.png'></img>	71,89	2750.0	test	<img class = center src='/static/experiments/beast_fmri_test/images/redT.png'></img>	stop	2250.0	1.0	36.0	stop	non-target	T	71,Index Finger	89,Middle Finger	400.0	500.0	2350.0	2250.0	0.0	0.0	500.0	n/a	ITI
171253	500.0	n/a	-1	-1	500	0.0	fixation	poldrack-single-stim	659	1862692	0.0-25.37-0.37	beast_fmri_test	338	n/a	n/a	<div class = centerbox2><div class = fixation>+</div></div>	none	500.0	test	n/a	n/a	n/a	n/a	n/a	n/a	n/a	n/a	n/a	n/a	n/a	n/a	n/a	n/a	n/a	n/a	n/a	n/a	fixation
171226.8837827018	2750.0	n/a	1283	89	2750	27.1162172982	stim	stop-signal	660	1865443	0.0-25.37-1.37	beast_fmri_test	338	1862719,/,1863397,/,1864076,/,1864757,/,1865437,/	t,t,t,t,t	<img class = center src='/static/experiments/beast_fmri_test/images/V.png'></img>	71,89	2750.0	test	<img class = center src='/static/experiments/beast_fmri_test/images/redV.png'></img>	go	2300.0	1.0	37.0	go	non-target	V	71,Index Finger	89,Middle Finger	400.0	450.0	2350.0	2300.0	1.0	n/a	450.0	1.0	go_stim
173976.8837827018	27.1162172982	n/a	1283	89	2750	27.1162172982	stim	stop-signal	660	1865443	0.0-25.37-1.37	beast_fmri_test	338	1862719,/,1863397,/,1864076,/,1864757,/,1865437,/	t,t,t,t,t	<img class = center src='/static/experiments/beast_fmri_test/images/V.png'></img>	71,89	2750.0	test	<img class = center src='/static/experiments/beast_fmri_test/images/redV.png'></img>	go	2300.0	1.0	37.0	go	non-target	V	71,Index Finger	89,Middle Finger	400.0	450.0	2350.0	2300.0	1.0	n/a	450.0	1.0	ITI
174595	500.0	n/a	-1	-1	500	0.0	fixation	poldrack-single-stim	661	1866034	0.0-25.38-0.38	beast_fmri_test	338	n/a	n/a	<div class = centerbox2><div class = fixation>+</div></div>	none	500.0	test	n/a	n/a	n/a	n/a	n/a	n/a	n/a	n/a	n/a	n/a	n/a	n/a	n/a	n/a	n/a	n/a	n/a	n/a	fixation
174380.71578494692	2750.0	n/a	591	89	2750	216.284215053	stim	stop-signal	662	1868786	0.0-25.38-1.38	beast_fmri_test	338	1866116,/,1866795,/,1867475,/,1868156,/,1868836,/	t,t,t,t,t	<img class = center src='/static/experiments/beast_fmri_test/images/D.png'></img>	71,89	2750.0	test	<img class = center src='/static/experiments/beast_fmri_test/images/redD.png'></img>	go	2300.0	1.0	38.0	go	non-target	D	71,Index Finger	89,Middle Finger	400.0	450.0	2350.0	2300.0	1.0	n/a	450.0	1.0	go_stim
177130.71578494692	216.284215053	n/a	591	89	2750	216.284215053	stim	stop-signal	662	1868786	0.0-25.38-1.38	beast_fmri_test	338	1866116,/,1866795,/,1867475,/,1868156,/,1868836,/	t,t,t,t,t	<img class = center src='/static/experiments/beast_fmri_test/images/D.png'></img>	71,89	2750.0	test	<img class = center src='/static/experiments/beast_fmri_test/images/redD.png'></img>	go	2300.0	1.0	38.0	go	non-target	D	71,Index Finger	89,Middle Finger	400.0	450.0	2350.0	2300.0	1.0	n/a	450.0	1.0	ITI
178138	500.0	n/a	-1	-1	500	0.0	fixation	poldrack-single-stim	663	1869577	0.0-25.39-0.39	beast_fmri_test	338	1869515,/	t	<div class = centerbox2><div class = fixation>+</div></div>	none	500.0	test	n/a	n/a	n/a	n/a	n/a	n/a	n/a	n/a	n/a	n/a	n/a	n/a	n/a	n/a	n/a	n/a	n/a	n/a	fixation
176643.58152876934	2750.0	n/a	901	71	2750	1496.41847123	stim	stop-signal	664	1872329	0.0-25.39-1.39	beast_fmri_test	338	1870193,/,1870874,/,1871554,/,1872233,/,1872913,/,1873593,/	t,t,t,t,t,t	<img class = center src='/static/experiments/beast_fmri_test/images/D.png'></img>	71,89	2750.0	test	<img class = center src='/static/experiments/beast_fmri_test/images/redD.png'></img>	go	2350.0	1.0	39.0	go	target	D	71,Index Finger	89,Middle Finger	400.0	450.0	2350.0	2300.0	1.0	n/a	400.0	1.0	go_stim
179393.58152876934	1496.41847123	n/a	901	71	2750	1496.41847123	stim	stop-signal	664	1872329	0.0-25.39-1.39	beast_fmri_test	338	1870193,/,1870874,/,1871554,/,1872233,/,1872913,/,1873593,/	t,t,t,t,t,t	<img class = center src='/static/experiments/beast_fmri_test/images/D.png'></img>	71,89	2750.0	test	<img class = center src='/static/experiments/beast_fmri_test/images/redD.png'></img>	go	2350.0	1.0	39.0	go	target	D	71,Index Finger	89,Middle Finger	400.0	450.0	2350.0	2300.0	1.0	n/a	400.0	1.0	ITI
182951	500.0	n/a	-1	-1	500	0.0	fixation	poldrack-single-stim	665	1874390	0.0-25.40-0.40	beast_fmri_test	338	1874275,/	t	<div class = centerbox2><div class = fixation>+</div></div>	none	500.0	test	n/a	n/a	n/a	n/a	n/a	n/a	n/a	n/a	n/a	n/a	n/a	n/a	n/a	n/a	n/a	n/a	n/a	n/a	fixation
177952.0	2750.0	n/a	690	89	2750	5000.0	stim	stop-signal	666	1877141	0.0-25.40-1.40	beast_fmri_test	338	1874953,/,1875633,/,1876312,/,1876991,/,1877671,/,1878351,/,1879031,/,1879710,/,1880390,/,1881070,/,1881748,/	t,t,t,t,t,t,t,t,t,t,t	<img class = center src='/static/experiments/beast_fmri_test/images/P.png'></img>	71,89	2750.0	test	<img class = center src='/static/experiments/beast_fmri_test/images/redP.png'></img>	go	2300.0	1.0	40.0	go	non-target	P	71,Index Finger	89,Middle Finger	400.0	450.0	2350.0	2300.0	1.0	n/a	450.0	1.0	go_stim
180702.0	5000.0	n/a	690	89	2750	5000.0	stim	stop-signal	666	1877141	0.0-25.40-1.40	beast_fmri_test	338	1874953,/,1875633,/,1876312,/,1876991,/,1877671,/,1878351,/,1879031,/,1879710,/,1880390,/,1881070,/,1881748,/	t,t,t,t,t,t,t,t,t,t,t	<img class = center src='/static/experiments/beast_fmri_test/images/P.png'></img>	71,89	2750.0	test	<img class = center src='/static/experiments/beast_fmri_test/images/redP.png'></img>	go	2300.0	1.0	40.0	go	non-target	P	71,Index Finger	89,Middle Finger	400.0	450.0	2350.0	2300.0	1.0	n/a	450.0	1.0	ITI
191276	500.0	n/a	-1	-1	500	0.0	fixation	poldrack-single-stim	667	1882715	0.0-25.41-0.41	beast_fmri_test	338	1882453,/	t	<div class = centerbox2><div class = fixation>+</div></div>	none	500.0	test	n/a	n/a	n/a	n/a	n/a	n/a	n/a	n/a	n/a	n/a	n/a	n/a	n/a	n/a	n/a	n/a	n/a	n/a	fixation
189975.05257751001	450.0	n/a	535	89	2750	1303.94742249	stim	stop-signal	668	1885468	0.0-25.41-1.41	beast_fmri_test	338	1883110,/,1883789,/,1884468,/,1885147,/,1885826,/,1886507,/	t,t,t,t,t,t	<img class = center src='/static/experiments/beast_fmri_test/images/V.png'></img>	71,89	2750.0	test	<img class = center src='/static/experiments/beast_fmri_test/images/redV.png'></img>	stop	2300.0	1.0	41.0	stop	non-target	V	71,Index Finger	89,Middle Finger	400.0	450.0	2350.0	2300.0	0.0	0.0	450.0	n/a	go_stim
192275.05257751001	2300.0	n/a	535	89	2750	1303.94742249	stim	stop-signal	668	1885468	0.0-25.41-1.41	beast_fmri_test	338	1883110,/,1883789,/,1884468,/,1885147,/,1885826,/,1886507,/	t,t,t,t,t,t	<img class = center src='/static/experiments/beast_fmri_test/images/V.png'></img>	71,89	2750.0	test	<img class = center src='/static/experiments/beast_fmri_test/images/redV.png'></img>	stop	2300.0	1.0	41.0	stop	non-target	V	71,Index Finger	89,Middle Finger	400.0	450.0	2350.0	2300.0	0.0	0.0	450.0	n/a	stop_stim
192725.05257751001	1303.94742249	n/a	535	89	2750	1303.94742249	stim	stop-signal	668	1885468	0.0-25.41-1.41	beast_fmri_test	338	1883110,/,1883789,/,1884468,/,1885147,/,1885826,/,1886507,/	t,t,t,t,t,t	<img class = center src='/static/experiments/beast_fmri_test/images/V.png'></img>	71,89	2750.0	test	<img class = center src='/static/experiments/beast_fmri_test/images/redV.png'></img>	stop	2300.0	1.0	41.0	stop	non-target	V	71,Index Finger	89,Middle Finger	400.0	450.0	2350.0	2300.0	0.0	0.0	450.0	n/a	ITI
195910	500.0	n/a	-1	-1	500	0.0	fixation	poldrack-single-stim	669	1887349	0.0-25.42-0.42	beast_fmri_test	338	1887185,/	t	<div class = centerbox2><div class = fixation>+</div></div>	none	500.0	test	n/a	n/a	n/a	n/a	n/a	n/a	n/a	n/a	n/a	n/a	n/a	n/a	n/a	n/a	n/a	n/a	n/a	n/a	fixation
195058.68530899752	400.0	n/a	-1	-1	2750	853.314691003	stim	stop-signal	670	1890101	0.0-25.42-1.42	beast_fmri_test	338	1887903,/,1888548,/,1889226,/,1889906,/,1890584,/	t,t,t,t,t	<img class = center src='/static/experiments/beast_fmri_test/images/V.png'></img>	71,89	2750.0	test	<img class = center src='/static/experiments/beast_fmri_test/images/redV.png'></img>	stop	2350.0	1.0	42.0	stop	target	V	71,Index Finger	89,Middle Finger	400.0	400.0	2350.0	2300.0	0.0	1.0	400.0	n/a	go_stim
197408.68530899752	2350.0	n/a	-1	-1	2750	853.314691003	stim	stop-signal	670	1890101	0.0-25.42-1.42	beast_fmri_test	338	1887903,/,1888548,/,1889226,/,1889906,/,1890584,/	t,t,t,t,t	<img class = center src='/static/experiments/beast_fmri_test/images/V.png'></img>	71,89	2750.0	test	<img class = center src='/static/experiments/beast_fmri_test/images/redV.png'></img>	stop	2350.0	1.0	42.0	stop	target	V	71,Index Finger	89,Middle Finger	400.0	400.0	2350.0	2300.0	0.0	1.0	400.0	n/a	stop_stim
197808.68530899752	853.314691003	n/a	-1	-1	2750	853.314691003	stim	stop-signal	670	1890101	0.0-25.42-1.42	beast_fmri_test	338	1887903,/,1888548,/,1889226,/,1889906,/,1890584,/	t,t,t,t,t	<img class = center src='/static/experiments/beast_fmri_test/images/V.png'></img>	71,89	2750.0	test	<img class = center src='/static/experiments/beast_fmri_test/images/redV.png'></img>	stop	2350.0	1.0	42.0	stop	target	V	71,Index Finger	89,Middle Finger	400.0	400.0	2350.0	2300.0	0.0	1.0	400.0	n/a	ITI
200089	500.0	n/a	-1	-1	500	0.0	fixation	poldrack-single-stim	671	1891528	0.0-25.43-0.43	beast_fmri_test	338	1891264,/	t	<div class = centerbox2><div class = fixation>+</div></div>	none	500.0	test	n/a	n/a	n/a	n/a	n/a	n/a	n/a	n/a	n/a	n/a	n/a	n/a	n/a	n/a	n/a	n/a	n/a	n/a	fixation
198744.70221345359	400.0	n/a	-1	-1	2750	1346.29778655	stim	stop-signal	672	1894280	0.0-25.43-1.43	beast_fmri_test	338	1891943,/,1892623,/,1893304,/,1893983,/,1894663,/,1895343,/	t,t,t,t,t,t	<img class = center src='/static/experiments/beast_fmri_test/images/B.png'></img>	71,89	2750.0	test	<img class = center src='/static/experiments/beast_fmri_test/images/redB.png'></img>	stop	2350.0	1.0	43.0	stop	non-target	B	71,Index Finger	89,Middle Finger	450.0	400.0	2350.0	2350.0	0.0	1.0	400.0	n/a	go_stim
201094.70221345359	2350.0	n/a	-1	-1	2750	1346.29778655	stim	stop-signal	672	1894280	0.0-25.43-1.43	beast_fmri_test	338	1891943,/,1892623,/,1893304,/,1893983,/,1894663,/,1895343,/	t,t,t,t,t,t	<img class = center src='/static/experiments/beast_fmri_test/images/B.png'></img>	71,89	2750.0	test	<img class = center src='/static/experiments/beast_fmri_test/images/redB.png'></img>	stop	2350.0	1.0	43.0	stop	non-target	B	71,Index Finger	89,Middle Finger	450.0	400.0	2350.0	2350.0	0.0	1.0	400.0	n/a	stop_stim
201494.70221345359	1346.29778655	n/a	-1	-1	2750	1346.29778655	stim	stop-signal	672	1894280	0.0-25.43-1.43	beast_fmri_test	338	1891943,/,1892623,/,1893304,/,1893983,/,1894663,/,1895343,/	t,t,t,t,t,t	<img class = center src='/static/experiments/beast_fmri_test/images/B.png'></img>	71,89	2750.0	test	<img class = center src='/static/experiments/beast_fmri_test/images/redB.png'></img>	stop	2350.0	1.0	43.0	stop	non-target	B	71,Index Finger	89,Middle Finger	450.0	400.0	2350.0	2350.0	0.0	1.0	400.0	n/a	ITI
204759	500.0	n/a	-1	-1	500	0.0	fixation	poldrack-single-stim	673	1896198	0.0-25.44-0.44	beast_fmri_test	338	1896022,/	t	<div class = centerbox2><div class = fixation>+</div></div>	none	500.0	test	n/a	n/a	n/a	n/a	n/a	n/a	n/a	n/a	n/a	n/a	n/a	n/a	n/a	n/a	n/a	n/a	n/a	n/a	fixation
204402.98132247594	2750.0	n/a	780	89	2750	358.018677524	stim	stop-signal	674	1898950	0.0-25.44-1.44	beast_fmri_test	338	1896702,/,1897382,/,1898060,/,1898741,/	t,t,t,t	<img class = center src='/static/experiments/beast_fmri_test/images/V.png'></img>	71,89	2750.0	test	<img class = center src='/static/experiments/beast_fmri_test/images/redV.png'></img>	go	2300.0	1.0	44.0	go	non-target	V	71,Index Finger	89,Middle Finger	450.0	450.0	2350.0	2300.0	1.0	n/a	450.0	1.0	go_stim
207152.98132247594	358.018677524	n/a	780	89	2750	358.018677524	stim	stop-signal	674	1898950	0.0-25.44-1.44	beast_fmri_test	338	1896702,/,1897382,/,1898060,/,1898741,/	t,t,t,t	<img class = center src='/static/experiments/beast_fmri_test/images/V.png'></img>	71,89	2750.0	test	<img class = center src='/static/experiments/beast_fmri_test/images/redV.png'></img>	go	2300.0	1.0	44.0	go	non-target	V	71,Index Finger	89,Middle Finger	450.0	450.0	2350.0	2300.0	1.0	n/a	450.0	1.0	ITI
208450	500.0	n/a	-1	-1	500	0.0	fixation	poldrack-single-stim	675	1899889	0.0-25.45-0.45	beast_fmri_test	338	1899419,/	t	<div class = centerbox2><div class = fixation>+</div></div>	none	500.0	test	n/a	n/a	n/a	n/a	n/a	n/a	n/a	n/a	n/a	n/a	n/a	n/a	n/a	n/a	n/a	n/a	n/a	n/a	fixation
207353.52150850627	450.0	n/a	614	89	2750	1099.47849149	stim	stop-signal	676	1902642	0.0-25.45-1.45	beast_fmri_test	338	1900100,/,1900781,/,1901459,/,1902140,/,1902820,/,1903499,/	t,t,t,t,t,t	<img class = center src='/static/experiments/beast_fmri_test/images/T.png'></img>	71,89	2750.0	test	<img class = center src='/static/experiments/beast_fmri_test/images/redT.png'></img>	stop	2300.0	1.0	45.0	stop	non-target	T	71,Index Finger	89,Middle Finger	450.0	450.0	2350.0	2300.0	0.0	0.0	450.0	n/a	go_stim
209653.52150850627	2300.0	n/a	614	89	2750	1099.47849149	stim	stop-signal	676	1902642	0.0-25.45-1.45	beast_fmri_test	338	1900100,/,1900781,/,1901459,/,1902140,/,1902820,/,1903499,/	t,t,t,t,t,t	<img class = center src='/static/experiments/beast_fmri_test/images/T.png'></img>	71,89	2750.0	test	<img class = center src='/static/experiments/beast_fmri_test/images/redT.png'></img>	stop	2300.0	1.0	45.0	stop	non-target	T	71,Index Finger	89,Middle Finger	450.0	450.0	2350.0	2300.0	0.0	0.0	450.0	n/a	stop_stim
210103.52150850627	1099.47849149	n/a	614	89	2750	1099.47849149	stim	stop-signal	676	1902642	0.0-25.45-1.45	beast_fmri_test	338	1900100,/,1900781,/,1901459,/,1902140,/,1902820,/,1903499,/	t,t,t,t,t,t	<img class = center src='/static/experiments/beast_fmri_test/images/T.png'></img>	71,89	2750.0	test	<img class = center src='/static/experiments/beast_fmri_test/images/redT.png'></img>	stop	2300.0	1.0	45.0	stop	non-target	T	71,Index Finger	89,Middle Finger	450.0	450.0	2350.0	2300.0	0.0	0.0	450.0	n/a	ITI
227376	15000.0	n/a	-1	-1	15000	0.0	practice-no-stop-feedback	poldrack-single-stim	677	1918815	0.0-26.0	beast_fmri_test	338	1904179,/,1904858,/,1905539,/,1906218,/,1906897,/,1907577,/,1908256,/,1908937,/,1909616,/,1910296,/,1910976,/,1911654,/,1912336,/,1913015,/,1913695,/,1914374,/,1915052,/,1915733,/,1916413,/,1917092,/,1917773,/,1918452,/	t,t,t,t,t,t,t,t,t,t,t,t,t,t,t,t,t,t,t,t,t,t	"<div class = ""centerbox""><p class = ""block-text"">Your delay is 2 trials.</p><p class = block-text>Please wait for the scanner to start the block</p></div>"	77	15000.0	n/a	n/a	n/a	n/a	n/a	n/a	n/a	n/a	n/a	n/a	n/a	n/a	n/a	n/a	n/a	n/a	n/a	n/a	n/a	practice-no-stop-feedback
227879	500.0	n/a	-1	-1	500	0.0	fixation	poldrack-single-stim	678	1919318	0.0-27.0-0.0	beast_fmri_test	338	1919130,/	t	<div class = centerbox2><div class = fixation>+</div></div>	none	500.0	test	n/a	n/a	n/a	n/a	n/a	n/a	n/a	n/a	n/a	n/a	n/a	n/a	n/a	n/a	n/a	n/a	n/a	n/a	fixation
226240.3502926256	2750.0	n/a	-1	-1	2750	1641.64970737	stim	stop-signal	679	1922071	0.0-27.0-1.0	beast_fmri_test	338	1919811,/,1920491,/,1921171,/,1921850,/,1922530,/,1923209,/	t,t,t,t,t,t	<img class = center src='/static/experiments/beast_fmri_test/images/B.png'></img>	71,89	2750.0	test	<img class = center src='/static/experiments/beast_fmri_test/images/redB.png'></img>	go	-1.0	2.0	0.0	go	temp-non-target	B	71,Index Finger	89,Middle Finger	450.0	400.0	2350.0	2300.0	0.0	n/a	n/a	n/a	go_stim
228990.3502926256	1641.64970737	n/a	-1	-1	2750	1641.64970737	stim	stop-signal	679	1922071	0.0-27.0-1.0	beast_fmri_test	338	1919811,/,1920491,/,1921171,/,1921850,/,1922530,/,1923209,/	t,t,t,t,t,t	<img class = center src='/static/experiments/beast_fmri_test/images/B.png'></img>	71,89	2750.0	test	<img class = center src='/static/experiments/beast_fmri_test/images/redB.png'></img>	go	-1.0	2.0	0.0	go	temp-non-target	B	71,Index Finger	89,Middle Finger	450.0	400.0	2350.0	2300.0	0.0	n/a	n/a	n/a	ITI
232847	500.0	n/a	-1	-1	500	0.0	fixation	poldrack-single-stim	680	1924286	0.0-27.1-0.1	beast_fmri_test	338	1923888,/	t	<div class = centerbox2><div class = fixation>+</div></div>	none	500.0	test	n/a	n/a	n/a	n/a	n/a	n/a	n/a	n/a	n/a	n/a	n/a	n/a	n/a	n/a	n/a	n/a	n/a	n/a	fixation
232418.17502270732	2750.0	n/a	1696	89	2750	429.824977293	stim	stop-signal	681	1927037	0.0-27.1-1.1	beast_fmri_test	338	1924570,/,1925248,/,1925929,/,1926607,/,1927288,/	t,t,t,t,t	<img class = center src='/static/experiments/beast_fmri_test/images/P.png'></img>	71,89	2750.0	test	<img class = center src='/static/experiments/beast_fmri_test/images/redP.png'></img>	go	-1.0	2.0	1.0	go	temp-non-target	P	71,Index Finger	89,Middle Finger	450.0	400.0	2350.0	2300.0	0.0	n/a	n/a	n/a	go_stim
235168.17502270732	429.824977293	n/a	1696	89	2750	429.824977293	stim	stop-signal	681	1927037	0.0-27.1-1.1	beast_fmri_test	338	1924570,/,1925248,/,1925929,/,1926607,/,1927288,/	t,t,t,t,t	<img class = center src='/static/experiments/beast_fmri_test/images/P.png'></img>	71,89	2750.0	test	<img class = center src='/static/experiments/beast_fmri_test/images/redP.png'></img>	go	-1.0	2.0	1.0	go	temp-non-target	P	71,Index Finger	89,Middle Finger	450.0	400.0	2350.0	2300.0	0.0	n/a	n/a	n/a	ITI
236602	500.0	n/a	-1	-1	500	0.0	fixation	poldrack-single-stim	682	1928041	0.0-27.2-0.2	beast_fmri_test	338	1927968,/	t	<div class = centerbox2><div class = fixation>+</div></div>	none	500.0	test	n/a	n/a	n/a	n/a	n/a	n/a	n/a	n/a	n/a	n/a	n/a	n/a	n/a	n/a	n/a	n/a	n/a	n/a	fixation
236312.82193634426	400.0	n/a	596	89	2750	291.178063656	stim	stop-signal	683	1930793	0.0-27.2-1.2	beast_fmri_test	338	1928646,/,1929327,/,1930007,/,1930687,/	t,t,t,t	<img class = center src='/static/experiments/beast_fmri_test/images/P.png'></img>	71,89	2750.0	test	<img class = center src='/static/experiments/beast_fmri_test/images/redP.png'></img>	stop	2350.0	2.0	2.0	stop	non-target	P	71,Index Finger	89,Middle Finger	450.0	400.0	2350.0	2350.0	0.0	0.0	400.0	n/a	go_stim
238662.82193634426	2350.0	n/a	596	89	2750	291.178063656	stim	stop-signal	683	1930793	0.0-27.2-1.2	beast_fmri_test	338	1928646,/,1929327,/,1930007,/,1930687,/	t,t,t,t	<img class = center src='/static/experiments/beast_fmri_test/images/P.png'></img>	71,89	2750.0	test	<img class = center src='/static/experiments/beast_fmri_test/images/redP.png'></img>	stop	2350.0	2.0	2.0	stop	non-target	P	71,Index Finger	89,Middle Finger	450.0	400.0	2350.0	2350.0	0.0	0.0	400.0	n/a	stop_stim
239062.82193634426	291.178063656	n/a	596	89	2750	291.178063656	stim	stop-signal	683	1930793	0.0-27.2-1.2	beast_fmri_test	338	1928646,/,1929327,/,1930007,/,1930687,/	t,t,t,t	<img class = center src='/static/experiments/beast_fmri_test/images/P.png'></img>	71,89	2750.0	test	<img class = center src='/static/experiments/beast_fmri_test/images/redP.png'></img>	stop	2350.0	2.0	2.0	stop	non-target	P	71,Index Finger	89,Middle Finger	450.0	400.0	2350.0	2350.0	0.0	0.0	400.0	n/a	ITI
240223	500.0	n/a	-1	-1	500	0.0	fixation	poldrack-single-stim	684	1931662	0.0-27.3-0.3	beast_fmri_test	338	1931367,/	t	<div class = centerbox2><div class = fixation>+</div></div>	none	500.0	test	n/a	n/a	n/a	n/a	n/a	n/a	n/a	n/a	n/a	n/a	n/a	n/a	n/a	n/a	n/a	n/a	n/a	n/a	fixation
239313.85618568189	350.0	n/a	-1	-1	2750	912.143814318	stim	stop-signal	685	1934415	0.0-27.3-1.3	beast_fmri_test	338	1932046,/,1932726,/,1933406,/,1934086,/,1934765,/	t,t,t,t,t	<img class = center src='/static/experiments/beast_fmri_test/images/V.png'></img>	71,89	2750.0	test	<img class = center src='/static/experiments/beast_fmri_test/images/redV.png'></img>	stop	2400.0	2.0	3.0	stop	non-target	V	71,Index Finger	89,Middle Finger	450.0	350.0	2350.0	2400.0	0.0	1.0	350.0	n/a	go_stim
241713.85618568189	2400.0	n/a	-1	-1	2750	912.143814318	stim	stop-signal	685	1934415	0.0-27.3-1.3	beast_fmri_test	338	1932046,/,1932726,/,1933406,/,1934086,/,1934765,/	t,t,t,t,t	<img class = center src='/static/experiments/beast_fmri_test/images/V.png'></img>	71,89	2750.0	test	<img class = center src='/static/experiments/beast_fmri_test/images/redV.png'></img>	stop	2400.0	2.0	3.0	stop	non-target	V	71,Index Finger	89,Middle Finger	450.0	350.0	2350.0	2400.0	0.0	1.0	350.0	n/a	stop_stim
242063.85618568189	912.143814318	n/a	-1	-1	2750	912.143814318	stim	stop-signal	685	1934415	0.0-27.3-1.3	beast_fmri_test	338	1932046,/,1932726,/,1933406,/,1934086,/,1934765,/	t,t,t,t,t	<img class = center src='/static/experiments/beast_fmri_test/images/V.png'></img>	71,89	2750.0	test	<img class = center src='/static/experiments/beast_fmri_test/images/redV.png'></img>	stop	2400.0	2.0	3.0	stop	non-target	V	71,Index Finger	89,Middle Finger	450.0	350.0	2350.0	2400.0	0.0	1.0	350.0	n/a	ITI
244462	500.0	n/a	-1	-1	500	0.0	fixation	poldrack-single-stim	686	1935901	0.0-27.4-0.4	beast_fmri_test	338	1935445,/	t	<div class = centerbox2><div class = fixation>+</div></div>	none	500.0	test	n/a	n/a	n/a	n/a	n/a	n/a	n/a	n/a	n/a	n/a	n/a	n/a	n/a	n/a	n/a	n/a	n/a	n/a	fixation
241641.82984027499	400.0	n/a	-1	-1	2750	2822.17015973	stim	stop-signal	687	1938653	0.0-27.4-1.4	beast_fmri_test	338	1936125,/,1936804,/,1937484,/,1938163,/,1938842,/,1939523,/,1940202,/,1940882,/	t,t,t,t,t,t,t,t	<img class = center src='/static/experiments/beast_fmri_test/images/B.png'></img>	71,89	2750.0	test	<img class = center src='/static/experiments/beast_fmri_test/images/redB.png'></img>	stop	2350.0	2.0	4.0	stop	non-target	B	71,Index Finger	89,Middle Finger	450.0	400.0	2350.0	2350.0	0.0	1.0	400.0	n/a	go_stim
243991.82984027499	2350.0	n/a	-1	-1	2750	2822.17015973	stim	stop-signal	687	1938653	0.0-27.4-1.4	beast_fmri_test	338	1936125,/,1936804,/,1937484,/,1938163,/,1938842,/,1939523,/,1940202,/,1940882,/	t,t,t,t,t,t,t,t	<img class = center src='/static/experiments/beast_fmri_test/images/B.png'></img>	71,89	2750.0	test	<img class = center src='/static/experiments/beast_fmri_test/images/redB.png'></img>	stop	2350.0	2.0	4.0	stop	non-target	B	71,Index Finger	89,Middle Finger	450.0	400.0	2350.0	2350.0	0.0	1.0	400.0	n/a	stop_stim
244391.82984027499	2822.17015973	n/a	-1	-1	2750	2822.17015973	stim	stop-signal	687	1938653	0.0-27.4-1.4	beast_fmri_test	338	1936125,/,1936804,/,1937484,/,1938163,/,1938842,/,1939523,/,1940202,/,1940882,/	t,t,t,t,t,t,t,t	<img class = center src='/static/experiments/beast_fmri_test/images/B.png'></img>	71,89	2750.0	test	<img class = center src='/static/experiments/beast_fmri_test/images/redB.png'></img>	stop	2350.0	2.0	4.0	stop	non-target	B	71,Index Finger	89,Middle Finger	450.0	400.0	2350.0	2350.0	0.0	1.0	400.0	n/a	ITI
250614	500.0	n/a	-1	-1	500	0.0	fixation	poldrack-single-stim	688	1942053	0.0-27.5-0.5	beast_fmri_test	338	1941566,/	t	<div class = centerbox2><div class = fixation>+</div></div>	none	500.0	test	n/a	n/a	n/a	n/a	n/a	n/a	n/a	n/a	n/a	n/a	n/a	n/a	n/a	n/a	n/a	n/a	n/a	n/a	fixation
249887.9132824298	2750.0	n/a	705	89	2750	728.08671757	stim	stop-signal	689	1944805	0.0-27.5-1.5	beast_fmri_test	338	1942240,/,1942919,/,1943599,/,1944278,/,1944959,/	t,t,t,t,t	<img class = center src='/static/experiments/beast_fmri_test/images/D.png'></img>	71,89	2750.0	test	<img class = center src='/static/experiments/beast_fmri_test/images/redD.png'></img>	go	2300.0	2.0	5.0	go	non-target	D	71,Index Finger	89,Middle Finger	450.0	450.0	2350.0	2300.0	1.0	n/a	450.0	1.0	go_stim
252637.9132824298	728.08671757	n/a	705	89	2750	728.08671757	stim	stop-signal	689	1944805	0.0-27.5-1.5	beast_fmri_test	338	1942240,/,1942919,/,1943599,/,1944278,/,1944959,/	t,t,t,t,t	<img class = center src='/static/experiments/beast_fmri_test/images/D.png'></img>	71,89	2750.0	test	<img class = center src='/static/experiments/beast_fmri_test/images/redD.png'></img>	go	2300.0	2.0	5.0	go	non-target	D	71,Index Finger	89,Middle Finger	450.0	450.0	2350.0	2300.0	1.0	n/a	450.0	1.0	ITI
254675	500.0	n/a	-1	-1	500	0.0	fixation	poldrack-single-stim	690	1946114	0.0-27.6-0.6	beast_fmri_test	338	1945641,/	t	<div class = centerbox2><div class = fixation>+</div></div>	none	500.0	test	n/a	n/a	n/a	n/a	n/a	n/a	n/a	n/a	n/a	n/a	n/a	n/a	n/a	n/a	n/a	n/a	n/a	n/a	fixation
253565.88475898048	450.0	n/a	565	71	2750	1110.11524102	stim	stop-signal	691	1948865	0.0-27.6-1.6	beast_fmri_test	338	1946318,/,1946998,/,1947678,/,1948357,/,1949037,/,1949718,/	t,t,t,t,t,t	<img class = center src='/static/experiments/beast_fmri_test/images/B.png'></img>	71,89	2750.0	test	<img class = center src='/static/experiments/beast_fmri_test/images/redB.png'></img>	stop	2300.0	2.0	6.0	stop	target	B	71,Index Finger	89,Middle Finger	450.0	450.0	2300.0	2300.0	0.0	0.0	450.0	n/a	go_stim
255865.88475898048	2300.0	n/a	565	71	2750	1110.11524102	stim	stop-signal	691	1948865	0.0-27.6-1.6	beast_fmri_test	338	1946318,/,1946998,/,1947678,/,1948357,/,1949037,/,1949718,/	t,t,t,t,t,t	<img class = center src='/static/experiments/beast_fmri_test/images/B.png'></img>	71,89	2750.0	test	<img class = center src='/static/experiments/beast_fmri_test/images/redB.png'></img>	stop	2300.0	2.0	6.0	stop	target	B	71,Index Finger	89,Middle Finger	450.0	450.0	2300.0	2300.0	0.0	0.0	450.0	n/a	stop_stim
256315.88475898048	1110.11524102	n/a	565	71	2750	1110.11524102	stim	stop-signal	691	1948865	0.0-27.6-1.6	beast_fmri_test	338	1946318,/,1946998,/,1947678,/,1948357,/,1949037,/,1949718,/	t,t,t,t,t,t	<img class = center src='/static/experiments/beast_fmri_test/images/B.png'></img>	71,89	2750.0	test	<img class = center src='/static/experiments/beast_fmri_test/images/redB.png'></img>	stop	2300.0	2.0	6.0	stop	target	B	71,Index Finger	89,Middle Finger	450.0	450.0	2300.0	2300.0	0.0	0.0	450.0	n/a	ITI
259115	500.0	n/a	-1	-1	500	0.0	fixation	poldrack-single-stim	692	1950554	0.0-27.7-0.7	beast_fmri_test	338	1950397,/	t	<div class = centerbox2><div class = fixation>+</div></div>	none	500.0	test	n/a	n/a	n/a	n/a	n/a	n/a	n/a	n/a	n/a	n/a	n/a	n/a	n/a	n/a	n/a	n/a	n/a	n/a	fixation
257938.88186367042	2750.0	n/a	808	89	2750	1178.11813633	stim	stop-signal	693	1953306	0.0-27.7-1.7	beast_fmri_test	338	1951077,/,1951757,/,1952436,/,1953115,/,1953794,/,1954475,/	t,t,t,t,t,t	<img class = center src='/static/experiments/beast_fmri_test/images/V.png'></img>	71,89	2750.0	test	<img class = center src='/static/experiments/beast_fmri_test/images/redV.png'></img>	go	2300.0	2.0	7.0	go	non-target	V	71,Index Finger	89,Middle Finger	400.0	450.0	2300.0	2300.0	1.0	n/a	450.0	1.0	go_stim
260688.88186367042	1178.11813633	n/a	808	89	2750	1178.11813633	stim	stop-signal	693	1953306	0.0-27.7-1.7	beast_fmri_test	338	1951077,/,1951757,/,1952436,/,1953115,/,1953794,/,1954475,/	t,t,t,t,t,t	<img class = center src='/static/experiments/beast_fmri_test/images/V.png'></img>	71,89	2750.0	test	<img class = center src='/static/experiments/beast_fmri_test/images/redV.png'></img>	go	2300.0	2.0	7.0	go	non-target	V	71,Index Finger	89,Middle Finger	400.0	450.0	2300.0	2300.0	1.0	n/a	450.0	1.0	ITI
263623	500.0	n/a	-1	-1	500	0.0	fixation	poldrack-single-stim	694	1955062	0.0-27.8-0.8	beast_fmri_test	338	n/a	n/a	<div class = centerbox2><div class = fixation>+</div></div>	none	500.0	test	n/a	n/a	n/a	n/a	n/a	n/a	n/a	n/a	n/a	n/a	n/a	n/a	n/a	n/a	n/a	n/a	n/a	n/a	fixation
263051.20459695463	2750.0	n/a	524	71	2750	572.795403045	stim	stop-signal	695	1957813	0.0-27.8-1.8	beast_fmri_test	338	1955155,/,1955834,/,1956513,/,1957194,/,1957874,/	t,t,t,t,t	<img class = center src='/static/experiments/beast_fmri_test/images/D.png'></img>	71,89	2750.0	test	<img class = center src='/static/experiments/beast_fmri_test/images/redD.png'></img>	go	2300.0	2.0	8.0	go	non-target	D	71,Index Finger	89,Middle Finger	400.0	450.0	2300.0	2300.0	0.0	n/a	450.0	0.0	go_stim
265801.20459695463	572.795403045	n/a	524	71	2750	572.795403045	stim	stop-signal	695	1957813	0.0-27.8-1.8	beast_fmri_test	338	1955155,/,1955834,/,1956513,/,1957194,/,1957874,/	t,t,t,t,t	<img class = center src='/static/experiments/beast_fmri_test/images/D.png'></img>	71,89	2750.0	test	<img class = center src='/static/experiments/beast_fmri_test/images/redD.png'></img>	go	2300.0	2.0	8.0	go	non-target	D	71,Index Finger	89,Middle Finger	400.0	450.0	2300.0	2300.0	0.0	n/a	450.0	0.0	ITI
267526	500.0	n/a	-1	-1	500	0.0	fixation	poldrack-single-stim	696	1958965	0.0-27.9-0.9	beast_fmri_test	338	1958557,/	t	<div class = centerbox2><div class = fixation>+</div></div>	none	500.0	test	n/a	n/a	n/a	n/a	n/a	n/a	n/a	n/a	n/a	n/a	n/a	n/a	n/a	n/a	n/a	n/a	n/a	n/a	fixation
267404.21609698329	2750.0	n/a	1029	71	2750	123.783903017	stim	stop-signal	697	1961717	0.0-27.9-1.9	beast_fmri_test	338	1959232,/,1959913,/,1960594,/,1961271,/	t,t,t,t	<img class = center src='/static/experiments/beast_fmri_test/images/V.png'></img>	71,89	2750.0	test	<img class = center src='/static/experiments/beast_fmri_test/images/redV.png'></img>	go	2350.0	2.0	9.0	go	target	V	71,Index Finger	89,Middle Finger	400.0	450.0	2350.0	2300.0	1.0	n/a	400.0	1.0	go_stim
270154.21609698329	123.783903017	n/a	1029	71	2750	123.783903017	stim	stop-signal	697	1961717	0.0-27.9-1.9	beast_fmri_test	338	1959232,/,1959913,/,1960594,/,1961271,/	t,t,t,t	<img class = center src='/static/experiments/beast_fmri_test/images/V.png'></img>	71,89	2750.0	test	<img class = center src='/static/experiments/beast_fmri_test/images/redV.png'></img>	go	2350.0	2.0	9.0	go	target	V	71,Index Finger	89,Middle Finger	400.0	450.0	2350.0	2300.0	1.0	n/a	400.0	1.0	ITI
270989	500.0	n/a	-1	-1	500	0.0	fixation	poldrack-single-stim	698	1962428	0.0-27.10-0.10	beast_fmri_test	338	1961957,/	t	<div class = centerbox2><div class = fixation>+</div></div>	none	500.0	test	n/a	n/a	n/a	n/a	n/a	n/a	n/a	n/a	n/a	n/a	n/a	n/a	n/a	n/a	n/a	n/a	n/a	n/a	fixation
270697.89609655412	400.0	n/a	-1	-1	2750	294.103903446	stim	stop-signal	699	1965181	0.0-27.10-1.10	beast_fmri_test	338	1962633,/,1963312,/,1963990,/,1964671,/,1965351,/	t,t,t,t,t	<img class = center src='/static/experiments/beast_fmri_test/images/D.png'></img>	71,89	2750.0	test	<img class = center src='/static/experiments/beast_fmri_test/images/redD.png'></img>	stop	2350.0	2.0	10.0	stop	target	D	71,Index Finger	89,Middle Finger	400.0	450.0	2350.0	2300.0	0.0	1.0	400.0	n/a	go_stim
273047.89609655412	2350.0	n/a	-1	-1	2750	294.103903446	stim	stop-signal	699	1965181	0.0-27.10-1.10	beast_fmri_test	338	1962633,/,1963312,/,1963990,/,1964671,/,1965351,/	t,t,t,t,t	<img class = center src='/static/experiments/beast_fmri_test/images/D.png'></img>	71,89	2750.0	test	<img class = center src='/static/experiments/beast_fmri_test/images/redD.png'></img>	stop	2350.0	2.0	10.0	stop	target	D	71,Index Finger	89,Middle Finger	400.0	450.0	2350.0	2300.0	0.0	1.0	400.0	n/a	stop_stim
273447.89609655412	294.103903446	n/a	-1	-1	2750	294.103903446	stim	stop-signal	699	1965181	0.0-27.10-1.10	beast_fmri_test	338	1962633,/,1963312,/,1963990,/,1964671,/,1965351,/	t,t,t,t,t	<img class = center src='/static/experiments/beast_fmri_test/images/D.png'></img>	71,89	2750.0	test	<img class = center src='/static/experiments/beast_fmri_test/images/redD.png'></img>	stop	2350.0	2.0	10.0	stop	target	D	71,Index Finger	89,Middle Finger	400.0	450.0	2350.0	2300.0	0.0	1.0	400.0	n/a	ITI
274617	500.0	n/a	-1	-1	500	0.0	fixation	poldrack-single-stim	700	1966056	0.0-27.11-0.11	beast_fmri_test	338	1966030,/	t	<div class = centerbox2><div class = fixation>+</div></div>	none	500.0	test	n/a	n/a	n/a	n/a	n/a	n/a	n/a	n/a	n/a	n/a	n/a	n/a	n/a	n/a	n/a	n/a	n/a	n/a	fixation
272112.54218780482	2750.0	n/a	710	71	2750	2506.4578122	stim	stop-signal	701	1968808	0.0-27.11-1.11	beast_fmri_test	338	1966709,/,1967389,/,1968069,/,1968748,/,1969428,/,1970107,/,1970787,/	t,t,t,t,t,t,t	<img class = center src='/static/experiments/beast_fmri_test/images/V.png'></img>	71,89	2750.0	test	<img class = center src='/static/experiments/beast_fmri_test/images/redV.png'></img>	go	2300.0	2.0	11.0	go	target	V	71,Index Finger	89,Middle Finger	450.0	450.0	2300.0	2300.0	1.0	n/a	450.0	1.0	go_stim
274862.54218780482	2506.4578122	n/a	710	71	2750	2506.4578122	stim	stop-signal	701	1968808	0.0-27.11-1.11	beast_fmri_test	338	1966709,/,1967389,/,1968069,/,1968748,/,1969428,/,1970107,/,1970787,/	t,t,t,t,t,t,t	<img class = center src='/static/experiments/beast_fmri_test/images/V.png'></img>	71,89	2750.0	test	<img class = center src='/static/experiments/beast_fmri_test/images/redV.png'></img>	go	2300.0	2.0	11.0	go	target	V	71,Index Finger	89,Middle Finger	450.0	450.0	2300.0	2300.0	1.0	n/a	450.0	1.0	ITI
280442	500.0	n/a	-1	-1	500	0.0	fixation	poldrack-single-stim	702	1971881	0.0-27.12-0.12	beast_fmri_test	338	1971469,/	t	<div class = centerbox2><div class = fixation>+</div></div>	none	500.0	test	n/a	n/a	n/a	n/a	n/a	n/a	n/a	n/a	n/a	n/a	n/a	n/a	n/a	n/a	n/a	n/a	n/a	n/a	fixation
278550.12932961783	2750.0	n/a	666	71	2750	1893.87067038	stim	stop-signal	703	1974633	0.0-27.12-1.12	beast_fmri_test	338	1972146,/,1972827,/,1973506,/,1974186,/,1974866,/,1975545,/,1976224,/	t,t,t,t,t,t,t	<img class = center src='/static/experiments/beast_fmri_test/images/V.png'></img>	71,89	2750.0	test	<img class = center src='/static/experiments/beast_fmri_test/images/redV.png'></img>	go	2300.0	2.0	12.0	go	non-target	V	71,Index Finger	89,Middle Finger	450.0	450.0	2300.0	2300.0	0.0	n/a	450.0	0.0	go_stim
281300.12932961783	1893.87067038	n/a	666	71	2750	1893.87067038	stim	stop-signal	703	1974633	0.0-27.12-1.12	beast_fmri_test	338	1972146,/,1972827,/,1973506,/,1974186,/,1974866,/,1975545,/,1976224,/	t,t,t,t,t,t,t	<img class = center src='/static/experiments/beast_fmri_test/images/V.png'></img>	71,89	2750.0	test	<img class = center src='/static/experiments/beast_fmri_test/images/redV.png'></img>	go	2300.0	2.0	12.0	go	non-target	V	71,Index Finger	89,Middle Finger	450.0	450.0	2300.0	2300.0	0.0	n/a	450.0	0.0	ITI
285652	500.0	n/a	-1	-1	500	0.0	fixation	poldrack-single-stim	704	1977091	0.0-27.13-0.13	beast_fmri_test	338	1976905,/	t	<div class = centerbox2><div class = fixation>+</div></div>	none	500.0	test	n/a	n/a	n/a	n/a	n/a	n/a	n/a	n/a	n/a	n/a	n/a	n/a	n/a	n/a	n/a	n/a	n/a	n/a	fixation
285225.24870903604	450.0	n/a	612	71	2750	428.751290964	stim	stop-signal	705	1979843	0.0-27.13-1.13	beast_fmri_test	338	1977583,/,1978263,/,1978944,/,1979624,/	t,t,t,t	<img class = center src='/static/experiments/beast_fmri_test/images/D.png'></img>	71,89	2750.0	test	<img class = center src='/static/experiments/beast_fmri_test/images/redD.png'></img>	stop	2300.0	2.0	13.0	stop	non-target	D	71,Index Finger	89,Middle Finger	450.0	450.0	2300.0	2300.0	0.0	0.0	450.0	n/a	go_stim
287525.24870903604	2300.0	n/a	612	71	2750	428.751290964	stim	stop-signal	705	1979843	0.0-27.13-1.13	beast_fmri_test	338	1977583,/,1978263,/,1978944,/,1979624,/	t,t,t,t	<img class = center src='/static/experiments/beast_fmri_test/images/D.png'></img>	71,89	2750.0	test	<img class = center src='/static/experiments/beast_fmri_test/images/redD.png'></img>	stop	2300.0	2.0	13.0	stop	non-target	D	71,Index Finger	89,Middle Finger	450.0	450.0	2300.0	2300.0	0.0	0.0	450.0	n/a	stop_stim
287975.24870903604	428.751290964	n/a	612	71	2750	428.751290964	stim	stop-signal	705	1979843	0.0-27.13-1.13	beast_fmri_test	338	1977583,/,1978263,/,1978944,/,1979624,/	t,t,t,t	<img class = center src='/static/experiments/beast_fmri_test/images/D.png'></img>	71,89	2750.0	test	<img class = center src='/static/experiments/beast_fmri_test/images/redD.png'></img>	stop	2300.0	2.0	13.0	stop	non-target	D	71,Index Finger	89,Middle Finger	450.0	450.0	2300.0	2300.0	0.0	0.0	450.0	n/a	ITI
289401	500.0	n/a	-1	-1	500	0.0	fixation	poldrack-single-stim	706	1980840	0.0-27.14-0.14	beast_fmri_test	338	1980338,/	t	<div class = centerbox2><div class = fixation>+</div></div>	none	500.0	test	n/a	n/a	n/a	n/a	n/a	n/a	n/a	n/a	n/a	n/a	n/a	n/a	n/a	n/a	n/a	n/a	n/a	n/a	fixation
288511.54407433514	2750.0	n/a	1429	71	2750	890.455925665	stim	stop-signal	707	1983591	0.0-27.14-1.14	beast_fmri_test	338	1980983,/,1981663,/,1982342,/,1983021,/,1983702,/,1984382,/	t,t,t,t,t,t	<img class = center src='/static/experiments/beast_fmri_test/images/V.png'></img>	71,89	2750.0	test	<img class = center src='/static/experiments/beast_fmri_test/images/redV.png'></img>	go	2300.0	2.0	14.0	go	target	V	71,Index Finger	89,Middle Finger	450.0	400.0	2300.0	2300.0	1.0	n/a	450.0	1.0	go_stim
291261.54407433514	890.455925665	n/a	1429	71	2750	890.455925665	stim	stop-signal	707	1983591	0.0-27.14-1.14	beast_fmri_test	338	1980983,/,1981663,/,1982342,/,1983021,/,1983702,/,1984382,/	t,t,t,t,t,t	<img class = center src='/static/experiments/beast_fmri_test/images/V.png'></img>	71,89	2750.0	test	<img class = center src='/static/experiments/beast_fmri_test/images/redV.png'></img>	go	2300.0	2.0	14.0	go	target	V	71,Index Finger	89,Middle Finger	450.0	400.0	2300.0	2300.0	1.0	n/a	450.0	1.0	ITI
293604	500.0	n/a	-1	-1	500	0.0	fixation	poldrack-single-stim	708	1985043	0.0-27.15-0.15	beast_fmri_test	338	n/a	n/a	<div class = centerbox2><div class = fixation>+</div></div>	none	500.0	test	n/a	n/a	n/a	n/a	n/a	n/a	n/a	n/a	n/a	n/a	n/a	n/a	n/a	n/a	n/a	n/a	n/a	n/a	fixation
292929.65952118509	2750.0	n/a	506	89	2750	677.340478815	stim	stop-signal	709	1987796	0.0-27.15-1.15	beast_fmri_test	338	1985061,/,1985740,/,1986420,/,1987101,/,1987780,/,1988459,/	t,t,t,t,t,t	<img class = center src='/static/experiments/beast_fmri_test/images/B.png'></img>	71,89	2750.0	test	<img class = center src='/static/experiments/beast_fmri_test/images/redB.png'></img>	go	2350.0	2.0	15.0	go	non-target	B	71,Index Finger	89,Middle Finger	450.0	400.0	2300.0	2350.0	1.0	n/a	400.0	1.0	go_stim
295679.65952118509	677.340478815	n/a	506	89	2750	677.340478815	stim	stop-signal	709	1987796	0.0-27.15-1.15	beast_fmri_test	338	1985061,/,1985740,/,1986420,/,1987101,/,1987780,/,1988459,/	t,t,t,t,t,t	<img class = center src='/static/experiments/beast_fmri_test/images/B.png'></img>	71,89	2750.0	test	<img class = center src='/static/experiments/beast_fmri_test/images/redB.png'></img>	go	2350.0	2.0	15.0	go	non-target	B	71,Index Finger	89,Middle Finger	450.0	400.0	2300.0	2350.0	1.0	n/a	400.0	1.0	ITI
297608	500.0	n/a	-1	-1	500	0.0	fixation	poldrack-single-stim	710	1989047	0.0-27.16-0.16	beast_fmri_test	338	n/a	n/a	<div class = centerbox2><div class = fixation>+</div></div>	none	500.0	test	n/a	n/a	n/a	n/a	n/a	n/a	n/a	n/a	n/a	n/a	n/a	n/a	n/a	n/a	n/a	n/a	n/a	n/a	fixation
297320.9672296308	2750.0	n/a	916	89	2750	288.032770369	stim	stop-signal	711	1991798	0.0-27.16-1.16	beast_fmri_test	338	1989139,/,1989818,/,1990498,/,1991179,/,1991859,/	t,t,t,t,t	<img class = center src='/static/experiments/beast_fmri_test/images/B.png'></img>	71,89	2750.0	test	<img class = center src='/static/experiments/beast_fmri_test/images/redB.png'></img>	go	2350.0	2.0	16.0	go	non-target	B	71,Index Finger	89,Middle Finger	450.0	400.0	2300.0	2350.0	1.0	n/a	400.0	1.0	go_stim
300070.9672296308	288.032770369	n/a	916	89	2750	288.032770369	stim	stop-signal	711	1991798	0.0-27.16-1.16	beast_fmri_test	338	1989139,/,1989818,/,1990498,/,1991179,/,1991859,/	t,t,t,t,t	<img class = center src='/static/experiments/beast_fmri_test/images/B.png'></img>	71,89	2750.0	test	<img class = center src='/static/experiments/beast_fmri_test/images/redB.png'></img>	go	2350.0	2.0	16.0	go	non-target	B	71,Index Finger	89,Middle Finger	450.0	400.0	2300.0	2350.0	1.0	n/a	400.0	1.0	ITI
301224	500.0	n/a	-1	-1	500	0.0	fixation	poldrack-single-stim	712	1992663	0.0-27.17-0.17	beast_fmri_test	338	1992538,/	t	<div class = centerbox2><div class = fixation>+</div></div>	none	500.0	test	n/a	n/a	n/a	n/a	n/a	n/a	n/a	n/a	n/a	n/a	n/a	n/a	n/a	n/a	n/a	n/a	n/a	n/a	fixation
299957.65145316208	400.0	n/a	640	89	2750	1268.34854684	stim	stop-signal	713	1995415	0.0-27.17-1.17	beast_fmri_test	338	1993217,/,1993896,/,1994577,/,1995256,/,1995937,/,1996616,/	t,t,t,t,t,t	<img class = center src='/static/experiments/beast_fmri_test/images/P.png'></img>	71,89	2750.0	test	<img class = center src='/static/experiments/beast_fmri_test/images/redP.png'></img>	stop	2350.0	2.0	17.0	stop	non-target	P	71,Index Finger	89,Middle Finger	450.0	400.0	2300.0	2350.0	0.0	0.0	400.0	n/a	go_stim
302307.65145316208	2350.0	n/a	640	89	2750	1268.34854684	stim	stop-signal	713	1995415	0.0-27.17-1.17	beast_fmri_test	338	1993217,/,1993896,/,1994577,/,1995256,/,1995937,/,1996616,/	t,t,t,t,t,t	<img class = center src='/static/experiments/beast_fmri_test/images/P.png'></img>	71,89	2750.0	test	<img class = center src='/static/experiments/beast_fmri_test/images/redP.png'></img>	stop	2350.0	2.0	17.0	stop	non-target	P	71,Index Finger	89,Middle Finger	450.0	400.0	2300.0	2350.0	0.0	0.0	400.0	n/a	stop_stim
302707.65145316208	1268.34854684	n/a	640	89	2750	1268.34854684	stim	stop-signal	713	1995415	0.0-27.17-1.17	beast_fmri_test	338	1993217,/,1993896,/,1994577,/,1995256,/,1995937,/,1996616,/	t,t,t,t,t,t	<img class = center src='/static/experiments/beast_fmri_test/images/P.png'></img>	71,89	2750.0	test	<img class = center src='/static/experiments/beast_fmri_test/images/redP.png'></img>	stop	2350.0	2.0	17.0	stop	non-target	P	71,Index Finger	89,Middle Finger	450.0	400.0	2300.0	2350.0	0.0	0.0	400.0	n/a	ITI
305817	500.0	n/a	-1	-1	500	0.0	fixation	poldrack-single-stim	714	1997256	0.0-27.18-0.18	beast_fmri_test	338	n/a	n/a	<div class = centerbox2><div class = fixation>+</div></div>	none	500.0	test	n/a	n/a	n/a	n/a	n/a	n/a	n/a	n/a	n/a	n/a	n/a	n/a	n/a	n/a	n/a	n/a	n/a	n/a	fixation
302057.34334686445	350.0	n/a	-1	-1	2750	3762.65665314	stim	stop-signal	715	2000009	0.0-27.18-1.18	beast_fmri_test	338	1997295,/,1997976,/,1998655,/,1999335,/,2000013,/,2000694,/,2001374,/,2002053,/,2002732,/,2003413,/	t,t,t,t,t,t,t,t,t,t	<img class = center src='/static/experiments/beast_fmri_test/images/P.png'></img>	71,89	2750.0	test	<img class = center src='/static/experiments/beast_fmri_test/images/redP.png'></img>	stop	2400.0	2.0	18.0	stop	non-target	P	71,Index Finger	89,Middle Finger	450.0	350.0	2300.0	2400.0	0.0	1.0	350.0	n/a	go_stim
304457.34334686445	2400.0	n/a	-1	-1	2750	3762.65665314	stim	stop-signal	715	2000009	0.0-27.18-1.18	beast_fmri_test	338	1997295,/,1997976,/,1998655,/,1999335,/,2000013,/,2000694,/,2001374,/,2002053,/,2002732,/,2003413,/	t,t,t,t,t,t,t,t,t,t	<img class = center src='/static/experiments/beast_fmri_test/images/P.png'></img>	71,89	2750.0	test	<img class = center src='/static/experiments/beast_fmri_test/images/redP.png'></img>	stop	2400.0	2.0	18.0	stop	non-target	P	71,Index Finger	89,Middle Finger	450.0	350.0	2300.0	2400.0	0.0	1.0	350.0	n/a	stop_stim
304807.34334686445	3762.65665314	n/a	-1	-1	2750	3762.65665314	stim	stop-signal	715	2000009	0.0-27.18-1.18	beast_fmri_test	338	1997295,/,1997976,/,1998655,/,1999335,/,2000013,/,2000694,/,2001374,/,2002053,/,2002732,/,2003413,/	t,t,t,t,t,t,t,t,t,t	<img class = center src='/static/experiments/beast_fmri_test/images/P.png'></img>	71,89	2750.0	test	<img class = center src='/static/experiments/beast_fmri_test/images/redP.png'></img>	stop	2400.0	2.0	18.0	stop	non-target	P	71,Index Finger	89,Middle Finger	450.0	350.0	2300.0	2400.0	0.0	1.0	350.0	n/a	ITI
312905	500.0	n/a	-1	-1	500	0.0	fixation	poldrack-single-stim	716	2004344	0.0-27.19-0.19	beast_fmri_test	338	2004091,/	t	<div class = centerbox2><div class = fixation>+</div></div>	none	500.0	test	n/a	n/a	n/a	n/a	n/a	n/a	n/a	n/a	n/a	n/a	n/a	n/a	n/a	n/a	n/a	n/a	n/a	n/a	fixation
312804.54126532236	2750.0	n/a	565	89	2750	101.458734678	stim	stop-signal	717	2007095	0.0-27.19-1.19	beast_fmri_test	338	2004771,/,2005452,/,2006131,/,2006810,/	t,t,t,t	<img class = center src='/static/experiments/beast_fmri_test/images/D.png'></img>	71,89	2750.0	test	<img class = center src='/static/experiments/beast_fmri_test/images/redD.png'></img>	go	2350.0	2.0	19.0	go	non-target	D	71,Index Finger	89,Middle Finger	450.0	400.0	2300.0	2350.0	1.0	n/a	400.0	1.0	go_stim
315554.54126532236	101.458734678	n/a	565	89	2750	101.458734678	stim	stop-signal	717	2007095	0.0-27.19-1.19	beast_fmri_test	338	2004771,/,2005452,/,2006131,/,2006810,/	t,t,t,t	<img class = center src='/static/experiments/beast_fmri_test/images/D.png'></img>	71,89	2750.0	test	<img class = center src='/static/experiments/beast_fmri_test/images/redD.png'></img>	go	2350.0	2.0	19.0	go	non-target	D	71,Index Finger	89,Middle Finger	450.0	400.0	2300.0	2350.0	1.0	n/a	400.0	1.0	ITI
316332	500.0	n/a	-1	-1	500	0.0	fixation	poldrack-single-stim	718	2007771	0.0-27.20-0.20	beast_fmri_test	338	2007491,/	t	<div class = centerbox2><div class = fixation>+</div></div>	none	500.0	test	n/a	n/a	n/a	n/a	n/a	n/a	n/a	n/a	n/a	n/a	n/a	n/a	n/a	n/a	n/a	n/a	n/a	n/a	fixation
316104.96204073308	400.0	n/a	653	89	2750	229.037959267	stim	stop-signal	719	2010523	0.0-27.20-1.20	beast_fmri_test	338	2008171,/,2008850,/,2009529,/,2010208,/	t,t,t,t	<img class = center src='/static/experiments/beast_fmri_test/images/V.png'></img>	71,89	2750.0	test	<img class = center src='/static/experiments/beast_fmri_test/images/redV.png'></img>	stop	2350.0	2.0	20.0	stop	non-target	V	71,Index Finger	89,Middle Finger	450.0	400.0	2300.0	2350.0	0.0	0.0	400.0	n/a	go_stim
318454.96204073308	2350.0	n/a	653	89	2750	229.037959267	stim	stop-signal	719	2010523	0.0-27.20-1.20	beast_fmri_test	338	2008171,/,2008850,/,2009529,/,2010208,/	t,t,t,t	<img class = center src='/static/experiments/beast_fmri_test/images/V.png'></img>	71,89	2750.0	test	<img class = center src='/static/experiments/beast_fmri_test/images/redV.png'></img>	stop	2350.0	2.0	20.0	stop	non-target	V	71,Index Finger	89,Middle Finger	450.0	400.0	2300.0	2350.0	0.0	0.0	400.0	n/a	stop_stim
318854.96204073308	229.037959267	n/a	653	89	2750	229.037959267	stim	stop-signal	719	2010523	0.0-27.20-1.20	beast_fmri_test	338	2008171,/,2008850,/,2009529,/,2010208,/	t,t,t,t	<img class = center src='/static/experiments/beast_fmri_test/images/V.png'></img>	71,89	2750.0	test	<img class = center src='/static/experiments/beast_fmri_test/images/redV.png'></img>	stop	2350.0	2.0	20.0	stop	non-target	V	71,Index Finger	89,Middle Finger	450.0	400.0	2300.0	2350.0	0.0	0.0	400.0	n/a	ITI
319886	500.0	n/a	-1	-1	500	0.0	fixation	poldrack-single-stim	720	2011325	0.0-27.21-0.21	beast_fmri_test	338	2010888,/	t	<div class = centerbox2><div class = fixation>+</div></div>	none	500.0	test	n/a	n/a	n/a	n/a	n/a	n/a	n/a	n/a	n/a	n/a	n/a	n/a	n/a	n/a	n/a	n/a	n/a	n/a	fixation
319716.17720082169	2750.0	n/a	2041	71	2750	171.822799178	stim	stop-signal	721	2014077	0.0-27.21-1.21	beast_fmri_test	338	2011569,/,2012249,/,2012928,/,2013608,/	t,t,t,t	<img class = center src='/static/experiments/beast_fmri_test/images/T.png'></img>	71,89	2750.0	test	<img class = center src='/static/experiments/beast_fmri_test/images/redT.png'></img>	go	2400.0	2.0	21.0	go	non-target	T	71,Index Finger	89,Middle Finger	450.0	350.0	2300.0	2400.0	0.0	n/a	350.0	0.0	go_stim
322466.17720082169	171.822799178	n/a	2041	71	2750	171.822799178	stim	stop-signal	721	2014077	0.0-27.21-1.21	beast_fmri_test	338	2011569,/,2012249,/,2012928,/,2013608,/	t,t,t,t	<img class = center src='/static/experiments/beast_fmri_test/images/T.png'></img>	71,89	2750.0	test	<img class = center src='/static/experiments/beast_fmri_test/images/redT.png'></img>	go	2400.0	2.0	21.0	go	non-target	T	71,Index Finger	89,Middle Finger	450.0	350.0	2300.0	2400.0	0.0	n/a	350.0	0.0	ITI
323389	500.0	n/a	-1	-1	500	0.0	fixation	poldrack-single-stim	722	2014828	0.0-27.22-0.22	beast_fmri_test	338	2014326,/	t	<div class = centerbox2><div class = fixation>+</div></div>	none	500.0	test	n/a	n/a	n/a	n/a	n/a	n/a	n/a	n/a	n/a	n/a	n/a	n/a	n/a	n/a	n/a	n/a	n/a	n/a	fixation
322512.16650361056	450.0	n/a	591	89	2750	879.83349639	stim	stop-signal	723	2017581	0.0-27.22-1.22	beast_fmri_test	338	2014967,/,2015648,/,2016327,/,2017007,/,2017687,/,2018365,/	t,t,t,t,t,t	<img class = center src='/static/experiments/beast_fmri_test/images/V.png'></img>	71,89	2750.0	test	<img class = center src='/static/experiments/beast_fmri_test/images/redV.png'></img>	stop	2300.0	2.0	22.0	stop	target	V	71,Index Finger	89,Middle Finger	450.0	350.0	2300.0	2400.0	0.0	0.0	450.0	n/a	go_stim
