onset	duration	text	rt	key_press	block_duration	timing_post_trial	trial_id	trial_type	trial_index	time_elapsed	internal_node_id	exp_id	subject_id	trigger_times	triggers	stimulus	possible_responses	stim_duration	exp_stage	SS_stimulus	SS_trial_type	SS_duration	load	trial_num	stop_trial_type	adaptive_trial_type	stim	yes_response_key	no_response_key	SSD_target	SSD_non_target	SSTarget	SSNonTarget	go_acc	stop_acc	SS_delay	adaptive_acc	new_trial_type
test	10880	n/a	-1	-1	10880	0.0	practice-no-stop-feedback	poldrack-single-stim	198	677970	0.0-12.0	beast_fmri_test	338	667094,/,667772,/,668451,/,669132,/,669812,/,670490,/,671171,/,671849,/,672528,/,673209,/,673889,/,674569,/,675249,/,675930,/,676606,/,677286,/,677967,/	t,t,t,t,t,t,t,t,t,t,t,t,t,t,t,t,t	"<div class = ""centerbox""><p class = ""block-text"">Your delay is 2 trials.</p><p class = block-text>Please wait for the scanner to start the block</p></div>"	77	10880.0	n/a	n/a	n/a	n/a	n/a	n/a	n/a	n/a	n/a	n/a	n/a	n/a	n/a	n/a	n/a	n/a	n/a	n/a	n/a	start_functional_block
11379	500	n/a	-1	-1	500	0.0	fixation	poldrack-single-stim	199	678473	0.0-13.0-0.0	beast_fmri_test	338	n/a	n/a	<div class = centerbox2><div class = fixation>+</div></div>	none	500.0	test	n/a	n/a	n/a	n/a	n/a	n/a	n/a	n/a	n/a	n/a	n/a	n/a	n/a	n/a	n/a	n/a	n/a	n/a	fixation
10935.463014779496	2750	n/a	1193	89	2750	445.536985221	stim	stop-signal	200	681225	0.0-13.0-1.0	beast_fmri_test	338	678646,/,679326,/,680006,/,680684,/,681365,/	t,t,t,t,t	<img class = center src='/static/experiments/beast_fmri_test/images/P.png'></img>	71,89	2750.0	test	<img class = center src='/static/experiments/beast_fmri_test/images/redP.png'></img>	go	-1.0	2.0	0.0	go	temp-non-target	P	71,Index Finger	89,Middle Finger	400.0	500.0	2400.0	2250.0	0.0	n/a	n/a	n/a	go_stim
13685.463014779496	445.53698522053293	n/a	1193	89	2750	445.536985221	stim	stop-signal	200	681225	0.0-13.0-1.0	beast_fmri_test	338	678646,/,679326,/,680006,/,680684,/,681365,/	t,t,t,t,t	<img class = center src='/static/experiments/beast_fmri_test/images/P.png'></img>	71,89	2750.0	test	<img class = center src='/static/experiments/beast_fmri_test/images/redP.png'></img>	go	-1.0	2.0	0.0	go	temp-non-target	P	71,Index Finger	89,Middle Finger	400.0	500.0	2400.0	2250.0	0.0	n/a	n/a	n/a	ITI
15105	500	n/a	-1	-1	500	0.0	fixation	poldrack-single-stim	201	682199	0.0-13.1-0.1	beast_fmri_test	338	682045,/	t	<div class = centerbox2><div class = fixation>+</div></div>	none	500.0	test	n/a	n/a	n/a	n/a	n/a	n/a	n/a	n/a	n/a	n/a	n/a	n/a	n/a	n/a	n/a	n/a	n/a	n/a	fixation
14481.430575728999	temp_go_duration	n/a	583	89	2750	626.569424271	stim	stop-signal	202	684952	0.0-13.1-1.1	beast_fmri_test	338	682724,/,683403,/,684083,/,684763,/,685442,/	t,t,t,t,t	<img class = center src='/static/experiments/beast_fmri_test/images/B.png'></img>	71,89	2750.0	test	<img class = center src='/static/experiments/beast_fmri_test/images/redB.png'></img>	stop	-1.0	2.0	1.0	stop	temp-non-target	B	71,Index Finger	89,Middle Finger	400.0	500.0	2400.0	2250.0	0.0	0.0	n/a	n/a	go_stim
temp-non-target	temp_stop_duration	n/a	583	89	2750	626.569424271	stim	stop-signal	202	684952	0.0-13.1-1.1	beast_fmri_test	338	682724,/,683403,/,684083,/,684763,/,685442,/	t,t,t,t,t	<img class = center src='/static/experiments/beast_fmri_test/images/B.png'></img>	71,89	2750.0	test	<img class = center src='/static/experiments/beast_fmri_test/images/redB.png'></img>	stop	-1.0	2.0	1.0	stop	temp-non-target	B	71,Index Finger	89,Middle Finger	400.0	500.0	2400.0	2250.0	0.0	0.0	n/a	n/a	stop_stim
17231.430575728999	626.56942427104946	n/a	583	89	2750	626.569424271	stim	stop-signal	202	684952	0.0-13.1-1.1	beast_fmri_test	338	682724,/,683403,/,684083,/,684763,/,685442,/	t,t,t,t,t	<img class = center src='/static/experiments/beast_fmri_test/images/B.png'></img>	71,89	2750.0	test	<img class = center src='/static/experiments/beast_fmri_test/images/redB.png'></img>	stop	-1.0	2.0	1.0	stop	temp-non-target	B	71,Index Finger	89,Middle Finger	400.0	500.0	2400.0	2250.0	0.0	0.0	n/a	n/a	ITI
19011	500	n/a	-1	-1	500	0.0	fixation	poldrack-single-stim	203	686105	0.0-13.2-0.2	beast_fmri_test	338	n/a	n/a	<div class = centerbox2><div class = fixation>+</div></div>	none	500.0	test	n/a	n/a	n/a	n/a	n/a	n/a	n/a	n/a	n/a	n/a	n/a	n/a	n/a	n/a	n/a	n/a	n/a	n/a	fixation
15503.992684126599	2750	n/a	560	89	2750	3508.00731587	stim	stop-signal	204	688856	0.0-13.2-1.2	beast_fmri_test	338	686122,/,686803,/,687482,/,688162,/,688841,/,689521,/,690202,/,690880,/,691559,/,692240,/	t,t,t,t,t,t,t,t,t,t	<img class = center src='/static/experiments/beast_fmri_test/images/D.png'></img>	71,89	2750.0	test	<img class = center src='/static/experiments/beast_fmri_test/images/redD.png'></img>	go	2250.0	2.0	2.0	go	non-target	D	71,Index Finger	89,Middle Finger	400.0	500.0	2400.0	2250.0	1.0	n/a	500.0	1.0	go_stim
18253.992684126599	3508.007315873399	n/a	560	89	2750	3508.00731587	stim	stop-signal	204	688856	0.0-13.2-1.2	beast_fmri_test	338	686122,/,686803,/,687482,/,688162,/,688841,/,689521,/,690202,/,690880,/,691559,/,692240,/	t,t,t,t,t,t,t,t,t,t	<img class = center src='/static/experiments/beast_fmri_test/images/D.png'></img>	71,89	2750.0	test	<img class = center src='/static/experiments/beast_fmri_test/images/redD.png'></img>	go	2250.0	2.0	2.0	go	non-target	D	71,Index Finger	89,Middle Finger	400.0	500.0	2400.0	2250.0	1.0	n/a	500.0	1.0	ITI
25797	500	n/a	-1	-1	500	0.0	fixation	poldrack-single-stim	205	692891	0.0-13.3-0.3	beast_fmri_test	338	n/a	n/a	<div class = centerbox2><div class = fixation>+</div></div>	none	500.0	test	n/a	n/a	n/a	n/a	n/a	n/a	n/a	n/a	n/a	n/a	n/a	n/a	n/a	n/a	n/a	n/a	n/a	n/a	fixation
24308.856911419891	2750	n/a	428	71	2750	1488.14308858	stim	stop-signal	206	695641	0.0-13.3-1.3	beast_fmri_test	338	692919,/,693600,/,694279,/,694959,/,695639,/,696319,/,696999,/	t,t,t,t,t,t,t	<img class = center src='/static/experiments/beast_fmri_test/images/B.png'></img>	71,89	2750.0	test	<img class = center src='/static/experiments/beast_fmri_test/images/redB.png'></img>	go	2350.0	2.0	3.0	go	target	B	71,Index Finger	89,Middle Finger	400.0	500.0	2350.0	2250.0	1.0	n/a	400.0	1.0	go_stim
27058.856911419891	1488.1430885800828	n/a	428	71	2750	1488.14308858	stim	stop-signal	206	695641	0.0-13.3-1.3	beast_fmri_test	338	692919,/,693600,/,694279,/,694959,/,695639,/,696319,/,696999,/	t,t,t,t,t,t,t	<img class = center src='/static/experiments/beast_fmri_test/images/B.png'></img>	71,89	2750.0	test	<img class = center src='/static/experiments/beast_fmri_test/images/redB.png'></img>	go	2350.0	2.0	3.0	go	target	B	71,Index Finger	89,Middle Finger	400.0	500.0	2350.0	2250.0	1.0	n/a	400.0	1.0	ITI
30563	500	n/a	-1	-1	500	0.0	fixation	poldrack-single-stim	207	697657	0.0-13.4-0.4	beast_fmri_test	338	n/a	n/a	<div class = centerbox2><div class = fixation>+</div></div>	none	500.0	test	n/a	n/a	n/a	n/a	n/a	n/a	n/a	n/a	n/a	n/a	n/a	n/a	n/a	n/a	n/a	n/a	n/a	n/a	fixation
30128.087909428868	500.0	n/a	695	89	2750	436.912090571	stim	stop-signal	208	700409	0.0-13.4-1.4	beast_fmri_test	338	697677,/,698356,/,699036,/,699716,/,700397,/	t,t,t,t,t	<img class = center src='/static/experiments/beast_fmri_test/images/B.png'></img>	71,89	2750.0	test	<img class = center src='/static/experiments/beast_fmri_test/images/redB.png'></img>	stop	2250.0	2.0	4.0	stop	non-target	B	71,Index Finger	89,Middle Finger	400.0	500.0	2350.0	2250.0	0.0	0.0	500.0	n/a	go_stim
32378.087909428868	2250.0	n/a	695	89	2750	436.912090571	stim	stop-signal	208	700409	0.0-13.4-1.4	beast_fmri_test	338	697677,/,698356,/,699036,/,699716,/,700397,/	t,t,t,t,t	<img class = center src='/static/experiments/beast_fmri_test/images/B.png'></img>	71,89	2750.0	test	<img class = center src='/static/experiments/beast_fmri_test/images/redB.png'></img>	stop	2250.0	2.0	4.0	stop	non-target	B	71,Index Finger	89,Middle Finger	400.0	500.0	2350.0	2250.0	0.0	0.0	500.0	n/a	stop_stim
32878.087909428868	436.91209057111473	n/a	695	89	2750	436.912090571	stim	stop-signal	208	700409	0.0-13.4-1.4	beast_fmri_test	338	697677,/,698356,/,699036,/,699716,/,700397,/	t,t,t,t,t	<img class = center src='/static/experiments/beast_fmri_test/images/B.png'></img>	71,89	2750.0	test	<img class = center src='/static/experiments/beast_fmri_test/images/redB.png'></img>	stop	2250.0	2.0	4.0	stop	non-target	B	71,Index Finger	89,Middle Finger	400.0	500.0	2350.0	2250.0	0.0	0.0	500.0	n/a	ITI
34284	500	n/a	-1	-1	500	0.0	fixation	poldrack-single-stim	209	701378	0.0-13.5-0.5	beast_fmri_test	338	701076,/	t	<div class = centerbox2><div class = fixation>+</div></div>	none	500.0	test	n/a	n/a	n/a	n/a	n/a	n/a	n/a	n/a	n/a	n/a	n/a	n/a	n/a	n/a	n/a	n/a	n/a	n/a	fixation
32051.850141746458	2750	n/a	959	71	2750	2233.14985825	stim	stop-signal	210	704129	0.0-13.5-1.5	beast_fmri_test	338	701755,/,702435,/,703116,/,703795,/,704473,/,705153,/,705834,/	t,t,t,t,t,t,t	<img class = center src='/static/experiments/beast_fmri_test/images/B.png'></img>	71,89	2750.0	test	<img class = center src='/static/experiments/beast_fmri_test/images/redB.png'></img>	go	2350.0	2.0	5.0	go	target	B	71,Index Finger	89,Middle Finger	400.0	450.0	2350.0	2250.0	1.0	n/a	400.0	1.0	go_stim
34801.850141746458	2233.1498582534959	n/a	959	71	2750	2233.14985825	stim	stop-signal	210	704129	0.0-13.5-1.5	beast_fmri_test	338	701755,/,702435,/,703116,/,703795,/,704473,/,705153,/,705834,/	t,t,t,t,t,t,t	<img class = center src='/static/experiments/beast_fmri_test/images/B.png'></img>	71,89	2750.0	test	<img class = center src='/static/experiments/beast_fmri_test/images/redB.png'></img>	go	2350.0	2.0	5.0	go	target	B	71,Index Finger	89,Middle Finger	400.0	450.0	2350.0	2250.0	1.0	n/a	400.0	1.0	ITI
39794	500	n/a	-1	-1	500	0.0	fixation	poldrack-single-stim	211	706888	0.0-13.6-0.6	beast_fmri_test	338	706514,/	t	<div class = centerbox2><div class = fixation>+</div></div>	none	500.0	test	n/a	n/a	n/a	n/a	n/a	n/a	n/a	n/a	n/a	n/a	n/a	n/a	n/a	n/a	n/a	n/a	n/a	n/a	fixation
39724.34612001013	2750	n/a	916	89	2750	71.6538799899	stim	stop-signal	212	709640	0.0-13.6-1.6	beast_fmri_test	338	707193,/,707873,/,708552,/,709231,/	t,t,t,t	<img class = center src='/static/experiments/beast_fmri_test/images/D.png'></img>	71,89	2750.0	test	<img class = center src='/static/experiments/beast_fmri_test/images/redD.png'></img>	go	2300.0	2.0	6.0	go	non-target	D	71,Index Finger	89,Middle Finger	400.0	450.0	2350.0	2300.0	1.0	n/a	450.0	1.0	go_stim
42474.34612001013	71.653879989889901	n/a	916	89	2750	71.6538799899	stim	stop-signal	212	709640	0.0-13.6-1.6	beast_fmri_test	338	707193,/,707873,/,708552,/,709231,/	t,t,t,t	<img class = center src='/static/experiments/beast_fmri_test/images/D.png'></img>	71,89	2750.0	test	<img class = center src='/static/experiments/beast_fmri_test/images/redD.png'></img>	go	2300.0	2.0	6.0	go	non-target	D	71,Index Finger	89,Middle Finger	400.0	450.0	2350.0	2300.0	1.0	n/a	450.0	1.0	ITI
43145	500	n/a	-1	-1	500	0.0	fixation	poldrack-single-stim	213	710239	0.0-13.7-0.7	beast_fmri_test	338	709911,/	t	<div class = centerbox2><div class = fixation>+</div></div>	none	500.0	test	n/a	n/a	n/a	n/a	n/a	n/a	n/a	n/a	n/a	n/a	n/a	n/a	n/a	n/a	n/a	n/a	n/a	n/a	fixation
40489.398885914008	2750	n/a	961	71	2750	2657.60111409	stim	stop-signal	214	712991	0.0-13.7-1.7	beast_fmri_test	338	710592,/,711271,/,711951,/,712630,/,713310,/,713990,/,714669,/,715348,/	t,t,t,t,t,t,t,t	<img class = center src='/static/experiments/beast_fmri_test/images/V.png'></img>	71,89	2750.0	test	<img class = center src='/static/experiments/beast_fmri_test/images/redV.png'></img>	go	2300.0	2.0	7.0	go	non-target	V	71,Index Finger	89,Middle Finger	400.0	450.0	2350.0	2300.0	0.0	n/a	450.0	0.0	go_stim
43239.398885914008	2657.6011140860405	n/a	961	71	2750	2657.60111409	stim	stop-signal	214	712991	0.0-13.7-1.7	beast_fmri_test	338	710592,/,711271,/,711951,/,712630,/,713310,/,713990,/,714669,/,715348,/	t,t,t,t,t,t,t,t	<img class = center src='/static/experiments/beast_fmri_test/images/V.png'></img>	71,89	2750.0	test	<img class = center src='/static/experiments/beast_fmri_test/images/redV.png'></img>	go	2300.0	2.0	7.0	go	non-target	V	71,Index Finger	89,Middle Finger	400.0	450.0	2350.0	2300.0	0.0	n/a	450.0	0.0	ITI
49083	500	n/a	-1	-1	500	0.0	fixation	poldrack-single-stim	215	716177	0.0-13.8-0.8	beast_fmri_test	338	716028,/	t	<div class = centerbox2><div class = fixation>+</div></div>	none	500.0	test	n/a	n/a	n/a	n/a	n/a	n/a	n/a	n/a	n/a	n/a	n/a	n/a	n/a	n/a	n/a	n/a	n/a	n/a	fixation
47700.458526567207	2750	n/a	836	71	2750	1383.54147343	stim	stop-signal	216	718928	0.0-13.8-1.8	beast_fmri_test	338	716709,/,717387,/,718068,/,718747,/,719427,/,720107,/	t,t,t,t,t,t	<img class = center src='/static/experiments/beast_fmri_test/images/D.png'></img>	71,89	2750.0	test	<img class = center src='/static/experiments/beast_fmri_test/images/redD.png'></img>	go	2350.0	2.0	8.0	go	target	D	71,Index Finger	89,Middle Finger	400.0	450.0	2350.0	2300.0	1.0	n/a	400.0	1.0	go_stim
50450.458526567207	1383.5414734327435	n/a	836	71	2750	1383.54147343	stim	stop-signal	216	718928	0.0-13.8-1.8	beast_fmri_test	338	716709,/,717387,/,718068,/,718747,/,719427,/,720107,/	t,t,t,t,t,t	<img class = center src='/static/experiments/beast_fmri_test/images/D.png'></img>	71,89	2750.0	test	<img class = center src='/static/experiments/beast_fmri_test/images/redD.png'></img>	go	2350.0	2.0	8.0	go	target	D	71,Index Finger	89,Middle Finger	400.0	450.0	2350.0	2300.0	1.0	n/a	400.0	1.0	ITI
53747	500	n/a	-1	-1	500	0.0	fixation	poldrack-single-stim	217	720841	0.0-13.9-0.9	beast_fmri_test	338	720787,/	t	<div class = centerbox2><div class = fixation>+</div></div>	none	500.0	test	n/a	n/a	n/a	n/a	n/a	n/a	n/a	n/a	n/a	n/a	n/a	n/a	n/a	n/a	n/a	n/a	n/a	n/a	fixation
51887.981265404727	450.0	n/a	702	89	2750	1863.0187346	stim	stop-signal	218	723595	0.0-13.9-1.9	beast_fmri_test	338	721466,/,722146,/,722825,/,723505,/,724185,/,724865,/	t,t,t,t,t,t	<img class = center src='/static/experiments/beast_fmri_test/images/B.png'></img>	71,89	2750.0	test	<img class = center src='/static/experiments/beast_fmri_test/images/redB.png'></img>	stop	2300.0	2.0	9.0	stop	non-target	B	71,Index Finger	89,Middle Finger	400.0	450.0	2350.0	2300.0	0.0	0.0	450.0	n/a	go_stim
54187.981265404727	2300.0	n/a	702	89	2750	1863.0187346	stim	stop-signal	218	723595	0.0-13.9-1.9	beast_fmri_test	338	721466,/,722146,/,722825,/,723505,/,724185,/,724865,/	t,t,t,t,t,t	<img class = center src='/static/experiments/beast_fmri_test/images/B.png'></img>	71,89	2750.0	test	<img class = center src='/static/experiments/beast_fmri_test/images/redB.png'></img>	stop	2300.0	2.0	9.0	stop	non-target	B	71,Index Finger	89,Middle Finger	400.0	450.0	2350.0	2300.0	0.0	0.0	450.0	n/a	stop_stim
54637.981265404727	1863.0187345952395	n/a	702	89	2750	1863.0187346	stim	stop-signal	218	723595	0.0-13.9-1.9	beast_fmri_test	338	721466,/,722146,/,722825,/,723505,/,724185,/,724865,/	t,t,t,t,t,t	<img class = center src='/static/experiments/beast_fmri_test/images/B.png'></img>	71,89	2750.0	test	<img class = center src='/static/experiments/beast_fmri_test/images/redB.png'></img>	stop	2300.0	2.0	9.0	stop	non-target	B	71,Index Finger	89,Middle Finger	400.0	450.0	2350.0	2300.0	0.0	0.0	450.0	n/a	ITI
58893	500	n/a	-1	-1	500	0.0	fixation	poldrack-single-stim	219	725987	0.0-13.10-0.10	beast_fmri_test	338	725545,/	t	<div class = centerbox2><div class = fixation>+</div></div>	none	500.0	test	n/a	n/a	n/a	n/a	n/a	n/a	n/a	n/a	n/a	n/a	n/a	n/a	n/a	n/a	n/a	n/a	n/a	n/a	fixation
58099.871496031526	2750	n/a	1167	71	2750	794.128503969	stim	stop-signal	220	728738	0.0-13.10-1.10	beast_fmri_test	338	726225,/,726904,/,727583,/,728264,/,728944,/	t,t,t,t,t	<img class = center src='/static/experiments/beast_fmri_test/images/D.png'></img>	71,89	2750.0	test	<img class = center src='/static/experiments/beast_fmri_test/images/redD.png'></img>	go	2350.0	2.0	10.0	go	target	D	71,Index Finger	89,Middle Finger	400.0	400.0	2350.0	2300.0	1.0	n/a	400.0	1.0	go_stim
60849.871496031526	794.1285039685298	n/a	1167	71	2750	794.128503969	stim	stop-signal	220	728738	0.0-13.10-1.10	beast_fmri_test	338	726225,/,726904,/,727583,/,728264,/,728944,/	t,t,t,t,t	<img class = center src='/static/experiments/beast_fmri_test/images/D.png'></img>	71,89	2750.0	test	<img class = center src='/static/experiments/beast_fmri_test/images/redD.png'></img>	go	2350.0	2.0	10.0	go	target	D	71,Index Finger	89,Middle Finger	400.0	400.0	2350.0	2300.0	1.0	n/a	400.0	1.0	ITI
62965	500	n/a	-1	-1	500	0.0	fixation	poldrack-single-stim	221	730059	0.0-13.11-0.11	beast_fmri_test	338	729623,/	t	<div class = centerbox2><div class = fixation>+</div></div>	none	500.0	test	n/a	n/a	n/a	n/a	n/a	n/a	n/a	n/a	n/a	n/a	n/a	n/a	n/a	n/a	n/a	n/a	n/a	n/a	fixation
62749.259835978388	400.0	n/a	538	89	2750	217.740164022	stim	stop-signal	222	732811	0.0-13.11-1.11	beast_fmri_test	338	730302,/,730983,/,731662,/,732341,/,733020,/	t,t,t,t,t	<img class = center src='/static/experiments/beast_fmri_test/images/P.png'></img>	71,89	2750.0	test	<img class = center src='/static/experiments/beast_fmri_test/images/redP.png'></img>	stop	2350.0	2.0	11.0	stop	non-target	P	71,Index Finger	89,Middle Finger	400.0	400.0	2350.0	2350.0	0.0	0.0	400.0	n/a	go_stim
65099.259835978388	2350.0	n/a	538	89	2750	217.740164022	stim	stop-signal	222	732811	0.0-13.11-1.11	beast_fmri_test	338	730302,/,730983,/,731662,/,732341,/,733020,/	t,t,t,t,t	<img class = center src='/static/experiments/beast_fmri_test/images/P.png'></img>	71,89	2750.0	test	<img class = center src='/static/experiments/beast_fmri_test/images/redP.png'></img>	stop	2350.0	2.0	11.0	stop	non-target	P	71,Index Finger	89,Middle Finger	400.0	400.0	2350.0	2350.0	0.0	0.0	400.0	n/a	stop_stim
65499.259835978388	217.74016402163707	n/a	538	89	2750	217.740164022	stim	stop-signal	222	732811	0.0-13.11-1.11	beast_fmri_test	338	730302,/,730983,/,731662,/,732341,/,733020,/	t,t,t,t,t	<img class = center src='/static/experiments/beast_fmri_test/images/P.png'></img>	71,89	2750.0	test	<img class = center src='/static/experiments/beast_fmri_test/images/redP.png'></img>	stop	2350.0	2.0	11.0	stop	non-target	P	71,Index Finger	89,Middle Finger	400.0	400.0	2350.0	2350.0	0.0	0.0	400.0	n/a	ITI
66463	500	n/a	-1	-1	500	0.0	fixation	poldrack-single-stim	223	733557	0.0-13.12-0.12	beast_fmri_test	338	n/a	n/a	<div class = centerbox2><div class = fixation>+</div></div>	none	500.0	test	n/a	n/a	n/a	n/a	n/a	n/a	n/a	n/a	n/a	n/a	n/a	n/a	n/a	n/a	n/a	n/a	n/a	n/a	fixation
66417.773786105216	2750	n/a	1091	89	2750	48.2262138948	stim	stop-signal	224	736310	0.0-13.12-1.12	beast_fmri_test	338	733701,/,734381,/,735060,/,735740,/	t,t,t,t	<img class = center src='/static/experiments/beast_fmri_test/images/T.png'></img>	71,89	2750.0	test	<img class = center src='/static/experiments/beast_fmri_test/images/redT.png'></img>	go	2400.0	2.0	12.0	go	non-target	T	71,Index Finger	89,Middle Finger	400.0	350.0	2350.0	2400.0	1.0	n/a	350.0	1.0	go_stim
69167.773786105216	48.226213894807842	n/a	1091	89	2750	48.2262138948	stim	stop-signal	224	736310	0.0-13.12-1.12	beast_fmri_test	338	733701,/,734381,/,735060,/,735740,/	t,t,t,t	<img class = center src='/static/experiments/beast_fmri_test/images/T.png'></img>	71,89	2750.0	test	<img class = center src='/static/experiments/beast_fmri_test/images/redT.png'></img>	go	2400.0	2.0	12.0	go	non-target	T	71,Index Finger	89,Middle Finger	400.0	350.0	2350.0	2400.0	1.0	n/a	350.0	1.0	ITI
69794	500	n/a	-1	-1	500	0.0	fixation	poldrack-single-stim	225	736888	0.0-13.13-0.13	beast_fmri_test	338	736418,/	t	<div class = centerbox2><div class = fixation>+</div></div>	none	500.0	test	n/a	n/a	n/a	n/a	n/a	n/a	n/a	n/a	n/a	n/a	n/a	n/a	n/a	n/a	n/a	n/a	n/a	n/a	fixation
69642.08591478318	350.0	n/a	-1	-1	2750	153.914085217	stim	stop-signal	226	739640	0.0-13.13-1.13	beast_fmri_test	338	737099,/,737778,/,738459,/,739138,/	t,t,t,t	<img class = center src='/static/experiments/beast_fmri_test/images/T.png'></img>	71,89	2750.0	test	<img class = center src='/static/experiments/beast_fmri_test/images/redT.png'></img>	stop	2400.0	2.0	13.0	stop	non-target	T	71,Index Finger	89,Middle Finger	400.0	350.0	2350.0	2400.0	0.0	1.0	350.0	n/a	go_stim
72042.08591478318	2400.0	n/a	-1	-1	2750	153.914085217	stim	stop-signal	226	739640	0.0-13.13-1.13	beast_fmri_test	338	737099,/,737778,/,738459,/,739138,/	t,t,t,t	<img class = center src='/static/experiments/beast_fmri_test/images/T.png'></img>	71,89	2750.0	test	<img class = center src='/static/experiments/beast_fmri_test/images/redT.png'></img>	stop	2400.0	2.0	13.0	stop	non-target	T	71,Index Finger	89,Middle Finger	400.0	350.0	2350.0	2400.0	0.0	1.0	350.0	n/a	stop_stim
72392.08591478318	153.91408521684397	n/a	-1	-1	2750	153.914085217	stim	stop-signal	226	739640	0.0-13.13-1.13	beast_fmri_test	338	737099,/,737778,/,738459,/,739138,/	t,t,t,t	<img class = center src='/static/experiments/beast_fmri_test/images/T.png'></img>	71,89	2750.0	test	<img class = center src='/static/experiments/beast_fmri_test/images/redT.png'></img>	stop	2400.0	2.0	13.0	stop	non-target	T	71,Index Finger	89,Middle Finger	400.0	350.0	2350.0	2400.0	0.0	1.0	350.0	n/a	ITI
73229	500	n/a	-1	-1	500	0.0	fixation	poldrack-single-stim	227	740323	0.0-13.14-0.14	beast_fmri_test	338	739822,/	t	<div class = centerbox2><div class = fixation>+</div></div>	none	500.0	test	n/a	n/a	n/a	n/a	n/a	n/a	n/a	n/a	n/a	n/a	n/a	n/a	n/a	n/a	n/a	n/a	n/a	n/a	fixation
73182.247933450853	2750	n/a	707	71	2750	48.7520665492	stim	stop-signal	228	743075	0.0-13.14-1.14	beast_fmri_test	338	740497,/,741177,/,741857,/,742536,/	t,t,t,t	<img class = center src='/static/experiments/beast_fmri_test/images/T.png'></img>	71,89	2750.0	test	<img class = center src='/static/experiments/beast_fmri_test/images/redT.png'></img>	go	2350.0	2.0	14.0	go	target	T	71,Index Finger	89,Middle Finger	400.0	400.0	2350.0	2400.0	1.0	n/a	400.0	1.0	go_stim
75932.247933450853	48.752066549179233	n/a	707	71	2750	48.7520665492	stim	stop-signal	228	743075	0.0-13.14-1.14	beast_fmri_test	338	740497,/,741177,/,741857,/,742536,/	t,t,t,t	<img class = center src='/static/experiments/beast_fmri_test/images/T.png'></img>	71,89	2750.0	test	<img class = center src='/static/experiments/beast_fmri_test/images/redT.png'></img>	go	2350.0	2.0	14.0	go	target	T	71,Index Finger	89,Middle Finger	400.0	400.0	2350.0	2400.0	1.0	n/a	400.0	1.0	ITI
76559	500	n/a	-1	-1	500	0.0	fixation	poldrack-single-stim	229	743653	0.0-13.15-0.15	beast_fmri_test	338	743215,/	t	<div class = centerbox2><div class = fixation>+</div></div>	none	500.0	test	n/a	n/a	n/a	n/a	n/a	n/a	n/a	n/a	n/a	n/a	n/a	n/a	n/a	n/a	n/a	n/a	n/a	n/a	fixation
75908.242163065821	2750	n/a	649	89	2750	652.757836934	stim	stop-signal	230	746405	0.0-13.15-1.15	beast_fmri_test	338	743896,/,744576,/,745256,/,745934,/,746614,/	t,t,t,t,t	<img class = center src='/static/experiments/beast_fmri_test/images/V.png'></img>	71,89	2750.0	test	<img class = center src='/static/experiments/beast_fmri_test/images/redV.png'></img>	go	2350.0	2.0	15.0	go	non-target	V	71,Index Finger	89,Middle Finger	400.0	400.0	2350.0	2350.0	1.0	n/a	400.0	1.0	go_stim
78658.242163065821	652.75783693422659	n/a	649	89	2750	652.757836934	stim	stop-signal	230	746405	0.0-13.15-1.15	beast_fmri_test	338	743896,/,744576,/,745256,/,745934,/,746614,/	t,t,t,t,t	<img class = center src='/static/experiments/beast_fmri_test/images/V.png'></img>	71,89	2750.0	test	<img class = center src='/static/experiments/beast_fmri_test/images/redV.png'></img>	go	2350.0	2.0	15.0	go	non-target	V	71,Index Finger	89,Middle Finger	400.0	400.0	2350.0	2350.0	1.0	n/a	400.0	1.0	ITI
80496	500	n/a	-1	-1	500	0.0	fixation	poldrack-single-stim	231	747590	0.0-13.16-0.16	beast_fmri_test	338	747293,/	t	<div class = centerbox2><div class = fixation>+</div></div>	none	500.0	test	n/a	n/a	n/a	n/a	n/a	n/a	n/a	n/a	n/a	n/a	n/a	n/a	n/a	n/a	n/a	n/a	n/a	n/a	fixation
78377.689871250535	2750	n/a	540	89	2750	2121.31012875	stim	stop-signal	232	750343	0.0-13.16-1.16	beast_fmri_test	338	747973,/,748654,/,749333,/,750013,/,750692,/,751373,/,752053,/	t,t,t,t,t,t,t	<img class = center src='/static/experiments/beast_fmri_test/images/D.png'></img>	71,89	2750.0	test	<img class = center src='/static/experiments/beast_fmri_test/images/redD.png'></img>	go	2350.0	2.0	16.0	go	non-target	D	71,Index Finger	89,Middle Finger	400.0	400.0	2350.0	2350.0	1.0	n/a	400.0	1.0	go_stim
81127.689871250535	2121.3101287495006	n/a	540	89	2750	2121.31012875	stim	stop-signal	232	750343	0.0-13.16-1.16	beast_fmri_test	338	747973,/,748654,/,749333,/,750013,/,750692,/,751373,/,752053,/	t,t,t,t,t,t,t	<img class = center src='/static/experiments/beast_fmri_test/images/D.png'></img>	71,89	2750.0	test	<img class = center src='/static/experiments/beast_fmri_test/images/redD.png'></img>	go	2350.0	2.0	16.0	go	non-target	D	71,Index Finger	89,Middle Finger	400.0	400.0	2350.0	2350.0	1.0	n/a	400.0	1.0	ITI
85900	500	n/a	-1	-1	500	0.0	fixation	poldrack-single-stim	233	752994	0.0-13.17-0.17	beast_fmri_test	338	752733,/	t	<div class = centerbox2><div class = fixation>+</div></div>	none	500.0	test	n/a	n/a	n/a	n/a	n/a	n/a	n/a	n/a	n/a	n/a	n/a	n/a	n/a	n/a	n/a	n/a	n/a	n/a	fixation
84202.07056121307	2750	n/a	943	71	2750	1699.92943879	stim	stop-signal	234	755746	0.0-13.17-1.17	beast_fmri_test	338	753412,/,754091,/,754772,/,755450,/,756131,/,756809,/	t,t,t,t,t,t	<img class = center src='/static/experiments/beast_fmri_test/images/D.png'></img>	71,89	2750.0	test	<img class = center src='/static/experiments/beast_fmri_test/images/redD.png'></img>	go	2350.0	2.0	17.0	go	non-target	D	71,Index Finger	89,Middle Finger	400.0	400.0	2350.0	2350.0	0.0	n/a	400.0	0.0	go_stim
86952.07056121307	1699.9294387869227	n/a	943	71	2750	1699.92943879	stim	stop-signal	234	755746	0.0-13.17-1.17	beast_fmri_test	338	753412,/,754091,/,754772,/,755450,/,756131,/,756809,/	t,t,t,t,t,t	<img class = center src='/static/experiments/beast_fmri_test/images/D.png'></img>	71,89	2750.0	test	<img class = center src='/static/experiments/beast_fmri_test/images/redD.png'></img>	go	2350.0	2.0	17.0	go	non-target	D	71,Index Finger	89,Middle Finger	400.0	400.0	2350.0	2350.0	0.0	n/a	400.0	0.0	ITI
90880	500	n/a	-1	-1	500	0.0	fixation	poldrack-single-stim	235	757974	0.0-13.18-0.18	beast_fmri_test	338	757492,/	t	<div class = centerbox2><div class = fixation>+</div></div>	none	500.0	test	n/a	n/a	n/a	n/a	n/a	n/a	n/a	n/a	n/a	n/a	n/a	n/a	n/a	n/a	n/a	n/a	n/a	n/a	fixation
87389.836073086946	2750	n/a	1148	89	2750	3492.16392691	stim	stop-signal	236	760726	0.0-13.18-1.18	beast_fmri_test	338	758169,/,758850,/,759529,/,760208,/,760888,/,761567,/,762248,/,762928,/,763607,/	t,t,t,t,t,t,t,t,t	<img class = center src='/static/experiments/beast_fmri_test/images/T.png'></img>	71,89	2750.0	test	<img class = center src='/static/experiments/beast_fmri_test/images/redT.png'></img>	go	2350.0	2.0	18.0	go	non-target	T	71,Index Finger	89,Middle Finger	400.0	400.0	2350.0	2350.0	1.0	n/a	400.0	1.0	go_stim
90139.836073086946	3492.1639269130737	n/a	1148	89	2750	3492.16392691	stim	stop-signal	236	760726	0.0-13.18-1.18	beast_fmri_test	338	758169,/,758850,/,759529,/,760208,/,760888,/,761567,/,762248,/,762928,/,763607,/	t,t,t,t,t,t,t,t,t	<img class = center src='/static/experiments/beast_fmri_test/images/T.png'></img>	71,89	2750.0	test	<img class = center src='/static/experiments/beast_fmri_test/images/redT.png'></img>	go	2350.0	2.0	18.0	go	non-target	T	71,Index Finger	89,Middle Finger	400.0	400.0	2350.0	2350.0	1.0	n/a	400.0	1.0	ITI
97653	500	n/a	-1	-1	500	0.0	fixation	poldrack-single-stim	237	764747	0.0-13.19-0.19	beast_fmri_test	338	764289,/	t	<div class = centerbox2><div class = fixation>+</div></div>	none	500.0	test	n/a	n/a	n/a	n/a	n/a	n/a	n/a	n/a	n/a	n/a	n/a	n/a	n/a	n/a	n/a	n/a	n/a	n/a	fixation
97150.903819207568	2750	n/a	715	71	2750	504.096180792	stim	stop-signal	238	767499	0.0-13.19-1.19	beast_fmri_test	338	764967,/,765645,/,766326,/,767006,/,767685,/	t,t,t,t,t	<img class = center src='/static/experiments/beast_fmri_test/images/D.png'></img>	71,89	2750.0	test	<img class = center src='/static/experiments/beast_fmri_test/images/redD.png'></img>	go	2350.0	2.0	19.0	go	target	D	71,Index Finger	89,Middle Finger	400.0	400.0	2350.0	2350.0	1.0	n/a	400.0	1.0	go_stim
99900.903819207568	504.09618079237981	n/a	715	71	2750	504.096180792	stim	stop-signal	238	767499	0.0-13.19-1.19	beast_fmri_test	338	764967,/,765645,/,766326,/,767006,/,767685,/	t,t,t,t,t	<img class = center src='/static/experiments/beast_fmri_test/images/D.png'></img>	71,89	2750.0	test	<img class = center src='/static/experiments/beast_fmri_test/images/redD.png'></img>	go	2350.0	2.0	19.0	go	target	D	71,Index Finger	89,Middle Finger	400.0	400.0	2350.0	2350.0	1.0	n/a	400.0	1.0	ITI
101444	500	n/a	-1	-1	500	0.0	fixation	poldrack-single-stim	239	768538	0.0-13.20-0.20	beast_fmri_test	338	768365,/	t	<div class = centerbox2><div class = fixation>+</div></div>	none	500.0	test	n/a	n/a	n/a	n/a	n/a	n/a	n/a	n/a	n/a	n/a	n/a	n/a	n/a	n/a	n/a	n/a	n/a	n/a	fixation
100527.83694433572	2750	n/a	553	89	2750	917.163055664	stim	stop-signal	240	771289	0.0-13.20-1.20	beast_fmri_test	338	769045,/,769723,/,770403,/,771086,/,771762,/	t,t,t,t,t	<img class = center src='/static/experiments/beast_fmri_test/images/V.png'></img>	71,89	2750.0	test	<img class = center src='/static/experiments/beast_fmri_test/images/redV.png'></img>	go	2350.0	2.0	20.0	go	non-target	V	71,Index Finger	89,Middle Finger	400.0	400.0	2350.0	2350.0	1.0	n/a	400.0	1.0	go_stim
103277.83694433572	917.16305566426274	n/a	553	89	2750	917.163055664	stim	stop-signal	240	771289	0.0-13.20-1.20	beast_fmri_test	338	769045,/,769723,/,770403,/,771086,/,771762,/	t,t,t,t,t	<img class = center src='/static/experiments/beast_fmri_test/images/V.png'></img>	71,89	2750.0	test	<img class = center src='/static/experiments/beast_fmri_test/images/redV.png'></img>	go	2350.0	2.0	20.0	go	non-target	V	71,Index Finger	89,Middle Finger	400.0	400.0	2350.0	2350.0	1.0	n/a	400.0	1.0	ITI
105642	500	n/a	-1	-1	500	0.0	fixation	poldrack-single-stim	241	772736	0.0-13.21-0.21	beast_fmri_test	338	772442,/	t	<div class = centerbox2><div class = fixation>+</div></div>	none	500.0	test	n/a	n/a	n/a	n/a	n/a	n/a	n/a	n/a	n/a	n/a	n/a	n/a	n/a	n/a	n/a	n/a	n/a	n/a	fixation
105080.01122882578	2750	n/a	710	71	2750	563.988771174	stim	stop-signal	242	775488	0.0-13.21-1.21	beast_fmri_test	338	773122,/,773801,/,774481,/,775160,/,775840,/	t,t,t,t,t	<img class = center src='/static/experiments/beast_fmri_test/images/D.png'></img>	71,89	2750.0	test	<img class = center src='/static/experiments/beast_fmri_test/images/redD.png'></img>	go	2350.0	2.0	21.0	go	target	D	71,Index Finger	89,Middle Finger	400.0	400.0	2350.0	2350.0	1.0	n/a	400.0	1.0	go_stim
107830.01122882578	563.98877117423831	n/a	710	71	2750	563.988771174	stim	stop-signal	242	775488	0.0-13.21-1.21	beast_fmri_test	338	773122,/,773801,/,774481,/,775160,/,775840,/	t,t,t,t,t	<img class = center src='/static/experiments/beast_fmri_test/images/D.png'></img>	71,89	2750.0	test	<img class = center src='/static/experiments/beast_fmri_test/images/redD.png'></img>	go	2350.0	2.0	21.0	go	target	D	71,Index Finger	89,Middle Finger	400.0	400.0	2350.0	2350.0	1.0	n/a	400.0	1.0	ITI
109486	500	n/a	-1	-1	500	0.0	fixation	poldrack-single-stim	243	776580	0.0-13.22-0.22	beast_fmri_test	338	776520,/	t	<div class = centerbox2><div class = fixation>+</div></div>	none	500.0	test	n/a	n/a	n/a	n/a	n/a	n/a	n/a	n/a	n/a	n/a	n/a	n/a	n/a	n/a	n/a	n/a	n/a	n/a	fixation
107433.08932426106	2750	n/a	600	89	2750	2054.91067574	stim	stop-signal	244	779332	0.0-13.22-1.22	beast_fmri_test	338	777199,/,777879,/,778560,/,779240,/,779920,/,780600,/,781280,/	t,t,t,t,t,t,t	<img class = center src='/static/experiments/beast_fmri_test/images/B.png'></img>	71,89	2750.0	test	<img class = center src='/static/experiments/beast_fmri_test/images/redB.png'></img>	go	2350.0	2.0	22.0	go	non-target	B	71,Index Finger	89,Middle Finger	400.0	400.0	2350.0	2350.0	1.0	n/a	400.0	1.0	go_stim
110183.08932426106	2054.9106757389168	n/a	600	89	2750	2054.91067574	stim	stop-signal	244	779332	0.0-13.22-1.22	beast_fmri_test	338	777199,/,777879,/,778560,/,779240,/,779920,/,780600,/,781280,/	t,t,t,t,t,t,t	<img class = center src='/static/experiments/beast_fmri_test/images/B.png'></img>	71,89	2750.0	test	<img class = center src='/static/experiments/beast_fmri_test/images/redB.png'></img>	go	2350.0	2.0	22.0	go	non-target	B	71,Index Finger	89,Middle Finger	400.0	400.0	2350.0	2350.0	1.0	n/a	400.0	1.0	ITI
114823	500	n/a	-1	-1	500	0.0	fixation	poldrack-single-stim	245	781917	0.0-13.23-0.23	beast_fmri_test	338	n/a	n/a	<div class = centerbox2><div class = fixation>+</div></div>	none	500.0	test	n/a	n/a	n/a	n/a	n/a	n/a	n/a	n/a	n/a	n/a	n/a	n/a	n/a	n/a	n/a	n/a	n/a	n/a	fixation
114080.9475129717	2750	n/a	979	89	2750	744.052487028	stim	stop-signal	246	784669	0.0-13.23-1.23	beast_fmri_test	338	781959,/,782639,/,783318,/,783998,/,784678,/,785357,/	t,t,t,t,t,t	<img class = center src='/static/experiments/beast_fmri_test/images/B.png'></img>	71,89	2750.0	test	<img class = center src='/static/experiments/beast_fmri_test/images/redB.png'></img>	go	2350.0	2.0	23.0	go	non-target	B	71,Index Finger	89,Middle Finger	400.0	400.0	2350.0	2350.0	1.0	n/a	400.0	1.0	go_stim
116830.9475129717	744.05248702825486	n/a	979	89	2750	744.052487028	stim	stop-signal	246	784669	0.0-13.23-1.23	beast_fmri_test	338	781959,/,782639,/,783318,/,783998,/,784678,/,785357,/	t,t,t,t,t,t	<img class = center src='/static/experiments/beast_fmri_test/images/B.png'></img>	71,89	2750.0	test	<img class = center src='/static/experiments/beast_fmri_test/images/redB.png'></img>	go	2350.0	2.0	23.0	go	non-target	B	71,Index Finger	89,Middle Finger	400.0	400.0	2350.0	2350.0	1.0	n/a	400.0	1.0	ITI
118852	500	n/a	-1	-1	500	0.0	fixation	poldrack-single-stim	247	785946	0.0-13.24-0.24	beast_fmri_test	338	n/a	n/a	<div class = centerbox2><div class = fixation>+</div></div>	none	500.0	test	n/a	n/a	n/a	n/a	n/a	n/a	n/a	n/a	n/a	n/a	n/a	n/a	n/a	n/a	n/a	n/a	n/a	n/a	fixation
118363.3089530752	2750	n/a	804	71	2750	490.691046925	stim	stop-signal	248	788698	0.0-13.24-1.24	beast_fmri_test	338	786037,/,786716,/,787395,/,788075,/,788754,/	t,t,t,t,t	<img class = center src='/static/experiments/beast_fmri_test/images/B.png'></img>	71,89	2750.0	test	<img class = center src='/static/experiments/beast_fmri_test/images/redB.png'></img>	go	2350.0	2.0	24.0	go	target	B	71,Index Finger	89,Middle Finger	400.0	400.0	2350.0	2350.0	1.0	n/a	400.0	1.0	go_stim
121113.3089530752	490.69104692484382	n/a	804	71	2750	490.691046925	stim	stop-signal	248	788698	0.0-13.24-1.24	beast_fmri_test	338	786037,/,786716,/,787395,/,788075,/,788754,/	t,t,t,t,t	<img class = center src='/static/experiments/beast_fmri_test/images/B.png'></img>	71,89	2750.0	test	<img class = center src='/static/experiments/beast_fmri_test/images/redB.png'></img>	go	2350.0	2.0	24.0	go	target	B	71,Index Finger	89,Middle Finger	400.0	400.0	2350.0	2350.0	1.0	n/a	400.0	1.0	ITI
122628	500	n/a	-1	-1	500	0.0	fixation	poldrack-single-stim	249	789722	0.0-13.25-0.25	beast_fmri_test	338	789436,/	t	<div class = centerbox2><div class = fixation>+</div></div>	none	500.0	test	n/a	n/a	n/a	n/a	n/a	n/a	n/a	n/a	n/a	n/a	n/a	n/a	n/a	n/a	n/a	n/a	n/a	n/a	fixation
122096.07867957931	400.0	n/a	556	89	2750	531.921320421	stim	stop-signal	250	792472	0.0-13.25-1.25	beast_fmri_test	338	790114,/,790794,/,791473,/,792153,/,792832,/	t,t,t,t,t	<img class = center src='/static/experiments/beast_fmri_test/images/T.png'></img>	71,89	2750.0	test	<img class = center src='/static/experiments/beast_fmri_test/images/redT.png'></img>	stop	2350.0	2.0	25.0	stop	non-target	T	71,Index Finger	89,Middle Finger	400.0	400.0	2350.0	2350.0	0.0	0.0	400.0	n/a	go_stim
124446.07867957931	2350.0	n/a	556	89	2750	531.921320421	stim	stop-signal	250	792472	0.0-13.25-1.25	beast_fmri_test	338	790114,/,790794,/,791473,/,792153,/,792832,/	t,t,t,t,t	<img class = center src='/static/experiments/beast_fmri_test/images/T.png'></img>	71,89	2750.0	test	<img class = center src='/static/experiments/beast_fmri_test/images/redT.png'></img>	stop	2350.0	2.0	25.0	stop	non-target	T	71,Index Finger	89,Middle Finger	400.0	400.0	2350.0	2350.0	0.0	0.0	400.0	n/a	stop_stim
124846.07867957931	531.92132042071773	n/a	556	89	2750	531.921320421	stim	stop-signal	250	792472	0.0-13.25-1.25	beast_fmri_test	338	790114,/,790794,/,791473,/,792153,/,792832,/	t,t,t,t,t	<img class = center src='/static/experiments/beast_fmri_test/images/T.png'></img>	71,89	2750.0	test	<img class = center src='/static/experiments/beast_fmri_test/images/redT.png'></img>	stop	2350.0	2.0	25.0	stop	non-target	T	71,Index Finger	89,Middle Finger	400.0	400.0	2350.0	2350.0	0.0	0.0	400.0	n/a	ITI
126438	500	n/a	-1	-1	500	0.0	fixation	poldrack-single-stim	251	793532	0.0-13.26-0.26	beast_fmri_test	338	793513,/	t	<div class = centerbox2><div class = fixation>+</div></div>	none	500.0	test	n/a	n/a	n/a	n/a	n/a	n/a	n/a	n/a	n/a	n/a	n/a	n/a	n/a	n/a	n/a	n/a	n/a	n/a	fixation
126420.60881001188	400.0	n/a	-1	-1	2750	19.3911899881	stim	stop-signal	252	796284	0.0-13.26-1.26	beast_fmri_test	338	794192,/,794871,/,795552,/,796232,/	t,t,t,t	<img class = center src='/static/experiments/beast_fmri_test/images/B.png'></img>	71,89	2750.0	test	<img class = center src='/static/experiments/beast_fmri_test/images/redB.png'></img>	stop	2350.0	2.0	26.0	stop	target	B	71,Index Finger	89,Middle Finger	400.0	350.0	2350.0	2350.0	0.0	1.0	400.0	n/a	go_stim
128770.60881001188	2350.0	n/a	-1	-1	2750	19.3911899881	stim	stop-signal	252	796284	0.0-13.26-1.26	beast_fmri_test	338	794192,/,794871,/,795552,/,796232,/	t,t,t,t	<img class = center src='/static/experiments/beast_fmri_test/images/B.png'></img>	71,89	2750.0	test	<img class = center src='/static/experiments/beast_fmri_test/images/redB.png'></img>	stop	2350.0	2.0	26.0	stop	target	B	71,Index Finger	89,Middle Finger	400.0	350.0	2350.0	2350.0	0.0	1.0	400.0	n/a	stop_stim
129170.60881001188	19.391189988068355	n/a	-1	-1	2750	19.3911899881	stim	stop-signal	252	796284	0.0-13.26-1.26	beast_fmri_test	338	794192,/,794871,/,795552,/,796232,/	t,t,t,t	<img class = center src='/static/experiments/beast_fmri_test/images/B.png'></img>	71,89	2750.0	test	<img class = center src='/static/experiments/beast_fmri_test/images/redB.png'></img>	stop	2350.0	2.0	26.0	stop	target	B	71,Index Finger	89,Middle Finger	400.0	350.0	2350.0	2350.0	0.0	1.0	400.0	n/a	ITI
129740	500	n/a	-1	-1	500	0.0	fixation	poldrack-single-stim	253	796834	0.0-13.27-0.27	beast_fmri_test	338	n/a	n/a	<div class = centerbox2><div class = fixation>+</div></div>	none	500.0	test	n/a	n/a	n/a	n/a	n/a	n/a	n/a	n/a	n/a	n/a	n/a	n/a	n/a	n/a	n/a	n/a	n/a	n/a	fixation
129582.49802774657	2750	n/a	746	89	2750	158.501972253	stim	stop-signal	254	799585	0.0-13.27-1.27	beast_fmri_test	338	796912,/,797590,/,798270,/,798949,/,799629,/	t,t,t,t,t	<img class = center src='/static/experiments/beast_fmri_test/images/B.png'></img>	71,89	2750.0	test	<img class = center src='/static/experiments/beast_fmri_test/images/redB.png'></img>	go	2400.0	2.0	27.0	go	non-target	B	71,Index Finger	89,Middle Finger	450.0	350.0	2350.0	2400.0	1.0	n/a	350.0	1.0	go_stim
132332.49802774657	158.50197225345175	n/a	746	89	2750	158.501972253	stim	stop-signal	254	799585	0.0-13.27-1.27	beast_fmri_test	338	796912,/,797590,/,798270,/,798949,/,799629,/	t,t,t,t,t	<img class = center src='/static/experiments/beast_fmri_test/images/B.png'></img>	71,89	2750.0	test	<img class = center src='/static/experiments/beast_fmri_test/images/redB.png'></img>	go	2400.0	2.0	27.0	go	non-target	B	71,Index Finger	89,Middle Finger	450.0	350.0	2350.0	2400.0	1.0	n/a	350.0	1.0	ITI
133178	500	n/a	-1	-1	500	0.0	fixation	poldrack-single-stim	255	800272	0.0-13.28-0.28	beast_fmri_test	338	n/a	n/a	<div class = centerbox2><div class = fixation>+</div></div>	none	500.0	test	n/a	n/a	n/a	n/a	n/a	n/a	n/a	n/a	n/a	n/a	n/a	n/a	n/a	n/a	n/a	n/a	n/a	n/a	fixation
133065.22983155423	2750	n/a	1014	89	2750	115.770168446	stim	stop-signal	256	803025	0.0-13.28-1.28	beast_fmri_test	338	800309,/,800990,/,801668,/,802348,/,803028,/	t,t,t,t,t	<img class = center src='/static/experiments/beast_fmri_test/images/T.png'></img>	71,89	2750.0	test	<img class = center src='/static/experiments/beast_fmri_test/images/redT.png'></img>	go	2400.0	2.0	28.0	go	non-target	T	71,Index Finger	89,Middle Finger	450.0	350.0	2350.0	2400.0	1.0	n/a	350.0	1.0	go_stim
135815.22983155423	115.77016844582032	n/a	1014	89	2750	115.770168446	stim	stop-signal	256	803025	0.0-13.28-1.28	beast_fmri_test	338	800309,/,800990,/,801668,/,802348,/,803028,/	t,t,t,t,t	<img class = center src='/static/experiments/beast_fmri_test/images/T.png'></img>	71,89	2750.0	test	<img class = center src='/static/experiments/beast_fmri_test/images/redT.png'></img>	go	2400.0	2.0	28.0	go	non-target	T	71,Index Finger	89,Middle Finger	450.0	350.0	2350.0	2400.0	1.0	n/a	350.0	1.0	ITI
136577	500	n/a	-1	-1	500	0.0	fixation	poldrack-single-stim	257	803671	0.0-13.29-0.29	beast_fmri_test	338	n/a	n/a	<div class = centerbox2><div class = fixation>+</div></div>	none	500.0	test	n/a	n/a	n/a	n/a	n/a	n/a	n/a	n/a	n/a	n/a	n/a	n/a	n/a	n/a	n/a	n/a	n/a	n/a	fixation
136408.43044449028	450.0	n/a	628	71	2750	170.56955551	stim	stop-signal	258	806423	0.0-13.29-1.29	beast_fmri_test	338	803707,/,804388,/,805068,/,805747,/,806427,/	t,t,t,t,t	<img class = center src='/static/experiments/beast_fmri_test/images/B.png'></img>	71,89	2750.0	test	<img class = center src='/static/experiments/beast_fmri_test/images/redB.png'></img>	stop	2300.0	2.0	29.0	stop	target	B	71,Index Finger	89,Middle Finger	450.0	350.0	2300.0	2400.0	0.0	0.0	450.0	n/a	go_stim
138708.43044449028	2300.0	n/a	628	71	2750	170.56955551	stim	stop-signal	258	806423	0.0-13.29-1.29	beast_fmri_test	338	803707,/,804388,/,805068,/,805747,/,806427,/	t,t,t,t,t	<img class = center src='/static/experiments/beast_fmri_test/images/B.png'></img>	71,89	2750.0	test	<img class = center src='/static/experiments/beast_fmri_test/images/redB.png'></img>	stop	2300.0	2.0	29.0	stop	target	B	71,Index Finger	89,Middle Finger	450.0	350.0	2300.0	2400.0	0.0	0.0	450.0	n/a	stop_stim
139158.43044449028	170.56955550976446	n/a	628	71	2750	170.56955551	stim	stop-signal	258	806423	0.0-13.29-1.29	beast_fmri_test	338	803707,/,804388,/,805068,/,805747,/,806427,/	t,t,t,t,t	<img class = center src='/static/experiments/beast_fmri_test/images/B.png'></img>	71,89	2750.0	test	<img class = center src='/static/experiments/beast_fmri_test/images/redB.png'></img>	stop	2300.0	2.0	29.0	stop	target	B	71,Index Finger	89,Middle Finger	450.0	350.0	2300.0	2400.0	0.0	0.0	450.0	n/a	ITI
140031	500	n/a	-1	-1	500	0.0	fixation	poldrack-single-stim	259	807125	0.0-13.30-0.30	beast_fmri_test	338	807107,/	t	<div class = centerbox2><div class = fixation>+</div></div>	none	500.0	test	n/a	n/a	n/a	n/a	n/a	n/a	n/a	n/a	n/a	n/a	n/a	n/a	n/a	n/a	n/a	n/a	n/a	n/a	fixation
139268.7485890598	2750	n/a	860	89	2750	764.25141094	stim	stop-signal	260	809877	0.0-13.30-1.30	beast_fmri_test	338	807786,/,808467,/,809147,/,809827,/,810505,/	t,t,t,t,t	<img class = center src='/static/experiments/beast_fmri_test/images/P.png'></img>	71,89	2750.0	test	<img class = center src='/static/experiments/beast_fmri_test/images/redP.png'></img>	go	2400.0	2.0	30.0	go	non-target	P	71,Index Finger	89,Middle Finger	400.0	350.0	2300.0	2400.0	1.0	n/a	350.0	1.0	go_stim
142018.7485890598	764.25141094019625	n/a	860	89	2750	764.25141094	stim	stop-signal	260	809877	0.0-13.30-1.30	beast_fmri_test	338	807786,/,808467,/,809147,/,809827,/,810505,/	t,t,t,t,t	<img class = center src='/static/experiments/beast_fmri_test/images/P.png'></img>	71,89	2750.0	test	<img class = center src='/static/experiments/beast_fmri_test/images/redP.png'></img>	go	2400.0	2.0	30.0	go	non-target	P	71,Index Finger	89,Middle Finger	400.0	350.0	2300.0	2400.0	1.0	n/a	350.0	1.0	ITI
144083	500	n/a	-1	-1	500	0.0	fixation	poldrack-single-stim	261	811177	0.0-13.31-0.31	beast_fmri_test	338	n/a	n/a	<div class = centerbox2><div class = fixation>+</div></div>	none	500.0	test	n/a	n/a	n/a	n/a	n/a	n/a	n/a	n/a	n/a	n/a	n/a	n/a	n/a	n/a	n/a	n/a	n/a	n/a	fixation
143803.42860164039	350.0	n/a	981	89	2750	279.57139836	stim	stop-signal	262	813927	0.0-13.31-1.31	beast_fmri_test	338	811185,/,811865,/,812544,/,813225,/,813904,/	t,t,t,t,t	<img class = center src='/static/experiments/beast_fmri_test/images/T.png'></img>	71,89	2750.0	test	<img class = center src='/static/experiments/beast_fmri_test/images/redT.png'></img>	stop	2400.0	2.0	31.0	stop	non-target	T	71,Index Finger	89,Middle Finger	400.0	350.0	2300.0	2400.0	0.0	0.0	350.0	n/a	go_stim
146203.42860164039	2400.0	n/a	981	89	2750	279.57139836	stim	stop-signal	262	813927	0.0-13.31-1.31	beast_fmri_test	338	811185,/,811865,/,812544,/,813225,/,813904,/	t,t,t,t,t	<img class = center src='/static/experiments/beast_fmri_test/images/T.png'></img>	71,89	2750.0	test	<img class = center src='/static/experiments/beast_fmri_test/images/redT.png'></img>	stop	2400.0	2.0	31.0	stop	non-target	T	71,Index Finger	89,Middle Finger	400.0	350.0	2300.0	2400.0	0.0	0.0	350.0	n/a	stop_stim
146553.42860164039	279.57139835959447	n/a	981	89	2750	279.57139836	stim	stop-signal	262	813927	0.0-13.31-1.31	beast_fmri_test	338	811185,/,811865,/,812544,/,813225,/,813904,/	t,t,t,t,t	<img class = center src='/static/experiments/beast_fmri_test/images/T.png'></img>	71,89	2750.0	test	<img class = center src='/static/experiments/beast_fmri_test/images/redT.png'></img>	stop	2400.0	2.0	31.0	stop	non-target	T	71,Index Finger	89,Middle Finger	400.0	350.0	2300.0	2400.0	0.0	0.0	350.0	n/a	ITI
147645	500	n/a	-1	-1	500	0.0	fixation	poldrack-single-stim	263	814739	0.0-13.32-0.32	beast_fmri_test	338	814584,/	t	<div class = centerbox2><div class = fixation>+</div></div>	none	500.0	test	n/a	n/a	n/a	n/a	n/a	n/a	n/a	n/a	n/a	n/a	n/a	n/a	n/a	n/a	n/a	n/a	n/a	n/a	fixation
146195.96400729846	300.0	n/a	-1	-1	2750	1450.0359927	stim	stop-signal	264	817490	0.0-13.32-1.32	beast_fmri_test	338	815263,/,815944,/,816623,/,817303,/,817982,/,818661,/	t,t,t,t,t,t	<img class = center src='/static/experiments/beast_fmri_test/images/D.png'></img>	71,89	2750.0	test	<img class = center src='/static/experiments/beast_fmri_test/images/redD.png'></img>	stop	2450.0	2.0	32.0	stop	non-target	D	71,Index Finger	89,Middle Finger	400.0	300.0	2300.0	2450.0	0.0	1.0	300.0	n/a	go_stim
148645.96400729846	2450.0	n/a	-1	-1	2750	1450.0359927	stim	stop-signal	264	817490	0.0-13.32-1.32	beast_fmri_test	338	815263,/,815944,/,816623,/,817303,/,817982,/,818661,/	t,t,t,t,t,t	<img class = center src='/static/experiments/beast_fmri_test/images/D.png'></img>	71,89	2750.0	test	<img class = center src='/static/experiments/beast_fmri_test/images/redD.png'></img>	stop	2450.0	2.0	32.0	stop	non-target	D	71,Index Finger	89,Middle Finger	400.0	300.0	2300.0	2450.0	0.0	1.0	300.0	n/a	stop_stim
148945.96400729846	1450.0359927014856	n/a	-1	-1	2750	1450.0359927	stim	stop-signal	264	817490	0.0-13.32-1.32	beast_fmri_test	338	815263,/,815944,/,816623,/,817303,/,817982,/,818661,/	t,t,t,t,t,t	<img class = center src='/static/experiments/beast_fmri_test/images/D.png'></img>	71,89	2750.0	test	<img class = center src='/static/experiments/beast_fmri_test/images/redD.png'></img>	stop	2450.0	2.0	32.0	stop	non-target	D	71,Index Finger	89,Middle Finger	400.0	300.0	2300.0	2450.0	0.0	1.0	300.0	n/a	ITI
152380	500	n/a	-1	-1	500	0.0	fixation	poldrack-single-stim	265	819474	0.0-13.33-0.33	beast_fmri_test	338	819342,/	t	<div class = centerbox2><div class = fixation>+</div></div>	none	500.0	test	n/a	n/a	n/a	n/a	n/a	n/a	n/a	n/a	n/a	n/a	n/a	n/a	n/a	n/a	n/a	n/a	n/a	n/a	fixation
150973.26613423543	400.0	n/a	-1	-1	2750	1407.73386576	stim	stop-signal	266	822225	0.0-13.33-1.33	beast_fmri_test	338	820021,/,820701,/,821380,/,822060,/,822740,/,823419,/	t,t,t,t,t,t	<img class = center src='/static/experiments/beast_fmri_test/images/T.png'></img>	71,89	2750.0	test	<img class = center src='/static/experiments/beast_fmri_test/images/redT.png'></img>	stop	2350.0	2.0	33.0	stop	target	T	71,Index Finger	89,Middle Finger	400.0	350.0	2350.0	2450.0	0.0	1.0	400.0	n/a	go_stim
153323.26613423543	2350.0	n/a	-1	-1	2750	1407.73386576	stim	stop-signal	266	822225	0.0-13.33-1.33	beast_fmri_test	338	820021,/,820701,/,821380,/,822060,/,822740,/,823419,/	t,t,t,t,t,t	<img class = center src='/static/experiments/beast_fmri_test/images/T.png'></img>	71,89	2750.0	test	<img class = center src='/static/experiments/beast_fmri_test/images/redT.png'></img>	stop	2350.0	2.0	33.0	stop	target	T	71,Index Finger	89,Middle Finger	400.0	350.0	2350.0	2450.0	0.0	1.0	400.0	n/a	stop_stim
153723.26613423543	1407.7338657646246	n/a	-1	-1	2750	1407.73386576	stim	stop-signal	266	822225	0.0-13.33-1.33	beast_fmri_test	338	820021,/,820701,/,821380,/,822060,/,822740,/,823419,/	t,t,t,t,t,t	<img class = center src='/static/experiments/beast_fmri_test/images/T.png'></img>	71,89	2750.0	test	<img class = center src='/static/experiments/beast_fmri_test/images/redT.png'></img>	stop	2350.0	2.0	33.0	stop	target	T	71,Index Finger	89,Middle Finger	400.0	350.0	2350.0	2450.0	0.0	1.0	400.0	n/a	ITI
157074	500	n/a	-1	-1	500	0.0	fixation	poldrack-single-stim	267	824168	0.0-13.34-0.34	beast_fmri_test	338	824099,/	t	<div class = centerbox2><div class = fixation>+</div></div>	none	500.0	test	n/a	n/a	n/a	n/a	n/a	n/a	n/a	n/a	n/a	n/a	n/a	n/a	n/a	n/a	n/a	n/a	n/a	n/a	fixation
156882.63128089265	2750	n/a	605	89	2750	193.368719107	stim	stop-signal	268	826920	0.0-13.34-1.34	beast_fmri_test	338	824777,/,825458,/,826137,/,826816,/	t,t,t,t	<img class = center src='/static/experiments/beast_fmri_test/images/D.png'></img>	71,89	2750.0	test	<img class = center src='/static/experiments/beast_fmri_test/images/redD.png'></img>	go	2300.0	2.0	34.0	go	target	D	71,Index Finger	89,Middle Finger	450.0	350.0	2300.0	2450.0	0.0	n/a	450.0	0.0	go_stim
159632.63128089265	193.36871910733211	n/a	605	89	2750	193.368719107	stim	stop-signal	268	826920	0.0-13.34-1.34	beast_fmri_test	338	824777,/,825458,/,826137,/,826816,/	t,t,t,t	<img class = center src='/static/experiments/beast_fmri_test/images/D.png'></img>	71,89	2750.0	test	<img class = center src='/static/experiments/beast_fmri_test/images/redD.png'></img>	go	2300.0	2.0	34.0	go	target	D	71,Index Finger	89,Middle Finger	450.0	350.0	2300.0	2450.0	0.0	n/a	450.0	0.0	ITI
160554	500	n/a	-1	-1	500	0.0	fixation	poldrack-single-stim	269	827648	0.0-13.35-0.35	beast_fmri_test	338	827496,/	t	<div class = centerbox2><div class = fixation>+</div></div>	none	500.0	test	n/a	n/a	n/a	n/a	n/a	n/a	n/a	n/a	n/a	n/a	n/a	n/a	n/a	n/a	n/a	n/a	n/a	n/a	fixation
160317.10664577177	2750	n/a	873	89	2750	238.893354228	stim	stop-signal	270	830400	0.0-13.35-1.35	beast_fmri_test	338	828177,/,828856,/,829536,/,830216,/	t,t,t,t	<img class = center src='/static/experiments/beast_fmri_test/images/B.png'></img>	71,89	2750.0	test	<img class = center src='/static/experiments/beast_fmri_test/images/redB.png'></img>	go	2400.0	2.0	35.0	go	non-target	B	71,Index Finger	89,Middle Finger	450.0	350.0	2300.0	2400.0	1.0	n/a	350.0	1.0	go_stim
163067.10664577177	238.89335422821446	n/a	873	89	2750	238.893354228	stim	stop-signal	270	830400	0.0-13.35-1.35	beast_fmri_test	338	828177,/,828856,/,829536,/,830216,/	t,t,t,t	<img class = center src='/static/experiments/beast_fmri_test/images/B.png'></img>	71,89	2750.0	test	<img class = center src='/static/experiments/beast_fmri_test/images/redB.png'></img>	go	2400.0	2.0	35.0	go	non-target	B	71,Index Finger	89,Middle Finger	450.0	350.0	2300.0	2400.0	1.0	n/a	350.0	1.0	ITI
164078	500	n/a	-1	-1	500	0.0	fixation	poldrack-single-stim	271	831172	0.0-13.36-0.36	beast_fmri_test	338	830896,/	t	<div class = centerbox2><div class = fixation>+</div></div>	none	500.0	test	n/a	n/a	n/a	n/a	n/a	n/a	n/a	n/a	n/a	n/a	n/a	n/a	n/a	n/a	n/a	n/a	n/a	n/a	fixation
163833.38954377291	350.0	n/a	-1	-1	2750	246.610456227	stim	stop-signal	272	833924	0.0-13.36-1.36	beast_fmri_test	338	831574,/,832256,/,832935,/,833615,/	t,t,t,t	<img class = center src='/static/experiments/beast_fmri_test/images/P.png'></img>	71,89	2750.0	test	<img class = center src='/static/experiments/beast_fmri_test/images/redP.png'></img>	stop	2400.0	2.0	36.0	stop	non-target	P	71,Index Finger	89,Middle Finger	450.0	350.0	2300.0	2400.0	0.0	1.0	350.0	n/a	go_stim
166233.38954377291	2400.0	n/a	-1	-1	2750	246.610456227	stim	stop-signal	272	833924	0.0-13.36-1.36	beast_fmri_test	338	831574,/,832256,/,832935,/,833615,/	t,t,t,t	<img class = center src='/static/experiments/beast_fmri_test/images/P.png'></img>	71,89	2750.0	test	<img class = center src='/static/experiments/beast_fmri_test/images/redP.png'></img>	stop	2400.0	2.0	36.0	stop	non-target	P	71,Index Finger	89,Middle Finger	450.0	350.0	2300.0	2400.0	0.0	1.0	350.0	n/a	stop_stim
166583.38954377291	246.61045622706717	n/a	-1	-1	2750	246.610456227	stim	stop-signal	272	833924	0.0-13.36-1.36	beast_fmri_test	338	831574,/,832256,/,832935,/,833615,/	t,t,t,t	<img class = center src='/static/experiments/beast_fmri_test/images/P.png'></img>	71,89	2750.0	test	<img class = center src='/static/experiments/beast_fmri_test/images/redP.png'></img>	stop	2400.0	2.0	36.0	stop	non-target	P	71,Index Finger	89,Middle Finger	450.0	350.0	2300.0	2400.0	0.0	1.0	350.0	n/a	ITI
167610	500	n/a	-1	-1	500	0.0	fixation	poldrack-single-stim	273	834704	0.0-13.37-0.37	beast_fmri_test	338	834294,/	t	<div class = centerbox2><div class = fixation>+</div></div>	none	500.0	test	n/a	n/a	n/a	n/a	n/a	n/a	n/a	n/a	n/a	n/a	n/a	n/a	n/a	n/a	n/a	n/a	n/a	n/a	fixation
164854.35453242646	400.0	n/a	643	89	2750	2759.64546757	stim	stop-signal	274	837458	0.0-13.37-1.37	beast_fmri_test	338	834974,/,835652,/,836333,/,837012,/,837693,/,838372,/,839052,/,839732,/	t,t,t,t,t,t,t,t	<img class = center src='/static/experiments/beast_fmri_test/images/V.png'></img>	71,89	2750.0	test	<img class = center src='/static/experiments/beast_fmri_test/images/redV.png'></img>	stop	2350.0	2.0	37.0	stop	non-target	V	71,Index Finger	89,Middle Finger	450.0	400.0	2300.0	2350.0	0.0	0.0	400.0	n/a	go_stim
167204.35453242646	2350.0	n/a	643	89	2750	2759.64546757	stim	stop-signal	274	837458	0.0-13.37-1.37	beast_fmri_test	338	834974,/,835652,/,836333,/,837012,/,837693,/,838372,/,839052,/,839732,/	t,t,t,t,t,t,t,t	<img class = center src='/static/experiments/beast_fmri_test/images/V.png'></img>	71,89	2750.0	test	<img class = center src='/static/experiments/beast_fmri_test/images/redV.png'></img>	stop	2350.0	2.0	37.0	stop	non-target	V	71,Index Finger	89,Middle Finger	450.0	400.0	2300.0	2350.0	0.0	0.0	400.0	n/a	stop_stim
167604.35453242646	2759.6454675735631	n/a	643	89	2750	2759.64546757	stim	stop-signal	274	837458	0.0-13.37-1.37	beast_fmri_test	338	834974,/,835652,/,836333,/,837012,/,837693,/,838372,/,839052,/,839732,/	t,t,t,t,t,t,t,t	<img class = center src='/static/experiments/beast_fmri_test/images/V.png'></img>	71,89	2750.0	test	<img class = center src='/static/experiments/beast_fmri_test/images/redV.png'></img>	stop	2350.0	2.0	37.0	stop	non-target	V	71,Index Finger	89,Middle Finger	450.0	400.0	2300.0	2350.0	0.0	0.0	400.0	n/a	ITI
173658	500	n/a	-1	-1	500	0.0	fixation	poldrack-single-stim	275	840752	0.0-13.38-0.38	beast_fmri_test	338	840412,/	t	<div class = centerbox2><div class = fixation>+</div></div>	none	500.0	test	n/a	n/a	n/a	n/a	n/a	n/a	n/a	n/a	n/a	n/a	n/a	n/a	n/a	n/a	n/a	n/a	n/a	n/a	fixation
171510.77895548393	2750	n/a	839	89	2750	2149.22104452	stim	stop-signal	276	843504	0.0-13.38-1.38	beast_fmri_test	338	841091,/,841772,/,842450,/,843131,/,843810,/,844489,/,845169,/	t,t,t,t,t,t,t	<img class = center src='/static/experiments/beast_fmri_test/images/D.png'></img>	71,89	2750.0	test	<img class = center src='/static/experiments/beast_fmri_test/images/redD.png'></img>	go	2400.0	2.0	38.0	go	non-target	D	71,Index Finger	89,Middle Finger	450.0	350.0	2300.0	2400.0	1.0	n/a	350.0	1.0	go_stim
174260.77895548393	2149.2210445160763	n/a	839	89	2750	2149.22104452	stim	stop-signal	276	843504	0.0-13.38-1.38	beast_fmri_test	338	841091,/,841772,/,842450,/,843131,/,843810,/,844489,/,845169,/	t,t,t,t,t,t,t	<img class = center src='/static/experiments/beast_fmri_test/images/D.png'></img>	71,89	2750.0	test	<img class = center src='/static/experiments/beast_fmri_test/images/redD.png'></img>	go	2400.0	2.0	38.0	go	non-target	D	71,Index Finger	89,Middle Finger	450.0	350.0	2300.0	2400.0	1.0	n/a	350.0	1.0	ITI
179095	500	n/a	-1	-1	500	0.0	fixation	poldrack-single-stim	277	846189	0.0-13.39-0.39	beast_fmri_test	338	845848,/	t	<div class = centerbox2><div class = fixation>+</div></div>	none	500.0	test	n/a	n/a	n/a	n/a	n/a	n/a	n/a	n/a	n/a	n/a	n/a	n/a	n/a	n/a	n/a	n/a	n/a	n/a	fixation
178833.61602394248	450.0	n/a	-1	-1	2750	262.383976057	stim	stop-signal	278	848940	0.0-13.39-1.39	beast_fmri_test	338	846529,/,847209,/,847888,/,848568,/	t,t,t,t	<img class = center src='/static/experiments/beast_fmri_test/images/V.png'></img>	71,89	2750.0	test	<img class = center src='/static/experiments/beast_fmri_test/images/redV.png'></img>	stop	2300.0	2.0	39.0	stop	target	V	71,Index Finger	89,Middle Finger	450.0	350.0	2300.0	2400.0	0.0	1.0	450.0	n/a	go_stim
181133.61602394248	2300.0	n/a	-1	-1	2750	262.383976057	stim	stop-signal	278	848940	0.0-13.39-1.39	beast_fmri_test	338	846529,/,847209,/,847888,/,848568,/	t,t,t,t	<img class = center src='/static/experiments/beast_fmri_test/images/V.png'></img>	71,89	2750.0	test	<img class = center src='/static/experiments/beast_fmri_test/images/redV.png'></img>	stop	2300.0	2.0	39.0	stop	target	V	71,Index Finger	89,Middle Finger	450.0	350.0	2300.0	2400.0	0.0	1.0	450.0	n/a	stop_stim
181583.61602394248	262.38397605748884	n/a	-1	-1	2750	262.383976057	stim	stop-signal	278	848940	0.0-13.39-1.39	beast_fmri_test	338	846529,/,847209,/,847888,/,848568,/	t,t,t,t	<img class = center src='/static/experiments/beast_fmri_test/images/V.png'></img>	71,89	2750.0	test	<img class = center src='/static/experiments/beast_fmri_test/images/redV.png'></img>	stop	2300.0	2.0	39.0	stop	target	V	71,Index Finger	89,Middle Finger	450.0	350.0	2300.0	2400.0	0.0	1.0	450.0	n/a	ITI
182644	500	n/a	-1	-1	500	0.0	fixation	poldrack-single-stim	279	849738	0.0-13.40-0.40	beast_fmri_test	338	849247,/	t	<div class = centerbox2><div class = fixation>+</div></div>	none	500.0	test	n/a	n/a	n/a	n/a	n/a	n/a	n/a	n/a	n/a	n/a	n/a	n/a	n/a	n/a	n/a	n/a	n/a	n/a	fixation
181729.40182598028	2750	n/a	1429	89	2750	916.59817402	stim	stop-signal	280	852490	0.0-13.40-1.40	beast_fmri_test	338	849926,/,850607,/,851287,/,851966,/,852646,/,853326,/	t,t,t,t,t,t	<img class = center src='/static/experiments/beast_fmri_test/images/B.png'></img>	71,89	2750.0	test	<img class = center src='/static/experiments/beast_fmri_test/images/redB.png'></img>	go	2400.0	2.0	40.0	go	non-target	B	71,Index Finger	89,Middle Finger	500.0	350.0	2300.0	2400.0	1.0	n/a	350.0	1.0	go_stim
184479.40182598028	916.59817401976318	n/a	1429	89	2750	916.59817402	stim	stop-signal	280	852490	0.0-13.40-1.40	beast_fmri_test	338	849926,/,850607,/,851287,/,851966,/,852646,/,853326,/	t,t,t,t,t,t	<img class = center src='/static/experiments/beast_fmri_test/images/B.png'></img>	71,89	2750.0	test	<img class = center src='/static/experiments/beast_fmri_test/images/redB.png'></img>	go	2400.0	2.0	40.0	go	non-target	B	71,Index Finger	89,Middle Finger	500.0	350.0	2300.0	2400.0	1.0	n/a	350.0	1.0	ITI
186851	500	n/a	-1	-1	500	0.0	fixation	poldrack-single-stim	281	853945	0.0-13.41-0.41	beast_fmri_test	338	n/a	n/a	<div class = centerbox2><div class = fixation>+</div></div>	none	500.0	test	n/a	n/a	n/a	n/a	n/a	n/a	n/a	n/a	n/a	n/a	n/a	n/a	n/a	n/a	n/a	n/a	n/a	n/a	fixation
186788.43449473067	2750	n/a	663	71	2750	64.5655052694	stim	stop-signal	282	856697	0.0-13.41-1.41	beast_fmri_test	338	854004,/,854684,/,855363,/,856044,/,856723,/	t,t,t,t,t	<img class = center src='/static/experiments/beast_fmri_test/images/V.png'></img>	71,89	2750.0	test	<img class = center src='/static/experiments/beast_fmri_test/images/redV.png'></img>	go	2250.0	2.0	41.0	go	target	V	71,Index Finger	89,Middle Finger	500.0	350.0	2250.0	2400.0	1.0	n/a	500.0	1.0	go_stim
189538.43449473067	64.565505269387458	n/a	663	71	2750	64.5655052694	stim	stop-signal	282	856697	0.0-13.41-1.41	beast_fmri_test	338	854004,/,854684,/,855363,/,856044,/,856723,/	t,t,t,t,t	<img class = center src='/static/experiments/beast_fmri_test/images/V.png'></img>	71,89	2750.0	test	<img class = center src='/static/experiments/beast_fmri_test/images/redV.png'></img>	go	2250.0	2.0	41.0	go	target	V	71,Index Finger	89,Middle Finger	500.0	350.0	2250.0	2400.0	1.0	n/a	500.0	1.0	ITI
190205	500	n/a	-1	-1	500	0.0	fixation	poldrack-single-stim	283	857299	0.0-13.42-0.42	beast_fmri_test	338	n/a	n/a	<div class = centerbox2><div class = fixation>+</div></div>	none	500.0	test	n/a	n/a	n/a	n/a	n/a	n/a	n/a	n/a	n/a	n/a	n/a	n/a	n/a	n/a	n/a	n/a	n/a	n/a	fixation
189828.34647465486	500.0	n/a	-1	-1	2750	378.653525345	stim	stop-signal	284	860051	0.0-13.42-1.42	beast_fmri_test	338	857403,/,858083,/,858763,/,859442,/,860122,/	t,t,t,t,t	<img class = center src='/static/experiments/beast_fmri_test/images/B.png'></img>	71,89	2750.0	test	<img class = center src='/static/experiments/beast_fmri_test/images/redB.png'></img>	stop	2250.0	2.0	42.0	stop	target	B	71,Index Finger	89,Middle Finger	500.0	350.0	2250.0	2400.0	0.0	1.0	500.0	n/a	go_stim
192078.34647465486	2250.0	n/a	-1	-1	2750	378.653525345	stim	stop-signal	284	860051	0.0-13.42-1.42	beast_fmri_test	338	857403,/,858083,/,858763,/,859442,/,860122,/	t,t,t,t,t	<img class = center src='/static/experiments/beast_fmri_test/images/B.png'></img>	71,89	2750.0	test	<img class = center src='/static/experiments/beast_fmri_test/images/redB.png'></img>	stop	2250.0	2.0	42.0	stop	target	B	71,Index Finger	89,Middle Finger	500.0	350.0	2250.0	2400.0	0.0	1.0	500.0	n/a	stop_stim
192578.34647465486	378.65352534510691	n/a	-1	-1	2750	378.653525345	stim	stop-signal	284	860051	0.0-13.42-1.42	beast_fmri_test	338	857403,/,858083,/,858763,/,859442,/,860122,/	t,t,t,t,t	<img class = center src='/static/experiments/beast_fmri_test/images/B.png'></img>	71,89	2750.0	test	<img class = center src='/static/experiments/beast_fmri_test/images/redB.png'></img>	stop	2250.0	2.0	42.0	stop	target	B	71,Index Finger	89,Middle Finger	500.0	350.0	2250.0	2400.0	0.0	1.0	500.0	n/a	ITI
193872	500	n/a	-1	-1	500	0.0	fixation	poldrack-single-stim	285	860966	0.0-13.43-0.43	beast_fmri_test	338	860802,/	t	<div class = centerbox2><div class = fixation>+</div></div>	none	500.0	test	n/a	n/a	n/a	n/a	n/a	n/a	n/a	n/a	n/a	n/a	n/a	n/a	n/a	n/a	n/a	n/a	n/a	n/a	fixation
193802.17975104984	2750	n/a	617	89	2750	71.8202489502	stim	stop-signal	286	863718	0.0-13.43-1.43	beast_fmri_test	338	861481,/,862162,/,862841,/,863519,/	t,t,t,t	<img class = center src='/static/experiments/beast_fmri_test/images/P.png'></img>	71,89	2750.0	test	<img class = center src='/static/experiments/beast_fmri_test/images/redP.png'></img>	go	2400.0	2.0	43.0	go	non-target	P	71,Index Finger	89,Middle Finger	550.0	350.0	2250.0	2400.0	1.0	n/a	350.0	1.0	go_stim
196552.17975104984	71.820248950198732	n/a	617	89	2750	71.8202489502	stim	stop-signal	286	863718	0.0-13.43-1.43	beast_fmri_test	338	861481,/,862162,/,862841,/,863519,/	t,t,t,t	<img class = center src='/static/experiments/beast_fmri_test/images/P.png'></img>	71,89	2750.0	test	<img class = center src='/static/experiments/beast_fmri_test/images/redP.png'></img>	go	2400.0	2.0	43.0	go	non-target	P	71,Index Finger	89,Middle Finger	550.0	350.0	2250.0	2400.0	1.0	n/a	350.0	1.0	ITI
197231	500	n/a	-1	-1	500	0.0	fixation	poldrack-single-stim	287	864325	0.0-13.44-0.44	beast_fmri_test	338	864202,/	t	<div class = centerbox2><div class = fixation>+</div></div>	none	500.0	test	n/a	n/a	n/a	n/a	n/a	n/a	n/a	n/a	n/a	n/a	n/a	n/a	n/a	n/a	n/a	n/a	n/a	n/a	fixation
195763.65562795498	350.0	n/a	-1	-1	2750	1469.34437205	stim	stop-signal	288	867077	0.0-13.44-1.44	beast_fmri_test	338	864881,/,865560,/,866239,/,866920,/,867599,/,868279,/	t,t,t,t,t,t	<img class = center src='/static/experiments/beast_fmri_test/images/D.png'></img>	71,89	2750.0	test	<img class = center src='/static/experiments/beast_fmri_test/images/redD.png'></img>	stop	2400.0	2.0	44.0	stop	non-target	D	71,Index Finger	89,Middle Finger	550.0	350.0	2250.0	2400.0	0.0	1.0	350.0	n/a	go_stim
198163.65562795498	2400.0	n/a	-1	-1	2750	1469.34437205	stim	stop-signal	288	867077	0.0-13.44-1.44	beast_fmri_test	338	864881,/,865560,/,866239,/,866920,/,867599,/,868279,/	t,t,t,t,t,t	<img class = center src='/static/experiments/beast_fmri_test/images/D.png'></img>	71,89	2750.0	test	<img class = center src='/static/experiments/beast_fmri_test/images/redD.png'></img>	stop	2400.0	2.0	44.0	stop	non-target	D	71,Index Finger	89,Middle Finger	550.0	350.0	2250.0	2400.0	0.0	1.0	350.0	n/a	stop_stim
198513.65562795498	1469.3443720450402	n/a	-1	-1	2750	1469.34437205	stim	stop-signal	288	867077	0.0-13.44-1.44	beast_fmri_test	338	864881,/,865560,/,866239,/,866920,/,867599,/,868279,/	t,t,t,t,t,t	<img class = center src='/static/experiments/beast_fmri_test/images/D.png'></img>	71,89	2750.0	test	<img class = center src='/static/experiments/beast_fmri_test/images/redD.png'></img>	stop	2400.0	2.0	44.0	stop	non-target	D	71,Index Finger	89,Middle Finger	550.0	350.0	2250.0	2400.0	0.0	1.0	350.0	n/a	ITI
201987	500	n/a	-1	-1	500	0.0	fixation	poldrack-single-stim	289	869081	0.0-13.45-0.45	beast_fmri_test	338	868958,/	t	<div class = centerbox2><div class = fixation>+</div></div>	none	500.0	test	n/a	n/a	n/a	n/a	n/a	n/a	n/a	n/a	n/a	n/a	n/a	n/a	n/a	n/a	n/a	n/a	n/a	n/a	fixation
201909.71061438229	2750	n/a	690	89	2750	79.2893856178	stim	stop-signal	290	871833	0.0-13.45-1.45	beast_fmri_test	338	869639,/,870318,/,870998,/,871676,/	t,t,t,t	<img class = center src='/static/experiments/beast_fmri_test/images/V.png'></img>	71,89	2750.0	test	<img class = center src='/static/experiments/beast_fmri_test/images/redV.png'></img>	go	2350.0	2.0	45.0	go	non-target	V	71,Index Finger	89,Middle Finger	550.0	400.0	2250.0	2350.0	1.0	n/a	400.0	1.0	go_stim
204659.71061438229	79.289385617760587	n/a	690	89	2750	79.2893856178	stim	stop-signal	290	871833	0.0-13.45-1.45	beast_fmri_test	338	869639,/,870318,/,870998,/,871676,/	t,t,t,t	<img class = center src='/static/experiments/beast_fmri_test/images/V.png'></img>	71,89	2750.0	test	<img class = center src='/static/experiments/beast_fmri_test/images/redV.png'></img>	go	2350.0	2.0	45.0	go	non-target	V	71,Index Finger	89,Middle Finger	550.0	400.0	2250.0	2350.0	1.0	n/a	400.0	1.0	ITI
205355	500	n/a	-1	-1	500	0.0	fixation	poldrack-single-stim	291	872449	0.0-13.46-0.46	beast_fmri_test	338	872356,/	t	<div class = centerbox2><div class = fixation>+</div></div>	none	500.0	test	n/a	n/a	n/a	n/a	n/a	n/a	n/a	n/a	n/a	n/a	n/a	n/a	n/a	n/a	n/a	n/a	n/a	n/a	fixation
204956.9426717076	2750	n/a	1195	71	2750	400.057328292	stim	stop-signal	292	875201	0.0-13.46-1.46	beast_fmri_test	338	873036,/,873715,/,874395,/,875075,/	t,t,t,t	<img class = center src='/static/experiments/beast_fmri_test/images/P.png'></img>	71,89	2750.0	test	<img class = center src='/static/experiments/beast_fmri_test/images/redP.png'></img>	go	2350.0	2.0	46.0	go	non-target	P	71,Index Finger	89,Middle Finger	550.0	400.0	2250.0	2350.0	0.0	n/a	400.0	0.0	go_stim
207706.9426717076	400.05732829238531	n/a	1195	71	2750	400.057328292	stim	stop-signal	292	875201	0.0-13.46-1.46	beast_fmri_test	338	873036,/,873715,/,874395,/,875075,/	t,t,t,t	<img class = center src='/static/experiments/beast_fmri_test/images/P.png'></img>	71,89	2750.0	test	<img class = center src='/static/experiments/beast_fmri_test/images/redP.png'></img>	go	2350.0	2.0	46.0	go	non-target	P	71,Index Finger	89,Middle Finger	550.0	400.0	2250.0	2350.0	0.0	n/a	400.0	0.0	ITI
223532	15000	n/a	-1	-1	15000	0.0	practice-no-stop-feedback	poldrack-single-stim	293	890626	0.0-14.0	beast_fmri_test	338	875754,/,876435,/,877114,/,877794,/,878474,/,879154,/,879833,/,880513,/,881193,/,881872,/,882552,/,883232,/,883912,/,884591,/,885271,/,885951,/,886629,/,887310,/,887989,/,888669,/,889348,/,890028,/	t,t,t,t,t,t,t,t,t,t,t,t,t,t,t,t,t,t,t,t,t,t	"<div class = ""centerbox""><p class = ""block-text"">Your delay is 2 trials.</p><p class = block-text>Please wait for the scanner to start the block</p></div>"	77	15000.0	n/a	n/a	n/a	n/a	n/a	n/a	n/a	n/a	n/a	n/a	n/a	n/a	n/a	n/a	n/a	n/a	n/a	n/a	n/a	practice-no-stop-feedback
224035	500	n/a	-1	-1	500	0.0	fixation	poldrack-single-stim	294	891129	0.0-15.0-0.0	beast_fmri_test	338	890707,/	t	<div class = centerbox2><div class = fixation>+</div></div>	none	500.0	test	n/a	n/a	n/a	n/a	n/a	n/a	n/a	n/a	n/a	n/a	n/a	n/a	n/a	n/a	n/a	n/a	n/a	n/a	fixation
223788.59414900711	2750	n/a	1151	89	2750	248.405850993	stim	stop-signal	295	893881	0.0-15.0-1.0	beast_fmri_test	338	891386,/,892067,/,892748,/,893427,/,894107,/	t,t,t,t,t	<img class = center src='/static/experiments/beast_fmri_test/images/T.png'></img>	71,89	2750.0	test	<img class = center src='/static/experiments/beast_fmri_test/images/redT.png'></img>	go	-1.0	2.0	0.0	go	temp-non-target	T	71,Index Finger	89,Middle Finger	550.0	400.0	2250.0	2350.0	0.0	n/a	n/a	n/a	go_stim
226538.59414900711	248.40585099283868	n/a	1151	89	2750	248.405850993	stim	stop-signal	295	893881	0.0-15.0-1.0	beast_fmri_test	338	891386,/,892067,/,892748,/,893427,/,894107,/	t,t,t,t,t	<img class = center src='/static/experiments/beast_fmri_test/images/T.png'></img>	71,89	2750.0	test	<img class = center src='/static/experiments/beast_fmri_test/images/redT.png'></img>	go	-1.0	2.0	0.0	go	temp-non-target	T	71,Index Finger	89,Middle Finger	550.0	400.0	2250.0	2350.0	0.0	n/a	n/a	n/a	ITI
227576	500	n/a	-1	-1	500	0.0	fixation	poldrack-single-stim	296	894670	0.0-15.1-0.1	beast_fmri_test	338	n/a	n/a	<div class = centerbox2><div class = fixation>+</div></div>	none	500.0	test	n/a	n/a	n/a	n/a	n/a	n/a	n/a	n/a	n/a	n/a	n/a	n/a	n/a	n/a	n/a	n/a	n/a	n/a	fixation
225924.12270921201	temp_go_duration	n/a	668	89	2750	1653.87729079	stim	stop-signal	297	897422	0.0-15.1-1.1	beast_fmri_test	338	894785,/,895466,/,896146,/,896825,/,897506,/,898185,/,898865,/	t,t,t,t,t,t,t	<img class = center src='/static/experiments/beast_fmri_test/images/B.png'></img>	71,89	2750.0	test	<img class = center src='/static/experiments/beast_fmri_test/images/redB.png'></img>	stop	-1.0	2.0	1.0	stop	temp-non-target	B	71,Index Finger	89,Middle Finger	550.0	400.0	2250.0	2350.0	0.0	0.0	n/a	n/a	go_stim
temp-non-target	temp_stop_duration	n/a	668	89	2750	1653.87729079	stim	stop-signal	297	897422	0.0-15.1-1.1	beast_fmri_test	338	894785,/,895466,/,896146,/,896825,/,897506,/,898185,/,898865,/	t,t,t,t,t,t,t	<img class = center src='/static/experiments/beast_fmri_test/images/B.png'></img>	71,89	2750.0	test	<img class = center src='/static/experiments/beast_fmri_test/images/redB.png'></img>	stop	-1.0	2.0	1.0	stop	temp-non-target	B	71,Index Finger	89,Middle Finger	550.0	400.0	2250.0	2350.0	0.0	0.0	n/a	n/a	stop_stim
228674.12270921201	1653.8772907879334	n/a	668	89	2750	1653.87729079	stim	stop-signal	297	897422	0.0-15.1-1.1	beast_fmri_test	338	894785,/,895466,/,896146,/,896825,/,897506,/,898185,/,898865,/	t,t,t,t,t,t,t	<img class = center src='/static/experiments/beast_fmri_test/images/B.png'></img>	71,89	2750.0	test	<img class = center src='/static/experiments/beast_fmri_test/images/redB.png'></img>	stop	-1.0	2.0	1.0	stop	temp-non-target	B	71,Index Finger	89,Middle Finger	550.0	400.0	2250.0	2350.0	0.0	0.0	n/a	n/a	ITI
232519	500	n/a	-1	-1	500	0.0	fixation	poldrack-single-stim	298	899613	0.0-15.2-0.2	beast_fmri_test	338	899544,/	t	<div class = centerbox2><div class = fixation>+</div></div>	none	500.0	test	n/a	n/a	n/a	n/a	n/a	n/a	n/a	n/a	n/a	n/a	n/a	n/a	n/a	n/a	n/a	n/a	n/a	n/a	fixation
232500.4634148092	400.0	n/a	532	89	2750	20.5365851908	stim	stop-signal	299	902365	0.0-15.2-1.2	beast_fmri_test	338	900225,/,900904,/,901582,/,902262,/	t,t,t,t	<img class = center src='/static/experiments/beast_fmri_test/images/D.png'></img>	71,89	2750.0	test	<img class = center src='/static/experiments/beast_fmri_test/images/redD.png'></img>	stop	2350.0	2.0	2.0	stop	non-target	D	71,Index Finger	89,Middle Finger	550.0	400.0	2250.0	2350.0	0.0	0.0	400.0	n/a	go_stim
234850.4634148092	2350.0	n/a	532	89	2750	20.5365851908	stim	stop-signal	299	902365	0.0-15.2-1.2	beast_fmri_test	338	900225,/,900904,/,901582,/,902262,/	t,t,t,t	<img class = center src='/static/experiments/beast_fmri_test/images/D.png'></img>	71,89	2750.0	test	<img class = center src='/static/experiments/beast_fmri_test/images/redD.png'></img>	stop	2350.0	2.0	2.0	stop	non-target	D	71,Index Finger	89,Middle Finger	550.0	400.0	2250.0	2350.0	0.0	0.0	400.0	n/a	stop_stim
235250.4634148092	20.536585190790717	n/a	532	89	2750	20.5365851908	stim	stop-signal	299	902365	0.0-15.2-1.2	beast_fmri_test	338	900225,/,900904,/,901582,/,902262,/	t,t,t,t	<img class = center src='/static/experiments/beast_fmri_test/images/D.png'></img>	71,89	2750.0	test	<img class = center src='/static/experiments/beast_fmri_test/images/redD.png'></img>	stop	2350.0	2.0	2.0	stop	non-target	D	71,Index Finger	89,Middle Finger	550.0	400.0	2250.0	2350.0	0.0	0.0	400.0	n/a	ITI
235826	500	n/a	-1	-1	500	0.0	fixation	poldrack-single-stim	300	902920	0.0-15.3-0.3	beast_fmri_test	338	n/a	n/a	<div class = centerbox2><div class = fixation>+</div></div>	none	500.0	test	n/a	n/a	n/a	n/a	n/a	n/a	n/a	n/a	n/a	n/a	n/a	n/a	n/a	n/a	n/a	n/a	n/a	n/a	fixation
235802.17648281623	2750	n/a	966	89	2750	24.8235171838	stim	stop-signal	301	905671	0.0-15.3-1.3	beast_fmri_test	338	902943,/,903622,/,904302,/,904981,/,905660,/	t,t,t,t,t	<img class = center src='/static/experiments/beast_fmri_test/images/V.png'></img>	71,89	2750.0	test	<img class = center src='/static/experiments/beast_fmri_test/images/redV.png'></img>	go	2400.0	2.0	3.0	go	non-target	V	71,Index Finger	89,Middle Finger	550.0	350.0	2250.0	2400.0	1.0	n/a	350.0	1.0	go_stim
238552.17648281623	24.823517183806878	n/a	966	89	2750	24.8235171838	stim	stop-signal	301	905671	0.0-15.3-1.3	beast_fmri_test	338	902943,/,903622,/,904302,/,904981,/,905660,/	t,t,t,t,t	<img class = center src='/static/experiments/beast_fmri_test/images/V.png'></img>	71,89	2750.0	test	<img class = center src='/static/experiments/beast_fmri_test/images/redV.png'></img>	go	2400.0	2.0	3.0	go	non-target	V	71,Index Finger	89,Middle Finger	550.0	350.0	2250.0	2400.0	1.0	n/a	350.0	1.0	ITI
239136	500	n/a	-1	-1	500	0.0	fixation	poldrack-single-stim	302	906230	0.0-15.4-0.4	beast_fmri_test	338	n/a	n/a	<div class = centerbox2><div class = fixation>+</div></div>	none	500.0	test	n/a	n/a	n/a	n/a	n/a	n/a	n/a	n/a	n/a	n/a	n/a	n/a	n/a	n/a	n/a	n/a	n/a	n/a	fixation
238652.14752339094	2750	n/a	768	89	2750	486.852476609	stim	stop-signal	303	908983	0.0-15.4-1.4	beast_fmri_test	338	906340,/,907020,/,907699,/,908379,/,909060,/	t,t,t,t,t	<img class = center src='/static/experiments/beast_fmri_test/images/B.png'></img>	71,89	2750.0	test	<img class = center src='/static/experiments/beast_fmri_test/images/redB.png'></img>	go	2400.0	2.0	4.0	go	non-target	B	71,Index Finger	89,Middle Finger	550.0	350.0	2250.0	2400.0	1.0	n/a	350.0	1.0	go_stim
241402.14752339094	486.85247660906418	n/a	768	89	2750	486.852476609	stim	stop-signal	303	908983	0.0-15.4-1.4	beast_fmri_test	338	906340,/,907020,/,907699,/,908379,/,909060,/	t,t,t,t,t	<img class = center src='/static/experiments/beast_fmri_test/images/B.png'></img>	71,89	2750.0	test	<img class = center src='/static/experiments/beast_fmri_test/images/redB.png'></img>	go	2400.0	2.0	4.0	go	non-target	B	71,Index Finger	89,Middle Finger	550.0	350.0	2250.0	2400.0	1.0	n/a	350.0	1.0	ITI
242911	500	n/a	-1	-1	500	0.0	fixation	poldrack-single-stim	304	910005	0.0-15.5-0.5	beast_fmri_test	338	909740,/	t	<div class = centerbox2><div class = fixation>+</div></div>	none	500.0	test	n/a	n/a	n/a	n/a	n/a	n/a	n/a	n/a	n/a	n/a	n/a	n/a	n/a	n/a	n/a	n/a	n/a	n/a	fixation
241678.90171792149	2750	n/a	565	89	2750	1233.09828208	stim	stop-signal	305	912756	0.0-15.5-1.5	beast_fmri_test	338	910419,/,911098,/,911778,/,912458,/,913138,/,913818,/	t,t,t,t,t,t	<img class = center src='/static/experiments/beast_fmri_test/images/P.png'></img>	71,89	2750.0	test	<img class = center src='/static/experiments/beast_fmri_test/images/redP.png'></img>	go	2400.0	2.0	5.0	go	non-target	P	71,Index Finger	89,Middle Finger	550.0	350.0	2250.0	2400.0	1.0	n/a	350.0	1.0	go_stim
244428.90171792149	1233.0982820785518	n/a	565	89	2750	1233.09828208	stim	stop-signal	305	912756	0.0-15.5-1.5	beast_fmri_test	338	910419,/,911098,/,911778,/,912458,/,913138,/,913818,/	t,t,t,t,t,t	<img class = center src='/static/experiments/beast_fmri_test/images/P.png'></img>	71,89	2750.0	test	<img class = center src='/static/experiments/beast_fmri_test/images/redP.png'></img>	go	2400.0	2.0	5.0	go	non-target	P	71,Index Finger	89,Middle Finger	550.0	350.0	2250.0	2400.0	1.0	n/a	350.0	1.0	ITI
247433	500	n/a	-1	-1	500	0.0	fixation	poldrack-single-stim	306	914527	0.0-15.6-0.6	beast_fmri_test	338	914497,/	t	<div class = centerbox2><div class = fixation>+</div></div>	none	500.0	test	n/a	n/a	n/a	n/a	n/a	n/a	n/a	n/a	n/a	n/a	n/a	n/a	n/a	n/a	n/a	n/a	n/a	n/a	fixation
246906.5078507443	2750	n/a	744	89	2750	528.492149256	stim	stop-signal	307	917279	0.0-15.6-1.6	beast_fmri_test	338	915175,/,915856,/,916536,/,917216,/	t,t,t,t	<img class = center src='/static/experiments/beast_fmri_test/images/P.png'></img>	71,89	2750.0	test	<img class = center src='/static/experiments/beast_fmri_test/images/redP.png'></img>	go	2400.0	2.0	6.0	go	non-target	P	71,Index Finger	89,Middle Finger	550.0	350.0	2250.0	2400.0	1.0	n/a	350.0	1.0	go_stim
249656.5078507443	528.49214925572096	n/a	744	89	2750	528.492149256	stim	stop-signal	307	917279	0.0-15.6-1.6	beast_fmri_test	338	915175,/,915856,/,916536,/,917216,/	t,t,t,t	<img class = center src='/static/experiments/beast_fmri_test/images/P.png'></img>	71,89	2750.0	test	<img class = center src='/static/experiments/beast_fmri_test/images/redP.png'></img>	go	2400.0	2.0	6.0	go	non-target	P	71,Index Finger	89,Middle Finger	550.0	350.0	2250.0	2400.0	1.0	n/a	350.0	1.0	ITI
251251	500	n/a	-1	-1	500	0.0	fixation	poldrack-single-stim	308	918345	0.0-15.7-0.7	beast_fmri_test	338	917896,/	t	<div class = centerbox2><div class = fixation>+</div></div>	none	500.0	test	n/a	n/a	n/a	n/a	n/a	n/a	n/a	n/a	n/a	n/a	n/a	n/a	n/a	n/a	n/a	n/a	n/a	n/a	fixation
250643.76220978156	2750	n/a	744	89	2750	610.237790218	stim	stop-signal	309	921098	0.0-15.7-1.7	beast_fmri_test	338	918574,/,919254,/,919935,/,920613,/,921293,/	t,t,t,t,t	<img class = center src='/static/experiments/beast_fmri_test/images/B.png'></img>	71,89	2750.0	test	<img class = center src='/static/experiments/beast_fmri_test/images/redB.png'></img>	go	2400.0	2.0	7.0	go	non-target	B	71,Index Finger	89,Middle Finger	550.0	350.0	2250.0	2400.0	1.0	n/a	350.0	1.0	go_stim
253393.76220978156	610.23779021840653	n/a	744	89	2750	610.237790218	stim	stop-signal	309	921098	0.0-15.7-1.7	beast_fmri_test	338	918574,/,919254,/,919935,/,920613,/,921293,/	t,t,t,t,t	<img class = center src='/static/experiments/beast_fmri_test/images/B.png'></img>	71,89	2750.0	test	<img class = center src='/static/experiments/beast_fmri_test/images/redB.png'></img>	go	2400.0	2.0	7.0	go	non-target	B	71,Index Finger	89,Middle Finger	550.0	350.0	2250.0	2400.0	1.0	n/a	350.0	1.0	ITI
255154	500	n/a	-1	-1	500	0.0	fixation	poldrack-single-stim	310	922248	0.0-15.8-0.8	beast_fmri_test	338	921974,/	t	<div class = centerbox2><div class = fixation>+</div></div>	none	500.0	test	n/a	n/a	n/a	n/a	n/a	n/a	n/a	n/a	n/a	n/a	n/a	n/a	n/a	n/a	n/a	n/a	n/a	n/a	fixation
253569.28161899582	350.0	n/a	-1	-1	2750	1586.718381	stim	stop-signal	311	925000	0.0-15.8-1.8	beast_fmri_test	338	922652,/,923332,/,924013,/,924693,/,925372,/,926051,/	t,t,t,t,t,t	<img class = center src='/static/experiments/beast_fmri_test/images/V.png'></img>	71,89	2750.0	test	<img class = center src='/static/experiments/beast_fmri_test/images/redV.png'></img>	stop	2400.0	2.0	8.0	stop	non-target	V	71,Index Finger	89,Middle Finger	550.0	350.0	2250.0	2400.0	0.0	1.0	350.0	n/a	go_stim
255969.28161899582	2400.0	n/a	-1	-1	2750	1586.718381	stim	stop-signal	311	925000	0.0-15.8-1.8	beast_fmri_test	338	922652,/,923332,/,924013,/,924693,/,925372,/,926051,/	t,t,t,t,t,t	<img class = center src='/static/experiments/beast_fmri_test/images/V.png'></img>	71,89	2750.0	test	<img class = center src='/static/experiments/beast_fmri_test/images/redV.png'></img>	stop	2400.0	2.0	8.0	stop	non-target	V	71,Index Finger	89,Middle Finger	550.0	350.0	2250.0	2400.0	0.0	1.0	350.0	n/a	stop_stim
256319.28161899582	1586.718381004192	n/a	-1	-1	2750	1586.718381	stim	stop-signal	311	925000	0.0-15.8-1.8	beast_fmri_test	338	922652,/,923332,/,924013,/,924693,/,925372,/,926051,/	t,t,t,t,t,t	<img class = center src='/static/experiments/beast_fmri_test/images/V.png'></img>	71,89	2750.0	test	<img class = center src='/static/experiments/beast_fmri_test/images/redV.png'></img>	stop	2400.0	2.0	8.0	stop	non-target	V	71,Index Finger	89,Middle Finger	550.0	350.0	2250.0	2400.0	0.0	1.0	350.0	n/a	ITI
260030	500	n/a	-1	-1	500	0.0	fixation	poldrack-single-stim	312	927124	0.0-15.9-0.9	beast_fmri_test	338	926733,/	t	<div class = centerbox2><div class = fixation>+</div></div>	none	500.0	test	n/a	n/a	n/a	n/a	n/a	n/a	n/a	n/a	n/a	n/a	n/a	n/a	n/a	n/a	n/a	n/a	n/a	n/a	fixation
259484.21149231691	2750	n/a	819	89	2750	547.788507683	stim	stop-signal	313	929876	0.0-15.9-1.9	beast_fmri_test	338	927412,/,928091,/,928771,/,929450,/,930130,/	t,t,t,t,t	<img class = center src='/static/experiments/beast_fmri_test/images/P.png'></img>	71,89	2750.0	test	<img class = center src='/static/experiments/beast_fmri_test/images/redP.png'></img>	go	2350.0	2.0	9.0	go	non-target	P	71,Index Finger	89,Middle Finger	550.0	400.0	2250.0	2350.0	1.0	n/a	400.0	1.0	go_stim
262234.21149231691	547.78850768307939	n/a	819	89	2750	547.788507683	stim	stop-signal	313	929876	0.0-15.9-1.9	beast_fmri_test	338	927412,/,928091,/,928771,/,929450,/,930130,/	t,t,t,t,t	<img class = center src='/static/experiments/beast_fmri_test/images/P.png'></img>	71,89	2750.0	test	<img class = center src='/static/experiments/beast_fmri_test/images/redP.png'></img>	go	2350.0	2.0	9.0	go	non-target	P	71,Index Finger	89,Middle Finger	550.0	400.0	2250.0	2350.0	1.0	n/a	400.0	1.0	ITI
263868	500	n/a	-1	-1	500	0.0	fixation	poldrack-single-stim	314	930962	0.0-15.10-0.10	beast_fmri_test	338	930810,/	t	<div class = centerbox2><div class = fixation>+</div></div>	none	500.0	test	n/a	n/a	n/a	n/a	n/a	n/a	n/a	n/a	n/a	n/a	n/a	n/a	n/a	n/a	n/a	n/a	n/a	n/a	fixation
261907.15384362685	400.0	n/a	-1	-1	2750	1962.84615637	stim	stop-signal	315	933714	0.0-15.10-1.10	beast_fmri_test	338	931490,/,932170,/,932849,/,933527,/,934207,/,934888,/,935566,/	t,t,t,t,t,t,t	<img class = center src='/static/experiments/beast_fmri_test/images/D.png'></img>	71,89	2750.0	test	<img class = center src='/static/experiments/beast_fmri_test/images/redD.png'></img>	stop	2350.0	2.0	10.0	stop	non-target	D	71,Index Finger	89,Middle Finger	550.0	400.0	2250.0	2350.0	0.0	1.0	400.0	n/a	go_stim
264257.15384362685	2350.0	n/a	-1	-1	2750	1962.84615637	stim	stop-signal	315	933714	0.0-15.10-1.10	beast_fmri_test	338	931490,/,932170,/,932849,/,933527,/,934207,/,934888,/,935566,/	t,t,t,t,t,t,t	<img class = center src='/static/experiments/beast_fmri_test/images/D.png'></img>	71,89	2750.0	test	<img class = center src='/static/experiments/beast_fmri_test/images/redD.png'></img>	stop	2350.0	2.0	10.0	stop	non-target	D	71,Index Finger	89,Middle Finger	550.0	400.0	2250.0	2350.0	0.0	1.0	400.0	n/a	stop_stim
264657.15384362685	1962.8461563731698	n/a	-1	-1	2750	1962.84615637	stim	stop-signal	315	933714	0.0-15.10-1.10	beast_fmri_test	338	931490,/,932170,/,932849,/,933527,/,934207,/,934888,/,935566,/	t,t,t,t,t,t,t	<img class = center src='/static/experiments/beast_fmri_test/images/D.png'></img>	71,89	2750.0	test	<img class = center src='/static/experiments/beast_fmri_test/images/redD.png'></img>	stop	2350.0	2.0	10.0	stop	non-target	D	71,Index Finger	89,Middle Finger	550.0	400.0	2250.0	2350.0	0.0	1.0	400.0	n/a	ITI
269120	500	n/a	-1	-1	500	0.0	fixation	poldrack-single-stim	316	936214	0.0-15.11-0.11	beast_fmri_test	338	n/a	n/a	<div class = centerbox2><div class = fixation>+</div></div>	none	500.0	test	n/a	n/a	n/a	n/a	n/a	n/a	n/a	n/a	n/a	n/a	n/a	n/a	n/a	n/a	n/a	n/a	n/a	n/a	fixation
268565.76948211074	550.0	n/a	-1	-1	2750	555.230517889	stim	stop-signal	317	938965	0.0-15.11-1.11	beast_fmri_test	338	936247,/,936926,/,937607,/,938286,/,938966,/	t,t,t,t,t	<img class = center src='/static/experiments/beast_fmri_test/images/P.png'></img>	71,89	2750.0	test	<img class = center src='/static/experiments/beast_fmri_test/images/redP.png'></img>	stop	2200.0	2.0	11.0	stop	target	P	71,Index Finger	89,Middle Finger	550.0	450.0	2200.0	2350.0	0.0	1.0	550.0	n/a	go_stim
270765.76948211074	2200.0	n/a	-1	-1	2750	555.230517889	stim	stop-signal	317	938965	0.0-15.11-1.11	beast_fmri_test	338	936247,/,936926,/,937607,/,938286,/,938966,/	t,t,t,t,t	<img class = center src='/static/experiments/beast_fmri_test/images/P.png'></img>	71,89	2750.0	test	<img class = center src='/static/experiments/beast_fmri_test/images/redP.png'></img>	stop	2200.0	2.0	11.0	stop	target	P	71,Index Finger	89,Middle Finger	550.0	450.0	2200.0	2350.0	0.0	1.0	550.0	n/a	stop_stim
271315.76948211074	555.23051788930263	n/a	-1	-1	2750	555.230517889	stim	stop-signal	317	938965	0.0-15.11-1.11	beast_fmri_test	338	936247,/,936926,/,937607,/,938286,/,938966,/	t,t,t,t,t	<img class = center src='/static/experiments/beast_fmri_test/images/P.png'></img>	71,89	2750.0	test	<img class = center src='/static/experiments/beast_fmri_test/images/redP.png'></img>	stop	2200.0	2.0	11.0	stop	target	P	71,Index Finger	89,Middle Finger	550.0	450.0	2200.0	2350.0	0.0	1.0	550.0	n/a	ITI
272966	500	n/a	-1	-1	500	0.0	fixation	poldrack-single-stim	318	940060	0.0-15.12-0.12	beast_fmri_test	338	939645,/	t	<div class = centerbox2><div class = fixation>+</div></div>	none	500.0	test	n/a	n/a	n/a	n/a	n/a	n/a	n/a	n/a	n/a	n/a	n/a	n/a	n/a	n/a	n/a	n/a	n/a	n/a	fixation
271832.68235487549	2750	n/a	1387	89	2750	1134.31764512	stim	stop-signal	319	942811	0.0-15.12-1.12	beast_fmri_test	338	940325,/,941004,/,941685,/,942363,/,943043,/,943722,/	t,t,t,t,t,t	<img class = center src='/static/experiments/beast_fmri_test/images/B.png'></img>	71,89	2750.0	test	<img class = center src='/static/experiments/beast_fmri_test/images/redB.png'></img>	go	2300.0	2.0	12.0	go	non-target	B	71,Index Finger	89,Middle Finger	600.0	450.0	2200.0	2300.0	1.0	n/a	450.0	1.0	go_stim
274582.68235487549	1134.3176451245145	n/a	1387	89	2750	1134.31764512	stim	stop-signal	319	942811	0.0-15.12-1.12	beast_fmri_test	338	940325,/,941004,/,941685,/,942363,/,943043,/,943722,/	t,t,t,t,t,t	<img class = center src='/static/experiments/beast_fmri_test/images/B.png'></img>	71,89	2750.0	test	<img class = center src='/static/experiments/beast_fmri_test/images/redB.png'></img>	go	2300.0	2.0	12.0	go	non-target	B	71,Index Finger	89,Middle Finger	600.0	450.0	2200.0	2300.0	1.0	n/a	450.0	1.0	ITI
277392	500	n/a	-1	-1	500	0.0	fixation	poldrack-single-stim	320	944486	0.0-15.13-0.13	beast_fmri_test	338	944403,/	t	<div class = centerbox2><div class = fixation>+</div></div>	none	500.0	test	n/a	n/a	n/a	n/a	n/a	n/a	n/a	n/a	n/a	n/a	n/a	n/a	n/a	n/a	n/a	n/a	n/a	n/a	fixation
276567.10865707439	2750	n/a	1462	71	2750	825.891342926	stim	stop-signal	321	947237	0.0-15.13-1.13	beast_fmri_test	338	945083,/,945762,/,946441,/,947122,/,947802,/	t,t,t,t,t	<img class = center src='/static/experiments/beast_fmri_test/images/P.png'></img>	71,89	2750.0	test	<img class = center src='/static/experiments/beast_fmri_test/images/redP.png'></img>	go	2150.0	2.0	13.0	go	target	P	71,Index Finger	89,Middle Finger	600.0	450.0	2150.0	2300.0	1.0	n/a	600.0	1.0	go_stim
279317.10865707439	825.89134292564881	n/a	1462	71	2750	825.891342926	stim	stop-signal	321	947237	0.0-15.13-1.13	beast_fmri_test	338	945083,/,945762,/,946441,/,947122,/,947802,/	t,t,t,t,t	<img class = center src='/static/experiments/beast_fmri_test/images/P.png'></img>	71,89	2750.0	test	<img class = center src='/static/experiments/beast_fmri_test/images/redP.png'></img>	go	2150.0	2.0	13.0	go	target	P	71,Index Finger	89,Middle Finger	600.0	450.0	2150.0	2300.0	1.0	n/a	600.0	1.0	ITI
281511	500	n/a	-1	-1	500	0.0	fixation	poldrack-single-stim	322	948605	0.0-15.14-0.14	beast_fmri_test	338	948481,/	t	<div class = centerbox2><div class = fixation>+</div></div>	none	500.0	test	n/a	n/a	n/a	n/a	n/a	n/a	n/a	n/a	n/a	n/a	n/a	n/a	n/a	n/a	n/a	n/a	n/a	n/a	fixation
280186.88682040258	2750	n/a	790	71	2750	1324.1131796	stim	stop-signal	323	951355	0.0-15.14-1.14	beast_fmri_test	338	949161,/,949839,/,950520,/,951200,/,951881,/,952559,/	t,t,t,t,t,t	<img class = center src='/static/experiments/beast_fmri_test/images/B.png'></img>	71,89	2750.0	test	<img class = center src='/static/experiments/beast_fmri_test/images/redB.png'></img>	go	2150.0	2.0	14.0	go	target	B	71,Index Finger	89,Middle Finger	600.0	450.0	2150.0	2300.0	1.0	n/a	600.0	1.0	go_stim
282936.88682040258	1324.1131795974195	n/a	790	71	2750	1324.1131796	stim	stop-signal	323	951355	0.0-15.14-1.14	beast_fmri_test	338	949161,/,949839,/,950520,/,951200,/,951881,/,952559,/	t,t,t,t,t,t	<img class = center src='/static/experiments/beast_fmri_test/images/B.png'></img>	71,89	2750.0	test	<img class = center src='/static/experiments/beast_fmri_test/images/redB.png'></img>	go	2150.0	2.0	14.0	go	target	B	71,Index Finger	89,Middle Finger	600.0	450.0	2150.0	2300.0	1.0	n/a	600.0	1.0	ITI
286120	500	n/a	-1	-1	500	0.0	fixation	poldrack-single-stim	324	953214	0.0-15.15-0.15	beast_fmri_test	338	n/a	n/a	<div class = centerbox2><div class = fixation>+</div></div>	none	500.0	test	n/a	n/a	n/a	n/a	n/a	n/a	n/a	n/a	n/a	n/a	n/a	n/a	n/a	n/a	n/a	n/a	n/a	n/a	fixation
283865.51705930301	2750	n/a	961	89	2750	2254.4829407	stim	stop-signal	325	955964	0.0-15.15-1.15	beast_fmri_test	338	953238,/,953918,/,954599,/,955279,/,955959,/,956638,/,957317,/,957996,/	t,t,t,t,t,t,t,t	<img class = center src='/static/experiments/beast_fmri_test/images/B.png'></img>	71,89	2750.0	test	<img class = center src='/static/experiments/beast_fmri_test/images/redB.png'></img>	go	2300.0	2.0	15.0	go	non-target	B	71,Index Finger	89,Middle Finger	600.0	450.0	2150.0	2300.0	1.0	n/a	450.0	1.0	go_stim
286615.51705930301	2254.4829406969557	n/a	961	89	2750	2254.4829407	stim	stop-signal	325	955964	0.0-15.15-1.15	beast_fmri_test	338	953238,/,953918,/,954599,/,955279,/,955959,/,956638,/,957317,/,957996,/	t,t,t,t,t,t,t,t	<img class = center src='/static/experiments/beast_fmri_test/images/B.png'></img>	71,89	2750.0	test	<img class = center src='/static/experiments/beast_fmri_test/images/redB.png'></img>	go	2300.0	2.0	15.0	go	non-target	B	71,Index Finger	89,Middle Finger	600.0	450.0	2150.0	2300.0	1.0	n/a	450.0	1.0	ITI
291662	500	n/a	-1	-1	500	0.0	fixation	poldrack-single-stim	326	958756	0.0-15.16-0.16	beast_fmri_test	338	958676,/	t	<div class = centerbox2><div class = fixation>+</div></div>	none	500.0	test	n/a	n/a	n/a	n/a	n/a	n/a	n/a	n/a	n/a	n/a	n/a	n/a	n/a	n/a	n/a	n/a	n/a	n/a	fixation
291567.04094909248	600.0	n/a	641	71	2750	95.9590509075	stim	stop-signal	327	961507	0.0-15.16-1.16	beast_fmri_test	338	959355,/,960035,/,960715,/,961396,/	t,t,t,t	<img class = center src='/static/experiments/beast_fmri_test/images/B.png'></img>	71,89	2750.0	test	<img class = center src='/static/experiments/beast_fmri_test/images/redB.png'></img>	stop	2150.0	2.0	16.0	stop	target	B	71,Index Finger	89,Middle Finger	600.0	450.0	2150.0	2300.0	0.0	0.0	600.0	n/a	go_stim
293717.04094909248	2150.0	n/a	641	71	2750	95.9590509075	stim	stop-signal	327	961507	0.0-15.16-1.16	beast_fmri_test	338	959355,/,960035,/,960715,/,961396,/	t,t,t,t	<img class = center src='/static/experiments/beast_fmri_test/images/B.png'></img>	71,89	2750.0	test	<img class = center src='/static/experiments/beast_fmri_test/images/redB.png'></img>	stop	2150.0	2.0	16.0	stop	target	B	71,Index Finger	89,Middle Finger	600.0	450.0	2150.0	2300.0	0.0	0.0	600.0	n/a	stop_stim
294317.04094909248	95.959050907504107	n/a	641	71	2750	95.9590509075	stim	stop-signal	327	961507	0.0-15.16-1.16	beast_fmri_test	338	959355,/,960035,/,960715,/,961396,/	t,t,t,t	<img class = center src='/static/experiments/beast_fmri_test/images/B.png'></img>	71,89	2750.0	test	<img class = center src='/static/experiments/beast_fmri_test/images/redB.png'></img>	stop	2150.0	2.0	16.0	stop	target	B	71,Index Finger	89,Middle Finger	600.0	450.0	2150.0	2300.0	0.0	0.0	600.0	n/a	ITI
295048	500	n/a	-1	-1	500	0.0	fixation	poldrack-single-stim	328	962142	0.0-15.17-0.17	beast_fmri_test	338	962075,/	t	<div class = centerbox2><div class = fixation>+</div></div>	none	500.0	test	n/a	n/a	n/a	n/a	n/a	n/a	n/a	n/a	n/a	n/a	n/a	n/a	n/a	n/a	n/a	n/a	n/a	n/a	fixation
293573.08402004	450.0	n/a	595	89	2750	1474.91597996	stim	stop-signal	329	964892	0.0-15.17-1.17	beast_fmri_test	338	962753,/,963435,/,964113,/,964794,/,965472,/,966154,/	t,t,t,t,t,t	<img class = center src='/static/experiments/beast_fmri_test/images/T.png'></img>	71,89	2750.0	test	<img class = center src='/static/experiments/beast_fmri_test/images/redT.png'></img>	stop	2300.0	2.0	17.0	stop	non-target	T	71,Index Finger	89,Middle Finger	550.0	450.0	2150.0	2300.0	0.0	0.0	450.0	n/a	go_stim
295873.08402004	2300.0	n/a	595	89	2750	1474.91597996	stim	stop-signal	329	964892	0.0-15.17-1.17	beast_fmri_test	338	962753,/,963435,/,964113,/,964794,/,965472,/,966154,/	t,t,t,t,t,t	<img class = center src='/static/experiments/beast_fmri_test/images/T.png'></img>	71,89	2750.0	test	<img class = center src='/static/experiments/beast_fmri_test/images/redT.png'></img>	stop	2300.0	2.0	17.0	stop	non-target	T	71,Index Finger	89,Middle Finger	550.0	450.0	2150.0	2300.0	0.0	0.0	450.0	n/a	stop_stim
296323.08402004	1474.915979959999	n/a	595	89	2750	1474.91597996	stim	stop-signal	329	964892	0.0-15.17-1.17	beast_fmri_test	338	962753,/,963435,/,964113,/,964794,/,965472,/,966154,/	t,t,t,t,t,t	<img class = center src='/static/experiments/beast_fmri_test/images/T.png'></img>	71,89	2750.0	test	<img class = center src='/static/experiments/beast_fmri_test/images/redT.png'></img>	stop	2300.0	2.0	17.0	stop	non-target	T	71,Index Finger	89,Middle Finger	550.0	450.0	2150.0	2300.0	0.0	0.0	450.0	n/a	ITI
299806	500	n/a	-1	-1	500	0.0	fixation	poldrack-single-stim	330	966900	0.0-15.18-0.18	beast_fmri_test	338	966833,/	t	<div class = centerbox2><div class = fixation>+</div></div>	none	500.0	test	n/a	n/a	n/a	n/a	n/a	n/a	n/a	n/a	n/a	n/a	n/a	n/a	n/a	n/a	n/a	n/a	n/a	n/a	fixation
299776.591380161	2750	n/a	726	71	2750	31.408619839	stim	stop-signal	331	969652	0.0-15.18-1.18	beast_fmri_test	338	967511,/,968191,/,968871,/,969551,/	t,t,t,t	<img class = center src='/static/experiments/beast_fmri_test/images/T.png'></img>	71,89	2750.0	test	<img class = center src='/static/experiments/beast_fmri_test/images/redT.png'></img>	go	2350.0	2.0	18.0	go	non-target	T	71,Index Finger	89,Middle Finger	550.0	400.0	2150.0	2350.0	0.0	n/a	400.0	0.0	go_stim
302526.591380161	31.40861983899697	n/a	726	71	2750	31.408619839	stim	stop-signal	331	969652	0.0-15.18-1.18	beast_fmri_test	338	967511,/,968191,/,968871,/,969551,/	t,t,t,t	<img class = center src='/static/experiments/beast_fmri_test/images/T.png'></img>	71,89	2750.0	test	<img class = center src='/static/experiments/beast_fmri_test/images/redT.png'></img>	go	2350.0	2.0	18.0	go	non-target	T	71,Index Finger	89,Middle Finger	550.0	400.0	2150.0	2350.0	0.0	n/a	400.0	0.0	ITI
303132	500	n/a	-1	-1	500	0.0	fixation	poldrack-single-stim	332	970226	0.0-15.19-0.19	beast_fmri_test	338	n/a	n/a	<div class = centerbox2><div class = fixation>+</div></div>	none	500.0	test	n/a	n/a	n/a	n/a	n/a	n/a	n/a	n/a	n/a	n/a	n/a	n/a	n/a	n/a	n/a	n/a	n/a	n/a	fixation
302156.75696573721	550.0	n/a	827	71	2750	977.243034263	stim	stop-signal	333	972978	0.0-15.19-1.19	beast_fmri_test	338	970230,/,970911,/,971589,/,972270,/,972948,/,973628,/	t,t,t,t,t,t	<img class = center src='/static/experiments/beast_fmri_test/images/T.png'></img>	71,89	2750.0	test	<img class = center src='/static/experiments/beast_fmri_test/images/redT.png'></img>	stop	2200.0	2.0	19.0	stop	target	T	71,Index Finger	89,Middle Finger	550.0	400.0	2200.0	2350.0	0.0	0.0	550.0	n/a	go_stim
304356.75696573721	2200.0	n/a	827	71	2750	977.243034263	stim	stop-signal	333	972978	0.0-15.19-1.19	beast_fmri_test	338	970230,/,970911,/,971589,/,972270,/,972948,/,973628,/	t,t,t,t,t,t	<img class = center src='/static/experiments/beast_fmri_test/images/T.png'></img>	71,89	2750.0	test	<img class = center src='/static/experiments/beast_fmri_test/images/redT.png'></img>	stop	2200.0	2.0	19.0	stop	target	T	71,Index Finger	89,Middle Finger	550.0	400.0	2200.0	2350.0	0.0	0.0	550.0	n/a	stop_stim
304906.75696573721	977.2430342627988	n/a	827	71	2750	977.243034263	stim	stop-signal	333	972978	0.0-15.19-1.19	beast_fmri_test	338	970230,/,970911,/,971589,/,972270,/,972948,/,973628,/	t,t,t,t,t,t	<img class = center src='/static/experiments/beast_fmri_test/images/T.png'></img>	71,89	2750.0	test	<img class = center src='/static/experiments/beast_fmri_test/images/redT.png'></img>	stop	2200.0	2.0	19.0	stop	target	T	71,Index Finger	89,Middle Finger	550.0	400.0	2200.0	2350.0	0.0	0.0	550.0	n/a	ITI
307412	500	n/a	-1	-1	500	0.0	fixation	poldrack-single-stim	334	974506	0.0-15.20-0.20	beast_fmri_test	338	974316,/	t	<div class = centerbox2><div class = fixation>+</div></div>	none	500.0	test	n/a	n/a	n/a	n/a	n/a	n/a	n/a	n/a	n/a	n/a	n/a	n/a	n/a	n/a	n/a	n/a	n/a	n/a	fixation
307094.91153971828	2750	n/a	976	71	2750	319.088460282	stim	stop-signal	335	977258	0.0-15.20-1.20	beast_fmri_test	338	974990,/,975667,/,976346,/,977026,/	t,t,t,t	<img class = center src='/static/experiments/beast_fmri_test/images/T.png'></img>	71,89	2750.0	test	<img class = center src='/static/experiments/beast_fmri_test/images/redT.png'></img>	go	2250.0	2.0	20.0	go	target	T	71,Index Finger	89,Middle Finger	500.0	400.0	2250.0	2350.0	1.0	n/a	500.0	1.0	go_stim
309844.91153971828	319.08846028169103	n/a	976	71	2750	319.088460282	stim	stop-signal	335	977258	0.0-15.20-1.20	beast_fmri_test	338	974990,/,975667,/,976346,/,977026,/	t,t,t,t	<img class = center src='/static/experiments/beast_fmri_test/images/T.png'></img>	71,89	2750.0	test	<img class = center src='/static/experiments/beast_fmri_test/images/redT.png'></img>	go	2250.0	2.0	20.0	go	target	T	71,Index Finger	89,Middle Finger	500.0	400.0	2250.0	2350.0	1.0	n/a	500.0	1.0	ITI
311023	500	n/a	-1	-1	500	0.0	fixation	poldrack-single-stim	336	978117	0.0-15.21-0.21	beast_fmri_test	338	977707,/	t	<div class = centerbox2><div class = fixation>+</div></div>	none	500.0	test	n/a	n/a	n/a	n/a	n/a	n/a	n/a	n/a	n/a	n/a	n/a	n/a	n/a	n/a	n/a	n/a	n/a	n/a	fixation
310701.47308373509	2750	n/a	908	89	2750	325.526916265	stim	stop-signal	337	980871	0.0-15.21-1.21	beast_fmri_test	338	978387,/,979067,/,979746,/,980426,/,981107,/	t,t,t,t,t	<img class = center src='/static/experiments/beast_fmri_test/images/D.png'></img>	71,89	2750.0	test	<img class = center src='/static/experiments/beast_fmri_test/images/redD.png'></img>	go	2350.0	2.0	21.0	go	non-target	D	71,Index Finger	89,Middle Finger	500.0	400.0	2250.0	2350.0	1.0	n/a	400.0	1.0	go_stim
313451.47308373509	325.52691626485307	n/a	908	89	2750	325.526916265	stim	stop-signal	337	980871	0.0-15.21-1.21	beast_fmri_test	338	978387,/,979067,/,979746,/,980426,/,981107,/	t,t,t,t,t	<img class = center src='/static/experiments/beast_fmri_test/images/D.png'></img>	71,89	2750.0	test	<img class = center src='/static/experiments/beast_fmri_test/images/redD.png'></img>	go	2350.0	2.0	21.0	go	non-target	D	71,Index Finger	89,Middle Finger	500.0	400.0	2250.0	2350.0	1.0	n/a	400.0	1.0	ITI
314634	500	n/a	-1	-1	500	0.0	fixation	poldrack-single-stim	338	981728	0.0-15.22-0.22	beast_fmri_test	338	n/a	n/a	<div class = centerbox2><div class = fixation>+</div></div>	none	500.0	test	n/a	n/a	n/a	n/a	n/a	n/a	n/a	n/a	n/a	n/a	n/a	n/a	n/a	n/a	n/a	n/a	n/a	n/a	fixation
314604.09346828295	2750	n/a	611	89	2750	32.906531717	stim	stop-signal	339	984481	0.0-15.22-1.22	beast_fmri_test	338	981786,/,982468,/,983145,/,983825,/,984504,/	t,t,t,t,t	<img class = center src='/static/experiments/beast_fmri_test/images/D.png'></img>	71,89	2750.0	test	<img class = center src='/static/experiments/beast_fmri_test/images/redD.png'></img>	go	2350.0	2.0	22.0	go	non-target	D	71,Index Finger	89,Middle Finger	500.0	400.0	2250.0	2350.0	1.0	n/a	400.0	1.0	go_stim
