onset	duration	text	rt	key_press	block_duration	timing_post_trial	trial_id	trial_type	trial_index	time_elapsed	internal_node_id	exp_id	subject_id	trigger_times	triggers	stimulus	possible_responses	stim_duration	exp_stage	SS_stimulus	SS_trial_type	SS_duration	load	trial_num	stop_trial_type	adaptive_trial_type	stim	yes_response_key	no_response_key	SSD_target	SSD_non_target	SSTarget	SSNonTarget	go_acc	stop_acc	SS_delay	adaptive_acc	new_trial_type
test	10880	n/a	-1	-1	10880	0.0	practice-no-stop-feedback	poldrack-single-stim	6	107212	0.0-6.0	beast_fmri_test	338	96334,/,97012,/,97692,/,98372,/,99052,/,99733,/,100412,/,101091,/,101771,/,102452,/,103131,/,103811,/,104489,/,105170,/,105849,/,106529,/,107208,/	t,t,t,t,t,t,t,t,t,t,t,t,t,t,t,t,t	"<div class = ""centerbox""><p class = ""block-text"">Your delay is 2 trials.</p><p class = block-text>Please wait for the scanner to start the block</p></div>"	77	10880.0	n/a	n/a	n/a	n/a	n/a	n/a	n/a	n/a	n/a	n/a	n/a	n/a	n/a	n/a	n/a	n/a	n/a	n/a	n/a	start_functional_block
11381	500	n/a	-1	-1	500	0.0	fixation	poldrack-single-stim	7	107715	0.0-7.0-0.0	beast_fmri_test	338	n/a	n/a	<div class = centerbox2><div class = fixation>+</div></div>	none	500.0	test	n/a	n/a	n/a	n/a	n/a	n/a	n/a	n/a	n/a	n/a	n/a	n/a	n/a	n/a	n/a	n/a	n/a	n/a	fixation
11063.134431662125	temp_go_duration	n/a	1948	89	2750	326.865568338	stim	stop-signal	8	110474	0.0-7.0-1.0	beast_fmri_test	338	107889,/,108568,/,109248,/,109926,/,110606,/	t,t,t,t,t	<img class = center src='/static/experiments/beast_fmri_test/images/B.png'></img>	71,89	2750.0	test	<img class = center src='/static/experiments/beast_fmri_test/images/redB.png'></img>	stop	-1.0	2.0	0.0	stop	temp-non-target	B	71,Index Finger	89,Middle Finger	500.0	500.0	0.0	0.0	0.0	0.0	n/a	n/a	go_stim
temp-non-target	temp_stop_duration	n/a	1948	89	2750	326.865568338	stim	stop-signal	8	110474	0.0-7.0-1.0	beast_fmri_test	338	107889,/,108568,/,109248,/,109926,/,110606,/	t,t,t,t,t	<img class = center src='/static/experiments/beast_fmri_test/images/B.png'></img>	71,89	2750.0	test	<img class = center src='/static/experiments/beast_fmri_test/images/redB.png'></img>	stop	-1.0	2.0	0.0	stop	temp-non-target	B	71,Index Finger	89,Middle Finger	500.0	500.0	0.0	0.0	0.0	0.0	n/a	n/a	stop_stim
13813.134431662125	326.86556833787165	n/a	1948	89	2750	326.865568338	stim	stop-signal	8	110474	0.0-7.0-1.0	beast_fmri_test	338	107889,/,108568,/,109248,/,109926,/,110606,/	t,t,t,t,t	<img class = center src='/static/experiments/beast_fmri_test/images/B.png'></img>	71,89	2750.0	test	<img class = center src='/static/experiments/beast_fmri_test/images/redB.png'></img>	stop	-1.0	2.0	0.0	stop	temp-non-target	B	71,Index Finger	89,Middle Finger	500.0	500.0	0.0	0.0	0.0	0.0	n/a	n/a	ITI
14975	500	n/a	-1	-1	500	0.0	fixation	poldrack-single-stim	9	111309	0.0-7.1-0.1	beast_fmri_test	338	111287,/	t	<div class = centerbox2><div class = fixation>+</div></div>	none	500.0	test	n/a	n/a	n/a	n/a	n/a	n/a	n/a	n/a	n/a	n/a	n/a	n/a	n/a	n/a	n/a	n/a	n/a	n/a	fixation
13531.984893080866	2750	n/a	683	89	2750	1445.01510692	stim	stop-signal	10	114061	0.0-7.1-1.1	beast_fmri_test	338	111966,/,112646,/,113325,/,114005,/,114684,/,115364,/	t,t,t,t,t,t	<img class = center src='/static/experiments/beast_fmri_test/images/T.png'></img>	71,89	2750.0	test	<img class = center src='/static/experiments/beast_fmri_test/images/redT.png'></img>	go	-1.0	2.0	1.0	go	temp-non-target	T	71,Index Finger	89,Middle Finger	500.0	500.0	0.0	0.0	0.0	n/a	n/a	n/a	go_stim
16281.984893080866	1445.0151069191413	n/a	683	89	2750	1445.01510692	stim	stop-signal	10	114061	0.0-7.1-1.1	beast_fmri_test	338	111966,/,112646,/,113325,/,114005,/,114684,/,115364,/	t,t,t,t,t,t	<img class = center src='/static/experiments/beast_fmri_test/images/T.png'></img>	71,89	2750.0	test	<img class = center src='/static/experiments/beast_fmri_test/images/redT.png'></img>	go	-1.0	2.0	1.0	go	temp-non-target	T	71,Index Finger	89,Middle Finger	500.0	500.0	0.0	0.0	0.0	n/a	n/a	n/a	ITI
19679	500	n/a	-1	-1	500	0.0	fixation	poldrack-single-stim	11	116013	0.0-7.2-0.2	beast_fmri_test	338	n/a	n/a	<div class = centerbox2><div class = fixation>+</div></div>	none	500.0	test	n/a	n/a	n/a	n/a	n/a	n/a	n/a	n/a	n/a	n/a	n/a	n/a	n/a	n/a	n/a	n/a	n/a	n/a	fixation
18618.23436352401	2750	n/a	645	89	2750	1062.76563648	stim	stop-signal	12	118765	0.0-7.2-1.2	beast_fmri_test	338	116043,/,116723,/,117404,/,118083,/,118762,/,119443,/	t,t,t,t,t,t	<img class = center src='/static/experiments/beast_fmri_test/images/V.png'></img>	71,89	2750.0	test	<img class = center src='/static/experiments/beast_fmri_test/images/redV.png'></img>	go	2250.0	2.0	2.0	go	non-target	V	71,Index Finger	89,Middle Finger	500.0	500.0	0.0	2250.0	1.0	n/a	500.0	1.0	go_stim
21368.23436352401	1062.7656364759896	n/a	645	89	2750	1062.76563648	stim	stop-signal	12	118765	0.0-7.2-1.2	beast_fmri_test	338	116043,/,116723,/,117404,/,118083,/,118762,/,119443,/	t,t,t,t,t,t	<img class = center src='/static/experiments/beast_fmri_test/images/V.png'></img>	71,89	2750.0	test	<img class = center src='/static/experiments/beast_fmri_test/images/redV.png'></img>	go	2250.0	2.0	2.0	go	non-target	V	71,Index Finger	89,Middle Finger	500.0	500.0	0.0	2250.0	1.0	n/a	500.0	1.0	ITI
24000	500	n/a	-1	-1	500	0.0	fixation	poldrack-single-stim	13	120334	0.0-7.3-0.3	beast_fmri_test	338	120122,/	t	<div class = centerbox2><div class = fixation>+</div></div>	none	500.0	test	n/a	n/a	n/a	n/a	n/a	n/a	n/a	n/a	n/a	n/a	n/a	n/a	n/a	n/a	n/a	n/a	n/a	n/a	fixation
23320.652686432426	500.0	n/a	587	89	2750	682.347313568	stim	stop-signal	14	123087	0.0-7.3-1.3	beast_fmri_test	338	120800,/,121482,/,122160,/,122841,/,123521,/	t,t,t,t,t	<img class = center src='/static/experiments/beast_fmri_test/images/D.png'></img>	71,89	2750.0	test	<img class = center src='/static/experiments/beast_fmri_test/images/redD.png'></img>	stop	2250.0	2.0	3.0	stop	non-target	D	71,Index Finger	89,Middle Finger	500.0	500.0	0.0	2250.0	0.0	0.0	500.0	n/a	go_stim
25570.652686432426	2250.0	n/a	587	89	2750	682.347313568	stim	stop-signal	14	123087	0.0-7.3-1.3	beast_fmri_test	338	120800,/,121482,/,122160,/,122841,/,123521,/	t,t,t,t,t	<img class = center src='/static/experiments/beast_fmri_test/images/D.png'></img>	71,89	2750.0	test	<img class = center src='/static/experiments/beast_fmri_test/images/redD.png'></img>	stop	2250.0	2.0	3.0	stop	non-target	D	71,Index Finger	89,Middle Finger	500.0	500.0	0.0	2250.0	0.0	0.0	500.0	n/a	stop_stim
26070.652686432426	682.34731356756856	n/a	587	89	2750	682.347313568	stim	stop-signal	14	123087	0.0-7.3-1.3	beast_fmri_test	338	120800,/,121482,/,122160,/,122841,/,123521,/	t,t,t,t,t	<img class = center src='/static/experiments/beast_fmri_test/images/D.png'></img>	71,89	2750.0	test	<img class = center src='/static/experiments/beast_fmri_test/images/redD.png'></img>	stop	2250.0	2.0	3.0	stop	non-target	D	71,Index Finger	89,Middle Finger	500.0	500.0	0.0	2250.0	0.0	0.0	500.0	n/a	ITI
27940	500	n/a	-1	-1	500	0.0	fixation	poldrack-single-stim	15	124274	0.0-7.4-0.4	beast_fmri_test	338	124199,/	t	<div class = centerbox2><div class = fixation>+</div></div>	none	500.0	test	n/a	n/a	n/a	n/a	n/a	n/a	n/a	n/a	n/a	n/a	n/a	n/a	n/a	n/a	n/a	n/a	n/a	n/a	fixation
27639.778735668471	2750	n/a	773	71	2750	306.221264332	stim	stop-signal	16	127030	0.0-7.4-1.4	beast_fmri_test	338	124880,/,125559,/,126239,/,126919,/	t,t,t,t	<img class = center src='/static/experiments/beast_fmri_test/images/V.png'></img>	71,89	2750.0	test	<img class = center src='/static/experiments/beast_fmri_test/images/redV.png'></img>	go	2250.0	2.0	4.0	go	target	V	71,Index Finger	89,Middle Finger	500.0	450.0	2250.0	2250.0	1.0	n/a	500.0	1.0	go_stim
30389.778735668471	306.22126433152749	n/a	773	71	2750	306.221264332	stim	stop-signal	16	127030	0.0-7.4-1.4	beast_fmri_test	338	124880,/,125559,/,126239,/,126919,/	t,t,t,t	<img class = center src='/static/experiments/beast_fmri_test/images/V.png'></img>	71,89	2750.0	test	<img class = center src='/static/experiments/beast_fmri_test/images/redV.png'></img>	go	2250.0	2.0	4.0	go	target	V	71,Index Finger	89,Middle Finger	500.0	450.0	2250.0	2250.0	1.0	n/a	500.0	1.0	ITI
31509	500	n/a	-1	-1	500	0.0	fixation	poldrack-single-stim	17	127843	0.0-7.5-0.5	beast_fmri_test	338	127599,/	t	<div class = centerbox2><div class = fixation>+</div></div>	none	500.0	test	n/a	n/a	n/a	n/a	n/a	n/a	n/a	n/a	n/a	n/a	n/a	n/a	n/a	n/a	n/a	n/a	n/a	n/a	fixation
29947.173932815043	2750	n/a	646	71	2750	1563.82606718	stim	stop-signal	18	130595	0.0-7.5-1.5	beast_fmri_test	338	128279,/,128958,/,129638,/,130318,/,130998,/,131678,/	t,t,t,t,t,t	<img class = center src='/static/experiments/beast_fmri_test/images/D.png'></img>	71,89	2750.0	test	<img class = center src='/static/experiments/beast_fmri_test/images/redD.png'></img>	go	2250.0	2.0	5.0	go	target	D	71,Index Finger	89,Middle Finger	500.0	450.0	2250.0	2250.0	1.0	n/a	500.0	1.0	go_stim
32697.173932815043	1563.8260671849555	n/a	646	71	2750	1563.82606718	stim	stop-signal	18	130595	0.0-7.5-1.5	beast_fmri_test	338	128279,/,128958,/,129638,/,130318,/,130998,/,131678,/	t,t,t,t,t,t	<img class = center src='/static/experiments/beast_fmri_test/images/D.png'></img>	71,89	2750.0	test	<img class = center src='/static/experiments/beast_fmri_test/images/redD.png'></img>	go	2250.0	2.0	5.0	go	target	D	71,Index Finger	89,Middle Finger	500.0	450.0	2250.0	2250.0	1.0	n/a	500.0	1.0	ITI
36333	500	n/a	-1	-1	500	0.0	fixation	poldrack-single-stim	19	132667	0.0-7.6-0.6	beast_fmri_test	338	132358,/	t	<div class = centerbox2><div class = fixation>+</div></div>	none	500.0	test	n/a	n/a	n/a	n/a	n/a	n/a	n/a	n/a	n/a	n/a	n/a	n/a	n/a	n/a	n/a	n/a	n/a	n/a	fixation
34921.861719013483	500.0	n/a	1152	89	2750	1413.13828099	stim	stop-signal	20	135419	0.0-7.6-1.6	beast_fmri_test	338	133037,/,133715,/,134395,/,135075,/,135755,/,136436,/	t,t,t,t,t,t	<img class = center src='/static/experiments/beast_fmri_test/images/V.png'></img>	71,89	2750.0	test	<img class = center src='/static/experiments/beast_fmri_test/images/redV.png'></img>	stop	2250.0	2.0	6.0	stop	target	V	71,Index Finger	89,Middle Finger	500.0	450.0	2250.0	2250.0	0.0	0.0	500.0	n/a	go_stim
37171.861719013483	2250.0	n/a	1152	89	2750	1413.13828099	stim	stop-signal	20	135419	0.0-7.6-1.6	beast_fmri_test	338	133037,/,133715,/,134395,/,135075,/,135755,/,136436,/	t,t,t,t,t,t	<img class = center src='/static/experiments/beast_fmri_test/images/V.png'></img>	71,89	2750.0	test	<img class = center src='/static/experiments/beast_fmri_test/images/redV.png'></img>	stop	2250.0	2.0	6.0	stop	target	V	71,Index Finger	89,Middle Finger	500.0	450.0	2250.0	2250.0	0.0	0.0	500.0	n/a	stop_stim
37671.861719013483	1413.1382809865113	n/a	1152	89	2750	1413.13828099	stim	stop-signal	20	135419	0.0-7.6-1.6	beast_fmri_test	338	133037,/,133715,/,134395,/,135075,/,135755,/,136436,/	t,t,t,t,t,t	<img class = center src='/static/experiments/beast_fmri_test/images/V.png'></img>	71,89	2750.0	test	<img class = center src='/static/experiments/beast_fmri_test/images/redV.png'></img>	stop	2250.0	2.0	6.0	stop	target	V	71,Index Finger	89,Middle Finger	500.0	450.0	2250.0	2250.0	0.0	0.0	500.0	n/a	ITI
41007	500	n/a	-1	-1	500	0.0	fixation	poldrack-single-stim	21	137341	0.0-7.7-0.7	beast_fmri_test	338	137114,/	t	<div class = centerbox2><div class = fixation>+</div></div>	none	500.0	test	n/a	n/a	n/a	n/a	n/a	n/a	n/a	n/a	n/a	n/a	n/a	n/a	n/a	n/a	n/a	n/a	n/a	n/a	fixation
40120.542411240458	2750	n/a	1607	71	2750	886.45758876	stim	stop-signal	22	140091	0.0-7.7-1.7	beast_fmri_test	338	137794,/,138473,/,139153,/,139832,/,140512,/	t,t,t,t,t	<img class = center src='/static/experiments/beast_fmri_test/images/T.png'></img>	71,89	2750.0	test	<img class = center src='/static/experiments/beast_fmri_test/images/redT.png'></img>	go	2300.0	2.0	7.0	go	non-target	T	71,Index Finger	89,Middle Finger	450.0	450.0	2250.0	2300.0	0.0	n/a	450.0	0.0	go_stim
42870.542411240458	886.45758875954198	n/a	1607	71	2750	886.45758876	stim	stop-signal	22	140091	0.0-7.7-1.7	beast_fmri_test	338	137794,/,138473,/,139153,/,139832,/,140512,/	t,t,t,t,t	<img class = center src='/static/experiments/beast_fmri_test/images/T.png'></img>	71,89	2750.0	test	<img class = center src='/static/experiments/beast_fmri_test/images/redT.png'></img>	go	2300.0	2.0	7.0	go	non-target	T	71,Index Finger	89,Middle Finger	450.0	450.0	2250.0	2300.0	0.0	n/a	450.0	0.0	ITI
45150	500	n/a	-1	-1	500	0.0	fixation	poldrack-single-stim	23	141484	0.0-7.8-0.8	beast_fmri_test	338	141193,/	t	<div class = centerbox2><div class = fixation>+</div></div>	none	500.0	test	n/a	n/a	n/a	n/a	n/a	n/a	n/a	n/a	n/a	n/a	n/a	n/a	n/a	n/a	n/a	n/a	n/a	n/a	fixation
44624.355855514819	2750	n/a	1270	89	2750	526.644144485	stim	stop-signal	24	144235	0.0-7.8-1.8	beast_fmri_test	338	141874,/,142552,/,143230,/,143911,/,144591,/	t,t,t,t,t	<img class = center src='/static/experiments/beast_fmri_test/images/D.png'></img>	71,89	2750.0	test	<img class = center src='/static/experiments/beast_fmri_test/images/redD.png'></img>	go	2300.0	2.0	8.0	go	non-target	D	71,Index Finger	89,Middle Finger	450.0	450.0	2250.0	2300.0	1.0	n/a	450.0	1.0	go_stim
47374.355855514819	526.64414448518721	n/a	1270	89	2750	526.644144485	stim	stop-signal	24	144235	0.0-7.8-1.8	beast_fmri_test	338	141874,/,142552,/,143230,/,143911,/,144591,/	t,t,t,t,t	<img class = center src='/static/experiments/beast_fmri_test/images/D.png'></img>	71,89	2750.0	test	<img class = center src='/static/experiments/beast_fmri_test/images/redD.png'></img>	go	2300.0	2.0	8.0	go	non-target	D	71,Index Finger	89,Middle Finger	450.0	450.0	2250.0	2300.0	1.0	n/a	450.0	1.0	ITI
48935	500	n/a	-1	-1	500	0.0	fixation	poldrack-single-stim	25	145269	0.0-7.9-0.9	beast_fmri_test	338	n/a	n/a	<div class = centerbox2><div class = fixation>+</div></div>	none	500.0	test	n/a	n/a	n/a	n/a	n/a	n/a	n/a	n/a	n/a	n/a	n/a	n/a	n/a	n/a	n/a	n/a	n/a	n/a	fixation
47284.80404158411	2750	n/a	823	71	2750	1652.19595842	stim	stop-signal	26	148021	0.0-7.9-1.9	beast_fmri_test	338	145272,/,145950,/,146630,/,147310,/,147988,/,148669,/,149348,/	t,t,t,t,t,t,t	<img class = center src='/static/experiments/beast_fmri_test/images/T.png'></img>	71,89	2750.0	test	<img class = center src='/static/experiments/beast_fmri_test/images/redT.png'></img>	go	2300.0	2.0	9.0	go	target	T	71,Index Finger	89,Middle Finger	450.0	450.0	2300.0	2300.0	1.0	n/a	450.0	1.0	go_stim
50034.80404158411	1652.1959584158774	n/a	823	71	2750	1652.19595842	stim	stop-signal	26	148021	0.0-7.9-1.9	beast_fmri_test	338	145272,/,145950,/,146630,/,147310,/,147988,/,148669,/,149348,/	t,t,t,t,t,t,t	<img class = center src='/static/experiments/beast_fmri_test/images/T.png'></img>	71,89	2750.0	test	<img class = center src='/static/experiments/beast_fmri_test/images/redT.png'></img>	go	2300.0	2.0	9.0	go	target	T	71,Index Finger	89,Middle Finger	450.0	450.0	2300.0	2300.0	1.0	n/a	450.0	1.0	ITI
53846	500	n/a	-1	-1	500	0.0	fixation	poldrack-single-stim	27	150180	0.0-7.10-0.10	beast_fmri_test	338	150027,/	t	<div class = centerbox2><div class = fixation>+</div></div>	none	500.0	test	n/a	n/a	n/a	n/a	n/a	n/a	n/a	n/a	n/a	n/a	n/a	n/a	n/a	n/a	n/a	n/a	n/a	n/a	fixation
52558.831993774569	2750	n/a	1023	71	2750	1289.16800623	stim	stop-signal	28	152932	0.0-7.10-1.10	beast_fmri_test	338	150707,/,151387,/,152067,/,152746,/,153426,/,154105,/	t,t,t,t,t,t	<img class = center src='/static/experiments/beast_fmri_test/images/T.png'></img>	71,89	2750.0	test	<img class = center src='/static/experiments/beast_fmri_test/images/redT.png'></img>	go	2300.0	2.0	10.0	go	non-target	T	71,Index Finger	89,Middle Finger	450.0	450.0	2300.0	2300.0	0.0	n/a	450.0	0.0	go_stim
55308.831993774569	1289.1680062254447	n/a	1023	71	2750	1289.16800623	stim	stop-signal	28	152932	0.0-7.10-1.10	beast_fmri_test	338	150707,/,151387,/,152067,/,152746,/,153426,/,154105,/	t,t,t,t,t,t	<img class = center src='/static/experiments/beast_fmri_test/images/T.png'></img>	71,89	2750.0	test	<img class = center src='/static/experiments/beast_fmri_test/images/redT.png'></img>	go	2300.0	2.0	10.0	go	non-target	T	71,Index Finger	89,Middle Finger	450.0	450.0	2300.0	2300.0	0.0	n/a	450.0	0.0	ITI
58395	500	n/a	-1	-1	500	0.0	fixation	poldrack-single-stim	29	154729	0.0-7.11-0.11	beast_fmri_test	338	n/a	n/a	<div class = centerbox2><div class = fixation>+</div></div>	none	500.0	test	n/a	n/a	n/a	n/a	n/a	n/a	n/a	n/a	n/a	n/a	n/a	n/a	n/a	n/a	n/a	n/a	n/a	n/a	fixation
56960.290035817074	2750	n/a	879	71	2750	1436.70996418	stim	stop-signal	30	157481	0.0-7.11-1.11	beast_fmri_test	338	154784,/,155466,/,156145,/,156825,/,157504,/,158185,/,158865,/	t,t,t,t,t,t,t	<img class = center src='/static/experiments/beast_fmri_test/images/T.png'></img>	71,89	2750.0	test	<img class = center src='/static/experiments/beast_fmri_test/images/redT.png'></img>	go	2300.0	2.0	11.0	go	target	T	71,Index Finger	89,Middle Finger	450.0	450.0	2300.0	2300.0	1.0	n/a	450.0	1.0	go_stim
59710.290035817074	1436.7099641829398	n/a	879	71	2750	1436.70996418	stim	stop-signal	30	157481	0.0-7.11-1.11	beast_fmri_test	338	154784,/,155466,/,156145,/,156825,/,157504,/,158185,/,158865,/	t,t,t,t,t,t,t	<img class = center src='/static/experiments/beast_fmri_test/images/T.png'></img>	71,89	2750.0	test	<img class = center src='/static/experiments/beast_fmri_test/images/redT.png'></img>	go	2300.0	2.0	11.0	go	target	T	71,Index Finger	89,Middle Finger	450.0	450.0	2300.0	2300.0	1.0	n/a	450.0	1.0	ITI
63092	500	n/a	-1	-1	500	0.0	fixation	poldrack-single-stim	31	159426	0.0-7.12-0.12	beast_fmri_test	338	n/a	n/a	<div class = centerbox2><div class = fixation>+</div></div>	none	500.0	test	n/a	n/a	n/a	n/a	n/a	n/a	n/a	n/a	n/a	n/a	n/a	n/a	n/a	n/a	n/a	n/a	n/a	n/a	fixation
62890.70164697888	2750	n/a	960	89	2750	203.298353021	stim	stop-signal	32	162178	0.0-7.12-1.12	beast_fmri_test	338	159548,/,160225,/,160903,/,161584,/,162262,/	t,t,t,t,t	<img class = center src='/static/experiments/beast_fmri_test/images/B.png'></img>	71,89	2750.0	test	<img class = center src='/static/experiments/beast_fmri_test/images/redB.png'></img>	go	2300.0	2.0	12.0	go	non-target	B	71,Index Finger	89,Middle Finger	450.0	450.0	2300.0	2300.0	1.0	n/a	450.0	1.0	go_stim
65640.70164697888	203.29835302112747	n/a	960	89	2750	203.298353021	stim	stop-signal	32	162178	0.0-7.12-1.12	beast_fmri_test	338	159548,/,160225,/,160903,/,161584,/,162262,/	t,t,t,t,t	<img class = center src='/static/experiments/beast_fmri_test/images/B.png'></img>	71,89	2750.0	test	<img class = center src='/static/experiments/beast_fmri_test/images/redB.png'></img>	go	2300.0	2.0	12.0	go	non-target	B	71,Index Finger	89,Middle Finger	450.0	450.0	2300.0	2300.0	1.0	n/a	450.0	1.0	ITI
66556	500	n/a	-1	-1	500	0.0	fixation	poldrack-single-stim	33	162890	0.0-7.13-0.13	beast_fmri_test	338	n/a	n/a	<div class = centerbox2><div class = fixation>+</div></div>	none	500.0	test	n/a	n/a	n/a	n/a	n/a	n/a	n/a	n/a	n/a	n/a	n/a	n/a	n/a	n/a	n/a	n/a	n/a	n/a	fixation
64699.638547252194	2750	n/a	833	71	2750	1859.36145275	stim	stop-signal	34	165643	0.0-7.13-1.13	beast_fmri_test	338	162941,/,163623,/,164302,/,164982,/,165661,/,166342,/,167021,/	t,t,t,t,t,t,t	<img class = center src='/static/experiments/beast_fmri_test/images/T.png'></img>	71,89	2750.0	test	<img class = center src='/static/experiments/beast_fmri_test/images/redT.png'></img>	go	2300.0	2.0	13.0	go	target	T	71,Index Finger	89,Middle Finger	450.0	450.0	2300.0	2300.0	1.0	n/a	450.0	1.0	go_stim
67449.638547252194	1859.3614527478189	n/a	833	71	2750	1859.36145275	stim	stop-signal	34	165643	0.0-7.13-1.13	beast_fmri_test	338	162941,/,163623,/,164302,/,164982,/,165661,/,166342,/,167021,/	t,t,t,t,t,t,t	<img class = center src='/static/experiments/beast_fmri_test/images/T.png'></img>	71,89	2750.0	test	<img class = center src='/static/experiments/beast_fmri_test/images/redT.png'></img>	go	2300.0	2.0	13.0	go	target	T	71,Index Finger	89,Middle Finger	450.0	450.0	2300.0	2300.0	1.0	n/a	450.0	1.0	ITI
71677	500	n/a	-1	-1	500	0.0	fixation	poldrack-single-stim	35	168011	0.0-7.14-0.14	beast_fmri_test	338	167701,/	t	<div class = centerbox2><div class = fixation>+</div></div>	none	500.0	test	n/a	n/a	n/a	n/a	n/a	n/a	n/a	n/a	n/a	n/a	n/a	n/a	n/a	n/a	n/a	n/a	n/a	n/a	fixation
71064.422489976772	2750	n/a	704	89	2750	614.577510023	stim	stop-signal	36	170763	0.0-7.14-1.14	beast_fmri_test	338	168380,/,169059,/,169740,/,170419,/,171098,/	t,t,t,t,t	<img class = center src='/static/experiments/beast_fmri_test/images/D.png'></img>	71,89	2750.0	test	<img class = center src='/static/experiments/beast_fmri_test/images/redD.png'></img>	go	2300.0	2.0	14.0	go	non-target	D	71,Index Finger	89,Middle Finger	450.0	450.0	2300.0	2300.0	1.0	n/a	450.0	1.0	go_stim
73814.422489976772	614.57751002323209	n/a	704	89	2750	614.577510023	stim	stop-signal	36	170763	0.0-7.14-1.14	beast_fmri_test	338	168380,/,169059,/,169740,/,170419,/,171098,/	t,t,t,t,t	<img class = center src='/static/experiments/beast_fmri_test/images/D.png'></img>	71,89	2750.0	test	<img class = center src='/static/experiments/beast_fmri_test/images/redD.png'></img>	go	2300.0	2.0	14.0	go	non-target	D	71,Index Finger	89,Middle Finger	450.0	450.0	2300.0	2300.0	1.0	n/a	450.0	1.0	ITI
75555	500	n/a	-1	-1	500	0.0	fixation	poldrack-single-stim	37	171889	0.0-7.15-0.15	beast_fmri_test	338	171779,/	t	<div class = centerbox2><div class = fixation>+</div></div>	none	500.0	test	n/a	n/a	n/a	n/a	n/a	n/a	n/a	n/a	n/a	n/a	n/a	n/a	n/a	n/a	n/a	n/a	n/a	n/a	fixation
74069.123170784733	2750	n/a	753	71	2750	1487.87682922	stim	stop-signal	38	174641	0.0-7.15-1.15	beast_fmri_test	338	172459,/,173138,/,173817,/,174497,/,175177,/,175856,/	t,t,t,t,t,t	<img class = center src='/static/experiments/beast_fmri_test/images/B.png'></img>	71,89	2750.0	test	<img class = center src='/static/experiments/beast_fmri_test/images/redB.png'></img>	go	2300.0	2.0	15.0	go	non-target	B	71,Index Finger	89,Middle Finger	450.0	450.0	2300.0	2300.0	0.0	n/a	450.0	0.0	go_stim
76819.123170784733	1487.8768292152729	n/a	753	71	2750	1487.87682922	stim	stop-signal	38	174641	0.0-7.15-1.15	beast_fmri_test	338	172459,/,173138,/,173817,/,174497,/,175177,/,175856,/	t,t,t,t,t,t	<img class = center src='/static/experiments/beast_fmri_test/images/B.png'></img>	71,89	2750.0	test	<img class = center src='/static/experiments/beast_fmri_test/images/redB.png'></img>	go	2300.0	2.0	15.0	go	non-target	B	71,Index Finger	89,Middle Finger	450.0	450.0	2300.0	2300.0	0.0	n/a	450.0	0.0	ITI
80304	500	n/a	-1	-1	500	0.0	fixation	poldrack-single-stim	39	176638	0.0-7.16-0.16	beast_fmri_test	338	176537,/	t	<div class = centerbox2><div class = fixation>+</div></div>	none	500.0	test	n/a	n/a	n/a	n/a	n/a	n/a	n/a	n/a	n/a	n/a	n/a	n/a	n/a	n/a	n/a	n/a	n/a	n/a	fixation
78317.923831170163	2750	n/a	633	89	2750	1987.07616883	stim	stop-signal	40	179389	0.0-7.16-1.16	beast_fmri_test	338	177216,/,177896,/,178575,/,179255,/,179934,/,180614,/,181293,/	t,t,t,t,t,t,t	<img class = center src='/static/experiments/beast_fmri_test/images/T.png'></img>	71,89	2750.0	test	<img class = center src='/static/experiments/beast_fmri_test/images/redT.png'></img>	go	2300.0	2.0	16.0	go	non-target	T	71,Index Finger	89,Middle Finger	450.0	450.0	2300.0	2300.0	1.0	n/a	450.0	1.0	go_stim
81067.923831170163	1987.076168829848	n/a	633	89	2750	1987.07616883	stim	stop-signal	40	179389	0.0-7.16-1.16	beast_fmri_test	338	177216,/,177896,/,178575,/,179255,/,179934,/,180614,/,181293,/	t,t,t,t,t,t,t	<img class = center src='/static/experiments/beast_fmri_test/images/T.png'></img>	71,89	2750.0	test	<img class = center src='/static/experiments/beast_fmri_test/images/redT.png'></img>	go	2300.0	2.0	16.0	go	non-target	T	71,Index Finger	89,Middle Finger	450.0	450.0	2300.0	2300.0	1.0	n/a	450.0	1.0	ITI
85551	500	n/a	-1	-1	500	0.0	fixation	poldrack-single-stim	41	181885	0.0-7.17-0.17	beast_fmri_test	338	n/a	n/a	<div class = centerbox2><div class = fixation>+</div></div>	none	500.0	test	n/a	n/a	n/a	n/a	n/a	n/a	n/a	n/a	n/a	n/a	n/a	n/a	n/a	n/a	n/a	n/a	n/a	n/a	fixation
85210.128449323063	2750	n/a	625	71	2750	342.871550677	stim	stop-signal	42	184637	0.0-7.17-1.17	beast_fmri_test	338	181973,/,182653,/,183332,/,184013,/,184691,/	t,t,t,t,t	<img class = center src='/static/experiments/beast_fmri_test/images/B.png'></img>	71,89	2750.0	test	<img class = center src='/static/experiments/beast_fmri_test/images/redB.png'></img>	go	2300.0	2.0	17.0	go	target	B	71,Index Finger	89,Middle Finger	450.0	450.0	2300.0	2300.0	1.0	n/a	450.0	1.0	go_stim
87960.128449323063	342.87155067694749	n/a	625	71	2750	342.871550677	stim	stop-signal	42	184637	0.0-7.17-1.17	beast_fmri_test	338	181973,/,182653,/,183332,/,184013,/,184691,/	t,t,t,t,t	<img class = center src='/static/experiments/beast_fmri_test/images/B.png'></img>	71,89	2750.0	test	<img class = center src='/static/experiments/beast_fmri_test/images/redB.png'></img>	go	2300.0	2.0	17.0	go	target	B	71,Index Finger	89,Middle Finger	450.0	450.0	2300.0	2300.0	1.0	n/a	450.0	1.0	ITI
89156	500	n/a	-1	-1	500	0.0	fixation	poldrack-single-stim	43	185490	0.0-7.18-0.18	beast_fmri_test	338	185373,/	t	<div class = centerbox2><div class = fixation>+</div></div>	none	500.0	test	n/a	n/a	n/a	n/a	n/a	n/a	n/a	n/a	n/a	n/a	n/a	n/a	n/a	n/a	n/a	n/a	n/a	n/a	fixation
86634.869447710778	2750	n/a	799	89	2750	2525.13055229	stim	stop-signal	44	188244	0.0-7.18-1.18	beast_fmri_test	338	186052,/,186731,/,187413,/,188092,/,188772,/,189451,/,190139,/	t,t,t,t,t,t,t	<img class = center src='/static/experiments/beast_fmri_test/images/V.png'></img>	71,89	2750.0	test	<img class = center src='/static/experiments/beast_fmri_test/images/redV.png'></img>	go	2300.0	2.0	18.0	go	non-target	V	71,Index Finger	89,Middle Finger	450.0	450.0	2300.0	2300.0	1.0	n/a	450.0	1.0	go_stim
89384.869447710778	2525.1305522892271	n/a	799	89	2750	2525.13055229	stim	stop-signal	44	188244	0.0-7.18-1.18	beast_fmri_test	338	186052,/,186731,/,187413,/,188092,/,188772,/,189451,/,190139,/	t,t,t,t,t,t,t	<img class = center src='/static/experiments/beast_fmri_test/images/V.png'></img>	71,89	2750.0	test	<img class = center src='/static/experiments/beast_fmri_test/images/redV.png'></img>	go	2300.0	2.0	18.0	go	non-target	V	71,Index Finger	89,Middle Finger	450.0	450.0	2300.0	2300.0	1.0	n/a	450.0	1.0	ITI
94946	500	n/a	-1	-1	500	0.0	fixation	poldrack-single-stim	45	191280	0.0-7.19-0.19	beast_fmri_test	338	190809,/	t	<div class = centerbox2><div class = fixation>+</div></div>	none	500.0	test	n/a	n/a	n/a	n/a	n/a	n/a	n/a	n/a	n/a	n/a	n/a	n/a	n/a	n/a	n/a	n/a	n/a	n/a	fixation
94837.769827544369	450.0	n/a	932	89	2750	111.230172456	stim	stop-signal	46	194033	0.0-7.19-1.19	beast_fmri_test	338	191489,/,192168,/,192849,/,193529,/	t,t,t,t	<img class = center src='/static/experiments/beast_fmri_test/images/V.png'></img>	71,89	2750.0	test	<img class = center src='/static/experiments/beast_fmri_test/images/redV.png'></img>	stop	2300.0	2.0	19.0	stop	non-target	V	71,Index Finger	89,Middle Finger	450.0	450.0	2300.0	2300.0	0.0	0.0	450.0	n/a	go_stim
97137.769827544369	2300.0	n/a	932	89	2750	111.230172456	stim	stop-signal	46	194033	0.0-7.19-1.19	beast_fmri_test	338	191489,/,192168,/,192849,/,193529,/	t,t,t,t	<img class = center src='/static/experiments/beast_fmri_test/images/V.png'></img>	71,89	2750.0	test	<img class = center src='/static/experiments/beast_fmri_test/images/redV.png'></img>	stop	2300.0	2.0	19.0	stop	non-target	V	71,Index Finger	89,Middle Finger	450.0	450.0	2300.0	2300.0	0.0	0.0	450.0	n/a	stop_stim
97587.769827544369	111.23017245562204	n/a	932	89	2750	111.230172456	stim	stop-signal	46	194033	0.0-7.19-1.19	beast_fmri_test	338	191489,/,192168,/,192849,/,193529,/	t,t,t,t	<img class = center src='/static/experiments/beast_fmri_test/images/V.png'></img>	71,89	2750.0	test	<img class = center src='/static/experiments/beast_fmri_test/images/redV.png'></img>	stop	2300.0	2.0	19.0	stop	non-target	V	71,Index Finger	89,Middle Finger	450.0	450.0	2300.0	2300.0	0.0	0.0	450.0	n/a	ITI
98321	500	n/a	-1	-1	500	0.0	fixation	poldrack-single-stim	47	194655	0.0-7.20-0.20	beast_fmri_test	338	194209,/	t	<div class = centerbox2><div class = fixation>+</div></div>	none	500.0	test	n/a	n/a	n/a	n/a	n/a	n/a	n/a	n/a	n/a	n/a	n/a	n/a	n/a	n/a	n/a	n/a	n/a	n/a	fixation
95568.090276564297	450.0	n/a	983	71	2750	2755.90972344	stim	stop-signal	48	197408	0.0-7.20-1.20	beast_fmri_test	338	194888,/,195568,/,196247,/,196927,/,197607,/,198286,/,198965,/,199645,/	t,t,t,t,t,t,t,t	<img class = center src='/static/experiments/beast_fmri_test/images/V.png'></img>	71,89	2750.0	test	<img class = center src='/static/experiments/beast_fmri_test/images/redV.png'></img>	stop	2300.0	2.0	20.0	stop	target	V	71,Index Finger	89,Middle Finger	450.0	400.0	2300.0	2300.0	0.0	0.0	450.0	n/a	go_stim
97868.090276564297	2300.0	n/a	983	71	2750	2755.90972344	stim	stop-signal	48	197408	0.0-7.20-1.20	beast_fmri_test	338	194888,/,195568,/,196247,/,196927,/,197607,/,198286,/,198965,/,199645,/	t,t,t,t,t,t,t,t	<img class = center src='/static/experiments/beast_fmri_test/images/V.png'></img>	71,89	2750.0	test	<img class = center src='/static/experiments/beast_fmri_test/images/redV.png'></img>	stop	2300.0	2.0	20.0	stop	target	V	71,Index Finger	89,Middle Finger	450.0	400.0	2300.0	2300.0	0.0	0.0	450.0	n/a	stop_stim
98318.090276564297	2755.9097234356905	n/a	983	71	2750	2755.90972344	stim	stop-signal	48	197408	0.0-7.20-1.20	beast_fmri_test	338	194888,/,195568,/,196247,/,196927,/,197607,/,198286,/,198965,/,199645,/	t,t,t,t,t,t,t,t	<img class = center src='/static/experiments/beast_fmri_test/images/V.png'></img>	71,89	2750.0	test	<img class = center src='/static/experiments/beast_fmri_test/images/redV.png'></img>	stop	2300.0	2.0	20.0	stop	target	V	71,Index Finger	89,Middle Finger	450.0	400.0	2300.0	2300.0	0.0	0.0	450.0	n/a	ITI
104337	500	n/a	-1	-1	500	0.0	fixation	poldrack-single-stim	49	200671	0.0-7.21-0.21	beast_fmri_test	338	200326,/	t	<div class = centerbox2><div class = fixation>+</div></div>	none	500.0	test	n/a	n/a	n/a	n/a	n/a	n/a	n/a	n/a	n/a	n/a	n/a	n/a	n/a	n/a	n/a	n/a	n/a	n/a	fixation
104151.53012716179	2750	n/a	1118	71	2750	187.469872838	stim	stop-signal	50	203423	0.0-7.21-1.21	beast_fmri_test	338	201005,/,201684,/,202364,/,203044,/	t,t,t,t	<img class = center src='/static/experiments/beast_fmri_test/images/V.png'></img>	71,89	2750.0	test	<img class = center src='/static/experiments/beast_fmri_test/images/redV.png'></img>	go	2350.0	2.0	21.0	go	target	V	71,Index Finger	89,Middle Finger	400.0	400.0	2350.0	2300.0	1.0	n/a	400.0	1.0	go_stim
106901.53012716179	187.46987283819985	n/a	1118	71	2750	187.469872838	stim	stop-signal	50	203423	0.0-7.21-1.21	beast_fmri_test	338	201005,/,201684,/,202364,/,203044,/	t,t,t,t	<img class = center src='/static/experiments/beast_fmri_test/images/V.png'></img>	71,89	2750.0	test	<img class = center src='/static/experiments/beast_fmri_test/images/redV.png'></img>	go	2350.0	2.0	21.0	go	target	V	71,Index Finger	89,Middle Finger	400.0	400.0	2350.0	2300.0	1.0	n/a	400.0	1.0	ITI
107788	500	n/a	-1	-1	500	0.0	fixation	poldrack-single-stim	51	204122	0.0-7.22-0.22	beast_fmri_test	338	203724,/	t	<div class = centerbox2><div class = fixation>+</div></div>	none	500.0	test	n/a	n/a	n/a	n/a	n/a	n/a	n/a	n/a	n/a	n/a	n/a	n/a	n/a	n/a	n/a	n/a	n/a	n/a	fixation
102789.0	2750	n/a	879	89	2750	5000.0	stim	stop-signal	52	206873	0.0-7.22-1.22	beast_fmri_test	338	204403,/,205083,/,205762,/,206443,/,207122,/,207802,/,208482,/,209162,/,209841,/,210521,/,211201,/	t,t,t,t,t,t,t,t,t,t,t	<img class = center src='/static/experiments/beast_fmri_test/images/P.png'></img>	71,89	2750.0	test	<img class = center src='/static/experiments/beast_fmri_test/images/redP.png'></img>	go	2350.0	2.0	22.0	go	non-target	P	71,Index Finger	89,Middle Finger	400.0	400.0	2350.0	2350.0	1.0	n/a	400.0	1.0	go_stim
105539.0	5000.0	n/a	879	89	2750	5000.0	stim	stop-signal	52	206873	0.0-7.22-1.22	beast_fmri_test	338	204403,/,205083,/,205762,/,206443,/,207122,/,207802,/,208482,/,209162,/,209841,/,210521,/,211201,/	t,t,t,t,t,t,t,t,t,t,t	<img class = center src='/static/experiments/beast_fmri_test/images/P.png'></img>	71,89	2750.0	test	<img class = center src='/static/experiments/beast_fmri_test/images/redP.png'></img>	go	2350.0	2.0	22.0	go	non-target	P	71,Index Finger	89,Middle Finger	400.0	400.0	2350.0	2350.0	1.0	n/a	400.0	1.0	ITI
116049	500	n/a	-1	-1	500	0.0	fixation	poldrack-single-stim	53	212383	0.0-7.23-0.23	beast_fmri_test	338	211881,/	t	<div class = centerbox2><div class = fixation>+</div></div>	none	500.0	test	n/a	n/a	n/a	n/a	n/a	n/a	n/a	n/a	n/a	n/a	n/a	n/a	n/a	n/a	n/a	n/a	n/a	n/a	fixation
115263.39818321311	2750	n/a	807	71	2750	788.601816787	stim	stop-signal	54	215136	0.0-7.23-1.23	beast_fmri_test	338	212560,/,213239,/,213919,/,214600,/,215278,/	t,t,t,t,t	<img class = center src='/static/experiments/beast_fmri_test/images/V.png'></img>	71,89	2750.0	test	<img class = center src='/static/experiments/beast_fmri_test/images/redV.png'></img>	go	2350.0	2.0	23.0	go	target	V	71,Index Finger	89,Middle Finger	400.0	400.0	2350.0	2350.0	1.0	n/a	400.0	1.0	go_stim
118013.39818321311	788.60181678687763	n/a	807	71	2750	788.601816787	stim	stop-signal	54	215136	0.0-7.23-1.23	beast_fmri_test	338	212560,/,213239,/,213919,/,214600,/,215278,/	t,t,t,t,t	<img class = center src='/static/experiments/beast_fmri_test/images/V.png'></img>	71,89	2750.0	test	<img class = center src='/static/experiments/beast_fmri_test/images/redV.png'></img>	go	2350.0	2.0	23.0	go	target	V	71,Index Finger	89,Middle Finger	400.0	400.0	2350.0	2350.0	1.0	n/a	400.0	1.0	ITI
120102	500	n/a	-1	-1	500	0.0	fixation	poldrack-single-stim	55	216436	0.0-7.24-0.24	beast_fmri_test	338	215958,/	t	<div class = centerbox2><div class = fixation>+</div></div>	none	500.0	test	n/a	n/a	n/a	n/a	n/a	n/a	n/a	n/a	n/a	n/a	n/a	n/a	n/a	n/a	n/a	n/a	n/a	n/a	fixation
117190.74487489698	2750	n/a	856	89	2750	2913.2551251	stim	stop-signal	56	219188	0.0-7.24-1.24	beast_fmri_test	338	216639,/,217318,/,217998,/,218677,/,219357,/,220036,/,220716,/,221397,/,222076,/	t,t,t,t,t,t,t,t,t	<img class = center src='/static/experiments/beast_fmri_test/images/P.png'></img>	71,89	2750.0	test	<img class = center src='/static/experiments/beast_fmri_test/images/redP.png'></img>	go	2350.0	2.0	24.0	go	target	P	71,Index Finger	89,Middle Finger	400.0	400.0	2350.0	2350.0	0.0	n/a	400.0	0.0	go_stim
119940.74487489698	2913.255125103025	n/a	856	89	2750	2913.2551251	stim	stop-signal	56	219188	0.0-7.24-1.24	beast_fmri_test	338	216639,/,217318,/,217998,/,218677,/,219357,/,220036,/,220716,/,221397,/,222076,/	t,t,t,t,t,t,t,t,t	<img class = center src='/static/experiments/beast_fmri_test/images/P.png'></img>	71,89	2750.0	test	<img class = center src='/static/experiments/beast_fmri_test/images/redP.png'></img>	go	2350.0	2.0	24.0	go	target	P	71,Index Finger	89,Middle Finger	400.0	400.0	2350.0	2350.0	0.0	n/a	400.0	0.0	ITI
126279	500	n/a	-1	-1	500	0.0	fixation	poldrack-single-stim	57	222613	0.0-7.25-0.25	beast_fmri_test	338	n/a	n/a	<div class = centerbox2><div class = fixation>+</div></div>	none	500.0	test	n/a	n/a	n/a	n/a	n/a	n/a	n/a	n/a	n/a	n/a	n/a	n/a	n/a	n/a	n/a	n/a	n/a	n/a	fixation
124513.88198417396	400.0	n/a	-1	-1	2750	1766.11801583	stim	stop-signal	58	225364	0.0-7.25-1.25	beast_fmri_test	338	222756,/,223435,/,224115,/,224795,/,225475,/,226154,/,226833,/	t,t,t,t,t,t,t	<img class = center src='/static/experiments/beast_fmri_test/images/B.png'></img>	71,89	2750.0	test	<img class = center src='/static/experiments/beast_fmri_test/images/redB.png'></img>	stop	2350.0	2.0	25.0	stop	non-target	B	71,Index Finger	89,Middle Finger	400.0	400.0	2350.0	2350.0	0.0	1.0	400.0	n/a	go_stim
126863.88198417396	2350.0	n/a	-1	-1	2750	1766.11801583	stim	stop-signal	58	225364	0.0-7.25-1.25	beast_fmri_test	338	222756,/,223435,/,224115,/,224795,/,225475,/,226154,/,226833,/	t,t,t,t,t,t,t	<img class = center src='/static/experiments/beast_fmri_test/images/B.png'></img>	71,89	2750.0	test	<img class = center src='/static/experiments/beast_fmri_test/images/redB.png'></img>	stop	2350.0	2.0	25.0	stop	non-target	B	71,Index Finger	89,Middle Finger	400.0	400.0	2350.0	2350.0	0.0	1.0	400.0	n/a	stop_stim
127263.88198417396	1766.1180158260368	n/a	-1	-1	2750	1766.11801583	stim	stop-signal	58	225364	0.0-7.25-1.25	beast_fmri_test	338	222756,/,223435,/,224115,/,224795,/,225475,/,226154,/,226833,/	t,t,t,t,t,t,t	<img class = center src='/static/experiments/beast_fmri_test/images/B.png'></img>	71,89	2750.0	test	<img class = center src='/static/experiments/beast_fmri_test/images/redB.png'></img>	stop	2350.0	2.0	25.0	stop	non-target	B	71,Index Finger	89,Middle Finger	400.0	400.0	2350.0	2350.0	0.0	1.0	400.0	n/a	ITI
131310	500	n/a	-1	-1	500	0.0	fixation	poldrack-single-stim	59	227644	0.0-7.26-0.26	beast_fmri_test	338	227514,/	t	<div class = centerbox2><div class = fixation>+</div></div>	none	500.0	test	n/a	n/a	n/a	n/a	n/a	n/a	n/a	n/a	n/a	n/a	n/a	n/a	n/a	n/a	n/a	n/a	n/a	n/a	fixation
131263.33359043833	450.0	n/a	607	89	2750	47.6664095617	stim	stop-signal	60	230395	0.0-7.26-1.26	beast_fmri_test	338	228192,/,228873,/,229553,/,230232,/	t,t,t,t	<img class = center src='/static/experiments/beast_fmri_test/images/T.png'></img>	71,89	2750.0	test	<img class = center src='/static/experiments/beast_fmri_test/images/redT.png'></img>	stop	2300.0	2.0	26.0	stop	non-target	T	71,Index Finger	89,Middle Finger	400.0	450.0	2350.0	2300.0	0.0	0.0	450.0	n/a	go_stim
133563.33359043833	2300.0	n/a	607	89	2750	47.6664095617	stim	stop-signal	60	230395	0.0-7.26-1.26	beast_fmri_test	338	228192,/,228873,/,229553,/,230232,/	t,t,t,t	<img class = center src='/static/experiments/beast_fmri_test/images/T.png'></img>	71,89	2750.0	test	<img class = center src='/static/experiments/beast_fmri_test/images/redT.png'></img>	stop	2300.0	2.0	26.0	stop	non-target	T	71,Index Finger	89,Middle Finger	400.0	450.0	2350.0	2300.0	0.0	0.0	450.0	n/a	stop_stim
134013.33359043833	47.666409561664473	n/a	607	89	2750	47.6664095617	stim	stop-signal	60	230395	0.0-7.26-1.26	beast_fmri_test	338	228192,/,228873,/,229553,/,230232,/	t,t,t,t	<img class = center src='/static/experiments/beast_fmri_test/images/T.png'></img>	71,89	2750.0	test	<img class = center src='/static/experiments/beast_fmri_test/images/redT.png'></img>	stop	2300.0	2.0	26.0	stop	non-target	T	71,Index Finger	89,Middle Finger	400.0	450.0	2350.0	2300.0	0.0	0.0	450.0	n/a	ITI
134621	500	n/a	-1	-1	500	0.0	fixation	poldrack-single-stim	61	230955	0.0-7.27-0.27	beast_fmri_test	338	230911,/	t	<div class = centerbox2><div class = fixation>+</div></div>	none	500.0	test	n/a	n/a	n/a	n/a	n/a	n/a	n/a	n/a	n/a	n/a	n/a	n/a	n/a	n/a	n/a	n/a	n/a	n/a	fixation
133697.12948858767	2750	n/a	1523	89	2750	926.870511412	stim	stop-signal	62	233708	0.0-7.27-1.27	beast_fmri_test	338	231591,/,232272,/,232951,/,233630,/,234311,/	t,t,t,t,t	<img class = center src='/static/experiments/beast_fmri_test/images/D.png'></img>	71,89	2750.0	test	<img class = center src='/static/experiments/beast_fmri_test/images/redD.png'></img>	go	2350.0	2.0	27.0	go	non-target	D	71,Index Finger	89,Middle Finger	400.0	400.0	2350.0	2350.0	1.0	n/a	400.0	1.0	go_stim
136447.12948858767	926.87051141233928	n/a	1523	89	2750	926.870511412	stim	stop-signal	62	233708	0.0-7.27-1.27	beast_fmri_test	338	231591,/,232272,/,232951,/,233630,/,234311,/	t,t,t,t,t	<img class = center src='/static/experiments/beast_fmri_test/images/D.png'></img>	71,89	2750.0	test	<img class = center src='/static/experiments/beast_fmri_test/images/redD.png'></img>	go	2350.0	2.0	27.0	go	non-target	D	71,Index Finger	89,Middle Finger	400.0	400.0	2350.0	2350.0	1.0	n/a	400.0	1.0	ITI
138813	500	n/a	-1	-1	500	0.0	fixation	poldrack-single-stim	63	235147	0.0-7.28-0.28	beast_fmri_test	338	234990,/	t	<div class = centerbox2><div class = fixation>+</div></div>	none	500.0	test	n/a	n/a	n/a	n/a	n/a	n/a	n/a	n/a	n/a	n/a	n/a	n/a	n/a	n/a	n/a	n/a	n/a	n/a	fixation
138805.29186709551	400.0	n/a	1086	89	2750	9.70813290448	stim	stop-signal	64	237899	0.0-7.28-1.28	beast_fmri_test	338	235669,/,236349,/,237029,/,237707,/	t,t,t,t	<img class = center src='/static/experiments/beast_fmri_test/images/V.png'></img>	71,89	2750.0	test	<img class = center src='/static/experiments/beast_fmri_test/images/redV.png'></img>	stop	2350.0	2.0	28.0	stop	non-target	V	71,Index Finger	89,Middle Finger	400.0	400.0	2350.0	2350.0	0.0	0.0	400.0	n/a	go_stim
141155.29186709551	2350.0	n/a	1086	89	2750	9.70813290448	stim	stop-signal	64	237899	0.0-7.28-1.28	beast_fmri_test	338	235669,/,236349,/,237029,/,237707,/	t,t,t,t	<img class = center src='/static/experiments/beast_fmri_test/images/V.png'></img>	71,89	2750.0	test	<img class = center src='/static/experiments/beast_fmri_test/images/redV.png'></img>	stop	2350.0	2.0	28.0	stop	non-target	V	71,Index Finger	89,Middle Finger	400.0	400.0	2350.0	2350.0	0.0	0.0	400.0	n/a	stop_stim
141555.29186709551	9.7081329044811699	n/a	1086	89	2750	9.70813290448	stim	stop-signal	64	237899	0.0-7.28-1.28	beast_fmri_test	338	235669,/,236349,/,237029,/,237707,/	t,t,t,t	<img class = center src='/static/experiments/beast_fmri_test/images/V.png'></img>	71,89	2750.0	test	<img class = center src='/static/experiments/beast_fmri_test/images/redV.png'></img>	stop	2350.0	2.0	28.0	stop	non-target	V	71,Index Finger	89,Middle Finger	400.0	400.0	2350.0	2350.0	0.0	0.0	400.0	n/a	ITI
142086	500	n/a	-1	-1	500	0.0	fixation	poldrack-single-stim	65	238420	0.0-7.29-0.29	beast_fmri_test	338	238387,/	t	<div class = centerbox2><div class = fixation>+</div></div>	none	500.0	test	n/a	n/a	n/a	n/a	n/a	n/a	n/a	n/a	n/a	n/a	n/a	n/a	n/a	n/a	n/a	n/a	n/a	n/a	fixation
141604.33904241226	2750	n/a	1248	71	2750	483.660957588	stim	stop-signal	66	241172	0.0-7.29-1.29	beast_fmri_test	338	239068,/,239748,/,240426,/,241106,/	t,t,t,t	<img class = center src='/static/experiments/beast_fmri_test/images/D.png'></img>	71,89	2750.0	test	<img class = center src='/static/experiments/beast_fmri_test/images/redD.png'></img>	go	2350.0	2.0	29.0	go	target	D	71,Index Finger	89,Middle Finger	400.0	350.0	2350.0	2350.0	1.0	n/a	400.0	1.0	go_stim
144354.33904241226	483.66095758773139	n/a	1248	71	2750	483.660957588	stim	stop-signal	66	241172	0.0-7.29-1.29	beast_fmri_test	338	239068,/,239748,/,240426,/,241106,/	t,t,t,t	<img class = center src='/static/experiments/beast_fmri_test/images/D.png'></img>	71,89	2750.0	test	<img class = center src='/static/experiments/beast_fmri_test/images/redD.png'></img>	go	2350.0	2.0	29.0	go	target	D	71,Index Finger	89,Middle Finger	400.0	350.0	2350.0	2350.0	1.0	n/a	400.0	1.0	ITI
145834	500	n/a	-1	-1	500	0.0	fixation	poldrack-single-stim	67	242168	0.0-7.30-0.30	beast_fmri_test	338	241787,/	t	<div class = centerbox2><div class = fixation>+</div></div>	none	500.0	test	n/a	n/a	n/a	n/a	n/a	n/a	n/a	n/a	n/a	n/a	n/a	n/a	n/a	n/a	n/a	n/a	n/a	n/a	fixation
144742.92159520613	2750	n/a	1241	89	2750	1093.07840479	stim	stop-signal	68	244920	0.0-7.30-1.30	beast_fmri_test	338	242466,/,243155,/,243826,/,244506,/,245186,/,245865,/	t,t,t,t,t,t	<img class = center src='/static/experiments/beast_fmri_test/images/T.png'></img>	71,89	2750.0	test	<img class = center src='/static/experiments/beast_fmri_test/images/redT.png'></img>	go	2400.0	2.0	30.0	go	non-target	T	71,Index Finger	89,Middle Finger	400.0	350.0	2350.0	2400.0	1.0	n/a	350.0	1.0	go_stim
147492.92159520613	1093.0784047938632	n/a	1241	89	2750	1093.07840479	stim	stop-signal	68	244920	0.0-7.30-1.30	beast_fmri_test	338	242466,/,243155,/,243826,/,244506,/,245186,/,245865,/	t,t,t,t,t,t	<img class = center src='/static/experiments/beast_fmri_test/images/T.png'></img>	71,89	2750.0	test	<img class = center src='/static/experiments/beast_fmri_test/images/redT.png'></img>	go	2400.0	2.0	30.0	go	non-target	T	71,Index Finger	89,Middle Finger	400.0	350.0	2350.0	2400.0	1.0	n/a	350.0	1.0	ITI
150192	500	n/a	-1	-1	500	0.0	fixation	poldrack-single-stim	69	246526	0.0-7.31-0.31	beast_fmri_test	338	n/a	n/a	<div class = centerbox2><div class = fixation>+</div></div>	none	500.0	test	n/a	n/a	n/a	n/a	n/a	n/a	n/a	n/a	n/a	n/a	n/a	n/a	n/a	n/a	n/a	n/a	n/a	n/a	fixation
149247.47634771329	2750	n/a	1368	89	2750	946.523652287	stim	stop-signal	70	249278	0.0-7.31-1.31	beast_fmri_test	338	246545,/,247225,/,247903,/,248583,/,249263,/,249943,/	t,t,t,t,t,t	<img class = center src='/static/experiments/beast_fmri_test/images/T.png'></img>	71,89	2750.0	test	<img class = center src='/static/experiments/beast_fmri_test/images/redT.png'></img>	go	2400.0	2.0	31.0	go	non-target	T	71,Index Finger	89,Middle Finger	400.0	350.0	2350.0	2400.0	1.0	n/a	350.0	1.0	go_stim
151997.47634771329	946.52365228671283	n/a	1368	89	2750	946.523652287	stim	stop-signal	70	249278	0.0-7.31-1.31	beast_fmri_test	338	246545,/,247225,/,247903,/,248583,/,249263,/,249943,/	t,t,t,t,t,t	<img class = center src='/static/experiments/beast_fmri_test/images/T.png'></img>	71,89	2750.0	test	<img class = center src='/static/experiments/beast_fmri_test/images/redT.png'></img>	go	2400.0	2.0	31.0	go	non-target	T	71,Index Finger	89,Middle Finger	400.0	350.0	2350.0	2400.0	1.0	n/a	350.0	1.0	ITI
154401	500	n/a	-1	-1	500	0.0	fixation	poldrack-single-stim	71	250735	0.0-7.32-0.32	beast_fmri_test	338	250624,/	t	<div class = centerbox2><div class = fixation>+</div></div>	none	500.0	test	n/a	n/a	n/a	n/a	n/a	n/a	n/a	n/a	n/a	n/a	n/a	n/a	n/a	n/a	n/a	n/a	n/a	n/a	fixation
153829.49061062254	2750	n/a	971	89	2750	574.509389377	stim	stop-signal	72	253488	0.0-7.32-1.32	beast_fmri_test	338	251302,/,251982,/,252661,/,253342,/,254022,/	t,t,t,t,t	<img class = center src='/static/experiments/beast_fmri_test/images/V.png'></img>	71,89	2750.0	test	<img class = center src='/static/experiments/beast_fmri_test/images/redV.png'></img>	go	2400.0	2.0	32.0	go	non-target	V	71,Index Finger	89,Middle Finger	400.0	350.0	2350.0	2400.0	1.0	n/a	350.0	1.0	go_stim
156579.49061062254	574.50938937745241	n/a	971	89	2750	574.509389377	stim	stop-signal	72	253488	0.0-7.32-1.32	beast_fmri_test	338	251302,/,251982,/,252661,/,253342,/,254022,/	t,t,t,t,t	<img class = center src='/static/experiments/beast_fmri_test/images/V.png'></img>	71,89	2750.0	test	<img class = center src='/static/experiments/beast_fmri_test/images/redV.png'></img>	go	2400.0	2.0	32.0	go	non-target	V	71,Index Finger	89,Middle Finger	400.0	350.0	2350.0	2400.0	1.0	n/a	350.0	1.0	ITI
158243	500	n/a	-1	-1	500	0.0	fixation	poldrack-single-stim	73	254577	0.0-7.33-0.33	beast_fmri_test	338	n/a	n/a	<div class = centerbox2><div class = fixation>+</div></div>	none	500.0	test	n/a	n/a	n/a	n/a	n/a	n/a	n/a	n/a	n/a	n/a	n/a	n/a	n/a	n/a	n/a	n/a	n/a	n/a	fixation
158047.53795028751	350.0	n/a	-1	-1	2750	197.462049712	stim	stop-signal	74	257329	0.0-7.33-1.33	beast_fmri_test	338	254701,/,255381,/,256061,/,256740,/,257420,/	t,t,t,t,t	<img class = center src='/static/experiments/beast_fmri_test/images/D.png'></img>	71,89	2750.0	test	<img class = center src='/static/experiments/beast_fmri_test/images/redD.png'></img>	stop	2400.0	2.0	33.0	stop	non-target	D	71,Index Finger	89,Middle Finger	400.0	350.0	2350.0	2400.0	0.0	1.0	350.0	n/a	go_stim
160447.53795028751	2400.0	n/a	-1	-1	2750	197.462049712	stim	stop-signal	74	257329	0.0-7.33-1.33	beast_fmri_test	338	254701,/,255381,/,256061,/,256740,/,257420,/	t,t,t,t,t	<img class = center src='/static/experiments/beast_fmri_test/images/D.png'></img>	71,89	2750.0	test	<img class = center src='/static/experiments/beast_fmri_test/images/redD.png'></img>	stop	2400.0	2.0	33.0	stop	non-target	D	71,Index Finger	89,Middle Finger	400.0	350.0	2350.0	2400.0	0.0	1.0	350.0	n/a	stop_stim
160797.53795028751	197.46204971249489	n/a	-1	-1	2750	197.462049712	stim	stop-signal	74	257329	0.0-7.33-1.33	beast_fmri_test	338	254701,/,255381,/,256061,/,256740,/,257420,/	t,t,t,t,t	<img class = center src='/static/experiments/beast_fmri_test/images/D.png'></img>	71,89	2750.0	test	<img class = center src='/static/experiments/beast_fmri_test/images/redD.png'></img>	stop	2400.0	2.0	33.0	stop	non-target	D	71,Index Finger	89,Middle Finger	400.0	350.0	2350.0	2400.0	0.0	1.0	350.0	n/a	ITI
161707	500	n/a	-1	-1	500	0.0	fixation	poldrack-single-stim	75	258041	0.0-7.34-0.34	beast_fmri_test	338	n/a	n/a	<div class = centerbox2><div class = fixation>+</div></div>	none	500.0	test	n/a	n/a	n/a	n/a	n/a	n/a	n/a	n/a	n/a	n/a	n/a	n/a	n/a	n/a	n/a	n/a	n/a	n/a	fixation
156721.20561726825	400.0	n/a	1487	89	2750	4987.79438273	stim	stop-signal	76	260793	0.0-7.34-1.34	beast_fmri_test	338	258098,/,258779,/,259459,/,260138,/,260818,/,261498,/,262177,/,262857,/,263536,/,264217,/,264896,/,265575,/	t,t,t,t,t,t,t,t,t,t,t,t	<img class = center src='/static/experiments/beast_fmri_test/images/T.png'></img>	71,89	2750.0	test	<img class = center src='/static/experiments/beast_fmri_test/images/redT.png'></img>	stop	2350.0	2.0	34.0	stop	non-target	T	71,Index Finger	89,Middle Finger	400.0	400.0	2350.0	2350.0	0.0	0.0	400.0	n/a	go_stim
159071.20561726825	2350.0	n/a	1487	89	2750	4987.79438273	stim	stop-signal	76	260793	0.0-7.34-1.34	beast_fmri_test	338	258098,/,258779,/,259459,/,260138,/,260818,/,261498,/,262177,/,262857,/,263536,/,264217,/,264896,/,265575,/	t,t,t,t,t,t,t,t,t,t,t,t	<img class = center src='/static/experiments/beast_fmri_test/images/T.png'></img>	71,89	2750.0	test	<img class = center src='/static/experiments/beast_fmri_test/images/redT.png'></img>	stop	2350.0	2.0	34.0	stop	non-target	T	71,Index Finger	89,Middle Finger	400.0	400.0	2350.0	2350.0	0.0	0.0	400.0	n/a	stop_stim
159471.20561726825	4987.7943827317513	n/a	1487	89	2750	4987.79438273	stim	stop-signal	76	260793	0.0-7.34-1.34	beast_fmri_test	338	258098,/,258779,/,259459,/,260138,/,260818,/,261498,/,262177,/,262857,/,263536,/,264217,/,264896,/,265575,/	t,t,t,t,t,t,t,t,t,t,t,t	<img class = center src='/static/experiments/beast_fmri_test/images/T.png'></img>	71,89	2750.0	test	<img class = center src='/static/experiments/beast_fmri_test/images/redT.png'></img>	stop	2350.0	2.0	34.0	stop	non-target	T	71,Index Finger	89,Middle Finger	400.0	400.0	2350.0	2350.0	0.0	0.0	400.0	n/a	ITI
169962	500	n/a	-1	-1	500	0.0	fixation	poldrack-single-stim	77	266296	0.0-7.35-0.35	beast_fmri_test	338	266255,/	t	<div class = centerbox2><div class = fixation>+</div></div>	none	500.0	test	n/a	n/a	n/a	n/a	n/a	n/a	n/a	n/a	n/a	n/a	n/a	n/a	n/a	n/a	n/a	n/a	n/a	n/a	fixation
168581.83600367949	350.0	n/a	1081	89	2750	1383.16399632	stim	stop-signal	78	269049	0.0-7.35-1.35	beast_fmri_test	338	266935,/,267613,/,268294,/,268974,/,269654,/,270333,/	t,t,t,t,t,t	<img class = center src='/static/experiments/beast_fmri_test/images/T.png'></img>	71,89	2750.0	test	<img class = center src='/static/experiments/beast_fmri_test/images/redT.png'></img>	stop	2400.0	2.0	35.0	stop	non-target	T	71,Index Finger	89,Middle Finger	400.0	350.0	2350.0	2400.0	0.0	0.0	350.0	n/a	go_stim
170981.83600367949	2400.0	n/a	1081	89	2750	1383.16399632	stim	stop-signal	78	269049	0.0-7.35-1.35	beast_fmri_test	338	266935,/,267613,/,268294,/,268974,/,269654,/,270333,/	t,t,t,t,t,t	<img class = center src='/static/experiments/beast_fmri_test/images/T.png'></img>	71,89	2750.0	test	<img class = center src='/static/experiments/beast_fmri_test/images/redT.png'></img>	stop	2400.0	2.0	35.0	stop	non-target	T	71,Index Finger	89,Middle Finger	400.0	350.0	2350.0	2400.0	0.0	0.0	350.0	n/a	stop_stim
171331.83600367949	1383.1639963205207	n/a	1081	89	2750	1383.16399632	stim	stop-signal	78	269049	0.0-7.35-1.35	beast_fmri_test	338	266935,/,267613,/,268294,/,268974,/,269654,/,270333,/	t,t,t,t,t,t	<img class = center src='/static/experiments/beast_fmri_test/images/T.png'></img>	71,89	2750.0	test	<img class = center src='/static/experiments/beast_fmri_test/images/redT.png'></img>	stop	2400.0	2.0	35.0	stop	non-target	T	71,Index Finger	89,Middle Finger	400.0	350.0	2350.0	2400.0	0.0	0.0	350.0	n/a	ITI
174613	500	n/a	-1	-1	500	0.0	fixation	poldrack-single-stim	79	270947	0.0-7.36-0.36	beast_fmri_test	338	n/a	n/a	<div class = centerbox2><div class = fixation>+</div></div>	none	500.0	test	n/a	n/a	n/a	n/a	n/a	n/a	n/a	n/a	n/a	n/a	n/a	n/a	n/a	n/a	n/a	n/a	n/a	n/a	fixation
174051.65756979311	2750	n/a	1082	89	2750	562.342430207	stim	stop-signal	80	273698	0.0-7.36-1.36	beast_fmri_test	338	271013,/,271694,/,272373,/,273052,/,273730,/	t,t,t,t,t	<img class = center src='/static/experiments/beast_fmri_test/images/P.png'></img>	71,89	2750.0	test	<img class = center src='/static/experiments/beast_fmri_test/images/redP.png'></img>	go	2450.0	2.0	36.0	go	non-target	P	71,Index Finger	89,Middle Finger	400.0	300.0	2350.0	2450.0	1.0	n/a	300.0	1.0	go_stim
176801.65756979311	562.34243020689792	n/a	1082	89	2750	562.342430207	stim	stop-signal	80	273698	0.0-7.36-1.36	beast_fmri_test	338	271013,/,271694,/,272373,/,273052,/,273730,/	t,t,t,t,t	<img class = center src='/static/experiments/beast_fmri_test/images/P.png'></img>	71,89	2750.0	test	<img class = center src='/static/experiments/beast_fmri_test/images/redP.png'></img>	go	2450.0	2.0	36.0	go	non-target	P	71,Index Finger	89,Middle Finger	400.0	300.0	2350.0	2450.0	1.0	n/a	300.0	1.0	ITI
178442	500	n/a	-1	-1	500	0.0	fixation	poldrack-single-stim	81	274776	0.0-7.37-0.37	beast_fmri_test	338	274413,/	t	<div class = centerbox2><div class = fixation>+</div></div>	none	500.0	test	n/a	n/a	n/a	n/a	n/a	n/a	n/a	n/a	n/a	n/a	n/a	n/a	n/a	n/a	n/a	n/a	n/a	n/a	fixation
176538.51373408543	2750	n/a	1067	89	2750	1905.48626591	stim	stop-signal	82	277528	0.0-7.37-1.37	beast_fmri_test	338	275092,/,275771,/,276450,/,277131,/,277811,/,278491,/,279169,/	t,t,t,t,t,t,t	<img class = center src='/static/experiments/beast_fmri_test/images/B.png'></img>	71,89	2750.0	test	<img class = center src='/static/experiments/beast_fmri_test/images/redB.png'></img>	go	2450.0	2.0	37.0	go	non-target	B	71,Index Finger	89,Middle Finger	400.0	300.0	2350.0	2450.0	1.0	n/a	300.0	1.0	go_stim
179288.51373408543	1905.4862659145901	n/a	1067	89	2750	1905.48626591	stim	stop-signal	82	277528	0.0-7.37-1.37	beast_fmri_test	338	275092,/,275771,/,276450,/,277131,/,277811,/,278491,/,279169,/	t,t,t,t,t,t,t	<img class = center src='/static/experiments/beast_fmri_test/images/B.png'></img>	71,89	2750.0	test	<img class = center src='/static/experiments/beast_fmri_test/images/redB.png'></img>	go	2450.0	2.0	37.0	go	non-target	B	71,Index Finger	89,Middle Finger	400.0	300.0	2350.0	2450.0	1.0	n/a	300.0	1.0	ITI
183613	500	n/a	-1	-1	500	0.0	fixation	poldrack-single-stim	83	279947	0.0-7.38-0.38	beast_fmri_test	338	279849,/	t	<div class = centerbox2><div class = fixation>+</div></div>	none	500.0	test	n/a	n/a	n/a	n/a	n/a	n/a	n/a	n/a	n/a	n/a	n/a	n/a	n/a	n/a	n/a	n/a	n/a	n/a	fixation
183471.72642242257	300.0	n/a	-1	-1	2750	143.273577577	stim	stop-signal	84	282699	0.0-7.38-1.38	beast_fmri_test	338	280529,/,281209,/,281889,/,282569,/	t,t,t,t	<img class = center src='/static/experiments/beast_fmri_test/images/T.png'></img>	71,89	2750.0	test	<img class = center src='/static/experiments/beast_fmri_test/images/redT.png'></img>	stop	2450.0	2.0	38.0	stop	non-target	T	71,Index Finger	89,Middle Finger	400.0	300.0	2350.0	2450.0	0.0	1.0	300.0	n/a	go_stim
185921.72642242257	2450.0	n/a	-1	-1	2750	143.273577577	stim	stop-signal	84	282699	0.0-7.38-1.38	beast_fmri_test	338	280529,/,281209,/,281889,/,282569,/	t,t,t,t	<img class = center src='/static/experiments/beast_fmri_test/images/T.png'></img>	71,89	2750.0	test	<img class = center src='/static/experiments/beast_fmri_test/images/redT.png'></img>	stop	2450.0	2.0	38.0	stop	non-target	T	71,Index Finger	89,Middle Finger	400.0	300.0	2350.0	2450.0	0.0	1.0	300.0	n/a	stop_stim
186221.72642242257	143.27357757742774	n/a	-1	-1	2750	143.273577577	stim	stop-signal	84	282699	0.0-7.38-1.38	beast_fmri_test	338	280529,/,281209,/,281889,/,282569,/	t,t,t,t	<img class = center src='/static/experiments/beast_fmri_test/images/T.png'></img>	71,89	2750.0	test	<img class = center src='/static/experiments/beast_fmri_test/images/redT.png'></img>	stop	2450.0	2.0	38.0	stop	non-target	T	71,Index Finger	89,Middle Finger	400.0	300.0	2350.0	2450.0	0.0	1.0	300.0	n/a	ITI
187024	500	n/a	-1	-1	500	0.0	fixation	poldrack-single-stim	85	283358	0.0-7.39-0.39	beast_fmri_test	338	283247,/	t	<div class = centerbox2><div class = fixation>+</div></div>	none	500.0	test	n/a	n/a	n/a	n/a	n/a	n/a	n/a	n/a	n/a	n/a	n/a	n/a	n/a	n/a	n/a	n/a	n/a	n/a	fixation
186998.14375514816	350.0	n/a	-1	-1	2750	26.8562448518	stim	stop-signal	86	286109	0.0-7.39-1.39	beast_fmri_test	338	283926,/,284607,/,285286,/,285967,/	t,t,t,t	<img class = center src='/static/experiments/beast_fmri_test/images/V.png'></img>	71,89	2750.0	test	<img class = center src='/static/experiments/beast_fmri_test/images/redV.png'></img>	stop	2400.0	2.0	39.0	stop	non-target	V	71,Index Finger	89,Middle Finger	400.0	350.0	2350.0	2400.0	0.0	1.0	350.0	n/a	go_stim
189398.14375514816	2400.0	n/a	-1	-1	2750	26.8562448518	stim	stop-signal	86	286109	0.0-7.39-1.39	beast_fmri_test	338	283926,/,284607,/,285286,/,285967,/	t,t,t,t	<img class = center src='/static/experiments/beast_fmri_test/images/V.png'></img>	71,89	2750.0	test	<img class = center src='/static/experiments/beast_fmri_test/images/redV.png'></img>	stop	2400.0	2.0	39.0	stop	non-target	V	71,Index Finger	89,Middle Finger	400.0	350.0	2350.0	2400.0	0.0	1.0	350.0	n/a	stop_stim
189748.14375514816	26.856244851838287	n/a	-1	-1	2750	26.8562448518	stim	stop-signal	86	286109	0.0-7.39-1.39	beast_fmri_test	338	283926,/,284607,/,285286,/,285967,/	t,t,t,t	<img class = center src='/static/experiments/beast_fmri_test/images/V.png'></img>	71,89	2750.0	test	<img class = center src='/static/experiments/beast_fmri_test/images/redV.png'></img>	stop	2400.0	2.0	39.0	stop	non-target	V	71,Index Finger	89,Middle Finger	400.0	350.0	2350.0	2400.0	0.0	1.0	350.0	n/a	ITI
190313	500	n/a	-1	-1	500	0.0	fixation	poldrack-single-stim	87	286647	0.0-7.40-0.40	beast_fmri_test	338	286645,/	t	<div class = centerbox2><div class = fixation>+</div></div>	none	500.0	test	n/a	n/a	n/a	n/a	n/a	n/a	n/a	n/a	n/a	n/a	n/a	n/a	n/a	n/a	n/a	n/a	n/a	n/a	fixation
188744.22439796728	400.0	n/a	-1	-1	2750	1569.77560203	stim	stop-signal	88	289398	0.0-7.40-1.40	beast_fmri_test	338	287327,/,288005,/,288686,/,289365,/,290045,/,290725,/	t,t,t,t,t,t	<img class = center src='/static/experiments/beast_fmri_test/images/T.png'></img>	71,89	2750.0	test	<img class = center src='/static/experiments/beast_fmri_test/images/redT.png'></img>	stop	2350.0	2.0	40.0	stop	target	T	71,Index Finger	89,Middle Finger	400.0	400.0	2350.0	2400.0	0.0	1.0	400.0	n/a	go_stim
191094.22439796728	2350.0	n/a	-1	-1	2750	1569.77560203	stim	stop-signal	88	289398	0.0-7.40-1.40	beast_fmri_test	338	287327,/,288005,/,288686,/,289365,/,290045,/,290725,/	t,t,t,t,t,t	<img class = center src='/static/experiments/beast_fmri_test/images/T.png'></img>	71,89	2750.0	test	<img class = center src='/static/experiments/beast_fmri_test/images/redT.png'></img>	stop	2350.0	2.0	40.0	stop	target	T	71,Index Finger	89,Middle Finger	400.0	400.0	2350.0	2400.0	0.0	1.0	400.0	n/a	stop_stim
191494.22439796728	1569.7756020327402	n/a	-1	-1	2750	1569.77560203	stim	stop-signal	88	289398	0.0-7.40-1.40	beast_fmri_test	338	287327,/,288005,/,288686,/,289365,/,290045,/,290725,/	t,t,t,t,t,t	<img class = center src='/static/experiments/beast_fmri_test/images/T.png'></img>	71,89	2750.0	test	<img class = center src='/static/experiments/beast_fmri_test/images/redT.png'></img>	stop	2350.0	2.0	40.0	stop	target	T	71,Index Finger	89,Middle Finger	400.0	400.0	2350.0	2400.0	0.0	1.0	400.0	n/a	ITI
195147	500	n/a	-1	-1	500	0.0	fixation	poldrack-single-stim	89	291481	0.0-7.41-0.41	beast_fmri_test	338	291404,/	t	<div class = centerbox2><div class = fixation>+</div></div>	none	500.0	test	n/a	n/a	n/a	n/a	n/a	n/a	n/a	n/a	n/a	n/a	n/a	n/a	n/a	n/a	n/a	n/a	n/a	n/a	fixation
191429.66160717164	450.0	n/a	626	71	2750	3718.33839283	stim	stop-signal	90	294232	0.0-7.41-1.41	beast_fmri_test	338	292083,/,292763,/,293444,/,294122,/,294802,/,295483,/,296162,/,296842,/,297522,/	t,t,t,t,t,t,t,t,t	<img class = center src='/static/experiments/beast_fmri_test/images/V.png'></img>	71,89	2750.0	test	<img class = center src='/static/experiments/beast_fmri_test/images/redV.png'></img>	stop	2300.0	2.0	41.0	stop	target	V	71,Index Finger	89,Middle Finger	450.0	400.0	2300.0	2400.0	0.0	0.0	450.0	n/a	go_stim
193729.66160717164	2300.0	n/a	626	71	2750	3718.33839283	stim	stop-signal	90	294232	0.0-7.41-1.41	beast_fmri_test	338	292083,/,292763,/,293444,/,294122,/,294802,/,295483,/,296162,/,296842,/,297522,/	t,t,t,t,t,t,t,t,t	<img class = center src='/static/experiments/beast_fmri_test/images/V.png'></img>	71,89	2750.0	test	<img class = center src='/static/experiments/beast_fmri_test/images/redV.png'></img>	stop	2300.0	2.0	41.0	stop	target	V	71,Index Finger	89,Middle Finger	450.0	400.0	2300.0	2400.0	0.0	0.0	450.0	n/a	stop_stim
194179.66160717164	3718.3383928283647	n/a	626	71	2750	3718.33839283	stim	stop-signal	90	294232	0.0-7.41-1.41	beast_fmri_test	338	292083,/,292763,/,293444,/,294122,/,294802,/,295483,/,296162,/,296842,/,297522,/	t,t,t,t,t,t,t,t,t	<img class = center src='/static/experiments/beast_fmri_test/images/V.png'></img>	71,89	2750.0	test	<img class = center src='/static/experiments/beast_fmri_test/images/redV.png'></img>	stop	2300.0	2.0	41.0	stop	target	V	71,Index Finger	89,Middle Finger	450.0	400.0	2300.0	2400.0	0.0	0.0	450.0	n/a	ITI
202130	500	n/a	-1	-1	500	0.0	fixation	poldrack-single-stim	91	298464	0.0-7.42-0.42	beast_fmri_test	338	298200,/	t	<div class = centerbox2><div class = fixation>+</div></div>	none	500.0	test	n/a	n/a	n/a	n/a	n/a	n/a	n/a	n/a	n/a	n/a	n/a	n/a	n/a	n/a	n/a	n/a	n/a	n/a	fixation
200719.8519515777	2750	n/a	630	89	2750	1414.14804842	stim	stop-signal	92	301218	0.0-7.42-1.42	beast_fmri_test	338	298880,/,299559,/,300240,/,300920,/,301600,/,302281,/	t,t,t,t,t,t	<img class = center src='/static/experiments/beast_fmri_test/images/D.png'></img>	71,89	2750.0	test	<img class = center src='/static/experiments/beast_fmri_test/images/redD.png'></img>	go	2350.0	2.0	42.0	go	non-target	D	71,Index Finger	89,Middle Finger	400.0	400.0	2300.0	2350.0	1.0	n/a	400.0	1.0	go_stim
203469.8519515777	1414.1480484223214	n/a	630	89	2750	1414.14804842	stim	stop-signal	92	301218	0.0-7.42-1.42	beast_fmri_test	338	298880,/,299559,/,300240,/,300920,/,301600,/,302281,/	t,t,t,t,t,t	<img class = center src='/static/experiments/beast_fmri_test/images/D.png'></img>	71,89	2750.0	test	<img class = center src='/static/experiments/beast_fmri_test/images/redD.png'></img>	go	2350.0	2.0	42.0	go	non-target	D	71,Index Finger	89,Middle Finger	400.0	400.0	2300.0	2350.0	1.0	n/a	400.0	1.0	ITI
206815	500	n/a	-1	-1	500	0.0	fixation	poldrack-single-stim	93	303149	0.0-7.43-0.43	beast_fmri_test	338	302959,/	t	<div class = centerbox2><div class = fixation>+</div></div>	none	500.0	test	n/a	n/a	n/a	n/a	n/a	n/a	n/a	n/a	n/a	n/a	n/a	n/a	n/a	n/a	n/a	n/a	n/a	n/a	fixation
206771.3845853596	2750	n/a	1045	89	2750	43.6154146404	stim	stop-signal	94	305899	0.0-7.43-1.43	beast_fmri_test	338	303639,/,304318,/,304999,/,305677,/	t,t,t,t	<img class = center src='/static/experiments/beast_fmri_test/images/P.png'></img>	71,89	2750.0	test	<img class = center src='/static/experiments/beast_fmri_test/images/redP.png'></img>	go	2350.0	2.0	43.0	go	non-target	P	71,Index Finger	89,Middle Finger	400.0	400.0	2300.0	2350.0	1.0	n/a	400.0	1.0	go_stim
209521.3845853596	43.615414640389744	n/a	1045	89	2750	43.6154146404	stim	stop-signal	94	305899	0.0-7.43-1.43	beast_fmri_test	338	303639,/,304318,/,304999,/,305677,/	t,t,t,t	<img class = center src='/static/experiments/beast_fmri_test/images/P.png'></img>	71,89	2750.0	test	<img class = center src='/static/experiments/beast_fmri_test/images/redP.png'></img>	go	2350.0	2.0	43.0	go	non-target	P	71,Index Finger	89,Middle Finger	400.0	400.0	2300.0	2350.0	1.0	n/a	400.0	1.0	ITI
210124	500	n/a	-1	-1	500	0.0	fixation	poldrack-single-stim	95	306458	0.0-7.44-0.44	beast_fmri_test	338	306358,/	t	<div class = centerbox2><div class = fixation>+</div></div>	none	500.0	test	n/a	n/a	n/a	n/a	n/a	n/a	n/a	n/a	n/a	n/a	n/a	n/a	n/a	n/a	n/a	n/a	n/a	n/a	fixation
209702.5671728978	400.0	n/a	-1	-1	2750	424.432827102	stim	stop-signal	96	309211	0.0-7.44-1.44	beast_fmri_test	338	307038,/,307717,/,308396,/,309076,/	t,t,t,t	<img class = center src='/static/experiments/beast_fmri_test/images/D.png'></img>	71,89	2750.0	test	<img class = center src='/static/experiments/beast_fmri_test/images/redD.png'></img>	stop	2350.0	2.0	44.0	stop	target	D	71,Index Finger	89,Middle Finger	400.0	400.0	2350.0	2350.0	0.0	1.0	400.0	n/a	go_stim
212052.5671728978	2350.0	n/a	-1	-1	2750	424.432827102	stim	stop-signal	96	309211	0.0-7.44-1.44	beast_fmri_test	338	307038,/,307717,/,308396,/,309076,/	t,t,t,t	<img class = center src='/static/experiments/beast_fmri_test/images/D.png'></img>	71,89	2750.0	test	<img class = center src='/static/experiments/beast_fmri_test/images/redD.png'></img>	stop	2350.0	2.0	44.0	stop	target	D	71,Index Finger	89,Middle Finger	400.0	400.0	2350.0	2350.0	0.0	1.0	400.0	n/a	stop_stim
212452.5671728978	424.43282710220217	n/a	-1	-1	2750	424.432827102	stim	stop-signal	96	309211	0.0-7.44-1.44	beast_fmri_test	338	307038,/,307717,/,308396,/,309076,/	t,t,t,t	<img class = center src='/static/experiments/beast_fmri_test/images/D.png'></img>	71,89	2750.0	test	<img class = center src='/static/experiments/beast_fmri_test/images/redD.png'></img>	stop	2350.0	2.0	44.0	stop	target	D	71,Index Finger	89,Middle Finger	400.0	400.0	2350.0	2350.0	0.0	1.0	400.0	n/a	ITI
213818	500	n/a	-1	-1	500	0.0	fixation	poldrack-single-stim	97	310152	0.0-7.45-0.45	beast_fmri_test	338	309756,/	t	<div class = centerbox2><div class = fixation>+</div></div>	none	500.0	test	n/a	n/a	n/a	n/a	n/a	n/a	n/a	n/a	n/a	n/a	n/a	n/a	n/a	n/a	n/a	n/a	n/a	n/a	fixation
213741.01336474705	2750	n/a	894	71	2750	78.986635253	stim	stop-signal	98	312904	0.0-7.45-1.45	beast_fmri_test	338	310437,/,311115,/,311795,/,312475,/	t,t,t,t	<img class = center src='/static/experiments/beast_fmri_test/images/T.png'></img>	71,89	2750.0	test	<img class = center src='/static/experiments/beast_fmri_test/images/redT.png'></img>	go	2350.0	2.0	45.0	go	non-target	T	71,Index Finger	89,Middle Finger	450.0	400.0	2350.0	2350.0	0.0	n/a	400.0	0.0	go_stim
216491.01336474705	78.986635252973699	n/a	894	71	2750	78.986635253	stim	stop-signal	98	312904	0.0-7.45-1.45	beast_fmri_test	338	310437,/,311115,/,311795,/,312475,/	t,t,t,t	<img class = center src='/static/experiments/beast_fmri_test/images/T.png'></img>	71,89	2750.0	test	<img class = center src='/static/experiments/beast_fmri_test/images/redT.png'></img>	go	2350.0	2.0	45.0	go	non-target	T	71,Index Finger	89,Middle Finger	450.0	400.0	2350.0	2350.0	0.0	n/a	400.0	0.0	ITI
217162	500	n/a	-1	-1	500	0.0	fixation	poldrack-single-stim	99	313496	0.0-7.46-0.46	beast_fmri_test	338	313154,/	t	<div class = centerbox2><div class = fixation>+</div></div>	none	500.0	test	n/a	n/a	n/a	n/a	n/a	n/a	n/a	n/a	n/a	n/a	n/a	n/a	n/a	n/a	n/a	n/a	n/a	n/a	fixation
216585.79888129799	2750	n/a	899	89	2750	579.201118702	stim	stop-signal	100	316249	0.0-7.46-1.46	beast_fmri_test	338	313833,/,314514,/,315194,/,315872,/,316554,/	t,t,t,t,t	<img class = center src='/static/experiments/beast_fmri_test/images/P.png'></img>	71,89	2750.0	test	<img class = center src='/static/experiments/beast_fmri_test/images/redP.png'></img>	go	2350.0	2.0	46.0	go	non-target	P	71,Index Finger	89,Middle Finger	450.0	400.0	2350.0	2350.0	1.0	n/a	400.0	1.0	go_stim
219335.79888129799	579.20111870198514	n/a	899	89	2750	579.201118702	stim	stop-signal	100	316249	0.0-7.46-1.46	beast_fmri_test	338	313833,/,314514,/,315194,/,315872,/,316554,/	t,t,t,t,t	<img class = center src='/static/experiments/beast_fmri_test/images/P.png'></img>	71,89	2750.0	test	<img class = center src='/static/experiments/beast_fmri_test/images/redP.png'></img>	go	2350.0	2.0	46.0	go	non-target	P	71,Index Finger	89,Middle Finger	450.0	400.0	2350.0	2350.0	1.0	n/a	400.0	1.0	ITI
235507	15000	n/a	-1	-1	15000	0.0	practice-no-stop-feedback	poldrack-single-stim	101	331841	0.0-8.0	beast_fmri_test	338	317232,/,317911,/,318591,/,319272,/,319951,/,320630,/,321311,/,321991,/,322670,/,323350,/,324029,/,324708,/,325389,/,326068,/,326746,/,327427,/,328107,/,328787,/,329467,/,330147,/,330831,/,331507,/	t,t,t,t,t,t,t,t,t,t,t,t,t,t,t,t,t,t,t,t,t,t	"<div class = ""centerbox""><p class = ""block-text"">Your delay is 2 trials.</p><p class = block-text>Please wait for the scanner to start the block</p></div>"	77	15000.0	n/a	n/a	n/a	n/a	n/a	n/a	n/a	n/a	n/a	n/a	n/a	n/a	n/a	n/a	n/a	n/a	n/a	n/a	n/a	practice-no-stop-feedback
236011	500	n/a	-1	-1	500	0.0	fixation	poldrack-single-stim	102	332345	0.0-9.0-0.0	beast_fmri_test	338	332186,/	t	<div class = centerbox2><div class = fixation>+</div></div>	none	500.0	test	n/a	n/a	n/a	n/a	n/a	n/a	n/a	n/a	n/a	n/a	n/a	n/a	n/a	n/a	n/a	n/a	n/a	n/a	fixation
235587.22639057453	temp_go_duration	n/a	2349	89	2750	425.773609425	stim	stop-signal	103	335097	0.0-9.0-1.0	beast_fmri_test	338	332866,/,333546,/,334226,/,334904,/	t,t,t,t	<img class = center src='/static/experiments/beast_fmri_test/images/T.png'></img>	71,89	2750.0	test	<img class = center src='/static/experiments/beast_fmri_test/images/redT.png'></img>	stop	-1.0	2.0	0.0	stop	temp-non-target	T	71,Index Finger	89,Middle Finger	450.0	400.0	2350.0	2350.0	0.0	0.0	n/a	n/a	go_stim
temp-non-target	temp_stop_duration	n/a	2349	89	2750	425.773609425	stim	stop-signal	103	335097	0.0-9.0-1.0	beast_fmri_test	338	332866,/,333546,/,334226,/,334904,/	t,t,t,t	<img class = center src='/static/experiments/beast_fmri_test/images/T.png'></img>	71,89	2750.0	test	<img class = center src='/static/experiments/beast_fmri_test/images/redT.png'></img>	stop	-1.0	2.0	0.0	stop	temp-non-target	T	71,Index Finger	89,Middle Finger	450.0	400.0	2350.0	2350.0	0.0	0.0	n/a	n/a	stop_stim
238337.22639057453	425.77360942548967	n/a	2349	89	2750	425.773609425	stim	stop-signal	103	335097	0.0-9.0-1.0	beast_fmri_test	338	332866,/,333546,/,334226,/,334904,/	t,t,t,t	<img class = center src='/static/experiments/beast_fmri_test/images/T.png'></img>	71,89	2750.0	test	<img class = center src='/static/experiments/beast_fmri_test/images/redT.png'></img>	stop	-1.0	2.0	0.0	stop	temp-non-target	T	71,Index Finger	89,Middle Finger	450.0	400.0	2350.0	2350.0	0.0	0.0	n/a	n/a	ITI
239704	500	n/a	-1	-1	500	0.0	fixation	poldrack-single-stim	104	336038	0.0-9.1-0.1	beast_fmri_test	338	335583,/	t	<div class = centerbox2><div class = fixation>+</div></div>	none	500.0	test	n/a	n/a	n/a	n/a	n/a	n/a	n/a	n/a	n/a	n/a	n/a	n/a	n/a	n/a	n/a	n/a	n/a	n/a	fixation
239461.91207243403	2750	n/a	1124	89	2750	244.087927566	stim	stop-signal	105	338790	0.0-9.1-1.1	beast_fmri_test	338	336264,/,336944,/,337622,/,338303,/,338983,/	t,t,t,t,t	<img class = center src='/static/experiments/beast_fmri_test/images/V.png'></img>	71,89	2750.0	test	<img class = center src='/static/experiments/beast_fmri_test/images/redV.png'></img>	go	-1.0	2.0	1.0	go	temp-non-target	V	71,Index Finger	89,Middle Finger	450.0	400.0	2350.0	2350.0	0.0	n/a	n/a	n/a	go_stim
242211.91207243403	244.08792756599053	n/a	1124	89	2750	244.087927566	stim	stop-signal	105	338790	0.0-9.1-1.1	beast_fmri_test	338	336264,/,336944,/,337622,/,338303,/,338983,/	t,t,t,t,t	<img class = center src='/static/experiments/beast_fmri_test/images/V.png'></img>	71,89	2750.0	test	<img class = center src='/static/experiments/beast_fmri_test/images/redV.png'></img>	go	-1.0	2.0	1.0	go	temp-non-target	V	71,Index Finger	89,Middle Finger	450.0	400.0	2350.0	2350.0	0.0	n/a	n/a	n/a	ITI
243216	500	n/a	-1	-1	500	0.0	fixation	poldrack-single-stim	106	339550	0.0-9.2-0.2	beast_fmri_test	338	n/a	n/a	<div class = centerbox2><div class = fixation>+</div></div>	none	500.0	test	n/a	n/a	n/a	n/a	n/a	n/a	n/a	n/a	n/a	n/a	n/a	n/a	n/a	n/a	n/a	n/a	n/a	n/a	fixation
240759.30729696783	2750	n/a	707	71	2750	2458.69270303	stim	stop-signal	107	342302	0.0-9.2-1.2	beast_fmri_test	338	339661,/,340342,/,341021,/,341700,/,342381,/,343061,/,343741,/,344420,/	t,t,t,t,t,t,t,t	<img class = center src='/static/experiments/beast_fmri_test/images/T.png'></img>	71,89	2750.0	test	<img class = center src='/static/experiments/beast_fmri_test/images/redT.png'></img>	go	2300.0	2.0	2.0	go	target	T	71,Index Finger	89,Middle Finger	450.0	400.0	2300.0	2350.0	1.0	n/a	450.0	1.0	go_stim
243509.30729696783	2458.692703032174	n/a	707	71	2750	2458.69270303	stim	stop-signal	107	342302	0.0-9.2-1.2	beast_fmri_test	338	339661,/,340342,/,341021,/,341700,/,342381,/,343061,/,343741,/,344420,/	t,t,t,t,t,t,t,t	<img class = center src='/static/experiments/beast_fmri_test/images/T.png'></img>	71,89	2750.0	test	<img class = center src='/static/experiments/beast_fmri_test/images/redT.png'></img>	go	2300.0	2.0	2.0	go	target	T	71,Index Finger	89,Middle Finger	450.0	400.0	2300.0	2350.0	1.0	n/a	450.0	1.0	ITI
248941	500	n/a	-1	-1	500	0.0	fixation	poldrack-single-stim	108	345275	0.0-9.3-0.3	beast_fmri_test	338	345099,/	t	<div class = centerbox2><div class = fixation>+</div></div>	none	500.0	test	n/a	n/a	n/a	n/a	n/a	n/a	n/a	n/a	n/a	n/a	n/a	n/a	n/a	n/a	n/a	n/a	n/a	n/a	fixation
244892.09717880876	2750	n/a	671	89	2750	4050.90282119	stim	stop-signal	109	348027	0.0-9.3-1.3	beast_fmri_test	338	345780,/,346459,/,347138,/,347819,/,348499,/,349177,/,349857,/,350537,/,351217,/,351895,/	t,t,t,t,t,t,t,t,t,t	<img class = center src='/static/experiments/beast_fmri_test/images/P.png'></img>	71,89	2750.0	test	<img class = center src='/static/experiments/beast_fmri_test/images/redP.png'></img>	go	2350.0	2.0	3.0	go	non-target	P	71,Index Finger	89,Middle Finger	450.0	400.0	2300.0	2350.0	1.0	n/a	400.0	1.0	go_stim
247642.09717880876	4050.9028211912291	n/a	671	89	2750	4050.90282119	stim	stop-signal	109	348027	0.0-9.3-1.3	beast_fmri_test	338	345780,/,346459,/,347138,/,347819,/,348499,/,349177,/,349857,/,350537,/,351217,/,351895,/	t,t,t,t,t,t,t,t,t,t	<img class = center src='/static/experiments/beast_fmri_test/images/P.png'></img>	71,89	2750.0	test	<img class = center src='/static/experiments/beast_fmri_test/images/redP.png'></img>	go	2350.0	2.0	3.0	go	non-target	P	71,Index Finger	89,Middle Finger	450.0	400.0	2300.0	2350.0	1.0	n/a	400.0	1.0	ITI
256259	500	n/a	-1	-1	500	0.0	fixation	poldrack-single-stim	110	352593	0.0-9.4-0.4	beast_fmri_test	338	352576,/	t	<div class = centerbox2><div class = fixation>+</div></div>	none	500.0	test	n/a	n/a	n/a	n/a	n/a	n/a	n/a	n/a	n/a	n/a	n/a	n/a	n/a	n/a	n/a	n/a	n/a	n/a	fixation
255247.71254927939	2750	n/a	503	89	2750	1014.28745072	stim	stop-signal	111	355346	0.0-9.4-1.4	beast_fmri_test	338	353257,/,353935,/,354615,/,355295,/,355975,/	t,t,t,t,t	<img class = center src='/static/experiments/beast_fmri_test/images/B.png'></img>	71,89	2750.0	test	<img class = center src='/static/experiments/beast_fmri_test/images/redB.png'></img>	go	2350.0	2.0	4.0	go	non-target	B	71,Index Finger	89,Middle Finger	450.0	400.0	2300.0	2350.0	1.0	n/a	400.0	1.0	go_stim
257997.71254927939	1014.2874507206308	n/a	503	89	2750	1014.28745072	stim	stop-signal	111	355346	0.0-9.4-1.4	beast_fmri_test	338	353257,/,353935,/,354615,/,355295,/,355975,/	t,t,t,t,t	<img class = center src='/static/experiments/beast_fmri_test/images/B.png'></img>	71,89	2750.0	test	<img class = center src='/static/experiments/beast_fmri_test/images/redB.png'></img>	go	2350.0	2.0	4.0	go	non-target	B	71,Index Finger	89,Middle Finger	450.0	400.0	2300.0	2350.0	1.0	n/a	400.0	1.0	ITI
260545	500	n/a	-1	-1	500	0.0	fixation	poldrack-single-stim	112	356879	0.0-9.5-0.5	beast_fmri_test	338	356653,/	t	<div class = centerbox2><div class = fixation>+</div></div>	none	500.0	test	n/a	n/a	n/a	n/a	n/a	n/a	n/a	n/a	n/a	n/a	n/a	n/a	n/a	n/a	n/a	n/a	n/a	n/a	fixation
260434.10542630899	450.0	n/a	475	71	2750	111.894573691	stim	stop-signal	113	359630	0.0-9.5-1.5	beast_fmri_test	338	357334,/,358014,/,358693,/,359374,/	t,t,t,t	<img class = center src='/static/experiments/beast_fmri_test/images/P.png'></img>	71,89	2750.0	test	<img class = center src='/static/experiments/beast_fmri_test/images/redP.png'></img>	stop	2300.0	2.0	5.0	stop	target	P	71,Index Finger	89,Middle Finger	450.0	400.0	2300.0	2350.0	0.0	0.0	450.0	n/a	go_stim
262734.10542630899	2300.0	n/a	475	71	2750	111.894573691	stim	stop-signal	113	359630	0.0-9.5-1.5	beast_fmri_test	338	357334,/,358014,/,358693,/,359374,/	t,t,t,t	<img class = center src='/static/experiments/beast_fmri_test/images/P.png'></img>	71,89	2750.0	test	<img class = center src='/static/experiments/beast_fmri_test/images/redP.png'></img>	stop	2300.0	2.0	5.0	stop	target	P	71,Index Finger	89,Middle Finger	450.0	400.0	2300.0	2350.0	0.0	0.0	450.0	n/a	stop_stim
263184.10542630899	111.89457369099848	n/a	475	71	2750	111.894573691	stim	stop-signal	113	359630	0.0-9.5-1.5	beast_fmri_test	338	357334,/,358014,/,358693,/,359374,/	t,t,t,t	<img class = center src='/static/experiments/beast_fmri_test/images/P.png'></img>	71,89	2750.0	test	<img class = center src='/static/experiments/beast_fmri_test/images/redP.png'></img>	stop	2300.0	2.0	5.0	stop	target	P	71,Index Finger	89,Middle Finger	450.0	400.0	2300.0	2350.0	0.0	0.0	450.0	n/a	ITI
263925	500	n/a	-1	-1	500	0.0	fixation	poldrack-single-stim	114	360259	0.0-9.6-0.6	beast_fmri_test	338	360053,/	t	<div class = centerbox2><div class = fixation>+</div></div>	none	500.0	test	n/a	n/a	n/a	n/a	n/a	n/a	n/a	n/a	n/a	n/a	n/a	n/a	n/a	n/a	n/a	n/a	n/a	n/a	fixation
263842.95453906304	2750	n/a	1359	89	2750	84.0454609369	stim	stop-signal	115	363011	0.0-9.6-1.6	beast_fmri_test	338	360733,/,361413,/,362093,/,362772,/	t,t,t,t	<img class = center src='/static/experiments/beast_fmri_test/images/V.png'></img>	71,89	2750.0	test	<img class = center src='/static/experiments/beast_fmri_test/images/redV.png'></img>	go	2350.0	2.0	6.0	go	non-target	V	71,Index Finger	89,Middle Finger	400.0	400.0	2300.0	2350.0	1.0	n/a	400.0	1.0	go_stim
266592.95453906304	84.04546093693871	n/a	1359	89	2750	84.0454609369	stim	stop-signal	115	363011	0.0-9.6-1.6	beast_fmri_test	338	360733,/,361413,/,362093,/,362772,/	t,t,t,t	<img class = center src='/static/experiments/beast_fmri_test/images/V.png'></img>	71,89	2750.0	test	<img class = center src='/static/experiments/beast_fmri_test/images/redV.png'></img>	go	2350.0	2.0	6.0	go	non-target	V	71,Index Finger	89,Middle Finger	400.0	400.0	2300.0	2350.0	1.0	n/a	400.0	1.0	ITI
267279	500	n/a	-1	-1	500	0.0	fixation	poldrack-single-stim	116	363613	0.0-9.7-0.7	beast_fmri_test	338	363453,/	t	<div class = centerbox2><div class = fixation>+</div></div>	none	500.0	test	n/a	n/a	n/a	n/a	n/a	n/a	n/a	n/a	n/a	n/a	n/a	n/a	n/a	n/a	n/a	n/a	n/a	n/a	fixation
266861.39517565927	2750	n/a	1012	71	2750	419.604824341	stim	stop-signal	117	366365	0.0-9.7-1.7	beast_fmri_test	338	364135,/,364810,/,365491,/,366171,/	t,t,t,t	<img class = center src='/static/experiments/beast_fmri_test/images/P.png'></img>	71,89	2750.0	test	<img class = center src='/static/experiments/beast_fmri_test/images/redP.png'></img>	go	2350.0	2.0	7.0	go	target	P	71,Index Finger	89,Middle Finger	400.0	400.0	2350.0	2350.0	1.0	n/a	400.0	1.0	go_stim
269611.39517565927	419.60482434070161	n/a	1012	71	2750	419.604824341	stim	stop-signal	117	366365	0.0-9.7-1.7	beast_fmri_test	338	364135,/,364810,/,365491,/,366171,/	t,t,t,t	<img class = center src='/static/experiments/beast_fmri_test/images/P.png'></img>	71,89	2750.0	test	<img class = center src='/static/experiments/beast_fmri_test/images/redP.png'></img>	go	2350.0	2.0	7.0	go	target	P	71,Index Finger	89,Middle Finger	400.0	400.0	2350.0	2350.0	1.0	n/a	400.0	1.0	ITI
270968	500	n/a	-1	-1	500	0.0	fixation	poldrack-single-stim	118	367302	0.0-9.8-0.8	beast_fmri_test	338	366849,/	t	<div class = centerbox2><div class = fixation>+</div></div>	none	500.0	test	n/a	n/a	n/a	n/a	n/a	n/a	n/a	n/a	n/a	n/a	n/a	n/a	n/a	n/a	n/a	n/a	n/a	n/a	fixation
270111.64373916108	400.0	n/a	591	71	2750	859.356260839	stim	stop-signal	119	370055	0.0-9.8-1.8	beast_fmri_test	338	367530,/,368209,/,368888,/,369568,/,370248,/	t,t,t,t,t	<img class = center src='/static/experiments/beast_fmri_test/images/V.png'></img>	71,89	2750.0	test	<img class = center src='/static/experiments/beast_fmri_test/images/redV.png'></img>	stop	2350.0	2.0	8.0	stop	target	V	71,Index Finger	89,Middle Finger	400.0	400.0	2350.0	2350.0	0.0	0.0	400.0	n/a	go_stim
272461.64373916108	2350.0	n/a	591	71	2750	859.356260839	stim	stop-signal	119	370055	0.0-9.8-1.8	beast_fmri_test	338	367530,/,368209,/,368888,/,369568,/,370248,/	t,t,t,t,t	<img class = center src='/static/experiments/beast_fmri_test/images/V.png'></img>	71,89	2750.0	test	<img class = center src='/static/experiments/beast_fmri_test/images/redV.png'></img>	stop	2350.0	2.0	8.0	stop	target	V	71,Index Finger	89,Middle Finger	400.0	400.0	2350.0	2350.0	0.0	0.0	400.0	n/a	stop_stim
272861.64373916108	859.35626083891907	n/a	591	71	2750	859.356260839	stim	stop-signal	119	370055	0.0-9.8-1.8	beast_fmri_test	338	367530,/,368209,/,368888,/,369568,/,370248,/	t,t,t,t,t	<img class = center src='/static/experiments/beast_fmri_test/images/V.png'></img>	71,89	2750.0	test	<img class = center src='/static/experiments/beast_fmri_test/images/redV.png'></img>	stop	2350.0	2.0	8.0	stop	target	V	71,Index Finger	89,Middle Finger	400.0	400.0	2350.0	2350.0	0.0	0.0	400.0	n/a	ITI
275100	500	n/a	-1	-1	500	0.0	fixation	poldrack-single-stim	120	371434	0.0-9.9-0.9	beast_fmri_test	338	370932,/	t	<div class = centerbox2><div class = fixation>+</div></div>	none	500.0	test	n/a	n/a	n/a	n/a	n/a	n/a	n/a	n/a	n/a	n/a	n/a	n/a	n/a	n/a	n/a	n/a	n/a	n/a	fixation
274669.551661406	2750	n/a	1154	71	2750	432.448338594	stim	stop-signal	121	374186	0.0-9.9-1.9	beast_fmri_test	338	371608,/,372288,/,372966,/,373647,/,374327,/	t,t,t,t,t	<img class = center src='/static/experiments/beast_fmri_test/images/P.png'></img>	71,89	2750.0	test	<img class = center src='/static/experiments/beast_fmri_test/images/redP.png'></img>	go	2400.0	2.0	9.0	go	target	P	71,Index Finger	89,Middle Finger	350.0	400.0	2400.0	2350.0	1.0	n/a	350.0	1.0	go_stim
277419.551661406	432.44833859401353	n/a	1154	71	2750	432.448338594	stim	stop-signal	121	374186	0.0-9.9-1.9	beast_fmri_test	338	371608,/,372288,/,372966,/,373647,/,374327,/	t,t,t,t,t	<img class = center src='/static/experiments/beast_fmri_test/images/P.png'></img>	71,89	2750.0	test	<img class = center src='/static/experiments/beast_fmri_test/images/redP.png'></img>	go	2400.0	2.0	9.0	go	target	P	71,Index Finger	89,Middle Finger	350.0	400.0	2400.0	2350.0	1.0	n/a	350.0	1.0	ITI
278801	500	n/a	-1	-1	500	0.0	fixation	poldrack-single-stim	122	375135	0.0-9.10-0.10	beast_fmri_test	338	375007,/	t	<div class = centerbox2><div class = fixation>+</div></div>	none	500.0	test	n/a	n/a	n/a	n/a	n/a	n/a	n/a	n/a	n/a	n/a	n/a	n/a	n/a	n/a	n/a	n/a	n/a	n/a	fixation
276210.21420923754	2750	n/a	691	89	2750	2591.78579076	stim	stop-signal	123	377886	0.0-9.10-1.10	beast_fmri_test	338	375685,/,376365,/,377045,/,377725,/,378405,/,379083,/,379764,/,380444,/	t,t,t,t,t,t,t,t	<img class = center src='/static/experiments/beast_fmri_test/images/B.png'></img>	71,89	2750.0	test	<img class = center src='/static/experiments/beast_fmri_test/images/redB.png'></img>	go	2350.0	2.0	10.0	go	non-target	B	71,Index Finger	89,Middle Finger	350.0	400.0	2400.0	2350.0	1.0	n/a	400.0	1.0	go_stim
278960.21420923754	2591.7857907624507	n/a	691	89	2750	2591.78579076	stim	stop-signal	123	377886	0.0-9.10-1.10	beast_fmri_test	338	375685,/,376365,/,377045,/,377725,/,378405,/,379083,/,379764,/,380444,/	t,t,t,t,t,t,t,t	<img class = center src='/static/experiments/beast_fmri_test/images/B.png'></img>	71,89	2750.0	test	<img class = center src='/static/experiments/beast_fmri_test/images/redB.png'></img>	go	2350.0	2.0	10.0	go	non-target	B	71,Index Finger	89,Middle Finger	350.0	400.0	2400.0	2350.0	1.0	n/a	400.0	1.0	ITI
284662	500	n/a	-1	-1	500	0.0	fixation	poldrack-single-stim	124	380996	0.0-9.11-0.11	beast_fmri_test	338	n/a	n/a	<div class = centerbox2><div class = fixation>+</div></div>	none	500.0	test	n/a	n/a	n/a	n/a	n/a	n/a	n/a	n/a	n/a	n/a	n/a	n/a	n/a	n/a	n/a	n/a	n/a	n/a	fixation
282977.9659483516	2750	n/a	632	89	2750	1686.03405165	stim	stop-signal	125	383748	0.0-9.11-1.11	beast_fmri_test	338	381124,/,381803,/,382483,/,383161,/,383841,/,384521,/,385201,/	t,t,t,t,t,t,t	<img class = center src='/static/experiments/beast_fmri_test/images/V.png'></img>	71,89	2750.0	test	<img class = center src='/static/experiments/beast_fmri_test/images/redV.png'></img>	go	2350.0	2.0	11.0	go	non-target	V	71,Index Finger	89,Middle Finger	350.0	400.0	2400.0	2350.0	1.0	n/a	400.0	1.0	go_stim
285727.9659483516	1686.0340516484146	n/a	632	89	2750	1686.03405165	stim	stop-signal	125	383748	0.0-9.11-1.11	beast_fmri_test	338	381124,/,381803,/,382483,/,383161,/,383841,/,384521,/,385201,/	t,t,t,t,t,t,t	<img class = center src='/static/experiments/beast_fmri_test/images/V.png'></img>	71,89	2750.0	test	<img class = center src='/static/experiments/beast_fmri_test/images/redV.png'></img>	go	2350.0	2.0	11.0	go	non-target	V	71,Index Finger	89,Middle Finger	350.0	400.0	2400.0	2350.0	1.0	n/a	400.0	1.0	ITI
289623	500	n/a	-1	-1	500	0.0	fixation	poldrack-single-stim	126	385957	0.0-9.12-0.12	beast_fmri_test	338	385880,/	t	<div class = centerbox2><div class = fixation>+</div></div>	none	500.0	test	n/a	n/a	n/a	n/a	n/a	n/a	n/a	n/a	n/a	n/a	n/a	n/a	n/a	n/a	n/a	n/a	n/a	n/a	fixation
289516.27455689368	400.0	n/a	767	89	2750	107.725443106	stim	stop-signal	127	388708	0.0-9.12-1.12	beast_fmri_test	338	386560,/,387240,/,387920,/,388600,/	t,t,t,t	<img class = center src='/static/experiments/beast_fmri_test/images/P.png'></img>	71,89	2750.0	test	<img class = center src='/static/experiments/beast_fmri_test/images/redP.png'></img>	stop	2350.0	2.0	12.0	stop	non-target	P	71,Index Finger	89,Middle Finger	350.0	400.0	2400.0	2350.0	0.0	0.0	400.0	n/a	go_stim
291866.27455689368	2350.0	n/a	767	89	2750	107.725443106	stim	stop-signal	127	388708	0.0-9.12-1.12	beast_fmri_test	338	386560,/,387240,/,387920,/,388600,/	t,t,t,t	<img class = center src='/static/experiments/beast_fmri_test/images/P.png'></img>	71,89	2750.0	test	<img class = center src='/static/experiments/beast_fmri_test/images/redP.png'></img>	stop	2350.0	2.0	12.0	stop	non-target	P	71,Index Finger	89,Middle Finger	350.0	400.0	2400.0	2350.0	0.0	0.0	400.0	n/a	stop_stim
292266.27455689368	107.72544310631928	n/a	767	89	2750	107.725443106	stim	stop-signal	127	388708	0.0-9.12-1.12	beast_fmri_test	338	386560,/,387240,/,387920,/,388600,/	t,t,t,t	<img class = center src='/static/experiments/beast_fmri_test/images/P.png'></img>	71,89	2750.0	test	<img class = center src='/static/experiments/beast_fmri_test/images/redP.png'></img>	stop	2350.0	2.0	12.0	stop	non-target	P	71,Index Finger	89,Middle Finger	350.0	400.0	2400.0	2350.0	0.0	0.0	400.0	n/a	ITI
293004	500	n/a	-1	-1	500	0.0	fixation	poldrack-single-stim	128	389338	0.0-9.13-0.13	beast_fmri_test	338	389281,/	t	<div class = centerbox2><div class = fixation>+</div></div>	none	500.0	test	n/a	n/a	n/a	n/a	n/a	n/a	n/a	n/a	n/a	n/a	n/a	n/a	n/a	n/a	n/a	n/a	n/a	n/a	fixation
292930.00773977663	2750	n/a	880	71	2750	75.9922602234	stim	stop-signal	129	392090	0.0-9.13-1.13	beast_fmri_test	338	389960,/,390639,/,391319,/,392004,/	t,t,t,t	<img class = center src='/static/experiments/beast_fmri_test/images/B.png'></img>	71,89	2750.0	test	<img class = center src='/static/experiments/beast_fmri_test/images/redB.png'></img>	go	2400.0	2.0	13.0	go	non-target	B	71,Index Finger	89,Middle Finger	350.0	350.0	2400.0	2400.0	0.0	n/a	350.0	0.0	go_stim
295680.00773977663	75.992260223368746	n/a	880	71	2750	75.9922602234	stim	stop-signal	129	392090	0.0-9.13-1.13	beast_fmri_test	338	389960,/,390639,/,391319,/,392004,/	t,t,t,t	<img class = center src='/static/experiments/beast_fmri_test/images/B.png'></img>	71,89	2750.0	test	<img class = center src='/static/experiments/beast_fmri_test/images/redB.png'></img>	go	2400.0	2.0	13.0	go	non-target	B	71,Index Finger	89,Middle Finger	350.0	350.0	2400.0	2400.0	0.0	n/a	350.0	0.0	ITI
296348	500	n/a	-1	-1	500	0.0	fixation	poldrack-single-stim	130	392682	0.0-9.14-0.14	beast_fmri_test	338	392677,/	t	<div class = centerbox2><div class = fixation>+</div></div>	none	500.0	test	n/a	n/a	n/a	n/a	n/a	n/a	n/a	n/a	n/a	n/a	n/a	n/a	n/a	n/a	n/a	n/a	n/a	n/a	fixation
296074.21373236517	350.0	n/a	-1	-1	2750	276.786267635	stim	stop-signal	131	395435	0.0-9.14-1.14	beast_fmri_test	338	393358,/,394036,/,394717,/,395397,/	t,t,t,t	<img class = center src='/static/experiments/beast_fmri_test/images/B.png'></img>	71,89	2750.0	test	<img class = center src='/static/experiments/beast_fmri_test/images/redB.png'></img>	stop	2400.0	2.0	14.0	stop	non-target	B	71,Index Finger	89,Middle Finger	350.0	350.0	2400.0	2400.0	0.0	1.0	350.0	n/a	go_stim
298474.21373236517	2400.0	n/a	-1	-1	2750	276.786267635	stim	stop-signal	131	395435	0.0-9.14-1.14	beast_fmri_test	338	393358,/,394036,/,394717,/,395397,/	t,t,t,t	<img class = center src='/static/experiments/beast_fmri_test/images/B.png'></img>	71,89	2750.0	test	<img class = center src='/static/experiments/beast_fmri_test/images/redB.png'></img>	stop	2400.0	2.0	14.0	stop	non-target	B	71,Index Finger	89,Middle Finger	350.0	350.0	2400.0	2400.0	0.0	1.0	350.0	n/a	stop_stim
298824.21373236517	276.78626763482384	n/a	-1	-1	2750	276.786267635	stim	stop-signal	131	395435	0.0-9.14-1.14	beast_fmri_test	338	393358,/,394036,/,394717,/,395397,/	t,t,t,t	<img class = center src='/static/experiments/beast_fmri_test/images/B.png'></img>	71,89	2750.0	test	<img class = center src='/static/experiments/beast_fmri_test/images/redB.png'></img>	stop	2400.0	2.0	14.0	stop	non-target	B	71,Index Finger	89,Middle Finger	350.0	350.0	2400.0	2400.0	0.0	1.0	350.0	n/a	ITI
299898	500	n/a	-1	-1	500	0.0	fixation	poldrack-single-stim	132	396232	0.0-9.15-0.15	beast_fmri_test	338	396077,/	t	<div class = centerbox2><div class = fixation>+</div></div>	none	500.0	test	n/a	n/a	n/a	n/a	n/a	n/a	n/a	n/a	n/a	n/a	n/a	n/a	n/a	n/a	n/a	n/a	n/a	n/a	fixation
298583.38224011776	400.0	n/a	789	89	2750	1316.61775988	stim	stop-signal	133	398984	0.0-9.15-1.15	beast_fmri_test	338	396755,/,397436,/,398116,/,398795,/,399474,/,400154,/	t,t,t,t,t,t	<img class = center src='/static/experiments/beast_fmri_test/images/D.png'></img>	71,89	2750.0	test	<img class = center src='/static/experiments/beast_fmri_test/images/redD.png'></img>	stop	2350.0	2.0	15.0	stop	non-target	D	71,Index Finger	89,Middle Finger	350.0	400.0	2400.0	2350.0	0.0	0.0	400.0	n/a	go_stim
300933.38224011776	2350.0	n/a	789	89	2750	1316.61775988	stim	stop-signal	133	398984	0.0-9.15-1.15	beast_fmri_test	338	396755,/,397436,/,398116,/,398795,/,399474,/,400154,/	t,t,t,t,t,t	<img class = center src='/static/experiments/beast_fmri_test/images/D.png'></img>	71,89	2750.0	test	<img class = center src='/static/experiments/beast_fmri_test/images/redD.png'></img>	stop	2350.0	2.0	15.0	stop	non-target	D	71,Index Finger	89,Middle Finger	350.0	400.0	2400.0	2350.0	0.0	0.0	400.0	n/a	stop_stim
301333.38224011776	1316.6177598822565	n/a	789	89	2750	1316.61775988	stim	stop-signal	133	398984	0.0-9.15-1.15	beast_fmri_test	338	396755,/,397436,/,398116,/,398795,/,399474,/,400154,/	t,t,t,t,t,t	<img class = center src='/static/experiments/beast_fmri_test/images/D.png'></img>	71,89	2750.0	test	<img class = center src='/static/experiments/beast_fmri_test/images/redD.png'></img>	stop	2350.0	2.0	15.0	stop	non-target	D	71,Index Finger	89,Middle Finger	350.0	400.0	2400.0	2350.0	0.0	0.0	400.0	n/a	ITI
304488	500	n/a	-1	-1	500	0.0	fixation	poldrack-single-stim	134	400822	0.0-9.16-0.16	beast_fmri_test	338	n/a	n/a	<div class = centerbox2><div class = fixation>+</div></div>	none	500.0	test	n/a	n/a	n/a	n/a	n/a	n/a	n/a	n/a	n/a	n/a	n/a	n/a	n/a	n/a	n/a	n/a	n/a	n/a	fixation
303795.79631590017	2750	n/a	901	89	2750	693.2036841	stim	stop-signal	135	403573	0.0-9.16-1.16	beast_fmri_test	338	400836,/,401514,/,402194,/,402873,/,403553,/,404232,/	t,t,t,t,t,t	<img class = center src='/static/experiments/beast_fmri_test/images/P.png'></img>	71,89	2750.0	test	<img class = center src='/static/experiments/beast_fmri_test/images/redP.png'></img>	go	2400.0	2.0	16.0	go	non-target	P	71,Index Finger	89,Middle Finger	350.0	350.0	2400.0	2400.0	1.0	n/a	350.0	1.0	go_stim
306545.79631590017	693.20368409985838	n/a	901	89	2750	693.2036841	stim	stop-signal	135	403573	0.0-9.16-1.16	beast_fmri_test	338	400836,/,401514,/,402194,/,402873,/,403553,/,404232,/	t,t,t,t,t,t	<img class = center src='/static/experiments/beast_fmri_test/images/P.png'></img>	71,89	2750.0	test	<img class = center src='/static/experiments/beast_fmri_test/images/redP.png'></img>	go	2400.0	2.0	16.0	go	non-target	P	71,Index Finger	89,Middle Finger	350.0	350.0	2400.0	2400.0	1.0	n/a	350.0	1.0	ITI
308451	500	n/a	-1	-1	500	0.0	fixation	poldrack-single-stim	136	404785	0.0-9.17-0.17	beast_fmri_test	338	n/a	n/a	<div class = centerbox2><div class = fixation>+</div></div>	none	500.0	test	n/a	n/a	n/a	n/a	n/a	n/a	n/a	n/a	n/a	n/a	n/a	n/a	n/a	n/a	n/a	n/a	n/a	n/a	fixation
308087.9565024061	2750	n/a	753	71	2750	365.043497594	stim	stop-signal	137	407537	0.0-9.17-1.17	beast_fmri_test	338	404913,/,405592,/,406273,/,406952,/,407631,/	t,t,t,t,t	<img class = center src='/static/experiments/beast_fmri_test/images/D.png'></img>	71,89	2750.0	test	<img class = center src='/static/experiments/beast_fmri_test/images/redD.png'></img>	go	2400.0	2.0	17.0	go	target	D	71,Index Finger	89,Middle Finger	350.0	350.0	2400.0	2400.0	1.0	n/a	350.0	1.0	go_stim
310837.9565024061	365.04349759387804	n/a	753	71	2750	365.043497594	stim	stop-signal	137	407537	0.0-9.17-1.17	beast_fmri_test	338	404913,/,405592,/,406273,/,406952,/,407631,/	t,t,t,t,t	<img class = center src='/static/experiments/beast_fmri_test/images/D.png'></img>	71,89	2750.0	test	<img class = center src='/static/experiments/beast_fmri_test/images/redD.png'></img>	go	2400.0	2.0	17.0	go	target	D	71,Index Finger	89,Middle Finger	350.0	350.0	2400.0	2400.0	1.0	n/a	350.0	1.0	ITI
312089	500	n/a	-1	-1	500	0.0	fixation	poldrack-single-stim	138	408423	0.0-9.18-0.18	beast_fmri_test	338	408312,/	t	<div class = centerbox2><div class = fixation>+</div></div>	none	500.0	test	n/a	n/a	n/a	n/a	n/a	n/a	n/a	n/a	n/a	n/a	n/a	n/a	n/a	n/a	n/a	n/a	n/a	n/a	fixation
311315.70069042238	2750	n/a	1625	89	2750	775.299309578	stim	stop-signal	139	411175	0.0-9.18-1.18	beast_fmri_test	338	409001,/,409670,/,410350,/,411030,/,411708,/	t,t,t,t,t	<img class = center src='/static/experiments/beast_fmri_test/images/D.png'></img>	71,89	2750.0	test	<img class = center src='/static/experiments/beast_fmri_test/images/redD.png'></img>	go	2400.0	2.0	18.0	go	non-target	D	71,Index Finger	89,Middle Finger	350.0	350.0	2400.0	2400.0	1.0	n/a	350.0	1.0	go_stim
314065.70069042238	775.29930957763827	n/a	1625	89	2750	775.299309578	stim	stop-signal	139	411175	0.0-9.18-1.18	beast_fmri_test	338	409001,/,409670,/,410350,/,411030,/,411708,/	t,t,t,t,t	<img class = center src='/static/experiments/beast_fmri_test/images/D.png'></img>	71,89	2750.0	test	<img class = center src='/static/experiments/beast_fmri_test/images/redD.png'></img>	go	2400.0	2.0	18.0	go	non-target	D	71,Index Finger	89,Middle Finger	350.0	350.0	2400.0	2400.0	1.0	n/a	350.0	1.0	ITI
316137	500	n/a	-1	-1	500	0.0	fixation	poldrack-single-stim	140	412471	0.0-9.19-0.19	beast_fmri_test	338	412389,/	t	<div class = centerbox2><div class = fixation>+</div></div>	none	500.0	test	n/a	n/a	n/a	n/a	n/a	n/a	n/a	n/a	n/a	n/a	n/a	n/a	n/a	n/a	n/a	n/a	n/a	n/a	fixation
312295.28775727056	350.0	n/a	-1	-1	2750	3843.71224273	stim	stop-signal	141	415223	0.0-9.19-1.19	beast_fmri_test	338	413069,/,413748,/,414429,/,415108,/,415788,/,416468,/,417147,/,417827,/,418507,/	t,t,t,t,t,t,t,t,t	<img class = center src='/static/experiments/beast_fmri_test/images/D.png'></img>	71,89	2750.0	test	<img class = center src='/static/experiments/beast_fmri_test/images/redD.png'></img>	stop	2400.0	2.0	19.0	stop	target	D	71,Index Finger	89,Middle Finger	350.0	350.0	2400.0	2400.0	0.0	1.0	350.0	n/a	go_stim
314695.28775727056	2400.0	n/a	-1	-1	2750	3843.71224273	stim	stop-signal	141	415223	0.0-9.19-1.19	beast_fmri_test	338	413069,/,413748,/,414429,/,415108,/,415788,/,416468,/,417147,/,417827,/,418507,/	t,t,t,t,t,t,t,t,t	<img class = center src='/static/experiments/beast_fmri_test/images/D.png'></img>	71,89	2750.0	test	<img class = center src='/static/experiments/beast_fmri_test/images/redD.png'></img>	stop	2400.0	2.0	19.0	stop	target	D	71,Index Finger	89,Middle Finger	350.0	350.0	2400.0	2400.0	0.0	1.0	350.0	n/a	stop_stim
315045.28775727056	3843.7122427294171	n/a	-1	-1	2750	3843.71224273	stim	stop-signal	141	415223	0.0-9.19-1.19	beast_fmri_test	338	413069,/,413748,/,414429,/,415108,/,415788,/,416468,/,417147,/,417827,/,418507,/	t,t,t,t,t,t,t,t,t	<img class = center src='/static/experiments/beast_fmri_test/images/D.png'></img>	71,89	2750.0	test	<img class = center src='/static/experiments/beast_fmri_test/images/redD.png'></img>	stop	2400.0	2.0	19.0	stop	target	D	71,Index Finger	89,Middle Finger	350.0	350.0	2400.0	2400.0	0.0	1.0	350.0	n/a	ITI
323252	500	n/a	-1	-1	500	0.0	fixation	poldrack-single-stim	142	419586	0.0-9.20-0.20	beast_fmri_test	338	419187,/	t	<div class = centerbox2><div class = fixation>+</div></div>	none	500.0	test	n/a	n/a	n/a	n/a	n/a	n/a	n/a	n/a	n/a	n/a	n/a	n/a	n/a	n/a	n/a	n/a	n/a	n/a	fixation
323061.13461114431	2750	n/a	621	89	2750	191.865388856	stim	stop-signal	143	422337	0.0-9.20-1.20	beast_fmri_test	338	419865,/,420546,/,421226,/,421906,/	t,t,t,t	<img class = center src='/static/experiments/beast_fmri_test/images/T.png'></img>	71,89	2750.0	test	<img class = center src='/static/experiments/beast_fmri_test/images/redT.png'></img>	go	2400.0	2.0	20.0	go	non-target	T	71,Index Finger	89,Middle Finger	400.0	350.0	2400.0	2400.0	1.0	n/a	350.0	1.0	go_stim
325811.13461114431	191.86538885570729	n/a	621	89	2750	191.865388856	stim	stop-signal	143	422337	0.0-9.20-1.20	beast_fmri_test	338	419865,/,420546,/,421226,/,421906,/	t,t,t,t	<img class = center src='/static/experiments/beast_fmri_test/images/T.png'></img>	71,89	2750.0	test	<img class = center src='/static/experiments/beast_fmri_test/images/redT.png'></img>	go	2400.0	2.0	20.0	go	non-target	T	71,Index Finger	89,Middle Finger	400.0	350.0	2400.0	2400.0	1.0	n/a	350.0	1.0	ITI
326716	500	n/a	-1	-1	500	0.0	fixation	poldrack-single-stim	144	423050	0.0-9.21-0.21	beast_fmri_test	338	422585,/	t	<div class = centerbox2><div class = fixation>+</div></div>	none	500.0	test	n/a	n/a	n/a	n/a	n/a	n/a	n/a	n/a	n/a	n/a	n/a	n/a	n/a	n/a	n/a	n/a	n/a	n/a	fixation
324833.02079897182	2750	n/a	1133	89	2750	1884.97920103	stim	stop-signal	145	425802	0.0-9.21-1.21	beast_fmri_test	338	423265,/,423944,/,424623,/,425303,/,425988,/,426663,/,427342,/	t,t,t,t,t,t,t	<img class = center src='/static/experiments/beast_fmri_test/images/T.png'></img>	71,89	2750.0	test	<img class = center src='/static/experiments/beast_fmri_test/images/redT.png'></img>	go	2400.0	2.0	21.0	go	non-target	T	71,Index Finger	89,Middle Finger	400.0	350.0	2400.0	2400.0	1.0	n/a	350.0	1.0	go_stim
327583.02079897182	1884.979201028164	n/a	1133	89	2750	1884.97920103	stim	stop-signal	145	425802	0.0-9.21-1.21	beast_fmri_test	338	423265,/,423944,/,424623,/,425303,/,425988,/,426663,/,427342,/	t,t,t,t,t,t,t	<img class = center src='/static/experiments/beast_fmri_test/images/T.png'></img>	71,89	2750.0	test	<img class = center src='/static/experiments/beast_fmri_test/images/redT.png'></img>	go	2400.0	2.0	21.0	go	non-target	T	71,Index Finger	89,Middle Finger	400.0	350.0	2400.0	2400.0	1.0	n/a	350.0	1.0	ITI
331870	500	n/a	-1	-1	500	0.0	fixation	poldrack-single-stim	146	428204	0.0-9.22-0.22	beast_fmri_test	338	428023,/	t	<div class = centerbox2><div class = fixation>+</div></div>	none	500.0	test	n/a	n/a	n/a	n/a	n/a	n/a	n/a	n/a	n/a	n/a	n/a	n/a	n/a	n/a	n/a	n/a	n/a	n/a	fixation
331066.47679574881	2750	n/a	1171	89	2750	806.523204251	stim	stop-signal	147	430957	0.0-9.22-1.22	beast_fmri_test	338	428702,/,429380,/,430060,/,430740,/,431421,/	t,t,t,t,t	<img class = center src='/static/experiments/beast_fmri_test/images/T.png'></img>	71,89	2750.0	test	<img class = center src='/static/experiments/beast_fmri_test/images/redT.png'></img>	go	2350.0	2.0	22.0	go	target	T	71,Index Finger	89,Middle Finger	400.0	350.0	2350.0	2400.0	0.0	n/a	400.0	0.0	go_stim
333816.47679574881	806.52320425121479	n/a	1171	89	2750	806.523204251	stim	stop-signal	147	430957	0.0-9.22-1.22	beast_fmri_test	338	428702,/,429380,/,430060,/,430740,/,431421,/	t,t,t,t,t	<img class = center src='/static/experiments/beast_fmri_test/images/T.png'></img>	71,89	2750.0	test	<img class = center src='/static/experiments/beast_fmri_test/images/redT.png'></img>	go	2350.0	2.0	22.0	go	target	T	71,Index Finger	89,Middle Finger	400.0	350.0	2350.0	2400.0	0.0	n/a	400.0	0.0	ITI
