onset	duration	text	rt	key_press	block_duration	timing_post_trial	trial_id	trial_type	trial_index	time_elapsed	internal_node_id	exp_id	subject_id	trigger_times	triggers	stimulus	possible_responses	stim_duration	exp_stage	SS_stimulus	SS_trial_type	SS_duration	load	trial_num	stop_trial_type	adaptive_trial_type	stim	yes_response_key	no_response_key	SSD_target	SSD_non_target	SSTarget	SSNonTarget	go_acc	SS_delay	stop_acc	adaptive_acc	new_trial_type
test	10880	n/a	-1	-1	10880	0.0	practice-no-stop-feedback	poldrack-single-stim	198	707774	0.0-12.0	beast_fmri_test	390	696889,/,697568,/,698248,/,698928,/,699608,/,700289,/,700970,/,701649,/,702330,/,703008,/,703690,/,704370,/,705051,/,705731,/,706410,/,707091,/,707772,/	t,t,t,t,t,t,t,t,t,t,t,t,t,t,t,t,t	"<div class = ""centerbox2_2""><p class = ""block-text2"">Your delay is 2 trials.</p><p class = block-text2>Please wait for the scanner to start the block</p></div>"	77	10880.0	n/a	n/a	n/a	n/a	n/a	n/a	n/a	n/a	n/a	n/a	n/a	n/a	n/a	n/a	n/a	n/a	n/a	n/a	n/a	start_functional_block
11389	500	n/a	-1	-1	500	0.0	fixation	poldrack-single-stim	199	708278	0.0-13.0-0.0	beast_fmri_test	390	n/a	n/a	<div class = centerbox2><div class = fixation>+</div></div>	none	500.0	test	n/a	n/a	n/a	n/a	n/a	n/a	n/a	n/a	n/a	n/a	n/a	n/a	n/a	n/a	n/a	n/a	n/a	n/a	fixation
10439.666830147849	temp_go_duration	n/a	1232	89	2750	953.333169852	stim	stop-signal	200	711032	0.0-13.0-1.0	beast_fmri_test	390	708452,/,709132,/,709813,/,710493,/,711172,/,711853,/	t,t,t,t,t,t	<img class = center src='/static/experiments/beast_fmri_test/images/T.png'></img>	71,89	2750.0	test	<img class = center src='/static/experiments/beast_fmri_test/images/redT.png'></img>	stop	-1.0	2.0	0.0	stop	temp-non-target	T	71,Index Finger	89,Middle Finger	600.0	600.0	2150.0	2100.0	0.0	n/a	0.0	n/a	go_stim
temp-non-target	temp_stop_duration	n/a	1232	89	2750	953.333169852	stim	stop-signal	200	711032	0.0-13.0-1.0	beast_fmri_test	390	708452,/,709132,/,709813,/,710493,/,711172,/,711853,/	t,t,t,t,t,t	<img class = center src='/static/experiments/beast_fmri_test/images/T.png'></img>	71,89	2750.0	test	<img class = center src='/static/experiments/beast_fmri_test/images/redT.png'></img>	stop	-1.0	2.0	0.0	stop	temp-non-target	T	71,Index Finger	89,Middle Finger	600.0	600.0	2150.0	2100.0	0.0	n/a	0.0	n/a	stop_stim
13189.666830147849	953.33316985220165	n/a	1232	89	2750	953.333169852	stim	stop-signal	200	711032	0.0-13.0-1.0	beast_fmri_test	390	708452,/,709132,/,709813,/,710493,/,711172,/,711853,/	t,t,t,t,t,t	<img class = center src='/static/experiments/beast_fmri_test/images/T.png'></img>	71,89	2750.0	test	<img class = center src='/static/experiments/beast_fmri_test/images/redT.png'></img>	stop	-1.0	2.0	0.0	stop	temp-non-target	T	71,Index Finger	89,Middle Finger	600.0	600.0	2150.0	2100.0	0.0	n/a	0.0	n/a	ITI
15624	500	n/a	-1	-1	500	0.0	fixation	poldrack-single-stim	201	712513	0.0-13.1-0.1	beast_fmri_test	390	n/a	n/a	<div class = centerbox2><div class = fixation>+</div></div>	none	500.0	test	n/a	n/a	n/a	n/a	n/a	n/a	n/a	n/a	n/a	n/a	n/a	n/a	n/a	n/a	n/a	n/a	n/a	n/a	fixation
12638.015412548441	2750	n/a	1462	89	2750	2989.98458745	stim	stop-signal	202	715267	0.0-13.1-1.1	beast_fmri_test	390	712535,/,713215,/,713894,/,714574,/,715256,/,715937,/,716616,/,717296,/,717977,/	t,t,t,t,t,t,t,t,t	<img class = center src='/static/experiments/beast_fmri_test/images/T.png'></img>	71,89	2750.0	test	<img class = center src='/static/experiments/beast_fmri_test/images/redT.png'></img>	go	-1.0	2.0	1.0	go	temp-non-target	T	71,Index Finger	89,Middle Finger	600.0	600.0	2150.0	2100.0	0.0	n/a	n/a	n/a	go_stim
15388.015412548441	2989.9845874515527	n/a	1462	89	2750	2989.98458745	stim	stop-signal	202	715267	0.0-13.1-1.1	beast_fmri_test	390	712535,/,713215,/,713894,/,714574,/,715256,/,715937,/,716616,/,717296,/,717977,/	t,t,t,t,t,t,t,t,t	<img class = center src='/static/experiments/beast_fmri_test/images/T.png'></img>	71,89	2750.0	test	<img class = center src='/static/experiments/beast_fmri_test/images/redT.png'></img>	go	-1.0	2.0	1.0	go	temp-non-target	T	71,Index Finger	89,Middle Finger	600.0	600.0	2150.0	2100.0	0.0	n/a	n/a	n/a	ITI
21895	500	n/a	-1	-1	500	0.0	fixation	poldrack-single-stim	203	718784	0.0-13.2-0.2	beast_fmri_test	390	718658,/	t	<div class = centerbox2><div class = fixation>+</div></div>	none	500.0	test	n/a	n/a	n/a	n/a	n/a	n/a	n/a	n/a	n/a	n/a	n/a	n/a	n/a	n/a	n/a	n/a	n/a	n/a	fixation
20795.940618383931	2750	n/a	811	89	2750	1104.05938162	stim	stop-signal	204	721539	0.0-13.2-1.2	beast_fmri_test	390	719338,/,720018,/,720698,/,721378,/,722058,/	t,t,t,t,t	<img class = center src='/static/experiments/beast_fmri_test/images/V.png'></img>	71,89	2750.0	test	<img class = center src='/static/experiments/beast_fmri_test/images/redV.png'></img>	go	2150.0	2.0	2.0	go	non-target	V	71,Index Finger	89,Middle Finger	600.0	600.0	2150.0	2150.0	1.0	600.0	n/a	1.0	go_stim
23545.940618383931	1104.0593816160424	n/a	811	89	2750	1104.05938162	stim	stop-signal	204	721539	0.0-13.2-1.2	beast_fmri_test	390	719338,/,720018,/,720698,/,721378,/,722058,/	t,t,t,t,t	<img class = center src='/static/experiments/beast_fmri_test/images/V.png'></img>	71,89	2750.0	test	<img class = center src='/static/experiments/beast_fmri_test/images/redV.png'></img>	go	2150.0	2.0	2.0	go	non-target	V	71,Index Finger	89,Middle Finger	600.0	600.0	2150.0	2150.0	1.0	600.0	n/a	1.0	ITI
26282	500	n/a	-1	-1	500	0.0	fixation	poldrack-single-stim	205	723171	0.0-13.3-0.3	beast_fmri_test	390	722739,/	t	<div class = centerbox2><div class = fixation>+</div></div>	none	500.0	test	n/a	n/a	n/a	n/a	n/a	n/a	n/a	n/a	n/a	n/a	n/a	n/a	n/a	n/a	n/a	n/a	n/a	n/a	fixation
25920.174571827287	2750	n/a	655	89	2750	365.825428173	stim	stop-signal	206	725925	0.0-13.3-1.3	beast_fmri_test	390	723419,/,724099,/,724780,/,725460,/,726140,/	t,t,t,t,t	<img class = center src='/static/experiments/beast_fmri_test/images/D.png'></img>	71,89	2750.0	test	<img class = center src='/static/experiments/beast_fmri_test/images/redD.png'></img>	go	2150.0	2.0	3.0	go	non-target	D	71,Index Finger	89,Middle Finger	600.0	600.0	2150.0	2150.0	1.0	600.0	n/a	1.0	go_stim
28670.174571827287	365.82542817275146	n/a	655	89	2750	365.825428173	stim	stop-signal	206	725925	0.0-13.3-1.3	beast_fmri_test	390	723419,/,724099,/,724780,/,725460,/,726140,/	t,t,t,t,t	<img class = center src='/static/experiments/beast_fmri_test/images/D.png'></img>	71,89	2750.0	test	<img class = center src='/static/experiments/beast_fmri_test/images/redD.png'></img>	go	2150.0	2.0	3.0	go	non-target	D	71,Index Finger	89,Middle Finger	600.0	600.0	2150.0	2150.0	1.0	600.0	n/a	1.0	ITI
29929	500	n/a	-1	-1	500	0.0	fixation	poldrack-single-stim	207	726818	0.0-13.4-0.4	beast_fmri_test	390	n/a	n/a	<div class = centerbox2><div class = fixation>+</div></div>	none	500.0	test	n/a	n/a	n/a	n/a	n/a	n/a	n/a	n/a	n/a	n/a	n/a	n/a	n/a	n/a	n/a	n/a	n/a	n/a	fixation
26968.236028593266	2750	n/a	1901	71	2750	2964.76397141	stim	stop-signal	208	729572	0.0-13.4-1.4	beast_fmri_test	390	726820,/,727501,/,728181,/,728861,/,729542,/,730220,/,730901,/,731581,/,732262,/	t,t,t,t,t,t,t,t,t	<img class = center src='/static/experiments/beast_fmri_test/images/V.png'></img>	71,89	2750.0	test	<img class = center src='/static/experiments/beast_fmri_test/images/redV.png'></img>	go	2150.0	2.0	4.0	go	target	V	71,Index Finger	89,Middle Finger	600.0	600.0	2150.0	2150.0	1.0	600.0	n/a	1.0	go_stim
29718.236028593266	2964.7639714066991	n/a	1901	71	2750	2964.76397141	stim	stop-signal	208	729572	0.0-13.4-1.4	beast_fmri_test	390	726820,/,727501,/,728181,/,728861,/,729542,/,730220,/,730901,/,731581,/,732262,/	t,t,t,t,t,t,t,t,t	<img class = center src='/static/experiments/beast_fmri_test/images/V.png'></img>	71,89	2750.0	test	<img class = center src='/static/experiments/beast_fmri_test/images/redV.png'></img>	go	2150.0	2.0	4.0	go	target	V	71,Index Finger	89,Middle Finger	600.0	600.0	2150.0	2150.0	1.0	600.0	n/a	1.0	ITI
36178	500	n/a	-1	-1	500	0.0	fixation	poldrack-single-stim	209	733067	0.0-13.5-0.5	beast_fmri_test	390	732943,/	t	<div class = centerbox2><div class = fixation>+</div></div>	none	500.0	test	n/a	n/a	n/a	n/a	n/a	n/a	n/a	n/a	n/a	n/a	n/a	n/a	n/a	n/a	n/a	n/a	n/a	n/a	fixation
35967.412575136754	2750	n/a	510	71	2750	213.587424863	stim	stop-signal	210	735820	0.0-13.5-1.5	beast_fmri_test	390	733623,/,734303,/,734984,/,735664,/	t,t,t,t	<img class = center src='/static/experiments/beast_fmri_test/images/D.png'></img>	71,89	2750.0	test	<img class = center src='/static/experiments/beast_fmri_test/images/redD.png'></img>	go	2150.0	2.0	5.0	go	target	D	71,Index Finger	89,Middle Finger	600.0	600.0	2150.0	2150.0	1.0	600.0	n/a	1.0	go_stim
38717.412575136754	213.5874248632544	n/a	510	71	2750	213.587424863	stim	stop-signal	210	735820	0.0-13.5-1.5	beast_fmri_test	390	733623,/,734303,/,734984,/,735664,/	t,t,t,t	<img class = center src='/static/experiments/beast_fmri_test/images/D.png'></img>	71,89	2750.0	test	<img class = center src='/static/experiments/beast_fmri_test/images/redD.png'></img>	go	2150.0	2.0	5.0	go	target	D	71,Index Finger	89,Middle Finger	600.0	600.0	2150.0	2150.0	1.0	600.0	n/a	1.0	ITI
39671	500	n/a	-1	-1	500	0.0	fixation	poldrack-single-stim	211	736560	0.0-13.6-0.6	beast_fmri_test	390	736344,/	t	<div class = centerbox2><div class = fixation>+</div></div>	none	500.0	test	n/a	n/a	n/a	n/a	n/a	n/a	n/a	n/a	n/a	n/a	n/a	n/a	n/a	n/a	n/a	n/a	n/a	n/a	fixation
38882.11050873925	2750	n/a	480	71	2750	792.889491261	stim	stop-signal	212	739314	0.0-13.6-1.6	beast_fmri_test	390	737025,/,737703,/,738384,/,739066,/,739746,/	t,t,t,t,t	<img class = center src='/static/experiments/beast_fmri_test/images/V.png'></img>	71,89	2750.0	test	<img class = center src='/static/experiments/beast_fmri_test/images/redV.png'></img>	go	2150.0	2.0	6.0	go	target	V	71,Index Finger	89,Middle Finger	600.0	600.0	2150.0	2150.0	1.0	600.0	n/a	1.0	go_stim
41632.11050873925	792.8894912607135	n/a	480	71	2750	792.889491261	stim	stop-signal	212	739314	0.0-13.6-1.6	beast_fmri_test	390	737025,/,737703,/,738384,/,739066,/,739746,/	t,t,t,t,t	<img class = center src='/static/experiments/beast_fmri_test/images/V.png'></img>	71,89	2750.0	test	<img class = center src='/static/experiments/beast_fmri_test/images/redV.png'></img>	go	2150.0	2.0	6.0	go	target	V	71,Index Finger	89,Middle Finger	600.0	600.0	2150.0	2150.0	1.0	600.0	n/a	1.0	ITI
43744	500	n/a	-1	-1	500	0.0	fixation	poldrack-single-stim	213	740633	0.0-13.7-0.7	beast_fmri_test	390	740426,/	t	<div class = centerbox2><div class = fixation>+</div></div>	none	500.0	test	n/a	n/a	n/a	n/a	n/a	n/a	n/a	n/a	n/a	n/a	n/a	n/a	n/a	n/a	n/a	n/a	n/a	n/a	fixation
43622.695498212473	600.0	n/a	-1	-1	2750	126.304501788	stim	stop-signal	214	743388	0.0-13.7-1.7	beast_fmri_test	390	741107,/,741788,/,742468,/,743149,/	t,t,t,t	<img class = center src='/static/experiments/beast_fmri_test/images/P.png'></img>	71,89	2750.0	test	<img class = center src='/static/experiments/beast_fmri_test/images/redP.png'></img>	stop	2150.0	2.0	7.0	stop	non-target	P	71,Index Finger	89,Middle Finger	600.0	600.0	2150.0	2150.0	0.0	600.0	1.0	n/a	go_stim
45772.695498212473	2150.0	n/a	-1	-1	2750	126.304501788	stim	stop-signal	214	743388	0.0-13.7-1.7	beast_fmri_test	390	741107,/,741788,/,742468,/,743149,/	t,t,t,t	<img class = center src='/static/experiments/beast_fmri_test/images/P.png'></img>	71,89	2750.0	test	<img class = center src='/static/experiments/beast_fmri_test/images/redP.png'></img>	stop	2150.0	2.0	7.0	stop	non-target	P	71,Index Finger	89,Middle Finger	600.0	600.0	2150.0	2150.0	0.0	600.0	1.0	n/a	stop_stim
46372.695498212473	126.30450178750904	n/a	-1	-1	2750	126.304501788	stim	stop-signal	214	743388	0.0-13.7-1.7	beast_fmri_test	390	741107,/,741788,/,742468,/,743149,/	t,t,t,t	<img class = center src='/static/experiments/beast_fmri_test/images/P.png'></img>	71,89	2750.0	test	<img class = center src='/static/experiments/beast_fmri_test/images/redP.png'></img>	stop	2150.0	2.0	7.0	stop	non-target	P	71,Index Finger	89,Middle Finger	600.0	600.0	2150.0	2150.0	0.0	600.0	1.0	n/a	ITI
47150	500	n/a	-1	-1	500	0.0	fixation	poldrack-single-stim	215	744039	0.0-13.8-0.8	beast_fmri_test	390	743829,/	t	<div class = centerbox2><div class = fixation>+</div></div>	none	500.0	test	n/a	n/a	n/a	n/a	n/a	n/a	n/a	n/a	n/a	n/a	n/a	n/a	n/a	n/a	n/a	n/a	n/a	n/a	fixation
46914.921827874612	2750	n/a	776	89	2750	240.078172125	stim	stop-signal	216	746794	0.0-13.8-1.8	beast_fmri_test	390	744509,/,745189,/,745868,/,746550,/	t,t,t,t	<img class = center src='/static/experiments/beast_fmri_test/images/P.png'></img>	71,89	2750.0	test	<img class = center src='/static/experiments/beast_fmri_test/images/redP.png'></img>	go	2100.0	2.0	8.0	go	non-target	P	71,Index Finger	89,Middle Finger	600.0	650.0	2150.0	2100.0	1.0	650.0	n/a	1.0	go_stim
49664.921827874612	240.07817212543344	n/a	776	89	2750	240.078172125	stim	stop-signal	216	746794	0.0-13.8-1.8	beast_fmri_test	390	744509,/,745189,/,745868,/,746550,/	t,t,t,t	<img class = center src='/static/experiments/beast_fmri_test/images/P.png'></img>	71,89	2750.0	test	<img class = center src='/static/experiments/beast_fmri_test/images/redP.png'></img>	go	2100.0	2.0	8.0	go	non-target	P	71,Index Finger	89,Middle Finger	600.0	650.0	2150.0	2100.0	1.0	650.0	n/a	1.0	ITI
50674	500	n/a	-1	-1	500	0.0	fixation	poldrack-single-stim	217	747563	0.0-13.9-0.9	beast_fmri_test	390	747230,/	t	<div class = centerbox2><div class = fixation>+</div></div>	none	500.0	test	n/a	n/a	n/a	n/a	n/a	n/a	n/a	n/a	n/a	n/a	n/a	n/a	n/a	n/a	n/a	n/a	n/a	n/a	fixation
50352.22421575652	650.0	n/a	-1	-1	2750	326.775784244	stim	stop-signal	218	750318	0.0-13.9-1.9	beast_fmri_test	390	747911,/,748591,/,749271,/,749951,/,750631,/	t,t,t,t,t	<img class = center src='/static/experiments/beast_fmri_test/images/T.png'></img>	71,89	2750.0	test	<img class = center src='/static/experiments/beast_fmri_test/images/redT.png'></img>	stop	2100.0	2.0	9.0	stop	non-target	T	71,Index Finger	89,Middle Finger	600.0	650.0	2150.0	2100.0	0.0	650.0	1.0	n/a	go_stim
52452.22421575652	2100.0	n/a	-1	-1	2750	326.775784244	stim	stop-signal	218	750318	0.0-13.9-1.9	beast_fmri_test	390	747911,/,748591,/,749271,/,749951,/,750631,/	t,t,t,t,t	<img class = center src='/static/experiments/beast_fmri_test/images/T.png'></img>	71,89	2750.0	test	<img class = center src='/static/experiments/beast_fmri_test/images/redT.png'></img>	stop	2100.0	2.0	9.0	stop	non-target	T	71,Index Finger	89,Middle Finger	600.0	650.0	2150.0	2100.0	0.0	650.0	1.0	n/a	stop_stim
53102.22421575652	326.77578424352248	n/a	-1	-1	2750	326.775784244	stim	stop-signal	218	750318	0.0-13.9-1.9	beast_fmri_test	390	747911,/,748591,/,749271,/,749951,/,750631,/	t,t,t,t,t	<img class = center src='/static/experiments/beast_fmri_test/images/T.png'></img>	71,89	2750.0	test	<img class = center src='/static/experiments/beast_fmri_test/images/redT.png'></img>	stop	2100.0	2.0	9.0	stop	non-target	T	71,Index Finger	89,Middle Finger	600.0	650.0	2150.0	2100.0	0.0	650.0	1.0	n/a	ITI
54281	500	n/a	-1	-1	500	0.0	fixation	poldrack-single-stim	219	751170	0.0-13.10-0.10	beast_fmri_test	390	n/a	n/a	<div class = centerbox2><div class = fixation>+</div></div>	none	500.0	test	n/a	n/a	n/a	n/a	n/a	n/a	n/a	n/a	n/a	n/a	n/a	n/a	n/a	n/a	n/a	n/a	n/a	n/a	fixation
53733.284374463023	2750	n/a	916	89	2750	551.715625537	stim	stop-signal	220	753924	0.0-13.10-1.10	beast_fmri_test	390	751312,/,751991,/,752672,/,753353,/,754033,/	t,t,t,t,t	<img class = center src='/static/experiments/beast_fmri_test/images/B.png'></img>	71,89	2750.0	test	<img class = center src='/static/experiments/beast_fmri_test/images/redB.png'></img>	go	2050.0	2.0	10.0	go	non-target	B	71,Index Finger	89,Middle Finger	600.0	700.0	2150.0	2050.0	1.0	700.0	n/a	1.0	go_stim
56483.284374463023	551.71562553702051	n/a	916	89	2750	551.715625537	stim	stop-signal	220	753924	0.0-13.10-1.10	beast_fmri_test	390	751312,/,751991,/,752672,/,753353,/,754033,/	t,t,t,t,t	<img class = center src='/static/experiments/beast_fmri_test/images/B.png'></img>	71,89	2750.0	test	<img class = center src='/static/experiments/beast_fmri_test/images/redB.png'></img>	go	2050.0	2.0	10.0	go	non-target	B	71,Index Finger	89,Middle Finger	600.0	700.0	2150.0	2050.0	1.0	700.0	n/a	1.0	ITI
58114	500	n/a	-1	-1	500	0.0	fixation	poldrack-single-stim	221	755003	0.0-13.11-0.11	beast_fmri_test	390	754713,/	t	<div class = centerbox2><div class = fixation>+</div></div>	none	500.0	test	n/a	n/a	n/a	n/a	n/a	n/a	n/a	n/a	n/a	n/a	n/a	n/a	n/a	n/a	n/a	n/a	n/a	n/a	fixation
56886.525587031734	2750	n/a	1460	89	2750	1232.47441297	stim	stop-signal	222	757758	0.0-13.11-1.11	beast_fmri_test	390	755394,/,756074,/,756754,/,757434,/,758115,/,758795,/	t,t,t,t,t,t	<img class = center src='/static/experiments/beast_fmri_test/images/P.png'></img>	71,89	2750.0	test	<img class = center src='/static/experiments/beast_fmri_test/images/redP.png'></img>	go	2050.0	2.0	11.0	go	non-target	P	71,Index Finger	89,Middle Finger	600.0	700.0	2150.0	2050.0	1.0	700.0	n/a	1.0	go_stim
59636.525587031734	1232.4744129682199	n/a	1460	89	2750	1232.47441297	stim	stop-signal	222	757758	0.0-13.11-1.11	beast_fmri_test	390	755394,/,756074,/,756754,/,757434,/,758115,/,758795,/	t,t,t,t,t,t	<img class = center src='/static/experiments/beast_fmri_test/images/P.png'></img>	71,89	2750.0	test	<img class = center src='/static/experiments/beast_fmri_test/images/redP.png'></img>	go	2050.0	2.0	11.0	go	non-target	P	71,Index Finger	89,Middle Finger	600.0	700.0	2150.0	2050.0	1.0	700.0	n/a	1.0	ITI
62632	500	n/a	-1	-1	500	0.0	fixation	poldrack-single-stim	223	759521	0.0-13.12-0.12	beast_fmri_test	390	759475,/	t	<div class = centerbox2><div class = fixation>+</div></div>	none	500.0	test	n/a	n/a	n/a	n/a	n/a	n/a	n/a	n/a	n/a	n/a	n/a	n/a	n/a	n/a	n/a	n/a	n/a	n/a	fixation
60275.222284562304	2750	n/a	839	89	2750	2360.77771544	stim	stop-signal	224	762275	0.0-13.12-1.12	beast_fmri_test	390	760155,/,760835,/,761516,/,762196,/,762876,/,763555,/,764236,/	t,t,t,t,t,t,t	<img class = center src='/static/experiments/beast_fmri_test/images/D.png'></img>	71,89	2750.0	test	<img class = center src='/static/experiments/beast_fmri_test/images/redD.png'></img>	go	2050.0	2.0	12.0	go	non-target	D	71,Index Finger	89,Middle Finger	600.0	700.0	2150.0	2050.0	1.0	700.0	n/a	1.0	go_stim
63025.222284562304	2360.7777154376404	n/a	839	89	2750	2360.77771544	stim	stop-signal	224	762275	0.0-13.12-1.12	beast_fmri_test	390	760155,/,760835,/,761516,/,762196,/,762876,/,763555,/,764236,/	t,t,t,t,t,t,t	<img class = center src='/static/experiments/beast_fmri_test/images/D.png'></img>	71,89	2750.0	test	<img class = center src='/static/experiments/beast_fmri_test/images/redD.png'></img>	go	2050.0	2.0	12.0	go	non-target	D	71,Index Finger	89,Middle Finger	600.0	700.0	2150.0	2050.0	1.0	700.0	n/a	1.0	ITI
68275	500	n/a	-1	-1	500	0.0	fixation	poldrack-single-stim	225	765164	0.0-13.13-0.13	beast_fmri_test	390	764917,/	t	<div class = centerbox2><div class = fixation>+</div></div>	none	500.0	test	n/a	n/a	n/a	n/a	n/a	n/a	n/a	n/a	n/a	n/a	n/a	n/a	n/a	n/a	n/a	n/a	n/a	n/a	fixation
67715.510969074909	700.0	n/a	-1	-1	2750	564.489030925	stim	stop-signal	226	767919	0.0-13.13-1.13	beast_fmri_test	390	765596,/,766278,/,766959,/,767638,/,768319,/	t,t,t,t,t	<img class = center src='/static/experiments/beast_fmri_test/images/B.png'></img>	71,89	2750.0	test	<img class = center src='/static/experiments/beast_fmri_test/images/redB.png'></img>	stop	2050.0	2.0	13.0	stop	non-target	B	71,Index Finger	89,Middle Finger	600.0	700.0	2150.0	2050.0	0.0	700.0	1.0	n/a	go_stim
69765.510969074909	2050.0	n/a	-1	-1	2750	564.489030925	stim	stop-signal	226	767919	0.0-13.13-1.13	beast_fmri_test	390	765596,/,766278,/,766959,/,767638,/,768319,/	t,t,t,t,t	<img class = center src='/static/experiments/beast_fmri_test/images/B.png'></img>	71,89	2750.0	test	<img class = center src='/static/experiments/beast_fmri_test/images/redB.png'></img>	stop	2050.0	2.0	13.0	stop	non-target	B	71,Index Finger	89,Middle Finger	600.0	700.0	2150.0	2050.0	0.0	700.0	1.0	n/a	stop_stim
70465.510969074909	564.48903092506544	n/a	-1	-1	2750	564.489030925	stim	stop-signal	226	767919	0.0-13.13-1.13	beast_fmri_test	390	765596,/,766278,/,766959,/,767638,/,768319,/	t,t,t,t,t	<img class = center src='/static/experiments/beast_fmri_test/images/B.png'></img>	71,89	2750.0	test	<img class = center src='/static/experiments/beast_fmri_test/images/redB.png'></img>	stop	2050.0	2.0	13.0	stop	non-target	B	71,Index Finger	89,Middle Finger	600.0	700.0	2150.0	2050.0	0.0	700.0	1.0	n/a	ITI
72122	500	n/a	-1	-1	500	0.0	fixation	poldrack-single-stim	227	769011	0.0-13.14-0.14	beast_fmri_test	390	768999,/	t	<div class = centerbox2><div class = fixation>+</div></div>	none	500.0	test	n/a	n/a	n/a	n/a	n/a	n/a	n/a	n/a	n/a	n/a	n/a	n/a	n/a	n/a	n/a	n/a	n/a	n/a	fixation
72004.095373773831	750.0	n/a	903	89	2750	121.904626226	stim	stop-signal	228	771765	0.0-13.14-1.14	beast_fmri_test	390	769680,/,770360,/,771041,/,771721,/	t,t,t,t	<img class = center src='/static/experiments/beast_fmri_test/images/T.png'></img>	71,89	2750.0	test	<img class = center src='/static/experiments/beast_fmri_test/images/redT.png'></img>	stop	2000.0	2.0	14.0	stop	non-target	T	71,Index Finger	89,Middle Finger	600.0	750.0	2150.0	2000.0	0.0	750.0	0.0	n/a	go_stim
74004.095373773831	2000.0	n/a	903	89	2750	121.904626226	stim	stop-signal	228	771765	0.0-13.14-1.14	beast_fmri_test	390	769680,/,770360,/,771041,/,771721,/	t,t,t,t	<img class = center src='/static/experiments/beast_fmri_test/images/T.png'></img>	71,89	2750.0	test	<img class = center src='/static/experiments/beast_fmri_test/images/redT.png'></img>	stop	2000.0	2.0	14.0	stop	non-target	T	71,Index Finger	89,Middle Finger	600.0	750.0	2150.0	2000.0	0.0	750.0	0.0	n/a	stop_stim
74754.095373773831	121.90462622621661	n/a	903	89	2750	121.904626226	stim	stop-signal	228	771765	0.0-13.14-1.14	beast_fmri_test	390	769680,/,770360,/,771041,/,771721,/	t,t,t,t	<img class = center src='/static/experiments/beast_fmri_test/images/T.png'></img>	71,89	2750.0	test	<img class = center src='/static/experiments/beast_fmri_test/images/redT.png'></img>	stop	2000.0	2.0	14.0	stop	non-target	T	71,Index Finger	89,Middle Finger	600.0	750.0	2150.0	2000.0	0.0	750.0	0.0	n/a	ITI
75524	500	n/a	-1	-1	500	0.0	fixation	poldrack-single-stim	229	772413	0.0-13.15-0.15	beast_fmri_test	390	772402,/	t	<div class = centerbox2><div class = fixation>+</div></div>	none	500.0	test	n/a	n/a	n/a	n/a	n/a	n/a	n/a	n/a	n/a	n/a	n/a	n/a	n/a	n/a	n/a	n/a	n/a	n/a	fixation
75457.155090962769	2750	n/a	920	89	2750	71.8449090373	stim	stop-signal	230	775168	0.0-13.15-1.15	beast_fmri_test	390	773081,/,773761,/,774442,/,775122,/	t,t,t,t	<img class = center src='/static/experiments/beast_fmri_test/images/T.png'></img>	71,89	2750.0	test	<img class = center src='/static/experiments/beast_fmri_test/images/redT.png'></img>	go	2050.0	2.0	15.0	go	non-target	T	71,Index Finger	89,Middle Finger	600.0	700.0	2150.0	2050.0	1.0	700.0	n/a	1.0	go_stim
78207.155090962769	71.844909037265907	n/a	920	89	2750	71.8449090373	stim	stop-signal	230	775168	0.0-13.15-1.15	beast_fmri_test	390	773081,/,773761,/,774442,/,775122,/	t,t,t,t	<img class = center src='/static/experiments/beast_fmri_test/images/T.png'></img>	71,89	2750.0	test	<img class = center src='/static/experiments/beast_fmri_test/images/redT.png'></img>	go	2050.0	2.0	15.0	go	non-target	T	71,Index Finger	89,Middle Finger	600.0	700.0	2150.0	2050.0	1.0	700.0	n/a	1.0	ITI
78879	500	n/a	-1	-1	500	0.0	fixation	poldrack-single-stim	231	775768	0.0-13.16-0.16	beast_fmri_test	390	n/a	n/a	<div class = centerbox2><div class = fixation>+</div></div>	none	500.0	test	n/a	n/a	n/a	n/a	n/a	n/a	n/a	n/a	n/a	n/a	n/a	n/a	n/a	n/a	n/a	n/a	n/a	n/a	fixation
76472.628264100524	2750	n/a	1390	71	2750	2410.3717359	stim	stop-signal	232	778522	0.0-13.16-1.16	beast_fmri_test	390	775802,/,776483,/,777162,/,777843,/,778524,/,779203,/,779884,/,780563,/	t,t,t,t,t,t,t,t	<img class = center src='/static/experiments/beast_fmri_test/images/T.png'></img>	71,89	2750.0	test	<img class = center src='/static/experiments/beast_fmri_test/images/redT.png'></img>	go	2150.0	2.0	16.0	go	target	T	71,Index Finger	89,Middle Finger	600.0	700.0	2150.0	2050.0	1.0	600.0	n/a	1.0	go_stim
79222.628264100524	2410.3717358994691	n/a	1390	71	2750	2410.3717359	stim	stop-signal	232	778522	0.0-13.16-1.16	beast_fmri_test	390	775802,/,776483,/,777162,/,777843,/,778524,/,779203,/,779884,/,780563,/	t,t,t,t,t,t,t,t	<img class = center src='/static/experiments/beast_fmri_test/images/T.png'></img>	71,89	2750.0	test	<img class = center src='/static/experiments/beast_fmri_test/images/redT.png'></img>	go	2150.0	2.0	16.0	go	target	T	71,Index Finger	89,Middle Finger	600.0	700.0	2150.0	2050.0	1.0	600.0	n/a	1.0	ITI
84573	500	n/a	-1	-1	500	0.0	fixation	poldrack-single-stim	233	781462	0.0-13.17-0.17	beast_fmri_test	390	781245,/	t	<div class = centerbox2><div class = fixation>+</div></div>	none	500.0	test	n/a	n/a	n/a	n/a	n/a	n/a	n/a	n/a	n/a	n/a	n/a	n/a	n/a	n/a	n/a	n/a	n/a	n/a	fixation
84446.145638309419	2750	n/a	789	89	2750	132.854361691	stim	stop-signal	234	784218	0.0-13.17-1.17	beast_fmri_test	390	781925,/,782605,/,783285,/,783966,/	t,t,t,t	<img class = center src='/static/experiments/beast_fmri_test/images/V.png'></img>	71,89	2750.0	test	<img class = center src='/static/experiments/beast_fmri_test/images/redV.png'></img>	go	2050.0	2.0	17.0	go	non-target	V	71,Index Finger	89,Middle Finger	600.0	700.0	2150.0	2050.0	1.0	700.0	n/a	1.0	go_stim
87196.145638309419	132.85436169060614	n/a	789	89	2750	132.854361691	stim	stop-signal	234	784218	0.0-13.17-1.17	beast_fmri_test	390	781925,/,782605,/,783285,/,783966,/	t,t,t,t	<img class = center src='/static/experiments/beast_fmri_test/images/V.png'></img>	71,89	2750.0	test	<img class = center src='/static/experiments/beast_fmri_test/images/redV.png'></img>	go	2050.0	2.0	17.0	go	non-target	V	71,Index Finger	89,Middle Finger	600.0	700.0	2150.0	2050.0	1.0	700.0	n/a	1.0	ITI
87990	500	n/a	-1	-1	500	0.0	fixation	poldrack-single-stim	235	784879	0.0-13.18-0.18	beast_fmri_test	390	784646,/	t	<div class = centerbox2><div class = fixation>+</div></div>	none	500.0	test	n/a	n/a	n/a	n/a	n/a	n/a	n/a	n/a	n/a	n/a	n/a	n/a	n/a	n/a	n/a	n/a	n/a	n/a	fixation
87422.405974784167	2750	n/a	1224	89	2750	570.594025216	stim	stop-signal	236	787632	0.0-13.18-1.18	beast_fmri_test	390	785327,/,786007,/,786687,/,787367,/,788047,/	t,t,t,t,t	<img class = center src='/static/experiments/beast_fmri_test/images/V.png'></img>	71,89	2750.0	test	<img class = center src='/static/experiments/beast_fmri_test/images/redV.png'></img>	go	2050.0	2.0	18.0	go	non-target	V	71,Index Finger	89,Middle Finger	600.0	700.0	2150.0	2050.0	1.0	700.0	n/a	1.0	go_stim
90172.405974784167	570.59402521586446	n/a	1224	89	2750	570.594025216	stim	stop-signal	236	787632	0.0-13.18-1.18	beast_fmri_test	390	785327,/,786007,/,786687,/,787367,/,788047,/	t,t,t,t,t	<img class = center src='/static/experiments/beast_fmri_test/images/V.png'></img>	71,89	2750.0	test	<img class = center src='/static/experiments/beast_fmri_test/images/redV.png'></img>	go	2050.0	2.0	18.0	go	non-target	V	71,Index Finger	89,Middle Finger	600.0	700.0	2150.0	2050.0	1.0	700.0	n/a	1.0	ITI
91840	500	n/a	-1	-1	500	0.0	fixation	poldrack-single-stim	237	788729	0.0-13.19-0.19	beast_fmri_test	390	788728,/	t	<div class = centerbox2><div class = fixation>+</div></div>	none	500.0	test	n/a	n/a	n/a	n/a	n/a	n/a	n/a	n/a	n/a	n/a	n/a	n/a	n/a	n/a	n/a	n/a	n/a	n/a	fixation
91805.710596705787	2750	n/a	676	89	2750	38.2894032942	stim	stop-signal	238	791483	0.0-13.19-1.19	beast_fmri_test	390	789407,/,790088,/,790769,/,791449,/	t,t,t,t	<img class = center src='/static/experiments/beast_fmri_test/images/P.png'></img>	71,89	2750.0	test	<img class = center src='/static/experiments/beast_fmri_test/images/redP.png'></img>	go	2050.0	2.0	19.0	go	non-target	P	71,Index Finger	89,Middle Finger	600.0	700.0	2150.0	2050.0	1.0	700.0	n/a	1.0	go_stim
94555.710596705787	38.289403294161865	n/a	676	89	2750	38.2894032942	stim	stop-signal	238	791483	0.0-13.19-1.19	beast_fmri_test	390	789407,/,790088,/,790769,/,791449,/	t,t,t,t	<img class = center src='/static/experiments/beast_fmri_test/images/P.png'></img>	71,89	2750.0	test	<img class = center src='/static/experiments/beast_fmri_test/images/redP.png'></img>	go	2050.0	2.0	19.0	go	non-target	P	71,Index Finger	89,Middle Finger	600.0	700.0	2150.0	2050.0	1.0	700.0	n/a	1.0	ITI
95159	500	n/a	-1	-1	500	0.0	fixation	poldrack-single-stim	239	792048	0.0-13.20-0.20	beast_fmri_test	390	n/a	n/a	<div class = centerbox2><div class = fixation>+</div></div>	none	500.0	test	n/a	n/a	n/a	n/a	n/a	n/a	n/a	n/a	n/a	n/a	n/a	n/a	n/a	n/a	n/a	n/a	n/a	n/a	fixation
94958.381939830258	2750	n/a	1099	71	2750	204.61806017	stim	stop-signal	240	794802	0.0-13.20-1.20	beast_fmri_test	390	792129,/,792810,/,793489,/,794170,/,794851,/	t,t,t,t,t	<img class = center src='/static/experiments/beast_fmri_test/images/V.png'></img>	71,89	2750.0	test	<img class = center src='/static/experiments/beast_fmri_test/images/redV.png'></img>	go	2150.0	2.0	20.0	go	target	V	71,Index Finger	89,Middle Finger	600.0	700.0	2150.0	2050.0	1.0	600.0	n/a	1.0	go_stim
97708.381939830258	204.6180601697771	n/a	1099	71	2750	204.61806017	stim	stop-signal	240	794802	0.0-13.20-1.20	beast_fmri_test	390	792129,/,792810,/,793489,/,794170,/,794851,/	t,t,t,t,t	<img class = center src='/static/experiments/beast_fmri_test/images/V.png'></img>	71,89	2750.0	test	<img class = center src='/static/experiments/beast_fmri_test/images/redV.png'></img>	go	2150.0	2.0	20.0	go	target	V	71,Index Finger	89,Middle Finger	600.0	700.0	2150.0	2050.0	1.0	600.0	n/a	1.0	ITI
98646	500	n/a	-1	-1	500	0.0	fixation	poldrack-single-stim	241	795535	0.0-13.21-0.21	beast_fmri_test	390	795531,/	t	<div class = centerbox2><div class = fixation>+</div></div>	none	500.0	test	n/a	n/a	n/a	n/a	n/a	n/a	n/a	n/a	n/a	n/a	n/a	n/a	n/a	n/a	n/a	n/a	n/a	n/a	fixation
96868.338447620627	2750	n/a	581	89	2750	1781.66155238	stim	stop-signal	242	798289	0.0-13.21-1.21	beast_fmri_test	390	796211,/,796891,/,797572,/,798253,/,798932,/,799613,/	t,t,t,t,t,t	<img class = center src='/static/experiments/beast_fmri_test/images/T.png'></img>	71,89	2750.0	test	<img class = center src='/static/experiments/beast_fmri_test/images/redT.png'></img>	go	2050.0	2.0	21.0	go	non-target	T	71,Index Finger	89,Middle Finger	600.0	700.0	2150.0	2050.0	1.0	700.0	n/a	1.0	go_stim
99618.338447620627	1781.6615523793932	n/a	581	89	2750	1781.66155238	stim	stop-signal	242	798289	0.0-13.21-1.21	beast_fmri_test	390	796211,/,796891,/,797572,/,798253,/,798932,/,799613,/	t,t,t,t,t,t	<img class = center src='/static/experiments/beast_fmri_test/images/T.png'></img>	71,89	2750.0	test	<img class = center src='/static/experiments/beast_fmri_test/images/redT.png'></img>	go	2050.0	2.0	21.0	go	non-target	T	71,Index Finger	89,Middle Finger	600.0	700.0	2150.0	2050.0	1.0	700.0	n/a	1.0	ITI
103711	500	n/a	-1	-1	500	0.0	fixation	poldrack-single-stim	243	800600	0.0-13.22-0.22	beast_fmri_test	390	800294,/	t	<div class = centerbox2><div class = fixation>+</div></div>	none	500.0	test	n/a	n/a	n/a	n/a	n/a	n/a	n/a	n/a	n/a	n/a	n/a	n/a	n/a	n/a	n/a	n/a	n/a	n/a	fixation
102065.43529817008	2750	n/a	597	89	2750	1650.56470183	stim	stop-signal	244	803355	0.0-13.22-1.22	beast_fmri_test	390	800974,/,801654,/,802334,/,803014,/,803695,/,804374,/	t,t,t,t,t,t	<img class = center src='/static/experiments/beast_fmri_test/images/P.png'></img>	71,89	2750.0	test	<img class = center src='/static/experiments/beast_fmri_test/images/redP.png'></img>	go	2050.0	2.0	22.0	go	non-target	P	71,Index Finger	89,Middle Finger	600.0	700.0	2150.0	2050.0	1.0	700.0	n/a	1.0	go_stim
104815.43529817008	1650.5647018298996	n/a	597	89	2750	1650.56470183	stim	stop-signal	244	803355	0.0-13.22-1.22	beast_fmri_test	390	800974,/,801654,/,802334,/,803014,/,803695,/,804374,/	t,t,t,t,t,t	<img class = center src='/static/experiments/beast_fmri_test/images/P.png'></img>	71,89	2750.0	test	<img class = center src='/static/experiments/beast_fmri_test/images/redP.png'></img>	go	2050.0	2.0	22.0	go	non-target	P	71,Index Finger	89,Middle Finger	600.0	700.0	2150.0	2050.0	1.0	700.0	n/a	1.0	ITI
108647	500	n/a	-1	-1	500	0.0	fixation	poldrack-single-stim	245	805536	0.0-13.23-0.23	beast_fmri_test	390	805055,/	t	<div class = centerbox2><div class = fixation>+</div></div>	none	500.0	test	n/a	n/a	n/a	n/a	n/a	n/a	n/a	n/a	n/a	n/a	n/a	n/a	n/a	n/a	n/a	n/a	n/a	n/a	fixation
105700.98966917081	2750	n/a	1290	89	2750	2950.01033083	stim	stop-signal	246	808290	0.0-13.23-1.23	beast_fmri_test	390	805736,/,806416,/,807096,/,807777,/,808457,/,809138,/,809818,/,810498,/,811178,/	t,t,t,t,t,t,t,t,t	<img class = center src='/static/experiments/beast_fmri_test/images/V.png'></img>	71,89	2750.0	test	<img class = center src='/static/experiments/beast_fmri_test/images/redV.png'></img>	go	2050.0	2.0	23.0	go	non-target	V	71,Index Finger	89,Middle Finger	600.0	700.0	2150.0	2050.0	1.0	700.0	n/a	1.0	go_stim
108450.98966917081	2950.0103308291864	n/a	1290	89	2750	2950.01033083	stim	stop-signal	246	808290	0.0-13.23-1.23	beast_fmri_test	390	805736,/,806416,/,807096,/,807777,/,808457,/,809138,/,809818,/,810498,/,811178,/	t,t,t,t,t,t,t,t,t	<img class = center src='/static/experiments/beast_fmri_test/images/V.png'></img>	71,89	2750.0	test	<img class = center src='/static/experiments/beast_fmri_test/images/redV.png'></img>	go	2050.0	2.0	23.0	go	non-target	V	71,Index Finger	89,Middle Finger	600.0	700.0	2150.0	2050.0	1.0	700.0	n/a	1.0	ITI
114882	500	n/a	-1	-1	500	0.0	fixation	poldrack-single-stim	247	811771	0.0-13.24-0.24	beast_fmri_test	390	n/a	n/a	<div class = centerbox2><div class = fixation>+</div></div>	none	500.0	test	n/a	n/a	n/a	n/a	n/a	n/a	n/a	n/a	n/a	n/a	n/a	n/a	n/a	n/a	n/a	n/a	n/a	n/a	fixation
114761.59850598976	2750	n/a	679	71	2750	125.40149401	stim	stop-signal	248	814526	0.0-13.24-1.24	beast_fmri_test	390	811858,/,812539,/,813219,/,813900,/,814587,/	t,t,t,t,t	<img class = center src='/static/experiments/beast_fmri_test/images/P.png'></img>	71,89	2750.0	test	<img class = center src='/static/experiments/beast_fmri_test/images/redP.png'></img>	go	2150.0	2.0	24.0	go	target	P	71,Index Finger	89,Middle Finger	600.0	700.0	2150.0	2050.0	1.0	600.0	n/a	1.0	go_stim
117511.59850598976	125.40149401023872	n/a	679	71	2750	125.40149401	stim	stop-signal	248	814526	0.0-13.24-1.24	beast_fmri_test	390	811858,/,812539,/,813219,/,813900,/,814587,/	t,t,t,t,t	<img class = center src='/static/experiments/beast_fmri_test/images/P.png'></img>	71,89	2750.0	test	<img class = center src='/static/experiments/beast_fmri_test/images/redP.png'></img>	go	2150.0	2.0	24.0	go	target	P	71,Index Finger	89,Middle Finger	600.0	700.0	2150.0	2050.0	1.0	600.0	n/a	1.0	ITI
118293	500	n/a	-1	-1	500	0.0	fixation	poldrack-single-stim	249	815182	0.0-13.25-0.25	beast_fmri_test	390	n/a	n/a	<div class = centerbox2><div class = fixation>+</div></div>	none	500.0	test	n/a	n/a	n/a	n/a	n/a	n/a	n/a	n/a	n/a	n/a	n/a	n/a	n/a	n/a	n/a	n/a	n/a	n/a	fixation
114315.46358696255	600.0	n/a	-1	-1	2750	3980.53641304	stim	stop-signal	250	817935	0.0-13.25-1.25	beast_fmri_test	390	815260,/,815939,/,816620,/,817301,/,817981,/,818661,/,819342,/,820022,/,820701,/,821382,/	t,t,t,t,t,t,t,t,t,t	<img class = center src='/static/experiments/beast_fmri_test/images/V.png'></img>	71,89	2750.0	test	<img class = center src='/static/experiments/beast_fmri_test/images/redV.png'></img>	stop	2150.0	2.0	25.0	stop	target	V	71,Index Finger	89,Middle Finger	600.0	700.0	2150.0	2050.0	0.0	600.0	1.0	n/a	go_stim
116465.46358696255	2150.0	n/a	-1	-1	2750	3980.53641304	stim	stop-signal	250	817935	0.0-13.25-1.25	beast_fmri_test	390	815260,/,815939,/,816620,/,817301,/,817981,/,818661,/,819342,/,820022,/,820701,/,821382,/	t,t,t,t,t,t,t,t,t,t	<img class = center src='/static/experiments/beast_fmri_test/images/V.png'></img>	71,89	2750.0	test	<img class = center src='/static/experiments/beast_fmri_test/images/redV.png'></img>	stop	2150.0	2.0	25.0	stop	target	V	71,Index Finger	89,Middle Finger	600.0	700.0	2150.0	2050.0	0.0	600.0	1.0	n/a	stop_stim
117065.46358696255	3980.5364130374574	n/a	-1	-1	2750	3980.53641304	stim	stop-signal	250	817935	0.0-13.25-1.25	beast_fmri_test	390	815260,/,815939,/,816620,/,817301,/,817981,/,818661,/,819342,/,820022,/,820701,/,821382,/	t,t,t,t,t,t,t,t,t,t	<img class = center src='/static/experiments/beast_fmri_test/images/V.png'></img>	71,89	2750.0	test	<img class = center src='/static/experiments/beast_fmri_test/images/redV.png'></img>	stop	2150.0	2.0	25.0	stop	target	V	71,Index Finger	89,Middle Finger	600.0	700.0	2150.0	2050.0	0.0	600.0	1.0	n/a	ITI
125558	500	n/a	-1	-1	500	0.0	fixation	poldrack-single-stim	251	822447	0.0-13.26-0.26	beast_fmri_test	390	822061,/	t	<div class = centerbox2><div class = fixation>+</div></div>	none	500.0	test	n/a	n/a	n/a	n/a	n/a	n/a	n/a	n/a	n/a	n/a	n/a	n/a	n/a	n/a	n/a	n/a	n/a	n/a	fixation
125086.95167373982	2750	n/a	1772	89	2750	474.04832626	stim	stop-signal	252	825200	0.0-13.26-1.26	beast_fmri_test	390	822743,/,823423,/,824103,/,824784,/,825463,/	t,t,t,t,t	<img class = center src='/static/experiments/beast_fmri_test/images/V.png'></img>	71,89	2750.0	test	<img class = center src='/static/experiments/beast_fmri_test/images/redV.png'></img>	go	2050.0	2.0	26.0	go	non-target	V	71,Index Finger	89,Middle Finger	650.0	700.0	2150.0	2050.0	1.0	700.0	n/a	1.0	go_stim
127836.95167373982	474.0483262602088	n/a	1772	89	2750	474.04832626	stim	stop-signal	252	825200	0.0-13.26-1.26	beast_fmri_test	390	822743,/,823423,/,824103,/,824784,/,825463,/	t,t,t,t,t	<img class = center src='/static/experiments/beast_fmri_test/images/V.png'></img>	71,89	2750.0	test	<img class = center src='/static/experiments/beast_fmri_test/images/redV.png'></img>	go	2050.0	2.0	26.0	go	non-target	V	71,Index Finger	89,Middle Finger	650.0	700.0	2150.0	2050.0	1.0	700.0	n/a	1.0	ITI
129319	500	n/a	-1	-1	500	0.0	fixation	poldrack-single-stim	253	826208	0.0-13.27-0.27	beast_fmri_test	390	826145,/	t	<div class = centerbox2><div class = fixation>+</div></div>	none	500.0	test	n/a	n/a	n/a	n/a	n/a	n/a	n/a	n/a	n/a	n/a	n/a	n/a	n/a	n/a	n/a	n/a	n/a	n/a	fixation
128036.45016140514	650.0	n/a	-1	-1	2750	1287.54983859	stim	stop-signal	254	828963	0.0-13.27-1.27	beast_fmri_test	390	826823,/,827505,/,828186,/,828867,/,829547,/,830227,/	t,t,t,t,t,t	<img class = center src='/static/experiments/beast_fmri_test/images/V.png'></img>	71,89	2750.0	test	<img class = center src='/static/experiments/beast_fmri_test/images/redV.png'></img>	stop	2100.0	2.0	27.0	stop	target	V	71,Index Finger	89,Middle Finger	650.0	700.0	2100.0	2050.0	0.0	650.0	1.0	n/a	go_stim
130136.45016140514	2100.0	n/a	-1	-1	2750	1287.54983859	stim	stop-signal	254	828963	0.0-13.27-1.27	beast_fmri_test	390	826823,/,827505,/,828186,/,828867,/,829547,/,830227,/	t,t,t,t,t,t	<img class = center src='/static/experiments/beast_fmri_test/images/V.png'></img>	71,89	2750.0	test	<img class = center src='/static/experiments/beast_fmri_test/images/redV.png'></img>	stop	2100.0	2.0	27.0	stop	target	V	71,Index Finger	89,Middle Finger	650.0	700.0	2100.0	2050.0	0.0	650.0	1.0	n/a	stop_stim
130786.45016140514	1287.5498385948656	n/a	-1	-1	2750	1287.54983859	stim	stop-signal	254	828963	0.0-13.27-1.27	beast_fmri_test	390	826823,/,827505,/,828186,/,828867,/,829547,/,830227,/	t,t,t,t,t,t	<img class = center src='/static/experiments/beast_fmri_test/images/V.png'></img>	71,89	2750.0	test	<img class = center src='/static/experiments/beast_fmri_test/images/redV.png'></img>	stop	2100.0	2.0	27.0	stop	target	V	71,Index Finger	89,Middle Finger	650.0	700.0	2100.0	2050.0	0.0	650.0	1.0	n/a	ITI
133892	500	n/a	-1	-1	500	0.0	fixation	poldrack-single-stim	255	830781	0.0-13.28-0.28	beast_fmri_test	390	n/a	n/a	<div class = centerbox2><div class = fixation>+</div></div>	none	500.0	test	n/a	n/a	n/a	n/a	n/a	n/a	n/a	n/a	n/a	n/a	n/a	n/a	n/a	n/a	n/a	n/a	n/a	n/a	fixation
132290.05072354933	700.0	n/a	745	89	2750	1605.94927645	stim	stop-signal	256	833535	0.0-13.28-1.28	beast_fmri_test	390	830907,/,831587,/,832268,/,832948,/,833628,/,834308,/,834987,/	t,t,t,t,t,t,t	<img class = center src='/static/experiments/beast_fmri_test/images/D.png'></img>	71,89	2750.0	test	<img class = center src='/static/experiments/beast_fmri_test/images/redD.png'></img>	stop	2050.0	2.0	28.0	stop	non-target	D	71,Index Finger	89,Middle Finger	700.0	700.0	2100.0	2050.0	0.0	700.0	0.0	n/a	go_stim
134340.05072354933	2050.0	n/a	745	89	2750	1605.94927645	stim	stop-signal	256	833535	0.0-13.28-1.28	beast_fmri_test	390	830907,/,831587,/,832268,/,832948,/,833628,/,834308,/,834987,/	t,t,t,t,t,t,t	<img class = center src='/static/experiments/beast_fmri_test/images/D.png'></img>	71,89	2750.0	test	<img class = center src='/static/experiments/beast_fmri_test/images/redD.png'></img>	stop	2050.0	2.0	28.0	stop	non-target	D	71,Index Finger	89,Middle Finger	700.0	700.0	2100.0	2050.0	0.0	700.0	0.0	n/a	stop_stim
135040.05072354933	1605.9492764506435	n/a	745	89	2750	1605.94927645	stim	stop-signal	256	833535	0.0-13.28-1.28	beast_fmri_test	390	830907,/,831587,/,832268,/,832948,/,833628,/,834308,/,834987,/	t,t,t,t,t,t,t	<img class = center src='/static/experiments/beast_fmri_test/images/D.png'></img>	71,89	2750.0	test	<img class = center src='/static/experiments/beast_fmri_test/images/redD.png'></img>	stop	2050.0	2.0	28.0	stop	non-target	D	71,Index Finger	89,Middle Finger	700.0	700.0	2100.0	2050.0	0.0	700.0	0.0	n/a	ITI
138781	500	n/a	-1	-1	500	0.0	fixation	poldrack-single-stim	257	835670	0.0-13.29-0.29	beast_fmri_test	390	835669,/	t	<div class = centerbox2><div class = fixation>+</div></div>	none	500.0	test	n/a	n/a	n/a	n/a	n/a	n/a	n/a	n/a	n/a	n/a	n/a	n/a	n/a	n/a	n/a	n/a	n/a	n/a	fixation
138430.71513470949	2750	n/a	673	71	2750	354.28486529	stim	stop-signal	258	838424	0.0-13.29-1.29	beast_fmri_test	390	836347,/,837029,/,837710,/,838390,/	t,t,t,t	<img class = center src='/static/experiments/beast_fmri_test/images/V.png'></img>	71,89	2750.0	test	<img class = center src='/static/experiments/beast_fmri_test/images/redV.png'></img>	go	2050.0	2.0	29.0	go	target	V	71,Index Finger	89,Middle Finger	700.0	650.0	2050.0	2050.0	1.0	700.0	n/a	1.0	go_stim
141180.71513470949	354.28486529045256	n/a	673	71	2750	354.28486529	stim	stop-signal	258	838424	0.0-13.29-1.29	beast_fmri_test	390	836347,/,837029,/,837710,/,838390,/	t,t,t,t	<img class = center src='/static/experiments/beast_fmri_test/images/V.png'></img>	71,89	2750.0	test	<img class = center src='/static/experiments/beast_fmri_test/images/redV.png'></img>	go	2050.0	2.0	29.0	go	target	V	71,Index Finger	89,Middle Finger	700.0	650.0	2050.0	2050.0	1.0	700.0	n/a	1.0	ITI
142419	500	n/a	-1	-1	500	0.0	fixation	poldrack-single-stim	259	839308	0.0-13.30-0.30	beast_fmri_test	390	839070,/	t	<div class = centerbox2><div class = fixation>+</div></div>	none	500.0	test	n/a	n/a	n/a	n/a	n/a	n/a	n/a	n/a	n/a	n/a	n/a	n/a	n/a	n/a	n/a	n/a	n/a	n/a	fixation
141992.96603361622	2750	n/a	1366	89	2750	430.033966384	stim	stop-signal	260	842062	0.0-13.30-1.30	beast_fmri_test	390	839750,/,840431,/,841110,/,841792,/,842472,/	t,t,t,t,t	<img class = center src='/static/experiments/beast_fmri_test/images/T.png'></img>	71,89	2750.0	test	<img class = center src='/static/experiments/beast_fmri_test/images/redT.png'></img>	go	2100.0	2.0	30.0	go	non-target	T	71,Index Finger	89,Middle Finger	700.0	650.0	2050.0	2100.0	1.0	650.0	n/a	1.0	go_stim
144742.96603361622	430.03396638377166	n/a	1366	89	2750	430.033966384	stim	stop-signal	260	842062	0.0-13.30-1.30	beast_fmri_test	390	839750,/,840431,/,841110,/,841792,/,842472,/	t,t,t,t,t	<img class = center src='/static/experiments/beast_fmri_test/images/T.png'></img>	71,89	2750.0	test	<img class = center src='/static/experiments/beast_fmri_test/images/redT.png'></img>	go	2100.0	2.0	30.0	go	non-target	T	71,Index Finger	89,Middle Finger	700.0	650.0	2050.0	2100.0	1.0	650.0	n/a	1.0	ITI
146133	500	n/a	-1	-1	500	0.0	fixation	poldrack-single-stim	261	843022	0.0-13.31-0.31	beast_fmri_test	390	n/a	n/a	<div class = centerbox2><div class = fixation>+</div></div>	none	500.0	test	n/a	n/a	n/a	n/a	n/a	n/a	n/a	n/a	n/a	n/a	n/a	n/a	n/a	n/a	n/a	n/a	n/a	n/a	fixation
145869.6663336542	650.0	n/a	-1	-1	2750	266.333666346	stim	stop-signal	262	845775	0.0-13.31-1.31	beast_fmri_test	390	843152,/,843832,/,844512,/,845193,/,845873,/	t,t,t,t,t	<img class = center src='/static/experiments/beast_fmri_test/images/D.png'></img>	71,89	2750.0	test	<img class = center src='/static/experiments/beast_fmri_test/images/redD.png'></img>	stop	2100.0	2.0	31.0	stop	non-target	D	71,Index Finger	89,Middle Finger	700.0	650.0	2050.0	2100.0	0.0	650.0	1.0	n/a	go_stim
147969.6663336542	2100.0	n/a	-1	-1	2750	266.333666346	stim	stop-signal	262	845775	0.0-13.31-1.31	beast_fmri_test	390	843152,/,843832,/,844512,/,845193,/,845873,/	t,t,t,t,t	<img class = center src='/static/experiments/beast_fmri_test/images/D.png'></img>	71,89	2750.0	test	<img class = center src='/static/experiments/beast_fmri_test/images/redD.png'></img>	stop	2100.0	2.0	31.0	stop	non-target	D	71,Index Finger	89,Middle Finger	700.0	650.0	2050.0	2100.0	0.0	650.0	1.0	n/a	stop_stim
148619.6663336542	266.33366634578181	n/a	-1	-1	2750	266.333666346	stim	stop-signal	262	845775	0.0-13.31-1.31	beast_fmri_test	390	843152,/,843832,/,844512,/,845193,/,845873,/	t,t,t,t,t	<img class = center src='/static/experiments/beast_fmri_test/images/D.png'></img>	71,89	2750.0	test	<img class = center src='/static/experiments/beast_fmri_test/images/redD.png'></img>	stop	2100.0	2.0	31.0	stop	non-target	D	71,Index Finger	89,Middle Finger	700.0	650.0	2050.0	2100.0	0.0	650.0	1.0	n/a	ITI
149682	500	n/a	-1	-1	500	0.0	fixation	poldrack-single-stim	263	846571	0.0-13.32-0.32	beast_fmri_test	390	846554,/	t	<div class = centerbox2><div class = fixation>+</div></div>	none	500.0	test	n/a	n/a	n/a	n/a	n/a	n/a	n/a	n/a	n/a	n/a	n/a	n/a	n/a	n/a	n/a	n/a	n/a	n/a	fixation
146540.82453876373	700.0	n/a	-1	-1	2750	3144.17546124	stim	stop-signal	264	849324	0.0-13.32-1.32	beast_fmri_test	390	847233,/,847914,/,848594,/,849273,/,849955,/,850635,/,851315,/,851995,/	t,t,t,t,t,t,t,t	<img class = center src='/static/experiments/beast_fmri_test/images/D.png'></img>	71,89	2750.0	test	<img class = center src='/static/experiments/beast_fmri_test/images/redD.png'></img>	stop	2050.0	2.0	32.0	stop	non-target	D	71,Index Finger	89,Middle Finger	700.0	700.0	2050.0	2050.0	0.0	700.0	1.0	n/a	go_stim
148590.82453876373	2050.0	n/a	-1	-1	2750	3144.17546124	stim	stop-signal	264	849324	0.0-13.32-1.32	beast_fmri_test	390	847233,/,847914,/,848594,/,849273,/,849955,/,850635,/,851315,/,851995,/	t,t,t,t,t,t,t,t	<img class = center src='/static/experiments/beast_fmri_test/images/D.png'></img>	71,89	2750.0	test	<img class = center src='/static/experiments/beast_fmri_test/images/redD.png'></img>	stop	2050.0	2.0	32.0	stop	non-target	D	71,Index Finger	89,Middle Finger	700.0	700.0	2050.0	2050.0	0.0	700.0	1.0	n/a	stop_stim
149290.82453876373	3144.1754612362411	n/a	-1	-1	2750	3144.17546124	stim	stop-signal	264	849324	0.0-13.32-1.32	beast_fmri_test	390	847233,/,847914,/,848594,/,849273,/,849955,/,850635,/,851315,/,851995,/	t,t,t,t,t,t,t,t	<img class = center src='/static/experiments/beast_fmri_test/images/D.png'></img>	71,89	2750.0	test	<img class = center src='/static/experiments/beast_fmri_test/images/redD.png'></img>	stop	2050.0	2.0	32.0	stop	non-target	D	71,Index Finger	89,Middle Finger	700.0	700.0	2050.0	2050.0	0.0	700.0	1.0	n/a	ITI
156113	500	n/a	-1	-1	500	0.0	fixation	poldrack-single-stim	265	853002	0.0-13.33-0.33	beast_fmri_test	390	852676,/	t	<div class = centerbox2><div class = fixation>+</div></div>	none	500.0	test	n/a	n/a	n/a	n/a	n/a	n/a	n/a	n/a	n/a	n/a	n/a	n/a	n/a	n/a	n/a	n/a	n/a	n/a	fixation
156113.53518837423	700.0	n/a	781	89	2750	3.4648116258	stim	stop-signal	266	855756	0.0-13.33-1.33	beast_fmri_test	390	853356,/,854037,/,854716,/,855397,/	t,t,t,t	<img class = center src='/static/experiments/beast_fmri_test/images/D.png'></img>	71,89	2750.0	test	<img class = center src='/static/experiments/beast_fmri_test/images/redD.png'></img>	stop	2050.0	2.0	33.0	stop	target	D	71,Index Finger	89,Middle Finger	700.0	750.0	2050.0	2050.0	0.0	700.0	0.0	n/a	go_stim
158163.53518837423	2050.0	n/a	781	89	2750	3.4648116258	stim	stop-signal	266	855756	0.0-13.33-1.33	beast_fmri_test	390	853356,/,854037,/,854716,/,855397,/	t,t,t,t	<img class = center src='/static/experiments/beast_fmri_test/images/D.png'></img>	71,89	2750.0	test	<img class = center src='/static/experiments/beast_fmri_test/images/redD.png'></img>	stop	2050.0	2.0	33.0	stop	target	D	71,Index Finger	89,Middle Finger	700.0	750.0	2050.0	2050.0	0.0	700.0	0.0	n/a	stop_stim
158863.53518837423	3.4648116257990784	n/a	781	89	2750	3.4648116258	stim	stop-signal	266	855756	0.0-13.33-1.33	beast_fmri_test	390	853356,/,854037,/,854716,/,855397,/	t,t,t,t	<img class = center src='/static/experiments/beast_fmri_test/images/D.png'></img>	71,89	2750.0	test	<img class = center src='/static/experiments/beast_fmri_test/images/redD.png'></img>	stop	2050.0	2.0	33.0	stop	target	D	71,Index Finger	89,Middle Finger	700.0	750.0	2050.0	2050.0	0.0	700.0	0.0	n/a	ITI
159401	500	n/a	-1	-1	500	0.0	fixation	poldrack-single-stim	267	856290	0.0-13.34-0.34	beast_fmri_test	390	856079,/	t	<div class = centerbox2><div class = fixation>+</div></div>	none	500.0	test	n/a	n/a	n/a	n/a	n/a	n/a	n/a	n/a	n/a	n/a	n/a	n/a	n/a	n/a	n/a	n/a	n/a	n/a	fixation
158449.12617074198	2750	n/a	1117	89	2750	956.873829258	stim	stop-signal	268	859045	0.0-13.34-1.34	beast_fmri_test	390	856759,/,857439,/,858119,/,858799,/,859479,/	t,t,t,t,t	<img class = center src='/static/experiments/beast_fmri_test/images/V.png'></img>	71,89	2750.0	test	<img class = center src='/static/experiments/beast_fmri_test/images/redV.png'></img>	go	2000.0	2.0	34.0	go	non-target	V	71,Index Finger	89,Middle Finger	650.0	750.0	2050.0	2000.0	1.0	750.0	n/a	1.0	go_stim
161199.12617074198	956.87382925806139	n/a	1117	89	2750	956.873829258	stim	stop-signal	268	859045	0.0-13.34-1.34	beast_fmri_test	390	856759,/,857439,/,858119,/,858799,/,859479,/	t,t,t,t,t	<img class = center src='/static/experiments/beast_fmri_test/images/V.png'></img>	71,89	2750.0	test	<img class = center src='/static/experiments/beast_fmri_test/images/redV.png'></img>	go	2000.0	2.0	34.0	go	non-target	V	71,Index Finger	89,Middle Finger	650.0	750.0	2050.0	2000.0	1.0	750.0	n/a	1.0	ITI
163643	500	n/a	-1	-1	500	0.0	fixation	poldrack-single-stim	269	860532	0.0-13.35-0.35	beast_fmri_test	390	860160,/	t	<div class = centerbox2><div class = fixation>+</div></div>	none	500.0	test	n/a	n/a	n/a	n/a	n/a	n/a	n/a	n/a	n/a	n/a	n/a	n/a	n/a	n/a	n/a	n/a	n/a	n/a	fixation
163363.02323825611	750.0	n/a	859	89	2750	284.976761744	stim	stop-signal	270	863287	0.0-13.35-1.35	beast_fmri_test	390	860841,/,861521,/,862201,/,862881,/,863561,/	t,t,t,t,t	<img class = center src='/static/experiments/beast_fmri_test/images/B.png'></img>	71,89	2750.0	test	<img class = center src='/static/experiments/beast_fmri_test/images/redB.png'></img>	stop	2000.0	2.0	35.0	stop	non-target	B	71,Index Finger	89,Middle Finger	650.0	750.0	2050.0	2000.0	0.0	750.0	0.0	n/a	go_stim
165363.02323825611	2000.0	n/a	859	89	2750	284.976761744	stim	stop-signal	270	863287	0.0-13.35-1.35	beast_fmri_test	390	860841,/,861521,/,862201,/,862881,/,863561,/	t,t,t,t,t	<img class = center src='/static/experiments/beast_fmri_test/images/B.png'></img>	71,89	2750.0	test	<img class = center src='/static/experiments/beast_fmri_test/images/redB.png'></img>	stop	2000.0	2.0	35.0	stop	non-target	B	71,Index Finger	89,Middle Finger	650.0	750.0	2050.0	2000.0	0.0	750.0	0.0	n/a	stop_stim
166113.02323825611	284.97676174388079	n/a	859	89	2750	284.976761744	stim	stop-signal	270	863287	0.0-13.35-1.35	beast_fmri_test	390	860841,/,861521,/,862201,/,862881,/,863561,/	t,t,t,t,t	<img class = center src='/static/experiments/beast_fmri_test/images/B.png'></img>	71,89	2750.0	test	<img class = center src='/static/experiments/beast_fmri_test/images/redB.png'></img>	stop	2000.0	2.0	35.0	stop	non-target	B	71,Index Finger	89,Middle Finger	650.0	750.0	2050.0	2000.0	0.0	750.0	0.0	n/a	ITI
167212	500	n/a	-1	-1	500	0.0	fixation	poldrack-single-stim	271	864101	0.0-13.36-0.36	beast_fmri_test	390	n/a	n/a	<div class = centerbox2><div class = fixation>+</div></div>	none	500.0	test	n/a	n/a	n/a	n/a	n/a	n/a	n/a	n/a	n/a	n/a	n/a	n/a	n/a	n/a	n/a	n/a	n/a	n/a	fixation
165075.17402013333	650.0	n/a	1273	89	2750	2141.82597987	stim	stop-signal	272	866856	0.0-13.36-1.36	beast_fmri_test	390	864242,/,864922,/,865602,/,866283,/,866961,/,867643,/,868323,/	t,t,t,t,t,t,t	<img class = center src='/static/experiments/beast_fmri_test/images/V.png'></img>	71,89	2750.0	test	<img class = center src='/static/experiments/beast_fmri_test/images/redV.png'></img>	stop	2100.0	2.0	36.0	stop	target	V	71,Index Finger	89,Middle Finger	650.0	700.0	2100.0	2000.0	0.0	650.0	0.0	n/a	go_stim
167175.17402013333	2100.0	n/a	1273	89	2750	2141.82597987	stim	stop-signal	272	866856	0.0-13.36-1.36	beast_fmri_test	390	864242,/,864922,/,865602,/,866283,/,866961,/,867643,/,868323,/	t,t,t,t,t,t,t	<img class = center src='/static/experiments/beast_fmri_test/images/V.png'></img>	71,89	2750.0	test	<img class = center src='/static/experiments/beast_fmri_test/images/redV.png'></img>	stop	2100.0	2.0	36.0	stop	target	V	71,Index Finger	89,Middle Finger	650.0	700.0	2100.0	2000.0	0.0	650.0	0.0	n/a	stop_stim
167825.17402013333	2141.825979866649	n/a	1273	89	2750	2141.82597987	stim	stop-signal	272	866856	0.0-13.36-1.36	beast_fmri_test	390	864242,/,864922,/,865602,/,866283,/,866961,/,867643,/,868323,/	t,t,t,t,t,t,t	<img class = center src='/static/experiments/beast_fmri_test/images/V.png'></img>	71,89	2750.0	test	<img class = center src='/static/experiments/beast_fmri_test/images/redV.png'></img>	stop	2100.0	2.0	36.0	stop	target	V	71,Index Finger	89,Middle Finger	650.0	700.0	2100.0	2000.0	0.0	650.0	0.0	n/a	ITI
172640	500	n/a	-1	-1	500	0.0	fixation	poldrack-single-stim	273	869529	0.0-13.37-0.37	beast_fmri_test	390	869028,/	t	<div class = centerbox2><div class = fixation>+</div></div>	none	500.0	test	n/a	n/a	n/a	n/a	n/a	n/a	n/a	n/a	n/a	n/a	n/a	n/a	n/a	n/a	n/a	n/a	n/a	n/a	fixation
172360.7112016324	2750	n/a	1648	89	2750	284.288798368	stim	stop-signal	274	872284	0.0-13.37-1.37	beast_fmri_test	390	869684,/,870365,/,871045,/,871725,/,872404,/	t,t,t,t,t	<img class = center src='/static/experiments/beast_fmri_test/images/P.png'></img>	71,89	2750.0	test	<img class = center src='/static/experiments/beast_fmri_test/images/redP.png'></img>	go	2050.0	2.0	37.0	go	non-target	P	71,Index Finger	89,Middle Finger	600.0	700.0	2100.0	2050.0	1.0	700.0	n/a	1.0	go_stim
175110.7112016324	284.28879836765583	n/a	1648	89	2750	284.288798368	stim	stop-signal	274	872284	0.0-13.37-1.37	beast_fmri_test	390	869684,/,870365,/,871045,/,871725,/,872404,/	t,t,t,t,t	<img class = center src='/static/experiments/beast_fmri_test/images/P.png'></img>	71,89	2750.0	test	<img class = center src='/static/experiments/beast_fmri_test/images/redP.png'></img>	go	2050.0	2.0	37.0	go	non-target	P	71,Index Finger	89,Middle Finger	600.0	700.0	2100.0	2050.0	1.0	700.0	n/a	1.0	ITI
176213	500	n/a	-1	-1	500	0.0	fixation	poldrack-single-stim	275	873102	0.0-13.38-0.38	beast_fmri_test	390	873085,/	t	<div class = centerbox2><div class = fixation>+</div></div>	none	500.0	test	n/a	n/a	n/a	n/a	n/a	n/a	n/a	n/a	n/a	n/a	n/a	n/a	n/a	n/a	n/a	n/a	n/a	n/a	fixation
175675.29275425232	2750	n/a	1096	71	2750	541.707245748	stim	stop-signal	276	875856	0.0-13.38-1.38	beast_fmri_test	390	873764,/,874446,/,875127,/,875807,/	t,t,t,t	<img class = center src='/static/experiments/beast_fmri_test/images/V.png'></img>	71,89	2750.0	test	<img class = center src='/static/experiments/beast_fmri_test/images/redV.png'></img>	go	2150.0	2.0	38.0	go	target	V	71,Index Finger	89,Middle Finger	600.0	700.0	2150.0	2050.0	1.0	600.0	n/a	1.0	go_stim
178425.29275425232	541.70724574764813	n/a	1096	71	2750	541.707245748	stim	stop-signal	276	875856	0.0-13.38-1.38	beast_fmri_test	390	873764,/,874446,/,875127,/,875807,/	t,t,t,t	<img class = center src='/static/experiments/beast_fmri_test/images/V.png'></img>	71,89	2750.0	test	<img class = center src='/static/experiments/beast_fmri_test/images/redV.png'></img>	go	2150.0	2.0	38.0	go	target	V	71,Index Finger	89,Middle Finger	600.0	700.0	2150.0	2050.0	1.0	600.0	n/a	1.0	ITI
180041	500	n/a	-1	-1	500	0.0	fixation	poldrack-single-stim	277	876930	0.0-13.39-0.39	beast_fmri_test	390	876487,/	t	<div class = centerbox2><div class = fixation>+</div></div>	none	500.0	test	n/a	n/a	n/a	n/a	n/a	n/a	n/a	n/a	n/a	n/a	n/a	n/a	n/a	n/a	n/a	n/a	n/a	n/a	fixation
176689.12750500569	700.0	n/a	865	89	2750	3355.87249499	stim	stop-signal	278	879684	0.0-13.39-1.39	beast_fmri_test	390	877167,/,877847,/,878527,/,879208,/,879888,/,880567,/,881249,/,881929,/,882608,/	t,t,t,t,t,t,t,t,t	<img class = center src='/static/experiments/beast_fmri_test/images/B.png'></img>	71,89	2750.0	test	<img class = center src='/static/experiments/beast_fmri_test/images/redB.png'></img>	stop	2050.0	2.0	39.0	stop	non-target	B	71,Index Finger	89,Middle Finger	600.0	700.0	2150.0	2050.0	0.0	700.0	0.0	n/a	go_stim
178739.12750500569	2050.0	n/a	865	89	2750	3355.87249499	stim	stop-signal	278	879684	0.0-13.39-1.39	beast_fmri_test	390	877167,/,877847,/,878527,/,879208,/,879888,/,880567,/,881249,/,881929,/,882608,/	t,t,t,t,t,t,t,t,t	<img class = center src='/static/experiments/beast_fmri_test/images/B.png'></img>	71,89	2750.0	test	<img class = center src='/static/experiments/beast_fmri_test/images/redB.png'></img>	stop	2050.0	2.0	39.0	stop	non-target	B	71,Index Finger	89,Middle Finger	600.0	700.0	2150.0	2050.0	0.0	700.0	0.0	n/a	stop_stim
179439.12750500569	3355.8724949943125	n/a	865	89	2750	3355.87249499	stim	stop-signal	278	879684	0.0-13.39-1.39	beast_fmri_test	390	877167,/,877847,/,878527,/,879208,/,879888,/,880567,/,881249,/,881929,/,882608,/	t,t,t,t,t,t,t,t,t	<img class = center src='/static/experiments/beast_fmri_test/images/B.png'></img>	71,89	2750.0	test	<img class = center src='/static/experiments/beast_fmri_test/images/redB.png'></img>	stop	2050.0	2.0	39.0	stop	non-target	B	71,Index Finger	89,Middle Finger	600.0	700.0	2150.0	2050.0	0.0	700.0	0.0	n/a	ITI
186684	500	n/a	-1	-1	500	0.0	fixation	poldrack-single-stim	279	883573	0.0-13.40-0.40	beast_fmri_test	390	883289,/	t	<div class = centerbox2><div class = fixation>+</div></div>	none	500.0	test	n/a	n/a	n/a	n/a	n/a	n/a	n/a	n/a	n/a	n/a	n/a	n/a	n/a	n/a	n/a	n/a	n/a	n/a	fixation
184825.67074930447	2750	n/a	767	89	2750	1862.3292507	stim	stop-signal	280	886327	0.0-13.40-1.40	beast_fmri_test	390	883970,/,884651,/,885331,/,886011,/,886691,/,887372,/,888053,/	t,t,t,t,t,t,t	<img class = center src='/static/experiments/beast_fmri_test/images/P.png'></img>	71,89	2750.0	test	<img class = center src='/static/experiments/beast_fmri_test/images/redP.png'></img>	go	2100.0	2.0	40.0	go	non-target	P	71,Index Finger	89,Middle Finger	600.0	650.0	2150.0	2100.0	1.0	650.0	n/a	1.0	go_stim
187575.67074930447	1862.3292506955759	n/a	767	89	2750	1862.3292507	stim	stop-signal	280	886327	0.0-13.40-1.40	beast_fmri_test	390	883970,/,884651,/,885331,/,886011,/,886691,/,887372,/,888053,/	t,t,t,t,t,t,t	<img class = center src='/static/experiments/beast_fmri_test/images/P.png'></img>	71,89	2750.0	test	<img class = center src='/static/experiments/beast_fmri_test/images/redP.png'></img>	go	2100.0	2.0	40.0	go	non-target	P	71,Index Finger	89,Middle Finger	600.0	650.0	2150.0	2100.0	1.0	650.0	n/a	1.0	ITI
191832	500	n/a	-1	-1	500	0.0	fixation	poldrack-single-stim	281	888721	0.0-13.41-0.41	beast_fmri_test	390	n/a	n/a	<div class = centerbox2><div class = fixation>+</div></div>	none	500.0	test	n/a	n/a	n/a	n/a	n/a	n/a	n/a	n/a	n/a	n/a	n/a	n/a	n/a	n/a	n/a	n/a	n/a	n/a	fixation
191138.01819162187	650.0	n/a	1004	89	2750	696.981808378	stim	stop-signal	282	891474	0.0-13.41-1.41	beast_fmri_test	390	888732,/,889412,/,890094,/,890773,/,891452,/,892134,/	t,t,t,t,t,t	<img class = center src='/static/experiments/beast_fmri_test/images/P.png'></img>	71,89	2750.0	test	<img class = center src='/static/experiments/beast_fmri_test/images/redP.png'></img>	stop	2100.0	2.0	41.0	stop	non-target	P	71,Index Finger	89,Middle Finger	600.0	650.0	2150.0	2100.0	0.0	650.0	0.0	n/a	go_stim
193238.01819162187	2100.0	n/a	1004	89	2750	696.981808378	stim	stop-signal	282	891474	0.0-13.41-1.41	beast_fmri_test	390	888732,/,889412,/,890094,/,890773,/,891452,/,892134,/	t,t,t,t,t,t	<img class = center src='/static/experiments/beast_fmri_test/images/P.png'></img>	71,89	2750.0	test	<img class = center src='/static/experiments/beast_fmri_test/images/redP.png'></img>	stop	2100.0	2.0	41.0	stop	non-target	P	71,Index Finger	89,Middle Finger	600.0	650.0	2150.0	2100.0	0.0	650.0	0.0	n/a	stop_stim
193888.01819162187	696.98180837811162	n/a	1004	89	2750	696.981808378	stim	stop-signal	282	891474	0.0-13.41-1.41	beast_fmri_test	390	888732,/,889412,/,890094,/,890773,/,891452,/,892134,/	t,t,t,t,t,t	<img class = center src='/static/experiments/beast_fmri_test/images/P.png'></img>	71,89	2750.0	test	<img class = center src='/static/experiments/beast_fmri_test/images/redP.png'></img>	stop	2100.0	2.0	41.0	stop	non-target	P	71,Index Finger	89,Middle Finger	600.0	650.0	2150.0	2100.0	0.0	650.0	0.0	n/a	ITI
195814	500	n/a	-1	-1	500	0.0	fixation	poldrack-single-stim	283	892703	0.0-13.42-0.42	beast_fmri_test	390	n/a	n/a	<div class = centerbox2><div class = fixation>+</div></div>	none	500.0	test	n/a	n/a	n/a	n/a	n/a	n/a	n/a	n/a	n/a	n/a	n/a	n/a	n/a	n/a	n/a	n/a	n/a	n/a	fixation
192208.51618269202	2750	n/a	529	89	2750	3610.48381731	stim	stop-signal	284	895458	0.0-13.42-1.42	beast_fmri_test	390	892815,/,893495,/,894175,/,894855,/,895535,/,896215,/,896896,/,897577,/,898257,/,898937,/	t,t,t,t,t,t,t,t,t,t	<img class = center src='/static/experiments/beast_fmri_test/images/D.png'></img>	71,89	2750.0	test	<img class = center src='/static/experiments/beast_fmri_test/images/redD.png'></img>	go	2150.0	2.0	42.0	go	non-target	D	71,Index Finger	89,Middle Finger	600.0	600.0	2150.0	2150.0	1.0	600.0	n/a	1.0	go_stim
194958.51618269202	3610.4838173080348	n/a	529	89	2750	3610.48381731	stim	stop-signal	284	895458	0.0-13.42-1.42	beast_fmri_test	390	892815,/,893495,/,894175,/,894855,/,895535,/,896215,/,896896,/,897577,/,898257,/,898937,/	t,t,t,t,t,t,t,t,t,t	<img class = center src='/static/experiments/beast_fmri_test/images/D.png'></img>	71,89	2750.0	test	<img class = center src='/static/experiments/beast_fmri_test/images/redD.png'></img>	go	2150.0	2.0	42.0	go	non-target	D	71,Index Finger	89,Middle Finger	600.0	600.0	2150.0	2150.0	1.0	600.0	n/a	1.0	ITI
202713	500	n/a	-1	-1	500	0.0	fixation	poldrack-single-stim	285	899602	0.0-13.43-0.43	beast_fmri_test	390	n/a	n/a	<div class = centerbox2><div class = fixation>+</div></div>	none	500.0	test	n/a	n/a	n/a	n/a	n/a	n/a	n/a	n/a	n/a	n/a	n/a	n/a	n/a	n/a	n/a	n/a	n/a	n/a	fixation
202241.55275027128	2750	n/a	979	71	2750	476.447249729	stim	stop-signal	286	902357	0.0-13.43-1.43	beast_fmri_test	390	899621,/,900297,/,900978,/,901656,/,902338,/	t,t,t,t,t	<img class = center src='/static/experiments/beast_fmri_test/images/P.png'></img>	71,89	2750.0	test	<img class = center src='/static/experiments/beast_fmri_test/images/redP.png'></img>	go	2150.0	2.0	43.0	go	target	P	71,Index Finger	89,Middle Finger	600.0	600.0	2150.0	2150.0	1.0	600.0	n/a	1.0	go_stim
204991.55275027128	476.44724972867562	n/a	979	71	2750	476.447249729	stim	stop-signal	286	902357	0.0-13.43-1.43	beast_fmri_test	390	899621,/,900297,/,900978,/,901656,/,902338,/	t,t,t,t,t	<img class = center src='/static/experiments/beast_fmri_test/images/P.png'></img>	71,89	2750.0	test	<img class = center src='/static/experiments/beast_fmri_test/images/redP.png'></img>	go	2150.0	2.0	43.0	go	target	P	71,Index Finger	89,Middle Finger	600.0	600.0	2150.0	2150.0	1.0	600.0	n/a	1.0	ITI
206479	500	n/a	-1	-1	500	0.0	fixation	poldrack-single-stim	287	903368	0.0-13.44-0.44	beast_fmri_test	390	903019,/	t	<div class = centerbox2><div class = fixation>+</div></div>	none	500.0	test	n/a	n/a	n/a	n/a	n/a	n/a	n/a	n/a	n/a	n/a	n/a	n/a	n/a	n/a	n/a	n/a	n/a	n/a	fixation
204418.07088212972	600.0	n/a	-1	-1	2750	2064.92911787	stim	stop-signal	288	906122	0.0-13.44-1.44	beast_fmri_test	390	903699,/,904379,/,905059,/,905739,/,906420,/,907100,/,907780,/	t,t,t,t,t,t,t	<img class = center src='/static/experiments/beast_fmri_test/images/D.png'></img>	71,89	2750.0	test	<img class = center src='/static/experiments/beast_fmri_test/images/redD.png'></img>	stop	2150.0	2.0	44.0	stop	target	D	71,Index Finger	89,Middle Finger	600.0	600.0	2150.0	2150.0	0.0	600.0	1.0	n/a	go_stim
206568.07088212972	2150.0	n/a	-1	-1	2750	2064.92911787	stim	stop-signal	288	906122	0.0-13.44-1.44	beast_fmri_test	390	903699,/,904379,/,905059,/,905739,/,906420,/,907100,/,907780,/	t,t,t,t,t,t,t	<img class = center src='/static/experiments/beast_fmri_test/images/D.png'></img>	71,89	2750.0	test	<img class = center src='/static/experiments/beast_fmri_test/images/redD.png'></img>	stop	2150.0	2.0	44.0	stop	target	D	71,Index Finger	89,Middle Finger	600.0	600.0	2150.0	2150.0	0.0	600.0	1.0	n/a	stop_stim
207168.07088212972	2064.9291178703234	n/a	-1	-1	2750	2064.92911787	stim	stop-signal	288	906122	0.0-13.44-1.44	beast_fmri_test	390	903699,/,904379,/,905059,/,905739,/,906420,/,907100,/,907780,/	t,t,t,t,t,t,t	<img class = center src='/static/experiments/beast_fmri_test/images/D.png'></img>	71,89	2750.0	test	<img class = center src='/static/experiments/beast_fmri_test/images/redD.png'></img>	stop	2150.0	2.0	44.0	stop	target	D	71,Index Finger	89,Middle Finger	600.0	600.0	2150.0	2150.0	0.0	600.0	1.0	n/a	ITI
211833	500	n/a	-1	-1	500	0.0	fixation	poldrack-single-stim	289	908722	0.0-13.45-0.45	beast_fmri_test	390	908461,/	t	<div class = centerbox2><div class = fixation>+</div></div>	none	500.0	test	n/a	n/a	n/a	n/a	n/a	n/a	n/a	n/a	n/a	n/a	n/a	n/a	n/a	n/a	n/a	n/a	n/a	n/a	fixation
210626.79220842349	2750	n/a	1497	89	2750	1210.20779158	stim	stop-signal	290	911476	0.0-13.45-1.45	beast_fmri_test	390	909140,/,909822,/,910502,/,911181,/,911862,/,912543,/	t,t,t,t,t,t	<img class = center src='/static/experiments/beast_fmri_test/images/V.png'></img>	71,89	2750.0	test	<img class = center src='/static/experiments/beast_fmri_test/images/redV.png'></img>	go	2150.0	2.0	45.0	go	non-target	V	71,Index Finger	89,Middle Finger	650.0	600.0	2150.0	2150.0	1.0	600.0	n/a	1.0	go_stim
213376.79220842349	1210.2077915765512	n/a	1497	89	2750	1210.20779158	stim	stop-signal	290	911476	0.0-13.45-1.45	beast_fmri_test	390	909140,/,909822,/,910502,/,911181,/,911862,/,912543,/	t,t,t,t,t,t	<img class = center src='/static/experiments/beast_fmri_test/images/V.png'></img>	71,89	2750.0	test	<img class = center src='/static/experiments/beast_fmri_test/images/redV.png'></img>	go	2150.0	2.0	45.0	go	non-target	V	71,Index Finger	89,Middle Finger	650.0	600.0	2150.0	2150.0	1.0	600.0	n/a	1.0	ITI
216331	500	n/a	-1	-1	500	0.0	fixation	poldrack-single-stim	291	913220	0.0-13.46-0.46	beast_fmri_test	390	n/a	n/a	<div class = centerbox2><div class = fixation>+</div></div>	none	500.0	test	n/a	n/a	n/a	n/a	n/a	n/a	n/a	n/a	n/a	n/a	n/a	n/a	n/a	n/a	n/a	n/a	n/a	n/a	fixation
215411.77210683178	2750	n/a	1821	71	2750	923.227893168	stim	stop-signal	292	915974	0.0-13.46-1.46	beast_fmri_test	390	913223,/,913904,/,914584,/,915264,/,915945,/,916625,/	t,t,t,t,t,t	<img class = center src='/static/experiments/beast_fmri_test/images/D.png'></img>	71,89	2750.0	test	<img class = center src='/static/experiments/beast_fmri_test/images/redD.png'></img>	go	2100.0	2.0	46.0	go	target	D	71,Index Finger	89,Middle Finger	650.0	600.0	2100.0	2150.0	1.0	650.0	n/a	1.0	go_stim
218161.77210683178	923.22789316826152	n/a	1821	71	2750	923.227893168	stim	stop-signal	292	915974	0.0-13.46-1.46	beast_fmri_test	390	913223,/,913904,/,914584,/,915264,/,915945,/,916625,/	t,t,t,t,t,t	<img class = center src='/static/experiments/beast_fmri_test/images/D.png'></img>	71,89	2750.0	test	<img class = center src='/static/experiments/beast_fmri_test/images/redD.png'></img>	go	2100.0	2.0	46.0	go	target	D	71,Index Finger	89,Middle Finger	650.0	600.0	2100.0	2150.0	1.0	650.0	n/a	1.0	ITI
235049	15000	n/a	-1	-1	15000	0.0	practice-no-stop-feedback	poldrack-single-stim	293	931938	0.0-14.0	beast_fmri_test	390	917306,/,917986,/,918666,/,919346,/,920026,/,920707,/,921387,/,922068,/,922748,/,923428,/,924108,/,924788,/,925469,/,926149,/,926829,/,927510,/,928189,/,928869,/,929550,/,930231,/,930911,/,931592,/	t,t,t,t,t,t,t,t,t,t,t,t,t,t,t,t,t,t,t,t,t,t	"<div class = ""centerbox2_2""><p class = ""block-text2"">Your delay is 3 trials.</p><p class = block-text2>Please wait for the scanner to start the block</p></div>"	77	15000.0	n/a	n/a	n/a	n/a	n/a	n/a	n/a	n/a	n/a	n/a	n/a	n/a	n/a	n/a	n/a	n/a	n/a	n/a	n/a	practice-no-stop-feedback
235553	500	n/a	-1	-1	500	0.0	fixation	poldrack-single-stim	294	932442	0.0-15.0-0.0	beast_fmri_test	390	932272,/	t	<div class = centerbox2><div class = fixation>+</div></div>	none	500.0	test	n/a	n/a	n/a	n/a	n/a	n/a	n/a	n/a	n/a	n/a	n/a	n/a	n/a	n/a	n/a	n/a	n/a	n/a	fixation
235173.27228461124	temp_go_duration	n/a	1188	89	2750	383.727715389	stim	stop-signal	295	935196	0.0-15.0-1.0	beast_fmri_test	390	932952,/,933632,/,934312,/,934993,/	t,t,t,t	<img class = center src='/static/experiments/beast_fmri_test/images/V.png'></img>	71,89	2750.0	test	<img class = center src='/static/experiments/beast_fmri_test/images/redV.png'></img>	stop	-1.0	3.0	0.0	stop	temp-non-target	V	71,Index Finger	89,Middle Finger	650.0	600.0	2100.0	2150.0	0.0	n/a	0.0	n/a	go_stim
temp-non-target	temp_stop_duration	n/a	1188	89	2750	383.727715389	stim	stop-signal	295	935196	0.0-15.0-1.0	beast_fmri_test	390	932952,/,933632,/,934312,/,934993,/	t,t,t,t	<img class = center src='/static/experiments/beast_fmri_test/images/V.png'></img>	71,89	2750.0	test	<img class = center src='/static/experiments/beast_fmri_test/images/redV.png'></img>	stop	-1.0	3.0	0.0	stop	temp-non-target	V	71,Index Finger	89,Middle Finger	650.0	600.0	2100.0	2150.0	0.0	n/a	0.0	n/a	stop_stim
237923.27228461124	383.72771538874895	n/a	1188	89	2750	383.727715389	stim	stop-signal	295	935196	0.0-15.0-1.0	beast_fmri_test	390	932952,/,933632,/,934312,/,934993,/	t,t,t,t	<img class = center src='/static/experiments/beast_fmri_test/images/V.png'></img>	71,89	2750.0	test	<img class = center src='/static/experiments/beast_fmri_test/images/redV.png'></img>	stop	-1.0	3.0	0.0	stop	temp-non-target	V	71,Index Finger	89,Middle Finger	650.0	600.0	2100.0	2150.0	0.0	n/a	0.0	n/a	ITI
239226	500	n/a	-1	-1	500	0.0	fixation	poldrack-single-stim	296	936115	0.0-15.1-0.1	beast_fmri_test	390	935673,/	t	<div class = centerbox2><div class = fixation>+</div></div>	none	500.0	test	n/a	n/a	n/a	n/a	n/a	n/a	n/a	n/a	n/a	n/a	n/a	n/a	n/a	n/a	n/a	n/a	n/a	n/a	fixation
238747.01270188193	2750	n/a	429	89	2750	481.987298118	stim	stop-signal	297	938868	0.0-15.1-1.1	beast_fmri_test	390	936353,/,937033,/,937714,/,938394,/,939076,/	t,t,t,t,t	<img class = center src='/static/experiments/beast_fmri_test/images/B.png'></img>	71,89	2750.0	test	<img class = center src='/static/experiments/beast_fmri_test/images/redB.png'></img>	go	-1.0	3.0	1.0	go	temp-non-target	B	71,Index Finger	89,Middle Finger	650.0	600.0	2100.0	2150.0	0.0	n/a	n/a	n/a	go_stim
241497.01270188193	481.98729811806771	n/a	429	89	2750	481.987298118	stim	stop-signal	297	938868	0.0-15.1-1.1	beast_fmri_test	390	936353,/,937033,/,937714,/,938394,/,939076,/	t,t,t,t,t	<img class = center src='/static/experiments/beast_fmri_test/images/B.png'></img>	71,89	2750.0	test	<img class = center src='/static/experiments/beast_fmri_test/images/redB.png'></img>	go	-1.0	3.0	1.0	go	temp-non-target	B	71,Index Finger	89,Middle Finger	650.0	600.0	2100.0	2150.0	0.0	n/a	n/a	n/a	ITI
242990	500	n/a	-1	-1	500	0.0	fixation	poldrack-single-stim	298	939879	0.0-15.2-0.2	beast_fmri_test	390	939755,/	t	<div class = centerbox2><div class = fixation>+</div></div>	none	500.0	test	n/a	n/a	n/a	n/a	n/a	n/a	n/a	n/a	n/a	n/a	n/a	n/a	n/a	n/a	n/a	n/a	n/a	n/a	fixation
241201.67060639965	2750	n/a	972	89	2750	1790.3293936	stim	stop-signal	299	942631	0.0-15.2-1.2	beast_fmri_test	390	940435,/,941116,/,941796,/,942476,/,943157,/,943838,/	t,t,t,t,t,t	<img class = center src='/static/experiments/beast_fmri_test/images/P.png'></img>	71,89	2750.0	test	<img class = center src='/static/experiments/beast_fmri_test/images/redP.png'></img>	go	-1.0	3.0	2.0	go	temp-non-target	P	71,Index Finger	89,Middle Finger	650.0	600.0	2100.0	2150.0	0.0	n/a	n/a	n/a	go_stim
243951.67060639965	1790.3293936003327	n/a	972	89	2750	1790.3293936	stim	stop-signal	299	942631	0.0-15.2-1.2	beast_fmri_test	390	940435,/,941116,/,941796,/,942476,/,943157,/,943838,/	t,t,t,t,t,t	<img class = center src='/static/experiments/beast_fmri_test/images/P.png'></img>	71,89	2750.0	test	<img class = center src='/static/experiments/beast_fmri_test/images/redP.png'></img>	go	-1.0	3.0	2.0	go	temp-non-target	P	71,Index Finger	89,Middle Finger	650.0	600.0	2100.0	2150.0	0.0	n/a	n/a	n/a	ITI
248066	500	n/a	-1	-1	500	0.0	fixation	poldrack-single-stim	300	944955	0.0-15.3-0.3	beast_fmri_test	390	944518,/	t	<div class = centerbox2><div class = fixation>+</div></div>	none	500.0	test	n/a	n/a	n/a	n/a	n/a	n/a	n/a	n/a	n/a	n/a	n/a	n/a	n/a	n/a	n/a	n/a	n/a	n/a	fixation
248064.48845378764	600.0	n/a	-1	-1	2750	5.51154621235	stim	stop-signal	301	947709	0.0-15.3-1.3	beast_fmri_test	390	945197,/,945878,/,946559,/,947239,/	t,t,t,t	<img class = center src='/static/experiments/beast_fmri_test/images/D.png'></img>	71,89	2750.0	test	<img class = center src='/static/experiments/beast_fmri_test/images/redD.png'></img>	stop	2150.0	3.0	3.0	stop	non-target	D	71,Index Finger	89,Middle Finger	650.0	600.0	2100.0	2150.0	0.0	600.0	1.0	n/a	go_stim
250214.48845378764	2150.0	n/a	-1	-1	2750	5.51154621235	stim	stop-signal	301	947709	0.0-15.3-1.3	beast_fmri_test	390	945197,/,945878,/,946559,/,947239,/	t,t,t,t	<img class = center src='/static/experiments/beast_fmri_test/images/D.png'></img>	71,89	2750.0	test	<img class = center src='/static/experiments/beast_fmri_test/images/redD.png'></img>	stop	2150.0	3.0	3.0	stop	non-target	D	71,Index Finger	89,Middle Finger	650.0	600.0	2100.0	2150.0	0.0	600.0	1.0	n/a	stop_stim
250814.48845378764	5.5115462123474517	n/a	-1	-1	2750	5.51154621235	stim	stop-signal	301	947709	0.0-15.3-1.3	beast_fmri_test	390	945197,/,945878,/,946559,/,947239,/	t,t,t,t	<img class = center src='/static/experiments/beast_fmri_test/images/D.png'></img>	71,89	2750.0	test	<img class = center src='/static/experiments/beast_fmri_test/images/redD.png'></img>	stop	2150.0	3.0	3.0	stop	non-target	D	71,Index Finger	89,Middle Finger	650.0	600.0	2100.0	2150.0	0.0	600.0	1.0	n/a	ITI
251359	500	n/a	-1	-1	500	0.0	fixation	poldrack-single-stim	302	948248	0.0-15.4-0.4	beast_fmri_test	390	947919,/	t	<div class = centerbox2><div class = fixation>+</div></div>	none	500.0	test	n/a	n/a	n/a	n/a	n/a	n/a	n/a	n/a	n/a	n/a	n/a	n/a	n/a	n/a	n/a	n/a	n/a	n/a	fixation
249770.29599940509	2750	n/a	1220	89	2750	1592.70400059	stim	stop-signal	303	951002	0.0-15.4-1.4	beast_fmri_test	390	948598,/,949279,/,949960,/,950640,/,951320,/,952000,/	t,t,t,t,t,t	<img class = center src='/static/experiments/beast_fmri_test/images/T.png'></img>	71,89	2750.0	test	<img class = center src='/static/experiments/beast_fmri_test/images/redT.png'></img>	go	2100.0	3.0	4.0	go	non-target	T	71,Index Finger	89,Middle Finger	650.0	650.0	2100.0	2100.0	1.0	650.0	n/a	1.0	go_stim
252520.29599940509	1592.7040005948554	n/a	1220	89	2750	1592.70400059	stim	stop-signal	303	951002	0.0-15.4-1.4	beast_fmri_test	390	948598,/,949279,/,949960,/,950640,/,951320,/,952000,/	t,t,t,t,t,t	<img class = center src='/static/experiments/beast_fmri_test/images/T.png'></img>	71,89	2750.0	test	<img class = center src='/static/experiments/beast_fmri_test/images/redT.png'></img>	go	2100.0	3.0	4.0	go	non-target	T	71,Index Finger	89,Middle Finger	650.0	650.0	2100.0	2100.0	1.0	650.0	n/a	1.0	ITI
256241	500	n/a	-1	-1	500	0.0	fixation	poldrack-single-stim	304	953130	0.0-15.5-0.5	beast_fmri_test	390	952680,/	t	<div class = centerbox2><div class = fixation>+</div></div>	none	500.0	test	n/a	n/a	n/a	n/a	n/a	n/a	n/a	n/a	n/a	n/a	n/a	n/a	n/a	n/a	n/a	n/a	n/a	n/a	fixation
256205.40659693931	2750	n/a	1988	71	2750	39.5934030606	stim	stop-signal	305	955884	0.0-15.5-1.5	beast_fmri_test	390	953362,/,954042,/,954721,/,955402,/	t,t,t,t	<img class = center src='/static/experiments/beast_fmri_test/images/P.png'></img>	71,89	2750.0	test	<img class = center src='/static/experiments/beast_fmri_test/images/redP.png'></img>	go	2100.0	3.0	5.0	go	target	P	71,Index Finger	89,Middle Finger	650.0	650.0	2100.0	2100.0	1.0	650.0	n/a	1.0	go_stim
258955.40659693931	39.593403060634557	n/a	1988	71	2750	39.5934030606	stim	stop-signal	305	955884	0.0-15.5-1.5	beast_fmri_test	390	953362,/,954042,/,954721,/,955402,/	t,t,t,t	<img class = center src='/static/experiments/beast_fmri_test/images/P.png'></img>	71,89	2750.0	test	<img class = center src='/static/experiments/beast_fmri_test/images/redP.png'></img>	go	2100.0	3.0	5.0	go	target	P	71,Index Finger	89,Middle Finger	650.0	650.0	2100.0	2100.0	1.0	650.0	n/a	1.0	ITI
259570	500	n/a	-1	-1	500	0.0	fixation	poldrack-single-stim	306	956459	0.0-15.6-0.6	beast_fmri_test	390	956082,/	t	<div class = centerbox2><div class = fixation>+</div></div>	none	500.0	test	n/a	n/a	n/a	n/a	n/a	n/a	n/a	n/a	n/a	n/a	n/a	n/a	n/a	n/a	n/a	n/a	n/a	n/a	fixation
259452.74902910879	650.0	n/a	-1	-1	2750	121.250970891	stim	stop-signal	307	959213	0.0-15.6-1.6	beast_fmri_test	390	956762,/,957443,/,958123,/,958804,/	t,t,t,t	<img class = center src='/static/experiments/beast_fmri_test/images/D.png'></img>	71,89	2750.0	test	<img class = center src='/static/experiments/beast_fmri_test/images/redD.png'></img>	stop	2100.0	3.0	6.0	stop	target	D	71,Index Finger	89,Middle Finger	650.0	650.0	2100.0	2100.0	0.0	650.0	1.0	n/a	go_stim
261552.74902910879	2100.0	n/a	-1	-1	2750	121.250970891	stim	stop-signal	307	959213	0.0-15.6-1.6	beast_fmri_test	390	956762,/,957443,/,958123,/,958804,/	t,t,t,t	<img class = center src='/static/experiments/beast_fmri_test/images/D.png'></img>	71,89	2750.0	test	<img class = center src='/static/experiments/beast_fmri_test/images/redD.png'></img>	stop	2100.0	3.0	6.0	stop	target	D	71,Index Finger	89,Middle Finger	650.0	650.0	2100.0	2100.0	0.0	650.0	1.0	n/a	stop_stim
262202.74902910879	121.25097089121981	n/a	-1	-1	2750	121.250970891	stim	stop-signal	307	959213	0.0-15.6-1.6	beast_fmri_test	390	956762,/,957443,/,958123,/,958804,/	t,t,t,t	<img class = center src='/static/experiments/beast_fmri_test/images/D.png'></img>	71,89	2750.0	test	<img class = center src='/static/experiments/beast_fmri_test/images/redD.png'></img>	stop	2100.0	3.0	6.0	stop	target	D	71,Index Finger	89,Middle Finger	650.0	650.0	2100.0	2100.0	0.0	650.0	1.0	n/a	ITI
262981	500	n/a	-1	-1	500	0.0	fixation	poldrack-single-stim	308	959870	0.0-15.7-0.7	beast_fmri_test	390	959484,/	t	<div class = centerbox2><div class = fixation>+</div></div>	none	500.0	test	n/a	n/a	n/a	n/a	n/a	n/a	n/a	n/a	n/a	n/a	n/a	n/a	n/a	n/a	n/a	n/a	n/a	n/a	fixation
262426.8797798038	2750	n/a	1000	89	2750	558.120220196	stim	stop-signal	309	962624	0.0-15.7-1.7	beast_fmri_test	390	960164,/,960844,/,961524,/,962204,/,962885,/	t,t,t,t,t	<img class = center src='/static/experiments/beast_fmri_test/images/D.png'></img>	71,89	2750.0	test	<img class = center src='/static/experiments/beast_fmri_test/images/redD.png'></img>	go	2100.0	3.0	7.0	go	non-target	D	71,Index Finger	89,Middle Finger	700.0	650.0	2100.0	2100.0	1.0	650.0	n/a	1.0	go_stim
265176.8797798038	558.12022019623453	n/a	1000	89	2750	558.120220196	stim	stop-signal	309	962624	0.0-15.7-1.7	beast_fmri_test	390	960164,/,960844,/,961524,/,962204,/,962885,/	t,t,t,t,t	<img class = center src='/static/experiments/beast_fmri_test/images/D.png'></img>	71,89	2750.0	test	<img class = center src='/static/experiments/beast_fmri_test/images/redD.png'></img>	go	2100.0	3.0	7.0	go	non-target	D	71,Index Finger	89,Middle Finger	700.0	650.0	2100.0	2100.0	1.0	650.0	n/a	1.0	ITI
266829	500	n/a	-1	-1	500	0.0	fixation	poldrack-single-stim	310	963718	0.0-15.8-0.8	beast_fmri_test	390	963565,/	t	<div class = centerbox2><div class = fixation>+</div></div>	none	500.0	test	n/a	n/a	n/a	n/a	n/a	n/a	n/a	n/a	n/a	n/a	n/a	n/a	n/a	n/a	n/a	n/a	n/a	n/a	fixation
266451.79871292633	2750	n/a	966	89	2750	382.201287074	stim	stop-signal	311	966473	0.0-15.8-1.8	beast_fmri_test	390	964246,/,964926,/,965606,/,966286,/	t,t,t,t	<img class = center src='/static/experiments/beast_fmri_test/images/D.png'></img>	71,89	2750.0	test	<img class = center src='/static/experiments/beast_fmri_test/images/redD.png'></img>	go	2100.0	3.0	8.0	go	non-target	D	71,Index Finger	89,Middle Finger	700.0	650.0	2100.0	2100.0	1.0	650.0	n/a	1.0	go_stim
269201.79871292633	382.20128707364637	n/a	966	89	2750	382.201287074	stim	stop-signal	311	966473	0.0-15.8-1.8	beast_fmri_test	390	964246,/,964926,/,965606,/,966286,/	t,t,t,t	<img class = center src='/static/experiments/beast_fmri_test/images/D.png'></img>	71,89	2750.0	test	<img class = center src='/static/experiments/beast_fmri_test/images/redD.png'></img>	go	2100.0	3.0	8.0	go	non-target	D	71,Index Finger	89,Middle Finger	700.0	650.0	2100.0	2100.0	1.0	650.0	n/a	1.0	ITI
270501	500	n/a	-1	-1	500	0.0	fixation	poldrack-single-stim	312	967390	0.0-15.9-0.9	beast_fmri_test	390	966967,/	t	<div class = centerbox2><div class = fixation>+</div></div>	none	500.0	test	n/a	n/a	n/a	n/a	n/a	n/a	n/a	n/a	n/a	n/a	n/a	n/a	n/a	n/a	n/a	n/a	n/a	n/a	fixation
270489.2616584542	650.0	n/a	-1	-1	2750	15.7383415458	stim	stop-signal	313	970144	0.0-15.9-1.9	beast_fmri_test	390	967647,/,968328,/,969008,/,969689,/	t,t,t,t	<img class = center src='/static/experiments/beast_fmri_test/images/V.png'></img>	71,89	2750.0	test	<img class = center src='/static/experiments/beast_fmri_test/images/redV.png'></img>	stop	2100.0	3.0	9.0	stop	non-target	V	71,Index Finger	89,Middle Finger	700.0	650.0	2100.0	2100.0	0.0	650.0	1.0	n/a	go_stim
272589.2616584542	2100.0	n/a	-1	-1	2750	15.7383415458	stim	stop-signal	313	970144	0.0-15.9-1.9	beast_fmri_test	390	967647,/,968328,/,969008,/,969689,/	t,t,t,t	<img class = center src='/static/experiments/beast_fmri_test/images/V.png'></img>	71,89	2750.0	test	<img class = center src='/static/experiments/beast_fmri_test/images/redV.png'></img>	stop	2100.0	3.0	9.0	stop	non-target	V	71,Index Finger	89,Middle Finger	700.0	650.0	2100.0	2100.0	0.0	650.0	1.0	n/a	stop_stim
273239.2616584542	15.738341545760466	n/a	-1	-1	2750	15.7383415458	stim	stop-signal	313	970144	0.0-15.9-1.9	beast_fmri_test	390	967647,/,968328,/,969008,/,969689,/	t,t,t,t	<img class = center src='/static/experiments/beast_fmri_test/images/V.png'></img>	71,89	2750.0	test	<img class = center src='/static/experiments/beast_fmri_test/images/redV.png'></img>	stop	2100.0	3.0	9.0	stop	non-target	V	71,Index Finger	89,Middle Finger	700.0	650.0	2100.0	2100.0	0.0	650.0	1.0	n/a	ITI
273804	500	n/a	-1	-1	500	0.0	fixation	poldrack-single-stim	314	970693	0.0-15.10-0.10	beast_fmri_test	390	970369,/	t	<div class = centerbox2><div class = fixation>+</div></div>	none	500.0	test	n/a	n/a	n/a	n/a	n/a	n/a	n/a	n/a	n/a	n/a	n/a	n/a	n/a	n/a	n/a	n/a	n/a	n/a	fixation
272265.23333577125	700.0	n/a	-1	-1	2750	1543.76666423	stim	stop-signal	315	973448	0.0-15.10-1.10	beast_fmri_test	390	971049,/,971729,/,972410,/,973090,/,973770,/,974451,/	t,t,t,t,t,t	<img class = center src='/static/experiments/beast_fmri_test/images/P.png'></img>	71,89	2750.0	test	<img class = center src='/static/experiments/beast_fmri_test/images/redP.png'></img>	stop	2050.0	3.0	10.0	stop	non-target	P	71,Index Finger	89,Middle Finger	700.0	700.0	2100.0	2050.0	0.0	700.0	1.0	n/a	go_stim
274315.23333577125	2050.0	n/a	-1	-1	2750	1543.76666423	stim	stop-signal	315	973448	0.0-15.10-1.10	beast_fmri_test	390	971049,/,971729,/,972410,/,973090,/,973770,/,974451,/	t,t,t,t,t,t	<img class = center src='/static/experiments/beast_fmri_test/images/P.png'></img>	71,89	2750.0	test	<img class = center src='/static/experiments/beast_fmri_test/images/redP.png'></img>	stop	2050.0	3.0	10.0	stop	non-target	P	71,Index Finger	89,Middle Finger	700.0	700.0	2100.0	2050.0	0.0	700.0	1.0	n/a	stop_stim
275015.23333577125	1543.7666642288004	n/a	-1	-1	2750	1543.76666423	stim	stop-signal	315	973448	0.0-15.10-1.10	beast_fmri_test	390	971049,/,971729,/,972410,/,973090,/,973770,/,974451,/	t,t,t,t,t,t	<img class = center src='/static/experiments/beast_fmri_test/images/P.png'></img>	71,89	2750.0	test	<img class = center src='/static/experiments/beast_fmri_test/images/redP.png'></img>	stop	2050.0	3.0	10.0	stop	non-target	P	71,Index Finger	89,Middle Finger	700.0	700.0	2100.0	2050.0	0.0	700.0	1.0	n/a	ITI
278637	500	n/a	-1	-1	500	0.0	fixation	poldrack-single-stim	316	975526	0.0-15.11-0.11	beast_fmri_test	390	975131,/	t	<div class = centerbox2><div class = fixation>+</div></div>	none	500.0	test	n/a	n/a	n/a	n/a	n/a	n/a	n/a	n/a	n/a	n/a	n/a	n/a	n/a	n/a	n/a	n/a	n/a	n/a	fixation
278108.03122057102	750.0	n/a	-1	-1	2750	533.968779429	stim	stop-signal	317	978281	0.0-15.11-1.11	beast_fmri_test	390	975811,/,976491,/,977172,/,977852,/,978533,/	t,t,t,t,t	<img class = center src='/static/experiments/beast_fmri_test/images/V.png'></img>	71,89	2750.0	test	<img class = center src='/static/experiments/beast_fmri_test/images/redV.png'></img>	stop	2000.0	3.0	11.0	stop	non-target	V	71,Index Finger	89,Middle Finger	700.0	750.0	2100.0	2000.0	0.0	750.0	1.0	n/a	go_stim
280108.03122057102	2000.0	n/a	-1	-1	2750	533.968779429	stim	stop-signal	317	978281	0.0-15.11-1.11	beast_fmri_test	390	975811,/,976491,/,977172,/,977852,/,978533,/	t,t,t,t,t	<img class = center src='/static/experiments/beast_fmri_test/images/V.png'></img>	71,89	2750.0	test	<img class = center src='/static/experiments/beast_fmri_test/images/redV.png'></img>	stop	2000.0	3.0	11.0	stop	non-target	V	71,Index Finger	89,Middle Finger	700.0	750.0	2100.0	2000.0	0.0	750.0	1.0	n/a	stop_stim
280858.03122057102	533.9687794289739	n/a	-1	-1	2750	533.968779429	stim	stop-signal	317	978281	0.0-15.11-1.11	beast_fmri_test	390	975811,/,976491,/,977172,/,977852,/,978533,/	t,t,t,t,t	<img class = center src='/static/experiments/beast_fmri_test/images/V.png'></img>	71,89	2750.0	test	<img class = center src='/static/experiments/beast_fmri_test/images/redV.png'></img>	stop	2000.0	3.0	11.0	stop	non-target	V	71,Index Finger	89,Middle Finger	700.0	750.0	2100.0	2000.0	0.0	750.0	1.0	n/a	ITI
282462	500	n/a	-1	-1	500	0.0	fixation	poldrack-single-stim	318	979351	0.0-15.12-0.12	beast_fmri_test	390	979213,/	t	<div class = centerbox2><div class = fixation>+</div></div>	none	500.0	test	n/a	n/a	n/a	n/a	n/a	n/a	n/a	n/a	n/a	n/a	n/a	n/a	n/a	n/a	n/a	n/a	n/a	n/a	fixation
279858.12595238932	2750	n/a	2221	89	2750	2606.87404761	stim	stop-signal	319	982104	0.0-15.12-1.12	beast_fmri_test	390	979893,/,980572,/,981253,/,981934,/,982615,/,983293,/,983975,/,984654,/	t,t,t,t,t,t,t,t	<img class = center src='/static/experiments/beast_fmri_test/images/P.png'></img>	71,89	2750.0	test	<img class = center src='/static/experiments/beast_fmri_test/images/redP.png'></img>	go	1950.0	3.0	12.0	go	non-target	P	71,Index Finger	89,Middle Finger	700.0	800.0	2100.0	1950.0	1.0	800.0	n/a	1.0	go_stim
282608.12595238932	2606.8740476106441	n/a	2221	89	2750	2606.87404761	stim	stop-signal	319	982104	0.0-15.12-1.12	beast_fmri_test	390	979893,/,980572,/,981253,/,981934,/,982615,/,983293,/,983975,/,984654,/	t,t,t,t,t,t,t,t	<img class = center src='/static/experiments/beast_fmri_test/images/P.png'></img>	71,89	2750.0	test	<img class = center src='/static/experiments/beast_fmri_test/images/redP.png'></img>	go	1950.0	3.0	12.0	go	non-target	P	71,Index Finger	89,Middle Finger	700.0	800.0	2100.0	1950.0	1.0	800.0	n/a	1.0	ITI
288356	500	n/a	-1	-1	500	0.0	fixation	poldrack-single-stim	320	985245	0.0-15.13-0.13	beast_fmri_test	390	n/a	n/a	<div class = centerbox2><div class = fixation>+</div></div>	none	500.0	test	n/a	n/a	n/a	n/a	n/a	n/a	n/a	n/a	n/a	n/a	n/a	n/a	n/a	n/a	n/a	n/a	n/a	n/a	fixation
288280.79706663091	800.0	n/a	2719	89	2750	78.202933369	stim	stop-signal	321	987998	0.0-15.13-1.13	beast_fmri_test	390	985335,/,986015,/,986696,/,987376,/,988056,/	t,t,t,t,t	<img class = center src='/static/experiments/beast_fmri_test/images/B.png'></img>	71,89	2750.0	test	<img class = center src='/static/experiments/beast_fmri_test/images/redB.png'></img>	stop	1950.0	3.0	13.0	stop	non-target	B	71,Index Finger	89,Middle Finger	700.0	800.0	2100.0	1950.0	0.0	800.0	0.0	n/a	go_stim
290230.79706663091	1950.0	n/a	2719	89	2750	78.202933369	stim	stop-signal	321	987998	0.0-15.13-1.13	beast_fmri_test	390	985335,/,986015,/,986696,/,987376,/,988056,/	t,t,t,t,t	<img class = center src='/static/experiments/beast_fmri_test/images/B.png'></img>	71,89	2750.0	test	<img class = center src='/static/experiments/beast_fmri_test/images/redB.png'></img>	stop	1950.0	3.0	13.0	stop	non-target	B	71,Index Finger	89,Middle Finger	700.0	800.0	2100.0	1950.0	0.0	800.0	0.0	n/a	stop_stim
291030.79706663091	78.202933369031825	n/a	2719	89	2750	78.202933369	stim	stop-signal	321	987998	0.0-15.13-1.13	beast_fmri_test	390	985335,/,986015,/,986696,/,987376,/,988056,/	t,t,t,t,t	<img class = center src='/static/experiments/beast_fmri_test/images/B.png'></img>	71,89	2750.0	test	<img class = center src='/static/experiments/beast_fmri_test/images/redB.png'></img>	stop	1950.0	3.0	13.0	stop	non-target	B	71,Index Finger	89,Middle Finger	700.0	800.0	2100.0	1950.0	0.0	800.0	0.0	n/a	ITI
291722	500	n/a	-1	-1	500	0.0	fixation	poldrack-single-stim	322	988611	0.0-15.14-0.14	beast_fmri_test	390	n/a	n/a	<div class = centerbox2><div class = fixation>+</div></div>	none	500.0	test	n/a	n/a	n/a	n/a	n/a	n/a	n/a	n/a	n/a	n/a	n/a	n/a	n/a	n/a	n/a	n/a	n/a	n/a	fixation
291611.53381223849	2750	n/a	-1	-1	2750	114.466187762	stim	stop-signal	323	991365	0.0-15.14-1.14	beast_fmri_test	390	988736,/,989417,/,990097,/,990777,/,991458,/	t,t,t,t,t	<img class = center src='/static/experiments/beast_fmri_test/images/P.png'></img>	71,89	2750.0	test	<img class = center src='/static/experiments/beast_fmri_test/images/redP.png'></img>	go	2000.0	3.0	14.0	go	non-target	P	71,Index Finger	89,Middle Finger	700.0	750.0	2100.0	2000.0	0.0	750.0	n/a	0.0	go_stim
294361.53381223849	114.46618776151071	n/a	-1	-1	2750	114.466187762	stim	stop-signal	323	991365	0.0-15.14-1.14	beast_fmri_test	390	988736,/,989417,/,990097,/,990777,/,991458,/	t,t,t,t,t	<img class = center src='/static/experiments/beast_fmri_test/images/P.png'></img>	71,89	2750.0	test	<img class = center src='/static/experiments/beast_fmri_test/images/redP.png'></img>	go	2000.0	3.0	14.0	go	non-target	P	71,Index Finger	89,Middle Finger	700.0	750.0	2100.0	2000.0	0.0	750.0	n/a	0.0	ITI
295127	500	n/a	-1	-1	500	0.0	fixation	poldrack-single-stim	324	992016	0.0-15.15-0.15	beast_fmri_test	390	n/a	n/a	<div class = centerbox2><div class = fixation>+</div></div>	none	500.0	test	n/a	n/a	n/a	n/a	n/a	n/a	n/a	n/a	n/a	n/a	n/a	n/a	n/a	n/a	n/a	n/a	n/a	n/a	fixation
294410.93338541931	2750	n/a	1523	89	2750	718.066614581	stim	stop-signal	325	994768	0.0-15.15-1.15	beast_fmri_test	390	992138,/,992819,/,993500,/,994179,/,994858,/	t,t,t,t,t	<img class = center src='/static/experiments/beast_fmri_test/images/T.png'></img>	71,89	2750.0	test	<img class = center src='/static/experiments/beast_fmri_test/images/redT.png'></img>	go	2000.0	3.0	15.0	go	non-target	T	71,Index Finger	89,Middle Finger	700.0	750.0	2100.0	2000.0	1.0	750.0	n/a	1.0	go_stim
297160.93338541931	718.06661458064741	n/a	1523	89	2750	718.066614581	stim	stop-signal	325	994768	0.0-15.15-1.15	beast_fmri_test	390	992138,/,992819,/,993500,/,994179,/,994858,/	t,t,t,t,t	<img class = center src='/static/experiments/beast_fmri_test/images/T.png'></img>	71,89	2750.0	test	<img class = center src='/static/experiments/beast_fmri_test/images/redT.png'></img>	go	2000.0	3.0	15.0	go	non-target	T	71,Index Finger	89,Middle Finger	700.0	750.0	2100.0	2000.0	1.0	750.0	n/a	1.0	ITI
299135	500	n/a	-1	-1	500	0.0	fixation	poldrack-single-stim	326	996024	0.0-15.16-0.16	beast_fmri_test	390	995538,/	t	<div class = centerbox2><div class = fixation>+</div></div>	none	500.0	test	n/a	n/a	n/a	n/a	n/a	n/a	n/a	n/a	n/a	n/a	n/a	n/a	n/a	n/a	n/a	n/a	n/a	n/a	fixation
297661.48231992451	2750	n/a	1774	89	2750	1477.51768008	stim	stop-signal	327	998778	0.0-15.16-1.16	beast_fmri_test	390	996219,/,996900,/,997580,/,998262,/,998941,/,999622,/	t,t,t,t,t,t	<img class = center src='/static/experiments/beast_fmri_test/images/B.png'></img>	71,89	2750.0	test	<img class = center src='/static/experiments/beast_fmri_test/images/redB.png'></img>	go	2050.0	3.0	16.0	go	target	B	71,Index Finger	89,Middle Finger	700.0	750.0	2050.0	2000.0	0.0	700.0	n/a	0.0	go_stim
300411.48231992451	1477.5176800755034	n/a	1774	89	2750	1477.51768008	stim	stop-signal	327	998778	0.0-15.16-1.16	beast_fmri_test	390	996219,/,996900,/,997580,/,998262,/,998941,/,999622,/	t,t,t,t,t,t	<img class = center src='/static/experiments/beast_fmri_test/images/B.png'></img>	71,89	2750.0	test	<img class = center src='/static/experiments/beast_fmri_test/images/redB.png'></img>	go	2050.0	3.0	16.0	go	target	B	71,Index Finger	89,Middle Finger	700.0	750.0	2050.0	2000.0	0.0	700.0	n/a	0.0	ITI
303902	500	n/a	-1	-1	500	0.0	fixation	poldrack-single-stim	328	1000791	0.0-15.17-0.17	beast_fmri_test	390	1000305,/	t	<div class = centerbox2><div class = fixation>+</div></div>	none	500.0	test	n/a	n/a	n/a	n/a	n/a	n/a	n/a	n/a	n/a	n/a	n/a	n/a	n/a	n/a	n/a	n/a	n/a	n/a	fixation
300636.72680221975	2750	n/a	-1	-1	2750	3269.27319778	stim	stop-signal	329	1003545	0.0-15.17-1.17	beast_fmri_test	390	1000983,/,1001663,/,1002343,/,1003024,/,1003702,/,1004384,/,1005064,/,1005744,/,1006425,/	t,t,t,t,t,t,t,t,t	<img class = center src='/static/experiments/beast_fmri_test/images/D.png'></img>	71,89	2750.0	test	<img class = center src='/static/experiments/beast_fmri_test/images/redD.png'></img>	go	2000.0	3.0	17.0	go	non-target	D	71,Index Finger	89,Middle Finger	700.0	750.0	2050.0	2000.0	0.0	750.0	n/a	0.0	go_stim
303386.72680221975	3269.2731977802036	n/a	-1	-1	2750	3269.27319778	stim	stop-signal	329	1003545	0.0-15.17-1.17	beast_fmri_test	390	1000983,/,1001663,/,1002343,/,1003024,/,1003702,/,1004384,/,1005064,/,1005744,/,1006425,/	t,t,t,t,t,t,t,t,t	<img class = center src='/static/experiments/beast_fmri_test/images/D.png'></img>	71,89	2750.0	test	<img class = center src='/static/experiments/beast_fmri_test/images/redD.png'></img>	go	2000.0	3.0	17.0	go	non-target	D	71,Index Finger	89,Middle Finger	700.0	750.0	2050.0	2000.0	0.0	750.0	n/a	0.0	ITI
310465	500	n/a	-1	-1	500	0.0	fixation	poldrack-single-stim	330	1007354	0.0-15.18-0.18	beast_fmri_test	390	1007106,/	t	<div class = centerbox2><div class = fixation>+</div></div>	none	500.0	test	n/a	n/a	n/a	n/a	n/a	n/a	n/a	n/a	n/a	n/a	n/a	n/a	n/a	n/a	n/a	n/a	n/a	n/a	fixation
308826.69743820722	750.0	n/a	-1	-1	2750	1642.30256179	stim	stop-signal	331	1010108	0.0-15.18-1.18	beast_fmri_test	390	1007786,/,1008465,/,1009146,/,1009826,/,1010506,/,1011187,/	t,t,t,t,t,t	<img class = center src='/static/experiments/beast_fmri_test/images/P.png'></img>	71,89	2750.0	test	<img class = center src='/static/experiments/beast_fmri_test/images/redP.png'></img>	stop	2000.0	3.0	18.0	stop	non-target	P	71,Index Finger	89,Middle Finger	700.0	750.0	2050.0	2000.0	0.0	750.0	1.0	n/a	go_stim
310826.69743820722	2000.0	n/a	-1	-1	2750	1642.30256179	stim	stop-signal	331	1010108	0.0-15.18-1.18	beast_fmri_test	390	1007786,/,1008465,/,1009146,/,1009826,/,1010506,/,1011187,/	t,t,t,t,t,t	<img class = center src='/static/experiments/beast_fmri_test/images/P.png'></img>	71,89	2750.0	test	<img class = center src='/static/experiments/beast_fmri_test/images/redP.png'></img>	stop	2000.0	3.0	18.0	stop	non-target	P	71,Index Finger	89,Middle Finger	700.0	750.0	2050.0	2000.0	0.0	750.0	1.0	n/a	stop_stim
311576.69743820722	1642.3025617927399	n/a	-1	-1	2750	1642.30256179	stim	stop-signal	331	1010108	0.0-15.18-1.18	beast_fmri_test	390	1007786,/,1008465,/,1009146,/,1009826,/,1010506,/,1011187,/	t,t,t,t,t,t	<img class = center src='/static/experiments/beast_fmri_test/images/P.png'></img>	71,89	2750.0	test	<img class = center src='/static/experiments/beast_fmri_test/images/redP.png'></img>	stop	2000.0	3.0	18.0	stop	non-target	P	71,Index Finger	89,Middle Finger	700.0	750.0	2050.0	2000.0	0.0	750.0	1.0	n/a	ITI
315400	500	n/a	-1	-1	500	0.0	fixation	poldrack-single-stim	332	1012289	0.0-15.19-0.19	beast_fmri_test	390	1011866,/	t	<div class = centerbox2><div class = fixation>+</div></div>	none	500.0	test	n/a	n/a	n/a	n/a	n/a	n/a	n/a	n/a	n/a	n/a	n/a	n/a	n/a	n/a	n/a	n/a	n/a	n/a	fixation
314466.79931040003	2750	n/a	1071	89	2750	937.2006896	stim	stop-signal	333	1015043	0.0-15.19-1.19	beast_fmri_test	390	1012547,/,1013227,/,1013908,/,1014588,/,1015268,/,1015949,/	t,t,t,t,t,t	<img class = center src='/static/experiments/beast_fmri_test/images/P.png'></img>	71,89	2750.0	test	<img class = center src='/static/experiments/beast_fmri_test/images/redP.png'></img>	go	1950.0	3.0	19.0	go	non-target	P	71,Index Finger	89,Middle Finger	700.0	800.0	2050.0	1950.0	1.0	800.0	n/a	1.0	go_stim
317216.79931040003	937.20068960000242	n/a	1071	89	2750	937.2006896	stim	stop-signal	333	1015043	0.0-15.19-1.19	beast_fmri_test	390	1012547,/,1013227,/,1013908,/,1014588,/,1015268,/,1015949,/	t,t,t,t,t,t	<img class = center src='/static/experiments/beast_fmri_test/images/P.png'></img>	71,89	2750.0	test	<img class = center src='/static/experiments/beast_fmri_test/images/redP.png'></img>	go	1950.0	3.0	19.0	go	non-target	P	71,Index Finger	89,Middle Finger	700.0	800.0	2050.0	1950.0	1.0	800.0	n/a	1.0	ITI
319629	500	n/a	-1	-1	500	0.0	fixation	poldrack-single-stim	334	1016518	0.0-15.20-0.20	beast_fmri_test	390	n/a	n/a	<div class = centerbox2><div class = fixation>+</div></div>	none	500.0	test	n/a	n/a	n/a	n/a	n/a	n/a	n/a	n/a	n/a	n/a	n/a	n/a	n/a	n/a	n/a	n/a	n/a	n/a	fixation
317408.22292327997	2750	n/a	564	89	2750	2223.77707672	stim	stop-signal	335	1019271	0.0-15.20-1.20	beast_fmri_test	390	1016630,/,1017308,/,1017989,/,1018668,/,1019350,/,1020031,/,1020711,/,1021391,/	t,t,t,t,t,t,t,t	<img class = center src='/static/experiments/beast_fmri_test/images/V.png'></img>	71,89	2750.0	test	<img class = center src='/static/experiments/beast_fmri_test/images/redV.png'></img>	go	1950.0	3.0	20.0	go	non-target	V	71,Index Finger	89,Middle Finger	700.0	800.0	2050.0	1950.0	1.0	800.0	n/a	1.0	go_stim
320158.22292327997	2223.777076719969	n/a	564	89	2750	2223.77707672	stim	stop-signal	335	1019271	0.0-15.20-1.20	beast_fmri_test	390	1016630,/,1017308,/,1017989,/,1018668,/,1019350,/,1020031,/,1020711,/,1021391,/	t,t,t,t,t,t,t,t	<img class = center src='/static/experiments/beast_fmri_test/images/V.png'></img>	71,89	2750.0	test	<img class = center src='/static/experiments/beast_fmri_test/images/redV.png'></img>	go	1950.0	3.0	20.0	go	non-target	V	71,Index Finger	89,Middle Finger	700.0	800.0	2050.0	1950.0	1.0	800.0	n/a	1.0	ITI
325146	500	n/a	-1	-1	500	0.0	fixation	poldrack-single-stim	336	1022035	0.0-15.21-0.21	beast_fmri_test	390	n/a	n/a	<div class = centerbox2><div class = fixation>+</div></div>	none	500.0	test	n/a	n/a	n/a	n/a	n/a	n/a	n/a	n/a	n/a	n/a	n/a	n/a	n/a	n/a	n/a	n/a	n/a	n/a	fixation
324858.37595792406	2750	n/a	-1	-1	2750	290.624042076	stim	stop-signal	337	1024788	0.0-15.21-1.21	beast_fmri_test	390	1022071,/,1022751,/,1023432,/,1024112,/,1024794,/	t,t,t,t,t	<img class = center src='/static/experiments/beast_fmri_test/images/P.png'></img>	71,89	2750.0	test	<img class = center src='/static/experiments/beast_fmri_test/images/redP.png'></img>	go	2050.0	3.0	21.0	go	target	P	71,Index Finger	89,Middle Finger	700.0	800.0	2050.0	1950.0	0.0	700.0	n/a	0.0	go_stim
327608.37595792406	290.62404207593494	n/a	-1	-1	2750	290.624042076	stim	stop-signal	337	1024788	0.0-15.21-1.21	beast_fmri_test	390	1022071,/,1022751,/,1023432,/,1024112,/,1024794,/	t,t,t,t,t	<img class = center src='/static/experiments/beast_fmri_test/images/P.png'></img>	71,89	2750.0	test	<img class = center src='/static/experiments/beast_fmri_test/images/redP.png'></img>	go	2050.0	3.0	21.0	go	target	P	71,Index Finger	89,Middle Finger	700.0	800.0	2050.0	1950.0	0.0	700.0	n/a	0.0	ITI
