onset	duration	text	rt	key_press	block_duration	timing_post_trial	trial_id	trial_type	trial_index	time_elapsed	internal_node_id	exp_id	subject_id	trigger_times	triggers	stimulus	possible_responses	stim_duration	exp_stage	SS_stimulus	SS_trial_type	SS_duration	load	trial_num	stop_trial_type	adaptive_trial_type	stim	yes_response_key	no_response_key	SSD_target	SSD_non_target	SSTarget	SSNonTarget	go_acc	SS_delay	stop_acc	adaptive_acc	new_trial_type
test	10880	n/a	-1	-1	10880	0.0	practice-no-stop-feedback	poldrack-single-stim	582	1782685	0.0-24.0	beast_fmri_test	390	1771800,/,1772479,/,1773160,/,1773840,/,1774522,/,1775201,/,1775880,/,1776562,/,1777242,/,1777922,/,1778603,/,1779283,/,1779963,/,1780644,/,1781324,/,1782003,/,1782684,/	t,t,t,t,t,t,t,t,t,t,t,t,t,t,t,t,t	"<div class = ""centerbox2_2""><p class = ""block-text2"">Your delay is 1 trials.</p><p class = block-text2>Please wait for the scanner to start the block</p></div>"	77	10880.0	n/a	n/a	n/a	n/a	n/a	n/a	n/a	n/a	n/a	n/a	n/a	n/a	n/a	n/a	n/a	n/a	n/a	n/a	n/a	start_functional_block
11390	500	n/a	-1	-1	500	0.0	fixation	poldrack-single-stim	583	1783190	0.0-25.0-0.0	beast_fmri_test	390	n/a	n/a	<div class = centerbox2><div class = fixation>+</div></div>	none	500.0	test	n/a	n/a	n/a	n/a	n/a	n/a	n/a	n/a	n/a	n/a	n/a	n/a	n/a	n/a	n/a	n/a	n/a	n/a	fixation
11218.57279792754	2750	n/a	1237	89	2750	174.427202073	stim	stop-signal	584	1785943	0.0-25.0-1.0	beast_fmri_test	390	1783365,/,1784045,/,1784725,/,1785404,/,1786085,/	t,t,t,t,t	<img class = center src='/static/experiments/beast_fmri_test/images/P.png'></img>	71,89	2750.0	test	<img class = center src='/static/experiments/beast_fmri_test/images/redP.png'></img>	go	-1.0	1.0	0.0	go	temp-non-target	P	71,Index Finger	89,Middle Finger	500.0	800.0	2250.0	1950.0	0.0	n/a	n/a	n/a	go_stim
13968.57279792754	174.42720207251432	n/a	1237	89	2750	174.427202073	stim	stop-signal	584	1785943	0.0-25.0-1.0	beast_fmri_test	390	1783365,/,1784045,/,1784725,/,1785404,/,1786085,/	t,t,t,t,t	<img class = center src='/static/experiments/beast_fmri_test/images/P.png'></img>	71,89	2750.0	test	<img class = center src='/static/experiments/beast_fmri_test/images/redP.png'></img>	go	-1.0	1.0	0.0	go	temp-non-target	P	71,Index Finger	89,Middle Finger	500.0	800.0	2250.0	1950.0	0.0	n/a	n/a	n/a	ITI
14879	500	n/a	-1	-1	500	0.0	fixation	poldrack-single-stim	585	1786679	0.0-25.1-0.1	beast_fmri_test	390	n/a	n/a	<div class = centerbox2><div class = fixation>+</div></div>	none	500.0	test	n/a	n/a	n/a	n/a	n/a	n/a	n/a	n/a	n/a	n/a	n/a	n/a	n/a	n/a	n/a	n/a	n/a	n/a	fixation
13309.735066401307	2750	n/a	534	89	2750	1575.2649336	stim	stop-signal	586	1789435	0.0-25.1-1.1	beast_fmri_test	390	1786765,/,1787445,/,1788126,/,1788807,/,1789488,/,1790168,/,1790847,/	t,t,t,t,t,t,t	<img class = center src='/static/experiments/beast_fmri_test/images/B.png'></img>	71,89	2750.0	test	<img class = center src='/static/experiments/beast_fmri_test/images/redB.png'></img>	go	1950.0	1.0	1.0	go	non-target	B	71,Index Finger	89,Middle Finger	500.0	800.0	2250.0	1950.0	1.0	800.0	n/a	1.0	go_stim
16059.735066401307	1575.2649335985789	n/a	534	89	2750	1575.2649336	stim	stop-signal	586	1789435	0.0-25.1-1.1	beast_fmri_test	390	1786765,/,1787445,/,1788126,/,1788807,/,1789488,/,1790168,/,1790847,/	t,t,t,t,t,t,t	<img class = center src='/static/experiments/beast_fmri_test/images/B.png'></img>	71,89	2750.0	test	<img class = center src='/static/experiments/beast_fmri_test/images/redB.png'></img>	go	1950.0	1.0	1.0	go	non-target	B	71,Index Finger	89,Middle Finger	500.0	800.0	2250.0	1950.0	1.0	800.0	n/a	1.0	ITI
19768	500	n/a	-1	-1	500	0.0	fixation	poldrack-single-stim	587	1791568	0.0-25.2-0.2	beast_fmri_test	390	1791527,/	t	<div class = centerbox2><div class = fixation>+</div></div>	none	500.0	test	n/a	n/a	n/a	n/a	n/a	n/a	n/a	n/a	n/a	n/a	n/a	n/a	n/a	n/a	n/a	n/a	n/a	n/a	fixation
16525.996008198243	2750	n/a	532	89	2750	3246.0039918	stim	stop-signal	588	1794322	0.0-25.2-1.2	beast_fmri_test	390	1792207,/,1792889,/,1793569,/,1794249,/,1794930,/,1795611,/,1796290,/,1796971,/	t,t,t,t,t,t,t,t	<img class = center src='/static/experiments/beast_fmri_test/images/D.png'></img>	71,89	2750.0	test	<img class = center src='/static/experiments/beast_fmri_test/images/redD.png'></img>	go	1950.0	1.0	2.0	go	non-target	D	71,Index Finger	89,Middle Finger	500.0	800.0	2250.0	1950.0	1.0	800.0	n/a	1.0	go_stim
19275.996008198243	3246.0039918016628	n/a	532	89	2750	3246.0039918	stim	stop-signal	588	1794322	0.0-25.2-1.2	beast_fmri_test	390	1792207,/,1792889,/,1793569,/,1794249,/,1794930,/,1795611,/,1796290,/,1796971,/	t,t,t,t,t,t,t,t	<img class = center src='/static/experiments/beast_fmri_test/images/D.png'></img>	71,89	2750.0	test	<img class = center src='/static/experiments/beast_fmri_test/images/redD.png'></img>	go	1950.0	1.0	2.0	go	non-target	D	71,Index Finger	89,Middle Finger	500.0	800.0	2250.0	1950.0	1.0	800.0	n/a	1.0	ITI
26329	500	n/a	-1	-1	500	0.0	fixation	poldrack-single-stim	589	1798129	0.0-25.3-0.3	beast_fmri_test	390	1797650,/	t	<div class = centerbox2><div class = fixation>+</div></div>	none	500.0	test	n/a	n/a	n/a	n/a	n/a	n/a	n/a	n/a	n/a	n/a	n/a	n/a	n/a	n/a	n/a	n/a	n/a	n/a	fixation
26298.873839178355	800.0	n/a	489	89	2750	35.1261608215	stim	stop-signal	590	1800884	0.0-25.3-1.3	beast_fmri_test	390	1798332,/,1799012,/,1799691,/,1800373,/	t,t,t,t	<img class = center src='/static/experiments/beast_fmri_test/images/T.png'></img>	71,89	2750.0	test	<img class = center src='/static/experiments/beast_fmri_test/images/redT.png'></img>	stop	1950.0	1.0	3.0	stop	non-target	T	71,Index Finger	89,Middle Finger	500.0	800.0	2250.0	1950.0	0.0	800.0	0.0	n/a	go_stim
28248.873839178355	1950.0	n/a	489	89	2750	35.1261608215	stim	stop-signal	590	1800884	0.0-25.3-1.3	beast_fmri_test	390	1798332,/,1799012,/,1799691,/,1800373,/	t,t,t,t	<img class = center src='/static/experiments/beast_fmri_test/images/T.png'></img>	71,89	2750.0	test	<img class = center src='/static/experiments/beast_fmri_test/images/redT.png'></img>	stop	1950.0	1.0	3.0	stop	non-target	T	71,Index Finger	89,Middle Finger	500.0	800.0	2250.0	1950.0	0.0	800.0	0.0	n/a	stop_stim
29048.873839178355	35.126160821535308	n/a	489	89	2750	35.1261608215	stim	stop-signal	590	1800884	0.0-25.3-1.3	beast_fmri_test	390	1798332,/,1799012,/,1799691,/,1800373,/	t,t,t,t	<img class = center src='/static/experiments/beast_fmri_test/images/T.png'></img>	71,89	2750.0	test	<img class = center src='/static/experiments/beast_fmri_test/images/redT.png'></img>	stop	1950.0	1.0	3.0	stop	non-target	T	71,Index Finger	89,Middle Finger	500.0	800.0	2250.0	1950.0	0.0	800.0	0.0	n/a	ITI
29679	500	n/a	-1	-1	500	0.0	fixation	poldrack-single-stim	591	1801479	0.0-25.4-0.4	beast_fmri_test	390	1801052,/	t	<div class = centerbox2><div class = fixation>+</div></div>	none	500.0	test	n/a	n/a	n/a	n/a	n/a	n/a	n/a	n/a	n/a	n/a	n/a	n/a	n/a	n/a	n/a	n/a	n/a	n/a	fixation
29254.739982824307	500.0	n/a	729	71	2750	428.260017176	stim	stop-signal	592	1804233	0.0-25.4-1.4	beast_fmri_test	390	1801733,/,1802414,/,1803093,/,1803773,/,1804454,/	t,t,t,t,t	<img class = center src='/static/experiments/beast_fmri_test/images/T.png'></img>	71,89	2750.0	test	<img class = center src='/static/experiments/beast_fmri_test/images/redT.png'></img>	stop	2250.0	1.0	4.0	stop	target	T	71,Index Finger	89,Middle Finger	500.0	750.0	2250.0	1950.0	0.0	500.0	0.0	n/a	go_stim
31504.739982824307	2250.0	n/a	729	71	2750	428.260017176	stim	stop-signal	592	1804233	0.0-25.4-1.4	beast_fmri_test	390	1801733,/,1802414,/,1803093,/,1803773,/,1804454,/	t,t,t,t,t	<img class = center src='/static/experiments/beast_fmri_test/images/T.png'></img>	71,89	2750.0	test	<img class = center src='/static/experiments/beast_fmri_test/images/redT.png'></img>	stop	2250.0	1.0	4.0	stop	target	T	71,Index Finger	89,Middle Finger	500.0	750.0	2250.0	1950.0	0.0	500.0	0.0	n/a	stop_stim
32004.739982824307	428.26001717558921	n/a	729	71	2750	428.260017176	stim	stop-signal	592	1804233	0.0-25.4-1.4	beast_fmri_test	390	1801733,/,1802414,/,1803093,/,1803773,/,1804454,/	t,t,t,t,t	<img class = center src='/static/experiments/beast_fmri_test/images/T.png'></img>	71,89	2750.0	test	<img class = center src='/static/experiments/beast_fmri_test/images/redT.png'></img>	stop	2250.0	1.0	4.0	stop	target	T	71,Index Finger	89,Middle Finger	500.0	750.0	2250.0	1950.0	0.0	500.0	0.0	n/a	ITI
33420	500	n/a	-1	-1	500	0.0	fixation	poldrack-single-stim	593	1805220	0.0-25.5-0.5	beast_fmri_test	390	1805135,/	t	<div class = centerbox2><div class = fixation>+</div></div>	none	500.0	test	n/a	n/a	n/a	n/a	n/a	n/a	n/a	n/a	n/a	n/a	n/a	n/a	n/a	n/a	n/a	n/a	n/a	n/a	fixation
33203.035019818461	2750	n/a	545	89	2750	220.964980181	stim	stop-signal	594	1807974	0.0-25.5-1.5	beast_fmri_test	390	1805814,/,1806495,/,1807175,/,1807856,/	t,t,t,t	<img class = center src='/static/experiments/beast_fmri_test/images/D.png'></img>	71,89	2750.0	test	<img class = center src='/static/experiments/beast_fmri_test/images/redD.png'></img>	go	2000.0	1.0	5.0	go	non-target	D	71,Index Finger	89,Middle Finger	450.0	750.0	2250.0	2000.0	1.0	750.0	n/a	1.0	go_stim
35953.035019818461	220.9649801814416	n/a	545	89	2750	220.964980181	stim	stop-signal	594	1807974	0.0-25.5-1.5	beast_fmri_test	390	1805814,/,1806495,/,1807175,/,1807856,/	t,t,t,t	<img class = center src='/static/experiments/beast_fmri_test/images/D.png'></img>	71,89	2750.0	test	<img class = center src='/static/experiments/beast_fmri_test/images/redD.png'></img>	go	2000.0	1.0	5.0	go	non-target	D	71,Index Finger	89,Middle Finger	450.0	750.0	2250.0	2000.0	1.0	750.0	n/a	1.0	ITI
36953	500	n/a	-1	-1	500	0.0	fixation	poldrack-single-stim	595	1808753	0.0-25.6-0.6	beast_fmri_test	390	1808536,/	t	<div class = centerbox2><div class = fixation>+</div></div>	none	500.0	test	n/a	n/a	n/a	n/a	n/a	n/a	n/a	n/a	n/a	n/a	n/a	n/a	n/a	n/a	n/a	n/a	n/a	n/a	fixation
36758.066488191951	750.0	n/a	-1	-1	2750	199.933511808	stim	stop-signal	596	1811508	0.0-25.6-1.6	beast_fmri_test	390	1809216,/,1809897,/,1810577,/,1811257,/	t,t,t,t	<img class = center src='/static/experiments/beast_fmri_test/images/V.png'></img>	71,89	2750.0	test	<img class = center src='/static/experiments/beast_fmri_test/images/redV.png'></img>	stop	2000.0	1.0	6.0	stop	non-target	V	71,Index Finger	89,Middle Finger	450.0	750.0	2250.0	2000.0	0.0	750.0	1.0	n/a	go_stim
38758.066488191951	2000.0	n/a	-1	-1	2750	199.933511808	stim	stop-signal	596	1811508	0.0-25.6-1.6	beast_fmri_test	390	1809216,/,1809897,/,1810577,/,1811257,/	t,t,t,t	<img class = center src='/static/experiments/beast_fmri_test/images/V.png'></img>	71,89	2750.0	test	<img class = center src='/static/experiments/beast_fmri_test/images/redV.png'></img>	stop	2000.0	1.0	6.0	stop	non-target	V	71,Index Finger	89,Middle Finger	450.0	750.0	2250.0	2000.0	0.0	750.0	1.0	n/a	stop_stim
39508.066488191951	199.93351180811737	n/a	-1	-1	2750	199.933511808	stim	stop-signal	596	1811508	0.0-25.6-1.6	beast_fmri_test	390	1809216,/,1809897,/,1810577,/,1811257,/	t,t,t,t	<img class = center src='/static/experiments/beast_fmri_test/images/V.png'></img>	71,89	2750.0	test	<img class = center src='/static/experiments/beast_fmri_test/images/redV.png'></img>	stop	2000.0	1.0	6.0	stop	non-target	V	71,Index Finger	89,Middle Finger	450.0	750.0	2250.0	2000.0	0.0	750.0	1.0	n/a	ITI
40471	500	n/a	-1	-1	500	0.0	fixation	poldrack-single-stim	597	1812271	0.0-25.7-0.7	beast_fmri_test	390	1811937,/	t	<div class = centerbox2><div class = fixation>+</div></div>	none	500.0	test	n/a	n/a	n/a	n/a	n/a	n/a	n/a	n/a	n/a	n/a	n/a	n/a	n/a	n/a	n/a	n/a	n/a	n/a	fixation
39314.481842560228	2750	n/a	1527	89	2750	1159.51815744	stim	stop-signal	598	1815024	0.0-25.7-1.7	beast_fmri_test	390	1812618,/,1813298,/,1813978,/,1814659,/,1815339,/,1816018,/	t,t,t,t,t,t	<img class = center src='/static/experiments/beast_fmri_test/images/P.png'></img>	71,89	2750.0	test	<img class = center src='/static/experiments/beast_fmri_test/images/redP.png'></img>	go	1950.0	1.0	7.0	go	non-target	P	71,Index Finger	89,Middle Finger	450.0	800.0	2250.0	1950.0	1.0	800.0	n/a	1.0	go_stim
42064.481842560228	1159.5181574397509	n/a	1527	89	2750	1159.51815744	stim	stop-signal	598	1815024	0.0-25.7-1.7	beast_fmri_test	390	1812618,/,1813298,/,1813978,/,1814659,/,1815339,/,1816018,/	t,t,t,t,t,t	<img class = center src='/static/experiments/beast_fmri_test/images/P.png'></img>	71,89	2750.0	test	<img class = center src='/static/experiments/beast_fmri_test/images/redP.png'></img>	go	1950.0	1.0	7.0	go	non-target	P	71,Index Finger	89,Middle Finger	450.0	800.0	2250.0	1950.0	1.0	800.0	n/a	1.0	ITI
44941	500	n/a	-1	-1	500	0.0	fixation	poldrack-single-stim	599	1816741	0.0-25.8-0.8	beast_fmri_test	390	1816698,/	t	<div class = centerbox2><div class = fixation>+</div></div>	none	500.0	test	n/a	n/a	n/a	n/a	n/a	n/a	n/a	n/a	n/a	n/a	n/a	n/a	n/a	n/a	n/a	n/a	n/a	n/a	fixation
44941.308632414322	2750	n/a	930	89	2750	3.69136758562	stim	stop-signal	600	1819495	0.0-25.8-1.8	beast_fmri_test	390	1817380,/,1818060,/,1818740,/,1819421,/	t,t,t,t	<img class = center src='/static/experiments/beast_fmri_test/images/T.png'></img>	71,89	2750.0	test	<img class = center src='/static/experiments/beast_fmri_test/images/redT.png'></img>	go	1950.0	1.0	8.0	go	non-target	T	71,Index Finger	89,Middle Finger	450.0	800.0	2250.0	1950.0	1.0	800.0	n/a	1.0	go_stim
47691.308632414322	3.6913675856232753	n/a	930	89	2750	3.69136758562	stim	stop-signal	600	1819495	0.0-25.8-1.8	beast_fmri_test	390	1817380,/,1818060,/,1818740,/,1819421,/	t,t,t,t	<img class = center src='/static/experiments/beast_fmri_test/images/T.png'></img>	71,89	2750.0	test	<img class = center src='/static/experiments/beast_fmri_test/images/redT.png'></img>	go	1950.0	1.0	8.0	go	non-target	T	71,Index Finger	89,Middle Finger	450.0	800.0	2250.0	1950.0	1.0	800.0	n/a	1.0	ITI
48262	500	n/a	-1	-1	500	0.0	fixation	poldrack-single-stim	601	1820062	0.0-25.9-0.9	beast_fmri_test	390	n/a	n/a	<div class = centerbox2><div class = fixation>+</div></div>	none	500.0	test	n/a	n/a	n/a	n/a	n/a	n/a	n/a	n/a	n/a	n/a	n/a	n/a	n/a	n/a	n/a	n/a	n/a	n/a	fixation
46990.39517529984	2750	n/a	801	89	2750	1275.6048247	stim	stop-signal	602	1822816	0.0-25.9-1.9	beast_fmri_test	390	1820104,/,1820781,/,1821461,/,1822142,/,1822823,/,1823501,/	t,t,t,t,t,t	<img class = center src='/static/experiments/beast_fmri_test/images/P.png'></img>	71,89	2750.0	test	<img class = center src='/static/experiments/beast_fmri_test/images/redP.png'></img>	go	1950.0	1.0	9.0	go	non-target	P	71,Index Finger	89,Middle Finger	450.0	800.0	2250.0	1950.0	1.0	800.0	n/a	1.0	go_stim
49740.39517529984	1275.6048247002673	n/a	801	89	2750	1275.6048247	stim	stop-signal	602	1822816	0.0-25.9-1.9	beast_fmri_test	390	1820104,/,1820781,/,1821461,/,1822142,/,1822823,/,1823501,/	t,t,t,t,t,t	<img class = center src='/static/experiments/beast_fmri_test/images/P.png'></img>	71,89	2750.0	test	<img class = center src='/static/experiments/beast_fmri_test/images/redP.png'></img>	go	1950.0	1.0	9.0	go	non-target	P	71,Index Finger	89,Middle Finger	450.0	800.0	2250.0	1950.0	1.0	800.0	n/a	1.0	ITI
52859	500	n/a	-1	-1	500	0.0	fixation	poldrack-single-stim	603	1824659	0.0-25.10-0.10	beast_fmri_test	390	1824183,/	t	<div class = centerbox2><div class = fixation>+</div></div>	none	500.0	test	n/a	n/a	n/a	n/a	n/a	n/a	n/a	n/a	n/a	n/a	n/a	n/a	n/a	n/a	n/a	n/a	n/a	n/a	fixation
51454.432921621948	2750	n/a	615	89	2750	1410.56707838	stim	stop-signal	604	1827415	0.0-25.10-1.10	beast_fmri_test	390	1824862,/,1825544,/,1826224,/,1826904,/,1827585,/,1828265,/	t,t,t,t,t,t	<img class = center src='/static/experiments/beast_fmri_test/images/B.png'></img>	71,89	2750.0	test	<img class = center src='/static/experiments/beast_fmri_test/images/redB.png'></img>	go	1950.0	1.0	10.0	go	non-target	B	71,Index Finger	89,Middle Finger	450.0	800.0	2250.0	1950.0	1.0	800.0	n/a	1.0	go_stim
54204.432921621948	1410.5670783780324	n/a	615	89	2750	1410.56707838	stim	stop-signal	604	1827415	0.0-25.10-1.10	beast_fmri_test	390	1824862,/,1825544,/,1826224,/,1826904,/,1827585,/,1828265,/	t,t,t,t,t,t	<img class = center src='/static/experiments/beast_fmri_test/images/B.png'></img>	71,89	2750.0	test	<img class = center src='/static/experiments/beast_fmri_test/images/redB.png'></img>	go	1950.0	1.0	10.0	go	non-target	B	71,Index Finger	89,Middle Finger	450.0	800.0	2250.0	1950.0	1.0	800.0	n/a	1.0	ITI
57592	500	n/a	-1	-1	500	0.0	fixation	poldrack-single-stim	605	1829392	0.0-25.11-0.11	beast_fmri_test	390	1828944,/	t	<div class = centerbox2><div class = fixation>+</div></div>	none	500.0	test	n/a	n/a	n/a	n/a	n/a	n/a	n/a	n/a	n/a	n/a	n/a	n/a	n/a	n/a	n/a	n/a	n/a	n/a	fixation
56684.142803074792	2750	n/a	563	71	2750	911.857196925	stim	stop-signal	606	1832146	0.0-25.11-1.11	beast_fmri_test	390	1829626,/,1830305,/,1830986,/,1831666,/,1832347,/,1833027,/	t,t,t,t,t,t	<img class = center src='/static/experiments/beast_fmri_test/images/B.png'></img>	71,89	2750.0	test	<img class = center src='/static/experiments/beast_fmri_test/images/redB.png'></img>	go	2300.0	1.0	11.0	go	target	B	71,Index Finger	89,Middle Finger	450.0	800.0	2300.0	1950.0	1.0	450.0	n/a	1.0	go_stim
59434.142803074792	911.85719692513271	n/a	563	71	2750	911.857196925	stim	stop-signal	606	1832146	0.0-25.11-1.11	beast_fmri_test	390	1829626,/,1830305,/,1830986,/,1831666,/,1832347,/,1833027,/	t,t,t,t,t,t	<img class = center src='/static/experiments/beast_fmri_test/images/B.png'></img>	71,89	2750.0	test	<img class = center src='/static/experiments/beast_fmri_test/images/redB.png'></img>	go	2300.0	1.0	11.0	go	target	B	71,Index Finger	89,Middle Finger	450.0	800.0	2300.0	1950.0	1.0	450.0	n/a	1.0	ITI
61818	500	n/a	-1	-1	500	0.0	fixation	poldrack-single-stim	607	1833618	0.0-25.12-0.12	beast_fmri_test	390	n/a	n/a	<div class = centerbox2><div class = fixation>+</div></div>	none	500.0	test	n/a	n/a	n/a	n/a	n/a	n/a	n/a	n/a	n/a	n/a	n/a	n/a	n/a	n/a	n/a	n/a	n/a	n/a	fixation
61537.374794836389	2750	n/a	549	89	2750	285.625205163	stim	stop-signal	608	1836373	0.0-25.12-1.12	beast_fmri_test	390	1833708,/,1834387,/,1835067,/,1835748,/,1836429,/	t,t,t,t,t	<img class = center src='/static/experiments/beast_fmri_test/images/T.png'></img>	71,89	2750.0	test	<img class = center src='/static/experiments/beast_fmri_test/images/redT.png'></img>	go	1950.0	1.0	12.0	go	non-target	T	71,Index Finger	89,Middle Finger	450.0	800.0	2300.0	1950.0	1.0	800.0	n/a	1.0	go_stim
64287.374794836389	285.62520516349576	n/a	549	89	2750	285.625205163	stim	stop-signal	608	1836373	0.0-25.12-1.12	beast_fmri_test	390	1833708,/,1834387,/,1835067,/,1835748,/,1836429,/	t,t,t,t,t	<img class = center src='/static/experiments/beast_fmri_test/images/T.png'></img>	71,89	2750.0	test	<img class = center src='/static/experiments/beast_fmri_test/images/redT.png'></img>	go	1950.0	1.0	12.0	go	non-target	T	71,Index Finger	89,Middle Finger	450.0	800.0	2300.0	1950.0	1.0	800.0	n/a	1.0	ITI
65418	500	n/a	-1	-1	500	0.0	fixation	poldrack-single-stim	609	1837218	0.0-25.13-0.13	beast_fmri_test	390	1837109,/	t	<div class = centerbox2><div class = fixation>+</div></div>	none	500.0	test	n/a	n/a	n/a	n/a	n/a	n/a	n/a	n/a	n/a	n/a	n/a	n/a	n/a	n/a	n/a	n/a	n/a	n/a	fixation
64879.780239454936	2750	n/a	913	89	2750	543.219760545	stim	stop-signal	610	1839973	0.0-25.13-1.13	beast_fmri_test	390	1837788,/,1838468,/,1839149,/,1839829,/,1840510,/	t,t,t,t,t	<img class = center src='/static/experiments/beast_fmri_test/images/P.png'></img>	71,89	2750.0	test	<img class = center src='/static/experiments/beast_fmri_test/images/redP.png'></img>	go	1950.0	1.0	13.0	go	non-target	P	71,Index Finger	89,Middle Finger	450.0	800.0	2300.0	1950.0	1.0	800.0	n/a	1.0	go_stim
67629.780239454936	543.219760544971	n/a	913	89	2750	543.219760545	stim	stop-signal	610	1839973	0.0-25.13-1.13	beast_fmri_test	390	1837788,/,1838468,/,1839149,/,1839829,/,1840510,/	t,t,t,t,t	<img class = center src='/static/experiments/beast_fmri_test/images/P.png'></img>	71,89	2750.0	test	<img class = center src='/static/experiments/beast_fmri_test/images/redP.png'></img>	go	1950.0	1.0	13.0	go	non-target	P	71,Index Finger	89,Middle Finger	450.0	800.0	2300.0	1950.0	1.0	800.0	n/a	1.0	ITI
69274	500	n/a	-1	-1	500	0.0	fixation	poldrack-single-stim	611	1841074	0.0-25.14-0.14	beast_fmri_test	390	n/a	n/a	<div class = centerbox2><div class = fixation>+</div></div>	none	500.0	test	n/a	n/a	n/a	n/a	n/a	n/a	n/a	n/a	n/a	n/a	n/a	n/a	n/a	n/a	n/a	n/a	n/a	n/a	fixation
67928.582321124617	2750	n/a	526	71	2750	1349.41767888	stim	stop-signal	612	1843828	0.0-25.14-1.14	beast_fmri_test	390	1841190,/,1841870,/,1842550,/,1843230,/,1843911,/,1844591,/	t,t,t,t,t,t	<img class = center src='/static/experiments/beast_fmri_test/images/P.png'></img>	71,89	2750.0	test	<img class = center src='/static/experiments/beast_fmri_test/images/redP.png'></img>	go	2300.0	1.0	14.0	go	target	P	71,Index Finger	89,Middle Finger	450.0	800.0	2300.0	1950.0	1.0	450.0	n/a	1.0	go_stim
70678.582321124617	1349.4176788753782	n/a	526	71	2750	1349.41767888	stim	stop-signal	612	1843828	0.0-25.14-1.14	beast_fmri_test	390	1841190,/,1841870,/,1842550,/,1843230,/,1843911,/,1844591,/	t,t,t,t,t,t	<img class = center src='/static/experiments/beast_fmri_test/images/P.png'></img>	71,89	2750.0	test	<img class = center src='/static/experiments/beast_fmri_test/images/redP.png'></img>	go	2300.0	1.0	14.0	go	target	P	71,Index Finger	89,Middle Finger	450.0	800.0	2300.0	1950.0	1.0	450.0	n/a	1.0	ITI
73939	500	n/a	-1	-1	500	0.0	fixation	poldrack-single-stim	613	1845739	0.0-25.15-0.15	beast_fmri_test	390	1845270,/	t	<div class = centerbox2><div class = fixation>+</div></div>	none	500.0	test	n/a	n/a	n/a	n/a	n/a	n/a	n/a	n/a	n/a	n/a	n/a	n/a	n/a	n/a	n/a	n/a	n/a	n/a	fixation
68943.0	2750	n/a	952	89	2750	5000.0	stim	stop-signal	614	1848493	0.0-25.15-1.15	beast_fmri_test	390	1845952,/,1846631,/,1847312,/,1847993,/,1848673,/,1849353,/,1850036,/,1850714,/,1851395,/,1852074,/,1852755,/,1853436,/	t,t,t,t,t,t,t,t,t,t,t,t	<img class = center src='/static/experiments/beast_fmri_test/images/T.png'></img>	71,89	2750.0	test	<img class = center src='/static/experiments/beast_fmri_test/images/redT.png'></img>	go	1950.0	1.0	15.0	go	non-target	T	71,Index Finger	89,Middle Finger	450.0	800.0	2300.0	1950.0	1.0	800.0	n/a	1.0	go_stim
71693.0	5000.0	n/a	952	89	2750	5000.0	stim	stop-signal	614	1848493	0.0-25.15-1.15	beast_fmri_test	390	1845952,/,1846631,/,1847312,/,1847993,/,1848673,/,1849353,/,1850036,/,1850714,/,1851395,/,1852074,/,1852755,/,1853436,/	t,t,t,t,t,t,t,t,t,t,t,t	<img class = center src='/static/experiments/beast_fmri_test/images/T.png'></img>	71,89	2750.0	test	<img class = center src='/static/experiments/beast_fmri_test/images/redT.png'></img>	go	1950.0	1.0	15.0	go	non-target	T	71,Index Finger	89,Middle Finger	450.0	800.0	2300.0	1950.0	1.0	800.0	n/a	1.0	ITI
82255	500	n/a	-1	-1	500	0.0	fixation	poldrack-single-stim	615	1854055	0.0-25.16-0.16	beast_fmri_test	390	n/a	n/a	<div class = centerbox2><div class = fixation>+</div></div>	none	500.0	test	n/a	n/a	n/a	n/a	n/a	n/a	n/a	n/a	n/a	n/a	n/a	n/a	n/a	n/a	n/a	n/a	n/a	n/a	fixation
81479.808252441697	800.0	n/a	552	89	2750	780.191747558	stim	stop-signal	616	1856810	0.0-25.16-1.16	beast_fmri_test	390	1854115,/,1854796,/,1855476,/,1856157,/,1856836,/,1857517,/	t,t,t,t,t,t	<img class = center src='/static/experiments/beast_fmri_test/images/P.png'></img>	71,89	2750.0	test	<img class = center src='/static/experiments/beast_fmri_test/images/redP.png'></img>	stop	1950.0	1.0	16.0	stop	non-target	P	71,Index Finger	89,Middle Finger	450.0	800.0	2300.0	1950.0	0.0	800.0	0.0	n/a	go_stim
83429.808252441697	1950.0	n/a	552	89	2750	780.191747558	stim	stop-signal	616	1856810	0.0-25.16-1.16	beast_fmri_test	390	1854115,/,1854796,/,1855476,/,1856157,/,1856836,/,1857517,/	t,t,t,t,t,t	<img class = center src='/static/experiments/beast_fmri_test/images/P.png'></img>	71,89	2750.0	test	<img class = center src='/static/experiments/beast_fmri_test/images/redP.png'></img>	stop	1950.0	1.0	16.0	stop	non-target	P	71,Index Finger	89,Middle Finger	450.0	800.0	2300.0	1950.0	0.0	800.0	0.0	n/a	stop_stim
84229.808252441697	780.19174755828328	n/a	552	89	2750	780.191747558	stim	stop-signal	616	1856810	0.0-25.16-1.16	beast_fmri_test	390	1854115,/,1854796,/,1855476,/,1856157,/,1856836,/,1857517,/	t,t,t,t,t,t	<img class = center src='/static/experiments/beast_fmri_test/images/P.png'></img>	71,89	2750.0	test	<img class = center src='/static/experiments/beast_fmri_test/images/redP.png'></img>	stop	1950.0	1.0	16.0	stop	non-target	P	71,Index Finger	89,Middle Finger	450.0	800.0	2300.0	1950.0	0.0	800.0	0.0	n/a	ITI
86351	500	n/a	-1	-1	500	0.0	fixation	poldrack-single-stim	617	1858151	0.0-25.17-0.17	beast_fmri_test	390	n/a	n/a	<div class = centerbox2><div class = fixation>+</div></div>	none	500.0	test	n/a	n/a	n/a	n/a	n/a	n/a	n/a	n/a	n/a	n/a	n/a	n/a	n/a	n/a	n/a	n/a	n/a	n/a	fixation
85707.472770392429	450.0	n/a	-1	-1	2750	648.527229608	stim	stop-signal	618	1860906	0.0-25.17-1.17	beast_fmri_test	390	1858197,/,1858878,/,1859559,/,1860239,/,1860918,/	t,t,t,t,t	<img class = center src='/static/experiments/beast_fmri_test/images/P.png'></img>	71,89	2750.0	test	<img class = center src='/static/experiments/beast_fmri_test/images/redP.png'></img>	stop	2300.0	1.0	17.0	stop	target	P	71,Index Finger	89,Middle Finger	450.0	750.0	2300.0	1950.0	0.0	450.0	1.0	n/a	go_stim
88007.472770392429	2300.0	n/a	-1	-1	2750	648.527229608	stim	stop-signal	618	1860906	0.0-25.17-1.17	beast_fmri_test	390	1858197,/,1858878,/,1859559,/,1860239,/,1860918,/	t,t,t,t,t	<img class = center src='/static/experiments/beast_fmri_test/images/P.png'></img>	71,89	2750.0	test	<img class = center src='/static/experiments/beast_fmri_test/images/redP.png'></img>	stop	2300.0	1.0	17.0	stop	target	P	71,Index Finger	89,Middle Finger	450.0	750.0	2300.0	1950.0	0.0	450.0	1.0	n/a	stop_stim
88457.472770392429	648.52722960767471	n/a	-1	-1	2750	648.527229608	stim	stop-signal	618	1860906	0.0-25.17-1.17	beast_fmri_test	390	1858197,/,1858878,/,1859559,/,1860239,/,1860918,/	t,t,t,t,t	<img class = center src='/static/experiments/beast_fmri_test/images/P.png'></img>	71,89	2750.0	test	<img class = center src='/static/experiments/beast_fmri_test/images/redP.png'></img>	stop	2300.0	1.0	17.0	stop	target	P	71,Index Finger	89,Middle Finger	450.0	750.0	2300.0	1950.0	0.0	450.0	1.0	n/a	ITI
90314	500	n/a	-1	-1	500	0.0	fixation	poldrack-single-stim	619	1862114	0.0-25.18-0.18	beast_fmri_test	390	1861613,/	t	<div class = centerbox2><div class = fixation>+</div></div>	none	500.0	test	n/a	n/a	n/a	n/a	n/a	n/a	n/a	n/a	n/a	n/a	n/a	n/a	n/a	n/a	n/a	n/a	n/a	n/a	fixation
87210.018306186656	2750	n/a	575	89	2750	3107.98169381	stim	stop-signal	620	1864868	0.0-25.18-1.18	beast_fmri_test	390	1862279,/,1862959,/,1863640,/,1864320,/,1864999,/,1865681,/,1866361,/,1867041,/,1867721,/	t,t,t,t,t,t,t,t,t	<img class = center src='/static/experiments/beast_fmri_test/images/D.png'></img>	71,89	2750.0	test	<img class = center src='/static/experiments/beast_fmri_test/images/redD.png'></img>	go	2000.0	1.0	18.0	go	non-target	D	71,Index Finger	89,Middle Finger	500.0	750.0	2300.0	2000.0	1.0	750.0	n/a	1.0	go_stim
89960.018306186656	3107.9816938134554	n/a	575	89	2750	3107.98169381	stim	stop-signal	620	1864868	0.0-25.18-1.18	beast_fmri_test	390	1862279,/,1862959,/,1863640,/,1864320,/,1864999,/,1865681,/,1866361,/,1867041,/,1867721,/	t,t,t,t,t,t,t,t,t	<img class = center src='/static/experiments/beast_fmri_test/images/D.png'></img>	71,89	2750.0	test	<img class = center src='/static/experiments/beast_fmri_test/images/redD.png'></img>	go	2000.0	1.0	18.0	go	non-target	D	71,Index Finger	89,Middle Finger	500.0	750.0	2300.0	2000.0	1.0	750.0	n/a	1.0	ITI
96737	500	n/a	-1	-1	500	0.0	fixation	poldrack-single-stim	621	1868537	0.0-25.19-0.19	beast_fmri_test	390	1868403,/	t	<div class = centerbox2><div class = fixation>+</div></div>	none	500.0	test	n/a	n/a	n/a	n/a	n/a	n/a	n/a	n/a	n/a	n/a	n/a	n/a	n/a	n/a	n/a	n/a	n/a	n/a	fixation
96189.258576958673	2750	n/a	1082	89	2750	552.741423041	stim	stop-signal	622	1871292	0.0-25.19-1.19	beast_fmri_test	390	1869081,/,1869763,/,1870443,/,1871123,/,1871803,/	t,t,t,t,t	<img class = center src='/static/experiments/beast_fmri_test/images/V.png'></img>	71,89	2750.0	test	<img class = center src='/static/experiments/beast_fmri_test/images/redV.png'></img>	go	2000.0	1.0	19.0	go	non-target	V	71,Index Finger	89,Middle Finger	500.0	750.0	2300.0	2000.0	1.0	750.0	n/a	1.0	go_stim
98939.258576958673	552.74142304134648	n/a	1082	89	2750	552.741423041	stim	stop-signal	622	1871292	0.0-25.19-1.19	beast_fmri_test	390	1869081,/,1869763,/,1870443,/,1871123,/,1871803,/	t,t,t,t,t	<img class = center src='/static/experiments/beast_fmri_test/images/V.png'></img>	71,89	2750.0	test	<img class = center src='/static/experiments/beast_fmri_test/images/redV.png'></img>	go	2000.0	1.0	19.0	go	non-target	V	71,Index Finger	89,Middle Finger	500.0	750.0	2300.0	2000.0	1.0	750.0	n/a	1.0	ITI
100610	500	n/a	-1	-1	500	0.0	fixation	poldrack-single-stim	623	1872410	0.0-25.20-0.20	beast_fmri_test	390	n/a	n/a	<div class = centerbox2><div class = fixation>+</div></div>	none	500.0	test	n/a	n/a	n/a	n/a	n/a	n/a	n/a	n/a	n/a	n/a	n/a	n/a	n/a	n/a	n/a	n/a	n/a	n/a	fixation
100592.08757368848	2750	n/a	794	71	2750	21.9124263114	stim	stop-signal	624	1875164	0.0-25.20-1.20	beast_fmri_test	390	1872483,/,1873164,/,1873844,/,1874523,/	t,t,t,t	<img class = center src='/static/experiments/beast_fmri_test/images/V.png'></img>	71,89	2750.0	test	<img class = center src='/static/experiments/beast_fmri_test/images/redV.png'></img>	go	2250.0	1.0	20.0	go	target	V	71,Index Finger	89,Middle Finger	500.0	750.0	2250.0	2000.0	1.0	500.0	n/a	1.0	go_stim
103342.08757368848	21.912426311437134	n/a	794	71	2750	21.9124263114	stim	stop-signal	624	1875164	0.0-25.20-1.20	beast_fmri_test	390	1872483,/,1873164,/,1873844,/,1874523,/	t,t,t,t	<img class = center src='/static/experiments/beast_fmri_test/images/V.png'></img>	71,89	2750.0	test	<img class = center src='/static/experiments/beast_fmri_test/images/redV.png'></img>	go	2250.0	1.0	20.0	go	target	V	71,Index Finger	89,Middle Finger	500.0	750.0	2250.0	2000.0	1.0	500.0	n/a	1.0	ITI
103961	500	n/a	-1	-1	500	0.0	fixation	poldrack-single-stim	625	1875761	0.0-25.21-0.21	beast_fmri_test	390	1875258,/	t	<div class = centerbox2><div class = fixation>+</div></div>	none	500.0	test	n/a	n/a	n/a	n/a	n/a	n/a	n/a	n/a	n/a	n/a	n/a	n/a	n/a	n/a	n/a	n/a	n/a	n/a	fixation
102444.00159008568	2750	n/a	617	71	2750	1520.99840991	stim	stop-signal	626	1878515	0.0-25.21-1.21	beast_fmri_test	390	1875885,/,1876565,/,1877245,/,1877925,/,1878606,/,1879286,/,1879967,/	t,t,t,t,t,t,t	<img class = center src='/static/experiments/beast_fmri_test/images/V.png'></img>	71,89	2750.0	test	<img class = center src='/static/experiments/beast_fmri_test/images/redV.png'></img>	go	2250.0	1.0	21.0	go	target	V	71,Index Finger	89,Middle Finger	500.0	750.0	2250.0	2000.0	1.0	500.0	n/a	1.0	go_stim
105194.00159008568	1520.9984099142966	n/a	617	71	2750	1520.99840991	stim	stop-signal	626	1878515	0.0-25.21-1.21	beast_fmri_test	390	1875885,/,1876565,/,1877245,/,1877925,/,1878606,/,1879286,/,1879967,/	t,t,t,t,t,t,t	<img class = center src='/static/experiments/beast_fmri_test/images/V.png'></img>	71,89	2750.0	test	<img class = center src='/static/experiments/beast_fmri_test/images/redV.png'></img>	go	2250.0	1.0	21.0	go	target	V	71,Index Finger	89,Middle Finger	500.0	750.0	2250.0	2000.0	1.0	500.0	n/a	1.0	ITI
108803	500	n/a	-1	-1	500	0.0	fixation	poldrack-single-stim	627	1880603	0.0-25.22-0.22	beast_fmri_test	390	n/a	n/a	<div class = centerbox2><div class = fixation>+</div></div>	none	500.0	test	n/a	n/a	n/a	n/a	n/a	n/a	n/a	n/a	n/a	n/a	n/a	n/a	n/a	n/a	n/a	n/a	n/a	n/a	fixation
108714.42183715105	750.0	n/a	623	89	2750	93.5781628488	stim	stop-signal	628	1883358	0.0-25.22-1.22	beast_fmri_test	390	1880646,/,1881327,/,1882008,/,1882689,/,1883368,/	t,t,t,t,t	<img class = center src='/static/experiments/beast_fmri_test/images/P.png'></img>	71,89	2750.0	test	<img class = center src='/static/experiments/beast_fmri_test/images/redP.png'></img>	stop	2000.0	1.0	22.0	stop	non-target	P	71,Index Finger	89,Middle Finger	500.0	750.0	2250.0	2000.0	0.0	750.0	0.0	n/a	go_stim
110714.42183715105	2000.0	n/a	623	89	2750	93.5781628488	stim	stop-signal	628	1883358	0.0-25.22-1.22	beast_fmri_test	390	1880646,/,1881327,/,1882008,/,1882689,/,1883368,/	t,t,t,t,t	<img class = center src='/static/experiments/beast_fmri_test/images/P.png'></img>	71,89	2750.0	test	<img class = center src='/static/experiments/beast_fmri_test/images/redP.png'></img>	stop	2000.0	1.0	22.0	stop	non-target	P	71,Index Finger	89,Middle Finger	500.0	750.0	2250.0	2000.0	0.0	750.0	0.0	n/a	stop_stim
111464.42183715105	93.578162848836769	n/a	623	89	2750	93.5781628488	stim	stop-signal	628	1883358	0.0-25.22-1.22	beast_fmri_test	390	1880646,/,1881327,/,1882008,/,1882689,/,1883368,/	t,t,t,t,t	<img class = center src='/static/experiments/beast_fmri_test/images/P.png'></img>	71,89	2750.0	test	<img class = center src='/static/experiments/beast_fmri_test/images/redP.png'></img>	stop	2000.0	1.0	22.0	stop	non-target	P	71,Index Finger	89,Middle Finger	500.0	750.0	2250.0	2000.0	0.0	750.0	0.0	n/a	ITI
112213	500	n/a	-1	-1	500	0.0	fixation	poldrack-single-stim	629	1884013	0.0-25.23-0.23	beast_fmri_test	390	n/a	n/a	<div class = centerbox2><div class = fixation>+</div></div>	none	500.0	test	n/a	n/a	n/a	n/a	n/a	n/a	n/a	n/a	n/a	n/a	n/a	n/a	n/a	n/a	n/a	n/a	n/a	n/a	fixation
111239.14149268996	2750	n/a	793	71	2750	977.85850731	stim	stop-signal	630	1886767	0.0-25.23-1.23	beast_fmri_test	390	1884048,/,1884730,/,1885410,/,1886090,/,1886769,/,1887451,/	t,t,t,t,t,t	<img class = center src='/static/experiments/beast_fmri_test/images/P.png'></img>	71,89	2750.0	test	<img class = center src='/static/experiments/beast_fmri_test/images/redP.png'></img>	go	2250.0	1.0	23.0	go	target	P	71,Index Finger	89,Middle Finger	500.0	700.0	2250.0	2000.0	1.0	500.0	n/a	1.0	go_stim
113989.14149268996	977.85850731006565	n/a	793	71	2750	977.85850731	stim	stop-signal	630	1886767	0.0-25.23-1.23	beast_fmri_test	390	1884048,/,1884730,/,1885410,/,1886090,/,1886769,/,1887451,/	t,t,t,t,t,t	<img class = center src='/static/experiments/beast_fmri_test/images/P.png'></img>	71,89	2750.0	test	<img class = center src='/static/experiments/beast_fmri_test/images/redP.png'></img>	go	2250.0	1.0	23.0	go	target	P	71,Index Finger	89,Middle Finger	500.0	700.0	2250.0	2000.0	1.0	500.0	n/a	1.0	ITI
116508	500	n/a	-1	-1	500	0.0	fixation	poldrack-single-stim	631	1888308	0.0-25.24-0.24	beast_fmri_test	390	1888130,/	t	<div class = centerbox2><div class = fixation>+</div></div>	none	500.0	test	n/a	n/a	n/a	n/a	n/a	n/a	n/a	n/a	n/a	n/a	n/a	n/a	n/a	n/a	n/a	n/a	n/a	n/a	fixation
115973.16587105673	2750	n/a	599	71	2750	537.834128943	stim	stop-signal	632	1891061	0.0-25.24-1.24	beast_fmri_test	390	1888811,/,1889492,/,1890170,/,1890852,/,1891532,/	t,t,t,t,t	<img class = center src='/static/experiments/beast_fmri_test/images/P.png'></img>	71,89	2750.0	test	<img class = center src='/static/experiments/beast_fmri_test/images/redP.png'></img>	go	2250.0	1.0	24.0	go	target	P	71,Index Finger	89,Middle Finger	500.0	700.0	2250.0	2000.0	1.0	500.0	n/a	1.0	go_stim
118723.16587105673	537.83412894327262	n/a	599	71	2750	537.834128943	stim	stop-signal	632	1891061	0.0-25.24-1.24	beast_fmri_test	390	1888811,/,1889492,/,1890170,/,1890852,/,1891532,/	t,t,t,t,t	<img class = center src='/static/experiments/beast_fmri_test/images/P.png'></img>	71,89	2750.0	test	<img class = center src='/static/experiments/beast_fmri_test/images/redP.png'></img>	go	2250.0	1.0	24.0	go	target	P	71,Index Finger	89,Middle Finger	500.0	700.0	2250.0	2000.0	1.0	500.0	n/a	1.0	ITI
120364	500	n/a	-1	-1	500	0.0	fixation	poldrack-single-stim	633	1892164	0.0-25.25-0.25	beast_fmri_test	390	n/a	n/a	<div class = centerbox2><div class = fixation>+</div></div>	none	500.0	test	n/a	n/a	n/a	n/a	n/a	n/a	n/a	n/a	n/a	n/a	n/a	n/a	n/a	n/a	n/a	n/a	n/a	n/a	fixation
119883.91082105902	2750	n/a	630	71	2750	483.089178941	stim	stop-signal	634	1894917	0.0-25.25-1.25	beast_fmri_test	390	1892211,/,1892893,/,1893573,/,1894253,/,1894932,/	t,t,t,t,t	<img class = center src='/static/experiments/beast_fmri_test/images/P.png'></img>	71,89	2750.0	test	<img class = center src='/static/experiments/beast_fmri_test/images/redP.png'></img>	go	2250.0	1.0	25.0	go	target	P	71,Index Finger	89,Middle Finger	500.0	700.0	2250.0	2000.0	1.0	500.0	n/a	1.0	go_stim
122633.91082105902	483.08917894089751	n/a	630	71	2750	483.089178941	stim	stop-signal	634	1894917	0.0-25.25-1.25	beast_fmri_test	390	1892211,/,1892893,/,1893573,/,1894253,/,1894932,/	t,t,t,t,t	<img class = center src='/static/experiments/beast_fmri_test/images/P.png'></img>	71,89	2750.0	test	<img class = center src='/static/experiments/beast_fmri_test/images/redP.png'></img>	go	2250.0	1.0	25.0	go	target	P	71,Index Finger	89,Middle Finger	500.0	700.0	2250.0	2000.0	1.0	500.0	n/a	1.0	ITI
124167	500	n/a	-1	-1	500	0.0	fixation	poldrack-single-stim	635	1895967	0.0-25.26-0.26	beast_fmri_test	390	1895614,/	t	<div class = centerbox2><div class = fixation>+</div></div>	none	500.0	test	n/a	n/a	n/a	n/a	n/a	n/a	n/a	n/a	n/a	n/a	n/a	n/a	n/a	n/a	n/a	n/a	n/a	n/a	fixation
123779.3893322926	2750	n/a	644	89	2750	391.610667707	stim	stop-signal	636	1898721	0.0-25.26-1.26	beast_fmri_test	390	1896294,/,1896974,/,1897655,/,1898335,/,1899014,/	t,t,t,t,t	<img class = center src='/static/experiments/beast_fmri_test/images/D.png'></img>	71,89	2750.0	test	<img class = center src='/static/experiments/beast_fmri_test/images/redD.png'></img>	go	2050.0	1.0	26.0	go	non-target	D	71,Index Finger	89,Middle Finger	500.0	700.0	2250.0	2050.0	1.0	700.0	n/a	1.0	go_stim
126529.3893322926	391.61066770734254	n/a	644	89	2750	391.610667707	stim	stop-signal	636	1898721	0.0-25.26-1.26	beast_fmri_test	390	1896294,/,1896974,/,1897655,/,1898335,/,1899014,/	t,t,t,t,t	<img class = center src='/static/experiments/beast_fmri_test/images/D.png'></img>	71,89	2750.0	test	<img class = center src='/static/experiments/beast_fmri_test/images/redD.png'></img>	go	2050.0	1.0	26.0	go	non-target	D	71,Index Finger	89,Middle Finger	500.0	700.0	2250.0	2050.0	1.0	700.0	n/a	1.0	ITI
127877	500	n/a	-1	-1	500	0.0	fixation	poldrack-single-stim	637	1899677	0.0-25.27-0.27	beast_fmri_test	390	n/a	n/a	<div class = centerbox2><div class = fixation>+</div></div>	none	500.0	test	n/a	n/a	n/a	n/a	n/a	n/a	n/a	n/a	n/a	n/a	n/a	n/a	n/a	n/a	n/a	n/a	n/a	n/a	fixation
127140.16896741767	700.0	n/a	-1	-1	2750	739.831032582	stim	stop-signal	638	1902430	0.0-25.27-1.27	beast_fmri_test	390	1899695,/,1900375,/,1901056,/,1901737,/,1902417,/,1903097,/	t,t,t,t,t,t	<img class = center src='/static/experiments/beast_fmri_test/images/V.png'></img>	71,89	2750.0	test	<img class = center src='/static/experiments/beast_fmri_test/images/redV.png'></img>	stop	2050.0	1.0	27.0	stop	non-target	V	71,Index Finger	89,Middle Finger	500.0	700.0	2250.0	2050.0	0.0	700.0	1.0	n/a	go_stim
129190.16896741767	2050.0	n/a	-1	-1	2750	739.831032582	stim	stop-signal	638	1902430	0.0-25.27-1.27	beast_fmri_test	390	1899695,/,1900375,/,1901056,/,1901737,/,1902417,/,1903097,/	t,t,t,t,t,t	<img class = center src='/static/experiments/beast_fmri_test/images/V.png'></img>	71,89	2750.0	test	<img class = center src='/static/experiments/beast_fmri_test/images/redV.png'></img>	stop	2050.0	1.0	27.0	stop	non-target	V	71,Index Finger	89,Middle Finger	500.0	700.0	2250.0	2050.0	0.0	700.0	1.0	n/a	stop_stim
129890.16896741767	739.83103258231313	n/a	-1	-1	2750	739.831032582	stim	stop-signal	638	1902430	0.0-25.27-1.27	beast_fmri_test	390	1899695,/,1900375,/,1901056,/,1901737,/,1902417,/,1903097,/	t,t,t,t,t,t	<img class = center src='/static/experiments/beast_fmri_test/images/V.png'></img>	71,89	2750.0	test	<img class = center src='/static/experiments/beast_fmri_test/images/redV.png'></img>	stop	2050.0	1.0	27.0	stop	non-target	V	71,Index Finger	89,Middle Finger	500.0	700.0	2250.0	2050.0	0.0	700.0	1.0	n/a	ITI
131935	500	n/a	-1	-1	500	0.0	fixation	poldrack-single-stim	639	1903735	0.0-25.28-0.28	beast_fmri_test	390	n/a	n/a	<div class = centerbox2><div class = fixation>+</div></div>	none	500.0	test	n/a	n/a	n/a	n/a	n/a	n/a	n/a	n/a	n/a	n/a	n/a	n/a	n/a	n/a	n/a	n/a	n/a	n/a	fixation
131202.36719288235	2750	n/a	780	89	2750	736.632807118	stim	stop-signal	640	1906489	0.0-25.28-1.28	beast_fmri_test	390	1903776,/,1904458,/,1905137,/,1905818,/,1906499,/,1907179,/	t,t,t,t,t,t	<img class = center src='/static/experiments/beast_fmri_test/images/T.png'></img>	71,89	2750.0	test	<img class = center src='/static/experiments/beast_fmri_test/images/redT.png'></img>	go	2000.0	1.0	28.0	go	non-target	T	71,Index Finger	89,Middle Finger	500.0	750.0	2250.0	2000.0	1.0	750.0	n/a	1.0	go_stim
133952.36719288235	736.63280711762729	n/a	780	89	2750	736.632807118	stim	stop-signal	640	1906489	0.0-25.28-1.28	beast_fmri_test	390	1903776,/,1904458,/,1905137,/,1905818,/,1906499,/,1907179,/	t,t,t,t,t,t	<img class = center src='/static/experiments/beast_fmri_test/images/T.png'></img>	71,89	2750.0	test	<img class = center src='/static/experiments/beast_fmri_test/images/redT.png'></img>	go	2000.0	1.0	28.0	go	non-target	T	71,Index Finger	89,Middle Finger	500.0	750.0	2250.0	2000.0	1.0	750.0	n/a	1.0	ITI
135991	500	n/a	-1	-1	500	0.0	fixation	poldrack-single-stim	641	1907791	0.0-25.29-0.29	beast_fmri_test	390	n/a	n/a	<div class = centerbox2><div class = fixation>+</div></div>	none	500.0	test	n/a	n/a	n/a	n/a	n/a	n/a	n/a	n/a	n/a	n/a	n/a	n/a	n/a	n/a	n/a	n/a	n/a	n/a	fixation
134956.95043356204	750.0	n/a	449	89	2750	1038.04956644	stim	stop-signal	642	1910545	0.0-25.29-1.29	beast_fmri_test	390	1907859,/,1908539,/,1909219,/,1909900,/,1910578,/,1911261,/	t,t,t,t,t,t	<img class = center src='/static/experiments/beast_fmri_test/images/D.png'></img>	71,89	2750.0	test	<img class = center src='/static/experiments/beast_fmri_test/images/redD.png'></img>	stop	2000.0	1.0	29.0	stop	non-target	D	71,Index Finger	89,Middle Finger	500.0	750.0	2250.0	2000.0	0.0	750.0	0.0	n/a	go_stim
136956.95043356204	2000.0	n/a	449	89	2750	1038.04956644	stim	stop-signal	642	1910545	0.0-25.29-1.29	beast_fmri_test	390	1907859,/,1908539,/,1909219,/,1909900,/,1910578,/,1911261,/	t,t,t,t,t,t	<img class = center src='/static/experiments/beast_fmri_test/images/D.png'></img>	71,89	2750.0	test	<img class = center src='/static/experiments/beast_fmri_test/images/redD.png'></img>	stop	2000.0	1.0	29.0	stop	non-target	D	71,Index Finger	89,Middle Finger	500.0	750.0	2250.0	2000.0	0.0	750.0	0.0	n/a	stop_stim
137706.95043356204	1038.0495664379362	n/a	449	89	2750	1038.04956644	stim	stop-signal	642	1910545	0.0-25.29-1.29	beast_fmri_test	390	1907859,/,1908539,/,1909219,/,1909900,/,1910578,/,1911261,/	t,t,t,t,t,t	<img class = center src='/static/experiments/beast_fmri_test/images/D.png'></img>	71,89	2750.0	test	<img class = center src='/static/experiments/beast_fmri_test/images/redD.png'></img>	stop	2000.0	1.0	29.0	stop	non-target	D	71,Index Finger	89,Middle Finger	500.0	750.0	2250.0	2000.0	0.0	750.0	0.0	n/a	ITI
140351	500	n/a	-1	-1	500	0.0	fixation	poldrack-single-stim	643	1912151	0.0-25.30-0.30	beast_fmri_test	390	1911942,/	t	<div class = centerbox2><div class = fixation>+</div></div>	none	500.0	test	n/a	n/a	n/a	n/a	n/a	n/a	n/a	n/a	n/a	n/a	n/a	n/a	n/a	n/a	n/a	n/a	n/a	n/a	fixation
138968.94126556674	2750	n/a	1012	89	2750	1387.05873443	stim	stop-signal	644	1914906	0.0-25.30-1.30	beast_fmri_test	390	1912622,/,1913302,/,1913982,/,1914663,/,1915343,/,1916023,/	t,t,t,t,t,t	<img class = center src='/static/experiments/beast_fmri_test/images/P.png'></img>	71,89	2750.0	test	<img class = center src='/static/experiments/beast_fmri_test/images/redP.png'></img>	go	2050.0	1.0	30.0	go	non-target	P	71,Index Finger	89,Middle Finger	500.0	700.0	2250.0	2050.0	1.0	700.0	n/a	1.0	go_stim
141718.94126556674	1387.0587344333544	n/a	1012	89	2750	1387.05873443	stim	stop-signal	644	1914906	0.0-25.30-1.30	beast_fmri_test	390	1912622,/,1913302,/,1913982,/,1914663,/,1915343,/,1916023,/	t,t,t,t,t,t	<img class = center src='/static/experiments/beast_fmri_test/images/P.png'></img>	71,89	2750.0	test	<img class = center src='/static/experiments/beast_fmri_test/images/redP.png'></img>	go	2050.0	1.0	30.0	go	non-target	P	71,Index Finger	89,Middle Finger	500.0	700.0	2250.0	2050.0	1.0	700.0	n/a	1.0	ITI
145064	500	n/a	-1	-1	500	0.0	fixation	poldrack-single-stim	645	1916864	0.0-25.31-0.31	beast_fmri_test	390	1916704,/	t	<div class = centerbox2><div class = fixation>+</div></div>	none	500.0	test	n/a	n/a	n/a	n/a	n/a	n/a	n/a	n/a	n/a	n/a	n/a	n/a	n/a	n/a	n/a	n/a	n/a	n/a	fixation
140069.0	2750	n/a	479	71	2750	5000.0	stim	stop-signal	646	1919619	0.0-25.31-1.31	beast_fmri_test	390	1917384,/,1918063,/,1918743,/,1919425,/,1920104,/,1920785,/,1921466,/,1922146,/,1922824,/,1923506,/,1924185,/	t,t,t,t,t,t,t,t,t,t,t	<img class = center src='/static/experiments/beast_fmri_test/images/P.png'></img>	71,89	2750.0	test	<img class = center src='/static/experiments/beast_fmri_test/images/redP.png'></img>	go	2250.0	1.0	31.0	go	target	P	71,Index Finger	89,Middle Finger	500.0	700.0	2250.0	2050.0	1.0	500.0	n/a	1.0	go_stim
142819.0	5000.0	n/a	479	71	2750	5000.0	stim	stop-signal	646	1919619	0.0-25.31-1.31	beast_fmri_test	390	1917384,/,1918063,/,1918743,/,1919425,/,1920104,/,1920785,/,1921466,/,1922146,/,1922824,/,1923506,/,1924185,/	t,t,t,t,t,t,t,t,t,t,t	<img class = center src='/static/experiments/beast_fmri_test/images/P.png'></img>	71,89	2750.0	test	<img class = center src='/static/experiments/beast_fmri_test/images/redP.png'></img>	go	2250.0	1.0	31.0	go	target	P	71,Index Finger	89,Middle Finger	500.0	700.0	2250.0	2050.0	1.0	500.0	n/a	1.0	ITI
153388	500	n/a	-1	-1	500	0.0	fixation	poldrack-single-stim	647	1925188	0.0-25.32-0.32	beast_fmri_test	390	1924868,/	t	<div class = centerbox2><div class = fixation>+</div></div>	none	500.0	test	n/a	n/a	n/a	n/a	n/a	n/a	n/a	n/a	n/a	n/a	n/a	n/a	n/a	n/a	n/a	n/a	n/a	n/a	fixation
151568.19216414494	2750	n/a	501	89	2750	1823.80783586	stim	stop-signal	648	1927942	0.0-25.32-1.32	beast_fmri_test	390	1925547,/,1926228,/,1926908,/,1927588,/,1928267,/,1928947,/,1929629,/	t,t,t,t,t,t,t	<img class = center src='/static/experiments/beast_fmri_test/images/D.png'></img>	71,89	2750.0	test	<img class = center src='/static/experiments/beast_fmri_test/images/redD.png'></img>	go	2050.0	1.0	32.0	go	non-target	D	71,Index Finger	89,Middle Finger	500.0	700.0	2250.0	2050.0	1.0	700.0	n/a	1.0	go_stim
154318.19216414494	1823.8078358550156	n/a	501	89	2750	1823.80783586	stim	stop-signal	648	1927942	0.0-25.32-1.32	beast_fmri_test	390	1925547,/,1926228,/,1926908,/,1927588,/,1928267,/,1928947,/,1929629,/	t,t,t,t,t,t,t	<img class = center src='/static/experiments/beast_fmri_test/images/D.png'></img>	71,89	2750.0	test	<img class = center src='/static/experiments/beast_fmri_test/images/redD.png'></img>	go	2050.0	1.0	32.0	go	non-target	D	71,Index Finger	89,Middle Finger	500.0	700.0	2250.0	2050.0	1.0	700.0	n/a	1.0	ITI
158543	500	n/a	-1	-1	500	0.0	fixation	poldrack-single-stim	649	1930343	0.0-25.33-0.33	beast_fmri_test	390	1930310,/	t	<div class = centerbox2><div class = fixation>+</div></div>	none	500.0	test	n/a	n/a	n/a	n/a	n/a	n/a	n/a	n/a	n/a	n/a	n/a	n/a	n/a	n/a	n/a	n/a	n/a	n/a	fixation
156610.23471438582	2750	n/a	587	89	2750	1936.76528561	stim	stop-signal	650	1933097	0.0-25.33-1.33	beast_fmri_test	390	1930988,/,1931670,/,1932350,/,1933030,/,1933710,/,1934391,/	t,t,t,t,t,t	<img class = center src='/static/experiments/beast_fmri_test/images/P.png'></img>	71,89	2750.0	test	<img class = center src='/static/experiments/beast_fmri_test/images/redP.png'></img>	go	2050.0	1.0	33.0	go	non-target	P	71,Index Finger	89,Middle Finger	500.0	700.0	2250.0	2050.0	1.0	700.0	n/a	1.0	go_stim
159360.23471438582	1936.7652856141024	n/a	587	89	2750	1936.76528561	stim	stop-signal	650	1933097	0.0-25.33-1.33	beast_fmri_test	390	1930988,/,1931670,/,1932350,/,1933030,/,1933710,/,1934391,/	t,t,t,t,t,t	<img class = center src='/static/experiments/beast_fmri_test/images/P.png'></img>	71,89	2750.0	test	<img class = center src='/static/experiments/beast_fmri_test/images/redP.png'></img>	go	2050.0	1.0	33.0	go	non-target	P	71,Index Finger	89,Middle Finger	500.0	700.0	2250.0	2050.0	1.0	700.0	n/a	1.0	ITI
163801	500	n/a	-1	-1	500	0.0	fixation	poldrack-single-stim	651	1935601	0.0-25.34-0.34	beast_fmri_test	390	1935098,/	t	<div class = centerbox2><div class = fixation>+</div></div>	none	500.0	test	n/a	n/a	n/a	n/a	n/a	n/a	n/a	n/a	n/a	n/a	n/a	n/a	n/a	n/a	n/a	n/a	n/a	n/a	fixation
162812.82426068885	2750	n/a	489	71	2750	992.175739311	stim	stop-signal	652	1938355	0.0-25.34-1.34	beast_fmri_test	390	1935752,/,1936432,/,1937112,/,1937792,/,1938476,/,1939152,/	t,t,t,t,t,t	<img class = center src='/static/experiments/beast_fmri_test/images/P.png'></img>	71,89	2750.0	test	<img class = center src='/static/experiments/beast_fmri_test/images/redP.png'></img>	go	2250.0	1.0	34.0	go	target	P	71,Index Finger	89,Middle Finger	500.0	700.0	2250.0	2050.0	1.0	500.0	n/a	1.0	go_stim
165562.82426068885	992.17573931115408	n/a	489	71	2750	992.175739311	stim	stop-signal	652	1938355	0.0-25.34-1.34	beast_fmri_test	390	1935752,/,1936432,/,1937112,/,1937792,/,1938476,/,1939152,/	t,t,t,t,t,t	<img class = center src='/static/experiments/beast_fmri_test/images/P.png'></img>	71,89	2750.0	test	<img class = center src='/static/experiments/beast_fmri_test/images/redP.png'></img>	go	2250.0	1.0	34.0	go	target	P	71,Index Finger	89,Middle Finger	500.0	700.0	2250.0	2050.0	1.0	500.0	n/a	1.0	ITI
168121	500	n/a	-1	-1	500	0.0	fixation	poldrack-single-stim	653	1939921	0.0-25.35-0.35	beast_fmri_test	390	1939833,/	t	<div class = centerbox2><div class = fixation>+</div></div>	none	500.0	test	n/a	n/a	n/a	n/a	n/a	n/a	n/a	n/a	n/a	n/a	n/a	n/a	n/a	n/a	n/a	n/a	n/a	n/a	fixation
167977.10013529053	700.0	n/a	544	89	2750	146.899864709	stim	stop-signal	654	1942674	0.0-25.35-1.35	beast_fmri_test	390	1940514,/,1941195,/,1941874,/,1942555,/	t,t,t,t	<img class = center src='/static/experiments/beast_fmri_test/images/T.png'></img>	71,89	2750.0	test	<img class = center src='/static/experiments/beast_fmri_test/images/redT.png'></img>	stop	2050.0	1.0	35.0	stop	non-target	T	71,Index Finger	89,Middle Finger	500.0	700.0	2250.0	2050.0	0.0	700.0	0.0	n/a	go_stim
170027.10013529053	2050.0	n/a	544	89	2750	146.899864709	stim	stop-signal	654	1942674	0.0-25.35-1.35	beast_fmri_test	390	1940514,/,1941195,/,1941874,/,1942555,/	t,t,t,t	<img class = center src='/static/experiments/beast_fmri_test/images/T.png'></img>	71,89	2750.0	test	<img class = center src='/static/experiments/beast_fmri_test/images/redT.png'></img>	stop	2050.0	1.0	35.0	stop	non-target	T	71,Index Finger	89,Middle Finger	500.0	700.0	2250.0	2050.0	0.0	700.0	0.0	n/a	stop_stim
170727.10013529053	146.89986470936338	n/a	544	89	2750	146.899864709	stim	stop-signal	654	1942674	0.0-25.35-1.35	beast_fmri_test	390	1940514,/,1941195,/,1941874,/,1942555,/	t,t,t,t	<img class = center src='/static/experiments/beast_fmri_test/images/T.png'></img>	71,89	2750.0	test	<img class = center src='/static/experiments/beast_fmri_test/images/redT.png'></img>	stop	2050.0	1.0	35.0	stop	non-target	T	71,Index Finger	89,Middle Finger	500.0	700.0	2250.0	2050.0	0.0	700.0	0.0	n/a	ITI
171591	500	n/a	-1	-1	500	0.0	fixation	poldrack-single-stim	655	1943391	0.0-25.36-0.36	beast_fmri_test	390	1943235,/	t	<div class = centerbox2><div class = fixation>+</div></div>	none	500.0	test	n/a	n/a	n/a	n/a	n/a	n/a	n/a	n/a	n/a	n/a	n/a	n/a	n/a	n/a	n/a	n/a	n/a	n/a	fixation
171432.37897242839	650.0	n/a	-1	-1	2750	163.621027572	stim	stop-signal	656	1946146	0.0-25.36-1.36	beast_fmri_test	390	1943916,/,1944597,/,1945277,/,1945956,/	t,t,t,t	<img class = center src='/static/experiments/beast_fmri_test/images/V.png'></img>	71,89	2750.0	test	<img class = center src='/static/experiments/beast_fmri_test/images/redV.png'></img>	stop	2100.0	1.0	36.0	stop	non-target	V	71,Index Finger	89,Middle Finger	500.0	650.0	2250.0	2100.0	0.0	650.0	1.0	n/a	go_stim
173532.37897242839	2100.0	n/a	-1	-1	2750	163.621027572	stim	stop-signal	656	1946146	0.0-25.36-1.36	beast_fmri_test	390	1943916,/,1944597,/,1945277,/,1945956,/	t,t,t,t	<img class = center src='/static/experiments/beast_fmri_test/images/V.png'></img>	71,89	2750.0	test	<img class = center src='/static/experiments/beast_fmri_test/images/redV.png'></img>	stop	2100.0	1.0	36.0	stop	non-target	V	71,Index Finger	89,Middle Finger	500.0	650.0	2250.0	2100.0	0.0	650.0	1.0	n/a	stop_stim
174182.37897242839	163.62102757151121	n/a	-1	-1	2750	163.621027572	stim	stop-signal	656	1946146	0.0-25.36-1.36	beast_fmri_test	390	1943916,/,1944597,/,1945277,/,1945956,/	t,t,t,t	<img class = center src='/static/experiments/beast_fmri_test/images/V.png'></img>	71,89	2750.0	test	<img class = center src='/static/experiments/beast_fmri_test/images/redV.png'></img>	stop	2100.0	1.0	36.0	stop	non-target	V	71,Index Finger	89,Middle Finger	500.0	650.0	2250.0	2100.0	0.0	650.0	1.0	n/a	ITI
175082	500	n/a	-1	-1	500	0.0	fixation	poldrack-single-stim	657	1946882	0.0-25.37-0.37	beast_fmri_test	390	1946636,/	t	<div class = centerbox2><div class = fixation>+</div></div>	none	500.0	test	n/a	n/a	n/a	n/a	n/a	n/a	n/a	n/a	n/a	n/a	n/a	n/a	n/a	n/a	n/a	n/a	n/a	n/a	fixation
174836.62183398521	700.0	n/a	850	89	2750	250.378166015	stim	stop-signal	658	1949637	0.0-25.37-1.37	beast_fmri_test	390	1947317,/,1947997,/,1948678,/,1949358,/	t,t,t,t	<img class = center src='/static/experiments/beast_fmri_test/images/T.png'></img>	71,89	2750.0	test	<img class = center src='/static/experiments/beast_fmri_test/images/redT.png'></img>	stop	2050.0	1.0	37.0	stop	non-target	T	71,Index Finger	89,Middle Finger	500.0	700.0	2250.0	2050.0	0.0	700.0	0.0	n/a	go_stim
176886.62183398521	2050.0	n/a	850	89	2750	250.378166015	stim	stop-signal	658	1949637	0.0-25.37-1.37	beast_fmri_test	390	1947317,/,1947997,/,1948678,/,1949358,/	t,t,t,t	<img class = center src='/static/experiments/beast_fmri_test/images/T.png'></img>	71,89	2750.0	test	<img class = center src='/static/experiments/beast_fmri_test/images/redT.png'></img>	stop	2050.0	1.0	37.0	stop	non-target	T	71,Index Finger	89,Middle Finger	500.0	700.0	2250.0	2050.0	0.0	700.0	0.0	n/a	stop_stim
177586.62183398521	250.37816601484769	n/a	850	89	2750	250.378166015	stim	stop-signal	658	1949637	0.0-25.37-1.37	beast_fmri_test	390	1947317,/,1947997,/,1948678,/,1949358,/	t,t,t,t	<img class = center src='/static/experiments/beast_fmri_test/images/T.png'></img>	71,89	2750.0	test	<img class = center src='/static/experiments/beast_fmri_test/images/redT.png'></img>	stop	2050.0	1.0	37.0	stop	non-target	T	71,Index Finger	89,Middle Finger	500.0	700.0	2250.0	2050.0	0.0	700.0	0.0	n/a	ITI
178659	500	n/a	-1	-1	500	0.0	fixation	poldrack-single-stim	659	1950459	0.0-25.38-0.38	beast_fmri_test	390	1950037,/	t	<div class = centerbox2><div class = fixation>+</div></div>	none	500.0	test	n/a	n/a	n/a	n/a	n/a	n/a	n/a	n/a	n/a	n/a	n/a	n/a	n/a	n/a	n/a	n/a	n/a	n/a	fixation
178601.20877146232	2750	n/a	930	89	2750	60.7912285376	stim	stop-signal	660	1953212	0.0-25.38-1.38	beast_fmri_test	390	1950719,/,1951398,/,1952079,/,1952758,/	t,t,t,t	<img class = center src='/static/experiments/beast_fmri_test/images/P.png'></img>	71,89	2750.0	test	<img class = center src='/static/experiments/beast_fmri_test/images/redP.png'></img>	go	2100.0	1.0	38.0	go	non-target	P	71,Index Finger	89,Middle Finger	500.0	650.0	2250.0	2100.0	1.0	650.0	n/a	1.0	go_stim
181351.20877146232	60.791228537579549	n/a	930	89	2750	60.7912285376	stim	stop-signal	660	1953212	0.0-25.38-1.38	beast_fmri_test	390	1950719,/,1951398,/,1952079,/,1952758,/	t,t,t,t	<img class = center src='/static/experiments/beast_fmri_test/images/P.png'></img>	71,89	2750.0	test	<img class = center src='/static/experiments/beast_fmri_test/images/redP.png'></img>	go	2100.0	1.0	38.0	go	non-target	P	71,Index Finger	89,Middle Finger	500.0	650.0	2250.0	2100.0	1.0	650.0	n/a	1.0	ITI
182050	500	n/a	-1	-1	500	0.0	fixation	poldrack-single-stim	661	1953850	0.0-25.39-0.39	beast_fmri_test	390	1953440,/	t	<div class = centerbox2><div class = fixation>+</div></div>	none	500.0	test	n/a	n/a	n/a	n/a	n/a	n/a	n/a	n/a	n/a	n/a	n/a	n/a	n/a	n/a	n/a	n/a	n/a	n/a	fixation
181503.4769210082	500.0	n/a	704	71	2750	552.523078992	stim	stop-signal	662	1956606	0.0-25.39-1.39	beast_fmri_test	390	1954120,/,1954800,/,1955481,/,1956160,/,1956841,/	t,t,t,t,t	<img class = center src='/static/experiments/beast_fmri_test/images/P.png'></img>	71,89	2750.0	test	<img class = center src='/static/experiments/beast_fmri_test/images/redP.png'></img>	stop	2250.0	1.0	39.0	stop	target	P	71,Index Finger	89,Middle Finger	500.0	650.0	2250.0	2100.0	0.0	500.0	0.0	n/a	go_stim
183753.4769210082	2250.0	n/a	704	71	2750	552.523078992	stim	stop-signal	662	1956606	0.0-25.39-1.39	beast_fmri_test	390	1954120,/,1954800,/,1955481,/,1956160,/,1956841,/	t,t,t,t,t	<img class = center src='/static/experiments/beast_fmri_test/images/P.png'></img>	71,89	2750.0	test	<img class = center src='/static/experiments/beast_fmri_test/images/redP.png'></img>	stop	2250.0	1.0	39.0	stop	target	P	71,Index Finger	89,Middle Finger	500.0	650.0	2250.0	2100.0	0.0	500.0	0.0	n/a	stop_stim
184253.4769210082	552.52307899181517	n/a	704	71	2750	552.523078992	stim	stop-signal	662	1956606	0.0-25.39-1.39	beast_fmri_test	390	1954120,/,1954800,/,1955481,/,1956160,/,1956841,/	t,t,t,t,t	<img class = center src='/static/experiments/beast_fmri_test/images/P.png'></img>	71,89	2750.0	test	<img class = center src='/static/experiments/beast_fmri_test/images/redP.png'></img>	stop	2250.0	1.0	39.0	stop	target	P	71,Index Finger	89,Middle Finger	500.0	650.0	2250.0	2100.0	0.0	500.0	0.0	n/a	ITI
185920	500	n/a	-1	-1	500	0.0	fixation	poldrack-single-stim	663	1957720	0.0-25.40-0.40	beast_fmri_test	390	1957521,/	t	<div class = centerbox2><div class = fixation>+</div></div>	none	500.0	test	n/a	n/a	n/a	n/a	n/a	n/a	n/a	n/a	n/a	n/a	n/a	n/a	n/a	n/a	n/a	n/a	n/a	n/a	fixation
183768.53123005875	2750	n/a	1064	89	2750	2155.46876994	stim	stop-signal	664	1960474	0.0-25.40-1.40	beast_fmri_test	390	1958202,/,1958882,/,1959562,/,1960243,/,1960922,/,1961603,/,1962283,/	t,t,t,t,t,t,t	<img class = center src='/static/experiments/beast_fmri_test/images/D.png'></img>	71,89	2750.0	test	<img class = center src='/static/experiments/beast_fmri_test/images/redD.png'></img>	go	2100.0	1.0	40.0	go	non-target	D	71,Index Finger	89,Middle Finger	450.0	650.0	2250.0	2100.0	1.0	650.0	n/a	1.0	go_stim
186518.53123005875	2155.4687699412907	n/a	1064	89	2750	2155.46876994	stim	stop-signal	664	1960474	0.0-25.40-1.40	beast_fmri_test	390	1958202,/,1958882,/,1959562,/,1960243,/,1960922,/,1961603,/,1962283,/	t,t,t,t,t,t,t	<img class = center src='/static/experiments/beast_fmri_test/images/D.png'></img>	71,89	2750.0	test	<img class = center src='/static/experiments/beast_fmri_test/images/redD.png'></img>	go	2100.0	1.0	40.0	go	non-target	D	71,Index Finger	89,Middle Finger	450.0	650.0	2250.0	2100.0	1.0	650.0	n/a	1.0	ITI
191397	500	n/a	-1	-1	500	0.0	fixation	poldrack-single-stim	665	1963197	0.0-25.41-0.41	beast_fmri_test	390	1962965,/	t	<div class = centerbox2><div class = fixation>+</div></div>	none	500.0	test	n/a	n/a	n/a	n/a	n/a	n/a	n/a	n/a	n/a	n/a	n/a	n/a	n/a	n/a	n/a	n/a	n/a	n/a	fixation
191115.03840685659	450.0	n/a	442	71	2750	285.961593143	stim	stop-signal	666	1965951	0.0-25.41-1.41	beast_fmri_test	390	1963642,/,1964325,/,1965004,/,1965684,/	t,t,t,t	<img class = center src='/static/experiments/beast_fmri_test/images/D.png'></img>	71,89	2750.0	test	<img class = center src='/static/experiments/beast_fmri_test/images/redD.png'></img>	stop	2300.0	1.0	41.0	stop	target	D	71,Index Finger	89,Middle Finger	450.0	650.0	2300.0	2100.0	0.0	450.0	0.0	n/a	go_stim
193415.03840685659	2300.0	n/a	442	71	2750	285.961593143	stim	stop-signal	666	1965951	0.0-25.41-1.41	beast_fmri_test	390	1963642,/,1964325,/,1965004,/,1965684,/	t,t,t,t	<img class = center src='/static/experiments/beast_fmri_test/images/D.png'></img>	71,89	2750.0	test	<img class = center src='/static/experiments/beast_fmri_test/images/redD.png'></img>	stop	2300.0	1.0	41.0	stop	target	D	71,Index Finger	89,Middle Finger	450.0	650.0	2300.0	2100.0	0.0	450.0	0.0	n/a	stop_stim
193865.03840685659	285.96159314346386	n/a	442	71	2750	285.961593143	stim	stop-signal	666	1965951	0.0-25.41-1.41	beast_fmri_test	390	1963642,/,1964325,/,1965004,/,1965684,/	t,t,t,t	<img class = center src='/static/experiments/beast_fmri_test/images/D.png'></img>	71,89	2750.0	test	<img class = center src='/static/experiments/beast_fmri_test/images/redD.png'></img>	stop	2300.0	1.0	41.0	stop	target	D	71,Index Finger	89,Middle Finger	450.0	650.0	2300.0	2100.0	0.0	450.0	0.0	n/a	ITI
195004	500	n/a	-1	-1	500	0.0	fixation	poldrack-single-stim	667	1966804	0.0-25.42-0.42	beast_fmri_test	390	1966365,/	t	<div class = centerbox2><div class = fixation>+</div></div>	none	500.0	test	n/a	n/a	n/a	n/a	n/a	n/a	n/a	n/a	n/a	n/a	n/a	n/a	n/a	n/a	n/a	n/a	n/a	n/a	fixation
193744.19199664053	2750	n/a	1247	89	2750	1262.80800336	stim	stop-signal	668	1969557	0.0-25.42-1.42	beast_fmri_test	390	1967045,/,1967727,/,1968407,/,1969087,/,1969767,/,1970447,/	t,t,t,t,t,t	<img class = center src='/static/experiments/beast_fmri_test/images/V.png'></img>	71,89	2750.0	test	<img class = center src='/static/experiments/beast_fmri_test/images/redV.png'></img>	go	2100.0	1.0	42.0	go	non-target	V	71,Index Finger	89,Middle Finger	400.0	650.0	2300.0	2100.0	1.0	650.0	n/a	1.0	go_stim
196494.19199664053	1262.8080033594906	n/a	1247	89	2750	1262.80800336	stim	stop-signal	668	1969557	0.0-25.42-1.42	beast_fmri_test	390	1967045,/,1967727,/,1968407,/,1969087,/,1969767,/,1970447,/	t,t,t,t,t,t	<img class = center src='/static/experiments/beast_fmri_test/images/V.png'></img>	71,89	2750.0	test	<img class = center src='/static/experiments/beast_fmri_test/images/redV.png'></img>	go	2100.0	1.0	42.0	go	non-target	V	71,Index Finger	89,Middle Finger	400.0	650.0	2300.0	2100.0	1.0	650.0	n/a	1.0	ITI
199588	500	n/a	-1	-1	500	0.0	fixation	poldrack-single-stim	669	1971388	0.0-25.43-0.43	beast_fmri_test	390	1971127,/	t	<div class = centerbox2><div class = fixation>+</div></div>	none	500.0	test	n/a	n/a	n/a	n/a	n/a	n/a	n/a	n/a	n/a	n/a	n/a	n/a	n/a	n/a	n/a	n/a	n/a	n/a	fixation
194593.0	400.0	n/a	497	71	2750	5000.0	stim	stop-signal	670	1974143	0.0-25.43-1.43	beast_fmri_test	390	1971807,/,1972489,/,1973169,/,1973849,/,1974529,/,1975209,/,1975889,/,1976570,/,1977250,/,1977930,/,1978611,/	t,t,t,t,t,t,t,t,t,t,t	<img class = center src='/static/experiments/beast_fmri_test/images/V.png'></img>	71,89	2750.0	test	<img class = center src='/static/experiments/beast_fmri_test/images/redV.png'></img>	stop	2350.0	1.0	43.0	stop	target	V	71,Index Finger	89,Middle Finger	400.0	650.0	2350.0	2100.0	0.0	400.0	0.0	n/a	go_stim
196943.0	2350.0	n/a	497	71	2750	5000.0	stim	stop-signal	670	1974143	0.0-25.43-1.43	beast_fmri_test	390	1971807,/,1972489,/,1973169,/,1973849,/,1974529,/,1975209,/,1975889,/,1976570,/,1977250,/,1977930,/,1978611,/	t,t,t,t,t,t,t,t,t,t,t	<img class = center src='/static/experiments/beast_fmri_test/images/V.png'></img>	71,89	2750.0	test	<img class = center src='/static/experiments/beast_fmri_test/images/redV.png'></img>	stop	2350.0	1.0	43.0	stop	target	V	71,Index Finger	89,Middle Finger	400.0	650.0	2350.0	2100.0	0.0	400.0	0.0	n/a	stop_stim
197343.0	5000.0	n/a	497	71	2750	5000.0	stim	stop-signal	670	1974143	0.0-25.43-1.43	beast_fmri_test	390	1971807,/,1972489,/,1973169,/,1973849,/,1974529,/,1975209,/,1975889,/,1976570,/,1977250,/,1977930,/,1978611,/	t,t,t,t,t,t,t,t,t,t,t	<img class = center src='/static/experiments/beast_fmri_test/images/V.png'></img>	71,89	2750.0	test	<img class = center src='/static/experiments/beast_fmri_test/images/redV.png'></img>	stop	2350.0	1.0	43.0	stop	target	V	71,Index Finger	89,Middle Finger	400.0	650.0	2350.0	2100.0	0.0	400.0	0.0	n/a	ITI
207919	500	n/a	-1	-1	500	0.0	fixation	poldrack-single-stim	671	1979719	0.0-25.44-0.44	beast_fmri_test	390	1979291,/	t	<div class = centerbox2><div class = fixation>+</div></div>	none	500.0	test	n/a	n/a	n/a	n/a	n/a	n/a	n/a	n/a	n/a	n/a	n/a	n/a	n/a	n/a	n/a	n/a	n/a	n/a	fixation
207538.08242837968	650.0	n/a	712	89	2750	384.91757162	stim	stop-signal	672	1982473	0.0-25.44-1.44	beast_fmri_test	390	1979971,/,1980652,/,1981332,/,1982012,/,1982692,/	t,t,t,t,t	<img class = center src='/static/experiments/beast_fmri_test/images/P.png'></img>	71,89	2750.0	test	<img class = center src='/static/experiments/beast_fmri_test/images/redP.png'></img>	stop	2100.0	1.0	44.0	stop	non-target	P	71,Index Finger	89,Middle Finger	350.0	650.0	2350.0	2100.0	0.0	650.0	0.0	n/a	go_stim
209638.08242837968	2100.0	n/a	712	89	2750	384.91757162	stim	stop-signal	672	1982473	0.0-25.44-1.44	beast_fmri_test	390	1979971,/,1980652,/,1981332,/,1982012,/,1982692,/	t,t,t,t,t	<img class = center src='/static/experiments/beast_fmri_test/images/P.png'></img>	71,89	2750.0	test	<img class = center src='/static/experiments/beast_fmri_test/images/redP.png'></img>	stop	2100.0	1.0	44.0	stop	non-target	P	71,Index Finger	89,Middle Finger	350.0	650.0	2350.0	2100.0	0.0	650.0	0.0	n/a	stop_stim
210288.08242837968	384.91757162026886	n/a	712	89	2750	384.91757162	stim	stop-signal	672	1982473	0.0-25.44-1.44	beast_fmri_test	390	1979971,/,1980652,/,1981332,/,1982012,/,1982692,/	t,t,t,t,t	<img class = center src='/static/experiments/beast_fmri_test/images/P.png'></img>	71,89	2750.0	test	<img class = center src='/static/experiments/beast_fmri_test/images/redP.png'></img>	stop	2100.0	1.0	44.0	stop	non-target	P	71,Index Finger	89,Middle Finger	350.0	650.0	2350.0	2100.0	0.0	650.0	0.0	n/a	ITI
211624	500	n/a	-1	-1	500	0.0	fixation	poldrack-single-stim	673	1983424	0.0-25.45-0.45	beast_fmri_test	390	1983373,/	t	<div class = centerbox2><div class = fixation>+</div></div>	none	500.0	test	n/a	n/a	n/a	n/a	n/a	n/a	n/a	n/a	n/a	n/a	n/a	n/a	n/a	n/a	n/a	n/a	n/a	n/a	fixation
210922.73278226238	2750	n/a	1347	71	2750	704.267217738	stim	stop-signal	674	1986177	0.0-25.45-1.45	beast_fmri_test	390	1984053,/,1984733,/,1985414,/,1986092,/,1986774,/	t,t,t,t,t	<img class = center src='/static/experiments/beast_fmri_test/images/P.png'></img>	71,89	2750.0	test	<img class = center src='/static/experiments/beast_fmri_test/images/redP.png'></img>	go	2400.0	1.0	45.0	go	target	P	71,Index Finger	89,Middle Finger	350.0	600.0	2400.0	2100.0	1.0	350.0	n/a	1.0	go_stim
213672.73278226238	704.26721773758209	n/a	1347	71	2750	704.267217738	stim	stop-signal	674	1986177	0.0-25.45-1.45	beast_fmri_test	390	1984053,/,1984733,/,1985414,/,1986092,/,1986774,/	t,t,t,t,t	<img class = center src='/static/experiments/beast_fmri_test/images/P.png'></img>	71,89	2750.0	test	<img class = center src='/static/experiments/beast_fmri_test/images/redP.png'></img>	go	2400.0	1.0	45.0	go	target	P	71,Index Finger	89,Middle Finger	350.0	600.0	2400.0	2100.0	1.0	350.0	n/a	1.0	ITI
230158	15000	n/a	-1	-1	15000	0.0	practice-no-stop-feedback	poldrack-single-stim	675	2001958	0.0-26.0	beast_fmri_test	390	1987455,/,1988135,/,1988816,/,1989495,/,1990176,/,1990856,/,1991536,/,1992217,/,1992897,/,1993577,/,1994258,/,1994939,/,1995619,/,1996299,/,1996979,/,1997660,/,1998340,/,1999020,/,1999700,/,2000381,/,2001061,/,2001742,/	t,t,t,t,t,t,t,t,t,t,t,t,t,t,t,t,t,t,t,t,t,t	"<div class = ""centerbox2_2""><p class = ""block-text2"">Your delay is 2 trials.</p><p class = block-text2>Please wait for the scanner to start the block</p></div>"	77	15000.0	n/a	n/a	n/a	n/a	n/a	n/a	n/a	n/a	n/a	n/a	n/a	n/a	n/a	n/a	n/a	n/a	n/a	n/a	n/a	practice-no-stop-feedback
230661	500	n/a	-1	-1	500	0.0	fixation	poldrack-single-stim	676	2002461	0.0-27.0-0.0	beast_fmri_test	390	2002421,/	t	<div class = centerbox2><div class = fixation>+</div></div>	none	500.0	test	n/a	n/a	n/a	n/a	n/a	n/a	n/a	n/a	n/a	n/a	n/a	n/a	n/a	n/a	n/a	n/a	n/a	n/a	fixation
230318.19519041246	temp_go_duration	n/a	1197	89	2750	346.804809587	stim	stop-signal	677	2005215	0.0-27.0-1.0	beast_fmri_test	390	2003100,/,2003782,/,2004462,/,2005141,/	t,t,t,t	<img class = center src='/static/experiments/beast_fmri_test/images/V.png'></img>	71,89	2750.0	test	<img class = center src='/static/experiments/beast_fmri_test/images/redV.png'></img>	stop	-1.0	2.0	0.0	stop	temp-non-target	V	71,Index Finger	89,Middle Finger	350.0	600.0	2400.0	2100.0	0.0	n/a	0.0	n/a	go_stim
temp-non-target	temp_stop_duration	n/a	1197	89	2750	346.804809587	stim	stop-signal	677	2005215	0.0-27.0-1.0	beast_fmri_test	390	2003100,/,2003782,/,2004462,/,2005141,/	t,t,t,t	<img class = center src='/static/experiments/beast_fmri_test/images/V.png'></img>	71,89	2750.0	test	<img class = center src='/static/experiments/beast_fmri_test/images/redV.png'></img>	stop	-1.0	2.0	0.0	stop	temp-non-target	V	71,Index Finger	89,Middle Finger	350.0	600.0	2400.0	2100.0	0.0	n/a	0.0	n/a	stop_stim
233068.19519041246	346.80480958744988	n/a	1197	89	2750	346.804809587	stim	stop-signal	677	2005215	0.0-27.0-1.0	beast_fmri_test	390	2003100,/,2003782,/,2004462,/,2005141,/	t,t,t,t	<img class = center src='/static/experiments/beast_fmri_test/images/V.png'></img>	71,89	2750.0	test	<img class = center src='/static/experiments/beast_fmri_test/images/redV.png'></img>	stop	-1.0	2.0	0.0	stop	temp-non-target	V	71,Index Finger	89,Middle Finger	350.0	600.0	2400.0	2100.0	0.0	n/a	0.0	n/a	ITI
234330	500	n/a	-1	-1	500	0.0	fixation	poldrack-single-stim	678	2006130	0.0-27.1-0.1	beast_fmri_test	390	2005824,/	t	<div class = centerbox2><div class = fixation>+</div></div>	none	500.0	test	n/a	n/a	n/a	n/a	n/a	n/a	n/a	n/a	n/a	n/a	n/a	n/a	n/a	n/a	n/a	n/a	n/a	n/a	fixation
232547.7306279242	2750	n/a	1118	89	2750	1786.26937208	stim	stop-signal	679	2008884	0.0-27.1-1.1	beast_fmri_test	390	2006504,/,2007184,/,2007864,/,2008544,/,2009224,/,2009905,/,2010585,/	t,t,t,t,t,t,t	<img class = center src='/static/experiments/beast_fmri_test/images/D.png'></img>	71,89	2750.0	test	<img class = center src='/static/experiments/beast_fmri_test/images/redD.png'></img>	go	-1.0	2.0	1.0	go	temp-non-target	D	71,Index Finger	89,Middle Finger	350.0	600.0	2400.0	2100.0	0.0	n/a	n/a	n/a	go_stim
235297.7306279242	1786.2693720757966	n/a	1118	89	2750	1786.26937208	stim	stop-signal	679	2008884	0.0-27.1-1.1	beast_fmri_test	390	2006504,/,2007184,/,2007864,/,2008544,/,2009224,/,2009905,/,2010585,/	t,t,t,t,t,t,t	<img class = center src='/static/experiments/beast_fmri_test/images/D.png'></img>	71,89	2750.0	test	<img class = center src='/static/experiments/beast_fmri_test/images/redD.png'></img>	go	-1.0	2.0	1.0	go	temp-non-target	D	71,Index Finger	89,Middle Finger	350.0	600.0	2400.0	2100.0	0.0	n/a	n/a	n/a	ITI
239447	500	n/a	-1	-1	500	0.0	fixation	poldrack-single-stim	680	2011247	0.0-27.2-0.2	beast_fmri_test	390	n/a	n/a	<div class = centerbox2><div class = fixation>+</div></div>	none	500.0	test	n/a	n/a	n/a	n/a	n/a	n/a	n/a	n/a	n/a	n/a	n/a	n/a	n/a	n/a	n/a	n/a	n/a	n/a	fixation
238884.03921612538	2750	n/a	1223	89	2750	567.960783875	stim	stop-signal	681	2014002	0.0-27.2-1.2	beast_fmri_test	390	2011267,/,2011946,/,2012626,/,2013306,/,2013986,/	t,t,t,t,t	<img class = center src='/static/experiments/beast_fmri_test/images/D.png'></img>	71,89	2750.0	test	<img class = center src='/static/experiments/beast_fmri_test/images/redD.png'></img>	go	2150.0	2.0	2.0	go	non-target	D	71,Index Finger	89,Middle Finger	350.0	600.0	2400.0	2150.0	1.0	600.0	n/a	1.0	go_stim
241634.03921612538	567.96078387468674	n/a	1223	89	2750	567.960783875	stim	stop-signal	681	2014002	0.0-27.2-1.2	beast_fmri_test	390	2011267,/,2011946,/,2012626,/,2013306,/,2013986,/	t,t,t,t,t	<img class = center src='/static/experiments/beast_fmri_test/images/D.png'></img>	71,89	2750.0	test	<img class = center src='/static/experiments/beast_fmri_test/images/redD.png'></img>	go	2150.0	2.0	2.0	go	non-target	D	71,Index Finger	89,Middle Finger	350.0	600.0	2400.0	2150.0	1.0	600.0	n/a	1.0	ITI
243346	500	n/a	-1	-1	500	0.0	fixation	poldrack-single-stim	682	2015146	0.0-27.3-0.3	beast_fmri_test	390	2014665,/	t	<div class = centerbox2><div class = fixation>+</div></div>	none	500.0	test	n/a	n/a	n/a	n/a	n/a	n/a	n/a	n/a	n/a	n/a	n/a	n/a	n/a	n/a	n/a	n/a	n/a	n/a	fixation
240974.84013286768	350.0	n/a	-1	-1	2750	2377.15986713	stim	stop-signal	683	2017902	0.0-27.3-1.3	beast_fmri_test	390	2015347,/,2016028,/,2016710,/,2017387,/,2018066,/,2018747,/,2019428,/,2020108,/	t,t,t,t,t,t,t,t	<img class = center src='/static/experiments/beast_fmri_test/images/D.png'></img>	71,89	2750.0	test	<img class = center src='/static/experiments/beast_fmri_test/images/redD.png'></img>	stop	2400.0	2.0	3.0	stop	target	D	71,Index Finger	89,Middle Finger	350.0	600.0	2400.0	2150.0	0.0	350.0	1.0	n/a	go_stim
243374.84013286768	2400.0	n/a	-1	-1	2750	2377.15986713	stim	stop-signal	683	2017902	0.0-27.3-1.3	beast_fmri_test	390	2015347,/,2016028,/,2016710,/,2017387,/,2018066,/,2018747,/,2019428,/,2020108,/	t,t,t,t,t,t,t,t	<img class = center src='/static/experiments/beast_fmri_test/images/D.png'></img>	71,89	2750.0	test	<img class = center src='/static/experiments/beast_fmri_test/images/redD.png'></img>	stop	2400.0	2.0	3.0	stop	target	D	71,Index Finger	89,Middle Finger	350.0	600.0	2400.0	2150.0	0.0	350.0	1.0	n/a	stop_stim
243724.84013286768	2377.1598671323027	n/a	-1	-1	2750	2377.15986713	stim	stop-signal	683	2017902	0.0-27.3-1.3	beast_fmri_test	390	2015347,/,2016028,/,2016710,/,2017387,/,2018066,/,2018747,/,2019428,/,2020108,/	t,t,t,t,t,t,t,t	<img class = center src='/static/experiments/beast_fmri_test/images/D.png'></img>	71,89	2750.0	test	<img class = center src='/static/experiments/beast_fmri_test/images/redD.png'></img>	stop	2400.0	2.0	3.0	stop	target	D	71,Index Finger	89,Middle Finger	350.0	600.0	2400.0	2150.0	0.0	350.0	1.0	n/a	ITI
249045	500	n/a	-1	-1	500	0.0	fixation	poldrack-single-stim	684	2020845	0.0-27.4-0.4	beast_fmri_test	390	2020789,/	t	<div class = centerbox2><div class = fixation>+</div></div>	none	500.0	test	n/a	n/a	n/a	n/a	n/a	n/a	n/a	n/a	n/a	n/a	n/a	n/a	n/a	n/a	n/a	n/a	n/a	n/a	fixation
246975.33930617268	2750	n/a	792	89	2750	2073.66069383	stim	stop-signal	685	2023599	0.0-27.4-1.4	beast_fmri_test	390	2021469,/,2022149,/,2022830,/,2023511,/,2024190,/,2024870,/,2025551,/	t,t,t,t,t,t,t	<img class = center src='/static/experiments/beast_fmri_test/images/P.png'></img>	71,89	2750.0	test	<img class = center src='/static/experiments/beast_fmri_test/images/redP.png'></img>	go	2150.0	2.0	4.0	go	non-target	P	71,Index Finger	89,Middle Finger	400.0	600.0	2400.0	2150.0	1.0	600.0	n/a	1.0	go_stim
249725.33930617268	2073.6606938272048	n/a	792	89	2750	2073.66069383	stim	stop-signal	685	2023599	0.0-27.4-1.4	beast_fmri_test	390	2021469,/,2022149,/,2022830,/,2023511,/,2024190,/,2024870,/,2025551,/	t,t,t,t,t,t,t	<img class = center src='/static/experiments/beast_fmri_test/images/P.png'></img>	71,89	2750.0	test	<img class = center src='/static/experiments/beast_fmri_test/images/redP.png'></img>	go	2150.0	2.0	4.0	go	non-target	P	71,Index Finger	89,Middle Finger	400.0	600.0	2400.0	2150.0	1.0	600.0	n/a	1.0	ITI
254441	500	n/a	-1	-1	500	0.0	fixation	poldrack-single-stim	686	2026241	0.0-27.5-0.5	beast_fmri_test	390	2026231,/	t	<div class = centerbox2><div class = fixation>+</div></div>	none	500.0	test	n/a	n/a	n/a	n/a	n/a	n/a	n/a	n/a	n/a	n/a	n/a	n/a	n/a	n/a	n/a	n/a	n/a	n/a	fixation
253120.95630965265	2750	n/a	527	89	2750	1325.04369035	stim	stop-signal	687	2028996	0.0-27.5-1.5	beast_fmri_test	390	2026912,/,2027592,/,2028272,/,2028954,/,2029633,/,2030313,/	t,t,t,t,t,t	<img class = center src='/static/experiments/beast_fmri_test/images/T.png'></img>	71,89	2750.0	test	<img class = center src='/static/experiments/beast_fmri_test/images/redT.png'></img>	go	2150.0	2.0	5.0	go	non-target	T	71,Index Finger	89,Middle Finger	400.0	600.0	2400.0	2150.0	1.0	600.0	n/a	1.0	go_stim
255870.95630965265	1325.0436903472835	n/a	527	89	2750	1325.04369035	stim	stop-signal	687	2028996	0.0-27.5-1.5	beast_fmri_test	390	2026912,/,2027592,/,2028272,/,2028954,/,2029633,/,2030313,/	t,t,t,t,t,t	<img class = center src='/static/experiments/beast_fmri_test/images/T.png'></img>	71,89	2750.0	test	<img class = center src='/static/experiments/beast_fmri_test/images/redT.png'></img>	go	2150.0	2.0	5.0	go	non-target	T	71,Index Finger	89,Middle Finger	400.0	600.0	2400.0	2150.0	1.0	600.0	n/a	1.0	ITI
259087	500	n/a	-1	-1	500	0.0	fixation	poldrack-single-stim	688	2030887	0.0-27.6-0.6	beast_fmri_test	390	n/a	n/a	<div class = centerbox2><div class = fixation>+</div></div>	none	500.0	test	n/a	n/a	n/a	n/a	n/a	n/a	n/a	n/a	n/a	n/a	n/a	n/a	n/a	n/a	n/a	n/a	n/a	n/a	fixation
258990.74090022687	2750	n/a	1060	89	2750	101.259099773	stim	stop-signal	689	2033642	0.0-27.6-1.6	beast_fmri_test	390	2030994,/,2031674,/,2032354,/,2033034,/,2033715,/	t,t,t,t,t	<img class = center src='/static/experiments/beast_fmri_test/images/B.png'></img>	71,89	2750.0	test	<img class = center src='/static/experiments/beast_fmri_test/images/redB.png'></img>	go	2150.0	2.0	6.0	go	non-target	B	71,Index Finger	89,Middle Finger	400.0	600.0	2400.0	2150.0	1.0	600.0	n/a	1.0	go_stim
261740.74090022687	101.25909977313984	n/a	1060	89	2750	101.259099773	stim	stop-signal	689	2033642	0.0-27.6-1.6	beast_fmri_test	390	2030994,/,2031674,/,2032354,/,2033034,/,2033715,/	t,t,t,t,t	<img class = center src='/static/experiments/beast_fmri_test/images/B.png'></img>	71,89	2750.0	test	<img class = center src='/static/experiments/beast_fmri_test/images/redB.png'></img>	go	2150.0	2.0	6.0	go	non-target	B	71,Index Finger	89,Middle Finger	400.0	600.0	2400.0	2150.0	1.0	600.0	n/a	1.0	ITI
262518	500	n/a	-1	-1	500	0.0	fixation	poldrack-single-stim	690	2034318	0.0-27.7-0.7	beast_fmri_test	390	n/a	n/a	<div class = centerbox2><div class = fixation>+</div></div>	none	500.0	test	n/a	n/a	n/a	n/a	n/a	n/a	n/a	n/a	n/a	n/a	n/a	n/a	n/a	n/a	n/a	n/a	n/a	n/a	fixation
261867.68834268814	2750	n/a	1299	71	2750	654.311657312	stim	stop-signal	691	2037072	0.0-27.7-1.7	beast_fmri_test	390	2034395,/,2035076,/,2035756,/,2036436,/,2037116,/	t,t,t,t,t	<img class = center src='/static/experiments/beast_fmri_test/images/T.png'></img>	71,89	2750.0	test	<img class = center src='/static/experiments/beast_fmri_test/images/redT.png'></img>	go	2350.0	2.0	7.0	go	target	T	71,Index Finger	89,Middle Finger	400.0	600.0	2350.0	2150.0	1.0	400.0	n/a	1.0	go_stim
264617.68834268814	654.31165731184308	n/a	1299	71	2750	654.311657312	stim	stop-signal	691	2037072	0.0-27.7-1.7	beast_fmri_test	390	2034395,/,2035076,/,2035756,/,2036436,/,2037116,/	t,t,t,t,t	<img class = center src='/static/experiments/beast_fmri_test/images/T.png'></img>	71,89	2750.0	test	<img class = center src='/static/experiments/beast_fmri_test/images/redT.png'></img>	go	2350.0	2.0	7.0	go	target	T	71,Index Finger	89,Middle Finger	400.0	600.0	2350.0	2150.0	1.0	400.0	n/a	1.0	ITI
266493	500	n/a	-1	-1	500	0.0	fixation	poldrack-single-stim	692	2038293	0.0-27.8-0.8	beast_fmri_test	390	2037798,/	t	<div class = centerbox2><div class = fixation>+</div></div>	none	500.0	test	n/a	n/a	n/a	n/a	n/a	n/a	n/a	n/a	n/a	n/a	n/a	n/a	n/a	n/a	n/a	n/a	n/a	n/a	fixation
266182.06475116778	2750	n/a	1025	89	2750	313.935248832	stim	stop-signal	693	2041046	0.0-27.8-1.8	beast_fmri_test	390	2038477,/,2039157,/,2039837,/,2040518,/,2041198,/	t,t,t,t,t	<img class = center src='/static/experiments/beast_fmri_test/images/D.png'></img>	71,89	2750.0	test	<img class = center src='/static/experiments/beast_fmri_test/images/redD.png'></img>	go	2150.0	2.0	8.0	go	non-target	D	71,Index Finger	89,Middle Finger	400.0	600.0	2350.0	2150.0	1.0	600.0	n/a	1.0	go_stim
268932.06475116778	313.93524883219754	n/a	1025	89	2750	313.935248832	stim	stop-signal	693	2041046	0.0-27.8-1.8	beast_fmri_test	390	2038477,/,2039157,/,2039837,/,2040518,/,2041198,/	t,t,t,t,t	<img class = center src='/static/experiments/beast_fmri_test/images/D.png'></img>	71,89	2750.0	test	<img class = center src='/static/experiments/beast_fmri_test/images/redD.png'></img>	go	2150.0	2.0	8.0	go	non-target	D	71,Index Finger	89,Middle Finger	400.0	600.0	2350.0	2150.0	1.0	600.0	n/a	1.0	ITI
270129	500	n/a	-1	-1	500	0.0	fixation	poldrack-single-stim	694	2041929	0.0-27.9-0.9	beast_fmri_test	390	2041878,/	t	<div class = centerbox2><div class = fixation>+</div></div>	none	500.0	test	n/a	n/a	n/a	n/a	n/a	n/a	n/a	n/a	n/a	n/a	n/a	n/a	n/a	n/a	n/a	n/a	n/a	n/a	fixation
266343.96485692961	2750	n/a	758	71	2750	3789.03514307	stim	stop-signal	695	2044683	0.0-27.9-1.9	beast_fmri_test	390	2042559,/,2043239,/,2043919,/,2044598,/,2045280,/,2045960,/,2046640,/,2047321,/,2048001,/	t,t,t,t,t,t,t,t,t	<img class = center src='/static/experiments/beast_fmri_test/images/T.png'></img>	71,89	2750.0	test	<img class = center src='/static/experiments/beast_fmri_test/images/redT.png'></img>	go	2350.0	2.0	9.0	go	target	T	71,Index Finger	89,Middle Finger	400.0	600.0	2350.0	2150.0	1.0	400.0	n/a	1.0	go_stim
269093.96485692961	3789.0351430704231	n/a	758	71	2750	3789.03514307	stim	stop-signal	695	2044683	0.0-27.9-1.9	beast_fmri_test	390	2042559,/,2043239,/,2043919,/,2044598,/,2045280,/,2045960,/,2046640,/,2047321,/,2048001,/	t,t,t,t,t,t,t,t,t	<img class = center src='/static/experiments/beast_fmri_test/images/T.png'></img>	71,89	2750.0	test	<img class = center src='/static/experiments/beast_fmri_test/images/redT.png'></img>	go	2350.0	2.0	9.0	go	target	T	71,Index Finger	89,Middle Finger	400.0	600.0	2350.0	2150.0	1.0	400.0	n/a	1.0	ITI
277241	500	n/a	-1	-1	500	0.0	fixation	poldrack-single-stim	696	2049041	0.0-27.10-0.10	beast_fmri_test	390	2048682,/	t	<div class = centerbox2><div class = fixation>+</div></div>	none	500.0	test	n/a	n/a	n/a	n/a	n/a	n/a	n/a	n/a	n/a	n/a	n/a	n/a	n/a	n/a	n/a	n/a	n/a	n/a	fixation
273327.21358821751	2750	n/a	1794	89	2750	3917.78641178	stim	stop-signal	697	2051795	0.0-27.10-1.10	beast_fmri_test	390	2049362,/,2050042,/,2050723,/,2051402,/,2052083,/,2052764,/,2053444,/,2054124,/,2054804,/,2055485,/	t,t,t,t,t,t,t,t,t,t	<img class = center src='/static/experiments/beast_fmri_test/images/T.png'></img>	71,89	2750.0	test	<img class = center src='/static/experiments/beast_fmri_test/images/redT.png'></img>	go	2150.0	2.0	10.0	go	non-target	T	71,Index Finger	89,Middle Finger	400.0	600.0	2350.0	2150.0	1.0	600.0	n/a	1.0	go_stim
276077.21358821751	3917.7864117825643	n/a	1794	89	2750	3917.78641178	stim	stop-signal	697	2051795	0.0-27.10-1.10	beast_fmri_test	390	2049362,/,2050042,/,2050723,/,2051402,/,2052083,/,2052764,/,2053444,/,2054124,/,2054804,/,2055485,/	t,t,t,t,t,t,t,t,t,t	<img class = center src='/static/experiments/beast_fmri_test/images/T.png'></img>	71,89	2750.0	test	<img class = center src='/static/experiments/beast_fmri_test/images/redT.png'></img>	go	2150.0	2.0	10.0	go	non-target	T	71,Index Finger	89,Middle Finger	400.0	600.0	2350.0	2150.0	1.0	600.0	n/a	1.0	ITI
284491	500	n/a	-1	-1	500	0.0	fixation	poldrack-single-stim	698	2056291	0.0-27.11-0.11	beast_fmri_test	390	2056166,/	t	<div class = centerbox2><div class = fixation>+</div></div>	none	500.0	test	n/a	n/a	n/a	n/a	n/a	n/a	n/a	n/a	n/a	n/a	n/a	n/a	n/a	n/a	n/a	n/a	n/a	n/a	fixation
284307.78800100391	2750	n/a	607	89	2750	188.211998996	stim	stop-signal	699	2059046	0.0-27.11-1.11	beast_fmri_test	390	2056846,/,2057526,/,2058206,/,2058886,/	t,t,t,t	<img class = center src='/static/experiments/beast_fmri_test/images/P.png'></img>	71,89	2750.0	test	<img class = center src='/static/experiments/beast_fmri_test/images/redP.png'></img>	go	2150.0	2.0	11.0	go	non-target	P	71,Index Finger	89,Middle Finger	400.0	600.0	2350.0	2150.0	1.0	600.0	n/a	1.0	go_stim
287057.78800100391	188.21199899603963	n/a	607	89	2750	188.211998996	stim	stop-signal	699	2059046	0.0-27.11-1.11	beast_fmri_test	390	2056846,/,2057526,/,2058206,/,2058886,/	t,t,t,t	<img class = center src='/static/experiments/beast_fmri_test/images/P.png'></img>	71,89	2750.0	test	<img class = center src='/static/experiments/beast_fmri_test/images/redP.png'></img>	go	2150.0	2.0	11.0	go	non-target	P	71,Index Finger	89,Middle Finger	400.0	600.0	2350.0	2150.0	1.0	600.0	n/a	1.0	ITI
288006	500	n/a	-1	-1	500	0.0	fixation	poldrack-single-stim	700	2059806	0.0-27.12-0.12	beast_fmri_test	390	2059567,/	t	<div class = centerbox2><div class = fixation>+</div></div>	none	500.0	test	n/a	n/a	n/a	n/a	n/a	n/a	n/a	n/a	n/a	n/a	n/a	n/a	n/a	n/a	n/a	n/a	n/a	n/a	fixation
286173.89022849174	600.0	n/a	-1	-1	2750	1837.10977151	stim	stop-signal	701	2062561	0.0-27.12-1.12	beast_fmri_test	390	2060247,/,2060927,/,2061610,/,2062290,/,2062968,/,2063649,/,2064328,/	t,t,t,t,t,t,t	<img class = center src='/static/experiments/beast_fmri_test/images/V.png'></img>	71,89	2750.0	test	<img class = center src='/static/experiments/beast_fmri_test/images/redV.png'></img>	stop	2150.0	2.0	12.0	stop	non-target	V	71,Index Finger	89,Middle Finger	400.0	600.0	2350.0	2150.0	0.0	600.0	1.0	n/a	go_stim
288323.89022849174	2150.0	n/a	-1	-1	2750	1837.10977151	stim	stop-signal	701	2062561	0.0-27.12-1.12	beast_fmri_test	390	2060247,/,2060927,/,2061610,/,2062290,/,2062968,/,2063649,/,2064328,/	t,t,t,t,t,t,t	<img class = center src='/static/experiments/beast_fmri_test/images/V.png'></img>	71,89	2750.0	test	<img class = center src='/static/experiments/beast_fmri_test/images/redV.png'></img>	stop	2150.0	2.0	12.0	stop	non-target	V	71,Index Finger	89,Middle Finger	400.0	600.0	2350.0	2150.0	0.0	600.0	1.0	n/a	stop_stim
288923.89022849174	1837.1097715082992	n/a	-1	-1	2750	1837.10977151	stim	stop-signal	701	2062561	0.0-27.12-1.12	beast_fmri_test	390	2060247,/,2060927,/,2061610,/,2062290,/,2062968,/,2063649,/,2064328,/	t,t,t,t,t,t,t	<img class = center src='/static/experiments/beast_fmri_test/images/V.png'></img>	71,89	2750.0	test	<img class = center src='/static/experiments/beast_fmri_test/images/redV.png'></img>	stop	2150.0	2.0	12.0	stop	non-target	V	71,Index Finger	89,Middle Finger	400.0	600.0	2350.0	2150.0	0.0	600.0	1.0	n/a	ITI
293165	500	n/a	-1	-1	500	0.0	fixation	poldrack-single-stim	702	2064965	0.0-27.13-0.13	beast_fmri_test	390	n/a	n/a	<div class = centerbox2><div class = fixation>+</div></div>	none	500.0	test	n/a	n/a	n/a	n/a	n/a	n/a	n/a	n/a	n/a	n/a	n/a	n/a	n/a	n/a	n/a	n/a	n/a	n/a	fixation
289647.61118703266	2750	n/a	603	89	2750	3522.38881297	stim	stop-signal	703	2067720	0.0-27.13-1.13	beast_fmri_test	390	2065008,/,2065689,/,2066370,/,2067050,/,2067730,/,2068410,/,2069090,/,2069770,/,2070451,/,2071130,/	t,t,t,t,t,t,t,t,t,t	<img class = center src='/static/experiments/beast_fmri_test/images/T.png'></img>	71,89	2750.0	test	<img class = center src='/static/experiments/beast_fmri_test/images/redT.png'></img>	go	2100.0	2.0	13.0	go	non-target	T	71,Index Finger	89,Middle Finger	400.0	650.0	2350.0	2100.0	1.0	650.0	n/a	1.0	go_stim
292397.61118703266	3522.3888129673246	n/a	603	89	2750	3522.38881297	stim	stop-signal	703	2067720	0.0-27.13-1.13	beast_fmri_test	390	2065008,/,2065689,/,2066370,/,2067050,/,2067730,/,2068410,/,2069090,/,2069770,/,2070451,/,2071130,/	t,t,t,t,t,t,t,t,t,t	<img class = center src='/static/experiments/beast_fmri_test/images/T.png'></img>	71,89	2750.0	test	<img class = center src='/static/experiments/beast_fmri_test/images/redT.png'></img>	go	2100.0	2.0	13.0	go	non-target	T	71,Index Finger	89,Middle Finger	400.0	650.0	2350.0	2100.0	1.0	650.0	n/a	1.0	ITI
300013	500	n/a	-1	-1	500	0.0	fixation	poldrack-single-stim	704	2071813	0.0-27.14-0.14	beast_fmri_test	390	2071812,/	t	<div class = centerbox2><div class = fixation>+</div></div>	none	500.0	test	n/a	n/a	n/a	n/a	n/a	n/a	n/a	n/a	n/a	n/a	n/a	n/a	n/a	n/a	n/a	n/a	n/a	n/a	fixation
298539.07331240154	2750	n/a	969	71	2750	1478.9266876	stim	stop-signal	705	2074568	0.0-27.14-1.14	beast_fmri_test	390	2072492,/,2073172,/,2073852,/,2074533,/,2075213,/,2075893,/	t,t,t,t,t,t	<img class = center src='/static/experiments/beast_fmri_test/images/P.png'></img>	71,89	2750.0	test	<img class = center src='/static/experiments/beast_fmri_test/images/redP.png'></img>	go	2100.0	2.0	14.0	go	non-target	P	71,Index Finger	89,Middle Finger	400.0	650.0	2350.0	2100.0	0.0	650.0	n/a	0.0	go_stim
301289.07331240154	1478.9266875983924	n/a	969	71	2750	1478.9266876	stim	stop-signal	705	2074568	0.0-27.14-1.14	beast_fmri_test	390	2072492,/,2073172,/,2073852,/,2074533,/,2075213,/,2075893,/	t,t,t,t,t,t	<img class = center src='/static/experiments/beast_fmri_test/images/P.png'></img>	71,89	2750.0	test	<img class = center src='/static/experiments/beast_fmri_test/images/redP.png'></img>	go	2100.0	2.0	14.0	go	non-target	P	71,Index Finger	89,Middle Finger	400.0	650.0	2350.0	2100.0	0.0	650.0	n/a	0.0	ITI
304815	500	n/a	-1	-1	500	0.0	fixation	poldrack-single-stim	706	2076615	0.0-27.15-0.15	beast_fmri_test	390	2076574,/	t	<div class = centerbox2><div class = fixation>+</div></div>	none	500.0	test	n/a	n/a	n/a	n/a	n/a	n/a	n/a	n/a	n/a	n/a	n/a	n/a	n/a	n/a	n/a	n/a	n/a	n/a	fixation
303759.50634067343	2750	n/a	1056	89	2750	1060.49365933	stim	stop-signal	707	2079370	0.0-27.15-1.15	beast_fmri_test	390	2077254,/,2077934,/,2078614,/,2079294,/,2079975,/	t,t,t,t,t	<img class = center src='/static/experiments/beast_fmri_test/images/P.png'></img>	71,89	2750.0	test	<img class = center src='/static/experiments/beast_fmri_test/images/redP.png'></img>	go	2100.0	2.0	15.0	go	non-target	P	71,Index Finger	89,Middle Finger	400.0	650.0	2350.0	2100.0	1.0	650.0	n/a	1.0	go_stim
306509.50634067343	1060.4936593264642	n/a	1056	89	2750	1060.49365933	stim	stop-signal	707	2079370	0.0-27.15-1.15	beast_fmri_test	390	2077254,/,2077934,/,2078614,/,2079294,/,2079975,/	t,t,t,t,t	<img class = center src='/static/experiments/beast_fmri_test/images/P.png'></img>	71,89	2750.0	test	<img class = center src='/static/experiments/beast_fmri_test/images/redP.png'></img>	go	2100.0	2.0	15.0	go	non-target	P	71,Index Finger	89,Middle Finger	400.0	650.0	2350.0	2100.0	1.0	650.0	n/a	1.0	ITI
309198	500	n/a	-1	-1	500	0.0	fixation	poldrack-single-stim	708	2080998	0.0-27.16-0.16	beast_fmri_test	390	2080656,/	t	<div class = centerbox2><div class = fixation>+</div></div>	none	500.0	test	n/a	n/a	n/a	n/a	n/a	n/a	n/a	n/a	n/a	n/a	n/a	n/a	n/a	n/a	n/a	n/a	n/a	n/a	fixation
307658.00231534801	2750	n/a	751	89	2750	1544.99768465	stim	stop-signal	709	2083753	0.0-27.16-1.16	beast_fmri_test	390	2081336,/,2082016,/,2082697,/,2083377,/,2084056,/,2084738,/	t,t,t,t,t,t	<img class = center src='/static/experiments/beast_fmri_test/images/V.png'></img>	71,89	2750.0	test	<img class = center src='/static/experiments/beast_fmri_test/images/redV.png'></img>	go	2100.0	2.0	16.0	go	non-target	V	71,Index Finger	89,Middle Finger	400.0	650.0	2350.0	2100.0	1.0	650.0	n/a	1.0	go_stim
310408.00231534801	1544.9976846520588	n/a	751	89	2750	1544.99768465	stim	stop-signal	709	2083753	0.0-27.16-1.16	beast_fmri_test	390	2081336,/,2082016,/,2082697,/,2083377,/,2084056,/,2084738,/	t,t,t,t,t,t	<img class = center src='/static/experiments/beast_fmri_test/images/V.png'></img>	71,89	2750.0	test	<img class = center src='/static/experiments/beast_fmri_test/images/redV.png'></img>	go	2100.0	2.0	16.0	go	non-target	V	71,Index Finger	89,Middle Finger	400.0	650.0	2350.0	2100.0	1.0	650.0	n/a	1.0	ITI
314068	500	n/a	-1	-1	500	0.0	fixation	poldrack-single-stim	710	2085868	0.0-27.17-0.17	beast_fmri_test	390	2085418,/	t	<div class = centerbox2><div class = fixation>+</div></div>	none	500.0	test	n/a	n/a	n/a	n/a	n/a	n/a	n/a	n/a	n/a	n/a	n/a	n/a	n/a	n/a	n/a	n/a	n/a	n/a	fixation
313967.19897875469	2750	n/a	1306	89	2750	105.801021245	stim	stop-signal	711	2088623	0.0-27.17-1.17	beast_fmri_test	390	2086098,/,2086778,/,2087459,/,2088139,/	t,t,t,t	<img class = center src='/static/experiments/beast_fmri_test/images/B.png'></img>	71,89	2750.0	test	<img class = center src='/static/experiments/beast_fmri_test/images/redB.png'></img>	go	2100.0	2.0	17.0	go	non-target	B	71,Index Finger	89,Middle Finger	400.0	650.0	2350.0	2100.0	1.0	650.0	n/a	1.0	go_stim
316717.19897875469	105.8010212453452	n/a	1306	89	2750	105.801021245	stim	stop-signal	711	2088623	0.0-27.17-1.17	beast_fmri_test	390	2086098,/,2086778,/,2087459,/,2088139,/	t,t,t,t	<img class = center src='/static/experiments/beast_fmri_test/images/B.png'></img>	71,89	2750.0	test	<img class = center src='/static/experiments/beast_fmri_test/images/redB.png'></img>	go	2100.0	2.0	17.0	go	non-target	B	71,Index Finger	89,Middle Finger	400.0	650.0	2350.0	2100.0	1.0	650.0	n/a	1.0	ITI
317495	500	n/a	-1	-1	500	0.0	fixation	poldrack-single-stim	712	2089295	0.0-27.18-0.18	beast_fmri_test	390	2088818,/	t	<div class = centerbox2><div class = fixation>+</div></div>	none	500.0	test	n/a	n/a	n/a	n/a	n/a	n/a	n/a	n/a	n/a	n/a	n/a	n/a	n/a	n/a	n/a	n/a	n/a	n/a	fixation
316939.13818115066	2750	n/a	799	89	2750	559.861818849	stim	stop-signal	713	2092049	0.0-27.18-1.18	beast_fmri_test	390	2089500,/,2090180,/,2090860,/,2091541,/,2092219,/	t,t,t,t,t	<img class = center src='/static/experiments/beast_fmri_test/images/P.png'></img>	71,89	2750.0	test	<img class = center src='/static/experiments/beast_fmri_test/images/redP.png'></img>	go	2100.0	2.0	18.0	go	non-target	P	71,Index Finger	89,Middle Finger	400.0	650.0	2350.0	2100.0	1.0	650.0	n/a	1.0	go_stim
319689.13818115066	559.86181884935047	n/a	799	89	2750	559.861818849	stim	stop-signal	713	2092049	0.0-27.18-1.18	beast_fmri_test	390	2089500,/,2090180,/,2090860,/,2091541,/,2092219,/	t,t,t,t,t	<img class = center src='/static/experiments/beast_fmri_test/images/P.png'></img>	71,89	2750.0	test	<img class = center src='/static/experiments/beast_fmri_test/images/redP.png'></img>	go	2100.0	2.0	18.0	go	non-target	P	71,Index Finger	89,Middle Finger	400.0	650.0	2350.0	2100.0	1.0	650.0	n/a	1.0	ITI
321381	500	n/a	-1	-1	500	0.0	fixation	poldrack-single-stim	714	2093181	0.0-27.19-0.19	beast_fmri_test	390	2092901,/	t	<div class = centerbox2><div class = fixation>+</div></div>	none	500.0	test	n/a	n/a	n/a	n/a	n/a	n/a	n/a	n/a	n/a	n/a	n/a	n/a	n/a	n/a	n/a	n/a	n/a	n/a	fixation
320083.33298380207	2750	n/a	585	71	2750	1301.6670162	stim	stop-signal	715	2095935	0.0-27.19-1.19	beast_fmri_test	390	2093581,/,2094262,/,2094942,/,2095623,/,2096303,/,2096983,/	t,t,t,t,t,t	<img class = center src='/static/experiments/beast_fmri_test/images/B.png'></img>	71,89	2750.0	test	<img class = center src='/static/experiments/beast_fmri_test/images/redB.png'></img>	go	2350.0	2.0	19.0	go	target	B	71,Index Finger	89,Middle Finger	400.0	650.0	2350.0	2100.0	1.0	400.0	n/a	1.0	go_stim
322833.33298380207	1301.6670161979996	n/a	585	71	2750	1301.6670162	stim	stop-signal	715	2095935	0.0-27.19-1.19	beast_fmri_test	390	2093581,/,2094262,/,2094942,/,2095623,/,2096303,/,2096983,/	t,t,t,t,t,t	<img class = center src='/static/experiments/beast_fmri_test/images/B.png'></img>	71,89	2750.0	test	<img class = center src='/static/experiments/beast_fmri_test/images/redB.png'></img>	go	2350.0	2.0	19.0	go	target	B	71,Index Finger	89,Middle Finger	400.0	650.0	2350.0	2100.0	1.0	400.0	n/a	1.0	ITI
326020	500	n/a	-1	-1	500	0.0	fixation	poldrack-single-stim	716	2097820	0.0-27.20-0.20	beast_fmri_test	390	2097664,/	t	<div class = centerbox2><div class = fixation>+</div></div>	none	500.0	test	n/a	n/a	n/a	n/a	n/a	n/a	n/a	n/a	n/a	n/a	n/a	n/a	n/a	n/a	n/a	n/a	n/a	n/a	fixation
325645.82126950938	650.0	n/a	578	89	2750	380.17873049	stim	stop-signal	717	2100576	0.0-27.20-1.20	beast_fmri_test	390	2098344,/,2099024,/,2099704,/,2100384,/	t,t,t,t	<img class = center src='/static/experiments/beast_fmri_test/images/D.png'></img>	71,89	2750.0	test	<img class = center src='/static/experiments/beast_fmri_test/images/redD.png'></img>	stop	2100.0	2.0	20.0	stop	non-target	D	71,Index Finger	89,Middle Finger	400.0	650.0	2350.0	2100.0	0.0	650.0	0.0	n/a	go_stim
327745.82126950938	2100.0	n/a	578	89	2750	380.17873049	stim	stop-signal	717	2100576	0.0-27.20-1.20	beast_fmri_test	390	2098344,/,2099024,/,2099704,/,2100384,/	t,t,t,t	<img class = center src='/static/experiments/beast_fmri_test/images/D.png'></img>	71,89	2750.0	test	<img class = center src='/static/experiments/beast_fmri_test/images/redD.png'></img>	stop	2100.0	2.0	20.0	stop	non-target	D	71,Index Finger	89,Middle Finger	400.0	650.0	2350.0	2100.0	0.0	650.0	0.0	n/a	stop_stim
328395.82126950938	380.17873049041856	n/a	578	89	2750	380.17873049	stim	stop-signal	717	2100576	0.0-27.20-1.20	beast_fmri_test	390	2098344,/,2099024,/,2099704,/,2100384,/	t,t,t,t	<img class = center src='/static/experiments/beast_fmri_test/images/D.png'></img>	71,89	2750.0	test	<img class = center src='/static/experiments/beast_fmri_test/images/redD.png'></img>	stop	2100.0	2.0	20.0	stop	non-target	D	71,Index Finger	89,Middle Finger	400.0	650.0	2350.0	2100.0	0.0	650.0	0.0	n/a	ITI
329724	500	n/a	-1	-1	500	0.0	fixation	poldrack-single-stim	718	2101524	0.0-27.21-0.21	beast_fmri_test	390	2101068,/	t	<div class = centerbox2><div class = fixation>+</div></div>	none	500.0	test	n/a	n/a	n/a	n/a	n/a	n/a	n/a	n/a	n/a	n/a	n/a	n/a	n/a	n/a	n/a	n/a	n/a	n/a	fixation
329508.34605554445	2750	n/a	1698	89	2750	220.653944456	stim	stop-signal	719	2104279	0.0-27.21-1.21	beast_fmri_test	390	2101745,/,2102425,/,2103105,/,2103786,/,2104466,/	t,t,t,t,t	<img class = center src='/static/experiments/beast_fmri_test/images/B.png'></img>	71,89	2750.0	test	<img class = center src='/static/experiments/beast_fmri_test/images/redB.png'></img>	go	2350.0	2.0	21.0	go	target	B	71,Index Finger	89,Middle Finger	400.0	600.0	2350.0	2100.0	0.0	400.0	n/a	0.0	go_stim
332258.34605554445	220.65394445552099	n/a	1698	89	2750	220.653944456	stim	stop-signal	719	2104279	0.0-27.21-1.21	beast_fmri_test	390	2101745,/,2102425,/,2103105,/,2103786,/,2104466,/	t,t,t,t,t	<img class = center src='/static/experiments/beast_fmri_test/images/B.png'></img>	71,89	2750.0	test	<img class = center src='/static/experiments/beast_fmri_test/images/redB.png'></img>	go	2350.0	2.0	21.0	go	target	B	71,Index Finger	89,Middle Finger	400.0	600.0	2350.0	2100.0	0.0	400.0	n/a	0.0	ITI
333277	500	n/a	-1	-1	500	0.0	fixation	poldrack-single-stim	720	2105077	0.0-27.22-0.22	beast_fmri_test	390	n/a	n/a	<div class = centerbox2><div class = fixation>+</div></div>	none	500.0	test	n/a	n/a	n/a	n/a	n/a	n/a	n/a	n/a	n/a	n/a	n/a	n/a	n/a	n/a	n/a	n/a	n/a	n/a	fixation
333238.01822651969	2750	n/a	711	71	2750	42.9817734802	stim	stop-signal	721	2107831	0.0-27.22-1.22	beast_fmri_test	390	2105147,/,2105826,/,2106507,/,2107187,/,2107867,/	t,t,t,t,t	<img class = center src='/static/experiments/beast_fmri_test/images/B.png'></img>	71,89	2750.0	test	<img class = center src='/static/experiments/beast_fmri_test/images/redB.png'></img>	go	2150.0	2.0	22.0	go	non-target	B	71,Index Finger	89,Middle Finger	400.0	600.0	2350.0	2150.0	0.0	600.0	n/a	0.0	go_stim
335988.01822651969	42.981773480243852	n/a	711	71	2750	42.9817734802	stim	stop-signal	721	2107831	0.0-27.22-1.22	beast_fmri_test	390	2105147,/,2105826,/,2106507,/,2107187,/,2107867,/	t,t,t,t,t	<img class = center src='/static/experiments/beast_fmri_test/images/B.png'></img>	71,89	2750.0	test	<img class = center src='/static/experiments/beast_fmri_test/images/redB.png'></img>	go	2150.0	2.0	22.0	go	non-target	B	71,Index Finger	89,Middle Finger	400.0	600.0	2350.0	2150.0	0.0	600.0	n/a	0.0	ITI
336639	500	n/a	-1	-1	500	0.0	fixation	poldrack-single-stim	722	2108439	0.0-27.23-0.23	beast_fmri_test	390	n/a	n/a	<div class = centerbox2><div class = fixation>+</div></div>	none	500.0	test	n/a	n/a	n/a	n/a	n/a	n/a	n/a	n/a	n/a	n/a	n/a	n/a	n/a	n/a	n/a	n/a	n/a	n/a	fixation
335183.73534753826	2750	n/a	411	71	2750	1459.26465246	stim	stop-signal	723	2111193	0.0-27.23-1.23	beast_fmri_test	390	2108548,/,2109228,/,2109908,/,2110590,/,2111269,/,2111950,/,2112629,/	t,t,t,t,t,t,t	<img class = center src='/static/experiments/beast_fmri_test/images/B.png'></img>	71,89	2750.0	test	<img class = center src='/static/experiments/beast_fmri_test/images/redB.png'></img>	go	2350.0	2.0	23.0	go	target	B	71,Index Finger	89,Middle Finger	400.0	600.0	2350.0	2150.0	1.0	400.0	n/a	1.0	go_stim
337933.73534753826	1459.2646524615207	n/a	411	71	2750	1459.26465246	stim	stop-signal	723	2111193	0.0-27.23-1.23	beast_fmri_test	390	2108548,/,2109228,/,2109908,/,2110590,/,2111269,/,2111950,/,2112629,/	t,t,t,t,t,t,t	<img class = center src='/static/experiments/beast_fmri_test/images/B.png'></img>	71,89	2750.0	test	<img class = center src='/static/experiments/beast_fmri_test/images/redB.png'></img>	go	2350.0	2.0	23.0	go	target	B	71,Index Finger	89,Middle Finger	400.0	600.0	2350.0	2150.0	1.0	400.0	n/a	1.0	ITI
