onset	duration	text	rt	key_press	block_duration	timing_post_trial	trial_id	trial_type	trial_index	time_elapsed	internal_node_id	exp_id	subject_id	trigger_times	triggers	stimulus	possible_responses	stim_duration	exp_stage	SS_stimulus	SS_trial_type	SS_duration	load	trial_num	stop_trial_type	adaptive_trial_type	stim	yes_response_key	no_response_key	SSD_target	SSD_non_target	SSTarget	SSNonTarget	go_acc	SS_delay	stop_acc	adaptive_acc	new_trial_type
test	10880.0	n/a	-1	-1	10880	0.0	practice-no-stop-feedback	poldrack-single-stim	6	118198	0.0-6.0	beast_fmri_test	390	107311,/,107991,/,108671,/,109351,/,110031,/,110713,/,111392,/,112073,/,112753,/,113433,/,114114,/,114795,/,115475,/,116155,/,116835,/,117515,/,118196,/	t,t,t,t,t,t,t,t,t,t,t,t,t,t,t,t,t	"<div class = ""centerbox2_2""><p class = ""block-text2"">Your delay is 2 trials.</p><p class = block-text2>Please wait for the scanner to start the block</p></div>"	77	10880.0	n/a	n/a	n/a	n/a	n/a	n/a	n/a	n/a	n/a	n/a	n/a	n/a	n/a	n/a	n/a	n/a	n/a	n/a	n/a	start_functional_block
11390	500.0	n/a	-1	-1	500	0.0	fixation	poldrack-single-stim	7	118701	0.0-7.0-0.0	beast_fmri_test	390	n/a	n/a	<div class = centerbox2><div class = fixation>+</div></div>	none	500.0	test	n/a	n/a	n/a	n/a	n/a	n/a	n/a	n/a	n/a	n/a	n/a	n/a	n/a	n/a	n/a	n/a	n/a	n/a	fixation
10608.646659511171	2750.0	n/a	675	89	2750	788.353340489	stim	stop-signal	8	121458	0.0-7.0-1.0	beast_fmri_test	390	118875,/,119556,/,120236,/,120916,/,121597,/	t,t,t,t,t	<img class = center src='/static/experiments/beast_fmri_test/images/B.png'></img>	71,89	2750.0	test	<img class = center src='/static/experiments/beast_fmri_test/images/redB.png'></img>	go	-1.0	2.0	0.0	go	temp-non-target	B	71,Index Finger	89,Middle Finger	500.0	500.0	0.0	0.0	0.0	n/a	n/a	n/a	go_stim
13358.646659511171	788.353340489	n/a	675	89	2750	788.353340489	stim	stop-signal	8	121458	0.0-7.0-1.0	beast_fmri_test	390	118875,/,119556,/,120236,/,120916,/,121597,/	t,t,t,t,t	<img class = center src='/static/experiments/beast_fmri_test/images/B.png'></img>	71,89	2750.0	test	<img class = center src='/static/experiments/beast_fmri_test/images/redB.png'></img>	go	-1.0	2.0	0.0	go	temp-non-target	B	71,Index Finger	89,Middle Finger	500.0	500.0	0.0	0.0	0.0	n/a	n/a	n/a	ITI
15448	500.0	n/a	-1	-1	500	0.0	fixation	poldrack-single-stim	9	122759	0.0-7.1-0.1	beast_fmri_test	390	122282,/	t	<div class = centerbox2><div class = fixation>+</div></div>	none	500.0	test	n/a	n/a	n/a	n/a	n/a	n/a	n/a	n/a	n/a	n/a	n/a	n/a	n/a	n/a	n/a	n/a	n/a	n/a	fixation
14794.134421298877	2750.0	n/a	539	89	2750	659.865578701	stim	stop-signal	10	125515	0.0-7.1-1.1	beast_fmri_test	390	122958,/,123640,/,124318,/,124998,/,125679,/	t,t,t,t,t	<img class = center src='/static/experiments/beast_fmri_test/images/D.png'></img>	71,89	2750.0	test	<img class = center src='/static/experiments/beast_fmri_test/images/redD.png'></img>	go	-1.0	2.0	1.0	go	temp-non-target	D	71,Index Finger	89,Middle Finger	500.0	500.0	0.0	0.0	0.0	n/a	n/a	n/a	go_stim
17544.134421298877	659.865578701	n/a	539	89	2750	659.865578701	stim	stop-signal	10	125515	0.0-7.1-1.1	beast_fmri_test	390	122958,/,123640,/,124318,/,124998,/,125679,/	t,t,t,t,t	<img class = center src='/static/experiments/beast_fmri_test/images/D.png'></img>	71,89	2750.0	test	<img class = center src='/static/experiments/beast_fmri_test/images/redD.png'></img>	go	-1.0	2.0	1.0	go	temp-non-target	D	71,Index Finger	89,Middle Finger	500.0	500.0	0.0	0.0	0.0	n/a	n/a	n/a	ITI
19371	500.0	n/a	-1	-1	500	0.0	fixation	poldrack-single-stim	11	126682	0.0-7.2-0.2	beast_fmri_test	390	126359,/	t	<div class = centerbox2><div class = fixation>+</div></div>	none	500.0	test	n/a	n/a	n/a	n/a	n/a	n/a	n/a	n/a	n/a	n/a	n/a	n/a	n/a	n/a	n/a	n/a	n/a	n/a	fixation
19103.771843791576	500.0	n/a	-1	-1	2750	272.228156208	stim	stop-signal	12	129437	0.0-7.2-1.2	beast_fmri_test	390	127040,/,127720,/,128400,/,129080,/	t,t,t,t	<img class = center src='/static/experiments/beast_fmri_test/images/T.png'></img>	71,89	2750.0	test	<img class = center src='/static/experiments/beast_fmri_test/images/redT.png'></img>	stop	2250.0	2.0	2.0	stop	non-target	T	71,Index Finger	89,Middle Finger	500.0	500.0	0.0	2250.0	0.0	500.0	1.0	n/a	go_stim
21353.771843791576	2250.0	n/a	-1	-1	2750	272.228156208	stim	stop-signal	12	129437	0.0-7.2-1.2	beast_fmri_test	390	127040,/,127720,/,128400,/,129080,/	t,t,t,t	<img class = center src='/static/experiments/beast_fmri_test/images/T.png'></img>	71,89	2750.0	test	<img class = center src='/static/experiments/beast_fmri_test/images/redT.png'></img>	stop	2250.0	2.0	2.0	stop	non-target	T	71,Index Finger	89,Middle Finger	500.0	500.0	0.0	2250.0	0.0	500.0	1.0	n/a	stop_stim
21853.771843791576	272.228156208	n/a	-1	-1	2750	272.228156208	stim	stop-signal	12	129437	0.0-7.2-1.2	beast_fmri_test	390	127040,/,127720,/,128400,/,129080,/	t,t,t,t	<img class = center src='/static/experiments/beast_fmri_test/images/T.png'></img>	71,89	2750.0	test	<img class = center src='/static/experiments/beast_fmri_test/images/redT.png'></img>	stop	2250.0	2.0	2.0	stop	non-target	T	71,Index Finger	89,Middle Finger	500.0	500.0	0.0	2250.0	0.0	500.0	1.0	n/a	ITI
22907	500.0	n/a	-1	-1	500	0.0	fixation	poldrack-single-stim	13	130218	0.0-7.3-0.3	beast_fmri_test	390	129760,/	t	<div class = centerbox2><div class = fixation>+</div></div>	none	500.0	test	n/a	n/a	n/a	n/a	n/a	n/a	n/a	n/a	n/a	n/a	n/a	n/a	n/a	n/a	n/a	n/a	n/a	n/a	fixation
21358.405726894678	2750.0	n/a	1277	71	2750	1553.59427311	stim	stop-signal	14	132973	0.0-7.3-1.3	beast_fmri_test	390	130441,/,131121,/,131801,/,132482,/,133162,/,133842,/,134523,/	t,t,t,t,t,t,t	<img class = center src='/static/experiments/beast_fmri_test/images/D.png'></img>	71,89	2750.0	test	<img class = center src='/static/experiments/beast_fmri_test/images/redD.png'></img>	go	2250.0	2.0	3.0	go	target	D	71,Index Finger	89,Middle Finger	500.0	550.0	2250.0	2250.0	1.0	500.0	n/a	1.0	go_stim
24108.405726894678	1553.59427311	n/a	1277	71	2750	1553.59427311	stim	stop-signal	14	132973	0.0-7.3-1.3	beast_fmri_test	390	130441,/,131121,/,131801,/,132482,/,133162,/,133842,/,134523,/	t,t,t,t,t,t,t	<img class = center src='/static/experiments/beast_fmri_test/images/D.png'></img>	71,89	2750.0	test	<img class = center src='/static/experiments/beast_fmri_test/images/redD.png'></img>	go	2250.0	2.0	3.0	go	target	D	71,Index Finger	89,Middle Finger	500.0	550.0	2250.0	2250.0	1.0	500.0	n/a	1.0	ITI
27722	500.0	n/a	-1	-1	500	0.0	fixation	poldrack-single-stim	15	135033	0.0-7.4-0.4	beast_fmri_test	390	n/a	n/a	<div class = centerbox2><div class = fixation>+</div></div>	none	500.0	test	n/a	n/a	n/a	n/a	n/a	n/a	n/a	n/a	n/a	n/a	n/a	n/a	n/a	n/a	n/a	n/a	n/a	n/a	fixation
24550.642586855247	500.0	n/a	-1	-1	2750	3176.35741314	stim	stop-signal	16	137788	0.0-7.4-1.4	beast_fmri_test	390	135203,/,135883,/,136564,/,137244,/,137923,/,138605,/,139285,/,139965,/,140645,/	t,t,t,t,t,t,t,t,t	<img class = center src='/static/experiments/beast_fmri_test/images/T.png'></img>	71,89	2750.0	test	<img class = center src='/static/experiments/beast_fmri_test/images/redT.png'></img>	stop	2250.0	2.0	4.0	stop	target	T	71,Index Finger	89,Middle Finger	500.0	550.0	2250.0	2250.0	0.0	500.0	1.0	n/a	go_stim
26800.642586855247	2250.0	n/a	-1	-1	2750	3176.35741314	stim	stop-signal	16	137788	0.0-7.4-1.4	beast_fmri_test	390	135203,/,135883,/,136564,/,137244,/,137923,/,138605,/,139285,/,139965,/,140645,/	t,t,t,t,t,t,t,t,t	<img class = center src='/static/experiments/beast_fmri_test/images/T.png'></img>	71,89	2750.0	test	<img class = center src='/static/experiments/beast_fmri_test/images/redT.png'></img>	stop	2250.0	2.0	4.0	stop	target	T	71,Index Finger	89,Middle Finger	500.0	550.0	2250.0	2250.0	0.0	500.0	1.0	n/a	stop_stim
27300.642586855247	3176.35741314	n/a	-1	-1	2750	3176.35741314	stim	stop-signal	16	137788	0.0-7.4-1.4	beast_fmri_test	390	135203,/,135883,/,136564,/,137244,/,137923,/,138605,/,139285,/,139965,/,140645,/	t,t,t,t,t,t,t,t,t	<img class = center src='/static/experiments/beast_fmri_test/images/T.png'></img>	71,89	2750.0	test	<img class = center src='/static/experiments/beast_fmri_test/images/redT.png'></img>	stop	2250.0	2.0	4.0	stop	target	T	71,Index Finger	89,Middle Finger	500.0	550.0	2250.0	2250.0	0.0	500.0	1.0	n/a	ITI
34163	500.0	n/a	-1	-1	500	0.0	fixation	poldrack-single-stim	17	141474	0.0-7.5-0.5	beast_fmri_test	390	141326,/	t	<div class = centerbox2><div class = fixation>+</div></div>	none	500.0	test	n/a	n/a	n/a	n/a	n/a	n/a	n/a	n/a	n/a	n/a	n/a	n/a	n/a	n/a	n/a	n/a	n/a	n/a	fixation
33085.67635017162	550.0	n/a	893	89	2750	1081.32364983	stim	stop-signal	18	144228	0.0-7.5-1.5	beast_fmri_test	390	142007,/,142687,/,143367,/,144048,/,144728,/	t,t,t,t,t	<img class = center src='/static/experiments/beast_fmri_test/images/V.png'></img>	71,89	2750.0	test	<img class = center src='/static/experiments/beast_fmri_test/images/redV.png'></img>	stop	2200.0	2.0	5.0	stop	non-target	V	71,Index Finger	89,Middle Finger	550.0	550.0	2250.0	2200.0	0.0	550.0	0.0	n/a	go_stim
35285.67635017162	2200.0	n/a	893	89	2750	1081.32364983	stim	stop-signal	18	144228	0.0-7.5-1.5	beast_fmri_test	390	142007,/,142687,/,143367,/,144048,/,144728,/	t,t,t,t,t	<img class = center src='/static/experiments/beast_fmri_test/images/V.png'></img>	71,89	2750.0	test	<img class = center src='/static/experiments/beast_fmri_test/images/redV.png'></img>	stop	2200.0	2.0	5.0	stop	non-target	V	71,Index Finger	89,Middle Finger	550.0	550.0	2250.0	2200.0	0.0	550.0	0.0	n/a	stop_stim
35835.67635017162	1081.32364983	n/a	893	89	2750	1081.32364983	stim	stop-signal	18	144228	0.0-7.5-1.5	beast_fmri_test	390	142007,/,142687,/,143367,/,144048,/,144728,/	t,t,t,t,t	<img class = center src='/static/experiments/beast_fmri_test/images/V.png'></img>	71,89	2750.0	test	<img class = center src='/static/experiments/beast_fmri_test/images/redV.png'></img>	stop	2200.0	2.0	5.0	stop	non-target	V	71,Index Finger	89,Middle Finger	550.0	550.0	2250.0	2200.0	0.0	550.0	0.0	n/a	ITI
38508	500.0	n/a	-1	-1	500	0.0	fixation	poldrack-single-stim	19	145819	0.0-7.6-0.6	beast_fmri_test	390	145409,/	t	<div class = centerbox2><div class = fixation>+</div></div>	none	500.0	test	n/a	n/a	n/a	n/a	n/a	n/a	n/a	n/a	n/a	n/a	n/a	n/a	n/a	n/a	n/a	n/a	n/a	n/a	fixation
38367.126615154208	550.0	n/a	766	71	2750	144.873384846	stim	stop-signal	20	148573	0.0-7.6-1.6	beast_fmri_test	390	146089,/,146768,/,147448,/,148129,/	t,t,t,t	<img class = center src='/static/experiments/beast_fmri_test/images/T.png'></img>	71,89	2750.0	test	<img class = center src='/static/experiments/beast_fmri_test/images/redT.png'></img>	stop	2200.0	2.0	6.0	stop	target	T	71,Index Finger	89,Middle Finger	550.0	500.0	2200.0	2200.0	0.0	550.0	0.0	n/a	go_stim
40567.126615154208	2200.0	n/a	766	71	2750	144.873384846	stim	stop-signal	20	148573	0.0-7.6-1.6	beast_fmri_test	390	146089,/,146768,/,147448,/,148129,/	t,t,t,t	<img class = center src='/static/experiments/beast_fmri_test/images/T.png'></img>	71,89	2750.0	test	<img class = center src='/static/experiments/beast_fmri_test/images/redT.png'></img>	stop	2200.0	2.0	6.0	stop	target	T	71,Index Finger	89,Middle Finger	550.0	500.0	2200.0	2200.0	0.0	550.0	0.0	n/a	stop_stim
41117.126615154208	144.873384846	n/a	766	71	2750	144.873384846	stim	stop-signal	20	148573	0.0-7.6-1.6	beast_fmri_test	390	146089,/,146768,/,147448,/,148129,/	t,t,t,t	<img class = center src='/static/experiments/beast_fmri_test/images/T.png'></img>	71,89	2750.0	test	<img class = center src='/static/experiments/beast_fmri_test/images/redT.png'></img>	stop	2200.0	2.0	6.0	stop	target	T	71,Index Finger	89,Middle Finger	550.0	500.0	2200.0	2200.0	0.0	550.0	0.0	n/a	ITI
41915	500.0	n/a	-1	-1	500	0.0	fixation	poldrack-single-stim	21	149226	0.0-7.7-0.7	beast_fmri_test	390	148810,/	t	<div class = centerbox2><div class = fixation>+</div></div>	none	500.0	test	n/a	n/a	n/a	n/a	n/a	n/a	n/a	n/a	n/a	n/a	n/a	n/a	n/a	n/a	n/a	n/a	n/a	n/a	fixation
40850.779129171366	2750.0	n/a	1322	89	2750	1069.22087083	stim	stop-signal	22	151981	0.0-7.7-1.7	beast_fmri_test	390	149490,/,150171,/,150849,/,151531,/,152210,/,152891,/	t,t,t,t,t,t	<img class = center src='/static/experiments/beast_fmri_test/images/V.png'></img>	71,89	2750.0	test	<img class = center src='/static/experiments/beast_fmri_test/images/redV.png'></img>	go	2250.0	2.0	7.0	go	target	V	71,Index Finger	89,Middle Finger	500.0	500.0	2250.0	2200.0	0.0	500.0	n/a	0.0	go_stim
43600.779129171366	1069.22087083	n/a	1322	89	2750	1069.22087083	stim	stop-signal	22	151981	0.0-7.7-1.7	beast_fmri_test	390	149490,/,150171,/,150849,/,151531,/,152210,/,152891,/	t,t,t,t,t,t	<img class = center src='/static/experiments/beast_fmri_test/images/V.png'></img>	71,89	2750.0	test	<img class = center src='/static/experiments/beast_fmri_test/images/redV.png'></img>	go	2250.0	2.0	7.0	go	target	V	71,Index Finger	89,Middle Finger	500.0	500.0	2250.0	2200.0	0.0	500.0	n/a	0.0	ITI
46245	500.0	n/a	-1	-1	500	0.0	fixation	poldrack-single-stim	23	153556	0.0-7.8-0.8	beast_fmri_test	390	n/a	n/a	<div class = centerbox2><div class = fixation>+</div></div>	none	500.0	test	n/a	n/a	n/a	n/a	n/a	n/a	n/a	n/a	n/a	n/a	n/a	n/a	n/a	n/a	n/a	n/a	n/a	n/a	fixation
46051.666681047238	2750.0	n/a	1130	89	2750	198.333318953	stim	stop-signal	24	156311	0.0-7.8-1.8	beast_fmri_test	390	153571,/,154252,/,154932,/,155612,/,156292,/	t,t,t,t,t	<img class = center src='/static/experiments/beast_fmri_test/images/B.png'></img>	71,89	2750.0	test	<img class = center src='/static/experiments/beast_fmri_test/images/redB.png'></img>	go	2250.0	2.0	8.0	go	non-target	B	71,Index Finger	89,Middle Finger	500.0	500.0	2250.0	2250.0	1.0	500.0	n/a	1.0	go_stim
48801.666681047238	198.333318953	n/a	1130	89	2750	198.333318953	stim	stop-signal	24	156311	0.0-7.8-1.8	beast_fmri_test	390	153571,/,154252,/,154932,/,155612,/,156292,/	t,t,t,t,t	<img class = center src='/static/experiments/beast_fmri_test/images/B.png'></img>	71,89	2750.0	test	<img class = center src='/static/experiments/beast_fmri_test/images/redB.png'></img>	go	2250.0	2.0	8.0	go	non-target	B	71,Index Finger	89,Middle Finger	500.0	500.0	2250.0	2250.0	1.0	500.0	n/a	1.0	ITI
49708	500.0	n/a	-1	-1	500	0.0	fixation	poldrack-single-stim	25	157019	0.0-7.9-0.9	beast_fmri_test	390	156972,/	t	<div class = centerbox2><div class = fixation>+</div></div>	none	500.0	test	n/a	n/a	n/a	n/a	n/a	n/a	n/a	n/a	n/a	n/a	n/a	n/a	n/a	n/a	n/a	n/a	n/a	n/a	fixation
49589.36131343263	2750.0	n/a	1333	89	2750	122.638686567	stim	stop-signal	26	159773	0.0-7.9-1.9	beast_fmri_test	390	157653,/,158333,/,159014,/,159694,/	t,t,t,t	<img class = center src='/static/experiments/beast_fmri_test/images/B.png'></img>	71,89	2750.0	test	<img class = center src='/static/experiments/beast_fmri_test/images/redB.png'></img>	go	2250.0	2.0	9.0	go	non-target	B	71,Index Finger	89,Middle Finger	500.0	500.0	2250.0	2250.0	1.0	500.0	n/a	1.0	go_stim
52339.36131343263	122.638686567	n/a	1333	89	2750	122.638686567	stim	stop-signal	26	159773	0.0-7.9-1.9	beast_fmri_test	390	157653,/,158333,/,159014,/,159694,/	t,t,t,t	<img class = center src='/static/experiments/beast_fmri_test/images/B.png'></img>	71,89	2750.0	test	<img class = center src='/static/experiments/beast_fmri_test/images/redB.png'></img>	go	2250.0	2.0	9.0	go	non-target	B	71,Index Finger	89,Middle Finger	500.0	500.0	2250.0	2250.0	1.0	500.0	n/a	1.0	ITI
53097	500.0	n/a	-1	-1	500	0.0	fixation	poldrack-single-stim	27	160408	0.0-7.10-0.10	beast_fmri_test	390	160374,/	t	<div class = centerbox2><div class = fixation>+</div></div>	none	500.0	test	n/a	n/a	n/a	n/a	n/a	n/a	n/a	n/a	n/a	n/a	n/a	n/a	n/a	n/a	n/a	n/a	n/a	n/a	fixation
51841.447095816169	500.0	n/a	-1	-1	2750	1259.55290418	stim	stop-signal	28	163162	0.0-7.10-1.10	beast_fmri_test	390	161053,/,161734,/,162415,/,163094,/,163774,/	t,t,t,t,t	<img class = center src='/static/experiments/beast_fmri_test/images/D.png'></img>	71,89	2750.0	test	<img class = center src='/static/experiments/beast_fmri_test/images/redD.png'></img>	stop	2250.0	2.0	10.0	stop	non-target	D	71,Index Finger	89,Middle Finger	500.0	500.0	2250.0	2250.0	0.0	500.0	1.0	n/a	go_stim
54091.447095816169	2250.0	n/a	-1	-1	2750	1259.55290418	stim	stop-signal	28	163162	0.0-7.10-1.10	beast_fmri_test	390	161053,/,161734,/,162415,/,163094,/,163774,/	t,t,t,t,t	<img class = center src='/static/experiments/beast_fmri_test/images/D.png'></img>	71,89	2750.0	test	<img class = center src='/static/experiments/beast_fmri_test/images/redD.png'></img>	stop	2250.0	2.0	10.0	stop	non-target	D	71,Index Finger	89,Middle Finger	500.0	500.0	2250.0	2250.0	0.0	500.0	1.0	n/a	stop_stim
54591.447095816169	1259.55290418	n/a	-1	-1	2750	1259.55290418	stim	stop-signal	28	163162	0.0-7.10-1.10	beast_fmri_test	390	161053,/,161734,/,162415,/,163094,/,163774,/	t,t,t,t,t	<img class = center src='/static/experiments/beast_fmri_test/images/D.png'></img>	71,89	2750.0	test	<img class = center src='/static/experiments/beast_fmri_test/images/redD.png'></img>	stop	2250.0	2.0	10.0	stop	non-target	D	71,Index Finger	89,Middle Finger	500.0	500.0	2250.0	2250.0	0.0	500.0	1.0	n/a	ITI
57617	500.0	n/a	-1	-1	500	0.0	fixation	poldrack-single-stim	29	164928	0.0-7.11-0.11	beast_fmri_test	390	164455,/	t	<div class = centerbox2><div class = fixation>+</div></div>	none	500.0	test	n/a	n/a	n/a	n/a	n/a	n/a	n/a	n/a	n/a	n/a	n/a	n/a	n/a	n/a	n/a	n/a	n/a	n/a	fixation
55705.765489394602	550.0	n/a	-1	-1	2750	1916.23451061	stim	stop-signal	30	167683	0.0-7.11-1.11	beast_fmri_test	390	165136,/,165817,/,166497,/,167177,/,167857,/,168539,/,169218,/	t,t,t,t,t,t,t	<img class = center src='/static/experiments/beast_fmri_test/images/P.png'></img>	71,89	2750.0	test	<img class = center src='/static/experiments/beast_fmri_test/images/redP.png'></img>	stop	2200.0	2.0	11.0	stop	non-target	P	71,Index Finger	89,Middle Finger	500.0	550.0	2250.0	2200.0	0.0	550.0	1.0	n/a	go_stim
57905.765489394602	2200.0	n/a	-1	-1	2750	1916.23451061	stim	stop-signal	30	167683	0.0-7.11-1.11	beast_fmri_test	390	165136,/,165817,/,166497,/,167177,/,167857,/,168539,/,169218,/	t,t,t,t,t,t,t	<img class = center src='/static/experiments/beast_fmri_test/images/P.png'></img>	71,89	2750.0	test	<img class = center src='/static/experiments/beast_fmri_test/images/redP.png'></img>	stop	2200.0	2.0	11.0	stop	non-target	P	71,Index Finger	89,Middle Finger	500.0	550.0	2250.0	2200.0	0.0	550.0	1.0	n/a	stop_stim
58455.765489394602	1916.23451061	n/a	-1	-1	2750	1916.23451061	stim	stop-signal	30	167683	0.0-7.11-1.11	beast_fmri_test	390	165136,/,165817,/,166497,/,167177,/,167857,/,168539,/,169218,/	t,t,t,t,t,t,t	<img class = center src='/static/experiments/beast_fmri_test/images/P.png'></img>	71,89	2750.0	test	<img class = center src='/static/experiments/beast_fmri_test/images/redP.png'></img>	stop	2200.0	2.0	11.0	stop	non-target	P	71,Index Finger	89,Middle Finger	500.0	550.0	2250.0	2200.0	0.0	550.0	1.0	n/a	ITI
62796	500.0	n/a	-1	-1	500	0.0	fixation	poldrack-single-stim	31	170107	0.0-7.12-0.12	beast_fmri_test	390	169898,/	t	<div class = centerbox2><div class = fixation>+</div></div>	none	500.0	test	n/a	n/a	n/a	n/a	n/a	n/a	n/a	n/a	n/a	n/a	n/a	n/a	n/a	n/a	n/a	n/a	n/a	n/a	fixation
61644.829474916769	500.0	n/a	-1	-1	2750	1155.17052508	stim	stop-signal	32	172861	0.0-7.12-1.12	beast_fmri_test	390	170580,/,171259,/,171939,/,172621,/,173301,/,173981,/	t,t,t,t,t,t	<img class = center src='/static/experiments/beast_fmri_test/images/D.png'></img>	71,89	2750.0	test	<img class = center src='/static/experiments/beast_fmri_test/images/redD.png'></img>	stop	2250.0	2.0	12.0	stop	target	D	71,Index Finger	89,Middle Finger	500.0	600.0	2250.0	2200.0	0.0	500.0	1.0	n/a	go_stim
63894.829474916769	2250.0	n/a	-1	-1	2750	1155.17052508	stim	stop-signal	32	172861	0.0-7.12-1.12	beast_fmri_test	390	170580,/,171259,/,171939,/,172621,/,173301,/,173981,/	t,t,t,t,t,t	<img class = center src='/static/experiments/beast_fmri_test/images/D.png'></img>	71,89	2750.0	test	<img class = center src='/static/experiments/beast_fmri_test/images/redD.png'></img>	stop	2250.0	2.0	12.0	stop	target	D	71,Index Finger	89,Middle Finger	500.0	600.0	2250.0	2200.0	0.0	500.0	1.0	n/a	stop_stim
64394.829474916769	1155.17052508	n/a	-1	-1	2750	1155.17052508	stim	stop-signal	32	172861	0.0-7.12-1.12	beast_fmri_test	390	170580,/,171259,/,171939,/,172621,/,173301,/,173981,/	t,t,t,t,t,t	<img class = center src='/static/experiments/beast_fmri_test/images/D.png'></img>	71,89	2750.0	test	<img class = center src='/static/experiments/beast_fmri_test/images/redD.png'></img>	stop	2250.0	2.0	12.0	stop	target	D	71,Index Finger	89,Middle Finger	500.0	600.0	2250.0	2200.0	0.0	500.0	1.0	n/a	ITI
67216	500.0	n/a	-1	-1	500	0.0	fixation	poldrack-single-stim	33	174527	0.0-7.13-0.13	beast_fmri_test	390	n/a	n/a	<div class = centerbox2><div class = fixation>+</div></div>	none	500.0	test	n/a	n/a	n/a	n/a	n/a	n/a	n/a	n/a	n/a	n/a	n/a	n/a	n/a	n/a	n/a	n/a	n/a	n/a	fixation
65132.363546204841	2750.0	n/a	1073	89	2750	2088.6364538	stim	stop-signal	34	177282	0.0-7.13-1.13	beast_fmri_test	390	174661,/,175341,/,176021,/,176702,/,177382,/,178062,/,178744,/	t,t,t,t,t,t,t	<img class = center src='/static/experiments/beast_fmri_test/images/V.png'></img>	71,89	2750.0	test	<img class = center src='/static/experiments/beast_fmri_test/images/redV.png'></img>	go	2150.0	2.0	13.0	go	non-target	V	71,Index Finger	89,Middle Finger	550.0	600.0	2250.0	2150.0	1.0	600.0	n/a	1.0	go_stim
67882.363546204841	2088.6364538	n/a	1073	89	2750	2088.6364538	stim	stop-signal	34	177282	0.0-7.13-1.13	beast_fmri_test	390	174661,/,175341,/,176021,/,176702,/,177382,/,178062,/,178744,/	t,t,t,t,t,t,t	<img class = center src='/static/experiments/beast_fmri_test/images/V.png'></img>	71,89	2750.0	test	<img class = center src='/static/experiments/beast_fmri_test/images/redV.png'></img>	go	2150.0	2.0	13.0	go	non-target	V	71,Index Finger	89,Middle Finger	550.0	600.0	2250.0	2150.0	1.0	600.0	n/a	1.0	ITI
72570	500.0	n/a	-1	-1	500	0.0	fixation	poldrack-single-stim	35	179881	0.0-7.14-0.14	beast_fmri_test	390	179423,/	t	<div class = centerbox2><div class = fixation>+</div></div>	none	500.0	test	n/a	n/a	n/a	n/a	n/a	n/a	n/a	n/a	n/a	n/a	n/a	n/a	n/a	n/a	n/a	n/a	n/a	n/a	fixation
71229.066296998499	600.0	n/a	803	89	2750	1344.933703	stim	stop-signal	36	182635	0.0-7.14-1.14	beast_fmri_test	390	180104,/,180782,/,181463,/,182144,/,182824,/,183505,/	t,t,t,t,t,t	<img class = center src='/static/experiments/beast_fmri_test/images/P.png'></img>	71,89	2750.0	test	<img class = center src='/static/experiments/beast_fmri_test/images/redP.png'></img>	stop	2150.0	2.0	14.0	stop	non-target	P	71,Index Finger	89,Middle Finger	550.0	600.0	2250.0	2150.0	0.0	600.0	0.0	n/a	go_stim
73379.066296998499	2150.0	n/a	803	89	2750	1344.933703	stim	stop-signal	36	182635	0.0-7.14-1.14	beast_fmri_test	390	180104,/,180782,/,181463,/,182144,/,182824,/,183505,/	t,t,t,t,t,t	<img class = center src='/static/experiments/beast_fmri_test/images/P.png'></img>	71,89	2750.0	test	<img class = center src='/static/experiments/beast_fmri_test/images/redP.png'></img>	stop	2150.0	2.0	14.0	stop	non-target	P	71,Index Finger	89,Middle Finger	550.0	600.0	2250.0	2150.0	0.0	600.0	0.0	n/a	stop_stim
73979.066296998499	1344.933703	n/a	803	89	2750	1344.933703	stim	stop-signal	36	182635	0.0-7.14-1.14	beast_fmri_test	390	180104,/,180782,/,181463,/,182144,/,182824,/,183505,/	t,t,t,t,t,t	<img class = center src='/static/experiments/beast_fmri_test/images/P.png'></img>	71,89	2750.0	test	<img class = center src='/static/experiments/beast_fmri_test/images/redP.png'></img>	stop	2150.0	2.0	14.0	stop	non-target	P	71,Index Finger	89,Middle Finger	550.0	600.0	2250.0	2150.0	0.0	600.0	0.0	n/a	ITI
77179	500.0	n/a	-1	-1	500	0.0	fixation	poldrack-single-stim	37	184490	0.0-7.15-0.15	beast_fmri_test	390	184185,/	t	<div class = centerbox2><div class = fixation>+</div></div>	none	500.0	test	n/a	n/a	n/a	n/a	n/a	n/a	n/a	n/a	n/a	n/a	n/a	n/a	n/a	n/a	n/a	n/a	n/a	n/a	fixation
77046.225090606284	2750.0	n/a	934	89	2750	137.774909394	stim	stop-signal	38	187245	0.0-7.15-1.15	beast_fmri_test	390	184866,/,185545,/,186225,/,186906,/	t,t,t,t	<img class = center src='/static/experiments/beast_fmri_test/images/P.png'></img>	71,89	2750.0	test	<img class = center src='/static/experiments/beast_fmri_test/images/redP.png'></img>	go	2200.0	2.0	15.0	go	non-target	P	71,Index Finger	89,Middle Finger	550.0	550.0	2250.0	2200.0	1.0	550.0	n/a	1.0	go_stim
79796.225090606284	137.774909394	n/a	934	89	2750	137.774909394	stim	stop-signal	38	187245	0.0-7.15-1.15	beast_fmri_test	390	184866,/,185545,/,186225,/,186906,/	t,t,t,t	<img class = center src='/static/experiments/beast_fmri_test/images/P.png'></img>	71,89	2750.0	test	<img class = center src='/static/experiments/beast_fmri_test/images/redP.png'></img>	go	2200.0	2.0	15.0	go	non-target	P	71,Index Finger	89,Middle Finger	550.0	550.0	2250.0	2200.0	1.0	550.0	n/a	1.0	ITI
80581	500.0	n/a	-1	-1	500	0.0	fixation	poldrack-single-stim	39	187892	0.0-7.16-0.16	beast_fmri_test	390	187587,/	t	<div class = centerbox2><div class = fixation>+</div></div>	none	500.0	test	n/a	n/a	n/a	n/a	n/a	n/a	n/a	n/a	n/a	n/a	n/a	n/a	n/a	n/a	n/a	n/a	n/a	n/a	fixation
80260.533964073169	2750.0	n/a	835	89	2750	325.466035927	stim	stop-signal	40	190647	0.0-7.16-1.16	beast_fmri_test	390	188267,/,188947,/,189627,/,190306,/	t,t,t,t	<img class = center src='/static/experiments/beast_fmri_test/images/V.png'></img>	71,89	2750.0	test	<img class = center src='/static/experiments/beast_fmri_test/images/redV.png'></img>	go	2200.0	2.0	16.0	go	non-target	V	71,Index Finger	89,Middle Finger	550.0	550.0	2250.0	2200.0	1.0	550.0	n/a	1.0	go_stim
83010.533964073169	325.466035927	n/a	835	89	2750	325.466035927	stim	stop-signal	40	190647	0.0-7.16-1.16	beast_fmri_test	390	188267,/,188947,/,189627,/,190306,/	t,t,t,t	<img class = center src='/static/experiments/beast_fmri_test/images/V.png'></img>	71,89	2750.0	test	<img class = center src='/static/experiments/beast_fmri_test/images/redV.png'></img>	go	2200.0	2.0	16.0	go	non-target	V	71,Index Finger	89,Middle Finger	550.0	550.0	2250.0	2200.0	1.0	550.0	n/a	1.0	ITI
84173	500.0	n/a	-1	-1	500	0.0	fixation	poldrack-single-stim	41	191484	0.0-7.17-0.17	beast_fmri_test	390	190988,/	t	<div class = centerbox2><div class = fixation>+</div></div>	none	500.0	test	n/a	n/a	n/a	n/a	n/a	n/a	n/a	n/a	n/a	n/a	n/a	n/a	n/a	n/a	n/a	n/a	n/a	n/a	fixation
83692.115143920964	550.0	n/a	-1	-1	2750	483.884856079	stim	stop-signal	42	194237	0.0-7.17-1.17	beast_fmri_test	390	191668,/,192348,/,193029,/,193709,/,194389,/	t,t,t,t,t	<img class = center src='/static/experiments/beast_fmri_test/images/B.png'></img>	71,89	2750.0	test	<img class = center src='/static/experiments/beast_fmri_test/images/redB.png'></img>	stop	2200.0	2.0	17.0	stop	non-target	B	71,Index Finger	89,Middle Finger	550.0	550.0	2250.0	2200.0	0.0	550.0	1.0	n/a	go_stim
85892.115143920964	2200.0	n/a	-1	-1	2750	483.884856079	stim	stop-signal	42	194237	0.0-7.17-1.17	beast_fmri_test	390	191668,/,192348,/,193029,/,193709,/,194389,/	t,t,t,t,t	<img class = center src='/static/experiments/beast_fmri_test/images/B.png'></img>	71,89	2750.0	test	<img class = center src='/static/experiments/beast_fmri_test/images/redB.png'></img>	stop	2200.0	2.0	17.0	stop	non-target	B	71,Index Finger	89,Middle Finger	550.0	550.0	2250.0	2200.0	0.0	550.0	1.0	n/a	stop_stim
86442.115143920964	483.884856079	n/a	-1	-1	2750	483.884856079	stim	stop-signal	42	194237	0.0-7.17-1.17	beast_fmri_test	390	191668,/,192348,/,193029,/,193709,/,194389,/	t,t,t,t,t	<img class = center src='/static/experiments/beast_fmri_test/images/B.png'></img>	71,89	2750.0	test	<img class = center src='/static/experiments/beast_fmri_test/images/redB.png'></img>	stop	2200.0	2.0	17.0	stop	non-target	B	71,Index Finger	89,Middle Finger	550.0	550.0	2250.0	2200.0	0.0	550.0	1.0	n/a	ITI
87918	500.0	n/a	-1	-1	500	0.0	fixation	poldrack-single-stim	43	195229	0.0-7.18-0.18	beast_fmri_test	390	195069,/	t	<div class = centerbox2><div class = fixation>+</div></div>	none	500.0	test	n/a	n/a	n/a	n/a	n/a	n/a	n/a	n/a	n/a	n/a	n/a	n/a	n/a	n/a	n/a	n/a	n/a	n/a	fixation
86457.315881828283	2750.0	n/a	975	89	2750	1465.68411817	stim	stop-signal	44	197984	0.0-7.18-1.18	beast_fmri_test	390	195749,/,196430,/,197110,/,197791,/,198471,/,199152,/	t,t,t,t,t,t	<img class = center src='/static/experiments/beast_fmri_test/images/D.png'></img>	71,89	2750.0	test	<img class = center src='/static/experiments/beast_fmri_test/images/redD.png'></img>	go	2150.0	2.0	18.0	go	non-target	D	71,Index Finger	89,Middle Finger	550.0	600.0	2250.0	2150.0	1.0	600.0	n/a	1.0	go_stim
89207.315881828283	1465.68411817	n/a	975	89	2750	1465.68411817	stim	stop-signal	44	197984	0.0-7.18-1.18	beast_fmri_test	390	195749,/,196430,/,197110,/,197791,/,198471,/,199152,/	t,t,t,t,t,t	<img class = center src='/static/experiments/beast_fmri_test/images/D.png'></img>	71,89	2750.0	test	<img class = center src='/static/experiments/beast_fmri_test/images/redD.png'></img>	go	2150.0	2.0	18.0	go	non-target	D	71,Index Finger	89,Middle Finger	550.0	600.0	2250.0	2150.0	1.0	600.0	n/a	1.0	ITI
92649	500.0	n/a	-1	-1	500	0.0	fixation	poldrack-single-stim	45	199960	0.0-7.19-0.19	beast_fmri_test	390	199831,/	t	<div class = centerbox2><div class = fixation>+</div></div>	none	500.0	test	n/a	n/a	n/a	n/a	n/a	n/a	n/a	n/a	n/a	n/a	n/a	n/a	n/a	n/a	n/a	n/a	n/a	n/a	fixation
92617.73404556475	2750.0	n/a	719	89	2750	36.2659544353	stim	stop-signal	46	202715	0.0-7.19-1.19	beast_fmri_test	390	200513,/,201193,/,201872,/,202553,/	t,t,t,t	<img class = center src='/static/experiments/beast_fmri_test/images/P.png'></img>	71,89	2750.0	test	<img class = center src='/static/experiments/beast_fmri_test/images/redP.png'></img>	go	2150.0	2.0	19.0	go	non-target	P	71,Index Finger	89,Middle Finger	550.0	600.0	2250.0	2150.0	1.0	600.0	n/a	1.0	go_stim
95367.73404556475	36.2659544353	n/a	719	89	2750	36.2659544353	stim	stop-signal	46	202715	0.0-7.19-1.19	beast_fmri_test	390	200513,/,201193,/,201872,/,202553,/	t,t,t,t	<img class = center src='/static/experiments/beast_fmri_test/images/P.png'></img>	71,89	2750.0	test	<img class = center src='/static/experiments/beast_fmri_test/images/redP.png'></img>	go	2150.0	2.0	19.0	go	non-target	P	71,Index Finger	89,Middle Finger	550.0	600.0	2250.0	2150.0	1.0	600.0	n/a	1.0	ITI
95950	500.0	n/a	-1	-1	500	0.0	fixation	poldrack-single-stim	47	203261	0.0-7.20-0.20	beast_fmri_test	390	203234,/	t	<div class = centerbox2><div class = fixation>+</div></div>	none	500.0	test	n/a	n/a	n/a	n/a	n/a	n/a	n/a	n/a	n/a	n/a	n/a	n/a	n/a	n/a	n/a	n/a	n/a	n/a	fixation
95626.87231506253	2750.0	n/a	2274	71	2750	327.127684937	stim	stop-signal	48	206015	0.0-7.20-1.20	beast_fmri_test	390	203914,/,204594,/,205275,/,205955,/	t,t,t,t	<img class = center src='/static/experiments/beast_fmri_test/images/D.png'></img>	71,89	2750.0	test	<img class = center src='/static/experiments/beast_fmri_test/images/redD.png'></img>	go	2200.0	2.0	20.0	go	target	D	71,Index Finger	89,Middle Finger	550.0	600.0	2200.0	2150.0	1.0	550.0	n/a	1.0	go_stim
98376.87231506253	327.127684937	n/a	2274	71	2750	327.127684937	stim	stop-signal	48	206015	0.0-7.20-1.20	beast_fmri_test	390	203914,/,204594,/,205275,/,205955,/	t,t,t,t	<img class = center src='/static/experiments/beast_fmri_test/images/D.png'></img>	71,89	2750.0	test	<img class = center src='/static/experiments/beast_fmri_test/images/redD.png'></img>	go	2200.0	2.0	20.0	go	target	D	71,Index Finger	89,Middle Finger	550.0	600.0	2200.0	2150.0	1.0	550.0	n/a	1.0	ITI
99544	500.0	n/a	-1	-1	500	0.0	fixation	poldrack-single-stim	49	206855	0.0-7.21-0.21	beast_fmri_test	390	206635,/	t	<div class = centerbox2><div class = fixation>+</div></div>	none	500.0	test	n/a	n/a	n/a	n/a	n/a	n/a	n/a	n/a	n/a	n/a	n/a	n/a	n/a	n/a	n/a	n/a	n/a	n/a	fixation
98844.277060584776	2750.0	n/a	832	71	2750	703.722939415	stim	stop-signal	50	209609	0.0-7.21-1.21	beast_fmri_test	390	207314,/,207994,/,208675,/,209356,/,210036,/	t,t,t,t,t	<img class = center src='/static/experiments/beast_fmri_test/images/P.png'></img>	71,89	2750.0	test	<img class = center src='/static/experiments/beast_fmri_test/images/redP.png'></img>	go	2200.0	2.0	21.0	go	target	P	71,Index Finger	89,Middle Finger	550.0	600.0	2200.0	2150.0	1.0	550.0	n/a	1.0	go_stim
101594.27706058478	703.722939415	n/a	832	71	2750	703.722939415	stim	stop-signal	50	209609	0.0-7.21-1.21	beast_fmri_test	390	207314,/,207994,/,208675,/,209356,/,210036,/	t,t,t,t,t	<img class = center src='/static/experiments/beast_fmri_test/images/P.png'></img>	71,89	2750.0	test	<img class = center src='/static/experiments/beast_fmri_test/images/redP.png'></img>	go	2200.0	2.0	21.0	go	target	P	71,Index Finger	89,Middle Finger	550.0	600.0	2200.0	2150.0	1.0	550.0	n/a	1.0	ITI
103510	500.0	n/a	-1	-1	500	0.0	fixation	poldrack-single-stim	51	210821	0.0-7.22-0.22	beast_fmri_test	390	210717,/	t	<div class = centerbox2><div class = fixation>+</div></div>	none	500.0	test	n/a	n/a	n/a	n/a	n/a	n/a	n/a	n/a	n/a	n/a	n/a	n/a	n/a	n/a	n/a	n/a	n/a	n/a	fixation
102252.9239508755	2750.0	n/a	1030	71	2750	1261.07604912	stim	stop-signal	52	213575	0.0-7.22-1.22	beast_fmri_test	390	211397,/,212076,/,212756,/,213437,/,214118,/,214798,/	t,t,t,t,t,t	<img class = center src='/static/experiments/beast_fmri_test/images/D.png'></img>	71,89	2750.0	test	<img class = center src='/static/experiments/beast_fmri_test/images/redD.png'></img>	go	2200.0	2.0	22.0	go	target	D	71,Index Finger	89,Middle Finger	550.0	600.0	2200.0	2150.0	1.0	550.0	n/a	1.0	go_stim
105002.9239508755	1261.07604912	n/a	1030	71	2750	1261.07604912	stim	stop-signal	52	213575	0.0-7.22-1.22	beast_fmri_test	390	211397,/,212076,/,212756,/,213437,/,214118,/,214798,/	t,t,t,t,t,t	<img class = center src='/static/experiments/beast_fmri_test/images/D.png'></img>	71,89	2750.0	test	<img class = center src='/static/experiments/beast_fmri_test/images/redD.png'></img>	go	2200.0	2.0	22.0	go	target	D	71,Index Finger	89,Middle Finger	550.0	600.0	2200.0	2150.0	1.0	550.0	n/a	1.0	ITI
108037	500.0	n/a	-1	-1	500	0.0	fixation	poldrack-single-stim	53	215348	0.0-7.23-0.23	beast_fmri_test	390	n/a	n/a	<div class = centerbox2><div class = fixation>+</div></div>	none	500.0	test	n/a	n/a	n/a	n/a	n/a	n/a	n/a	n/a	n/a	n/a	n/a	n/a	n/a	n/a	n/a	n/a	n/a	n/a	fixation
107978.12103455816	2750.0	n/a	566	89	2750	63.8789654418	stim	stop-signal	54	218103	0.0-7.23-1.23	beast_fmri_test	390	215479,/,216159,/,216839,/,217519,/	t,t,t,t	<img class = center src='/static/experiments/beast_fmri_test/images/T.png'></img>	71,89	2750.0	test	<img class = center src='/static/experiments/beast_fmri_test/images/redT.png'></img>	go	2150.0	2.0	23.0	go	non-target	T	71,Index Finger	89,Middle Finger	550.0	600.0	2200.0	2150.0	1.0	600.0	n/a	1.0	go_stim
110728.12103455816	63.8789654418	n/a	566	89	2750	63.8789654418	stim	stop-signal	54	218103	0.0-7.23-1.23	beast_fmri_test	390	215479,/,216159,/,216839,/,217519,/	t,t,t,t	<img class = center src='/static/experiments/beast_fmri_test/images/T.png'></img>	71,89	2750.0	test	<img class = center src='/static/experiments/beast_fmri_test/images/redT.png'></img>	go	2150.0	2.0	23.0	go	non-target	T	71,Index Finger	89,Middle Finger	550.0	600.0	2200.0	2150.0	1.0	600.0	n/a	1.0	ITI
111368	500.0	n/a	-1	-1	500	0.0	fixation	poldrack-single-stim	55	218679	0.0-7.24-0.24	beast_fmri_test	390	218199,/	t	<div class = centerbox2><div class = fixation>+</div></div>	none	500.0	test	n/a	n/a	n/a	n/a	n/a	n/a	n/a	n/a	n/a	n/a	n/a	n/a	n/a	n/a	n/a	n/a	n/a	n/a	fixation
110803.09694881568	2750.0	n/a	2154	71	2750	567.903051184	stim	stop-signal	56	221432	0.0-7.24-1.24	beast_fmri_test	390	218880,/,219560,/,220241,/,220921,/,221601,/	t,t,t,t,t	<img class = center src='/static/experiments/beast_fmri_test/images/P.png'></img>	71,89	2750.0	test	<img class = center src='/static/experiments/beast_fmri_test/images/redP.png'></img>	go	2150.0	2.0	24.0	go	non-target	P	71,Index Finger	89,Middle Finger	550.0	600.0	2200.0	2150.0	0.0	600.0	n/a	0.0	go_stim
113553.09694881568	567.903051184	n/a	2154	71	2750	567.903051184	stim	stop-signal	56	221432	0.0-7.24-1.24	beast_fmri_test	390	218880,/,219560,/,220241,/,220921,/,221601,/	t,t,t,t,t	<img class = center src='/static/experiments/beast_fmri_test/images/P.png'></img>	71,89	2750.0	test	<img class = center src='/static/experiments/beast_fmri_test/images/redP.png'></img>	go	2150.0	2.0	24.0	go	non-target	P	71,Index Finger	89,Middle Finger	550.0	600.0	2200.0	2150.0	0.0	600.0	n/a	0.0	ITI
115202	500.0	n/a	-1	-1	500	0.0	fixation	poldrack-single-stim	57	222513	0.0-7.25-0.25	beast_fmri_test	390	222282,/	t	<div class = centerbox2><div class = fixation>+</div></div>	none	500.0	test	n/a	n/a	n/a	n/a	n/a	n/a	n/a	n/a	n/a	n/a	n/a	n/a	n/a	n/a	n/a	n/a	n/a	n/a	fixation
114813.8321633056	600.0	n/a	-1	-1	2750	393.167836694	stim	stop-signal	58	225268	0.0-7.25-1.25	beast_fmri_test	390	222962,/,223642,/,224322,/,225003,/	t,t,t,t	<img class = center src='/static/experiments/beast_fmri_test/images/V.png'></img>	71,89	2750.0	test	<img class = center src='/static/experiments/beast_fmri_test/images/redV.png'></img>	stop	2150.0	2.0	25.0	stop	non-target	V	71,Index Finger	89,Middle Finger	550.0	600.0	2200.0	2150.0	0.0	600.0	1.0	n/a	go_stim
116963.8321633056	2150.0	n/a	-1	-1	2750	393.167836694	stim	stop-signal	58	225268	0.0-7.25-1.25	beast_fmri_test	390	222962,/,223642,/,224322,/,225003,/	t,t,t,t	<img class = center src='/static/experiments/beast_fmri_test/images/V.png'></img>	71,89	2750.0	test	<img class = center src='/static/experiments/beast_fmri_test/images/redV.png'></img>	stop	2150.0	2.0	25.0	stop	non-target	V	71,Index Finger	89,Middle Finger	550.0	600.0	2200.0	2150.0	0.0	600.0	1.0	n/a	stop_stim
117563.8321633056	393.167836694	n/a	-1	-1	2750	393.167836694	stim	stop-signal	58	225268	0.0-7.25-1.25	beast_fmri_test	390	222962,/,223642,/,224322,/,225003,/	t,t,t,t	<img class = center src='/static/experiments/beast_fmri_test/images/V.png'></img>	71,89	2750.0	test	<img class = center src='/static/experiments/beast_fmri_test/images/redV.png'></img>	stop	2150.0	2.0	25.0	stop	non-target	V	71,Index Finger	89,Middle Finger	550.0	600.0	2200.0	2150.0	0.0	600.0	1.0	n/a	ITI
118865	500.0	n/a	-1	-1	500	0.0	fixation	poldrack-single-stim	59	226176	0.0-7.26-0.26	beast_fmri_test	390	225683,/	t	<div class = centerbox2><div class = fixation>+</div></div>	none	500.0	test	n/a	n/a	n/a	n/a	n/a	n/a	n/a	n/a	n/a	n/a	n/a	n/a	n/a	n/a	n/a	n/a	n/a	n/a	fixation
118159.52029251627	2750.0	n/a	2666	89	2750	710.479707484	stim	stop-signal	60	228931	0.0-7.26-1.26	beast_fmri_test	390	226363,/,227043,/,227725,/,228408,/,229085,/	t,t,t,t,t	<img class = center src='/static/experiments/beast_fmri_test/images/T.png'></img>	71,89	2750.0	test	<img class = center src='/static/experiments/beast_fmri_test/images/redT.png'></img>	go	2100.0	2.0	26.0	go	non-target	T	71,Index Finger	89,Middle Finger	550.0	650.0	2200.0	2100.0	1.0	650.0	n/a	1.0	go_stim
120909.52029251627	710.479707484	n/a	2666	89	2750	710.479707484	stim	stop-signal	60	228931	0.0-7.26-1.26	beast_fmri_test	390	226363,/,227043,/,227725,/,228408,/,229085,/	t,t,t,t,t	<img class = center src='/static/experiments/beast_fmri_test/images/T.png'></img>	71,89	2750.0	test	<img class = center src='/static/experiments/beast_fmri_test/images/redT.png'></img>	go	2100.0	2.0	26.0	go	non-target	T	71,Index Finger	89,Middle Finger	550.0	650.0	2200.0	2100.0	1.0	650.0	n/a	1.0	ITI
122844	500.0	n/a	-1	-1	500	0.0	fixation	poldrack-single-stim	61	230155	0.0-7.27-0.27	beast_fmri_test	390	229765,/	t	<div class = centerbox2><div class = fixation>+</div></div>	none	500.0	test	n/a	n/a	n/a	n/a	n/a	n/a	n/a	n/a	n/a	n/a	n/a	n/a	n/a	n/a	n/a	n/a	n/a	n/a	fixation
120356.35679112279	2750.0	n/a	864	71	2750	2491.64320888	stim	stop-signal	62	232909	0.0-7.27-1.27	beast_fmri_test	390	230445,/,231126,/,231806,/,232486,/,233167,/,233847,/,234527,/,235208,/	t,t,t,t,t,t,t,t	<img class = center src='/static/experiments/beast_fmri_test/images/V.png'></img>	71,89	2750.0	test	<img class = center src='/static/experiments/beast_fmri_test/images/redV.png'></img>	go	2200.0	2.0	27.0	go	target	V	71,Index Finger	89,Middle Finger	550.0	650.0	2200.0	2100.0	1.0	550.0	n/a	1.0	go_stim
123106.35679112279	2491.64320888	n/a	864	71	2750	2491.64320888	stim	stop-signal	62	232909	0.0-7.27-1.27	beast_fmri_test	390	230445,/,231126,/,231806,/,232486,/,233167,/,233847,/,234527,/,235208,/	t,t,t,t,t,t,t,t	<img class = center src='/static/experiments/beast_fmri_test/images/V.png'></img>	71,89	2750.0	test	<img class = center src='/static/experiments/beast_fmri_test/images/redV.png'></img>	go	2200.0	2.0	27.0	go	target	V	71,Index Finger	89,Middle Finger	550.0	650.0	2200.0	2100.0	1.0	550.0	n/a	1.0	ITI
128603	500.0	n/a	-1	-1	500	0.0	fixation	poldrack-single-stim	63	235914	0.0-7.28-0.28	beast_fmri_test	390	235888,/	t	<div class = centerbox2><div class = fixation>+</div></div>	none	500.0	test	n/a	n/a	n/a	n/a	n/a	n/a	n/a	n/a	n/a	n/a	n/a	n/a	n/a	n/a	n/a	n/a	n/a	n/a	fixation
127895.02469331367	2750.0	n/a	830	89	2750	711.975306686	stim	stop-signal	64	238668	0.0-7.28-1.28	beast_fmri_test	390	236568,/,237248,/,237929,/,238609,/,239289,/	t,t,t,t,t	<img class = center src='/static/experiments/beast_fmri_test/images/D.png'></img>	71,89	2750.0	test	<img class = center src='/static/experiments/beast_fmri_test/images/redD.png'></img>	go	2100.0	2.0	28.0	go	non-target	D	71,Index Finger	89,Middle Finger	550.0	650.0	2200.0	2100.0	1.0	650.0	n/a	1.0	go_stim
130645.02469331367	711.975306686	n/a	830	89	2750	711.975306686	stim	stop-signal	64	238668	0.0-7.28-1.28	beast_fmri_test	390	236568,/,237248,/,237929,/,238609,/,239289,/	t,t,t,t,t	<img class = center src='/static/experiments/beast_fmri_test/images/D.png'></img>	71,89	2750.0	test	<img class = center src='/static/experiments/beast_fmri_test/images/redD.png'></img>	go	2100.0	2.0	28.0	go	non-target	D	71,Index Finger	89,Middle Finger	550.0	650.0	2200.0	2100.0	1.0	650.0	n/a	1.0	ITI
132582	500.0	n/a	-1	-1	500	0.0	fixation	poldrack-single-stim	65	239893	0.0-7.29-0.29	beast_fmri_test	390	n/a	n/a	<div class = centerbox2><div class = fixation>+</div></div>	none	500.0	test	n/a	n/a	n/a	n/a	n/a	n/a	n/a	n/a	n/a	n/a	n/a	n/a	n/a	n/a	n/a	n/a	n/a	n/a	fixation
132510.24557761592	2750.0	n/a	910	89	2750	75.7544223841	stim	stop-signal	66	242647	0.0-7.29-1.29	beast_fmri_test	390	239970,/,240649,/,241330,/,242010,/,242691,/	t,t,t,t,t	<img class = center src='/static/experiments/beast_fmri_test/images/P.png'></img>	71,89	2750.0	test	<img class = center src='/static/experiments/beast_fmri_test/images/redP.png'></img>	go	2100.0	2.0	29.0	go	non-target	P	71,Index Finger	89,Middle Finger	550.0	650.0	2200.0	2100.0	1.0	650.0	n/a	1.0	go_stim
135260.24557761592	75.7544223841	n/a	910	89	2750	75.7544223841	stim	stop-signal	66	242647	0.0-7.29-1.29	beast_fmri_test	390	239970,/,240649,/,241330,/,242010,/,242691,/	t,t,t,t,t	<img class = center src='/static/experiments/beast_fmri_test/images/P.png'></img>	71,89	2750.0	test	<img class = center src='/static/experiments/beast_fmri_test/images/redP.png'></img>	go	2100.0	2.0	29.0	go	non-target	P	71,Index Finger	89,Middle Finger	550.0	650.0	2200.0	2100.0	1.0	650.0	n/a	1.0	ITI
135926	500.0	n/a	-1	-1	500	0.0	fixation	poldrack-single-stim	67	243237	0.0-7.30-0.30	beast_fmri_test	390	n/a	n/a	<div class = centerbox2><div class = fixation>+</div></div>	none	500.0	test	n/a	n/a	n/a	n/a	n/a	n/a	n/a	n/a	n/a	n/a	n/a	n/a	n/a	n/a	n/a	n/a	n/a	n/a	fixation
135413.59046793231	2750.0	n/a	978	71	2750	517.409532068	stim	stop-signal	68	245992	0.0-7.30-1.30	beast_fmri_test	390	243370,/,244051,/,244732,/,245412,/,246092,/	t,t,t,t,t	<img class = center src='/static/experiments/beast_fmri_test/images/D.png'></img>	71,89	2750.0	test	<img class = center src='/static/experiments/beast_fmri_test/images/redD.png'></img>	go	2200.0	2.0	30.0	go	target	D	71,Index Finger	89,Middle Finger	550.0	650.0	2200.0	2100.0	1.0	550.0	n/a	1.0	go_stim
138163.59046793231	517.409532068	n/a	978	71	2750	517.409532068	stim	stop-signal	68	245992	0.0-7.30-1.30	beast_fmri_test	390	243370,/,244051,/,244732,/,245412,/,246092,/	t,t,t,t,t	<img class = center src='/static/experiments/beast_fmri_test/images/D.png'></img>	71,89	2750.0	test	<img class = center src='/static/experiments/beast_fmri_test/images/redD.png'></img>	go	2200.0	2.0	30.0	go	target	D	71,Index Finger	89,Middle Finger	550.0	650.0	2200.0	2100.0	1.0	550.0	n/a	1.0	ITI
139712	500.0	n/a	-1	-1	500	0.0	fixation	poldrack-single-stim	69	247023	0.0-7.31-0.31	beast_fmri_test	390	246772,/	t	<div class = centerbox2><div class = fixation>+</div></div>	none	500.0	test	n/a	n/a	n/a	n/a	n/a	n/a	n/a	n/a	n/a	n/a	n/a	n/a	n/a	n/a	n/a	n/a	n/a	n/a	fixation
137508.20297907761	550.0	n/a	665	71	2750	2206.79702092	stim	stop-signal	70	249776	0.0-7.31-1.31	beast_fmri_test	390	247452,/,248133,/,248813,/,249494,/,250174,/,250854,/,251534,/	t,t,t,t,t,t,t	<img class = center src='/static/experiments/beast_fmri_test/images/P.png'></img>	71,89	2750.0	test	<img class = center src='/static/experiments/beast_fmri_test/images/redP.png'></img>	stop	2200.0	2.0	31.0	stop	target	P	71,Index Finger	89,Middle Finger	550.0	650.0	2200.0	2100.0	0.0	550.0	0.0	n/a	go_stim
139708.20297907761	2200.0	n/a	665	71	2750	2206.79702092	stim	stop-signal	70	249776	0.0-7.31-1.31	beast_fmri_test	390	247452,/,248133,/,248813,/,249494,/,250174,/,250854,/,251534,/	t,t,t,t,t,t,t	<img class = center src='/static/experiments/beast_fmri_test/images/P.png'></img>	71,89	2750.0	test	<img class = center src='/static/experiments/beast_fmri_test/images/redP.png'></img>	stop	2200.0	2.0	31.0	stop	target	P	71,Index Finger	89,Middle Finger	550.0	650.0	2200.0	2100.0	0.0	550.0	0.0	n/a	stop_stim
140258.20297907761	2206.79702092	n/a	665	71	2750	2206.79702092	stim	stop-signal	70	249776	0.0-7.31-1.31	beast_fmri_test	390	247452,/,248133,/,248813,/,249494,/,250174,/,250854,/,251534,/	t,t,t,t,t,t,t	<img class = center src='/static/experiments/beast_fmri_test/images/P.png'></img>	71,89	2750.0	test	<img class = center src='/static/experiments/beast_fmri_test/images/redP.png'></img>	stop	2200.0	2.0	31.0	stop	target	P	71,Index Finger	89,Middle Finger	550.0	650.0	2200.0	2100.0	0.0	550.0	0.0	n/a	ITI
145185	500.0	n/a	-1	-1	500	0.0	fixation	poldrack-single-stim	71	252496	0.0-7.32-0.32	beast_fmri_test	390	252214,/	t	<div class = centerbox2><div class = fixation>+</div></div>	none	500.0	test	n/a	n/a	n/a	n/a	n/a	n/a	n/a	n/a	n/a	n/a	n/a	n/a	n/a	n/a	n/a	n/a	n/a	n/a	fixation
143207.4433212349	650.0	n/a	754	89	2750	1981.55667877	stim	stop-signal	72	255250	0.0-7.32-1.32	beast_fmri_test	390	252895,/,253576,/,254256,/,254937,/,255617,/,256298,/,256978,/	t,t,t,t,t,t,t	<img class = center src='/static/experiments/beast_fmri_test/images/P.png'></img>	71,89	2750.0	test	<img class = center src='/static/experiments/beast_fmri_test/images/redP.png'></img>	stop	2100.0	2.0	32.0	stop	non-target	P	71,Index Finger	89,Middle Finger	500.0	650.0	2200.0	2100.0	0.0	650.0	0.0	n/a	go_stim
145307.4433212349	2100.0	n/a	754	89	2750	1981.55667877	stim	stop-signal	72	255250	0.0-7.32-1.32	beast_fmri_test	390	252895,/,253576,/,254256,/,254937,/,255617,/,256298,/,256978,/	t,t,t,t,t,t,t	<img class = center src='/static/experiments/beast_fmri_test/images/P.png'></img>	71,89	2750.0	test	<img class = center src='/static/experiments/beast_fmri_test/images/redP.png'></img>	stop	2100.0	2.0	32.0	stop	non-target	P	71,Index Finger	89,Middle Finger	500.0	650.0	2200.0	2100.0	0.0	650.0	0.0	n/a	stop_stim
145957.4433212349	1981.55667877	n/a	754	89	2750	1981.55667877	stim	stop-signal	72	255250	0.0-7.32-1.32	beast_fmri_test	390	252895,/,253576,/,254256,/,254937,/,255617,/,256298,/,256978,/	t,t,t,t,t,t,t	<img class = center src='/static/experiments/beast_fmri_test/images/P.png'></img>	71,89	2750.0	test	<img class = center src='/static/experiments/beast_fmri_test/images/redP.png'></img>	stop	2100.0	2.0	32.0	stop	non-target	P	71,Index Finger	89,Middle Finger	500.0	650.0	2200.0	2100.0	0.0	650.0	0.0	n/a	ITI
150435	500.0	n/a	-1	-1	500	0.0	fixation	poldrack-single-stim	73	257746	0.0-7.33-0.33	beast_fmri_test	390	257658,/	t	<div class = centerbox2><div class = fixation>+</div></div>	none	500.0	test	n/a	n/a	n/a	n/a	n/a	n/a	n/a	n/a	n/a	n/a	n/a	n/a	n/a	n/a	n/a	n/a	n/a	n/a	fixation
149705.59995613177	2750.0	n/a	1544	71	2750	733.400043868	stim	stop-signal	74	260500	0.0-7.33-1.33	beast_fmri_test	390	258337,/,259018,/,259699,/,260379,/,261059,/	t,t,t,t,t	<img class = center src='/static/experiments/beast_fmri_test/images/P.png'></img>	71,89	2750.0	test	<img class = center src='/static/experiments/beast_fmri_test/images/redP.png'></img>	go	2250.0	2.0	33.0	go	target	P	71,Index Finger	89,Middle Finger	500.0	600.0	2250.0	2100.0	1.0	500.0	n/a	1.0	go_stim
152455.59995613177	733.400043868	n/a	1544	71	2750	733.400043868	stim	stop-signal	74	260500	0.0-7.33-1.33	beast_fmri_test	390	258337,/,259018,/,259699,/,260379,/,261059,/	t,t,t,t,t	<img class = center src='/static/experiments/beast_fmri_test/images/P.png'></img>	71,89	2750.0	test	<img class = center src='/static/experiments/beast_fmri_test/images/redP.png'></img>	go	2250.0	2.0	33.0	go	target	P	71,Index Finger	89,Middle Finger	500.0	600.0	2250.0	2100.0	1.0	500.0	n/a	1.0	ITI
154438	500.0	n/a	-1	-1	500	0.0	fixation	poldrack-single-stim	75	261749	0.0-7.34-0.34	beast_fmri_test	390	261740,/	t	<div class = centerbox2><div class = fixation>+</div></div>	none	500.0	test	n/a	n/a	n/a	n/a	n/a	n/a	n/a	n/a	n/a	n/a	n/a	n/a	n/a	n/a	n/a	n/a	n/a	n/a	fixation
151110.17974487622	600.0	n/a	-1	-1	2750	3331.82025512	stim	stop-signal	76	264503	0.0-7.34-1.34	beast_fmri_test	390	262419,/,263100,/,263781,/,264461,/,265141,/,265820,/,266500,/,267181,/	t,t,t,t,t,t,t,t	<img class = center src='/static/experiments/beast_fmri_test/images/D.png'></img>	71,89	2750.0	test	<img class = center src='/static/experiments/beast_fmri_test/images/redD.png'></img>	stop	2150.0	2.0	34.0	stop	non-target	D	71,Index Finger	89,Middle Finger	500.0	600.0	2250.0	2150.0	0.0	600.0	1.0	n/a	go_stim
153260.17974487622	2150.0	n/a	-1	-1	2750	3331.82025512	stim	stop-signal	76	264503	0.0-7.34-1.34	beast_fmri_test	390	262419,/,263100,/,263781,/,264461,/,265141,/,265820,/,266500,/,267181,/	t,t,t,t,t,t,t,t	<img class = center src='/static/experiments/beast_fmri_test/images/D.png'></img>	71,89	2750.0	test	<img class = center src='/static/experiments/beast_fmri_test/images/redD.png'></img>	stop	2150.0	2.0	34.0	stop	non-target	D	71,Index Finger	89,Middle Finger	500.0	600.0	2250.0	2150.0	0.0	600.0	1.0	n/a	stop_stim
153860.17974487622	3331.82025512	n/a	-1	-1	2750	3331.82025512	stim	stop-signal	76	264503	0.0-7.34-1.34	beast_fmri_test	390	262419,/,263100,/,263781,/,264461,/,265141,/,265820,/,266500,/,267181,/	t,t,t,t,t,t,t,t	<img class = center src='/static/experiments/beast_fmri_test/images/D.png'></img>	71,89	2750.0	test	<img class = center src='/static/experiments/beast_fmri_test/images/redD.png'></img>	stop	2150.0	2.0	34.0	stop	non-target	D	71,Index Finger	89,Middle Finger	500.0	600.0	2250.0	2150.0	0.0	600.0	1.0	n/a	ITI
161039	500.0	n/a	-1	-1	500	0.0	fixation	poldrack-single-stim	77	268350	0.0-7.35-0.35	beast_fmri_test	390	267861,/	t	<div class = centerbox2><div class = fixation>+</div></div>	none	500.0	test	n/a	n/a	n/a	n/a	n/a	n/a	n/a	n/a	n/a	n/a	n/a	n/a	n/a	n/a	n/a	n/a	n/a	n/a	fixation
160334.66579531354	650.0	n/a	664	89	2750	708.334204686	stim	stop-signal	78	271104	0.0-7.35-1.35	beast_fmri_test	390	268543,/,269223,/,269903,/,270583,/,271263,/	t,t,t,t,t	<img class = center src='/static/experiments/beast_fmri_test/images/B.png'></img>	71,89	2750.0	test	<img class = center src='/static/experiments/beast_fmri_test/images/redB.png'></img>	stop	2100.0	2.0	35.0	stop	non-target	B	71,Index Finger	89,Middle Finger	500.0	650.0	2250.0	2100.0	0.0	650.0	0.0	n/a	go_stim
162434.66579531354	2100.0	n/a	664	89	2750	708.334204686	stim	stop-signal	78	271104	0.0-7.35-1.35	beast_fmri_test	390	268543,/,269223,/,269903,/,270583,/,271263,/	t,t,t,t,t	<img class = center src='/static/experiments/beast_fmri_test/images/B.png'></img>	71,89	2750.0	test	<img class = center src='/static/experiments/beast_fmri_test/images/redB.png'></img>	stop	2100.0	2.0	35.0	stop	non-target	B	71,Index Finger	89,Middle Finger	500.0	650.0	2250.0	2100.0	0.0	650.0	0.0	n/a	stop_stim
163084.66579531354	708.334204686	n/a	664	89	2750	708.334204686	stim	stop-signal	78	271104	0.0-7.35-1.35	beast_fmri_test	390	268543,/,269223,/,269903,/,270583,/,271263,/	t,t,t,t,t	<img class = center src='/static/experiments/beast_fmri_test/images/B.png'></img>	71,89	2750.0	test	<img class = center src='/static/experiments/beast_fmri_test/images/redB.png'></img>	stop	2100.0	2.0	35.0	stop	non-target	B	71,Index Finger	89,Middle Finger	500.0	650.0	2250.0	2100.0	0.0	650.0	0.0	n/a	ITI
165016	500.0	n/a	-1	-1	500	0.0	fixation	poldrack-single-stim	79	272327	0.0-7.36-0.36	beast_fmri_test	390	271944,/	t	<div class = centerbox2><div class = fixation>+</div></div>	none	500.0	test	n/a	n/a	n/a	n/a	n/a	n/a	n/a	n/a	n/a	n/a	n/a	n/a	n/a	n/a	n/a	n/a	n/a	n/a	fixation
162974.53496192803	2750.0	n/a	1070	89	2750	2046.46503807	stim	stop-signal	80	275082	0.0-7.36-1.36	beast_fmri_test	390	272624,/,273304,/,273985,/,274665,/,275345,/,276025,/,276706,/	t,t,t,t,t,t,t	<img class = center src='/static/experiments/beast_fmri_test/images/D.png'></img>	71,89	2750.0	test	<img class = center src='/static/experiments/beast_fmri_test/images/redD.png'></img>	go	2250.0	2.0	36.0	go	target	D	71,Index Finger	89,Middle Finger	500.0	600.0	2250.0	2100.0	0.0	500.0	n/a	0.0	go_stim
165724.53496192803	2046.46503807	n/a	1070	89	2750	2046.46503807	stim	stop-signal	80	275082	0.0-7.36-1.36	beast_fmri_test	390	272624,/,273304,/,273985,/,274665,/,275345,/,276025,/,276706,/	t,t,t,t,t,t,t	<img class = center src='/static/experiments/beast_fmri_test/images/D.png'></img>	71,89	2750.0	test	<img class = center src='/static/experiments/beast_fmri_test/images/redD.png'></img>	go	2250.0	2.0	36.0	go	target	D	71,Index Finger	89,Middle Finger	500.0	600.0	2250.0	2100.0	0.0	500.0	n/a	0.0	ITI
170334	500.0	n/a	-1	-1	500	0.0	fixation	poldrack-single-stim	81	277645	0.0-7.37-0.37	beast_fmri_test	390	277386,/	t	<div class = centerbox2><div class = fixation>+</div></div>	none	500.0	test	n/a	n/a	n/a	n/a	n/a	n/a	n/a	n/a	n/a	n/a	n/a	n/a	n/a	n/a	n/a	n/a	n/a	n/a	fixation
169969.40978038532	2750.0	n/a	743	89	2750	368.590219615	stim	stop-signal	82	280399	0.0-7.37-1.37	beast_fmri_test	390	278067,/,278745,/,279426,/,280107,/	t,t,t,t	<img class = center src='/static/experiments/beast_fmri_test/images/P.png'></img>	71,89	2750.0	test	<img class = center src='/static/experiments/beast_fmri_test/images/redP.png'></img>	go	2150.0	2.0	37.0	go	non-target	P	71,Index Finger	89,Middle Finger	500.0	600.0	2250.0	2150.0	1.0	600.0	n/a	1.0	go_stim
172719.40978038532	368.590219615	n/a	743	89	2750	368.590219615	stim	stop-signal	82	280399	0.0-7.37-1.37	beast_fmri_test	390	278067,/,278745,/,279426,/,280107,/	t,t,t,t	<img class = center src='/static/experiments/beast_fmri_test/images/P.png'></img>	71,89	2750.0	test	<img class = center src='/static/experiments/beast_fmri_test/images/redP.png'></img>	go	2150.0	2.0	37.0	go	non-target	P	71,Index Finger	89,Middle Finger	500.0	600.0	2250.0	2150.0	1.0	600.0	n/a	1.0	ITI
173972	500.0	n/a	-1	-1	500	0.0	fixation	poldrack-single-stim	83	281283	0.0-7.38-0.38	beast_fmri_test	390	280787,/	t	<div class = centerbox2><div class = fixation>+</div></div>	none	500.0	test	n/a	n/a	n/a	n/a	n/a	n/a	n/a	n/a	n/a	n/a	n/a	n/a	n/a	n/a	n/a	n/a	n/a	n/a	fixation
172941.52788372122	2750.0	n/a	602	71	2750	1034.47211628	stim	stop-signal	84	284037	0.0-7.38-1.38	beast_fmri_test	390	281466,/,282148,/,282829,/,283508,/,284188,/,284870,/	t,t,t,t,t,t	<img class = center src='/static/experiments/beast_fmri_test/images/D.png'></img>	71,89	2750.0	test	<img class = center src='/static/experiments/beast_fmri_test/images/redD.png'></img>	go	2250.0	2.0	38.0	go	target	D	71,Index Finger	89,Middle Finger	500.0	600.0	2250.0	2150.0	1.0	500.0	n/a	1.0	go_stim
175691.52788372122	1034.47211628	n/a	602	71	2750	1034.47211628	stim	stop-signal	84	284037	0.0-7.38-1.38	beast_fmri_test	390	281466,/,282148,/,282829,/,283508,/,284188,/,284870,/	t,t,t,t,t,t	<img class = center src='/static/experiments/beast_fmri_test/images/D.png'></img>	71,89	2750.0	test	<img class = center src='/static/experiments/beast_fmri_test/images/redD.png'></img>	go	2250.0	2.0	38.0	go	target	D	71,Index Finger	89,Middle Finger	500.0	600.0	2250.0	2150.0	1.0	500.0	n/a	1.0	ITI
178275	500.0	n/a	-1	-1	500	0.0	fixation	poldrack-single-stim	85	285586	0.0-7.39-0.39	beast_fmri_test	390	285550,/	t	<div class = centerbox2><div class = fixation>+</div></div>	none	500.0	test	n/a	n/a	n/a	n/a	n/a	n/a	n/a	n/a	n/a	n/a	n/a	n/a	n/a	n/a	n/a	n/a	n/a	n/a	fixation
178149.15557106835	2750.0	n/a	1644	89	2750	130.844428932	stim	stop-signal	86	288341	0.0-7.39-1.39	beast_fmri_test	390	286231,/,286911,/,287592,/,288271,/	t,t,t,t	<img class = center src='/static/experiments/beast_fmri_test/images/B.png'></img>	71,89	2750.0	test	<img class = center src='/static/experiments/beast_fmri_test/images/redB.png'></img>	go	2150.0	2.0	39.0	go	non-target	B	71,Index Finger	89,Middle Finger	500.0	600.0	2250.0	2150.0	1.0	600.0	n/a	1.0	go_stim
180899.15557106835	130.844428932	n/a	1644	89	2750	130.844428932	stim	stop-signal	86	288341	0.0-7.39-1.39	beast_fmri_test	390	286231,/,286911,/,287592,/,288271,/	t,t,t,t	<img class = center src='/static/experiments/beast_fmri_test/images/B.png'></img>	71,89	2750.0	test	<img class = center src='/static/experiments/beast_fmri_test/images/redB.png'></img>	go	2150.0	2.0	39.0	go	non-target	B	71,Index Finger	89,Middle Finger	500.0	600.0	2250.0	2150.0	1.0	600.0	n/a	1.0	ITI
181675	500.0	n/a	-1	-1	500	0.0	fixation	poldrack-single-stim	87	288986	0.0-7.40-0.40	beast_fmri_test	390	288952,/	t	<div class = centerbox2><div class = fixation>+</div></div>	none	500.0	test	n/a	n/a	n/a	n/a	n/a	n/a	n/a	n/a	n/a	n/a	n/a	n/a	n/a	n/a	n/a	n/a	n/a	n/a	fixation
180731.16452972579	2750.0	n/a	1071	89	2750	948.835470274	stim	stop-signal	88	291741	0.0-7.40-1.40	beast_fmri_test	390	289632,/,290312,/,290992,/,291672,/,292353,/	t,t,t,t,t	<img class = center src='/static/experiments/beast_fmri_test/images/V.png'></img>	71,89	2750.0	test	<img class = center src='/static/experiments/beast_fmri_test/images/redV.png'></img>	go	2150.0	2.0	40.0	go	non-target	V	71,Index Finger	89,Middle Finger	500.0	600.0	2250.0	2150.0	1.0	600.0	n/a	1.0	go_stim
183481.16452972579	948.835470274	n/a	1071	89	2750	948.835470274	stim	stop-signal	88	291741	0.0-7.40-1.40	beast_fmri_test	390	289632,/,290312,/,290992,/,291672,/,292353,/	t,t,t,t,t	<img class = center src='/static/experiments/beast_fmri_test/images/V.png'></img>	71,89	2750.0	test	<img class = center src='/static/experiments/beast_fmri_test/images/redV.png'></img>	go	2150.0	2.0	40.0	go	non-target	V	71,Index Finger	89,Middle Finger	500.0	600.0	2250.0	2150.0	1.0	600.0	n/a	1.0	ITI
185895	500.0	n/a	-1	-1	500	0.0	fixation	poldrack-single-stim	89	293206	0.0-7.41-0.41	beast_fmri_test	390	293033,/	t	<div class = centerbox2><div class = fixation>+</div></div>	none	500.0	test	n/a	n/a	n/a	n/a	n/a	n/a	n/a	n/a	n/a	n/a	n/a	n/a	n/a	n/a	n/a	n/a	n/a	n/a	fixation
185876.73853330605	500.0	n/a	503	71	2750	23.2614666939	stim	stop-signal	90	295961	0.0-7.41-1.41	beast_fmri_test	390	293713,/,294394,/,295074,/,295754,/	t,t,t,t	<img class = center src='/static/experiments/beast_fmri_test/images/B.png'></img>	71,89	2750.0	test	<img class = center src='/static/experiments/beast_fmri_test/images/redB.png'></img>	stop	2250.0	2.0	41.0	stop	target	B	71,Index Finger	89,Middle Finger	500.0	600.0	2250.0	2150.0	0.0	500.0	0.0	n/a	go_stim
188126.73853330605	2250.0	n/a	503	71	2750	23.2614666939	stim	stop-signal	90	295961	0.0-7.41-1.41	beast_fmri_test	390	293713,/,294394,/,295074,/,295754,/	t,t,t,t	<img class = center src='/static/experiments/beast_fmri_test/images/B.png'></img>	71,89	2750.0	test	<img class = center src='/static/experiments/beast_fmri_test/images/redB.png'></img>	stop	2250.0	2.0	41.0	stop	target	B	71,Index Finger	89,Middle Finger	500.0	600.0	2250.0	2150.0	0.0	500.0	0.0	n/a	stop_stim
188626.73853330605	23.2614666939	n/a	503	71	2750	23.2614666939	stim	stop-signal	90	295961	0.0-7.41-1.41	beast_fmri_test	390	293713,/,294394,/,295074,/,295754,/	t,t,t,t	<img class = center src='/static/experiments/beast_fmri_test/images/B.png'></img>	71,89	2750.0	test	<img class = center src='/static/experiments/beast_fmri_test/images/redB.png'></img>	stop	2250.0	2.0	41.0	stop	target	B	71,Index Finger	89,Middle Finger	500.0	600.0	2250.0	2150.0	0.0	500.0	0.0	n/a	ITI
189185	500.0	n/a	-1	-1	500	0.0	fixation	poldrack-single-stim	91	296496	0.0-7.42-0.42	beast_fmri_test	390	296435,/	t	<div class = centerbox2><div class = fixation>+</div></div>	none	500.0	test	n/a	n/a	n/a	n/a	n/a	n/a	n/a	n/a	n/a	n/a	n/a	n/a	n/a	n/a	n/a	n/a	n/a	n/a	fixation
189050.78639117116	2750.0	n/a	1473	89	2750	139.213608829	stim	stop-signal	92	299251	0.0-7.42-1.42	beast_fmri_test	390	297115,/,297796,/,298474,/,299156,/	t,t,t,t	<img class = center src='/static/experiments/beast_fmri_test/images/P.png'></img>	71,89	2750.0	test	<img class = center src='/static/experiments/beast_fmri_test/images/redP.png'></img>	go	2150.0	2.0	42.0	go	non-target	P	71,Index Finger	89,Middle Finger	450.0	600.0	2250.0	2150.0	1.0	600.0	n/a	1.0	go_stim
191800.78639117116	139.213608829	n/a	1473	89	2750	139.213608829	stim	stop-signal	92	299251	0.0-7.42-1.42	beast_fmri_test	390	297115,/,297796,/,298474,/,299156,/	t,t,t,t	<img class = center src='/static/experiments/beast_fmri_test/images/P.png'></img>	71,89	2750.0	test	<img class = center src='/static/experiments/beast_fmri_test/images/redP.png'></img>	go	2150.0	2.0	42.0	go	non-target	P	71,Index Finger	89,Middle Finger	450.0	600.0	2250.0	2150.0	1.0	600.0	n/a	1.0	ITI
192590	500.0	n/a	-1	-1	500	0.0	fixation	poldrack-single-stim	93	299901	0.0-7.43-0.43	beast_fmri_test	390	299837,/	t	<div class = centerbox2><div class = fixation>+</div></div>	none	500.0	test	n/a	n/a	n/a	n/a	n/a	n/a	n/a	n/a	n/a	n/a	n/a	n/a	n/a	n/a	n/a	n/a	n/a	n/a	fixation
191708.21808227821	2750.0	n/a	659	89	2750	885.781917722	stim	stop-signal	94	302655	0.0-7.43-1.43	beast_fmri_test	390	300516,/,301197,/,301877,/,302557,/,303237,/	t,t,t,t,t	<img class = center src='/static/experiments/beast_fmri_test/images/T.png'></img>	71,89	2750.0	test	<img class = center src='/static/experiments/beast_fmri_test/images/redT.png'></img>	go	2150.0	2.0	43.0	go	non-target	T	71,Index Finger	89,Middle Finger	450.0	600.0	2250.0	2150.0	1.0	600.0	n/a	1.0	go_stim
194458.21808227821	885.781917722	n/a	659	89	2750	885.781917722	stim	stop-signal	94	302655	0.0-7.43-1.43	beast_fmri_test	390	300516,/,301197,/,301877,/,302557,/,303237,/	t,t,t,t,t	<img class = center src='/static/experiments/beast_fmri_test/images/T.png'></img>	71,89	2750.0	test	<img class = center src='/static/experiments/beast_fmri_test/images/redT.png'></img>	go	2150.0	2.0	43.0	go	non-target	T	71,Index Finger	89,Middle Finger	450.0	600.0	2250.0	2150.0	1.0	600.0	n/a	1.0	ITI
196748	500.0	n/a	-1	-1	500	0.0	fixation	poldrack-single-stim	95	304059	0.0-7.44-0.44	beast_fmri_test	390	303918,/	t	<div class = centerbox2><div class = fixation>+</div></div>	none	500.0	test	n/a	n/a	n/a	n/a	n/a	n/a	n/a	n/a	n/a	n/a	n/a	n/a	n/a	n/a	n/a	n/a	n/a	n/a	fixation
196179.95971374045	2750.0	n/a	768	71	2750	571.04028626	stim	stop-signal	96	306812	0.0-7.44-1.44	beast_fmri_test	390	304598,/,305279,/,305959,/,306639,/,307319,/	t,t,t,t,t	<img class = center src='/static/experiments/beast_fmri_test/images/V.png'></img>	71,89	2750.0	test	<img class = center src='/static/experiments/beast_fmri_test/images/redV.png'></img>	go	2150.0	2.0	44.0	go	non-target	V	71,Index Finger	89,Middle Finger	450.0	600.0	2250.0	2150.0	0.0	600.0	n/a	0.0	go_stim
198929.95971374045	571.04028626	n/a	768	71	2750	571.04028626	stim	stop-signal	96	306812	0.0-7.44-1.44	beast_fmri_test	390	304598,/,305279,/,305959,/,306639,/,307319,/	t,t,t,t,t	<img class = center src='/static/experiments/beast_fmri_test/images/V.png'></img>	71,89	2750.0	test	<img class = center src='/static/experiments/beast_fmri_test/images/redV.png'></img>	go	2150.0	2.0	44.0	go	non-target	V	71,Index Finger	89,Middle Finger	450.0	600.0	2250.0	2150.0	0.0	600.0	n/a	0.0	ITI
200589	500.0	n/a	-1	-1	500	0.0	fixation	poldrack-single-stim	97	307900	0.0-7.45-0.45	beast_fmri_test	390	n/a	n/a	<div class = centerbox2><div class = fixation>+</div></div>	none	500.0	test	n/a	n/a	n/a	n/a	n/a	n/a	n/a	n/a	n/a	n/a	n/a	n/a	n/a	n/a	n/a	n/a	n/a	n/a	fixation
200216.68603233312	2750.0	n/a	871	89	2750	376.313967667	stim	stop-signal	98	310654	0.0-7.45-1.45	beast_fmri_test	390	308000,/,308680,/,309360,/,310040,/,310722,/	t,t,t,t,t	<img class = center src='/static/experiments/beast_fmri_test/images/V.png'></img>	71,89	2750.0	test	<img class = center src='/static/experiments/beast_fmri_test/images/redV.png'></img>	go	2150.0	2.0	45.0	go	non-target	V	71,Index Finger	89,Middle Finger	450.0	600.0	2250.0	2150.0	1.0	600.0	n/a	1.0	go_stim
202966.68603233312	376.313967667	n/a	871	89	2750	376.313967667	stim	stop-signal	98	310654	0.0-7.45-1.45	beast_fmri_test	390	308000,/,308680,/,309360,/,310040,/,310722,/	t,t,t,t,t	<img class = center src='/static/experiments/beast_fmri_test/images/V.png'></img>	71,89	2750.0	test	<img class = center src='/static/experiments/beast_fmri_test/images/redV.png'></img>	go	2150.0	2.0	45.0	go	non-target	V	71,Index Finger	89,Middle Finger	450.0	600.0	2250.0	2150.0	1.0	600.0	n/a	1.0	ITI
204237	500.0	n/a	-1	-1	500	0.0	fixation	poldrack-single-stim	99	311548	0.0-7.46-0.46	beast_fmri_test	390	311401,/	t	<div class = centerbox2><div class = fixation>+</div></div>	none	500.0	test	n/a	n/a	n/a	n/a	n/a	n/a	n/a	n/a	n/a	n/a	n/a	n/a	n/a	n/a	n/a	n/a	n/a	n/a	fixation
204205.900788787	2750.0	n/a	826	71	2750	35.099211213	stim	stop-signal	100	314302	0.0-7.46-1.46	beast_fmri_test	390	312082,/,312762,/,313443,/,314123,/	t,t,t,t	<img class = center src='/static/experiments/beast_fmri_test/images/T.png'></img>	71,89	2750.0	test	<img class = center src='/static/experiments/beast_fmri_test/images/redT.png'></img>	go	2150.0	2.0	46.0	go	non-target	T	71,Index Finger	89,Middle Finger	450.0	600.0	2250.0	2150.0	0.0	600.0	n/a	0.0	go_stim
206955.900788787	35.099211213	n/a	826	71	2750	35.099211213	stim	stop-signal	100	314302	0.0-7.46-1.46	beast_fmri_test	390	312082,/,312762,/,313443,/,314123,/	t,t,t,t	<img class = center src='/static/experiments/beast_fmri_test/images/T.png'></img>	71,89	2750.0	test	<img class = center src='/static/experiments/beast_fmri_test/images/redT.png'></img>	go	2150.0	2.0	46.0	go	non-target	T	71,Index Finger	89,Middle Finger	450.0	600.0	2250.0	2150.0	0.0	600.0	n/a	0.0	ITI
222048	15000.0	n/a	-1	-1	15000	0.0	practice-no-stop-feedback	poldrack-single-stim	101	329359	0.0-8.0	beast_fmri_test	390	314804,/,315483,/,316164,/,316843,/,317524,/,318205,/,318885,/,319566,/,320246,/,320926,/,321606,/,322286,/,322967,/,323647,/,324327,/,325007,/,325688,/,326368,/,327048,/,327729,/,328408,/,329089,/	t,t,t,t,t,t,t,t,t,t,t,t,t,t,t,t,t,t,t,t,t,t	"<div class = ""centerbox2_2""><p class = ""block-text2"">Your delay is 2 trials.</p><p class = block-text2>Please wait for the scanner to start the block</p></div>"	77	15000.0	n/a	n/a	n/a	n/a	n/a	n/a	n/a	n/a	n/a	n/a	n/a	n/a	n/a	n/a	n/a	n/a	n/a	n/a	n/a	practice-no-stop-feedback
222550	500.0	n/a	-1	-1	500	0.0	fixation	poldrack-single-stim	102	329861	0.0-9.0-0.0	beast_fmri_test	390	329770,/	t	<div class = centerbox2><div class = fixation>+</div></div>	none	500.0	test	n/a	n/a	n/a	n/a	n/a	n/a	n/a	n/a	n/a	n/a	n/a	n/a	n/a	n/a	n/a	n/a	n/a	n/a	fixation
221601.79542070912	2750.0	n/a	1520	89	2750	953.204579291	stim	stop-signal	103	332616	0.0-9.0-1.0	beast_fmri_test	390	330450,/,331129,/,331810,/,332490,/,333171,/	t,t,t,t,t	<img class = center src='/static/experiments/beast_fmri_test/images/V.png'></img>	71,89	2750.0	test	<img class = center src='/static/experiments/beast_fmri_test/images/redV.png'></img>	go	-1.0	2.0	0.0	go	temp-non-target	V	71,Index Finger	89,Middle Finger	450.0	600.0	2250.0	2150.0	0.0	n/a	n/a	n/a	go_stim
224351.79542070912	953.204579291	n/a	1520	89	2750	953.204579291	stim	stop-signal	103	332616	0.0-9.0-1.0	beast_fmri_test	390	330450,/,331129,/,331810,/,332490,/,333171,/	t,t,t,t,t	<img class = center src='/static/experiments/beast_fmri_test/images/V.png'></img>	71,89	2750.0	test	<img class = center src='/static/experiments/beast_fmri_test/images/redV.png'></img>	go	-1.0	2.0	0.0	go	temp-non-target	V	71,Index Finger	89,Middle Finger	450.0	600.0	2250.0	2150.0	0.0	n/a	n/a	n/a	ITI
226772	500.0	n/a	-1	-1	500	0.0	fixation	poldrack-single-stim	104	334083	0.0-9.1-0.1	beast_fmri_test	390	333852,/	t	<div class = centerbox2><div class = fixation>+</div></div>	none	500.0	test	n/a	n/a	n/a	n/a	n/a	n/a	n/a	n/a	n/a	n/a	n/a	n/a	n/a	n/a	n/a	n/a	n/a	n/a	fixation
226667.56631408038	2750.0	n/a	552	89	2750	107.43368592	stim	stop-signal	105	336836	0.0-9.1-1.1	beast_fmri_test	390	334532,/,335212,/,335892,/,336573,/	t,t,t,t	<img class = center src='/static/experiments/beast_fmri_test/images/V.png'></img>	71,89	2750.0	test	<img class = center src='/static/experiments/beast_fmri_test/images/redV.png'></img>	go	-1.0	2.0	1.0	go	temp-non-target	V	71,Index Finger	89,Middle Finger	450.0	600.0	2250.0	2150.0	0.0	n/a	n/a	n/a	go_stim
229417.56631408038	107.43368592	n/a	552	89	2750	107.43368592	stim	stop-signal	105	336836	0.0-9.1-1.1	beast_fmri_test	390	334532,/,335212,/,335892,/,336573,/	t,t,t,t	<img class = center src='/static/experiments/beast_fmri_test/images/V.png'></img>	71,89	2750.0	test	<img class = center src='/static/experiments/beast_fmri_test/images/redV.png'></img>	go	-1.0	2.0	1.0	go	temp-non-target	V	71,Index Finger	89,Middle Finger	450.0	600.0	2250.0	2150.0	0.0	n/a	n/a	n/a	ITI
230149	500.0	n/a	-1	-1	500	0.0	fixation	poldrack-single-stim	106	337460	0.0-9.2-0.2	beast_fmri_test	390	337253,/	t	<div class = centerbox2><div class = fixation>+</div></div>	none	500.0	test	n/a	n/a	n/a	n/a	n/a	n/a	n/a	n/a	n/a	n/a	n/a	n/a	n/a	n/a	n/a	n/a	n/a	n/a	fixation
229340.87309494446	2750.0	n/a	492	89	2750	813.126905056	stim	stop-signal	107	340215	0.0-9.2-1.2	beast_fmri_test	390	337931,/,338612,/,339293,/,339973,/,340655,/	t,t,t,t,t	<img class = center src='/static/experiments/beast_fmri_test/images/P.png'></img>	71,89	2750.0	test	<img class = center src='/static/experiments/beast_fmri_test/images/redP.png'></img>	go	2150.0	2.0	2.0	go	non-target	P	71,Index Finger	89,Middle Finger	450.0	600.0	2250.0	2150.0	1.0	600.0	n/a	1.0	go_stim
232090.87309494446	813.126905056	n/a	492	89	2750	813.126905056	stim	stop-signal	107	340215	0.0-9.2-1.2	beast_fmri_test	390	337931,/,338612,/,339293,/,339973,/,340655,/	t,t,t,t,t	<img class = center src='/static/experiments/beast_fmri_test/images/P.png'></img>	71,89	2750.0	test	<img class = center src='/static/experiments/beast_fmri_test/images/redP.png'></img>	go	2150.0	2.0	2.0	go	non-target	P	71,Index Finger	89,Middle Finger	450.0	600.0	2250.0	2150.0	1.0	600.0	n/a	1.0	ITI
234235	500.0	n/a	-1	-1	500	0.0	fixation	poldrack-single-stim	108	341546	0.0-9.3-0.3	beast_fmri_test	390	341335,/	t	<div class = centerbox2><div class = fixation>+</div></div>	none	500.0	test	n/a	n/a	n/a	n/a	n/a	n/a	n/a	n/a	n/a	n/a	n/a	n/a	n/a	n/a	n/a	n/a	n/a	n/a	fixation
234065.7361901541	2750.0	n/a	972	71	2750	173.263809846	stim	stop-signal	109	344300	0.0-9.3-1.3	beast_fmri_test	390	342014,/,342696,/,343376,/,344056,/	t,t,t,t	<img class = center src='/static/experiments/beast_fmri_test/images/V.png'></img>	71,89	2750.0	test	<img class = center src='/static/experiments/beast_fmri_test/images/redV.png'></img>	go	2300.0	2.0	3.0	go	target	V	71,Index Finger	89,Middle Finger	450.0	600.0	2300.0	2150.0	1.0	450.0	n/a	1.0	go_stim
236815.7361901541	173.263809846	n/a	972	71	2750	173.263809846	stim	stop-signal	109	344300	0.0-9.3-1.3	beast_fmri_test	390	342014,/,342696,/,343376,/,344056,/	t,t,t,t	<img class = center src='/static/experiments/beast_fmri_test/images/V.png'></img>	71,89	2750.0	test	<img class = center src='/static/experiments/beast_fmri_test/images/redV.png'></img>	go	2300.0	2.0	3.0	go	target	V	71,Index Finger	89,Middle Finger	450.0	600.0	2300.0	2150.0	1.0	450.0	n/a	1.0	ITI
237681	500.0	n/a	-1	-1	500	0.0	fixation	poldrack-single-stim	110	344992	0.0-9.4-0.4	beast_fmri_test	390	344736,/	t	<div class = centerbox2><div class = fixation>+</div></div>	none	500.0	test	n/a	n/a	n/a	n/a	n/a	n/a	n/a	n/a	n/a	n/a	n/a	n/a	n/a	n/a	n/a	n/a	n/a	n/a	fixation
237404.39857080957	2750.0	n/a	1085	89	2750	281.60142919	stim	stop-signal	111	347747	0.0-9.4-1.4	beast_fmri_test	390	345416,/,346096,/,346777,/,347457,/	t,t,t,t	<img class = center src='/static/experiments/beast_fmri_test/images/T.png'></img>	71,89	2750.0	test	<img class = center src='/static/experiments/beast_fmri_test/images/redT.png'></img>	go	2150.0	2.0	4.0	go	non-target	T	71,Index Finger	89,Middle Finger	450.0	600.0	2300.0	2150.0	1.0	600.0	n/a	1.0	go_stim
240154.39857080957	281.60142919	n/a	1085	89	2750	281.60142919	stim	stop-signal	111	347747	0.0-9.4-1.4	beast_fmri_test	390	345416,/,346096,/,346777,/,347457,/	t,t,t,t	<img class = center src='/static/experiments/beast_fmri_test/images/T.png'></img>	71,89	2750.0	test	<img class = center src='/static/experiments/beast_fmri_test/images/redT.png'></img>	go	2150.0	2.0	4.0	go	non-target	T	71,Index Finger	89,Middle Finger	450.0	600.0	2300.0	2150.0	1.0	600.0	n/a	1.0	ITI
241232	500.0	n/a	-1	-1	500	0.0	fixation	poldrack-single-stim	112	348543	0.0-9.5-0.5	beast_fmri_test	390	348137,/	t	<div class = centerbox2><div class = fixation>+</div></div>	none	500.0	test	n/a	n/a	n/a	n/a	n/a	n/a	n/a	n/a	n/a	n/a	n/a	n/a	n/a	n/a	n/a	n/a	n/a	n/a	fixation
240189.70367373666	600.0	n/a	-1	-1	2750	1046.29632626	stim	stop-signal	113	351297	0.0-9.5-1.5	beast_fmri_test	390	348819,/,349499,/,350179,/,350859,/,351539,/,352219,/	t,t,t,t,t,t	<img class = center src='/static/experiments/beast_fmri_test/images/T.png'></img>	71,89	2750.0	test	<img class = center src='/static/experiments/beast_fmri_test/images/redT.png'></img>	stop	2150.0	2.0	5.0	stop	non-target	T	71,Index Finger	89,Middle Finger	450.0	600.0	2300.0	2150.0	0.0	600.0	1.0	n/a	go_stim
242339.70367373666	2150.0	n/a	-1	-1	2750	1046.29632626	stim	stop-signal	113	351297	0.0-9.5-1.5	beast_fmri_test	390	348819,/,349499,/,350179,/,350859,/,351539,/,352219,/	t,t,t,t,t,t	<img class = center src='/static/experiments/beast_fmri_test/images/T.png'></img>	71,89	2750.0	test	<img class = center src='/static/experiments/beast_fmri_test/images/redT.png'></img>	stop	2150.0	2.0	5.0	stop	non-target	T	71,Index Finger	89,Middle Finger	450.0	600.0	2300.0	2150.0	0.0	600.0	1.0	n/a	stop_stim
242939.70367373666	1046.29632626	n/a	-1	-1	2750	1046.29632626	stim	stop-signal	113	351297	0.0-9.5-1.5	beast_fmri_test	390	348819,/,349499,/,350179,/,350859,/,351539,/,352219,/	t,t,t,t,t,t	<img class = center src='/static/experiments/beast_fmri_test/images/T.png'></img>	71,89	2750.0	test	<img class = center src='/static/experiments/beast_fmri_test/images/redT.png'></img>	stop	2150.0	2.0	5.0	stop	non-target	T	71,Index Finger	89,Middle Finger	450.0	600.0	2300.0	2150.0	0.0	600.0	1.0	n/a	ITI
245553	500.0	n/a	-1	-1	500	0.0	fixation	poldrack-single-stim	114	352864	0.0-9.6-0.6	beast_fmri_test	390	n/a	n/a	<div class = centerbox2><div class = fixation>+</div></div>	none	500.0	test	n/a	n/a	n/a	n/a	n/a	n/a	n/a	n/a	n/a	n/a	n/a	n/a	n/a	n/a	n/a	n/a	n/a	n/a	fixation
245340.95150392409	2750.0	n/a	1352	89	2750	216.048496076	stim	stop-signal	115	355618	0.0-9.6-1.6	beast_fmri_test	390	352900,/,353580,/,354260,/,354940,/,355620,/	t,t,t,t,t	<img class = center src='/static/experiments/beast_fmri_test/images/V.png'></img>	71,89	2750.0	test	<img class = center src='/static/experiments/beast_fmri_test/images/redV.png'></img>	go	2100.0	2.0	6.0	go	non-target	V	71,Index Finger	89,Middle Finger	450.0	650.0	2300.0	2100.0	1.0	650.0	n/a	1.0	go_stim
248090.95150392409	216.048496076	n/a	1352	89	2750	216.048496076	stim	stop-signal	115	355618	0.0-9.6-1.6	beast_fmri_test	390	352900,/,353580,/,354260,/,354940,/,355620,/	t,t,t,t,t	<img class = center src='/static/experiments/beast_fmri_test/images/V.png'></img>	71,89	2750.0	test	<img class = center src='/static/experiments/beast_fmri_test/images/redV.png'></img>	go	2100.0	2.0	6.0	go	non-target	V	71,Index Finger	89,Middle Finger	450.0	650.0	2300.0	2100.0	1.0	650.0	n/a	1.0	ITI
249042	500.0	n/a	-1	-1	500	0.0	fixation	poldrack-single-stim	116	356353	0.0-9.7-0.7	beast_fmri_test	390	356301,/	t	<div class = centerbox2><div class = fixation>+</div></div>	none	500.0	test	n/a	n/a	n/a	n/a	n/a	n/a	n/a	n/a	n/a	n/a	n/a	n/a	n/a	n/a	n/a	n/a	n/a	n/a	fixation
248169.26377496717	650.0	n/a	-1	-1	2750	876.736225033	stim	stop-signal	117	359107	0.0-9.7-1.7	beast_fmri_test	390	356982,/,357662,/,358342,/,359022,/,359702,/	t,t,t,t,t	<img class = center src='/static/experiments/beast_fmri_test/images/V.png'></img>	71,89	2750.0	test	<img class = center src='/static/experiments/beast_fmri_test/images/redV.png'></img>	stop	2100.0	2.0	7.0	stop	non-target	V	71,Index Finger	89,Middle Finger	450.0	650.0	2300.0	2100.0	0.0	650.0	1.0	n/a	go_stim
250269.26377496717	2100.0	n/a	-1	-1	2750	876.736225033	stim	stop-signal	117	359107	0.0-9.7-1.7	beast_fmri_test	390	356982,/,357662,/,358342,/,359022,/,359702,/	t,t,t,t,t	<img class = center src='/static/experiments/beast_fmri_test/images/V.png'></img>	71,89	2750.0	test	<img class = center src='/static/experiments/beast_fmri_test/images/redV.png'></img>	stop	2100.0	2.0	7.0	stop	non-target	V	71,Index Finger	89,Middle Finger	450.0	650.0	2300.0	2100.0	0.0	650.0	1.0	n/a	stop_stim
250919.26377496717	876.736225033	n/a	-1	-1	2750	876.736225033	stim	stop-signal	117	359107	0.0-9.7-1.7	beast_fmri_test	390	356982,/,357662,/,358342,/,359022,/,359702,/	t,t,t,t,t	<img class = center src='/static/experiments/beast_fmri_test/images/V.png'></img>	71,89	2750.0	test	<img class = center src='/static/experiments/beast_fmri_test/images/redV.png'></img>	stop	2100.0	2.0	7.0	stop	non-target	V	71,Index Finger	89,Middle Finger	450.0	650.0	2300.0	2100.0	0.0	650.0	1.0	n/a	ITI
253192	500.0	n/a	-1	-1	500	0.0	fixation	poldrack-single-stim	118	360503	0.0-9.8-0.8	beast_fmri_test	390	360383,/	t	<div class = centerbox2><div class = fixation>+</div></div>	none	500.0	test	n/a	n/a	n/a	n/a	n/a	n/a	n/a	n/a	n/a	n/a	n/a	n/a	n/a	n/a	n/a	n/a	n/a	n/a	fixation
252274.72050293768	2750.0	n/a	1501	89	2750	921.279497062	stim	stop-signal	119	363257	0.0-9.8-1.8	beast_fmri_test	390	361062,/,361744,/,362424,/,363104,/,363784,/	t,t,t,t,t	<img class = center src='/static/experiments/beast_fmri_test/images/B.png'></img>	71,89	2750.0	test	<img class = center src='/static/experiments/beast_fmri_test/images/redB.png'></img>	go	2050.0	2.0	8.0	go	non-target	B	71,Index Finger	89,Middle Finger	450.0	700.0	2300.0	2050.0	1.0	700.0	n/a	1.0	go_stim
255024.72050293768	921.279497062	n/a	1501	89	2750	921.279497062	stim	stop-signal	119	363257	0.0-9.8-1.8	beast_fmri_test	390	361062,/,361744,/,362424,/,363104,/,363784,/	t,t,t,t,t	<img class = center src='/static/experiments/beast_fmri_test/images/B.png'></img>	71,89	2750.0	test	<img class = center src='/static/experiments/beast_fmri_test/images/redB.png'></img>	go	2050.0	2.0	8.0	go	non-target	B	71,Index Finger	89,Middle Finger	450.0	700.0	2300.0	2050.0	1.0	700.0	n/a	1.0	ITI
257388	500.0	n/a	-1	-1	500	0.0	fixation	poldrack-single-stim	120	364699	0.0-9.9-0.9	beast_fmri_test	390	364464,/	t	<div class = centerbox2><div class = fixation>+</div></div>	none	500.0	test	n/a	n/a	n/a	n/a	n/a	n/a	n/a	n/a	n/a	n/a	n/a	n/a	n/a	n/a	n/a	n/a	n/a	n/a	fixation
257295.48065032583	2750.0	n/a	414	71	2750	95.5193496742	stim	stop-signal	121	367452	0.0-9.9-1.9	beast_fmri_test	390	365145,/,365825,/,366505,/,367186,/	t,t,t,t	<img class = center src='/static/experiments/beast_fmri_test/images/V.png'></img>	71,89	2750.0	test	<img class = center src='/static/experiments/beast_fmri_test/images/redV.png'></img>	go	2300.0	2.0	9.0	go	target	V	71,Index Finger	89,Middle Finger	450.0	700.0	2300.0	2050.0	1.0	450.0	n/a	1.0	go_stim
260045.48065032583	95.5193496742	n/a	414	71	2750	95.5193496742	stim	stop-signal	121	367452	0.0-9.9-1.9	beast_fmri_test	390	365145,/,365825,/,366505,/,367186,/	t,t,t,t	<img class = center src='/static/experiments/beast_fmri_test/images/V.png'></img>	71,89	2750.0	test	<img class = center src='/static/experiments/beast_fmri_test/images/redV.png'></img>	go	2300.0	2.0	9.0	go	target	V	71,Index Finger	89,Middle Finger	450.0	700.0	2300.0	2050.0	1.0	450.0	n/a	1.0	ITI
260756	500.0	n/a	-1	-1	500	0.0	fixation	poldrack-single-stim	122	368067	0.0-9.10-0.10	beast_fmri_test	390	367866,/	t	<div class = centerbox2><div class = fixation>+</div></div>	none	500.0	test	n/a	n/a	n/a	n/a	n/a	n/a	n/a	n/a	n/a	n/a	n/a	n/a	n/a	n/a	n/a	n/a	n/a	n/a	fixation
259823.62409950094	2750.0	n/a	735	89	2750	936.375900499	stim	stop-signal	123	370821	0.0-9.10-1.10	beast_fmri_test	390	368546,/,369227,/,369908,/,370588,/,371269,/	t,t,t,t,t	<img class = center src='/static/experiments/beast_fmri_test/images/B.png'></img>	71,89	2750.0	test	<img class = center src='/static/experiments/beast_fmri_test/images/redB.png'></img>	go	2300.0	2.0	10.0	go	target	B	71,Index Finger	89,Middle Finger	450.0	700.0	2300.0	2050.0	0.0	450.0	n/a	0.0	go_stim
262573.62409950094	936.375900499	n/a	735	89	2750	936.375900499	stim	stop-signal	123	370821	0.0-9.10-1.10	beast_fmri_test	390	368546,/,369227,/,369908,/,370588,/,371269,/	t,t,t,t,t	<img class = center src='/static/experiments/beast_fmri_test/images/B.png'></img>	71,89	2750.0	test	<img class = center src='/static/experiments/beast_fmri_test/images/redB.png'></img>	go	2300.0	2.0	10.0	go	target	B	71,Index Finger	89,Middle Finger	450.0	700.0	2300.0	2050.0	0.0	450.0	n/a	0.0	ITI
264965	500.0	n/a	-1	-1	500	0.0	fixation	poldrack-single-stim	124	372276	0.0-9.11-0.11	beast_fmri_test	390	371949,/	t	<div class = centerbox2><div class = fixation>+</div></div>	none	500.0	test	n/a	n/a	n/a	n/a	n/a	n/a	n/a	n/a	n/a	n/a	n/a	n/a	n/a	n/a	n/a	n/a	n/a	n/a	fixation
264608.99369506194	700.0	n/a	-1	-1	2750	360.006304938	stim	stop-signal	125	375030	0.0-9.11-1.11	beast_fmri_test	390	372628,/,373309,/,373989,/,374670,/,375350,/	t,t,t,t,t	<img class = center src='/static/experiments/beast_fmri_test/images/T.png'></img>	71,89	2750.0	test	<img class = center src='/static/experiments/beast_fmri_test/images/redT.png'></img>	stop	2050.0	2.0	11.0	stop	non-target	T	71,Index Finger	89,Middle Finger	450.0	700.0	2300.0	2050.0	0.0	700.0	1.0	n/a	go_stim
266658.99369506194	2050.0	n/a	-1	-1	2750	360.006304938	stim	stop-signal	125	375030	0.0-9.11-1.11	beast_fmri_test	390	372628,/,373309,/,373989,/,374670,/,375350,/	t,t,t,t,t	<img class = center src='/static/experiments/beast_fmri_test/images/T.png'></img>	71,89	2750.0	test	<img class = center src='/static/experiments/beast_fmri_test/images/redT.png'></img>	stop	2050.0	2.0	11.0	stop	non-target	T	71,Index Finger	89,Middle Finger	450.0	700.0	2300.0	2050.0	0.0	700.0	1.0	n/a	stop_stim
267358.99369506194	360.006304938	n/a	-1	-1	2750	360.006304938	stim	stop-signal	125	375030	0.0-9.11-1.11	beast_fmri_test	390	372628,/,373309,/,373989,/,374670,/,375350,/	t,t,t,t,t	<img class = center src='/static/experiments/beast_fmri_test/images/T.png'></img>	71,89	2750.0	test	<img class = center src='/static/experiments/beast_fmri_test/images/redT.png'></img>	stop	2050.0	2.0	11.0	stop	non-target	T	71,Index Finger	89,Middle Finger	450.0	700.0	2300.0	2050.0	0.0	700.0	1.0	n/a	ITI
268600	500.0	n/a	-1	-1	500	0.0	fixation	poldrack-single-stim	126	375911	0.0-9.12-0.12	beast_fmri_test	390	n/a	n/a	<div class = centerbox2><div class = fixation>+</div></div>	none	500.0	test	n/a	n/a	n/a	n/a	n/a	n/a	n/a	n/a	n/a	n/a	n/a	n/a	n/a	n/a	n/a	n/a	n/a	n/a	fixation
268383.2781455185	2750.0	n/a	1172	89	2750	221.721854481	stim	stop-signal	127	378666	0.0-9.12-1.12	beast_fmri_test	390	376031,/,376711,/,377390,/,378071,/,378751,/	t,t,t,t,t	<img class = center src='/static/experiments/beast_fmri_test/images/D.png'></img>	71,89	2750.0	test	<img class = center src='/static/experiments/beast_fmri_test/images/redD.png'></img>	go	2000.0	2.0	12.0	go	non-target	D	71,Index Finger	89,Middle Finger	450.0	750.0	2300.0	2000.0	1.0	750.0	n/a	1.0	go_stim
271133.2781455185	221.721854481	n/a	1172	89	2750	221.721854481	stim	stop-signal	127	378666	0.0-9.12-1.12	beast_fmri_test	390	376031,/,376711,/,377390,/,378071,/,378751,/	t,t,t,t,t	<img class = center src='/static/experiments/beast_fmri_test/images/D.png'></img>	71,89	2750.0	test	<img class = center src='/static/experiments/beast_fmri_test/images/redD.png'></img>	go	2000.0	2.0	12.0	go	non-target	D	71,Index Finger	89,Middle Finger	450.0	750.0	2300.0	2000.0	1.0	750.0	n/a	1.0	ITI
272095	500.0	n/a	-1	-1	500	0.0	fixation	poldrack-single-stim	128	379406	0.0-9.13-0.13	beast_fmri_test	390	n/a	n/a	<div class = centerbox2><div class = fixation>+</div></div>	none	500.0	test	n/a	n/a	n/a	n/a	n/a	n/a	n/a	n/a	n/a	n/a	n/a	n/a	n/a	n/a	n/a	n/a	n/a	n/a	fixation
270950.97478413454	750.0	n/a	1133	89	2750	1147.02521587	stim	stop-signal	129	382159	0.0-9.13-1.13	beast_fmri_test	390	379436,/,380112,/,380793,/,381472,/,382153,/,382833,/	t,t,t,t,t,t	<img class = center src='/static/experiments/beast_fmri_test/images/D.png'></img>	71,89	2750.0	test	<img class = center src='/static/experiments/beast_fmri_test/images/redD.png'></img>	stop	2000.0	2.0	13.0	stop	non-target	D	71,Index Finger	89,Middle Finger	450.0	750.0	2300.0	2000.0	0.0	750.0	0.0	n/a	go_stim
272950.97478413454	2000.0	n/a	1133	89	2750	1147.02521587	stim	stop-signal	129	382159	0.0-9.13-1.13	beast_fmri_test	390	379436,/,380112,/,380793,/,381472,/,382153,/,382833,/	t,t,t,t,t,t	<img class = center src='/static/experiments/beast_fmri_test/images/D.png'></img>	71,89	2750.0	test	<img class = center src='/static/experiments/beast_fmri_test/images/redD.png'></img>	stop	2000.0	2.0	13.0	stop	non-target	D	71,Index Finger	89,Middle Finger	450.0	750.0	2300.0	2000.0	0.0	750.0	0.0	n/a	stop_stim
273700.97478413454	1147.02521587	n/a	1133	89	2750	1147.02521587	stim	stop-signal	129	382159	0.0-9.13-1.13	beast_fmri_test	390	379436,/,380112,/,380793,/,381472,/,382153,/,382833,/	t,t,t,t,t,t	<img class = center src='/static/experiments/beast_fmri_test/images/D.png'></img>	71,89	2750.0	test	<img class = center src='/static/experiments/beast_fmri_test/images/redD.png'></img>	stop	2000.0	2.0	13.0	stop	non-target	D	71,Index Finger	89,Middle Finger	450.0	750.0	2300.0	2000.0	0.0	750.0	0.0	n/a	ITI
276517	500.0	n/a	-1	-1	500	0.0	fixation	poldrack-single-stim	130	383828	0.0-9.14-0.14	beast_fmri_test	390	383513,/	t	<div class = centerbox2><div class = fixation>+</div></div>	none	500.0	test	n/a	n/a	n/a	n/a	n/a	n/a	n/a	n/a	n/a	n/a	n/a	n/a	n/a	n/a	n/a	n/a	n/a	n/a	fixation
275759.69723161758	700.0	n/a	1535	89	2750	761.302768382	stim	stop-signal	131	386582	0.0-9.14-1.14	beast_fmri_test	390	384193,/,384874,/,385553,/,386234,/,386915,/	t,t,t,t,t	<img class = center src='/static/experiments/beast_fmri_test/images/T.png'></img>	71,89	2750.0	test	<img class = center src='/static/experiments/beast_fmri_test/images/redT.png'></img>	stop	2050.0	2.0	14.0	stop	non-target	T	71,Index Finger	89,Middle Finger	450.0	700.0	2300.0	2050.0	0.0	700.0	0.0	n/a	go_stim
277809.69723161758	2050.0	n/a	1535	89	2750	761.302768382	stim	stop-signal	131	386582	0.0-9.14-1.14	beast_fmri_test	390	384193,/,384874,/,385553,/,386234,/,386915,/	t,t,t,t,t	<img class = center src='/static/experiments/beast_fmri_test/images/T.png'></img>	71,89	2750.0	test	<img class = center src='/static/experiments/beast_fmri_test/images/redT.png'></img>	stop	2050.0	2.0	14.0	stop	non-target	T	71,Index Finger	89,Middle Finger	450.0	700.0	2300.0	2050.0	0.0	700.0	0.0	n/a	stop_stim
278509.69723161758	761.302768382	n/a	1535	89	2750	761.302768382	stim	stop-signal	131	386582	0.0-9.14-1.14	beast_fmri_test	390	384193,/,384874,/,385553,/,386234,/,386915,/	t,t,t,t,t	<img class = center src='/static/experiments/beast_fmri_test/images/T.png'></img>	71,89	2750.0	test	<img class = center src='/static/experiments/beast_fmri_test/images/redT.png'></img>	stop	2050.0	2.0	14.0	stop	non-target	T	71,Index Finger	89,Middle Finger	450.0	700.0	2300.0	2050.0	0.0	700.0	0.0	n/a	ITI
280554	500.0	n/a	-1	-1	500	0.0	fixation	poldrack-single-stim	132	387865	0.0-9.15-0.15	beast_fmri_test	390	387595,/	t	<div class = centerbox2><div class = fixation>+</div></div>	none	500.0	test	n/a	n/a	n/a	n/a	n/a	n/a	n/a	n/a	n/a	n/a	n/a	n/a	n/a	n/a	n/a	n/a	n/a	n/a	fixation
279185.62449425459	2750.0	n/a	1495	71	2750	1371.37550575	stim	stop-signal	133	390618	0.0-9.15-1.15	beast_fmri_test	390	388275,/,388956,/,389636,/,390316,/,390996,/,391677,/	t,t,t,t,t,t	<img class = center src='/static/experiments/beast_fmri_test/images/D.png'></img>	71,89	2750.0	test	<img class = center src='/static/experiments/beast_fmri_test/images/redD.png'></img>	go	2300.0	2.0	15.0	go	target	D	71,Index Finger	89,Middle Finger	450.0	650.0	2300.0	2050.0	1.0	450.0	n/a	1.0	go_stim
281935.62449425459	1371.37550575	n/a	1495	71	2750	1371.37550575	stim	stop-signal	133	390618	0.0-9.15-1.15	beast_fmri_test	390	388275,/,388956,/,389636,/,390316,/,390996,/,391677,/	t,t,t,t,t,t	<img class = center src='/static/experiments/beast_fmri_test/images/D.png'></img>	71,89	2750.0	test	<img class = center src='/static/experiments/beast_fmri_test/images/redD.png'></img>	go	2300.0	2.0	15.0	go	target	D	71,Index Finger	89,Middle Finger	450.0	650.0	2300.0	2050.0	1.0	450.0	n/a	1.0	ITI
285199	500.0	n/a	-1	-1	500	0.0	fixation	poldrack-single-stim	134	392510	0.0-9.16-0.16	beast_fmri_test	390	392357,/	t	<div class = centerbox2><div class = fixation>+</div></div>	none	500.0	test	n/a	n/a	n/a	n/a	n/a	n/a	n/a	n/a	n/a	n/a	n/a	n/a	n/a	n/a	n/a	n/a	n/a	n/a	fixation
284814.66677946685	650.0	n/a	-1	-1	2750	388.333220533	stim	stop-signal	135	395264	0.0-9.16-1.16	beast_fmri_test	390	393037,/,393719,/,394397,/,395078,/	t,t,t,t	<img class = center src='/static/experiments/beast_fmri_test/images/D.png'></img>	71,89	2750.0	test	<img class = center src='/static/experiments/beast_fmri_test/images/redD.png'></img>	stop	2100.0	2.0	16.0	stop	non-target	D	71,Index Finger	89,Middle Finger	450.0	650.0	2300.0	2100.0	0.0	650.0	1.0	n/a	go_stim
286914.66677946685	2100.0	n/a	-1	-1	2750	388.333220533	stim	stop-signal	135	395264	0.0-9.16-1.16	beast_fmri_test	390	393037,/,393719,/,394397,/,395078,/	t,t,t,t	<img class = center src='/static/experiments/beast_fmri_test/images/D.png'></img>	71,89	2750.0	test	<img class = center src='/static/experiments/beast_fmri_test/images/redD.png'></img>	stop	2100.0	2.0	16.0	stop	non-target	D	71,Index Finger	89,Middle Finger	450.0	650.0	2300.0	2100.0	0.0	650.0	1.0	n/a	stop_stim
287564.66677946685	388.333220533	n/a	-1	-1	2750	388.333220533	stim	stop-signal	135	395264	0.0-9.16-1.16	beast_fmri_test	390	393037,/,393719,/,394397,/,395078,/	t,t,t,t	<img class = center src='/static/experiments/beast_fmri_test/images/D.png'></img>	71,89	2750.0	test	<img class = center src='/static/experiments/beast_fmri_test/images/redD.png'></img>	stop	2100.0	2.0	16.0	stop	non-target	D	71,Index Finger	89,Middle Finger	450.0	650.0	2300.0	2100.0	0.0	650.0	1.0	n/a	ITI
288864	500.0	n/a	-1	-1	500	0.0	fixation	poldrack-single-stim	136	396175	0.0-9.17-0.17	beast_fmri_test	390	395759,/	t	<div class = centerbox2><div class = fixation>+</div></div>	none	500.0	test	n/a	n/a	n/a	n/a	n/a	n/a	n/a	n/a	n/a	n/a	n/a	n/a	n/a	n/a	n/a	n/a	n/a	n/a	fixation
288012.23217568861	2750.0	n/a	1099	89	2750	855.767824311	stim	stop-signal	137	398929	0.0-9.17-1.17	beast_fmri_test	390	396438,/,397119,/,397800,/,398480,/,399161,/	t,t,t,t,t	<img class = center src='/static/experiments/beast_fmri_test/images/V.png'></img>	71,89	2750.0	test	<img class = center src='/static/experiments/beast_fmri_test/images/redV.png'></img>	go	2050.0	2.0	17.0	go	non-target	V	71,Index Finger	89,Middle Finger	450.0	700.0	2300.0	2050.0	1.0	700.0	n/a	1.0	go_stim
290762.23217568861	855.767824311	n/a	1099	89	2750	855.767824311	stim	stop-signal	137	398929	0.0-9.17-1.17	beast_fmri_test	390	396438,/,397119,/,397800,/,398480,/,399161,/	t,t,t,t,t	<img class = center src='/static/experiments/beast_fmri_test/images/V.png'></img>	71,89	2750.0	test	<img class = center src='/static/experiments/beast_fmri_test/images/redV.png'></img>	go	2050.0	2.0	17.0	go	non-target	V	71,Index Finger	89,Middle Finger	450.0	700.0	2300.0	2050.0	1.0	700.0	n/a	1.0	ITI
292994	500.0	n/a	-1	-1	500	0.0	fixation	poldrack-single-stim	138	400305	0.0-9.18-0.18	beast_fmri_test	390	399841,/	t	<div class = centerbox2><div class = fixation>+</div></div>	none	500.0	test	n/a	n/a	n/a	n/a	n/a	n/a	n/a	n/a	n/a	n/a	n/a	n/a	n/a	n/a	n/a	n/a	n/a	n/a	fixation
292862.61601756176	2750.0	n/a	1837	89	2750	135.383982438	stim	stop-signal	139	403059	0.0-9.18-1.18	beast_fmri_test	390	400520,/,401201,/,401882,/,402562,/	t,t,t,t	<img class = center src='/static/experiments/beast_fmri_test/images/D.png'></img>	71,89	2750.0	test	<img class = center src='/static/experiments/beast_fmri_test/images/redD.png'></img>	go	2300.0	2.0	18.0	go	target	D	71,Index Finger	89,Middle Finger	450.0	700.0	2300.0	2050.0	0.0	450.0	n/a	0.0	go_stim
295612.61601756176	135.383982438	n/a	1837	89	2750	135.383982438	stim	stop-signal	139	403059	0.0-9.18-1.18	beast_fmri_test	390	400520,/,401201,/,401882,/,402562,/	t,t,t,t	<img class = center src='/static/experiments/beast_fmri_test/images/D.png'></img>	71,89	2750.0	test	<img class = center src='/static/experiments/beast_fmri_test/images/redD.png'></img>	go	2300.0	2.0	18.0	go	target	D	71,Index Finger	89,Middle Finger	450.0	700.0	2300.0	2050.0	0.0	450.0	n/a	0.0	ITI
296403	500.0	n/a	-1	-1	500	0.0	fixation	poldrack-single-stim	140	403714	0.0-9.19-0.19	beast_fmri_test	390	403241,/	t	<div class = centerbox2><div class = fixation>+</div></div>	none	500.0	test	n/a	n/a	n/a	n/a	n/a	n/a	n/a	n/a	n/a	n/a	n/a	n/a	n/a	n/a	n/a	n/a	n/a	n/a	fixation
296334.89348334569	450.0	n/a	-1	-1	2750	73.1065166543	stim	stop-signal	141	406469	0.0-9.19-1.19	beast_fmri_test	390	403923,/,404603,/,405283,/,405964,/	t,t,t,t	<img class = center src='/static/experiments/beast_fmri_test/images/V.png'></img>	71,89	2750.0	test	<img class = center src='/static/experiments/beast_fmri_test/images/redV.png'></img>	stop	2300.0	2.0	19.0	stop	target	V	71,Index Finger	89,Middle Finger	450.0	700.0	2300.0	2050.0	0.0	450.0	1.0	n/a	go_stim
298634.89348334569	2300.0	n/a	-1	-1	2750	73.1065166543	stim	stop-signal	141	406469	0.0-9.19-1.19	beast_fmri_test	390	403923,/,404603,/,405283,/,405964,/	t,t,t,t	<img class = center src='/static/experiments/beast_fmri_test/images/V.png'></img>	71,89	2750.0	test	<img class = center src='/static/experiments/beast_fmri_test/images/redV.png'></img>	stop	2300.0	2.0	19.0	stop	target	V	71,Index Finger	89,Middle Finger	450.0	700.0	2300.0	2050.0	0.0	450.0	1.0	n/a	stop_stim
299084.89348334569	73.1065166543	n/a	-1	-1	2750	73.1065166543	stim	stop-signal	141	406469	0.0-9.19-1.19	beast_fmri_test	390	403923,/,404603,/,405283,/,405964,/	t,t,t,t	<img class = center src='/static/experiments/beast_fmri_test/images/V.png'></img>	71,89	2750.0	test	<img class = center src='/static/experiments/beast_fmri_test/images/redV.png'></img>	stop	2300.0	2.0	19.0	stop	target	V	71,Index Finger	89,Middle Finger	450.0	700.0	2300.0	2050.0	0.0	450.0	1.0	n/a	ITI
299753	500.0	n/a	-1	-1	500	0.0	fixation	poldrack-single-stim	142	407064	0.0-9.20-0.20	beast_fmri_test	390	406643,/	t	<div class = centerbox2><div class = fixation>+</div></div>	none	500.0	test	n/a	n/a	n/a	n/a	n/a	n/a	n/a	n/a	n/a	n/a	n/a	n/a	n/a	n/a	n/a	n/a	n/a	n/a	fixation
295794.03503494326	2750.0	n/a	765	89	2750	3961.96496506	stim	stop-signal	143	409817	0.0-9.20-1.20	beast_fmri_test	390	407324,/,408004,/,408685,/,409365,/,410044,/,410725,/,411405,/,412086,/,412766,/,413445,/	t,t,t,t,t,t,t,t,t,t	<img class = center src='/static/experiments/beast_fmri_test/images/T.png'></img>	71,89	2750.0	test	<img class = center src='/static/experiments/beast_fmri_test/images/redT.png'></img>	go	2050.0	2.0	20.0	go	non-target	T	71,Index Finger	89,Middle Finger	500.0	700.0	2300.0	2050.0	1.0	700.0	n/a	1.0	go_stim
298544.03503494326	3961.96496506	n/a	765	89	2750	3961.96496506	stim	stop-signal	143	409817	0.0-9.20-1.20	beast_fmri_test	390	407324,/,408004,/,408685,/,409365,/,410044,/,410725,/,411405,/,412086,/,412766,/,413445,/	t,t,t,t,t,t,t,t,t,t	<img class = center src='/static/experiments/beast_fmri_test/images/T.png'></img>	71,89	2750.0	test	<img class = center src='/static/experiments/beast_fmri_test/images/redT.png'></img>	go	2050.0	2.0	20.0	go	non-target	T	71,Index Finger	89,Middle Finger	500.0	700.0	2300.0	2050.0	1.0	700.0	n/a	1.0	ITI
306990	500.0	n/a	-1	-1	500	0.0	fixation	poldrack-single-stim	144	414301	0.0-9.21-0.21	beast_fmri_test	390	414127,/	t	<div class = centerbox2><div class = fixation>+</div></div>	none	500.0	test	n/a	n/a	n/a	n/a	n/a	n/a	n/a	n/a	n/a	n/a	n/a	n/a	n/a	n/a	n/a	n/a	n/a	n/a	fixation
306845.10819922044	2750.0	n/a	649	89	2750	148.89180078	stim	stop-signal	145	417055	0.0-9.21-1.21	beast_fmri_test	390	414807,/,415487,/,416167,/,416849,/	t,t,t,t	<img class = center src='/static/experiments/beast_fmri_test/images/B.png'></img>	71,89	2750.0	test	<img class = center src='/static/experiments/beast_fmri_test/images/redB.png'></img>	go	2050.0	2.0	21.0	go	non-target	B	71,Index Finger	89,Middle Finger	500.0	700.0	2300.0	2050.0	1.0	700.0	n/a	1.0	go_stim
309595.10819922044	148.89180078	n/a	649	89	2750	148.89180078	stim	stop-signal	145	417055	0.0-9.21-1.21	beast_fmri_test	390	414807,/,415487,/,416167,/,416849,/	t,t,t,t	<img class = center src='/static/experiments/beast_fmri_test/images/B.png'></img>	71,89	2750.0	test	<img class = center src='/static/experiments/beast_fmri_test/images/redB.png'></img>	go	2050.0	2.0	21.0	go	non-target	B	71,Index Finger	89,Middle Finger	500.0	700.0	2300.0	2050.0	1.0	700.0	n/a	1.0	ITI
310413	500.0	n/a	-1	-1	500	0.0	fixation	poldrack-single-stim	146	417724	0.0-9.22-0.22	beast_fmri_test	390	417528,/	t	<div class = centerbox2><div class = fixation>+</div></div>	none	500.0	test	n/a	n/a	n/a	n/a	n/a	n/a	n/a	n/a	n/a	n/a	n/a	n/a	n/a	n/a	n/a	n/a	n/a	n/a	fixation
308649.1656366341	2750.0	n/a	897	89	2750	1767.83436337	stim	stop-signal	147	420478	0.0-9.22-1.22	beast_fmri_test	390	418209,/,418889,/,419568,/,420249,/,420929,/,421610,/	t,t,t,t,t,t	<img class = center src='/static/experiments/beast_fmri_test/images/P.png'></img>	71,89	2750.0	test	<img class = center src='/static/experiments/beast_fmri_test/images/redP.png'></img>	go	2050.0	2.0	22.0	go	non-target	P	71,Index Finger	89,Middle Finger	500.0	700.0	2300.0	2050.0	1.0	700.0	n/a	1.0	go_stim
311399.1656366341	1767.83436337	n/a	897	89	2750	1767.83436337	stim	stop-signal	147	420478	0.0-9.22-1.22	beast_fmri_test	390	418209,/,418889,/,419568,/,420249,/,420929,/,421610,/	t,t,t,t,t,t	<img class = center src='/static/experiments/beast_fmri_test/images/P.png'></img>	71,89	2750.0	test	<img class = center src='/static/experiments/beast_fmri_test/images/redP.png'></img>	go	2050.0	2.0	22.0	go	non-target	P	71,Index Finger	89,Middle Finger	500.0	700.0	2300.0	2050.0	1.0	700.0	n/a	1.0	ITI
315457	500.0	n/a	-1	-1	500	0.0	fixation	poldrack-single-stim	148	422768	0.0-9.23-0.23	beast_fmri_test	390	422289,/	t	<div class = centerbox2><div class = fixation>+</div></div>	none	500.0	test	n/a	n/a	n/a	n/a	n/a	n/a	n/a	n/a	n/a	n/a	n/a	n/a	n/a	n/a	n/a	n/a	n/a	n/a	fixation
315250.37245393533	2750.0	n/a	1165	89	2750	210.627546065	stim	stop-signal	149	425522	0.0-9.23-1.23	beast_fmri_test	390	422971,/,423652,/,424331,/,425011,/,425692,/	t,t,t,t,t	<img class = center src='/static/experiments/beast_fmri_test/images/T.png'></img>	71,89	2750.0	test	<img class = center src='/static/experiments/beast_fmri_test/images/redT.png'></img>	go	2050.0	2.0	23.0	go	non-target	T	71,Index Finger	89,Middle Finger	500.0	700.0	2300.0	2050.0	1.0	700.0	n/a	1.0	go_stim
318000.37245393533	210.627546065	n/a	1165	89	2750	210.627546065	stim	stop-signal	149	425522	0.0-9.23-1.23	beast_fmri_test	390	422971,/,423652,/,424331,/,425011,/,425692,/	t,t,t,t,t	<img class = center src='/static/experiments/beast_fmri_test/images/T.png'></img>	71,89	2750.0	test	<img class = center src='/static/experiments/beast_fmri_test/images/redT.png'></img>	go	2050.0	2.0	23.0	go	non-target	T	71,Index Finger	89,Middle Finger	500.0	700.0	2300.0	2050.0	1.0	700.0	n/a	1.0	ITI
