onset	duration	text	rt	key_press	block_duration	timing_post_trial	trial_id	trial_type	trial_index	time_elapsed	internal_node_id	exp_id	subject_id	trigger_times	triggers	stimulus	possible_responses	stim_duration	exp_stage	SS_stimulus	SS_trial_type	SS_duration	load	trial_num	stop_trial_type	adaptive_trial_type	stim	yes_response_key	no_response_key	SSD_target	SSD_non_target	SSTarget	SSNonTarget	go_acc	SS_delay	stop_acc	adaptive_acc	new_trial_type
test	10880	n/a	-1	-1	10880	0.0	practice-no-stop-feedback	poldrack-single-stim	392	1275647	0.0-18.0	beast_fmri_test	390	1264762,/,1265441,/,1266121,/,1266801,/,1267482,/,1268163,/,1268842,/,1269523,/,1270203,/,1270882,/,1271563,/,1272244,/,1272925,/,1273604,/,1274285,/,1274966,/,1275645,/	t,t,t,t,t,t,t,t,t,t,t,t,t,t,t,t,t	"<div class = ""centerbox2_2""><p class = ""block-text2"">Your delay is 2 trials.</p><p class = block-text2>Please wait for the scanner to start the block</p></div>"	77	10880.0	n/a	n/a	n/a	n/a	n/a	n/a	n/a	n/a	n/a	n/a	n/a	n/a	n/a	n/a	n/a	n/a	n/a	n/a	n/a	start_functional_block
11390	500	n/a	-1	-1	500	0.0	fixation	poldrack-single-stim	393	1276152	0.0-19.0-0.0	beast_fmri_test	390	n/a	n/a	<div class = centerbox2><div class = fixation>+</div></div>	none	500.0	test	n/a	n/a	n/a	n/a	n/a	n/a	n/a	n/a	n/a	n/a	n/a	n/a	n/a	n/a	n/a	n/a	n/a	n/a	fixation
10493.594652417349	temp_go_duration	n/a	791	89	2750	899.405347583	stim	stop-signal	394	1278905	0.0-19.0-1.0	beast_fmri_test	390	1276325,/,1277007,/,1277687,/,1278367,/,1279047,/,1279726,/	t,t,t,t,t,t	<img class = center src='/static/experiments/beast_fmri_test/images/V.png'></img>	71,89	2750.0	test	<img class = center src='/static/experiments/beast_fmri_test/images/redV.png'></img>	stop	-1.0	2.0	0.0	stop	temp-non-target	V	71,Index Finger	89,Middle Finger	700.0	800.0	2050.0	1900.0	0.0	n/a	0.0	n/a	go_stim
temp-non-target	temp_stop_duration	n/a	791	89	2750	899.405347583	stim	stop-signal	394	1278905	0.0-19.0-1.0	beast_fmri_test	390	1276325,/,1277007,/,1277687,/,1278367,/,1279047,/,1279726,/	t,t,t,t,t,t	<img class = center src='/static/experiments/beast_fmri_test/images/V.png'></img>	71,89	2750.0	test	<img class = center src='/static/experiments/beast_fmri_test/images/redV.png'></img>	stop	-1.0	2.0	0.0	stop	temp-non-target	V	71,Index Finger	89,Middle Finger	700.0	800.0	2050.0	1900.0	0.0	n/a	0.0	n/a	stop_stim
13243.594652417349	899.40534758267393	n/a	791	89	2750	899.405347583	stim	stop-signal	394	1278905	0.0-19.0-1.0	beast_fmri_test	390	1276325,/,1277007,/,1277687,/,1278367,/,1279047,/,1279726,/	t,t,t,t,t,t	<img class = center src='/static/experiments/beast_fmri_test/images/V.png'></img>	71,89	2750.0	test	<img class = center src='/static/experiments/beast_fmri_test/images/redV.png'></img>	stop	-1.0	2.0	0.0	stop	temp-non-target	V	71,Index Finger	89,Middle Finger	700.0	800.0	2050.0	1900.0	0.0	n/a	0.0	n/a	ITI
15586	500	n/a	-1	-1	500	0.0	fixation	poldrack-single-stim	395	1280348	0.0-19.1-0.1	beast_fmri_test	390	n/a	n/a	<div class = centerbox2><div class = fixation>+</div></div>	none	500.0	test	n/a	n/a	n/a	n/a	n/a	n/a	n/a	n/a	n/a	n/a	n/a	n/a	n/a	n/a	n/a	n/a	n/a	n/a	fixation
14644.182125884108	temp_go_duration	n/a	915	89	2750	946.817874116	stim	stop-signal	396	1283103	0.0-19.1-1.1	beast_fmri_test	390	1280407,/,1281088,/,1281769,/,1282449,/,1283128,/,1283809,/	t,t,t,t,t,t	<img class = center src='/static/experiments/beast_fmri_test/images/T.png'></img>	71,89	2750.0	test	<img class = center src='/static/experiments/beast_fmri_test/images/redT.png'></img>	stop	-1.0	2.0	1.0	stop	temp-non-target	T	71,Index Finger	89,Middle Finger	700.0	800.0	2050.0	1900.0	0.0	n/a	0.0	n/a	go_stim
temp-non-target	temp_stop_duration	n/a	915	89	2750	946.817874116	stim	stop-signal	396	1283103	0.0-19.1-1.1	beast_fmri_test	390	1280407,/,1281088,/,1281769,/,1282449,/,1283128,/,1283809,/	t,t,t,t,t,t	<img class = center src='/static/experiments/beast_fmri_test/images/T.png'></img>	71,89	2750.0	test	<img class = center src='/static/experiments/beast_fmri_test/images/redT.png'></img>	stop	-1.0	2.0	1.0	stop	temp-non-target	T	71,Index Finger	89,Middle Finger	700.0	800.0	2050.0	1900.0	0.0	n/a	0.0	n/a	stop_stim
17394.182125884108	946.81787411600374	n/a	915	89	2750	946.817874116	stim	stop-signal	396	1283103	0.0-19.1-1.1	beast_fmri_test	390	1280407,/,1281088,/,1281769,/,1282449,/,1283128,/,1283809,/	t,t,t,t,t,t	<img class = center src='/static/experiments/beast_fmri_test/images/T.png'></img>	71,89	2750.0	test	<img class = center src='/static/experiments/beast_fmri_test/images/redT.png'></img>	stop	-1.0	2.0	1.0	stop	temp-non-target	T	71,Index Finger	89,Middle Finger	700.0	800.0	2050.0	1900.0	0.0	n/a	0.0	n/a	ITI
19828	500	n/a	-1	-1	500	0.0	fixation	poldrack-single-stim	397	1284590	0.0-19.2-0.2	beast_fmri_test	390	1284490,/	t	<div class = centerbox2><div class = fixation>+</div></div>	none	500.0	test	n/a	n/a	n/a	n/a	n/a	n/a	n/a	n/a	n/a	n/a	n/a	n/a	n/a	n/a	n/a	n/a	n/a	n/a	fixation
18694.609895865433	2750	n/a	635	71	2750	1138.39010413	stim	stop-signal	398	1287345	0.0-19.2-1.2	beast_fmri_test	390	1285170,/,1285850,/,1286530,/,1287211,/,1287891,/	t,t,t,t,t	<img class = center src='/static/experiments/beast_fmri_test/images/V.png'></img>	71,89	2750.0	test	<img class = center src='/static/experiments/beast_fmri_test/images/redV.png'></img>	go	2050.0	2.0	2.0	go	target	V	71,Index Finger	89,Middle Finger	700.0	800.0	2050.0	1900.0	1.0	700.0	n/a	1.0	go_stim
21444.609895865433	1138.3901041345835	n/a	635	71	2750	1138.39010413	stim	stop-signal	398	1287345	0.0-19.2-1.2	beast_fmri_test	390	1285170,/,1285850,/,1286530,/,1287211,/,1287891,/	t,t,t,t,t	<img class = center src='/static/experiments/beast_fmri_test/images/V.png'></img>	71,89	2750.0	test	<img class = center src='/static/experiments/beast_fmri_test/images/redV.png'></img>	go	2050.0	2.0	2.0	go	target	V	71,Index Finger	89,Middle Finger	700.0	800.0	2050.0	1900.0	1.0	700.0	n/a	1.0	ITI
24271	500	n/a	-1	-1	500	0.0	fixation	poldrack-single-stim	399	1289033	0.0-19.3-0.3	beast_fmri_test	390	1288570,/	t	<div class = centerbox2><div class = fixation>+</div></div>	none	500.0	test	n/a	n/a	n/a	n/a	n/a	n/a	n/a	n/a	n/a	n/a	n/a	n/a	n/a	n/a	n/a	n/a	n/a	n/a	fixation
23839.742704409175	800.0	n/a	660	89	2750	436.257295591	stim	stop-signal	400	1291788	0.0-19.3-1.3	beast_fmri_test	390	1289251,/,1289931,/,1290610,/,1291293,/,1291973,/	t,t,t,t,t	<img class = center src='/static/experiments/beast_fmri_test/images/P.png'></img>	71,89	2750.0	test	<img class = center src='/static/experiments/beast_fmri_test/images/redP.png'></img>	stop	1950.0	2.0	3.0	stop	non-target	P	71,Index Finger	89,Middle Finger	700.0	800.0	2050.0	1950.0	0.0	800.0	0.0	n/a	go_stim
25789.742704409175	1950.0	n/a	660	89	2750	436.257295591	stim	stop-signal	400	1291788	0.0-19.3-1.3	beast_fmri_test	390	1289251,/,1289931,/,1290610,/,1291293,/,1291973,/	t,t,t,t,t	<img class = center src='/static/experiments/beast_fmri_test/images/P.png'></img>	71,89	2750.0	test	<img class = center src='/static/experiments/beast_fmri_test/images/redP.png'></img>	stop	1950.0	2.0	3.0	stop	non-target	P	71,Index Finger	89,Middle Finger	700.0	800.0	2050.0	1950.0	0.0	800.0	0.0	n/a	stop_stim
26589.742704409175	436.2572955907242	n/a	660	89	2750	436.257295591	stim	stop-signal	400	1291788	0.0-19.3-1.3	beast_fmri_test	390	1289251,/,1289931,/,1290610,/,1291293,/,1291973,/	t,t,t,t,t	<img class = center src='/static/experiments/beast_fmri_test/images/P.png'></img>	71,89	2750.0	test	<img class = center src='/static/experiments/beast_fmri_test/images/redP.png'></img>	stop	1950.0	2.0	3.0	stop	non-target	P	71,Index Finger	89,Middle Finger	700.0	800.0	2050.0	1950.0	0.0	800.0	0.0	n/a	ITI
28011	500	n/a	-1	-1	500	0.0	fixation	poldrack-single-stim	401	1292773	0.0-19.4-0.4	beast_fmri_test	390	1292653,/	t	<div class = centerbox2><div class = fixation>+</div></div>	none	500.0	test	n/a	n/a	n/a	n/a	n/a	n/a	n/a	n/a	n/a	n/a	n/a	n/a	n/a	n/a	n/a	n/a	n/a	n/a	fixation
27232.934793581488	700.0	n/a	881	71	2750	782.065206418	stim	stop-signal	402	1295527	0.0-19.4-1.4	beast_fmri_test	390	1293333,/,1294013,/,1294692,/,1295374,/,1296054,/	t,t,t,t,t	<img class = center src='/static/experiments/beast_fmri_test/images/V.png'></img>	71,89	2750.0	test	<img class = center src='/static/experiments/beast_fmri_test/images/redV.png'></img>	stop	2050.0	2.0	4.0	stop	target	V	71,Index Finger	89,Middle Finger	700.0	750.0	2050.0	1950.0	0.0	700.0	0.0	n/a	go_stim
29282.934793581488	2050.0	n/a	881	71	2750	782.065206418	stim	stop-signal	402	1295527	0.0-19.4-1.4	beast_fmri_test	390	1293333,/,1294013,/,1294692,/,1295374,/,1296054,/	t,t,t,t,t	<img class = center src='/static/experiments/beast_fmri_test/images/V.png'></img>	71,89	2750.0	test	<img class = center src='/static/experiments/beast_fmri_test/images/redV.png'></img>	stop	2050.0	2.0	4.0	stop	target	V	71,Index Finger	89,Middle Finger	700.0	750.0	2050.0	1950.0	0.0	700.0	0.0	n/a	stop_stim
29982.934793581488	782.06520641841723	n/a	881	71	2750	782.065206418	stim	stop-signal	402	1295527	0.0-19.4-1.4	beast_fmri_test	390	1293333,/,1294013,/,1294692,/,1295374,/,1296054,/	t,t,t,t,t	<img class = center src='/static/experiments/beast_fmri_test/images/V.png'></img>	71,89	2750.0	test	<img class = center src='/static/experiments/beast_fmri_test/images/redV.png'></img>	stop	2050.0	2.0	4.0	stop	target	V	71,Index Finger	89,Middle Finger	700.0	750.0	2050.0	1950.0	0.0	700.0	0.0	n/a	ITI
32094	500	n/a	-1	-1	500	0.0	fixation	poldrack-single-stim	403	1296856	0.0-19.5-0.5	beast_fmri_test	390	1296736,/	t	<div class = centerbox2><div class = fixation>+</div></div>	none	500.0	test	n/a	n/a	n/a	n/a	n/a	n/a	n/a	n/a	n/a	n/a	n/a	n/a	n/a	n/a	n/a	n/a	n/a	n/a	fixation
30606.495862624142	2750	n/a	660	89	2750	1490.50413738	stim	stop-signal	404	1299609	0.0-19.5-1.5	beast_fmri_test	390	1297415,/,1298095,/,1298776,/,1299455,/,1300136,/,1300815,/	t,t,t,t,t,t	<img class = center src='/static/experiments/beast_fmri_test/images/B.png'></img>	71,89	2750.0	test	<img class = center src='/static/experiments/beast_fmri_test/images/redB.png'></img>	go	2000.0	2.0	5.0	go	non-target	B	71,Index Finger	89,Middle Finger	650.0	750.0	2050.0	2000.0	1.0	750.0	n/a	1.0	go_stim
33356.495862624142	1490.5041373758054	n/a	660	89	2750	1490.50413738	stim	stop-signal	404	1299609	0.0-19.5-1.5	beast_fmri_test	390	1297415,/,1298095,/,1298776,/,1299455,/,1300136,/,1300815,/	t,t,t,t,t,t	<img class = center src='/static/experiments/beast_fmri_test/images/B.png'></img>	71,89	2750.0	test	<img class = center src='/static/experiments/beast_fmri_test/images/redB.png'></img>	go	2000.0	2.0	5.0	go	non-target	B	71,Index Finger	89,Middle Finger	650.0	750.0	2050.0	2000.0	1.0	750.0	n/a	1.0	ITI
36885	500	n/a	-1	-1	500	0.0	fixation	poldrack-single-stim	405	1301647	0.0-19.6-0.6	beast_fmri_test	390	1301497,/	t	<div class = centerbox2><div class = fixation>+</div></div>	none	500.0	test	n/a	n/a	n/a	n/a	n/a	n/a	n/a	n/a	n/a	n/a	n/a	n/a	n/a	n/a	n/a	n/a	n/a	n/a	fixation
36419.803937488236	2750	n/a	882	89	2750	469.196062512	stim	stop-signal	406	1304401	0.0-19.6-1.6	beast_fmri_test	390	1302178,/,1302856,/,1303538,/,1304219,/	t,t,t,t	<img class = center src='/static/experiments/beast_fmri_test/images/D.png'></img>	71,89	2750.0	test	<img class = center src='/static/experiments/beast_fmri_test/images/redD.png'></img>	go	2000.0	2.0	6.0	go	non-target	D	71,Index Finger	89,Middle Finger	650.0	750.0	2050.0	2000.0	1.0	750.0	n/a	1.0	go_stim
39169.803937488236	469.19606251186019	n/a	882	89	2750	469.196062512	stim	stop-signal	406	1304401	0.0-19.6-1.6	beast_fmri_test	390	1302178,/,1302856,/,1303538,/,1304219,/	t,t,t,t	<img class = center src='/static/experiments/beast_fmri_test/images/D.png'></img>	71,89	2750.0	test	<img class = center src='/static/experiments/beast_fmri_test/images/redD.png'></img>	go	2000.0	2.0	6.0	go	non-target	D	71,Index Finger	89,Middle Finger	650.0	750.0	2050.0	2000.0	1.0	750.0	n/a	1.0	ITI
40656	500	n/a	-1	-1	500	0.0	fixation	poldrack-single-stim	407	1305418	0.0-19.7-0.7	beast_fmri_test	390	1304915,/	t	<div class = centerbox2><div class = fixation>+</div></div>	none	500.0	test	n/a	n/a	n/a	n/a	n/a	n/a	n/a	n/a	n/a	n/a	n/a	n/a	n/a	n/a	n/a	n/a	n/a	n/a	fixation
40382.380651433254	750.0	n/a	-1	-1	2750	277.619348567	stim	stop-signal	408	1308172	0.0-19.7-1.7	beast_fmri_test	390	1305578,/,1306260,/,1306939,/,1307620,/,1308300,/	t,t,t,t,t	<img class = center src='/static/experiments/beast_fmri_test/images/T.png'></img>	71,89	2750.0	test	<img class = center src='/static/experiments/beast_fmri_test/images/redT.png'></img>	stop	2000.0	2.0	7.0	stop	non-target	T	71,Index Finger	89,Middle Finger	650.0	750.0	2050.0	2000.0	0.0	750.0	1.0	n/a	go_stim
42382.380651433254	2000.0	n/a	-1	-1	2750	277.619348567	stim	stop-signal	408	1308172	0.0-19.7-1.7	beast_fmri_test	390	1305578,/,1306260,/,1306939,/,1307620,/,1308300,/	t,t,t,t,t	<img class = center src='/static/experiments/beast_fmri_test/images/T.png'></img>	71,89	2750.0	test	<img class = center src='/static/experiments/beast_fmri_test/images/redT.png'></img>	stop	2000.0	2.0	7.0	stop	non-target	T	71,Index Finger	89,Middle Finger	650.0	750.0	2050.0	2000.0	0.0	750.0	1.0	n/a	stop_stim
43132.380651433254	277.61934856671331	n/a	-1	-1	2750	277.619348567	stim	stop-signal	408	1308172	0.0-19.7-1.7	beast_fmri_test	390	1305578,/,1306260,/,1306939,/,1307620,/,1308300,/	t,t,t,t,t	<img class = center src='/static/experiments/beast_fmri_test/images/T.png'></img>	71,89	2750.0	test	<img class = center src='/static/experiments/beast_fmri_test/images/redT.png'></img>	stop	2000.0	2.0	7.0	stop	non-target	T	71,Index Finger	89,Middle Finger	650.0	750.0	2050.0	2000.0	0.0	750.0	1.0	n/a	ITI
44237	500	n/a	-1	-1	500	0.0	fixation	poldrack-single-stim	409	1308999	0.0-19.8-0.8	beast_fmri_test	390	1308981,/	t	<div class = centerbox2><div class = fixation>+</div></div>	none	500.0	test	n/a	n/a	n/a	n/a	n/a	n/a	n/a	n/a	n/a	n/a	n/a	n/a	n/a	n/a	n/a	n/a	n/a	n/a	fixation
42028.738513302756	2750	n/a	633	89	2750	2212.2614867	stim	stop-signal	410	1311753	0.0-19.8-1.8	beast_fmri_test	390	1309661,/,1310340,/,1311022,/,1311702,/,1312382,/,1313062,/,1313741,/	t,t,t,t,t,t,t	<img class = center src='/static/experiments/beast_fmri_test/images/P.png'></img>	71,89	2750.0	test	<img class = center src='/static/experiments/beast_fmri_test/images/redP.png'></img>	go	1950.0	2.0	8.0	go	non-target	P	71,Index Finger	89,Middle Finger	650.0	800.0	2050.0	1950.0	1.0	800.0	n/a	1.0	go_stim
44778.738513302756	2212.261486697244	n/a	633	89	2750	2212.2614867	stim	stop-signal	410	1311753	0.0-19.8-1.8	beast_fmri_test	390	1309661,/,1310340,/,1311022,/,1311702,/,1312382,/,1313062,/,1313741,/	t,t,t,t,t,t,t	<img class = center src='/static/experiments/beast_fmri_test/images/P.png'></img>	71,89	2750.0	test	<img class = center src='/static/experiments/beast_fmri_test/images/redP.png'></img>	go	1950.0	2.0	8.0	go	non-target	P	71,Index Finger	89,Middle Finger	650.0	800.0	2050.0	1950.0	1.0	800.0	n/a	1.0	ITI
49754	500	n/a	-1	-1	500	0.0	fixation	poldrack-single-stim	411	1314516	0.0-19.9-0.9	beast_fmri_test	390	1314422,/	t	<div class = centerbox2><div class = fixation>+</div></div>	none	500.0	test	n/a	n/a	n/a	n/a	n/a	n/a	n/a	n/a	n/a	n/a	n/a	n/a	n/a	n/a	n/a	n/a	n/a	n/a	fixation
48978.913843047805	2750	n/a	673	89	2750	780.086156952	stim	stop-signal	412	1317271	0.0-19.9-1.9	beast_fmri_test	390	1315103,/,1315782,/,1316463,/,1317144,/,1317824,/	t,t,t,t,t	<img class = center src='/static/experiments/beast_fmri_test/images/P.png'></img>	71,89	2750.0	test	<img class = center src='/static/experiments/beast_fmri_test/images/redP.png'></img>	go	1950.0	2.0	9.0	go	non-target	P	71,Index Finger	89,Middle Finger	650.0	800.0	2050.0	1950.0	1.0	800.0	n/a	1.0	go_stim
51728.913843047805	780.08615695230321	n/a	673	89	2750	780.086156952	stim	stop-signal	412	1317271	0.0-19.9-1.9	beast_fmri_test	390	1315103,/,1315782,/,1316463,/,1317144,/,1317824,/	t,t,t,t,t	<img class = center src='/static/experiments/beast_fmri_test/images/P.png'></img>	71,89	2750.0	test	<img class = center src='/static/experiments/beast_fmri_test/images/redP.png'></img>	go	1950.0	2.0	9.0	go	non-target	P	71,Index Finger	89,Middle Finger	650.0	800.0	2050.0	1950.0	1.0	800.0	n/a	1.0	ITI
53842	500	n/a	-1	-1	500	0.0	fixation	poldrack-single-stim	413	1318604	0.0-19.10-0.10	beast_fmri_test	390	1318505,/	t	<div class = centerbox2><div class = fixation>+</div></div>	none	500.0	test	n/a	n/a	n/a	n/a	n/a	n/a	n/a	n/a	n/a	n/a	n/a	n/a	n/a	n/a	n/a	n/a	n/a	n/a	fixation
52816.153530123644	2750	n/a	454	71	2750	1029.84646988	stim	stop-signal	414	1321358	0.0-19.10-1.10	beast_fmri_test	390	1319185,/,1319865,/,1320545,/,1321226,/,1321905,/	t,t,t,t,t	<img class = center src='/static/experiments/beast_fmri_test/images/P.png'></img>	71,89	2750.0	test	<img class = center src='/static/experiments/beast_fmri_test/images/redP.png'></img>	go	2100.0	2.0	10.0	go	target	P	71,Index Finger	89,Middle Finger	650.0	800.0	2100.0	1950.0	1.0	650.0	n/a	1.0	go_stim
55566.153530123644	1029.8464698764362	n/a	454	71	2750	1029.84646988	stim	stop-signal	414	1321358	0.0-19.10-1.10	beast_fmri_test	390	1319185,/,1319865,/,1320545,/,1321226,/,1321905,/	t,t,t,t,t	<img class = center src='/static/experiments/beast_fmri_test/images/P.png'></img>	71,89	2750.0	test	<img class = center src='/static/experiments/beast_fmri_test/images/redP.png'></img>	go	2100.0	2.0	10.0	go	target	P	71,Index Finger	89,Middle Finger	650.0	800.0	2100.0	1950.0	1.0	650.0	n/a	1.0	ITI
58175	500	n/a	-1	-1	500	0.0	fixation	poldrack-single-stim	415	1322937	0.0-19.11-0.11	beast_fmri_test	390	1322586,/	t	<div class = centerbox2><div class = fixation>+</div></div>	none	500.0	test	n/a	n/a	n/a	n/a	n/a	n/a	n/a	n/a	n/a	n/a	n/a	n/a	n/a	n/a	n/a	n/a	n/a	n/a	fixation
58004.324905401329	2750	n/a	661	71	2750	174.675094599	stim	stop-signal	416	1325691	0.0-19.11-1.11	beast_fmri_test	390	1323267,/,1323947,/,1324627,/,1325307,/	t,t,t,t	<img class = center src='/static/experiments/beast_fmri_test/images/P.png'></img>	71,89	2750.0	test	<img class = center src='/static/experiments/beast_fmri_test/images/redP.png'></img>	go	2100.0	2.0	11.0	go	target	P	71,Index Finger	89,Middle Finger	650.0	800.0	2100.0	1950.0	1.0	650.0	n/a	1.0	go_stim
60754.324905401329	174.67509459867455	n/a	661	71	2750	174.675094599	stim	stop-signal	416	1325691	0.0-19.11-1.11	beast_fmri_test	390	1323267,/,1323947,/,1324627,/,1325307,/	t,t,t,t	<img class = center src='/static/experiments/beast_fmri_test/images/P.png'></img>	71,89	2750.0	test	<img class = center src='/static/experiments/beast_fmri_test/images/redP.png'></img>	go	2100.0	2.0	11.0	go	target	P	71,Index Finger	89,Middle Finger	650.0	800.0	2100.0	1950.0	1.0	650.0	n/a	1.0	ITI
61649	500	n/a	-1	-1	500	0.0	fixation	poldrack-single-stim	417	1326411	0.0-19.12-0.12	beast_fmri_test	390	1325986,/	t	<div class = centerbox2><div class = fixation>+</div></div>	none	500.0	test	n/a	n/a	n/a	n/a	n/a	n/a	n/a	n/a	n/a	n/a	n/a	n/a	n/a	n/a	n/a	n/a	n/a	n/a	fixation
61027.201098128455	800.0	n/a	-1	-1	2750	625.798901872	stim	stop-signal	418	1329165	0.0-19.12-1.12	beast_fmri_test	390	1326668,/,1327348,/,1328029,/,1328707,/,1329389,/	t,t,t,t,t	<img class = center src='/static/experiments/beast_fmri_test/images/D.png'></img>	71,89	2750.0	test	<img class = center src='/static/experiments/beast_fmri_test/images/redD.png'></img>	stop	1950.0	2.0	12.0	stop	non-target	D	71,Index Finger	89,Middle Finger	650.0	800.0	2100.0	1950.0	0.0	800.0	1.0	n/a	go_stim
62977.201098128455	1950.0	n/a	-1	-1	2750	625.798901872	stim	stop-signal	418	1329165	0.0-19.12-1.12	beast_fmri_test	390	1326668,/,1327348,/,1328029,/,1328707,/,1329389,/	t,t,t,t,t	<img class = center src='/static/experiments/beast_fmri_test/images/D.png'></img>	71,89	2750.0	test	<img class = center src='/static/experiments/beast_fmri_test/images/redD.png'></img>	stop	1950.0	2.0	12.0	stop	non-target	D	71,Index Finger	89,Middle Finger	650.0	800.0	2100.0	1950.0	0.0	800.0	1.0	n/a	stop_stim
63777.201098128455	625.79890187155468	n/a	-1	-1	2750	625.798901872	stim	stop-signal	418	1329165	0.0-19.12-1.12	beast_fmri_test	390	1326668,/,1327348,/,1328029,/,1328707,/,1329389,/	t,t,t,t,t	<img class = center src='/static/experiments/beast_fmri_test/images/D.png'></img>	71,89	2750.0	test	<img class = center src='/static/experiments/beast_fmri_test/images/redD.png'></img>	stop	1950.0	2.0	12.0	stop	non-target	D	71,Index Finger	89,Middle Finger	650.0	800.0	2100.0	1950.0	0.0	800.0	1.0	n/a	ITI
65577	500	n/a	-1	-1	500	0.0	fixation	poldrack-single-stim	419	1330339	0.0-19.13-0.13	beast_fmri_test	390	1330069,/	t	<div class = centerbox2><div class = fixation>+</div></div>	none	500.0	test	n/a	n/a	n/a	n/a	n/a	n/a	n/a	n/a	n/a	n/a	n/a	n/a	n/a	n/a	n/a	n/a	n/a	n/a	fixation
64598.481597523903	2750	n/a	1479	89	2750	983.518402476	stim	stop-signal	420	1333094	0.0-19.13-1.13	beast_fmri_test	390	1330750,/,1331430,/,1332111,/,1332791,/,1333472,/	t,t,t,t,t	<img class = center src='/static/experiments/beast_fmri_test/images/T.png'></img>	71,89	2750.0	test	<img class = center src='/static/experiments/beast_fmri_test/images/redT.png'></img>	go	1900.0	2.0	13.0	go	non-target	T	71,Index Finger	89,Middle Finger	650.0	850.0	2100.0	1900.0	1.0	850.0	n/a	1.0	go_stim
67348.481597523903	983.51840247610869	n/a	1479	89	2750	983.518402476	stim	stop-signal	420	1333094	0.0-19.13-1.13	beast_fmri_test	390	1330750,/,1331430,/,1332111,/,1332791,/,1333472,/	t,t,t,t,t	<img class = center src='/static/experiments/beast_fmri_test/images/T.png'></img>	71,89	2750.0	test	<img class = center src='/static/experiments/beast_fmri_test/images/redT.png'></img>	go	1900.0	2.0	13.0	go	non-target	T	71,Index Finger	89,Middle Finger	650.0	850.0	2100.0	1900.0	1.0	850.0	n/a	1.0	ITI
69864	500	n/a	-1	-1	500	0.0	fixation	poldrack-single-stim	421	1334626	0.0-19.14-0.14	beast_fmri_test	390	1334154,/	t	<div class = centerbox2><div class = fixation>+</div></div>	none	500.0	test	n/a	n/a	n/a	n/a	n/a	n/a	n/a	n/a	n/a	n/a	n/a	n/a	n/a	n/a	n/a	n/a	n/a	n/a	fixation
67930.947751376545	850.0	n/a	563	89	2750	1937.05224862	stim	stop-signal	422	1337380	0.0-19.14-1.14	beast_fmri_test	390	1334832,/,1335511,/,1336192,/,1336873,/,1337553,/,1338234,/,1338914,/	t,t,t,t,t,t,t	<img class = center src='/static/experiments/beast_fmri_test/images/P.png'></img>	71,89	2750.0	test	<img class = center src='/static/experiments/beast_fmri_test/images/redP.png'></img>	stop	1900.0	2.0	14.0	stop	non-target	P	71,Index Finger	89,Middle Finger	650.0	850.0	2100.0	1900.0	0.0	850.0	0.0	n/a	go_stim
69830.947751376545	1900.0	n/a	563	89	2750	1937.05224862	stim	stop-signal	422	1337380	0.0-19.14-1.14	beast_fmri_test	390	1334832,/,1335511,/,1336192,/,1336873,/,1337553,/,1338234,/,1338914,/	t,t,t,t,t,t,t	<img class = center src='/static/experiments/beast_fmri_test/images/P.png'></img>	71,89	2750.0	test	<img class = center src='/static/experiments/beast_fmri_test/images/redP.png'></img>	stop	1900.0	2.0	14.0	stop	non-target	P	71,Index Finger	89,Middle Finger	650.0	850.0	2100.0	1900.0	0.0	850.0	0.0	n/a	stop_stim
70680.947751376545	1937.0522486234329	n/a	563	89	2750	1937.05224862	stim	stop-signal	422	1337380	0.0-19.14-1.14	beast_fmri_test	390	1334832,/,1335511,/,1336192,/,1336873,/,1337553,/,1338234,/,1338914,/	t,t,t,t,t,t,t	<img class = center src='/static/experiments/beast_fmri_test/images/P.png'></img>	71,89	2750.0	test	<img class = center src='/static/experiments/beast_fmri_test/images/redP.png'></img>	stop	1900.0	2.0	14.0	stop	non-target	P	71,Index Finger	89,Middle Finger	650.0	850.0	2100.0	1900.0	0.0	850.0	0.0	n/a	ITI
75105	500	n/a	-1	-1	500	0.0	fixation	poldrack-single-stim	423	1339867	0.0-19.15-0.15	beast_fmri_test	390	1339595,/	t	<div class = centerbox2><div class = fixation>+</div></div>	none	500.0	test	n/a	n/a	n/a	n/a	n/a	n/a	n/a	n/a	n/a	n/a	n/a	n/a	n/a	n/a	n/a	n/a	n/a	n/a	fixation
74546.863132599508	2750	n/a	1461	71	2750	562.136867401	stim	stop-signal	424	1342621	0.0-19.15-1.15	beast_fmri_test	390	1340274,/,1340954,/,1341635,/,1342315,/,1342996,/	t,t,t,t,t	<img class = center src='/static/experiments/beast_fmri_test/images/P.png'></img>	71,89	2750.0	test	<img class = center src='/static/experiments/beast_fmri_test/images/redP.png'></img>	go	1950.0	2.0	15.0	go	non-target	P	71,Index Finger	89,Middle Finger	650.0	800.0	2100.0	1950.0	0.0	800.0	n/a	0.0	go_stim
77296.863132599508	562.13686740050662	n/a	1461	71	2750	562.136867401	stim	stop-signal	424	1342621	0.0-19.15-1.15	beast_fmri_test	390	1340274,/,1340954,/,1341635,/,1342315,/,1342996,/	t,t,t,t,t	<img class = center src='/static/experiments/beast_fmri_test/images/P.png'></img>	71,89	2750.0	test	<img class = center src='/static/experiments/beast_fmri_test/images/redP.png'></img>	go	1950.0	2.0	15.0	go	non-target	P	71,Index Finger	89,Middle Finger	650.0	800.0	2100.0	1950.0	0.0	800.0	n/a	0.0	ITI
78977	500	n/a	-1	-1	500	0.0	fixation	poldrack-single-stim	425	1343739	0.0-19.16-0.16	beast_fmri_test	390	1343677,/	t	<div class = centerbox2><div class = fixation>+</div></div>	none	500.0	test	n/a	n/a	n/a	n/a	n/a	n/a	n/a	n/a	n/a	n/a	n/a	n/a	n/a	n/a	n/a	n/a	n/a	n/a	fixation
78947.604063017294	2750	n/a	1994	71	2750	34.3959369828	stim	stop-signal	426	1346494	0.0-19.16-1.16	beast_fmri_test	390	1344356,/,1345036,/,1345716,/,1346397,/	t,t,t,t	<img class = center src='/static/experiments/beast_fmri_test/images/T.png'></img>	71,89	2750.0	test	<img class = center src='/static/experiments/beast_fmri_test/images/redT.png'></img>	go	1950.0	2.0	16.0	go	non-target	T	71,Index Finger	89,Middle Finger	650.0	800.0	2100.0	1950.0	0.0	800.0	n/a	0.0	go_stim
81697.604063017294	34.395936982799896	n/a	1994	71	2750	34.3959369828	stim	stop-signal	426	1346494	0.0-19.16-1.16	beast_fmri_test	390	1344356,/,1345036,/,1345716,/,1346397,/	t,t,t,t	<img class = center src='/static/experiments/beast_fmri_test/images/T.png'></img>	71,89	2750.0	test	<img class = center src='/static/experiments/beast_fmri_test/images/redT.png'></img>	go	1950.0	2.0	16.0	go	non-target	T	71,Index Finger	89,Middle Finger	650.0	800.0	2100.0	1950.0	0.0	800.0	n/a	0.0	ITI
82314	500	n/a	-1	-1	500	0.0	fixation	poldrack-single-stim	427	1347076	0.0-19.17-0.17	beast_fmri_test	390	n/a	n/a	<div class = centerbox2><div class = fixation>+</div></div>	none	500.0	test	n/a	n/a	n/a	n/a	n/a	n/a	n/a	n/a	n/a	n/a	n/a	n/a	n/a	n/a	n/a	n/a	n/a	n/a	fixation
81762.510389195988	650.0	n/a	783	71	2750	556.489610804	stim	stop-signal	428	1349831	0.0-19.17-1.17	beast_fmri_test	390	1347079,/,1347758,/,1348438,/,1349118,/,1349798,/	t,t,t,t,t	<img class = center src='/static/experiments/beast_fmri_test/images/P.png'></img>	71,89	2750.0	test	<img class = center src='/static/experiments/beast_fmri_test/images/redP.png'></img>	stop	2100.0	2.0	17.0	stop	target	P	71,Index Finger	89,Middle Finger	650.0	800.0	2100.0	1950.0	0.0	650.0	0.0	n/a	go_stim
83862.510389195988	2100.0	n/a	783	71	2750	556.489610804	stim	stop-signal	428	1349831	0.0-19.17-1.17	beast_fmri_test	390	1347079,/,1347758,/,1348438,/,1349118,/,1349798,/	t,t,t,t,t	<img class = center src='/static/experiments/beast_fmri_test/images/P.png'></img>	71,89	2750.0	test	<img class = center src='/static/experiments/beast_fmri_test/images/redP.png'></img>	stop	2100.0	2.0	17.0	stop	target	P	71,Index Finger	89,Middle Finger	650.0	800.0	2100.0	1950.0	0.0	650.0	0.0	n/a	stop_stim
84512.510389195988	556.4896108040607	n/a	783	71	2750	556.489610804	stim	stop-signal	428	1349831	0.0-19.17-1.17	beast_fmri_test	390	1347079,/,1347758,/,1348438,/,1349118,/,1349798,/	t,t,t,t,t	<img class = center src='/static/experiments/beast_fmri_test/images/P.png'></img>	71,89	2750.0	test	<img class = center src='/static/experiments/beast_fmri_test/images/redP.png'></img>	stop	2100.0	2.0	17.0	stop	target	P	71,Index Finger	89,Middle Finger	650.0	800.0	2100.0	1950.0	0.0	650.0	0.0	n/a	ITI
86179	500	n/a	-1	-1	500	0.0	fixation	poldrack-single-stim	429	1350941	0.0-19.18-0.18	beast_fmri_test	390	1350481,/	t	<div class = centerbox2><div class = fixation>+</div></div>	none	500.0	test	n/a	n/a	n/a	n/a	n/a	n/a	n/a	n/a	n/a	n/a	n/a	n/a	n/a	n/a	n/a	n/a	n/a	n/a	fixation
84699.219384760363	800.0	n/a	-1	-1	2750	1484.78061524	stim	stop-signal	430	1353696	0.0-19.18-1.18	beast_fmri_test	390	1351159,/,1351839,/,1352519,/,1353200,/,1353880,/,1354560,/	t,t,t,t,t,t	<img class = center src='/static/experiments/beast_fmri_test/images/D.png'></img>	71,89	2750.0	test	<img class = center src='/static/experiments/beast_fmri_test/images/redD.png'></img>	stop	1950.0	2.0	18.0	stop	non-target	D	71,Index Finger	89,Middle Finger	600.0	800.0	2100.0	1950.0	0.0	800.0	1.0	n/a	go_stim
86649.219384760363	1950.0	n/a	-1	-1	2750	1484.78061524	stim	stop-signal	430	1353696	0.0-19.18-1.18	beast_fmri_test	390	1351159,/,1351839,/,1352519,/,1353200,/,1353880,/,1354560,/	t,t,t,t,t,t	<img class = center src='/static/experiments/beast_fmri_test/images/D.png'></img>	71,89	2750.0	test	<img class = center src='/static/experiments/beast_fmri_test/images/redD.png'></img>	stop	1950.0	2.0	18.0	stop	non-target	D	71,Index Finger	89,Middle Finger	600.0	800.0	2100.0	1950.0	0.0	800.0	1.0	n/a	stop_stim
87449.219384760363	1484.7806152395224	n/a	-1	-1	2750	1484.78061524	stim	stop-signal	430	1353696	0.0-19.18-1.18	beast_fmri_test	390	1351159,/,1351839,/,1352519,/,1353200,/,1353880,/,1354560,/	t,t,t,t,t,t	<img class = center src='/static/experiments/beast_fmri_test/images/D.png'></img>	71,89	2750.0	test	<img class = center src='/static/experiments/beast_fmri_test/images/redD.png'></img>	stop	1950.0	2.0	18.0	stop	non-target	D	71,Index Finger	89,Middle Finger	600.0	800.0	2100.0	1950.0	0.0	800.0	1.0	n/a	ITI
90969	500	n/a	-1	-1	500	0.0	fixation	poldrack-single-stim	431	1355731	0.0-19.19-0.19	beast_fmri_test	390	1355239,/	t	<div class = centerbox2><div class = fixation>+</div></div>	none	500.0	test	n/a	n/a	n/a	n/a	n/a	n/a	n/a	n/a	n/a	n/a	n/a	n/a	n/a	n/a	n/a	n/a	n/a	n/a	fixation
90048.823980152607	2750	n/a	806	89	2750	924.176019847	stim	stop-signal	432	1358485	0.0-19.19-1.19	beast_fmri_test	390	1355920,/,1356601,/,1357281,/,1357961,/,1358641,/,1359322,/	t,t,t,t,t,t	<img class = center src='/static/experiments/beast_fmri_test/images/V.png'></img>	71,89	2750.0	test	<img class = center src='/static/experiments/beast_fmri_test/images/redV.png'></img>	go	1900.0	2.0	19.0	go	non-target	V	71,Index Finger	89,Middle Finger	600.0	850.0	2100.0	1900.0	1.0	850.0	n/a	1.0	go_stim
92798.823980152607	924.17601984736223	n/a	806	89	2750	924.176019847	stim	stop-signal	432	1358485	0.0-19.19-1.19	beast_fmri_test	390	1355920,/,1356601,/,1357281,/,1357961,/,1358641,/,1359322,/	t,t,t,t,t,t	<img class = center src='/static/experiments/beast_fmri_test/images/V.png'></img>	71,89	2750.0	test	<img class = center src='/static/experiments/beast_fmri_test/images/redV.png'></img>	go	1900.0	2.0	19.0	go	non-target	V	71,Index Finger	89,Middle Finger	600.0	850.0	2100.0	1900.0	1.0	850.0	n/a	1.0	ITI
95199	500	n/a	-1	-1	500	0.0	fixation	poldrack-single-stim	433	1359961	0.0-19.20-0.20	beast_fmri_test	390	n/a	n/a	<div class = centerbox2><div class = fixation>+</div></div>	none	500.0	test	n/a	n/a	n/a	n/a	n/a	n/a	n/a	n/a	n/a	n/a	n/a	n/a	n/a	n/a	n/a	n/a	n/a	n/a	fixation
93948.136601389386	2750	n/a	1305	89	2750	1254.86339861	stim	stop-signal	434	1362715	0.0-19.20-1.20	beast_fmri_test	390	1360005,/,1360683,/,1361364,/,1362045,/,1362724,/,1363405,/	t,t,t,t,t,t	<img class = center src='/static/experiments/beast_fmri_test/images/P.png'></img>	71,89	2750.0	test	<img class = center src='/static/experiments/beast_fmri_test/images/redP.png'></img>	go	1900.0	2.0	20.0	go	non-target	P	71,Index Finger	89,Middle Finger	600.0	850.0	2100.0	1900.0	1.0	850.0	n/a	1.0	go_stim
96698.136601389386	1254.8633986106815	n/a	1305	89	2750	1254.86339861	stim	stop-signal	434	1362715	0.0-19.20-1.20	beast_fmri_test	390	1360005,/,1360683,/,1361364,/,1362045,/,1362724,/,1363405,/	t,t,t,t,t,t	<img class = center src='/static/experiments/beast_fmri_test/images/P.png'></img>	71,89	2750.0	test	<img class = center src='/static/experiments/beast_fmri_test/images/redP.png'></img>	go	1900.0	2.0	20.0	go	non-target	P	71,Index Finger	89,Middle Finger	600.0	850.0	2100.0	1900.0	1.0	850.0	n/a	1.0	ITI
99757	500	n/a	-1	-1	500	0.0	fixation	poldrack-single-stim	435	1364519	0.0-19.21-0.21	beast_fmri_test	390	1364084,/	t	<div class = centerbox2><div class = fixation>+</div></div>	none	500.0	test	n/a	n/a	n/a	n/a	n/a	n/a	n/a	n/a	n/a	n/a	n/a	n/a	n/a	n/a	n/a	n/a	n/a	n/a	fixation
99697.285831339192	2750	n/a	2073	71	2750	63.7141686608	stim	stop-signal	436	1367273	0.0-19.21-1.21	beast_fmri_test	390	1364766,/,1365446,/,1366125,/,1366806,/	t,t,t,t	<img class = center src='/static/experiments/beast_fmri_test/images/P.png'></img>	71,89	2750.0	test	<img class = center src='/static/experiments/beast_fmri_test/images/redP.png'></img>	go	1900.0	2.0	21.0	go	non-target	P	71,Index Finger	89,Middle Finger	600.0	850.0	2100.0	1900.0	0.0	850.0	n/a	0.0	go_stim
102447.28583133919	63.714168660819958	n/a	2073	71	2750	63.7141686608	stim	stop-signal	436	1367273	0.0-19.21-1.21	beast_fmri_test	390	1364766,/,1365446,/,1366125,/,1366806,/	t,t,t,t	<img class = center src='/static/experiments/beast_fmri_test/images/P.png'></img>	71,89	2750.0	test	<img class = center src='/static/experiments/beast_fmri_test/images/redP.png'></img>	go	1900.0	2.0	21.0	go	non-target	P	71,Index Finger	89,Middle Finger	600.0	850.0	2100.0	1900.0	0.0	850.0	n/a	0.0	ITI
103121	500	n/a	-1	-1	500	0.0	fixation	poldrack-single-stim	437	1367883	0.0-19.22-0.22	beast_fmri_test	390	1367487,/	t	<div class = centerbox2><div class = fixation>+</div></div>	none	500.0	test	n/a	n/a	n/a	n/a	n/a	n/a	n/a	n/a	n/a	n/a	n/a	n/a	n/a	n/a	n/a	n/a	n/a	n/a	fixation
100333.17739581526	600.0	n/a	-1	-1	2750	2792.82260418	stim	stop-signal	438	1370638	0.0-19.22-1.22	beast_fmri_test	390	1368167,/,1368847,/,1369527,/,1370208,/,1370888,/,1371568,/,1372249,/,1372928,/	t,t,t,t,t,t,t,t	<img class = center src='/static/experiments/beast_fmri_test/images/P.png'></img>	71,89	2750.0	test	<img class = center src='/static/experiments/beast_fmri_test/images/redP.png'></img>	stop	2150.0	2.0	22.0	stop	target	P	71,Index Finger	89,Middle Finger	600.0	850.0	2150.0	1900.0	0.0	600.0	1.0	n/a	go_stim
102483.17739581526	2150.0	n/a	-1	-1	2750	2792.82260418	stim	stop-signal	438	1370638	0.0-19.22-1.22	beast_fmri_test	390	1368167,/,1368847,/,1369527,/,1370208,/,1370888,/,1371568,/,1372249,/,1372928,/	t,t,t,t,t,t,t,t	<img class = center src='/static/experiments/beast_fmri_test/images/P.png'></img>	71,89	2750.0	test	<img class = center src='/static/experiments/beast_fmri_test/images/redP.png'></img>	stop	2150.0	2.0	22.0	stop	target	P	71,Index Finger	89,Middle Finger	600.0	850.0	2150.0	1900.0	0.0	600.0	1.0	n/a	stop_stim
103083.17739581526	2792.8226041847583	n/a	-1	-1	2750	2792.82260418	stim	stop-signal	438	1370638	0.0-19.22-1.22	beast_fmri_test	390	1368167,/,1368847,/,1369527,/,1370208,/,1370888,/,1371568,/,1372249,/,1372928,/	t,t,t,t,t,t,t,t	<img class = center src='/static/experiments/beast_fmri_test/images/P.png'></img>	71,89	2750.0	test	<img class = center src='/static/experiments/beast_fmri_test/images/redP.png'></img>	stop	2150.0	2.0	22.0	stop	target	P	71,Index Finger	89,Middle Finger	600.0	850.0	2150.0	1900.0	0.0	600.0	1.0	n/a	ITI
109220	500	n/a	-1	-1	500	0.0	fixation	poldrack-single-stim	439	1373982	0.0-19.23-0.23	beast_fmri_test	390	1373608,/	t	<div class = centerbox2><div class = fixation>+</div></div>	none	500.0	test	n/a	n/a	n/a	n/a	n/a	n/a	n/a	n/a	n/a	n/a	n/a	n/a	n/a	n/a	n/a	n/a	n/a	n/a	fixation
107021.33052863693	2750	n/a	553	89	2750	2202.66947136	stim	stop-signal	440	1376736	0.0-19.23-1.23	beast_fmri_test	390	1374289,/,1374969,/,1375650,/,1376329,/,1377010,/,1377690,/,1378371,/	t,t,t,t,t,t,t	<img class = center src='/static/experiments/beast_fmri_test/images/D.png'></img>	71,89	2750.0	test	<img class = center src='/static/experiments/beast_fmri_test/images/redD.png'></img>	go	1900.0	2.0	23.0	go	non-target	D	71,Index Finger	89,Middle Finger	650.0	850.0	2150.0	1900.0	1.0	850.0	n/a	1.0	go_stim
109771.33052863693	2202.6694713631568	n/a	553	89	2750	2202.66947136	stim	stop-signal	440	1376736	0.0-19.23-1.23	beast_fmri_test	390	1374289,/,1374969,/,1375650,/,1376329,/,1377010,/,1377690,/,1378371,/	t,t,t,t,t,t,t	<img class = center src='/static/experiments/beast_fmri_test/images/D.png'></img>	71,89	2750.0	test	<img class = center src='/static/experiments/beast_fmri_test/images/redD.png'></img>	go	1900.0	2.0	23.0	go	non-target	D	71,Index Finger	89,Middle Finger	650.0	850.0	2150.0	1900.0	1.0	850.0	n/a	1.0	ITI
114726	500	n/a	-1	-1	500	0.0	fixation	poldrack-single-stim	441	1379488	0.0-19.24-0.24	beast_fmri_test	390	1379051,/	t	<div class = centerbox2><div class = fixation>+</div></div>	none	500.0	test	n/a	n/a	n/a	n/a	n/a	n/a	n/a	n/a	n/a	n/a	n/a	n/a	n/a	n/a	n/a	n/a	n/a	n/a	fixation
113728.3246529582	2750	n/a	1553	89	2750	1001.67534704	stim	stop-signal	442	1382242	0.0-19.24-1.24	beast_fmri_test	390	1379731,/,1380412,/,1381092,/,1381772,/,1382451,/,1383133,/	t,t,t,t,t,t	<img class = center src='/static/experiments/beast_fmri_test/images/D.png'></img>	71,89	2750.0	test	<img class = center src='/static/experiments/beast_fmri_test/images/redD.png'></img>	go	1900.0	2.0	24.0	go	non-target	D	71,Index Finger	89,Middle Finger	650.0	850.0	2150.0	1900.0	1.0	850.0	n/a	1.0	go_stim
116478.3246529582	1001.6753470417059	n/a	1553	89	2750	1001.67534704	stim	stop-signal	442	1382242	0.0-19.24-1.24	beast_fmri_test	390	1379731,/,1380412,/,1381092,/,1381772,/,1382451,/,1383133,/	t,t,t,t,t,t	<img class = center src='/static/experiments/beast_fmri_test/images/D.png'></img>	71,89	2750.0	test	<img class = center src='/static/experiments/beast_fmri_test/images/redD.png'></img>	go	1900.0	2.0	24.0	go	non-target	D	71,Index Finger	89,Middle Finger	650.0	850.0	2150.0	1900.0	1.0	850.0	n/a	1.0	ITI
119032	500	n/a	-1	-1	500	0.0	fixation	poldrack-single-stim	443	1383794	0.0-19.25-0.25	beast_fmri_test	390	n/a	n/a	<div class = centerbox2><div class = fixation>+</div></div>	none	500.0	test	n/a	n/a	n/a	n/a	n/a	n/a	n/a	n/a	n/a	n/a	n/a	n/a	n/a	n/a	n/a	n/a	n/a	n/a	fixation
118559.47151232464	2750	n/a	774	71	2750	476.528487675	stim	stop-signal	444	1386548	0.0-19.25-1.25	beast_fmri_test	390	1383816,/,1384494,/,1385174,/,1385855,/,1386534,/	t,t,t,t,t	<img class = center src='/static/experiments/beast_fmri_test/images/D.png'></img>	71,89	2750.0	test	<img class = center src='/static/experiments/beast_fmri_test/images/redD.png'></img>	go	2100.0	2.0	25.0	go	target	D	71,Index Finger	89,Middle Finger	650.0	850.0	2100.0	1900.0	1.0	650.0	n/a	1.0	go_stim
121309.47151232464	476.52848767546379	n/a	774	71	2750	476.528487675	stim	stop-signal	444	1386548	0.0-19.25-1.25	beast_fmri_test	390	1383816,/,1384494,/,1385174,/,1385855,/,1386534,/	t,t,t,t,t	<img class = center src='/static/experiments/beast_fmri_test/images/D.png'></img>	71,89	2750.0	test	<img class = center src='/static/experiments/beast_fmri_test/images/redD.png'></img>	go	2100.0	2.0	25.0	go	target	D	71,Index Finger	89,Middle Finger	650.0	850.0	2100.0	1900.0	1.0	650.0	n/a	1.0	ITI
122813	500	n/a	-1	-1	500	0.0	fixation	poldrack-single-stim	445	1387575	0.0-19.26-0.26	beast_fmri_test	390	1387214,/	t	<div class = centerbox2><div class = fixation>+</div></div>	none	500.0	test	n/a	n/a	n/a	n/a	n/a	n/a	n/a	n/a	n/a	n/a	n/a	n/a	n/a	n/a	n/a	n/a	n/a	n/a	fixation
121889.32666043309	2750	n/a	729	71	2750	928.673339567	stim	stop-signal	446	1390330	0.0-19.26-1.26	beast_fmri_test	390	1387895,/,1388576,/,1389256,/,1389936,/,1390617,/	t,t,t,t,t	<img class = center src='/static/experiments/beast_fmri_test/images/D.png'></img>	71,89	2750.0	test	<img class = center src='/static/experiments/beast_fmri_test/images/redD.png'></img>	go	2100.0	2.0	26.0	go	target	D	71,Index Finger	89,Middle Finger	650.0	850.0	2100.0	1900.0	1.0	650.0	n/a	1.0	go_stim
124639.32666043309	928.67333956699122	n/a	729	71	2750	928.673339567	stim	stop-signal	446	1390330	0.0-19.26-1.26	beast_fmri_test	390	1387895,/,1388576,/,1389256,/,1389936,/,1390617,/	t,t,t,t,t	<img class = center src='/static/experiments/beast_fmri_test/images/D.png'></img>	71,89	2750.0	test	<img class = center src='/static/experiments/beast_fmri_test/images/redD.png'></img>	go	2100.0	2.0	26.0	go	target	D	71,Index Finger	89,Middle Finger	650.0	850.0	2100.0	1900.0	1.0	650.0	n/a	1.0	ITI
127047	500	n/a	-1	-1	500	0.0	fixation	poldrack-single-stim	447	1391809	0.0-19.27-0.27	beast_fmri_test	390	1391307,/	t	<div class = centerbox2><div class = fixation>+</div></div>	none	500.0	test	n/a	n/a	n/a	n/a	n/a	n/a	n/a	n/a	n/a	n/a	n/a	n/a	n/a	n/a	n/a	n/a	n/a	n/a	fixation
126818.42933912808	850.0	n/a	1510	89	2750	234.570660872	stim	stop-signal	448	1394565	0.0-19.27-1.27	beast_fmri_test	390	1391976,/,1392658,/,1393338,/,1394018,/,1394698,/	t,t,t,t,t	<img class = center src='/static/experiments/beast_fmri_test/images/B.png'></img>	71,89	2750.0	test	<img class = center src='/static/experiments/beast_fmri_test/images/redB.png'></img>	stop	1900.0	2.0	27.0	stop	non-target	B	71,Index Finger	89,Middle Finger	650.0	850.0	2100.0	1900.0	0.0	850.0	0.0	n/a	go_stim
128718.42933912808	1900.0	n/a	1510	89	2750	234.570660872	stim	stop-signal	448	1394565	0.0-19.27-1.27	beast_fmri_test	390	1391976,/,1392658,/,1393338,/,1394018,/,1394698,/	t,t,t,t,t	<img class = center src='/static/experiments/beast_fmri_test/images/B.png'></img>	71,89	2750.0	test	<img class = center src='/static/experiments/beast_fmri_test/images/redB.png'></img>	stop	1900.0	2.0	27.0	stop	non-target	B	71,Index Finger	89,Middle Finger	650.0	850.0	2100.0	1900.0	0.0	850.0	0.0	n/a	stop_stim
129568.42933912808	234.57066087194409	n/a	1510	89	2750	234.570660872	stim	stop-signal	448	1394565	0.0-19.27-1.27	beast_fmri_test	390	1391976,/,1392658,/,1393338,/,1394018,/,1394698,/	t,t,t,t,t	<img class = center src='/static/experiments/beast_fmri_test/images/B.png'></img>	71,89	2750.0	test	<img class = center src='/static/experiments/beast_fmri_test/images/redB.png'></img>	stop	1900.0	2.0	27.0	stop	non-target	B	71,Index Finger	89,Middle Finger	650.0	850.0	2100.0	1900.0	0.0	850.0	0.0	n/a	ITI
130591	500	n/a	-1	-1	500	0.0	fixation	poldrack-single-stim	449	1395353	0.0-19.28-0.28	beast_fmri_test	390	n/a	n/a	<div class = centerbox2><div class = fixation>+</div></div>	none	500.0	test	n/a	n/a	n/a	n/a	n/a	n/a	n/a	n/a	n/a	n/a	n/a	n/a	n/a	n/a	n/a	n/a	n/a	n/a	fixation
128632.16496309545	2750	n/a	527	71	2750	1962.8350369	stim	stop-signal	450	1398107	0.0-19.28-1.28	beast_fmri_test	390	1395378,/,1396058,/,1396739,/,1397419,/,1398100,/,1398780,/,1399459,/	t,t,t,t,t,t,t	<img class = center src='/static/experiments/beast_fmri_test/images/D.png'></img>	71,89	2750.0	test	<img class = center src='/static/experiments/beast_fmri_test/images/redD.png'></img>	go	2100.0	2.0	28.0	go	target	D	71,Index Finger	89,Middle Finger	650.0	800.0	2100.0	1900.0	1.0	650.0	n/a	1.0	go_stim
131382.16496309545	1962.8350369045734	n/a	527	71	2750	1962.8350369	stim	stop-signal	450	1398107	0.0-19.28-1.28	beast_fmri_test	390	1395378,/,1396058,/,1396739,/,1397419,/,1398100,/,1398780,/,1399459,/	t,t,t,t,t,t,t	<img class = center src='/static/experiments/beast_fmri_test/images/D.png'></img>	71,89	2750.0	test	<img class = center src='/static/experiments/beast_fmri_test/images/redD.png'></img>	go	2100.0	2.0	28.0	go	target	D	71,Index Finger	89,Middle Finger	650.0	800.0	2100.0	1900.0	1.0	650.0	n/a	1.0	ITI
135863	500	n/a	-1	-1	500	0.0	fixation	poldrack-single-stim	451	1400625	0.0-19.29-0.29	beast_fmri_test	390	1400151,/	t	<div class = centerbox2><div class = fixation>+</div></div>	none	500.0	test	n/a	n/a	n/a	n/a	n/a	n/a	n/a	n/a	n/a	n/a	n/a	n/a	n/a	n/a	n/a	n/a	n/a	n/a	fixation
130870.0	2750	n/a	815	89	2750	5000.0	stim	stop-signal	452	1403382	0.0-19.29-1.29	beast_fmri_test	390	1400820,/,1401501,/,1402180,/,1402860,/,1403541,/,1404222,/,1404901,/,1405582,/,1406262,/,1406942,/,1407623,/,1408304,/	t,t,t,t,t,t,t,t,t,t,t,t	<img class = center src='/static/experiments/beast_fmri_test/images/V.png'></img>	71,89	2750.0	test	<img class = center src='/static/experiments/beast_fmri_test/images/redV.png'></img>	go	1950.0	2.0	29.0	go	non-target	V	71,Index Finger	89,Middle Finger	650.0	800.0	2100.0	1950.0	1.0	800.0	n/a	1.0	go_stim
133620.0	5000.0	n/a	815	89	2750	5000.0	stim	stop-signal	452	1403382	0.0-19.29-1.29	beast_fmri_test	390	1400820,/,1401501,/,1402180,/,1402860,/,1403541,/,1404222,/,1404901,/,1405582,/,1406262,/,1406942,/,1407623,/,1408304,/	t,t,t,t,t,t,t,t,t,t,t,t	<img class = center src='/static/experiments/beast_fmri_test/images/V.png'></img>	71,89	2750.0	test	<img class = center src='/static/experiments/beast_fmri_test/images/redV.png'></img>	go	1950.0	2.0	29.0	go	non-target	V	71,Index Finger	89,Middle Finger	650.0	800.0	2100.0	1950.0	1.0	800.0	n/a	1.0	ITI
144173	500	n/a	-1	-1	500	0.0	fixation	poldrack-single-stim	453	1408935	0.0-19.30-0.30	beast_fmri_test	390	n/a	n/a	<div class = centerbox2><div class = fixation>+</div></div>	none	500.0	test	n/a	n/a	n/a	n/a	n/a	n/a	n/a	n/a	n/a	n/a	n/a	n/a	n/a	n/a	n/a	n/a	n/a	n/a	fixation
143700.88218124071	650.0	n/a	-1	-1	2750	477.117818759	stim	stop-signal	454	1411690	0.0-19.30-1.30	beast_fmri_test	390	1408983,/,1409664,/,1410344,/,1411025,/,1411704,/	t,t,t,t,t	<img class = center src='/static/experiments/beast_fmri_test/images/D.png'></img>	71,89	2750.0	test	<img class = center src='/static/experiments/beast_fmri_test/images/redD.png'></img>	stop	2100.0	2.0	30.0	stop	target	D	71,Index Finger	89,Middle Finger	650.0	800.0	2100.0	1950.0	0.0	650.0	1.0	n/a	go_stim
145800.88218124071	2100.0	n/a	-1	-1	2750	477.117818759	stim	stop-signal	454	1411690	0.0-19.30-1.30	beast_fmri_test	390	1408983,/,1409664,/,1410344,/,1411025,/,1411704,/	t,t,t,t,t	<img class = center src='/static/experiments/beast_fmri_test/images/D.png'></img>	71,89	2750.0	test	<img class = center src='/static/experiments/beast_fmri_test/images/redD.png'></img>	stop	2100.0	2.0	30.0	stop	target	D	71,Index Finger	89,Middle Finger	650.0	800.0	2100.0	1950.0	0.0	650.0	1.0	n/a	stop_stim
146450.88218124071	477.11781875918854	n/a	-1	-1	2750	477.117818759	stim	stop-signal	454	1411690	0.0-19.30-1.30	beast_fmri_test	390	1408983,/,1409664,/,1410344,/,1411025,/,1411704,/	t,t,t,t,t	<img class = center src='/static/experiments/beast_fmri_test/images/D.png'></img>	71,89	2750.0	test	<img class = center src='/static/experiments/beast_fmri_test/images/redD.png'></img>	stop	2100.0	2.0	30.0	stop	target	D	71,Index Finger	89,Middle Finger	650.0	800.0	2100.0	1950.0	0.0	650.0	1.0	n/a	ITI
147956	500	n/a	-1	-1	500	0.0	fixation	poldrack-single-stim	455	1412718	0.0-19.31-0.31	beast_fmri_test	390	1412386,/	t	<div class = centerbox2><div class = fixation>+</div></div>	none	500.0	test	n/a	n/a	n/a	n/a	n/a	n/a	n/a	n/a	n/a	n/a	n/a	n/a	n/a	n/a	n/a	n/a	n/a	n/a	fixation
147592.79614406847	2750	n/a	684	71	2750	367.203855932	stim	stop-signal	456	1415472	0.0-19.31-1.31	beast_fmri_test	390	1413066,/,1413746,/,1414427,/,1415107,/,1415787,/	t,t,t,t,t	<img class = center src='/static/experiments/beast_fmri_test/images/V.png'></img>	71,89	2750.0	test	<img class = center src='/static/experiments/beast_fmri_test/images/redV.png'></img>	go	2050.0	2.0	31.0	go	target	V	71,Index Finger	89,Middle Finger	700.0	800.0	2050.0	1950.0	1.0	700.0	n/a	1.0	go_stim
150342.79614406847	367.20385593164235	n/a	684	71	2750	367.203855932	stim	stop-signal	456	1415472	0.0-19.31-1.31	beast_fmri_test	390	1413066,/,1413746,/,1414427,/,1415107,/,1415787,/	t,t,t,t,t	<img class = center src='/static/experiments/beast_fmri_test/images/V.png'></img>	71,89	2750.0	test	<img class = center src='/static/experiments/beast_fmri_test/images/redV.png'></img>	go	2050.0	2.0	31.0	go	target	V	71,Index Finger	89,Middle Finger	700.0	800.0	2050.0	1950.0	1.0	700.0	n/a	1.0	ITI
151633	500	n/a	-1	-1	500	0.0	fixation	poldrack-single-stim	457	1416395	0.0-19.32-0.32	beast_fmri_test	390	n/a	n/a	<div class = centerbox2><div class = fixation>+</div></div>	none	500.0	test	n/a	n/a	n/a	n/a	n/a	n/a	n/a	n/a	n/a	n/a	n/a	n/a	n/a	n/a	n/a	n/a	n/a	n/a	fixation
149778.44269035175	800.0	n/a	-1	-1	2750	1858.55730965	stim	stop-signal	458	1419149	0.0-19.32-1.32	beast_fmri_test	390	1416470,/,1417149,/,1417829,/,1418509,/,1419190,/,1419869,/,1420550,/	t,t,t,t,t,t,t	<img class = center src='/static/experiments/beast_fmri_test/images/T.png'></img>	71,89	2750.0	test	<img class = center src='/static/experiments/beast_fmri_test/images/redT.png'></img>	stop	1950.0	2.0	32.0	stop	non-target	T	71,Index Finger	89,Middle Finger	700.0	800.0	2050.0	1950.0	0.0	800.0	1.0	n/a	go_stim
151728.44269035175	1950.0	n/a	-1	-1	2750	1858.55730965	stim	stop-signal	458	1419149	0.0-19.32-1.32	beast_fmri_test	390	1416470,/,1417149,/,1417829,/,1418509,/,1419190,/,1419869,/,1420550,/	t,t,t,t,t,t,t	<img class = center src='/static/experiments/beast_fmri_test/images/T.png'></img>	71,89	2750.0	test	<img class = center src='/static/experiments/beast_fmri_test/images/redT.png'></img>	stop	1950.0	2.0	32.0	stop	non-target	T	71,Index Finger	89,Middle Finger	700.0	800.0	2050.0	1950.0	0.0	800.0	1.0	n/a	stop_stim
152528.44269035175	1858.5573096482763	n/a	-1	-1	2750	1858.55730965	stim	stop-signal	458	1419149	0.0-19.32-1.32	beast_fmri_test	390	1416470,/,1417149,/,1417829,/,1418509,/,1419190,/,1419869,/,1420550,/	t,t,t,t,t,t,t	<img class = center src='/static/experiments/beast_fmri_test/images/T.png'></img>	71,89	2750.0	test	<img class = center src='/static/experiments/beast_fmri_test/images/redT.png'></img>	stop	1950.0	2.0	32.0	stop	non-target	T	71,Index Finger	89,Middle Finger	700.0	800.0	2050.0	1950.0	0.0	800.0	1.0	n/a	ITI
156799	500	n/a	-1	-1	500	0.0	fixation	poldrack-single-stim	459	1421561	0.0-19.33-0.33	beast_fmri_test	390	1421230,/	t	<div class = centerbox2><div class = fixation>+</div></div>	none	500.0	test	n/a	n/a	n/a	n/a	n/a	n/a	n/a	n/a	n/a	n/a	n/a	n/a	n/a	n/a	n/a	n/a	n/a	n/a	fixation
156729.16467010858	850.0	n/a	-1	-1	2750	74.8353298913	stim	stop-signal	460	1424316	0.0-19.33-1.33	beast_fmri_test	390	1421911,/,1422591,/,1423272,/,1423952,/	t,t,t,t	<img class = center src='/static/experiments/beast_fmri_test/images/T.png'></img>	71,89	2750.0	test	<img class = center src='/static/experiments/beast_fmri_test/images/redT.png'></img>	stop	1900.0	2.0	33.0	stop	non-target	T	71,Index Finger	89,Middle Finger	700.0	850.0	2050.0	1900.0	0.0	850.0	1.0	n/a	go_stim
158629.16467010858	1900.0	n/a	-1	-1	2750	74.8353298913	stim	stop-signal	460	1424316	0.0-19.33-1.33	beast_fmri_test	390	1421911,/,1422591,/,1423272,/,1423952,/	t,t,t,t	<img class = center src='/static/experiments/beast_fmri_test/images/T.png'></img>	71,89	2750.0	test	<img class = center src='/static/experiments/beast_fmri_test/images/redT.png'></img>	stop	1900.0	2.0	33.0	stop	non-target	T	71,Index Finger	89,Middle Finger	700.0	850.0	2050.0	1900.0	0.0	850.0	1.0	n/a	stop_stim
159479.16467010858	74.83532989130731	n/a	-1	-1	2750	74.8353298913	stim	stop-signal	460	1424316	0.0-19.33-1.33	beast_fmri_test	390	1421911,/,1422591,/,1423272,/,1423952,/	t,t,t,t	<img class = center src='/static/experiments/beast_fmri_test/images/T.png'></img>	71,89	2750.0	test	<img class = center src='/static/experiments/beast_fmri_test/images/redT.png'></img>	stop	1900.0	2.0	33.0	stop	non-target	T	71,Index Finger	89,Middle Finger	700.0	850.0	2050.0	1900.0	0.0	850.0	1.0	n/a	ITI
160188	500	n/a	-1	-1	500	0.0	fixation	poldrack-single-stim	461	1424950	0.0-19.34-0.34	beast_fmri_test	390	1424631,/	t	<div class = centerbox2><div class = fixation>+</div></div>	none	500.0	test	n/a	n/a	n/a	n/a	n/a	n/a	n/a	n/a	n/a	n/a	n/a	n/a	n/a	n/a	n/a	n/a	n/a	n/a	fixation
159593.36534120096	900.0	n/a	1490	89	2750	599.634658799	stim	stop-signal	462	1427705	0.0-19.34-1.34	beast_fmri_test	390	1425311,/,1425993,/,1426673,/,1427352,/,1428033,/	t,t,t,t,t	<img class = center src='/static/experiments/beast_fmri_test/images/B.png'></img>	71,89	2750.0	test	<img class = center src='/static/experiments/beast_fmri_test/images/redB.png'></img>	stop	1850.0	2.0	34.0	stop	non-target	B	71,Index Finger	89,Middle Finger	700.0	900.0	2050.0	1850.0	0.0	900.0	0.0	n/a	go_stim
161443.36534120096	1850.0	n/a	1490	89	2750	599.634658799	stim	stop-signal	462	1427705	0.0-19.34-1.34	beast_fmri_test	390	1425311,/,1425993,/,1426673,/,1427352,/,1428033,/	t,t,t,t,t	<img class = center src='/static/experiments/beast_fmri_test/images/B.png'></img>	71,89	2750.0	test	<img class = center src='/static/experiments/beast_fmri_test/images/redB.png'></img>	stop	1850.0	2.0	34.0	stop	non-target	B	71,Index Finger	89,Middle Finger	700.0	900.0	2050.0	1850.0	0.0	900.0	0.0	n/a	stop_stim
162343.36534120096	599.63465879902037	n/a	1490	89	2750	599.634658799	stim	stop-signal	462	1427705	0.0-19.34-1.34	beast_fmri_test	390	1425311,/,1425993,/,1426673,/,1427352,/,1428033,/	t,t,t,t,t	<img class = center src='/static/experiments/beast_fmri_test/images/B.png'></img>	71,89	2750.0	test	<img class = center src='/static/experiments/beast_fmri_test/images/redB.png'></img>	stop	1850.0	2.0	34.0	stop	non-target	B	71,Index Finger	89,Middle Finger	700.0	900.0	2050.0	1850.0	0.0	900.0	0.0	n/a	ITI
164098	500	n/a	-1	-1	500	0.0	fixation	poldrack-single-stim	463	1428860	0.0-19.35-0.35	beast_fmri_test	390	1428714,/	t	<div class = centerbox2><div class = fixation>+</div></div>	none	500.0	test	n/a	n/a	n/a	n/a	n/a	n/a	n/a	n/a	n/a	n/a	n/a	n/a	n/a	n/a	n/a	n/a	n/a	n/a	fixation
161880.35063065519	2750	n/a	-1	-1	2750	2222.64936934	stim	stop-signal	464	1431615	0.0-19.35-1.35	beast_fmri_test	390	1429394,/,1430074,/,1430754,/,1431435,/,1432115,/,1432795,/,1433475,/	t,t,t,t,t,t,t	<img class = center src='/static/experiments/beast_fmri_test/images/P.png'></img>	71,89	2750.0	test	<img class = center src='/static/experiments/beast_fmri_test/images/redP.png'></img>	go	1900.0	2.0	35.0	go	non-target	P	71,Index Finger	89,Middle Finger	700.0	850.0	2050.0	1900.0	0.0	850.0	n/a	0.0	go_stim
164630.35063065519	2222.6493693449147	n/a	-1	-1	2750	2222.64936934	stim	stop-signal	464	1431615	0.0-19.35-1.35	beast_fmri_test	390	1429394,/,1430074,/,1430754,/,1431435,/,1432115,/,1432795,/,1433475,/	t,t,t,t,t,t,t	<img class = center src='/static/experiments/beast_fmri_test/images/P.png'></img>	71,89	2750.0	test	<img class = center src='/static/experiments/beast_fmri_test/images/redP.png'></img>	go	1900.0	2.0	35.0	go	non-target	P	71,Index Finger	89,Middle Finger	700.0	850.0	2050.0	1900.0	0.0	850.0	n/a	0.0	ITI
169638	500	n/a	-1	-1	500	0.0	fixation	poldrack-single-stim	465	1434400	0.0-19.36-0.36	beast_fmri_test	390	1434156,/	t	<div class = centerbox2><div class = fixation>+</div></div>	none	500.0	test	n/a	n/a	n/a	n/a	n/a	n/a	n/a	n/a	n/a	n/a	n/a	n/a	n/a	n/a	n/a	n/a	n/a	n/a	fixation
169212.36415806902	2750	n/a	1822	71	2750	431.635841931	stim	stop-signal	466	1437156	0.0-19.36-1.36	beast_fmri_test	390	1434836,/,1435516,/,1436197,/,1436877,/,1437557,/	t,t,t,t,t	<img class = center src='/static/experiments/beast_fmri_test/images/T.png'></img>	71,89	2750.0	test	<img class = center src='/static/experiments/beast_fmri_test/images/redT.png'></img>	go	1900.0	2.0	36.0	go	non-target	T	71,Index Finger	89,Middle Finger	700.0	850.0	2050.0	1900.0	0.0	850.0	n/a	0.0	go_stim
171962.36415806902	431.63584193086905	n/a	1822	71	2750	431.635841931	stim	stop-signal	466	1437156	0.0-19.36-1.36	beast_fmri_test	390	1434836,/,1435516,/,1436197,/,1436877,/,1437557,/	t,t,t,t,t	<img class = center src='/static/experiments/beast_fmri_test/images/T.png'></img>	71,89	2750.0	test	<img class = center src='/static/experiments/beast_fmri_test/images/redT.png'></img>	go	1900.0	2.0	36.0	go	non-target	T	71,Index Finger	89,Middle Finger	700.0	850.0	2050.0	1900.0	0.0	850.0	n/a	0.0	ITI
173381	500	n/a	-1	-1	500	0.0	fixation	poldrack-single-stim	467	1438143	0.0-19.37-0.37	beast_fmri_test	390	n/a	n/a	<div class = centerbox2><div class = fixation>+</div></div>	none	500.0	test	n/a	n/a	n/a	n/a	n/a	n/a	n/a	n/a	n/a	n/a	n/a	n/a	n/a	n/a	n/a	n/a	n/a	n/a	fixation
172957.90051294956	2750	n/a	1617	89	2750	427.09948705	stim	stop-signal	468	1440897	0.0-19.37-1.37	beast_fmri_test	390	1438237,/,1438917,/,1439598,/,1440278,/,1440958,/	t,t,t,t,t	<img class = center src='/static/experiments/beast_fmri_test/images/V.png'></img>	71,89	2750.0	test	<img class = center src='/static/experiments/beast_fmri_test/images/redV.png'></img>	go	1900.0	2.0	37.0	go	non-target	V	71,Index Finger	89,Middle Finger	700.0	850.0	2050.0	1900.0	1.0	850.0	n/a	1.0	go_stim
175707.90051294956	427.09948705049482	n/a	1617	89	2750	427.09948705	stim	stop-signal	468	1440897	0.0-19.37-1.37	beast_fmri_test	390	1438237,/,1438917,/,1439598,/,1440278,/,1440958,/	t,t,t,t,t	<img class = center src='/static/experiments/beast_fmri_test/images/V.png'></img>	71,89	2750.0	test	<img class = center src='/static/experiments/beast_fmri_test/images/redV.png'></img>	go	1900.0	2.0	37.0	go	non-target	V	71,Index Finger	89,Middle Finger	700.0	850.0	2050.0	1900.0	1.0	850.0	n/a	1.0	ITI
177113	500	n/a	-1	-1	500	0.0	fixation	poldrack-single-stim	469	1441875	0.0-19.38-0.38	beast_fmri_test	390	1441639,/	t	<div class = centerbox2><div class = fixation>+</div></div>	none	500.0	test	n/a	n/a	n/a	n/a	n/a	n/a	n/a	n/a	n/a	n/a	n/a	n/a	n/a	n/a	n/a	n/a	n/a	n/a	fixation
176881.59217656474	2750	n/a	1465	89	2750	236.407823435	stim	stop-signal	470	1444630	0.0-19.38-1.38	beast_fmri_test	390	1442320,/,1442999,/,1443679,/,1444361,/	t,t,t,t	<img class = center src='/static/experiments/beast_fmri_test/images/T.png'></img>	71,89	2750.0	test	<img class = center src='/static/experiments/beast_fmri_test/images/redT.png'></img>	go	2050.0	2.0	38.0	go	target	T	71,Index Finger	89,Middle Finger	700.0	850.0	2050.0	1900.0	0.0	700.0	n/a	0.0	go_stim
179631.59217656474	236.40782343523625	n/a	1465	89	2750	236.407823435	stim	stop-signal	470	1444630	0.0-19.38-1.38	beast_fmri_test	390	1442320,/,1442999,/,1443679,/,1444361,/	t,t,t,t	<img class = center src='/static/experiments/beast_fmri_test/images/T.png'></img>	71,89	2750.0	test	<img class = center src='/static/experiments/beast_fmri_test/images/redT.png'></img>	go	2050.0	2.0	38.0	go	target	T	71,Index Finger	89,Middle Finger	700.0	850.0	2050.0	1900.0	0.0	700.0	n/a	0.0	ITI
180653	500	n/a	-1	-1	500	0.0	fixation	poldrack-single-stim	471	1445415	0.0-19.39-0.39	beast_fmri_test	390	1445042,/	t	<div class = centerbox2><div class = fixation>+</div></div>	none	500.0	test	n/a	n/a	n/a	n/a	n/a	n/a	n/a	n/a	n/a	n/a	n/a	n/a	n/a	n/a	n/a	n/a	n/a	n/a	fixation
180500.46915750368	700.0	n/a	703	71	2750	157.530842496	stim	stop-signal	472	1448170	0.0-19.39-1.39	beast_fmri_test	390	1445722,/,1446402,/,1447081,/,1447762,/	t,t,t,t	<img class = center src='/static/experiments/beast_fmri_test/images/V.png'></img>	71,89	2750.0	test	<img class = center src='/static/experiments/beast_fmri_test/images/redV.png'></img>	stop	2050.0	2.0	39.0	stop	target	V	71,Index Finger	89,Middle Finger	700.0	850.0	2050.0	1900.0	0.0	700.0	0.0	n/a	go_stim
182550.46915750368	2050.0	n/a	703	71	2750	157.530842496	stim	stop-signal	472	1448170	0.0-19.39-1.39	beast_fmri_test	390	1445722,/,1446402,/,1447081,/,1447762,/	t,t,t,t	<img class = center src='/static/experiments/beast_fmri_test/images/V.png'></img>	71,89	2750.0	test	<img class = center src='/static/experiments/beast_fmri_test/images/redV.png'></img>	stop	2050.0	2.0	39.0	stop	target	V	71,Index Finger	89,Middle Finger	700.0	850.0	2050.0	1900.0	0.0	700.0	0.0	n/a	stop_stim
183250.46915750368	157.53084249623487	n/a	703	71	2750	157.530842496	stim	stop-signal	472	1448170	0.0-19.39-1.39	beast_fmri_test	390	1445722,/,1446402,/,1447081,/,1447762,/	t,t,t,t	<img class = center src='/static/experiments/beast_fmri_test/images/V.png'></img>	71,89	2750.0	test	<img class = center src='/static/experiments/beast_fmri_test/images/redV.png'></img>	stop	2050.0	2.0	39.0	stop	target	V	71,Index Finger	89,Middle Finger	700.0	850.0	2050.0	1900.0	0.0	700.0	0.0	n/a	ITI
184113	500	n/a	-1	-1	500	0.0	fixation	poldrack-single-stim	473	1448875	0.0-19.40-0.40	beast_fmri_test	390	1448443,/	t	<div class = centerbox2><div class = fixation>+</div></div>	none	500.0	test	n/a	n/a	n/a	n/a	n/a	n/a	n/a	n/a	n/a	n/a	n/a	n/a	n/a	n/a	n/a	n/a	n/a	n/a	fixation
183969.43675208185	2750	n/a	909	89	2750	148.563247918	stim	stop-signal	474	1451630	0.0-19.40-1.40	beast_fmri_test	390	1449123,/,1449802,/,1450483,/,1451164,/	t,t,t,t	<img class = center src='/static/experiments/beast_fmri_test/images/D.png'></img>	71,89	2750.0	test	<img class = center src='/static/experiments/beast_fmri_test/images/redD.png'></img>	go	1900.0	2.0	40.0	go	non-target	D	71,Index Finger	89,Middle Finger	650.0	850.0	2050.0	1900.0	1.0	850.0	n/a	1.0	go_stim
186719.43675208185	148.5632479181921	n/a	909	89	2750	148.563247918	stim	stop-signal	474	1451630	0.0-19.40-1.40	beast_fmri_test	390	1449123,/,1449802,/,1450483,/,1451164,/	t,t,t,t	<img class = center src='/static/experiments/beast_fmri_test/images/D.png'></img>	71,89	2750.0	test	<img class = center src='/static/experiments/beast_fmri_test/images/redD.png'></img>	go	1900.0	2.0	40.0	go	non-target	D	71,Index Finger	89,Middle Finger	650.0	850.0	2050.0	1900.0	1.0	850.0	n/a	1.0	ITI
187568	500	n/a	-1	-1	500	0.0	fixation	poldrack-single-stim	475	1452330	0.0-19.41-0.41	beast_fmri_test	390	1451843,/	t	<div class = centerbox2><div class = fixation>+</div></div>	none	500.0	test	n/a	n/a	n/a	n/a	n/a	n/a	n/a	n/a	n/a	n/a	n/a	n/a	n/a	n/a	n/a	n/a	n/a	n/a	fixation
187367.03518610145	850.0	n/a	-1	-1	2750	204.964813898	stim	stop-signal	476	1455084	0.0-19.41-1.41	beast_fmri_test	390	1452524,/,1453203,/,1453884,/,1454565,/,1455244,/	t,t,t,t,t	<img class = center src='/static/experiments/beast_fmri_test/images/T.png'></img>	71,89	2750.0	test	<img class = center src='/static/experiments/beast_fmri_test/images/redT.png'></img>	stop	1900.0	2.0	41.0	stop	non-target	T	71,Index Finger	89,Middle Finger	650.0	850.0	2050.0	1900.0	0.0	850.0	1.0	n/a	go_stim
189267.03518610145	1900.0	n/a	-1	-1	2750	204.964813898	stim	stop-signal	476	1455084	0.0-19.41-1.41	beast_fmri_test	390	1452524,/,1453203,/,1453884,/,1454565,/,1455244,/	t,t,t,t,t	<img class = center src='/static/experiments/beast_fmri_test/images/T.png'></img>	71,89	2750.0	test	<img class = center src='/static/experiments/beast_fmri_test/images/redT.png'></img>	stop	1900.0	2.0	41.0	stop	non-target	T	71,Index Finger	89,Middle Finger	650.0	850.0	2050.0	1900.0	0.0	850.0	1.0	n/a	stop_stim
190117.03518610145	204.96481389849328	n/a	-1	-1	2750	204.964813898	stim	stop-signal	476	1455084	0.0-19.41-1.41	beast_fmri_test	390	1452524,/,1453203,/,1453884,/,1454565,/,1455244,/	t,t,t,t,t	<img class = center src='/static/experiments/beast_fmri_test/images/T.png'></img>	71,89	2750.0	test	<img class = center src='/static/experiments/beast_fmri_test/images/redT.png'></img>	stop	1900.0	2.0	41.0	stop	non-target	T	71,Index Finger	89,Middle Finger	650.0	850.0	2050.0	1900.0	0.0	850.0	1.0	n/a	ITI
191076	500	n/a	-1	-1	500	0.0	fixation	poldrack-single-stim	477	1455838	0.0-19.42-0.42	beast_fmri_test	390	n/a	n/a	<div class = centerbox2><div class = fixation>+</div></div>	none	500.0	test	n/a	n/a	n/a	n/a	n/a	n/a	n/a	n/a	n/a	n/a	n/a	n/a	n/a	n/a	n/a	n/a	n/a	n/a	fixation
190948.62910193135	2750	n/a	1687	71	2750	131.370898069	stim	stop-signal	478	1458592	0.0-19.42-1.42	beast_fmri_test	390	1455926,/,1456606,/,1457286,/,1457966,/,1458645,/	t,t,t,t,t	<img class = center src='/static/experiments/beast_fmri_test/images/V.png'></img>	71,89	2750.0	test	<img class = center src='/static/experiments/beast_fmri_test/images/redV.png'></img>	go	1850.0	2.0	42.0	go	non-target	V	71,Index Finger	89,Middle Finger	650.0	900.0	2050.0	1850.0	0.0	900.0	n/a	0.0	go_stim
193698.62910193135	131.37089806871396	n/a	1687	71	2750	131.370898069	stim	stop-signal	478	1458592	0.0-19.42-1.42	beast_fmri_test	390	1455926,/,1456606,/,1457286,/,1457966,/,1458645,/	t,t,t,t,t	<img class = center src='/static/experiments/beast_fmri_test/images/V.png'></img>	71,89	2750.0	test	<img class = center src='/static/experiments/beast_fmri_test/images/redV.png'></img>	go	1850.0	2.0	42.0	go	non-target	V	71,Index Finger	89,Middle Finger	650.0	900.0	2050.0	1850.0	0.0	900.0	n/a	0.0	ITI
194514	500	n/a	-1	-1	500	0.0	fixation	poldrack-single-stim	479	1459276	0.0-19.43-0.43	beast_fmri_test	390	n/a	n/a	<div class = centerbox2><div class = fixation>+</div></div>	none	500.0	test	n/a	n/a	n/a	n/a	n/a	n/a	n/a	n/a	n/a	n/a	n/a	n/a	n/a	n/a	n/a	n/a	n/a	n/a	fixation
193276.75753351953	2750	n/a	1404	89	2750	1240.24246648	stim	stop-signal	480	1462029	0.0-19.43-1.43	beast_fmri_test	390	1459326,/,1460007,/,1460686,/,1461368,/,1462048,/,1462727,/	t,t,t,t,t,t	<img class = center src='/static/experiments/beast_fmri_test/images/P.png'></img>	71,89	2750.0	test	<img class = center src='/static/experiments/beast_fmri_test/images/redP.png'></img>	go	1850.0	2.0	43.0	go	non-target	P	71,Index Finger	89,Middle Finger	650.0	900.0	2050.0	1850.0	1.0	900.0	n/a	1.0	go_stim
196026.75753351953	1240.2424664805812	n/a	1404	89	2750	1240.24246648	stim	stop-signal	480	1462029	0.0-19.43-1.43	beast_fmri_test	390	1459326,/,1460007,/,1460686,/,1461368,/,1462048,/,1462727,/	t,t,t,t,t,t	<img class = center src='/static/experiments/beast_fmri_test/images/P.png'></img>	71,89	2750.0	test	<img class = center src='/static/experiments/beast_fmri_test/images/redP.png'></img>	go	1850.0	2.0	43.0	go	non-target	P	71,Index Finger	89,Middle Finger	650.0	900.0	2050.0	1850.0	1.0	900.0	n/a	1.0	ITI
199054	500	n/a	-1	-1	500	0.0	fixation	poldrack-single-stim	481	1463816	0.0-19.44-0.44	beast_fmri_test	390	1463408,/	t	<div class = centerbox2><div class = fixation>+</div></div>	none	500.0	test	n/a	n/a	n/a	n/a	n/a	n/a	n/a	n/a	n/a	n/a	n/a	n/a	n/a	n/a	n/a	n/a	n/a	n/a	fixation
198880.28990226891	2750	n/a	1130	89	2750	176.710097731	stim	stop-signal	482	1466569	0.0-19.44-1.44	beast_fmri_test	390	1464088,/,1464768,/,1465450,/,1466129,/	t,t,t,t	<img class = center src='/static/experiments/beast_fmri_test/images/D.png'></img>	71,89	2750.0	test	<img class = center src='/static/experiments/beast_fmri_test/images/redD.png'></img>	go	1850.0	2.0	44.0	go	non-target	D	71,Index Finger	89,Middle Finger	650.0	900.0	2050.0	1850.0	1.0	900.0	n/a	1.0	go_stim
201630.28990226891	176.7100977311076	n/a	1130	89	2750	176.710097731	stim	stop-signal	482	1466569	0.0-19.44-1.44	beast_fmri_test	390	1464088,/,1464768,/,1465450,/,1466129,/	t,t,t,t	<img class = center src='/static/experiments/beast_fmri_test/images/D.png'></img>	71,89	2750.0	test	<img class = center src='/static/experiments/beast_fmri_test/images/redD.png'></img>	go	1850.0	2.0	44.0	go	non-target	D	71,Index Finger	89,Middle Finger	650.0	900.0	2050.0	1850.0	1.0	900.0	n/a	1.0	ITI
202532	500	n/a	-1	-1	500	0.0	fixation	poldrack-single-stim	483	1467294	0.0-19.45-0.45	beast_fmri_test	390	1466810,/	t	<div class = centerbox2><div class = fixation>+</div></div>	none	500.0	test	n/a	n/a	n/a	n/a	n/a	n/a	n/a	n/a	n/a	n/a	n/a	n/a	n/a	n/a	n/a	n/a	n/a	n/a	fixation
201771.56573537551	2750	n/a	421	71	2750	765.434264625	stim	stop-signal	484	1470049	0.0-19.45-1.45	beast_fmri_test	390	1467490,/,1468170,/,1468851,/,1469531,/,1470212,/	t,t,t,t,t	<img class = center src='/static/experiments/beast_fmri_test/images/P.png'></img>	71,89	2750.0	test	<img class = center src='/static/experiments/beast_fmri_test/images/redP.png'></img>	go	2100.0	2.0	45.0	go	target	P	71,Index Finger	89,Middle Finger	650.0	900.0	2100.0	1850.0	1.0	650.0	n/a	1.0	go_stim
204521.56573537551	765.43426462457433	n/a	421	71	2750	765.434264625	stim	stop-signal	484	1470049	0.0-19.45-1.45	beast_fmri_test	390	1467490,/,1468170,/,1468851,/,1469531,/,1470212,/	t,t,t,t,t	<img class = center src='/static/experiments/beast_fmri_test/images/P.png'></img>	71,89	2750.0	test	<img class = center src='/static/experiments/beast_fmri_test/images/redP.png'></img>	go	2100.0	2.0	45.0	go	target	P	71,Index Finger	89,Middle Finger	650.0	900.0	2100.0	1850.0	1.0	650.0	n/a	1.0	ITI
206602	500	n/a	-1	-1	500	0.0	fixation	poldrack-single-stim	485	1471364	0.0-19.46-0.46	beast_fmri_test	390	1470890,/	t	<div class = centerbox2><div class = fixation>+</div></div>	none	500.0	test	n/a	n/a	n/a	n/a	n/a	n/a	n/a	n/a	n/a	n/a	n/a	n/a	n/a	n/a	n/a	n/a	n/a	n/a	fixation
205453.25311602862	2750	n/a	749	71	2750	1153.74688397	stim	stop-signal	486	1474119	0.0-19.46-1.46	beast_fmri_test	390	1471572,/,1472252,/,1472931,/,1473612,/,1474295,/,1474973,/	t,t,t,t,t,t	<img class = center src='/static/experiments/beast_fmri_test/images/D.png'></img>	71,89	2750.0	test	<img class = center src='/static/experiments/beast_fmri_test/images/redD.png'></img>	go	2100.0	2.0	46.0	go	target	D	71,Index Finger	89,Middle Finger	650.0	900.0	2100.0	1850.0	1.0	650.0	n/a	1.0	go_stim
208203.25311602862	1153.7468839713049	n/a	749	71	2750	1153.74688397	stim	stop-signal	486	1474119	0.0-19.46-1.46	beast_fmri_test	390	1471572,/,1472252,/,1472931,/,1473612,/,1474295,/,1474973,/	t,t,t,t,t,t	<img class = center src='/static/experiments/beast_fmri_test/images/D.png'></img>	71,89	2750.0	test	<img class = center src='/static/experiments/beast_fmri_test/images/redD.png'></img>	go	2100.0	2.0	46.0	go	target	D	71,Index Finger	89,Middle Finger	650.0	900.0	2100.0	1850.0	1.0	650.0	n/a	1.0	ITI
225566	15000	n/a	-1	-1	15000	0.0	practice-no-stop-feedback	poldrack-single-stim	487	1490328	0.0-20.0	beast_fmri_test	390	1475655,/,1476335,/,1477015,/,1477695,/,1478375,/,1479056,/,1479735,/,1480416,/,1481097,/,1481777,/,1482457,/,1483138,/,1483817,/,1484499,/,1485179,/,1485859,/,1486538,/,1487220,/,1487898,/,1488580,/,1489259,/,1489939,/	t,t,t,t,t,t,t,t,t,t,t,t,t,t,t,t,t,t,t,t,t,t	"<div class = ""centerbox2_2""><p class = ""block-text2"">Your delay is 1 trials.</p><p class = block-text2>Please wait for the scanner to start the block</p></div>"	77	15000.0	n/a	n/a	n/a	n/a	n/a	n/a	n/a	n/a	n/a	n/a	n/a	n/a	n/a	n/a	n/a	n/a	n/a	n/a	n/a	practice-no-stop-feedback
226069	500	n/a	-1	-1	500	0.0	fixation	poldrack-single-stim	488	1490831	0.0-21.0-0.0	beast_fmri_test	390	1490621,/	t	<div class = centerbox2><div class = fixation>+</div></div>	none	500.0	test	n/a	n/a	n/a	n/a	n/a	n/a	n/a	n/a	n/a	n/a	n/a	n/a	n/a	n/a	n/a	n/a	n/a	n/a	fixation
225153.88858813047	2750	n/a	1240	89	2750	919.11141187	stim	stop-signal	489	1493585	0.0-21.0-1.0	beast_fmri_test	390	1491301,/,1491981,/,1492662,/,1493342,/,1494022,/	t,t,t,t,t	<img class = center src='/static/experiments/beast_fmri_test/images/P.png'></img>	71,89	2750.0	test	<img class = center src='/static/experiments/beast_fmri_test/images/redP.png'></img>	go	-1.0	1.0	0.0	go	temp-non-target	P	71,Index Finger	89,Middle Finger	650.0	900.0	2100.0	1850.0	0.0	n/a	n/a	n/a	go_stim
227903.88858813047	919.1114118695366	n/a	1240	89	2750	919.11141187	stim	stop-signal	489	1493585	0.0-21.0-1.0	beast_fmri_test	390	1491301,/,1491981,/,1492662,/,1493342,/,1494022,/	t,t,t,t,t	<img class = center src='/static/experiments/beast_fmri_test/images/P.png'></img>	71,89	2750.0	test	<img class = center src='/static/experiments/beast_fmri_test/images/redP.png'></img>	go	-1.0	1.0	0.0	go	temp-non-target	P	71,Index Finger	89,Middle Finger	650.0	900.0	2100.0	1850.0	0.0	n/a	n/a	n/a	ITI
230303	500	n/a	-1	-1	500	0.0	fixation	poldrack-single-stim	490	1495065	0.0-21.1-0.1	beast_fmri_test	390	1494703,/	t	<div class = centerbox2><div class = fixation>+</div></div>	none	500.0	test	n/a	n/a	n/a	n/a	n/a	n/a	n/a	n/a	n/a	n/a	n/a	n/a	n/a	n/a	n/a	n/a	n/a	n/a	fixation
228566.10419184132	2750	n/a	764	89	2750	1741.89580816	stim	stop-signal	491	1497820	0.0-21.1-1.1	beast_fmri_test	390	1495383,/,1496063,/,1496743,/,1497424,/,1498104,/,1498784,/,1499465,/	t,t,t,t,t,t,t	<img class = center src='/static/experiments/beast_fmri_test/images/V.png'></img>	71,89	2750.0	test	<img class = center src='/static/experiments/beast_fmri_test/images/redV.png'></img>	go	1850.0	1.0	1.0	go	non-target	V	71,Index Finger	89,Middle Finger	650.0	900.0	2100.0	1850.0	1.0	900.0	n/a	1.0	go_stim
231316.10419184132	1741.8958081586347	n/a	764	89	2750	1741.89580816	stim	stop-signal	491	1497820	0.0-21.1-1.1	beast_fmri_test	390	1495383,/,1496063,/,1496743,/,1497424,/,1498104,/,1498784,/,1499465,/	t,t,t,t,t,t,t	<img class = center src='/static/experiments/beast_fmri_test/images/V.png'></img>	71,89	2750.0	test	<img class = center src='/static/experiments/beast_fmri_test/images/redV.png'></img>	go	1850.0	1.0	1.0	go	non-target	V	71,Index Finger	89,Middle Finger	650.0	900.0	2100.0	1850.0	1.0	900.0	n/a	1.0	ITI
235353	500	n/a	-1	-1	500	0.0	fixation	poldrack-single-stim	492	1500115	0.0-21.2-0.2	beast_fmri_test	390	n/a	n/a	<div class = centerbox2><div class = fixation>+</div></div>	none	500.0	test	n/a	n/a	n/a	n/a	n/a	n/a	n/a	n/a	n/a	n/a	n/a	n/a	n/a	n/a	n/a	n/a	n/a	n/a	fixation
235066.18070813641	2750	n/a	749	89	2750	292.819291864	stim	stop-signal	493	1502871	0.0-21.2-1.2	beast_fmri_test	390	1500145,/,1500829,/,1501506,/,1502186,/,1502867,/	t,t,t,t,t	<img class = center src='/static/experiments/beast_fmri_test/images/T.png'></img>	71,89	2750.0	test	<img class = center src='/static/experiments/beast_fmri_test/images/redT.png'></img>	go	1850.0	1.0	2.0	go	non-target	T	71,Index Finger	89,Middle Finger	650.0	900.0	2100.0	1850.0	1.0	900.0	n/a	1.0	go_stim
237816.18070813641	292.81929186357894	n/a	749	89	2750	292.819291864	stim	stop-signal	493	1502871	0.0-21.2-1.2	beast_fmri_test	390	1500145,/,1500829,/,1501506,/,1502186,/,1502867,/	t,t,t,t,t	<img class = center src='/static/experiments/beast_fmri_test/images/T.png'></img>	71,89	2750.0	test	<img class = center src='/static/experiments/beast_fmri_test/images/redT.png'></img>	go	1850.0	1.0	2.0	go	non-target	T	71,Index Finger	89,Middle Finger	650.0	900.0	2100.0	1850.0	1.0	900.0	n/a	1.0	ITI
238953	500	n/a	-1	-1	500	0.0	fixation	poldrack-single-stim	494	1503715	0.0-21.3-0.3	beast_fmri_test	390	1503547,/	t	<div class = centerbox2><div class = fixation>+</div></div>	none	500.0	test	n/a	n/a	n/a	n/a	n/a	n/a	n/a	n/a	n/a	n/a	n/a	n/a	n/a	n/a	n/a	n/a	n/a	n/a	fixation
237125.12204211298	2750	n/a	621	89	2750	1831.87795789	stim	stop-signal	495	1506469	0.0-21.3-1.3	beast_fmri_test	390	1504227,/,1504907,/,1505588,/,1506268,/,1506948,/,1507629,/	t,t,t,t,t,t	<img class = center src='/static/experiments/beast_fmri_test/images/D.png'></img>	71,89	2750.0	test	<img class = center src='/static/experiments/beast_fmri_test/images/redD.png'></img>	go	1850.0	1.0	3.0	go	non-target	D	71,Index Finger	89,Middle Finger	650.0	900.0	2100.0	1850.0	1.0	900.0	n/a	1.0	go_stim
239875.12204211298	1831.8779578869596	n/a	621	89	2750	1831.87795789	stim	stop-signal	495	1506469	0.0-21.3-1.3	beast_fmri_test	390	1504227,/,1504907,/,1505588,/,1506268,/,1506948,/,1507629,/	t,t,t,t,t,t	<img class = center src='/static/experiments/beast_fmri_test/images/D.png'></img>	71,89	2750.0	test	<img class = center src='/static/experiments/beast_fmri_test/images/redD.png'></img>	go	1850.0	1.0	3.0	go	non-target	D	71,Index Finger	89,Middle Finger	650.0	900.0	2100.0	1850.0	1.0	900.0	n/a	1.0	ITI
244089	500	n/a	-1	-1	500	0.0	fixation	poldrack-single-stim	496	1508851	0.0-21.4-0.4	beast_fmri_test	390	1508349,/	t	<div class = centerbox2><div class = fixation>+</div></div>	none	500.0	test	n/a	n/a	n/a	n/a	n/a	n/a	n/a	n/a	n/a	n/a	n/a	n/a	n/a	n/a	n/a	n/a	n/a	n/a	fixation
243349.46001436259	2750	n/a	649	89	2750	744.539985638	stim	stop-signal	497	1511606	0.0-21.4-1.4	beast_fmri_test	390	1508989,/,1509669,/,1510348,/,1511030,/,1511710,/	t,t,t,t,t	<img class = center src='/static/experiments/beast_fmri_test/images/T.png'></img>	71,89	2750.0	test	<img class = center src='/static/experiments/beast_fmri_test/images/redT.png'></img>	go	1850.0	1.0	4.0	go	non-target	T	71,Index Finger	89,Middle Finger	650.0	900.0	2100.0	1850.0	1.0	900.0	n/a	1.0	go_stim
246099.46001436259	744.53998563751281	n/a	649	89	2750	744.539985638	stim	stop-signal	497	1511606	0.0-21.4-1.4	beast_fmri_test	390	1508989,/,1509669,/,1510348,/,1511030,/,1511710,/	t,t,t,t,t	<img class = center src='/static/experiments/beast_fmri_test/images/T.png'></img>	71,89	2750.0	test	<img class = center src='/static/experiments/beast_fmri_test/images/redT.png'></img>	go	1850.0	1.0	4.0	go	non-target	T	71,Index Finger	89,Middle Finger	650.0	900.0	2100.0	1850.0	1.0	900.0	n/a	1.0	ITI
248141	500	n/a	-1	-1	500	0.0	fixation	poldrack-single-stim	498	1512903	0.0-21.5-0.5	beast_fmri_test	390	1512401,/	t	<div class = centerbox2><div class = fixation>+</div></div>	none	500.0	test	n/a	n/a	n/a	n/a	n/a	n/a	n/a	n/a	n/a	n/a	n/a	n/a	n/a	n/a	n/a	n/a	n/a	n/a	fixation
247466.47598420898	2750	n/a	588	71	2750	679.524015791	stim	stop-signal	499	1515658	0.0-21.5-1.5	beast_fmri_test	390	1513071,/,1513751,/,1514431,/,1515112,/,1515792,/	t,t,t,t,t	<img class = center src='/static/experiments/beast_fmri_test/images/T.png'></img>	71,89	2750.0	test	<img class = center src='/static/experiments/beast_fmri_test/images/redT.png'></img>	go	2100.0	1.0	5.0	go	target	T	71,Index Finger	89,Middle Finger	650.0	900.0	2100.0	1850.0	1.0	650.0	n/a	1.0	go_stim
250216.47598420898	679.52401579094237	n/a	588	71	2750	679.524015791	stim	stop-signal	499	1515658	0.0-21.5-1.5	beast_fmri_test	390	1513071,/,1513751,/,1514431,/,1515112,/,1515792,/	t,t,t,t,t	<img class = center src='/static/experiments/beast_fmri_test/images/T.png'></img>	71,89	2750.0	test	<img class = center src='/static/experiments/beast_fmri_test/images/redT.png'></img>	go	2100.0	1.0	5.0	go	target	T	71,Index Finger	89,Middle Finger	650.0	900.0	2100.0	1850.0	1.0	650.0	n/a	1.0	ITI
252126	500	n/a	-1	-1	500	0.0	fixation	poldrack-single-stim	500	1516888	0.0-21.6-0.6	beast_fmri_test	390	1516473,/	t	<div class = centerbox2><div class = fixation>+</div></div>	none	500.0	test	n/a	n/a	n/a	n/a	n/a	n/a	n/a	n/a	n/a	n/a	n/a	n/a	n/a	n/a	n/a	n/a	n/a	n/a	fixation
251712.04331260733	650.0	n/a	607	71	2750	418.956687393	stim	stop-signal	501	1519643	0.0-21.6-1.6	beast_fmri_test	390	1517153,/,1517834,/,1518513,/,1519193,/,1519873,/	t,t,t,t,t	<img class = center src='/static/experiments/beast_fmri_test/images/T.png'></img>	71,89	2750.0	test	<img class = center src='/static/experiments/beast_fmri_test/images/redT.png'></img>	stop	2100.0	1.0	6.0	stop	target	T	71,Index Finger	89,Middle Finger	650.0	900.0	2100.0	1850.0	0.0	650.0	0.0	n/a	go_stim
253812.04331260733	2100.0	n/a	607	71	2750	418.956687393	stim	stop-signal	501	1519643	0.0-21.6-1.6	beast_fmri_test	390	1517153,/,1517834,/,1518513,/,1519193,/,1519873,/	t,t,t,t,t	<img class = center src='/static/experiments/beast_fmri_test/images/T.png'></img>	71,89	2750.0	test	<img class = center src='/static/experiments/beast_fmri_test/images/redT.png'></img>	stop	2100.0	1.0	6.0	stop	target	T	71,Index Finger	89,Middle Finger	650.0	900.0	2100.0	1850.0	0.0	650.0	0.0	n/a	stop_stim
254462.04331260733	418.95668739273066	n/a	607	71	2750	418.956687393	stim	stop-signal	501	1519643	0.0-21.6-1.6	beast_fmri_test	390	1517153,/,1517834,/,1518513,/,1519193,/,1519873,/	t,t,t,t,t	<img class = center src='/static/experiments/beast_fmri_test/images/T.png'></img>	71,89	2750.0	test	<img class = center src='/static/experiments/beast_fmri_test/images/redT.png'></img>	stop	2100.0	1.0	6.0	stop	target	T	71,Index Finger	89,Middle Finger	650.0	900.0	2100.0	1850.0	0.0	650.0	0.0	n/a	ITI
255848	500	n/a	-1	-1	500	0.0	fixation	poldrack-single-stim	502	1520610	0.0-21.7-0.7	beast_fmri_test	390	1520554,/	t	<div class = centerbox2><div class = fixation>+</div></div>	none	500.0	test	n/a	n/a	n/a	n/a	n/a	n/a	n/a	n/a	n/a	n/a	n/a	n/a	n/a	n/a	n/a	n/a	n/a	n/a	fixation
255725.4727140537	900.0	n/a	-1	-1	2750	126.527285946	stim	stop-signal	503	1523364	0.0-21.7-1.7	beast_fmri_test	390	1521235,/,1521915,/,1522595,/,1523274,/	t,t,t,t	<img class = center src='/static/experiments/beast_fmri_test/images/B.png'></img>	71,89	2750.0	test	<img class = center src='/static/experiments/beast_fmri_test/images/redB.png'></img>	stop	1850.0	1.0	7.0	stop	non-target	B	71,Index Finger	89,Middle Finger	600.0	900.0	2100.0	1850.0	0.0	900.0	1.0	n/a	go_stim
257575.4727140537	1850.0	n/a	-1	-1	2750	126.527285946	stim	stop-signal	503	1523364	0.0-21.7-1.7	beast_fmri_test	390	1521235,/,1521915,/,1522595,/,1523274,/	t,t,t,t	<img class = center src='/static/experiments/beast_fmri_test/images/B.png'></img>	71,89	2750.0	test	<img class = center src='/static/experiments/beast_fmri_test/images/redB.png'></img>	stop	1850.0	1.0	7.0	stop	non-target	B	71,Index Finger	89,Middle Finger	600.0	900.0	2100.0	1850.0	0.0	900.0	1.0	n/a	stop_stim
258475.4727140537	126.52728594637483	n/a	-1	-1	2750	126.527285946	stim	stop-signal	503	1523364	0.0-21.7-1.7	beast_fmri_test	390	1521235,/,1521915,/,1522595,/,1523274,/	t,t,t,t	<img class = center src='/static/experiments/beast_fmri_test/images/B.png'></img>	71,89	2750.0	test	<img class = center src='/static/experiments/beast_fmri_test/images/redB.png'></img>	stop	1850.0	1.0	7.0	stop	non-target	B	71,Index Finger	89,Middle Finger	600.0	900.0	2100.0	1850.0	0.0	900.0	1.0	n/a	ITI
259282	500	n/a	-1	-1	500	0.0	fixation	poldrack-single-stim	504	1524044	0.0-21.8-0.8	beast_fmri_test	390	1523955,/	t	<div class = centerbox2><div class = fixation>+</div></div>	none	500.0	test	n/a	n/a	n/a	n/a	n/a	n/a	n/a	n/a	n/a	n/a	n/a	n/a	n/a	n/a	n/a	n/a	n/a	n/a	fixation
258146.87361869402	2750	n/a	746	89	2750	1139.12638131	stim	stop-signal	505	1526798	0.0-21.8-1.8	beast_fmri_test	390	1524636,/,1525316,/,1525996,/,1526676,/,1527357,/	t,t,t,t,t	<img class = center src='/static/experiments/beast_fmri_test/images/D.png'></img>	71,89	2750.0	test	<img class = center src='/static/experiments/beast_fmri_test/images/redD.png'></img>	go	1800.0	1.0	8.0	go	non-target	D	71,Index Finger	89,Middle Finger	600.0	950.0	2100.0	1800.0	1.0	950.0	n/a	1.0	go_stim
260896.87361869402	1139.1263813060334	n/a	746	89	2750	1139.12638131	stim	stop-signal	505	1526798	0.0-21.8-1.8	beast_fmri_test	390	1524636,/,1525316,/,1525996,/,1526676,/,1527357,/	t,t,t,t,t	<img class = center src='/static/experiments/beast_fmri_test/images/D.png'></img>	71,89	2750.0	test	<img class = center src='/static/experiments/beast_fmri_test/images/redD.png'></img>	go	1800.0	1.0	8.0	go	non-target	D	71,Index Finger	89,Middle Finger	600.0	950.0	2100.0	1800.0	1.0	950.0	n/a	1.0	ITI
263726	500	n/a	-1	-1	500	0.0	fixation	poldrack-single-stim	506	1528488	0.0-21.9-0.9	beast_fmri_test	390	1528036,/	t	<div class = centerbox2><div class = fixation>+</div></div>	none	500.0	test	n/a	n/a	n/a	n/a	n/a	n/a	n/a	n/a	n/a	n/a	n/a	n/a	n/a	n/a	n/a	n/a	n/a	n/a	fixation
263073.5624100517	2750	n/a	940	89	2750	657.437589948	stim	stop-signal	507	1531243	0.0-21.9-1.9	beast_fmri_test	390	1528717,/,1529399,/,1530078,/,1530760,/,1531439,/	t,t,t,t,t	<img class = center src='/static/experiments/beast_fmri_test/images/B.png'></img>	71,89	2750.0	test	<img class = center src='/static/experiments/beast_fmri_test/images/redB.png'></img>	go	1800.0	1.0	9.0	go	non-target	B	71,Index Finger	89,Middle Finger	600.0	950.0	2100.0	1800.0	1.0	950.0	n/a	1.0	go_stim
265823.5624100517	657.43758994837879	n/a	940	89	2750	657.437589948	stim	stop-signal	507	1531243	0.0-21.9-1.9	beast_fmri_test	390	1528717,/,1529399,/,1530078,/,1530760,/,1531439,/	t,t,t,t,t	<img class = center src='/static/experiments/beast_fmri_test/images/B.png'></img>	71,89	2750.0	test	<img class = center src='/static/experiments/beast_fmri_test/images/redB.png'></img>	go	1800.0	1.0	9.0	go	non-target	B	71,Index Finger	89,Middle Finger	600.0	950.0	2100.0	1800.0	1.0	950.0	n/a	1.0	ITI
267687	500	n/a	-1	-1	500	0.0	fixation	poldrack-single-stim	508	1532449	0.0-21.10-0.10	beast_fmri_test	390	1532121,/	t	<div class = centerbox2><div class = fixation>+</div></div>	none	500.0	test	n/a	n/a	n/a	n/a	n/a	n/a	n/a	n/a	n/a	n/a	n/a	n/a	n/a	n/a	n/a	n/a	n/a	n/a	fixation
267671.12749189371	950.0	n/a	1287	89	2750	20.8725081063	stim	stop-signal	509	1535204	0.0-21.10-1.10	beast_fmri_test	390	1532800,/,1533480,/,1534161,/,1534839,/	t,t,t,t	<img class = center src='/static/experiments/beast_fmri_test/images/V.png'></img>	71,89	2750.0	test	<img class = center src='/static/experiments/beast_fmri_test/images/redV.png'></img>	stop	1800.0	1.0	10.0	stop	non-target	V	71,Index Finger	89,Middle Finger	600.0	950.0	2100.0	1800.0	0.0	950.0	0.0	n/a	go_stim
269471.12749189371	1800.0	n/a	1287	89	2750	20.8725081063	stim	stop-signal	509	1535204	0.0-21.10-1.10	beast_fmri_test	390	1532800,/,1533480,/,1534161,/,1534839,/	t,t,t,t	<img class = center src='/static/experiments/beast_fmri_test/images/V.png'></img>	71,89	2750.0	test	<img class = center src='/static/experiments/beast_fmri_test/images/redV.png'></img>	stop	1800.0	1.0	10.0	stop	non-target	V	71,Index Finger	89,Middle Finger	600.0	950.0	2100.0	1800.0	0.0	950.0	0.0	n/a	stop_stim
270421.12749189371	20.872508106260646	n/a	1287	89	2750	20.8725081063	stim	stop-signal	509	1535204	0.0-21.10-1.10	beast_fmri_test	390	1532800,/,1533480,/,1534161,/,1534839,/	t,t,t,t	<img class = center src='/static/experiments/beast_fmri_test/images/V.png'></img>	71,89	2750.0	test	<img class = center src='/static/experiments/beast_fmri_test/images/redV.png'></img>	stop	1800.0	1.0	10.0	stop	non-target	V	71,Index Finger	89,Middle Finger	600.0	950.0	2100.0	1800.0	0.0	950.0	0.0	n/a	ITI
271011	500	n/a	-1	-1	500	0.0	fixation	poldrack-single-stim	510	1535773	0.0-21.11-0.11	beast_fmri_test	390	1535522,/	t	<div class = centerbox2><div class = fixation>+</div></div>	none	500.0	test	n/a	n/a	n/a	n/a	n/a	n/a	n/a	n/a	n/a	n/a	n/a	n/a	n/a	n/a	n/a	n/a	n/a	n/a	fixation
270639.35660016304	600.0	n/a	-1	-1	2750	376.643399837	stim	stop-signal	511	1538528	0.0-21.11-1.11	beast_fmri_test	390	1536202,/,1536881,/,1537562,/,1538242,/	t,t,t,t	<img class = center src='/static/experiments/beast_fmri_test/images/V.png'></img>	71,89	2750.0	test	<img class = center src='/static/experiments/beast_fmri_test/images/redV.png'></img>	stop	2150.0	1.0	11.0	stop	target	V	71,Index Finger	89,Middle Finger	600.0	900.0	2150.0	1800.0	0.0	600.0	1.0	n/a	go_stim
272789.35660016304	2150.0	n/a	-1	-1	2750	376.643399837	stim	stop-signal	511	1538528	0.0-21.11-1.11	beast_fmri_test	390	1536202,/,1536881,/,1537562,/,1538242,/	t,t,t,t	<img class = center src='/static/experiments/beast_fmri_test/images/V.png'></img>	71,89	2750.0	test	<img class = center src='/static/experiments/beast_fmri_test/images/redV.png'></img>	stop	2150.0	1.0	11.0	stop	target	V	71,Index Finger	89,Middle Finger	600.0	900.0	2150.0	1800.0	0.0	600.0	1.0	n/a	stop_stim
273389.35660016304	376.643399836855	n/a	-1	-1	2750	376.643399837	stim	stop-signal	511	1538528	0.0-21.11-1.11	beast_fmri_test	390	1536202,/,1536881,/,1537562,/,1538242,/	t,t,t,t	<img class = center src='/static/experiments/beast_fmri_test/images/V.png'></img>	71,89	2750.0	test	<img class = center src='/static/experiments/beast_fmri_test/images/redV.png'></img>	stop	2150.0	1.0	11.0	stop	target	V	71,Index Finger	89,Middle Finger	600.0	900.0	2150.0	1800.0	0.0	600.0	1.0	n/a	ITI
274696	500	n/a	-1	-1	500	0.0	fixation	poldrack-single-stim	512	1539458	0.0-21.12-0.12	beast_fmri_test	390	1538955,/	t	<div class = centerbox2><div class = fixation>+</div></div>	none	500.0	test	n/a	n/a	n/a	n/a	n/a	n/a	n/a	n/a	n/a	n/a	n/a	n/a	n/a	n/a	n/a	n/a	n/a	n/a	fixation
274321.53807041235	2750	n/a	1043	89	2750	379.461929588	stim	stop-signal	513	1542213	0.0-21.12-1.12	beast_fmri_test	390	1539603,/,1540284,/,1540963,/,1541644,/,1542323,/	t,t,t,t,t	<img class = center src='/static/experiments/beast_fmri_test/images/V.png'></img>	71,89	2750.0	test	<img class = center src='/static/experiments/beast_fmri_test/images/redV.png'></img>	go	2100.0	1.0	12.0	go	target	V	71,Index Finger	89,Middle Finger	650.0	900.0	2100.0	1800.0	0.0	650.0	n/a	0.0	go_stim
277071.53807041235	379.46192958768881	n/a	1043	89	2750	379.461929588	stim	stop-signal	513	1542213	0.0-21.12-1.12	beast_fmri_test	390	1539603,/,1540284,/,1540963,/,1541644,/,1542323,/	t,t,t,t,t	<img class = center src='/static/experiments/beast_fmri_test/images/V.png'></img>	71,89	2750.0	test	<img class = center src='/static/experiments/beast_fmri_test/images/redV.png'></img>	go	2100.0	1.0	12.0	go	target	V	71,Index Finger	89,Middle Finger	650.0	900.0	2100.0	1800.0	0.0	650.0	n/a	0.0	ITI
278387	500	n/a	-1	-1	500	0.0	fixation	poldrack-single-stim	514	1543149	0.0-21.13-0.13	beast_fmri_test	390	1543003,/	t	<div class = centerbox2><div class = fixation>+</div></div>	none	500.0	test	n/a	n/a	n/a	n/a	n/a	n/a	n/a	n/a	n/a	n/a	n/a	n/a	n/a	n/a	n/a	n/a	n/a	n/a	fixation
277982.27706968226	2750	n/a	682	71	2750	409.722930318	stim	stop-signal	515	1545904	0.0-21.13-1.13	beast_fmri_test	390	1543685,/,1544365,/,1545045,/,1545725,/	t,t,t,t	<img class = center src='/static/experiments/beast_fmri_test/images/V.png'></img>	71,89	2750.0	test	<img class = center src='/static/experiments/beast_fmri_test/images/redV.png'></img>	go	2100.0	1.0	13.0	go	target	V	71,Index Finger	89,Middle Finger	650.0	900.0	2100.0	1800.0	1.0	650.0	n/a	1.0	go_stim
280732.27706968226	409.72293031770937	n/a	682	71	2750	409.722930318	stim	stop-signal	515	1545904	0.0-21.13-1.13	beast_fmri_test	390	1543685,/,1544365,/,1545045,/,1545725,/	t,t,t,t	<img class = center src='/static/experiments/beast_fmri_test/images/V.png'></img>	71,89	2750.0	test	<img class = center src='/static/experiments/beast_fmri_test/images/redV.png'></img>	go	2100.0	1.0	13.0	go	target	V	71,Index Finger	89,Middle Finger	650.0	900.0	2100.0	1800.0	1.0	650.0	n/a	1.0	ITI
282106	500	n/a	-1	-1	500	0.0	fixation	poldrack-single-stim	516	1546868	0.0-21.14-0.14	beast_fmri_test	390	1546406,/	t	<div class = centerbox2><div class = fixation>+</div></div>	none	500.0	test	n/a	n/a	n/a	n/a	n/a	n/a	n/a	n/a	n/a	n/a	n/a	n/a	n/a	n/a	n/a	n/a	n/a	n/a	fixation
279888.793239102	650.0	n/a	537	71	2750	2222.2067609	stim	stop-signal	517	1549623	0.0-21.14-1.14	beast_fmri_test	390	1547086,/,1547766,/,1548446,/,1549127,/,1549807,/,1550487,/,1551168,/,1551847,/	t,t,t,t,t,t,t,t	<img class = center src='/static/experiments/beast_fmri_test/images/V.png'></img>	71,89	2750.0	test	<img class = center src='/static/experiments/beast_fmri_test/images/redV.png'></img>	stop	2100.0	1.0	14.0	stop	target	V	71,Index Finger	89,Middle Finger	650.0	900.0	2100.0	1800.0	0.0	650.0	0.0	n/a	go_stim
281988.793239102	2100.0	n/a	537	71	2750	2222.2067609	stim	stop-signal	517	1549623	0.0-21.14-1.14	beast_fmri_test	390	1547086,/,1547766,/,1548446,/,1549127,/,1549807,/,1550487,/,1551168,/,1551847,/	t,t,t,t,t,t,t,t	<img class = center src='/static/experiments/beast_fmri_test/images/V.png'></img>	71,89	2750.0	test	<img class = center src='/static/experiments/beast_fmri_test/images/redV.png'></img>	stop	2100.0	1.0	14.0	stop	target	V	71,Index Finger	89,Middle Finger	650.0	900.0	2100.0	1800.0	0.0	650.0	0.0	n/a	stop_stim
282638.793239102	2222.2067608979874	n/a	537	71	2750	2222.2067609	stim	stop-signal	517	1549623	0.0-21.14-1.14	beast_fmri_test	390	1547086,/,1547766,/,1548446,/,1549127,/,1549807,/,1550487,/,1551168,/,1551847,/	t,t,t,t,t,t,t,t	<img class = center src='/static/experiments/beast_fmri_test/images/V.png'></img>	71,89	2750.0	test	<img class = center src='/static/experiments/beast_fmri_test/images/redV.png'></img>	stop	2100.0	1.0	14.0	stop	target	V	71,Index Finger	89,Middle Finger	650.0	900.0	2100.0	1800.0	0.0	650.0	0.0	n/a	ITI
287637	500	n/a	-1	-1	500	0.0	fixation	poldrack-single-stim	518	1552399	0.0-21.15-0.15	beast_fmri_test	390	n/a	n/a	<div class = centerbox2><div class = fixation>+</div></div>	none	500.0	test	n/a	n/a	n/a	n/a	n/a	n/a	n/a	n/a	n/a	n/a	n/a	n/a	n/a	n/a	n/a	n/a	n/a	n/a	fixation
287458.26885451772	2750	n/a	407	89	2750	183.731145482	stim	stop-signal	519	1555154	0.0-21.15-1.15	beast_fmri_test	390	1552528,/,1553208,/,1553889,/,1554569,/,1555249,/	t,t,t,t,t	<img class = center src='/static/experiments/beast_fmri_test/images/B.png'></img>	71,89	2750.0	test	<img class = center src='/static/experiments/beast_fmri_test/images/redB.png'></img>	go	1850.0	1.0	15.0	go	non-target	B	71,Index Finger	89,Middle Finger	600.0	900.0	2100.0	1850.0	1.0	900.0	n/a	1.0	go_stim
290208.26885451772	183.73114548237538	n/a	407	89	2750	183.731145482	stim	stop-signal	519	1555154	0.0-21.15-1.15	beast_fmri_test	390	1552528,/,1553208,/,1553889,/,1554569,/,1555249,/	t,t,t,t,t	<img class = center src='/static/experiments/beast_fmri_test/images/B.png'></img>	71,89	2750.0	test	<img class = center src='/static/experiments/beast_fmri_test/images/redB.png'></img>	go	1850.0	1.0	15.0	go	non-target	B	71,Index Finger	89,Middle Finger	600.0	900.0	2100.0	1850.0	1.0	900.0	n/a	1.0	ITI
291130	500	n/a	-1	-1	500	0.0	fixation	poldrack-single-stim	520	1555892	0.0-21.16-0.16	beast_fmri_test	390	n/a	n/a	<div class = centerbox2><div class = fixation>+</div></div>	none	500.0	test	n/a	n/a	n/a	n/a	n/a	n/a	n/a	n/a	n/a	n/a	n/a	n/a	n/a	n/a	n/a	n/a	n/a	n/a	fixation
289649.35989316204	2750	n/a	1353	71	2750	1484.64010684	stim	stop-signal	521	1558646	0.0-21.16-1.16	beast_fmri_test	390	1555928,/,1556609,/,1557290,/,1557970,/,1558651,/,1559331,/,1560011,/	t,t,t,t,t,t,t	<img class = center src='/static/experiments/beast_fmri_test/images/V.png'></img>	71,89	2750.0	test	<img class = center src='/static/experiments/beast_fmri_test/images/redV.png'></img>	go	1850.0	1.0	16.0	go	non-target	V	71,Index Finger	89,Middle Finger	600.0	900.0	2100.0	1850.0	0.0	900.0	n/a	0.0	go_stim
292399.35989316204	1484.6401068380624	n/a	1353	71	2750	1484.64010684	stim	stop-signal	521	1558646	0.0-21.16-1.16	beast_fmri_test	390	1555928,/,1556609,/,1557290,/,1557970,/,1558651,/,1559331,/,1560011,/	t,t,t,t,t,t,t	<img class = center src='/static/experiments/beast_fmri_test/images/V.png'></img>	71,89	2750.0	test	<img class = center src='/static/experiments/beast_fmri_test/images/redV.png'></img>	go	1850.0	1.0	16.0	go	non-target	V	71,Index Finger	89,Middle Finger	600.0	900.0	2100.0	1850.0	0.0	900.0	n/a	0.0	ITI
295922	500	n/a	-1	-1	500	0.0	fixation	poldrack-single-stim	522	1560684	0.0-21.17-0.17	beast_fmri_test	390	n/a	n/a	<div class = centerbox2><div class = fixation>+</div></div>	none	500.0	test	n/a	n/a	n/a	n/a	n/a	n/a	n/a	n/a	n/a	n/a	n/a	n/a	n/a	n/a	n/a	n/a	n/a	n/a	fixation
295382.60766189895	900.0	n/a	650	89	2750	542.392338101	stim	stop-signal	523	1563437	0.0-21.17-1.17	beast_fmri_test	390	1560694,/,1561372,/,1562053,/,1562733,/,1563414,/	t,t,t,t,t	<img class = center src='/static/experiments/beast_fmri_test/images/D.png'></img>	71,89	2750.0	test	<img class = center src='/static/experiments/beast_fmri_test/images/redD.png'></img>	stop	1850.0	1.0	17.0	stop	non-target	D	71,Index Finger	89,Middle Finger	600.0	900.0	2100.0	1850.0	0.0	900.0	0.0	n/a	go_stim
297232.60766189895	1850.0	n/a	650	89	2750	542.392338101	stim	stop-signal	523	1563437	0.0-21.17-1.17	beast_fmri_test	390	1560694,/,1561372,/,1562053,/,1562733,/,1563414,/	t,t,t,t,t	<img class = center src='/static/experiments/beast_fmri_test/images/D.png'></img>	71,89	2750.0	test	<img class = center src='/static/experiments/beast_fmri_test/images/redD.png'></img>	stop	1850.0	1.0	17.0	stop	non-target	D	71,Index Finger	89,Middle Finger	600.0	900.0	2100.0	1850.0	0.0	900.0	0.0	n/a	stop_stim
298132.60766189895	542.39233810102382	n/a	650	89	2750	542.392338101	stim	stop-signal	523	1563437	0.0-21.17-1.17	beast_fmri_test	390	1560694,/,1561372,/,1562053,/,1562733,/,1563414,/	t,t,t,t,t	<img class = center src='/static/experiments/beast_fmri_test/images/D.png'></img>	71,89	2750.0	test	<img class = center src='/static/experiments/beast_fmri_test/images/redD.png'></img>	stop	1850.0	1.0	17.0	stop	non-target	D	71,Index Finger	89,Middle Finger	600.0	900.0	2100.0	1850.0	0.0	900.0	0.0	n/a	ITI
299773	500	n/a	-1	-1	500	0.0	fixation	poldrack-single-stim	524	1564535	0.0-21.18-0.18	beast_fmri_test	390	1564094,/	t	<div class = centerbox2><div class = fixation>+</div></div>	none	500.0	test	n/a	n/a	n/a	n/a	n/a	n/a	n/a	n/a	n/a	n/a	n/a	n/a	n/a	n/a	n/a	n/a	n/a	n/a	fixation
295248.76460106159	2750	n/a	769	89	2750	4528.23539894	stim	stop-signal	525	1567289	0.0-21.18-1.18	beast_fmri_test	390	1564774,/,1565454,/,1566135,/,1566815,/,1567494,/,1568176,/,1568856,/,1569535,/,1570216,/,1570895,/,1571577,/	t,t,t,t,t,t,t,t,t,t,t	<img class = center src='/static/experiments/beast_fmri_test/images/T.png'></img>	71,89	2750.0	test	<img class = center src='/static/experiments/beast_fmri_test/images/redT.png'></img>	go	1900.0	1.0	18.0	go	non-target	T	71,Index Finger	89,Middle Finger	600.0	850.0	2100.0	1900.0	1.0	850.0	n/a	1.0	go_stim
297998.76460106159	4528.2353989385228	n/a	769	89	2750	4528.23539894	stim	stop-signal	525	1567289	0.0-21.18-1.18	beast_fmri_test	390	1564774,/,1565454,/,1566135,/,1566815,/,1567494,/,1568176,/,1568856,/,1569535,/,1570216,/,1570895,/,1571577,/	t,t,t,t,t,t,t,t,t,t,t	<img class = center src='/static/experiments/beast_fmri_test/images/T.png'></img>	71,89	2750.0	test	<img class = center src='/static/experiments/beast_fmri_test/images/redT.png'></img>	go	1900.0	1.0	18.0	go	non-target	T	71,Index Finger	89,Middle Finger	600.0	850.0	2100.0	1900.0	1.0	850.0	n/a	1.0	ITI
307613	500	n/a	-1	-1	500	0.0	fixation	poldrack-single-stim	526	1572375	0.0-21.19-0.19	beast_fmri_test	390	1572257,/	t	<div class = centerbox2><div class = fixation>+</div></div>	none	500.0	test	n/a	n/a	n/a	n/a	n/a	n/a	n/a	n/a	n/a	n/a	n/a	n/a	n/a	n/a	n/a	n/a	n/a	n/a	fixation
305909.79551898013	850.0	n/a	-1	-1	2750	1707.20448102	stim	stop-signal	527	1575129	0.0-21.19-1.19	beast_fmri_test	390	1572937,/,1573618,/,1574298,/,1574978,/,1575658,/,1576339,/	t,t,t,t,t,t	<img class = center src='/static/experiments/beast_fmri_test/images/P.png'></img>	71,89	2750.0	test	<img class = center src='/static/experiments/beast_fmri_test/images/redP.png'></img>	stop	1900.0	1.0	19.0	stop	non-target	P	71,Index Finger	89,Middle Finger	600.0	850.0	2100.0	1900.0	0.0	850.0	1.0	n/a	go_stim
307809.79551898013	1900.0	n/a	-1	-1	2750	1707.20448102	stim	stop-signal	527	1575129	0.0-21.19-1.19	beast_fmri_test	390	1572937,/,1573618,/,1574298,/,1574978,/,1575658,/,1576339,/	t,t,t,t,t,t	<img class = center src='/static/experiments/beast_fmri_test/images/P.png'></img>	71,89	2750.0	test	<img class = center src='/static/experiments/beast_fmri_test/images/redP.png'></img>	stop	1900.0	1.0	19.0	stop	non-target	P	71,Index Finger	89,Middle Finger	600.0	850.0	2100.0	1900.0	0.0	850.0	1.0	n/a	stop_stim
308659.79551898013	1707.2044810197795	n/a	-1	-1	2750	1707.20448102	stim	stop-signal	527	1575129	0.0-21.19-1.19	beast_fmri_test	390	1572937,/,1573618,/,1574298,/,1574978,/,1575658,/,1576339,/	t,t,t,t,t,t	<img class = center src='/static/experiments/beast_fmri_test/images/P.png'></img>	71,89	2750.0	test	<img class = center src='/static/experiments/beast_fmri_test/images/redP.png'></img>	stop	1900.0	1.0	19.0	stop	non-target	P	71,Index Finger	89,Middle Finger	600.0	850.0	2100.0	1900.0	0.0	850.0	1.0	n/a	ITI
312634	500	n/a	-1	-1	500	0.0	fixation	poldrack-single-stim	528	1577396	0.0-21.20-0.20	beast_fmri_test	390	1577017,/	t	<div class = centerbox2><div class = fixation>+</div></div>	none	500.0	test	n/a	n/a	n/a	n/a	n/a	n/a	n/a	n/a	n/a	n/a	n/a	n/a	n/a	n/a	n/a	n/a	n/a	n/a	fixation
312295.14049364673	900.0	n/a	737	89	2750	343.859506353	stim	stop-signal	529	1580151	0.0-21.20-1.20	beast_fmri_test	390	1577699,/,1578380,/,1579060,/,1579741,/,1580420,/	t,t,t,t,t	<img class = center src='/static/experiments/beast_fmri_test/images/B.png'></img>	71,89	2750.0	test	<img class = center src='/static/experiments/beast_fmri_test/images/redB.png'></img>	stop	1850.0	1.0	20.0	stop	non-target	B	71,Index Finger	89,Middle Finger	600.0	900.0	2100.0	1850.0	0.0	900.0	0.0	n/a	go_stim
314145.14049364673	1850.0	n/a	737	89	2750	343.859506353	stim	stop-signal	529	1580151	0.0-21.20-1.20	beast_fmri_test	390	1577699,/,1578380,/,1579060,/,1579741,/,1580420,/	t,t,t,t,t	<img class = center src='/static/experiments/beast_fmri_test/images/B.png'></img>	71,89	2750.0	test	<img class = center src='/static/experiments/beast_fmri_test/images/redB.png'></img>	stop	1850.0	1.0	20.0	stop	non-target	B	71,Index Finger	89,Middle Finger	600.0	900.0	2100.0	1850.0	0.0	900.0	0.0	n/a	stop_stim
315045.14049364673	343.85950635318198	n/a	737	89	2750	343.859506353	stim	stop-signal	529	1580151	0.0-21.20-1.20	beast_fmri_test	390	1577699,/,1578380,/,1579060,/,1579741,/,1580420,/	t,t,t,t,t	<img class = center src='/static/experiments/beast_fmri_test/images/B.png'></img>	71,89	2750.0	test	<img class = center src='/static/experiments/beast_fmri_test/images/redB.png'></img>	stop	1850.0	1.0	20.0	stop	non-target	B	71,Index Finger	89,Middle Finger	600.0	900.0	2100.0	1850.0	0.0	900.0	0.0	n/a	ITI
316290	500	n/a	-1	-1	500	0.0	fixation	poldrack-single-stim	530	1581052	0.0-21.21-0.21	beast_fmri_test	390	n/a	n/a	<div class = centerbox2><div class = fixation>+</div></div>	none	500.0	test	n/a	n/a	n/a	n/a	n/a	n/a	n/a	n/a	n/a	n/a	n/a	n/a	n/a	n/a	n/a	n/a	n/a	n/a	fixation
