onset	duration	text	rt	key_press	block_duration	timing_post_trial	trial_id	trial_type	trial_index	time_elapsed	internal_node_id	exp_id	subject_id	trigger_times	triggers	stimulus	possible_responses	stim_duration	exp_stage	SS_stimulus	SS_trial_type	SS_duration	load	trial_num	stop_trial_type	adaptive_trial_type	stim	yes_response_key	no_response_key	SSD_target	SSD_non_target	SSTarget	SSNonTarget	go_acc	SS_delay	adaptive_acc	stop_acc	new_trial_type
test	10880.0	n/a	-1	-1	10880	0.0	practice-no-stop-feedback	poldrack-single-stim	4	22511	0.0-4.0	beast_fmri_test	290	0.19381666666666666,0.20511666666666667,0.21643333333333334,0.22776666666666667,0.23911666666666667,0.25045,0.26176666666666665,0.2731,0.2844333333333333,0.29578333333333334,0.3071,0.31843333333333335,0.3297833333333333,0.3411,0.3524333333333333,0.3638,0.3751	t,t,t,t,t,t,t,t,t,t,t,t,t,t,t,t,t	"<div class = ""centerbox""><p class = ""center-block-text"">Your delay is 2 trials.</p><p class = center-block-text>Please wait for the scanner to start the block</p></div>"	77	10880.0	n/a	n/a	n/a	n/a	n/a	n/a	n/a	n/a	n/a	n/a	n/a	n/a	n/a	n/a	n/a	n/a	n/a	n/a	n/a	start_functional_block
11385.0	500.0	n/a	-1	-1	500	0.0	fixation	poldrack-single-stim	5	23014	0.0-5.0-0.0	beast_fmri_test	290	n/a	n/a	<div class = centerbox><div class = fixation>+</div></div>	none	500.0	test	n/a	n/a	n/a	n/a	n/a	n/a	n/a	n/a	n/a	n/a	n/a	n/a	n/a	n/a	n/a	n/a	n/a	n/a	fixation
8973.7418989362814	2750.0	n/a	-1	-1	2750	2415.25810106	stim	stop-signal	6	25768	0.0-5.0-1.0	beast_fmri_test	290	0.38643333333333335,0.39776666666666666,0.4091,0.42046666666666666,0.43178333333333335,0.44311666666666666,0.45445,0.4657833333333333	t,t,t,t,t,t,t,t	<img class = center src='/static/experiments/beast_fmri_test/images/P.png'></img>	71,89	2750.0	test	<img class = center src='/static/experiments/beast_fmri_test/images/redP.png'></img>	go	-1.0	2.0	0.0	go	temp-non-target	P	71,Green Button	89,Yellow Button	500.0	500.0	0.0	0.0	0.0	n/a	n/a	n/a	go_stim
11723.741898936281	2415.25810106	n/a	-1	-1	2750	2415.25810106	stim	stop-signal	6	25768	0.0-5.0-1.0	beast_fmri_test	290	0.38643333333333335,0.39776666666666666,0.4091,0.42046666666666666,0.43178333333333335,0.44311666666666666,0.45445,0.4657833333333333	t,t,t,t,t,t,t,t	<img class = center src='/static/experiments/beast_fmri_test/images/P.png'></img>	71,89	2750.0	test	<img class = center src='/static/experiments/beast_fmri_test/images/redP.png'></img>	go	-1.0	2.0	0.0	go	temp-non-target	P	71,Green Button	89,Yellow Button	500.0	500.0	0.0	0.0	0.0	n/a	n/a	n/a	ITI
17060.0	500.0	n/a	-1	-1	500	0.0	fixation	poldrack-single-stim	7	28689	0.0-5.1-0.1	beast_fmri_test	290	0.477116666666666	t	<div class = centerbox><div class = fixation>+</div></div>	none	500.0	test	n/a	n/a	n/a	n/a	n/a	n/a	n/a	n/a	n/a	n/a	n/a	n/a	n/a	n/a	n/a	n/a	n/a	n/a	fixation
15742.95097496068	2750.0	n/a	-1	-1	2750	1319.04902504	stim	stop-signal	8	31441	0.0-5.1-1.1	beast_fmri_test	290	0.48845,0.49978333333333336,0.5111166666666667,0.52245,0.5338,0.5451166666666667	t,t,t,t,t,t	<img class = center src='/static/experiments/beast_fmri_test/images/D.png'></img>	71,89	2750.0	test	<img class = center src='/static/experiments/beast_fmri_test/images/redD.png'></img>	go	-1.0	2.0	1.0	go	temp-non-target	D	71,Green Button	89,Yellow Button	500.0	500.0	0.0	0.0	0.0	n/a	n/a	n/a	go_stim
18492.95097496068	1319.04902504	n/a	-1	-1	2750	1319.04902504	stim	stop-signal	8	31441	0.0-5.1-1.1	beast_fmri_test	290	0.48845,0.49978333333333336,0.5111166666666667,0.52245,0.5338,0.5451166666666667	t,t,t,t,t,t	<img class = center src='/static/experiments/beast_fmri_test/images/D.png'></img>	71,89	2750.0	test	<img class = center src='/static/experiments/beast_fmri_test/images/redD.png'></img>	go	-1.0	2.0	1.0	go	temp-non-target	D	71,Green Button	89,Yellow Button	500.0	500.0	0.0	0.0	0.0	n/a	n/a	n/a	ITI
21633.0	500.0	n/a	-1	-1	500	0.0	fixation	poldrack-single-stim	9	33262	0.0-5.2-0.2	beast_fmri_test	290	n/a	n/a	<div class = centerbox><div class = fixation>+</div></div>	none	500.0	test	n/a	n/a	n/a	n/a	n/a	n/a	n/a	n/a	n/a	n/a	n/a	n/a	n/a	n/a	n/a	n/a	n/a	n/a	fixation
20945.397047020451	2750.0	n/a	-1	-1	2750	690.60295298	stim	stop-signal	10	36015	0.0-5.2-1.2	beast_fmri_test	290	0.55645,0.5677833333333333,0.5791166666666666,0.59045,0.6017833333333333	t,t,t,t,t	<img class = center src='/static/experiments/beast_fmri_test/images/V.png'></img>	71,89	2750.0	test	<img class = center src='/static/experiments/beast_fmri_test/images/redV.png'></img>	go	2250.0	2.0	2.0	go	non-target	V	71,Green Button	89,Yellow Button	500.0	500.0	0.0	2250.0	0.0	500.0	0.0	n/a	go_stim
23695.397047020451	690.60295298	n/a	-1	-1	2750	690.60295298	stim	stop-signal	10	36015	0.0-5.2-1.2	beast_fmri_test	290	0.55645,0.5677833333333333,0.5791166666666666,0.59045,0.6017833333333333	t,t,t,t,t	<img class = center src='/static/experiments/beast_fmri_test/images/V.png'></img>	71,89	2750.0	test	<img class = center src='/static/experiments/beast_fmri_test/images/redV.png'></img>	go	2250.0	2.0	2.0	go	non-target	V	71,Green Button	89,Yellow Button	500.0	500.0	0.0	2250.0	0.0	500.0	0.0	n/a	ITI
25580.0	500.0	n/a	-1	-1	500	0.0	fixation	poldrack-single-stim	11	37209	0.0-5.3-0.3	beast_fmri_test	290	0.613116666666666	t	<div class = centerbox><div class = fixation>+</div></div>	none	500.0	test	n/a	n/a	n/a	n/a	n/a	n/a	n/a	n/a	n/a	n/a	n/a	n/a	n/a	n/a	n/a	n/a	n/a	n/a	fixation
24568.513160811352	2750.0	n/a	-1	-1	2750	1013.48683919	stim	stop-signal	12	39961	0.0-5.3-1.3	beast_fmri_test	290	0.62445,0.6357833333333334,0.6471166666666667,0.65845,0.6697833333333333,0.6811166666666667	t,t,t,t,t,t	<img class = center src='/static/experiments/beast_fmri_test/images/V.png'></img>	71,89	2750.0	test	<img class = center src='/static/experiments/beast_fmri_test/images/redV.png'></img>	go	2250.0	2.0	3.0	go	non-target	V	71,Green Button	89,Yellow Button	500.0	500.0	0.0	2250.0	0.0	500.0	0.0	n/a	go_stim
27318.513160811352	1013.48683919	n/a	-1	-1	2750	1013.48683919	stim	stop-signal	12	39961	0.0-5.3-1.3	beast_fmri_test	290	0.62445,0.6357833333333334,0.6471166666666667,0.65845,0.6697833333333333,0.6811166666666667	t,t,t,t,t,t	<img class = center src='/static/experiments/beast_fmri_test/images/V.png'></img>	71,89	2750.0	test	<img class = center src='/static/experiments/beast_fmri_test/images/redV.png'></img>	go	2250.0	2.0	3.0	go	non-target	V	71,Green Button	89,Yellow Button	500.0	500.0	0.0	2250.0	0.0	500.0	0.0	n/a	ITI
29848.0	500.0	n/a	-1	-1	500	0.0	fixation	poldrack-single-stim	13	41477	0.0-5.4-0.4	beast_fmri_test	290	n/a	n/a	<div class = centerbox><div class = fixation>+</div></div>	none	500.0	test	n/a	n/a	n/a	n/a	n/a	n/a	n/a	n/a	n/a	n/a	n/a	n/a	n/a	n/a	n/a	n/a	n/a	n/a	fixation
28812.148456238327	2750.0	n/a	-1	-1	2750	1037.85154376	stim	stop-signal	14	44229	0.0-5.4-1.4	beast_fmri_test	290	0.69245,0.7038,0.7151166666666666,0.72645,0.7377833333333333,0.7491166666666667	t,t,t,t,t,t	<img class = center src='/static/experiments/beast_fmri_test/images/B.png'></img>	71,89	2750.0	test	<img class = center src='/static/experiments/beast_fmri_test/images/redB.png'></img>	go	2250.0	2.0	4.0	go	non-target	B	71,Green Button	89,Yellow Button	500.0	500.0	0.0	2250.0	0.0	500.0	0.0	n/a	go_stim
31562.148456238327	1037.85154376	n/a	-1	-1	2750	1037.85154376	stim	stop-signal	14	44229	0.0-5.4-1.4	beast_fmri_test	290	0.69245,0.7038,0.7151166666666666,0.72645,0.7377833333333333,0.7491166666666667	t,t,t,t,t,t	<img class = center src='/static/experiments/beast_fmri_test/images/B.png'></img>	71,89	2750.0	test	<img class = center src='/static/experiments/beast_fmri_test/images/redB.png'></img>	go	2250.0	2.0	4.0	go	non-target	B	71,Green Button	89,Yellow Button	500.0	500.0	0.0	2250.0	0.0	500.0	0.0	n/a	ITI
34140.0	500.0	n/a	-1	-1	500	0.0	fixation	poldrack-single-stim	15	45769	0.0-5.5-0.5	beast_fmri_test	290	0.76045	t	<div class = centerbox><div class = fixation>+</div></div>	none	500.0	test	n/a	n/a	n/a	n/a	n/a	n/a	n/a	n/a	n/a	n/a	n/a	n/a	n/a	n/a	n/a	n/a	n/a	n/a	fixation
33661.526596319316	500.0	n/a	-1	-1	2750	480.473403681	stim	stop-signal	16	48521	0.0-5.5-1.5	beast_fmri_test	290	0.7717833333333334,0.7831166666666667,0.79445,0.8057833333333333	t,t,t,t	<img class = center src='/static/experiments/beast_fmri_test/images/P.png'></img>	71,89	2750.0	test	<img class = center src='/static/experiments/beast_fmri_test/images/redP.png'></img>	stop	2250.0	2.0	5.0	stop	non-target	P	71,Green Button	89,Yellow Button	500.0	500.0	0.0	2250.0	0.0	500.0	0.0	1.0	go_stim
35911.526596319316	2250.0	n/a	-1	-1	2750	480.473403681	stim	stop-signal	16	48521	0.0-5.5-1.5	beast_fmri_test	290	0.7717833333333334,0.7831166666666667,0.79445,0.8057833333333333	t,t,t,t	<img class = center src='/static/experiments/beast_fmri_test/images/P.png'></img>	71,89	2750.0	test	<img class = center src='/static/experiments/beast_fmri_test/images/redP.png'></img>	stop	2250.0	2.0	5.0	stop	non-target	P	71,Green Button	89,Yellow Button	500.0	500.0	0.0	2250.0	0.0	500.0	0.0	1.0	stop_stim
36411.526596319316	480.473403681	n/a	-1	-1	2750	480.473403681	stim	stop-signal	16	48521	0.0-5.5-1.5	beast_fmri_test	290	0.7717833333333334,0.7831166666666667,0.79445,0.8057833333333333	t,t,t,t	<img class = center src='/static/experiments/beast_fmri_test/images/P.png'></img>	71,89	2750.0	test	<img class = center src='/static/experiments/beast_fmri_test/images/redP.png'></img>	stop	2250.0	2.0	5.0	stop	non-target	P	71,Green Button	89,Yellow Button	500.0	500.0	0.0	2250.0	0.0	500.0	0.0	1.0	ITI
37876.0	500.0	n/a	-1	-1	500	0.0	fixation	poldrack-single-stim	17	49505	0.0-5.6-0.6	beast_fmri_test	290	0.8171	t	<div class = centerbox><div class = fixation>+</div></div>	none	500.0	test	n/a	n/a	n/a	n/a	n/a	n/a	n/a	n/a	n/a	n/a	n/a	n/a	n/a	n/a	n/a	n/a	n/a	n/a	fixation
35869.527102759253	550.0	n/a	-1	-1	2750	2008.47289724	stim	stop-signal	18	52257	0.0-5.6-1.6	beast_fmri_test	290	0.82845,0.8397833333333333,0.8511166666666666,0.86245,0.8738,0.8851166666666667,0.8964333333333333	t,t,t,t,t,t,t	<img class = center src='/static/experiments/beast_fmri_test/images/D.png'></img>	71,89	2750.0	test	<img class = center src='/static/experiments/beast_fmri_test/images/redD.png'></img>	stop	2200.0	2.0	6.0	stop	non-target	D	71,Green Button	89,Yellow Button	500.0	550.0	0.0	2200.0	0.0	550.0	0.0	1.0	go_stim
38069.527102759253	2200.0	n/a	-1	-1	2750	2008.47289724	stim	stop-signal	18	52257	0.0-5.6-1.6	beast_fmri_test	290	0.82845,0.8397833333333333,0.8511166666666666,0.86245,0.8738,0.8851166666666667,0.8964333333333333	t,t,t,t,t,t,t	<img class = center src='/static/experiments/beast_fmri_test/images/D.png'></img>	71,89	2750.0	test	<img class = center src='/static/experiments/beast_fmri_test/images/redD.png'></img>	stop	2200.0	2.0	6.0	stop	non-target	D	71,Green Button	89,Yellow Button	500.0	550.0	0.0	2200.0	0.0	550.0	0.0	1.0	stop_stim
38619.527102759253	2008.47289724	n/a	-1	-1	2750	2008.47289724	stim	stop-signal	18	52257	0.0-5.6-1.6	beast_fmri_test	290	0.82845,0.8397833333333333,0.8511166666666666,0.86245,0.8738,0.8851166666666667,0.8964333333333333	t,t,t,t,t,t,t	<img class = center src='/static/experiments/beast_fmri_test/images/D.png'></img>	71,89	2750.0	test	<img class = center src='/static/experiments/beast_fmri_test/images/redD.png'></img>	stop	2200.0	2.0	6.0	stop	non-target	D	71,Green Button	89,Yellow Button	500.0	550.0	0.0	2200.0	0.0	550.0	0.0	1.0	ITI
43139.0	500.0	n/a	-1	-1	500	0.0	fixation	poldrack-single-stim	19	54768	0.0-5.7-0.7	beast_fmri_test	290	0.907783333333333	t	<div class = centerbox><div class = fixation>+</div></div>	none	500.0	test	n/a	n/a	n/a	n/a	n/a	n/a	n/a	n/a	n/a	n/a	n/a	n/a	n/a	n/a	n/a	n/a	n/a	n/a	fixation
38142.0	2750.0	n/a	-1	-1	2750	5000.0	stim	stop-signal	20	57521	0.0-5.7-1.7	beast_fmri_test	290	0.9191166666666667,0.93045,0.9417833333333333,0.9531166666666666,0.96445,0.9758,0.9871333333333333,0.9984666666666666,1.0097833333333333,1.0211333333333332,1.03245	t,t,t,t,t,t,t,t,t,t,t	<img class = center src='/static/experiments/beast_fmri_test/images/T.png'></img>	71,89	2750.0	test	<img class = center src='/static/experiments/beast_fmri_test/images/redT.png'></img>	go	2150.0	2.0	7.0	go	non-target	T	71,Green Button	89,Yellow Button	500.0	600.0	0.0	2150.0	0.0	600.0	0.0	n/a	go_stim
40892.0	5000.0	n/a	-1	-1	2750	5000.0	stim	stop-signal	20	57521	0.0-5.7-1.7	beast_fmri_test	290	0.9191166666666667,0.93045,0.9417833333333333,0.9531166666666666,0.96445,0.9758,0.9871333333333333,0.9984666666666666,1.0097833333333333,1.0211333333333332,1.03245	t,t,t,t,t,t,t,t,t,t,t	<img class = center src='/static/experiments/beast_fmri_test/images/T.png'></img>	71,89	2750.0	test	<img class = center src='/static/experiments/beast_fmri_test/images/redT.png'></img>	go	2150.0	2.0	7.0	go	non-target	T	71,Green Button	89,Yellow Button	500.0	600.0	0.0	2150.0	0.0	600.0	0.0	n/a	ITI
51396.0	500.0	n/a	-1	-1	500	0.0	fixation	poldrack-single-stim	21	63025	0.0-5.8-0.8	beast_fmri_test	290	1.04381666666666	t	<div class = centerbox><div class = fixation>+</div></div>	none	500.0	test	n/a	n/a	n/a	n/a	n/a	n/a	n/a	n/a	n/a	n/a	n/a	n/a	n/a	n/a	n/a	n/a	n/a	n/a	fixation
49898.302169326838	2750.0	n/a	-1	-1	2750	1499.69783067	stim	stop-signal	22	65777	0.0-5.8-1.8	beast_fmri_test	290	1.0551333333333333,1.0664666666666667,1.0778,1.0891166666666667,1.10045,1.1117833333333333	t,t,t,t,t,t	<img class = center src='/static/experiments/beast_fmri_test/images/P.png'></img>	71,89	2750.0	test	<img class = center src='/static/experiments/beast_fmri_test/images/redP.png'></img>	go	2150.0	2.0	8.0	go	non-target	P	71,Green Button	89,Yellow Button	500.0	600.0	0.0	2150.0	0.0	600.0	0.0	n/a	go_stim
52648.302169326838	1499.69783067	n/a	-1	-1	2750	1499.69783067	stim	stop-signal	22	65777	0.0-5.8-1.8	beast_fmri_test	290	1.0551333333333333,1.0664666666666667,1.0778,1.0891166666666667,1.10045,1.1117833333333333	t,t,t,t,t,t	<img class = center src='/static/experiments/beast_fmri_test/images/P.png'></img>	71,89	2750.0	test	<img class = center src='/static/experiments/beast_fmri_test/images/redP.png'></img>	go	2150.0	2.0	8.0	go	non-target	P	71,Green Button	89,Yellow Button	500.0	600.0	0.0	2150.0	0.0	600.0	0.0	n/a	ITI
56150.0	500.0	n/a	-1	-1	500	0.0	fixation	poldrack-single-stim	23	67779	0.0-5.9-0.9	beast_fmri_test	290	1.12313333333333	t	<div class = centerbox><div class = fixation>+</div></div>	none	500.0	test	n/a	n/a	n/a	n/a	n/a	n/a	n/a	n/a	n/a	n/a	n/a	n/a	n/a	n/a	n/a	n/a	n/a	n/a	fixation
55975.043945170808	600.0	n/a	-1	-1	2750	176.956054829	stim	stop-signal	24	70531	0.0-5.9-1.9	beast_fmri_test	290	1.13445,1.1457833333333334,1.1571166666666666,1.16845	t,t,t,t	<img class = center src='/static/experiments/beast_fmri_test/images/B.png'></img>	71,89	2750.0	test	<img class = center src='/static/experiments/beast_fmri_test/images/redB.png'></img>	stop	2150.0	2.0	9.0	stop	non-target	B	71,Green Button	89,Yellow Button	500.0	600.0	0.0	2150.0	0.0	600.0	0.0	1.0	go_stim
58125.043945170808	2150.0	n/a	-1	-1	2750	176.956054829	stim	stop-signal	24	70531	0.0-5.9-1.9	beast_fmri_test	290	1.13445,1.1457833333333334,1.1571166666666666,1.16845	t,t,t,t	<img class = center src='/static/experiments/beast_fmri_test/images/B.png'></img>	71,89	2750.0	test	<img class = center src='/static/experiments/beast_fmri_test/images/redB.png'></img>	stop	2150.0	2.0	9.0	stop	non-target	B	71,Green Button	89,Yellow Button	500.0	600.0	0.0	2150.0	0.0	600.0	0.0	1.0	stop_stim
58725.043945170808	176.956054829	n/a	-1	-1	2750	176.956054829	stim	stop-signal	24	70531	0.0-5.9-1.9	beast_fmri_test	290	1.13445,1.1457833333333334,1.1571166666666666,1.16845	t,t,t,t	<img class = center src='/static/experiments/beast_fmri_test/images/B.png'></img>	71,89	2750.0	test	<img class = center src='/static/experiments/beast_fmri_test/images/redB.png'></img>	stop	2150.0	2.0	9.0	stop	non-target	B	71,Green Button	89,Yellow Button	500.0	600.0	0.0	2150.0	0.0	600.0	0.0	1.0	ITI
59582.0	500.0	n/a	-1	-1	500	0.0	fixation	poldrack-single-stim	25	71211	0.0-5.10-0.10	beast_fmri_test	290	1.17978333333333	t	<div class = centerbox><div class = fixation>+</div></div>	none	500.0	test	n/a	n/a	n/a	n/a	n/a	n/a	n/a	n/a	n/a	n/a	n/a	n/a	n/a	n/a	n/a	n/a	n/a	n/a	fixation
59143.188377739541	2750.0	n/a	-1	-1	2750	440.81162226	stim	stop-signal	26	73963	0.0-5.10-1.10	beast_fmri_test	290	1.1911166666666666,1.20245,1.2138,1.2251166666666666,1.23645	t,t,t,t,t	<img class = center src='/static/experiments/beast_fmri_test/images/V.png'></img>	71,89	2750.0	test	<img class = center src='/static/experiments/beast_fmri_test/images/redV.png'></img>	go	2100.0	2.0	10.0	go	non-target	V	71,Green Button	89,Yellow Button	500.0	650.0	0.0	2100.0	0.0	650.0	0.0	n/a	go_stim
61893.188377739541	440.81162226	n/a	-1	-1	2750	440.81162226	stim	stop-signal	26	73963	0.0-5.10-1.10	beast_fmri_test	290	1.1911166666666666,1.20245,1.2138,1.2251166666666666,1.23645	t,t,t,t,t	<img class = center src='/static/experiments/beast_fmri_test/images/V.png'></img>	71,89	2750.0	test	<img class = center src='/static/experiments/beast_fmri_test/images/redV.png'></img>	go	2100.0	2.0	10.0	go	non-target	V	71,Green Button	89,Yellow Button	500.0	650.0	0.0	2100.0	0.0	650.0	0.0	n/a	ITI
63279.0	500.0	n/a	-1	-1	500	0.0	fixation	poldrack-single-stim	27	74908	0.0-5.11-0.11	beast_fmri_test	290	1.24778333333333	t	<div class = centerbox><div class = fixation>+</div></div>	none	500.0	test	n/a	n/a	n/a	n/a	n/a	n/a	n/a	n/a	n/a	n/a	n/a	n/a	n/a	n/a	n/a	n/a	n/a	n/a	fixation
62507.575717357453	650.0	n/a	-1	-1	2750	772.424282643	stim	stop-signal	28	77659	0.0-5.11-1.11	beast_fmri_test	290	1.2591166666666667,1.27045,1.2817833333333333,1.2931166666666667,1.30445	t,t,t,t,t	<img class = center src='/static/experiments/beast_fmri_test/images/P.png'></img>	71,89	2750.0	test	<img class = center src='/static/experiments/beast_fmri_test/images/redP.png'></img>	stop	2100.0	2.0	11.0	stop	non-target	P	71,Green Button	89,Yellow Button	500.0	650.0	0.0	2100.0	0.0	650.0	0.0	1.0	go_stim
64607.575717357453	2100.0	n/a	-1	-1	2750	772.424282643	stim	stop-signal	28	77659	0.0-5.11-1.11	beast_fmri_test	290	1.2591166666666667,1.27045,1.2817833333333333,1.2931166666666667,1.30445	t,t,t,t,t	<img class = center src='/static/experiments/beast_fmri_test/images/P.png'></img>	71,89	2750.0	test	<img class = center src='/static/experiments/beast_fmri_test/images/redP.png'></img>	stop	2100.0	2.0	11.0	stop	non-target	P	71,Green Button	89,Yellow Button	500.0	650.0	0.0	2100.0	0.0	650.0	0.0	1.0	stop_stim
65257.575717357453	772.424282643	n/a	-1	-1	2750	772.424282643	stim	stop-signal	28	77659	0.0-5.11-1.11	beast_fmri_test	290	1.2591166666666667,1.27045,1.2817833333333333,1.2931166666666667,1.30445	t,t,t,t,t	<img class = center src='/static/experiments/beast_fmri_test/images/P.png'></img>	71,89	2750.0	test	<img class = center src='/static/experiments/beast_fmri_test/images/redP.png'></img>	stop	2100.0	2.0	11.0	stop	non-target	P	71,Green Button	89,Yellow Button	500.0	650.0	0.0	2100.0	0.0	650.0	0.0	1.0	ITI
67306.0	500.0	n/a	-1	-1	500	0.0	fixation	poldrack-single-stim	29	78935	0.0-5.12-0.12	beast_fmri_test	290	n/a	n/a	<div class = centerbox><div class = fixation>+</div></div>	none	500.0	test	n/a	n/a	n/a	n/a	n/a	n/a	n/a	n/a	n/a	n/a	n/a	n/a	n/a	n/a	n/a	n/a	n/a	n/a	fixation
66999.191851593816	2750.0	n/a	-1	-1	2750	307.808148406	stim	stop-signal	30	81686	0.0-5.12-1.12	beast_fmri_test	290	1.3157833333333333,1.3271166666666667,1.33845,1.3497833333333333,1.3611166666666668	t,t,t,t,t	<img class = center src='/static/experiments/beast_fmri_test/images/P.png'></img>	71,89	2750.0	test	<img class = center src='/static/experiments/beast_fmri_test/images/redP.png'></img>	go	2050.0	2.0	12.0	go	non-target	P	71,Green Button	89,Yellow Button	500.0	700.0	0.0	2050.0	0.0	700.0	0.0	n/a	go_stim
69749.191851593816	307.808148406	n/a	-1	-1	2750	307.808148406	stim	stop-signal	30	81686	0.0-5.12-1.12	beast_fmri_test	290	1.3157833333333333,1.3271166666666667,1.33845,1.3497833333333333,1.3611166666666668	t,t,t,t,t	<img class = center src='/static/experiments/beast_fmri_test/images/P.png'></img>	71,89	2750.0	test	<img class = center src='/static/experiments/beast_fmri_test/images/redP.png'></img>	go	2050.0	2.0	12.0	go	non-target	P	71,Green Button	89,Yellow Button	500.0	700.0	0.0	2050.0	0.0	700.0	0.0	n/a	ITI
70869.0	500.0	n/a	-1	-1	500	0.0	fixation	poldrack-single-stim	31	82498	0.0-5.13-0.13	beast_fmri_test	290	1.37245	t	<div class = centerbox><div class = fixation>+</div></div>	none	500.0	test	n/a	n/a	n/a	n/a	n/a	n/a	n/a	n/a	n/a	n/a	n/a	n/a	n/a	n/a	n/a	n/a	n/a	n/a	fixation
70660.127351297677	2750.0	n/a	-1	-1	2750	209.872648702	stim	stop-signal	32	85249	0.0-5.13-1.13	beast_fmri_test	290	1.3838,1.3951166666666666,1.40645,1.4177833333333334	t,t,t,t	<img class = center src='/static/experiments/beast_fmri_test/images/T.png'></img>	71,89	2750.0	test	<img class = center src='/static/experiments/beast_fmri_test/images/redT.png'></img>	go	2050.0	2.0	13.0	go	non-target	T	71,Green Button	89,Yellow Button	500.0	700.0	0.0	2050.0	0.0	700.0	0.0	n/a	go_stim
73410.127351297677	209.872648702	n/a	-1	-1	2750	209.872648702	stim	stop-signal	32	85249	0.0-5.13-1.13	beast_fmri_test	290	1.3838,1.3951166666666666,1.40645,1.4177833333333334	t,t,t,t	<img class = center src='/static/experiments/beast_fmri_test/images/T.png'></img>	71,89	2750.0	test	<img class = center src='/static/experiments/beast_fmri_test/images/redT.png'></img>	go	2050.0	2.0	13.0	go	non-target	T	71,Green Button	89,Yellow Button	500.0	700.0	0.0	2050.0	0.0	700.0	0.0	n/a	ITI
74334.0	500.0	n/a	-1	-1	500	0.0	fixation	poldrack-single-stim	33	85963	0.0-5.14-0.14	beast_fmri_test	290	1.42911666666666	t	<div class = centerbox><div class = fixation>+</div></div>	none	500.0	test	n/a	n/a	n/a	n/a	n/a	n/a	n/a	n/a	n/a	n/a	n/a	n/a	n/a	n/a	n/a	n/a	n/a	n/a	fixation
74127.07437738622	700.0	n/a	-1	-1	2750	209.925622614	stim	stop-signal	34	88716	0.0-5.14-1.14	beast_fmri_test	290	1.44045,1.4517833333333334,1.4631166666666666,1.47445	t,t,t,t	<img class = center src='/static/experiments/beast_fmri_test/images/V.png'></img>	71,89	2750.0	test	<img class = center src='/static/experiments/beast_fmri_test/images/redV.png'></img>	stop	2050.0	2.0	14.0	stop	non-target	V	71,Green Button	89,Yellow Button	500.0	700.0	0.0	2050.0	0.0	700.0	0.0	1.0	go_stim
76177.07437738622	2050.0	n/a	-1	-1	2750	209.925622614	stim	stop-signal	34	88716	0.0-5.14-1.14	beast_fmri_test	290	1.44045,1.4517833333333334,1.4631166666666666,1.47445	t,t,t,t	<img class = center src='/static/experiments/beast_fmri_test/images/V.png'></img>	71,89	2750.0	test	<img class = center src='/static/experiments/beast_fmri_test/images/redV.png'></img>	stop	2050.0	2.0	14.0	stop	non-target	V	71,Green Button	89,Yellow Button	500.0	700.0	0.0	2050.0	0.0	700.0	0.0	1.0	stop_stim
76877.07437738622	209.925622614	n/a	-1	-1	2750	209.925622614	stim	stop-signal	34	88716	0.0-5.14-1.14	beast_fmri_test	290	1.44045,1.4517833333333334,1.4631166666666666,1.47445	t,t,t,t	<img class = center src='/static/experiments/beast_fmri_test/images/V.png'></img>	71,89	2750.0	test	<img class = center src='/static/experiments/beast_fmri_test/images/redV.png'></img>	stop	2050.0	2.0	14.0	stop	non-target	V	71,Green Button	89,Yellow Button	500.0	700.0	0.0	2050.0	0.0	700.0	0.0	1.0	ITI
77800.0	500.0	n/a	-1	-1	500	0.0	fixation	poldrack-single-stim	35	89429	0.0-5.15-0.15	beast_fmri_test	290	1.48578333333333	t	<div class = centerbox><div class = fixation>+</div></div>	none	500.0	test	n/a	n/a	n/a	n/a	n/a	n/a	n/a	n/a	n/a	n/a	n/a	n/a	n/a	n/a	n/a	n/a	n/a	n/a	fixation
77749.138218845605	2750.0	n/a	-1	-1	2750	53.8617811544	stim	stop-signal	36	92182	0.0-5.15-1.15	beast_fmri_test	290	1.4971166666666667,1.50845,1.5198,1.5311333333333332	t,t,t,t	<img class = center src='/static/experiments/beast_fmri_test/images/T.png'></img>	71,89	2750.0	test	<img class = center src='/static/experiments/beast_fmri_test/images/redT.png'></img>	go	2250.0	2.0	15.0	go	target	T	71,Green Button	89,Yellow Button	500.0	750.0	2250.0	2050.0	0.0	500.0	0.0	n/a	go_stim
80499.138218845605	53.8617811544	n/a	-1	-1	2750	53.8617811544	stim	stop-signal	36	92182	0.0-5.15-1.15	beast_fmri_test	290	1.4971166666666667,1.50845,1.5198,1.5311333333333332	t,t,t,t	<img class = center src='/static/experiments/beast_fmri_test/images/T.png'></img>	71,89	2750.0	test	<img class = center src='/static/experiments/beast_fmri_test/images/redT.png'></img>	go	2250.0	2.0	15.0	go	target	T	71,Green Button	89,Yellow Button	500.0	750.0	2250.0	2050.0	0.0	500.0	0.0	n/a	ITI
81111.0	500.0	n/a	-1	-1	500	0.0	fixation	poldrack-single-stim	37	92740	0.0-5.16-0.16	beast_fmri_test	290	1.54246666666666	t	<div class = centerbox><div class = fixation>+</div></div>	none	500.0	test	n/a	n/a	n/a	n/a	n/a	n/a	n/a	n/a	n/a	n/a	n/a	n/a	n/a	n/a	n/a	n/a	n/a	n/a	fixation
80098.850452437066	750.0	n/a	-1	-1	2750	1014.14954756	stim	stop-signal	38	95492	0.0-5.16-1.16	beast_fmri_test	290	1.5538166666666666,1.5651333333333333,1.5764666666666667,1.5878,1.5991333333333333	t,t,t,t,t	<img class = center src='/static/experiments/beast_fmri_test/images/D.png'></img>	71,89	2750.0	test	<img class = center src='/static/experiments/beast_fmri_test/images/redD.png'></img>	stop	2000.0	2.0	16.0	stop	non-target	D	71,Green Button	89,Yellow Button	500.0	750.0	2250.0	2000.0	0.0	750.0	0.0	1.0	go_stim
82098.850452437066	2000.0	n/a	-1	-1	2750	1014.14954756	stim	stop-signal	38	95492	0.0-5.16-1.16	beast_fmri_test	290	1.5538166666666666,1.5651333333333333,1.5764666666666667,1.5878,1.5991333333333333	t,t,t,t,t	<img class = center src='/static/experiments/beast_fmri_test/images/D.png'></img>	71,89	2750.0	test	<img class = center src='/static/experiments/beast_fmri_test/images/redD.png'></img>	stop	2000.0	2.0	16.0	stop	non-target	D	71,Green Button	89,Yellow Button	500.0	750.0	2250.0	2000.0	0.0	750.0	0.0	1.0	stop_stim
82848.850452437066	1014.14954756	n/a	-1	-1	2750	1014.14954756	stim	stop-signal	38	95492	0.0-5.16-1.16	beast_fmri_test	290	1.5538166666666666,1.5651333333333333,1.5764666666666667,1.5878,1.5991333333333333	t,t,t,t,t	<img class = center src='/static/experiments/beast_fmri_test/images/D.png'></img>	71,89	2750.0	test	<img class = center src='/static/experiments/beast_fmri_test/images/redD.png'></img>	stop	2000.0	2.0	16.0	stop	non-target	D	71,Green Button	89,Yellow Button	500.0	750.0	2250.0	2000.0	0.0	750.0	0.0	1.0	ITI
85382.0	500.0	n/a	-1	-1	500	0.0	fixation	poldrack-single-stim	39	97011	0.0-5.17-0.17	beast_fmri_test	290	1.61046666666666	t	<div class = centerbox><div class = fixation>+</div></div>	none	500.0	test	n/a	n/a	n/a	n/a	n/a	n/a	n/a	n/a	n/a	n/a	n/a	n/a	n/a	n/a	n/a	n/a	n/a	n/a	fixation
84545.047881558698	500.0	n/a	-1	-1	2750	838.952118441	stim	stop-signal	40	99763	0.0-5.17-1.17	beast_fmri_test	290	1.6218,1.6331333333333333,1.6444666666666667,1.6558,1.6671166666666666	t,t,t,t,t	<img class = center src='/static/experiments/beast_fmri_test/images/T.png'></img>	71,89	2750.0	test	<img class = center src='/static/experiments/beast_fmri_test/images/redT.png'></img>	stop	2250.0	2.0	17.0	stop	target	T	71,Green Button	89,Yellow Button	500.0	800.0	2250.0	2000.0	0.0	500.0	0.0	1.0	go_stim
86795.047881558698	2250.0	n/a	-1	-1	2750	838.952118441	stim	stop-signal	40	99763	0.0-5.17-1.17	beast_fmri_test	290	1.6218,1.6331333333333333,1.6444666666666667,1.6558,1.6671166666666666	t,t,t,t,t	<img class = center src='/static/experiments/beast_fmri_test/images/T.png'></img>	71,89	2750.0	test	<img class = center src='/static/experiments/beast_fmri_test/images/redT.png'></img>	stop	2250.0	2.0	17.0	stop	target	T	71,Green Button	89,Yellow Button	500.0	800.0	2250.0	2000.0	0.0	500.0	0.0	1.0	stop_stim
87295.047881558698	838.952118441	n/a	-1	-1	2750	838.952118441	stim	stop-signal	40	99763	0.0-5.17-1.17	beast_fmri_test	290	1.6218,1.6331333333333333,1.6444666666666667,1.6558,1.6671166666666666	t,t,t,t,t	<img class = center src='/static/experiments/beast_fmri_test/images/T.png'></img>	71,89	2750.0	test	<img class = center src='/static/experiments/beast_fmri_test/images/redT.png'></img>	stop	2250.0	2.0	17.0	stop	target	T	71,Green Button	89,Yellow Button	500.0	800.0	2250.0	2000.0	0.0	500.0	0.0	1.0	ITI
89478.0	500.0	n/a	-1	-1	500	0.0	fixation	poldrack-single-stim	41	101107	0.0-5.18-0.18	beast_fmri_test	290	1.67846666666666	t	<div class = centerbox><div class = fixation>+</div></div>	none	500.0	test	n/a	n/a	n/a	n/a	n/a	n/a	n/a	n/a	n/a	n/a	n/a	n/a	n/a	n/a	n/a	n/a	n/a	n/a	fixation
86061.835853640223	2750.0	n/a	-1	-1	2750	3418.16414636	stim	stop-signal	42	103859	0.0-5.18-1.18	beast_fmri_test	290	1.6898,1.7011333333333334,1.7124666666666666,1.7238166666666668,1.7351166666666666,1.74645,1.7578,1.7691333333333332,1.7804666666666666	t,t,t,t,t,t,t,t,t	<img class = center src='/static/experiments/beast_fmri_test/images/P.png'></img>	71,89	2750.0	test	<img class = center src='/static/experiments/beast_fmri_test/images/redP.png'></img>	go	1950.0	2.0	18.0	go	non-target	P	71,Green Button	89,Yellow Button	550.0	800.0	2250.0	1950.0	0.0	800.0	0.0	n/a	go_stim
88811.835853640223	3418.16414636	n/a	-1	-1	2750	3418.16414636	stim	stop-signal	42	103859	0.0-5.18-1.18	beast_fmri_test	290	1.6898,1.7011333333333334,1.7124666666666666,1.7238166666666668,1.7351166666666666,1.74645,1.7578,1.7691333333333332,1.7804666666666666	t,t,t,t,t,t,t,t,t	<img class = center src='/static/experiments/beast_fmri_test/images/P.png'></img>	71,89	2750.0	test	<img class = center src='/static/experiments/beast_fmri_test/images/redP.png'></img>	go	1950.0	2.0	18.0	go	non-target	P	71,Green Button	89,Yellow Button	550.0	800.0	2250.0	1950.0	0.0	800.0	0.0	n/a	ITI
96154.0	500.0	n/a	-1	-1	500	0.0	fixation	poldrack-single-stim	43	107783	0.0-5.19-0.19	beast_fmri_test	290	1.7918	t	<div class = centerbox><div class = fixation>+</div></div>	none	500.0	test	n/a	n/a	n/a	n/a	n/a	n/a	n/a	n/a	n/a	n/a	n/a	n/a	n/a	n/a	n/a	n/a	n/a	n/a	fixation
95663.282389485903	2750.0	n/a	-1	-1	2750	492.717610514	stim	stop-signal	44	110535	0.0-5.19-1.19	beast_fmri_test	290	1.8031333333333333,1.81445,1.8257833333333333,1.8371333333333333,1.84845	t,t,t,t,t	<img class = center src='/static/experiments/beast_fmri_test/images/B.png'></img>	71,89	2750.0	test	<img class = center src='/static/experiments/beast_fmri_test/images/redB.png'></img>	go	1950.0	2.0	19.0	go	non-target	B	71,Green Button	89,Yellow Button	550.0	800.0	2250.0	1950.0	0.0	800.0	0.0	n/a	go_stim
98413.282389485903	492.717610514	n/a	-1	-1	2750	492.717610514	stim	stop-signal	44	110535	0.0-5.19-1.19	beast_fmri_test	290	1.8031333333333333,1.81445,1.8257833333333333,1.8371333333333333,1.84845	t,t,t,t,t	<img class = center src='/static/experiments/beast_fmri_test/images/B.png'></img>	71,89	2750.0	test	<img class = center src='/static/experiments/beast_fmri_test/images/redB.png'></img>	go	1950.0	2.0	19.0	go	non-target	B	71,Green Button	89,Yellow Button	550.0	800.0	2250.0	1950.0	0.0	800.0	0.0	n/a	ITI
99904.0	500.0	n/a	-1	-1	500	0.0	fixation	poldrack-single-stim	45	111533	0.0-5.20-0.20	beast_fmri_test	290	n/a	n/a	<div class = centerbox><div class = fixation>+</div></div>	none	500.0	test	n/a	n/a	n/a	n/a	n/a	n/a	n/a	n/a	n/a	n/a	n/a	n/a	n/a	n/a	n/a	n/a	n/a	n/a	fixation
99048.497383400536	2750.0	n/a	-1	-1	2750	857.502616599	stim	stop-signal	46	114285	0.0-5.20-1.20	beast_fmri_test	290	1.8597833333333333,1.8711166666666668,1.88245,1.8938166666666667,1.9051166666666666,1.91645	t,t,t,t,t,t	<img class = center src='/static/experiments/beast_fmri_test/images/T.png'></img>	71,89	2750.0	test	<img class = center src='/static/experiments/beast_fmri_test/images/redT.png'></img>	go	1950.0	2.0	20.0	go	non-target	T	71,Green Button	89,Yellow Button	550.0	800.0	2250.0	1950.0	0.0	800.0	0.0	n/a	go_stim
101798.49738340054	857.502616599	n/a	-1	-1	2750	857.502616599	stim	stop-signal	46	114285	0.0-5.20-1.20	beast_fmri_test	290	1.8597833333333333,1.8711166666666668,1.88245,1.8938166666666667,1.9051166666666666,1.91645	t,t,t,t,t,t	<img class = center src='/static/experiments/beast_fmri_test/images/T.png'></img>	71,89	2750.0	test	<img class = center src='/static/experiments/beast_fmri_test/images/redT.png'></img>	go	1950.0	2.0	20.0	go	non-target	T	71,Green Button	89,Yellow Button	550.0	800.0	2250.0	1950.0	0.0	800.0	0.0	n/a	ITI
104018.0	500.0	n/a	-1	-1	500	0.0	fixation	poldrack-single-stim	47	115647	0.0-5.21-0.21	beast_fmri_test	290	n/a	n/a	<div class = centerbox><div class = fixation>+</div></div>	none	500.0	test	n/a	n/a	n/a	n/a	n/a	n/a	n/a	n/a	n/a	n/a	n/a	n/a	n/a	n/a	n/a	n/a	n/a	n/a	fixation
101589.00948985272	2750.0	n/a	-1	-1	2750	2429.99051015	stim	stop-signal	48	118398	0.0-5.21-1.21	beast_fmri_test	290	1.9277833333333334,1.9391333333333334,1.95045,1.9618,1.9731166666666666,1.98445,1.9957833333333332,2.0071166666666667	t,t,t,t,t,t,t,t	<img class = center src='/static/experiments/beast_fmri_test/images/T.png'></img>	71,89	2750.0	test	<img class = center src='/static/experiments/beast_fmri_test/images/redT.png'></img>	go	1950.0	2.0	21.0	go	non-target	T	71,Green Button	89,Yellow Button	550.0	800.0	2250.0	1950.0	0.0	800.0	0.0	n/a	go_stim
104339.00948985272	2429.99051015	n/a	-1	-1	2750	2429.99051015	stim	stop-signal	48	118398	0.0-5.21-1.21	beast_fmri_test	290	1.9277833333333334,1.9391333333333334,1.95045,1.9618,1.9731166666666666,1.98445,1.9957833333333332,2.0071166666666667	t,t,t,t,t,t,t,t	<img class = center src='/static/experiments/beast_fmri_test/images/T.png'></img>	71,89	2750.0	test	<img class = center src='/static/experiments/beast_fmri_test/images/redT.png'></img>	go	1950.0	2.0	21.0	go	non-target	T	71,Green Button	89,Yellow Button	550.0	800.0	2250.0	1950.0	0.0	800.0	0.0	n/a	ITI
109703.0	500.0	n/a	-1	-1	500	0.0	fixation	poldrack-single-stim	49	121332	0.0-5.22-0.22	beast_fmri_test	290	2.01845	t	<div class = centerbox><div class = fixation>+</div></div>	none	500.0	test	n/a	n/a	n/a	n/a	n/a	n/a	n/a	n/a	n/a	n/a	n/a	n/a	n/a	n/a	n/a	n/a	n/a	n/a	fixation
109009.15805697307	2750.0	n/a	-1	-1	2750	695.841943027	stim	stop-signal	50	124084	0.0-5.22-1.22	beast_fmri_test	290	2.0298,2.0411166666666665,2.05245,2.0638,2.0751333333333335	t,t,t,t,t	<img class = center src='/static/experiments/beast_fmri_test/images/T.png'></img>	71,89	2750.0	test	<img class = center src='/static/experiments/beast_fmri_test/images/redT.png'></img>	go	2200.0	2.0	22.0	go	target	T	71,Green Button	89,Yellow Button	550.0	800.0	2200.0	1950.0	0.0	550.0	0.0	n/a	go_stim
111759.15805697307	695.841943027	n/a	-1	-1	2750	695.841943027	stim	stop-signal	50	124084	0.0-5.22-1.22	beast_fmri_test	290	2.0298,2.0411166666666665,2.05245,2.0638,2.0751333333333335	t,t,t,t,t	<img class = center src='/static/experiments/beast_fmri_test/images/T.png'></img>	71,89	2750.0	test	<img class = center src='/static/experiments/beast_fmri_test/images/redT.png'></img>	go	2200.0	2.0	22.0	go	target	T	71,Green Button	89,Yellow Button	550.0	800.0	2200.0	1950.0	0.0	550.0	0.0	n/a	ITI
113656.0	500.0	n/a	-1	-1	500	0.0	fixation	poldrack-single-stim	51	125285	0.0-5.23-0.23	beast_fmri_test	290	2.08646666666666	t	<div class = centerbox><div class = fixation>+</div></div>	none	500.0	test	n/a	n/a	n/a	n/a	n/a	n/a	n/a	n/a	n/a	n/a	n/a	n/a	n/a	n/a	n/a	n/a	n/a	n/a	fixation
112627.79138383736	2750.0	n/a	-1	-1	2750	1030.20861616	stim	stop-signal	52	128037	0.0-5.23-1.23	beast_fmri_test	290	2.0978,2.1091333333333333,2.1204666666666667,2.131866666666667,2.143133333333333	t,t,t,t,t	<img class = center src='/static/experiments/beast_fmri_test/images/V.png'></img>	71,89	2750.0	test	<img class = center src='/static/experiments/beast_fmri_test/images/redV.png'></img>	go	1950.0	2.0	23.0	go	non-target	V	71,Green Button	89,Yellow Button	550.0	800.0	2200.0	1950.0	0.0	800.0	0.0	n/a	go_stim
115377.79138383736	1030.20861616	n/a	-1	-1	2750	1030.20861616	stim	stop-signal	52	128037	0.0-5.23-1.23	beast_fmri_test	290	2.0978,2.1091333333333333,2.1204666666666667,2.131866666666667,2.143133333333333	t,t,t,t,t	<img class = center src='/static/experiments/beast_fmri_test/images/V.png'></img>	71,89	2750.0	test	<img class = center src='/static/experiments/beast_fmri_test/images/redV.png'></img>	go	1950.0	2.0	23.0	go	non-target	V	71,Green Button	89,Yellow Button	550.0	800.0	2200.0	1950.0	0.0	800.0	0.0	n/a	ITI
117942.0	500.0	n/a	-1	-1	500	0.0	fixation	poldrack-single-stim	53	129571	0.0-5.24-0.24	beast_fmri_test	290	2.15446666666666	t	<div class = centerbox><div class = fixation>+</div></div>	none	500.0	test	n/a	n/a	n/a	n/a	n/a	n/a	n/a	n/a	n/a	n/a	n/a	n/a	n/a	n/a	n/a	n/a	n/a	n/a	fixation
117907.72341135141	550.0	n/a	-1	-1	2750	35.2765886486	stim	stop-signal	54	132322	0.0-5.24-1.24	beast_fmri_test	290	2.1658,2.1771333333333334,2.188466666666667,2.1998	t,t,t,t	<img class = center src='/static/experiments/beast_fmri_test/images/T.png'></img>	71,89	2750.0	test	<img class = center src='/static/experiments/beast_fmri_test/images/redT.png'></img>	stop	2200.0	2.0	24.0	stop	target	T	71,Green Button	89,Yellow Button	550.0	800.0	2200.0	1950.0	0.0	550.0	0.0	1.0	go_stim
120107.72341135141	2200.0	n/a	-1	-1	2750	35.2765886486	stim	stop-signal	54	132322	0.0-5.24-1.24	beast_fmri_test	290	2.1658,2.1771333333333334,2.188466666666667,2.1998	t,t,t,t	<img class = center src='/static/experiments/beast_fmri_test/images/T.png'></img>	71,89	2750.0	test	<img class = center src='/static/experiments/beast_fmri_test/images/redT.png'></img>	stop	2200.0	2.0	24.0	stop	target	T	71,Green Button	89,Yellow Button	550.0	800.0	2200.0	1950.0	0.0	550.0	0.0	1.0	stop_stim
120657.72341135141	35.2765886486	n/a	-1	-1	2750	35.2765886486	stim	stop-signal	54	132322	0.0-5.24-1.24	beast_fmri_test	290	2.1658,2.1771333333333334,2.188466666666667,2.1998	t,t,t,t	<img class = center src='/static/experiments/beast_fmri_test/images/T.png'></img>	71,89	2750.0	test	<img class = center src='/static/experiments/beast_fmri_test/images/redT.png'></img>	stop	2200.0	2.0	24.0	stop	target	T	71,Green Button	89,Yellow Button	550.0	800.0	2200.0	1950.0	0.0	550.0	0.0	1.0	ITI
121232.0	500.0	n/a	-1	-1	500	0.0	fixation	poldrack-single-stim	55	132861	0.0-5.25-0.25	beast_fmri_test	290	2.21113333333333	t	<div class = centerbox><div class = fixation>+</div></div>	none	500.0	test	n/a	n/a	n/a	n/a	n/a	n/a	n/a	n/a	n/a	n/a	n/a	n/a	n/a	n/a	n/a	n/a	n/a	n/a	fixation
120601.61050313673	2750.0	n/a	-1	-1	2750	633.389496863	stim	stop-signal	56	135614	0.0-5.25-1.25	beast_fmri_test	290	2.2224666666666666,2.233833333333333,2.2451333333333334,2.256466666666667,2.2678	t,t,t,t,t	<img class = center src='/static/experiments/beast_fmri_test/images/P.png'></img>	71,89	2750.0	test	<img class = center src='/static/experiments/beast_fmri_test/images/redP.png'></img>	go	1950.0	2.0	25.0	go	non-target	P	71,Green Button	89,Yellow Button	600.0	800.0	2200.0	1950.0	0.0	800.0	0.0	n/a	go_stim
123351.61050313673	633.389496863	n/a	-1	-1	2750	633.389496863	stim	stop-signal	56	135614	0.0-5.25-1.25	beast_fmri_test	290	2.2224666666666666,2.233833333333333,2.2451333333333334,2.256466666666667,2.2678	t,t,t,t,t	<img class = center src='/static/experiments/beast_fmri_test/images/P.png'></img>	71,89	2750.0	test	<img class = center src='/static/experiments/beast_fmri_test/images/redP.png'></img>	go	1950.0	2.0	25.0	go	non-target	P	71,Green Button	89,Yellow Button	600.0	800.0	2200.0	1950.0	0.0	800.0	0.0	n/a	ITI
125121.0	500.0	n/a	-1	-1	500	0.0	fixation	poldrack-single-stim	57	136750	0.0-5.26-0.26	beast_fmri_test	290	2.27913333333333	t	<div class = centerbox><div class = fixation>+</div></div>	none	500.0	test	n/a	n/a	n/a	n/a	n/a	n/a	n/a	n/a	n/a	n/a	n/a	n/a	n/a	n/a	n/a	n/a	n/a	n/a	fixation
124752.09443980729	2750.0	n/a	-1	-1	2750	369.905560193	stim	stop-signal	58	139501	0.0-5.26-1.26	beast_fmri_test	290	2.2904666666666667,2.3018,2.3131333333333335,2.3244666666666665	t,t,t,t	<img class = center src='/static/experiments/beast_fmri_test/images/D.png'></img>	71,89	2750.0	test	<img class = center src='/static/experiments/beast_fmri_test/images/redD.png'></img>	go	1950.0	2.0	26.0	go	non-target	D	71,Green Button	89,Yellow Button	600.0	800.0	2200.0	1950.0	0.0	800.0	0.0	n/a	go_stim
127502.09443980729	369.905560193	n/a	-1	-1	2750	369.905560193	stim	stop-signal	58	139501	0.0-5.26-1.26	beast_fmri_test	290	2.2904666666666667,2.3018,2.3131333333333335,2.3244666666666665	t,t,t,t	<img class = center src='/static/experiments/beast_fmri_test/images/D.png'></img>	71,89	2750.0	test	<img class = center src='/static/experiments/beast_fmri_test/images/redD.png'></img>	go	1950.0	2.0	26.0	go	non-target	D	71,Green Button	89,Yellow Button	600.0	800.0	2200.0	1950.0	0.0	800.0	0.0	n/a	ITI
128748.0	500.0	n/a	-1	-1	500	0.0	fixation	poldrack-single-stim	59	140377	0.0-5.27-0.27	beast_fmri_test	290	2.3358	t	<div class = centerbox><div class = fixation>+</div></div>	none	500.0	test	n/a	n/a	n/a	n/a	n/a	n/a	n/a	n/a	n/a	n/a	n/a	n/a	n/a	n/a	n/a	n/a	n/a	n/a	fixation
127940.64353980179	2750.0	n/a	-1	-1	2750	809.356460198	stim	stop-signal	60	143129	0.0-5.27-1.27	beast_fmri_test	290	2.3471333333333333,2.3584666666666667,2.3698,2.3811333333333335,2.3924666666666665	t,t,t,t,t	<img class = center src='/static/experiments/beast_fmri_test/images/V.png'></img>	71,89	2750.0	test	<img class = center src='/static/experiments/beast_fmri_test/images/redV.png'></img>	go	1950.0	2.0	27.0	go	non-target	V	71,Green Button	89,Yellow Button	600.0	800.0	2200.0	1950.0	0.0	800.0	0.0	n/a	go_stim
130690.64353980179	809.356460198	n/a	-1	-1	2750	809.356460198	stim	stop-signal	60	143129	0.0-5.27-1.27	beast_fmri_test	290	2.3471333333333333,2.3584666666666667,2.3698,2.3811333333333335,2.3924666666666665	t,t,t,t,t	<img class = center src='/static/experiments/beast_fmri_test/images/V.png'></img>	71,89	2750.0	test	<img class = center src='/static/experiments/beast_fmri_test/images/redV.png'></img>	go	1950.0	2.0	27.0	go	non-target	V	71,Green Button	89,Yellow Button	600.0	800.0	2200.0	1950.0	0.0	800.0	0.0	n/a	ITI
132815.0	500.0	n/a	-1	-1	500	0.0	fixation	poldrack-single-stim	61	144444	0.0-5.28-0.28	beast_fmri_test	290	2.40381666666666	t	<div class = centerbox><div class = fixation>+</div></div>	none	500.0	test	n/a	n/a	n/a	n/a	n/a	n/a	n/a	n/a	n/a	n/a	n/a	n/a	n/a	n/a	n/a	n/a	n/a	n/a	fixation
131157.05360059833	2750.0	n/a	-1	-1	2750	1659.9463994	stim	stop-signal	62	147196	0.0-5.28-1.28	beast_fmri_test	290	2.4151333333333334,2.4264666666666668,2.4378,2.449133333333333,2.4604666666666666,2.4718	t,t,t,t,t,t	<img class = center src='/static/experiments/beast_fmri_test/images/D.png'></img>	71,89	2750.0	test	<img class = center src='/static/experiments/beast_fmri_test/images/redD.png'></img>	go	2150.0	2.0	28.0	go	target	D	71,Green Button	89,Yellow Button	600.0	800.0	2150.0	1950.0	0.0	600.0	0.0	n/a	go_stim
133907.05360059833	1659.9463994	n/a	-1	-1	2750	1659.9463994	stim	stop-signal	62	147196	0.0-5.28-1.28	beast_fmri_test	290	2.4151333333333334,2.4264666666666668,2.4378,2.449133333333333,2.4604666666666666,2.4718	t,t,t,t,t,t	<img class = center src='/static/experiments/beast_fmri_test/images/D.png'></img>	71,89	2750.0	test	<img class = center src='/static/experiments/beast_fmri_test/images/redD.png'></img>	go	2150.0	2.0	28.0	go	target	D	71,Green Button	89,Yellow Button	600.0	800.0	2150.0	1950.0	0.0	600.0	0.0	n/a	ITI
137734.0	500.0	n/a	-1	-1	500	0.0	fixation	poldrack-single-stim	63	149363	0.0-5.29-0.29	beast_fmri_test	290	2.48313333333333	t	<div class = centerbox><div class = fixation>+</div></div>	none	500.0	test	n/a	n/a	n/a	n/a	n/a	n/a	n/a	n/a	n/a	n/a	n/a	n/a	n/a	n/a	n/a	n/a	n/a	n/a	fixation
136022.6800360177	2750.0	n/a	-1	-1	2750	1712.31996398	stim	stop-signal	64	152114	0.0-5.29-1.29	beast_fmri_test	290	2.494466666666667,2.5058,2.5171333333333332,2.5284666666666666,2.5397833333333333,2.5511333333333335,2.56245	t,t,t,t,t,t,t	<img class = center src='/static/experiments/beast_fmri_test/images/V.png'></img>	71,89	2750.0	test	<img class = center src='/static/experiments/beast_fmri_test/images/redV.png'></img>	go	2150.0	2.0	29.0	go	target	V	71,Green Button	89,Yellow Button	600.0	800.0	2150.0	1950.0	0.0	600.0	0.0	n/a	go_stim
138772.6800360177	1712.31996398	n/a	-1	-1	2750	1712.31996398	stim	stop-signal	64	152114	0.0-5.29-1.29	beast_fmri_test	290	2.494466666666667,2.5058,2.5171333333333332,2.5284666666666666,2.5397833333333333,2.5511333333333335,2.56245	t,t,t,t,t,t,t	<img class = center src='/static/experiments/beast_fmri_test/images/V.png'></img>	71,89	2750.0	test	<img class = center src='/static/experiments/beast_fmri_test/images/redV.png'></img>	go	2150.0	2.0	29.0	go	target	V	71,Green Button	89,Yellow Button	600.0	800.0	2150.0	1950.0	0.0	600.0	0.0	n/a	ITI
142704.0	500.0	n/a	-1	-1	500	0.0	fixation	poldrack-single-stim	65	154333	0.0-5.30-0.30	beast_fmri_test	290	n/a	n/a	<div class = centerbox><div class = fixation>+</div></div>	none	500.0	test	n/a	n/a	n/a	n/a	n/a	n/a	n/a	n/a	n/a	n/a	n/a	n/a	n/a	n/a	n/a	n/a	n/a	n/a	fixation
142408.26555109306	2750.0	n/a	-1	-1	2750	297.734448907	stim	stop-signal	66	157085	0.0-5.30-1.30	beast_fmri_test	290	2.5738166666666666,2.5851333333333333,2.5964666666666667,2.6078,2.6191166666666668	t,t,t,t,t	<img class = center src='/static/experiments/beast_fmri_test/images/D.png'></img>	71,89	2750.0	test	<img class = center src='/static/experiments/beast_fmri_test/images/redD.png'></img>	go	2150.0	2.0	30.0	go	target	D	71,Green Button	89,Yellow Button	600.0	800.0	2150.0	1950.0	0.0	600.0	0.0	n/a	go_stim
145158.26555109306	297.734448907	n/a	-1	-1	2750	297.734448907	stim	stop-signal	66	157085	0.0-5.30-1.30	beast_fmri_test	290	2.5738166666666666,2.5851333333333333,2.5964666666666667,2.6078,2.6191166666666668	t,t,t,t,t	<img class = center src='/static/experiments/beast_fmri_test/images/D.png'></img>	71,89	2750.0	test	<img class = center src='/static/experiments/beast_fmri_test/images/redD.png'></img>	go	2150.0	2.0	30.0	go	target	D	71,Green Button	89,Yellow Button	600.0	800.0	2150.0	1950.0	0.0	600.0	0.0	n/a	ITI
146259.0	500.0	n/a	-1	-1	500	0.0	fixation	poldrack-single-stim	67	157888	0.0-5.31-0.31	beast_fmri_test	290	2.63048333333333	t	<div class = centerbox><div class = fixation>+</div></div>	none	500.0	test	n/a	n/a	n/a	n/a	n/a	n/a	n/a	n/a	n/a	n/a	n/a	n/a	n/a	n/a	n/a	n/a	n/a	n/a	fixation
145129.86378636752	2750.0	n/a	-1	-1	2750	1131.13621363	stim	stop-signal	68	160640	0.0-5.31-1.31	beast_fmri_test	290	2.6418166666666667,2.6531333333333333,2.6644833333333335,2.6758166666666665,2.68715	t,t,t,t,t	<img class = center src='/static/experiments/beast_fmri_test/images/P.png'></img>	71,89	2750.0	test	<img class = center src='/static/experiments/beast_fmri_test/images/redP.png'></img>	go	1950.0	2.0	31.0	go	non-target	P	71,Green Button	89,Yellow Button	600.0	800.0	2150.0	1950.0	0.0	800.0	0.0	n/a	go_stim
147879.86378636752	1131.13621363	n/a	-1	-1	2750	1131.13621363	stim	stop-signal	68	160640	0.0-5.31-1.31	beast_fmri_test	290	2.6418166666666667,2.6531333333333333,2.6644833333333335,2.6758166666666665,2.68715	t,t,t,t,t	<img class = center src='/static/experiments/beast_fmri_test/images/P.png'></img>	71,89	2750.0	test	<img class = center src='/static/experiments/beast_fmri_test/images/redP.png'></img>	go	1950.0	2.0	31.0	go	non-target	P	71,Green Button	89,Yellow Button	600.0	800.0	2150.0	1950.0	0.0	800.0	0.0	n/a	ITI
150648.0	500.0	n/a	-1	-1	500	0.0	fixation	poldrack-single-stim	69	162277	0.0-5.32-0.32	beast_fmri_test	290	2.69848333333333	t	<div class = centerbox><div class = fixation>+</div></div>	none	500.0	test	n/a	n/a	n/a	n/a	n/a	n/a	n/a	n/a	n/a	n/a	n/a	n/a	n/a	n/a	n/a	n/a	n/a	n/a	fixation
150533.75112320096	800.0	n/a	-1	-1	2750	115.248876799	stim	stop-signal	70	165028	0.0-5.32-1.32	beast_fmri_test	290	2.7098,2.7211333333333334,2.732483333333333,2.7438333333333333	t,t,t,t	<img class = center src='/static/experiments/beast_fmri_test/images/B.png'></img>	71,89	2750.0	test	<img class = center src='/static/experiments/beast_fmri_test/images/redB.png'></img>	stop	1950.0	2.0	32.0	stop	non-target	B	71,Green Button	89,Yellow Button	600.0	800.0	2150.0	1950.0	0.0	800.0	0.0	1.0	go_stim
152483.75112320096	1950.0	n/a	-1	-1	2750	115.248876799	stim	stop-signal	70	165028	0.0-5.32-1.32	beast_fmri_test	290	2.7098,2.7211333333333334,2.732483333333333,2.7438333333333333	t,t,t,t	<img class = center src='/static/experiments/beast_fmri_test/images/B.png'></img>	71,89	2750.0	test	<img class = center src='/static/experiments/beast_fmri_test/images/redB.png'></img>	stop	1950.0	2.0	32.0	stop	non-target	B	71,Green Button	89,Yellow Button	600.0	800.0	2150.0	1950.0	0.0	800.0	0.0	1.0	stop_stim
153283.75112320096	115.248876799	n/a	-1	-1	2750	115.248876799	stim	stop-signal	70	165028	0.0-5.32-1.32	beast_fmri_test	290	2.7098,2.7211333333333334,2.732483333333333,2.7438333333333333	t,t,t,t	<img class = center src='/static/experiments/beast_fmri_test/images/B.png'></img>	71,89	2750.0	test	<img class = center src='/static/experiments/beast_fmri_test/images/redB.png'></img>	stop	1950.0	2.0	32.0	stop	non-target	B	71,Green Button	89,Yellow Button	600.0	800.0	2150.0	1950.0	0.0	800.0	0.0	1.0	ITI
154022.0	500.0	n/a	-1	-1	500	0.0	fixation	poldrack-single-stim	71	165651	0.0-5.33-0.33	beast_fmri_test	290	2.75515	t	<div class = centerbox><div class = fixation>+</div></div>	none	500.0	test	n/a	n/a	n/a	n/a	n/a	n/a	n/a	n/a	n/a	n/a	n/a	n/a	n/a	n/a	n/a	n/a	n/a	n/a	fixation
153168.982496304	2750.0	n/a	-1	-1	2750	855.017503696	stim	stop-signal	72	168403	0.0-5.33-1.33	beast_fmri_test	290	2.7664666666666666,2.777816666666667,2.7891333333333335,2.800483333333333,2.8118	t,t,t,t,t	<img class = center src='/static/experiments/beast_fmri_test/images/P.png'></img>	71,89	2750.0	test	<img class = center src='/static/experiments/beast_fmri_test/images/redP.png'></img>	go	2150.0	2.0	33.0	go	target	P	71,Green Button	89,Yellow Button	600.0	850.0	2150.0	1950.0	0.0	600.0	0.0	n/a	go_stim
155918.982496304	855.017503696	n/a	-1	-1	2750	855.017503696	stim	stop-signal	72	168403	0.0-5.33-1.33	beast_fmri_test	290	2.7664666666666666,2.777816666666667,2.7891333333333335,2.800483333333333,2.8118	t,t,t,t,t	<img class = center src='/static/experiments/beast_fmri_test/images/P.png'></img>	71,89	2750.0	test	<img class = center src='/static/experiments/beast_fmri_test/images/redP.png'></img>	go	2150.0	2.0	33.0	go	target	P	71,Green Button	89,Yellow Button	600.0	850.0	2150.0	1950.0	0.0	600.0	0.0	n/a	ITI
158136.0	500.0	n/a	-1	-1	500	0.0	fixation	poldrack-single-stim	73	169765	0.0-5.34-0.34	beast_fmri_test	290	2.82313333333333	t	<div class = centerbox><div class = fixation>+</div></div>	none	500.0	test	n/a	n/a	n/a	n/a	n/a	n/a	n/a	n/a	n/a	n/a	n/a	n/a	n/a	n/a	n/a	n/a	n/a	n/a	fixation
156230.85356929802	850.0	n/a	-1	-1	2750	1907.1464307	stim	stop-signal	74	172517	0.0-5.34-1.34	beast_fmri_test	290	2.8344666666666667,2.8458,2.8571333333333335,2.8684666666666665,2.8798,2.8911333333333333,2.9024666666666668	t,t,t,t,t,t,t	<img class = center src='/static/experiments/beast_fmri_test/images/V.png'></img>	71,89	2750.0	test	<img class = center src='/static/experiments/beast_fmri_test/images/redV.png'></img>	stop	1900.0	2.0	34.0	stop	non-target	V	71,Green Button	89,Yellow Button	600.0	850.0	2150.0	1900.0	0.0	850.0	0.0	1.0	go_stim
158130.85356929802	1900.0	n/a	-1	-1	2750	1907.1464307	stim	stop-signal	74	172517	0.0-5.34-1.34	beast_fmri_test	290	2.8344666666666667,2.8458,2.8571333333333335,2.8684666666666665,2.8798,2.8911333333333333,2.9024666666666668	t,t,t,t,t,t,t	<img class = center src='/static/experiments/beast_fmri_test/images/V.png'></img>	71,89	2750.0	test	<img class = center src='/static/experiments/beast_fmri_test/images/redV.png'></img>	stop	1900.0	2.0	34.0	stop	non-target	V	71,Green Button	89,Yellow Button	600.0	850.0	2150.0	1900.0	0.0	850.0	0.0	1.0	stop_stim
158980.85356929802	1907.1464307	n/a	-1	-1	2750	1907.1464307	stim	stop-signal	74	172517	0.0-5.34-1.34	beast_fmri_test	290	2.8344666666666667,2.8458,2.8571333333333335,2.8684666666666665,2.8798,2.8911333333333333,2.9024666666666668	t,t,t,t,t,t,t	<img class = center src='/static/experiments/beast_fmri_test/images/V.png'></img>	71,89	2750.0	test	<img class = center src='/static/experiments/beast_fmri_test/images/redV.png'></img>	stop	1900.0	2.0	34.0	stop	non-target	V	71,Green Button	89,Yellow Button	600.0	850.0	2150.0	1900.0	0.0	850.0	0.0	1.0	ITI
163301.0	500.0	n/a	-1	-1	500	0.0	fixation	poldrack-single-stim	75	174930	0.0-5.35-0.35	beast_fmri_test	290	2.91383333333333	t	<div class = centerbox><div class = fixation>+</div></div>	none	500.0	test	n/a	n/a	n/a	n/a	n/a	n/a	n/a	n/a	n/a	n/a	n/a	n/a	n/a	n/a	n/a	n/a	n/a	n/a	fixation
163148.73225398816	900.0	n/a	-1	-1	2750	154.267746012	stim	stop-signal	76	177682	0.0-5.35-1.35	beast_fmri_test	290	2.925133333333333,2.9364666666666666,2.9478,2.9591333333333334	t,t,t,t	<img class = center src='/static/experiments/beast_fmri_test/images/V.png'></img>	71,89	2750.0	test	<img class = center src='/static/experiments/beast_fmri_test/images/redV.png'></img>	stop	1850.0	2.0	35.0	stop	non-target	V	71,Green Button	89,Yellow Button	600.0	900.0	2150.0	1850.0	0.0	900.0	0.0	1.0	go_stim
164998.73225398816	1850.0	n/a	-1	-1	2750	154.267746012	stim	stop-signal	76	177682	0.0-5.35-1.35	beast_fmri_test	290	2.925133333333333,2.9364666666666666,2.9478,2.9591333333333334	t,t,t,t	<img class = center src='/static/experiments/beast_fmri_test/images/V.png'></img>	71,89	2750.0	test	<img class = center src='/static/experiments/beast_fmri_test/images/redV.png'></img>	stop	1850.0	2.0	35.0	stop	non-target	V	71,Green Button	89,Yellow Button	600.0	900.0	2150.0	1850.0	0.0	900.0	0.0	1.0	stop_stim
165898.73225398816	154.267746012	n/a	-1	-1	2750	154.267746012	stim	stop-signal	76	177682	0.0-5.35-1.35	beast_fmri_test	290	2.925133333333333,2.9364666666666666,2.9478,2.9591333333333334	t,t,t,t	<img class = center src='/static/experiments/beast_fmri_test/images/V.png'></img>	71,89	2750.0	test	<img class = center src='/static/experiments/beast_fmri_test/images/redV.png'></img>	stop	1850.0	2.0	35.0	stop	non-target	V	71,Green Button	89,Yellow Button	600.0	900.0	2150.0	1850.0	0.0	900.0	0.0	1.0	ITI
166712.0	500.0	n/a	-1	-1	500	0.0	fixation	poldrack-single-stim	77	178341	0.0-5.36-0.36	beast_fmri_test	290	2.97048333333333	t	<div class = centerbox><div class = fixation>+</div></div>	none	500.0	test	n/a	n/a	n/a	n/a	n/a	n/a	n/a	n/a	n/a	n/a	n/a	n/a	n/a	n/a	n/a	n/a	n/a	n/a	fixation
166279.77786890909	950.0	n/a	-1	-1	2750	435.222131091	stim	stop-signal	78	181094	0.0-5.36-1.36	beast_fmri_test	290	2.9818,2.993133333333333,3.0044666666666666,3.0158	t,t,t,t	<img class = center src='/static/experiments/beast_fmri_test/images/D.png'></img>	71,89	2750.0	test	<img class = center src='/static/experiments/beast_fmri_test/images/redD.png'></img>	stop	1800.0	2.0	36.0	stop	non-target	D	71,Green Button	89,Yellow Button	600.0	950.0	2150.0	1800.0	0.0	950.0	0.0	1.0	go_stim
168079.77786890909	1800.0	n/a	-1	-1	2750	435.222131091	stim	stop-signal	78	181094	0.0-5.36-1.36	beast_fmri_test	290	2.9818,2.993133333333333,3.0044666666666666,3.0158	t,t,t,t	<img class = center src='/static/experiments/beast_fmri_test/images/D.png'></img>	71,89	2750.0	test	<img class = center src='/static/experiments/beast_fmri_test/images/redD.png'></img>	stop	1800.0	2.0	36.0	stop	non-target	D	71,Green Button	89,Yellow Button	600.0	950.0	2150.0	1800.0	0.0	950.0	0.0	1.0	stop_stim
169029.77786890909	435.222131091	n/a	-1	-1	2750	435.222131091	stim	stop-signal	78	181094	0.0-5.36-1.36	beast_fmri_test	290	2.9818,2.993133333333333,3.0044666666666666,3.0158	t,t,t,t	<img class = center src='/static/experiments/beast_fmri_test/images/D.png'></img>	71,89	2750.0	test	<img class = center src='/static/experiments/beast_fmri_test/images/redD.png'></img>	stop	1800.0	2.0	36.0	stop	non-target	D	71,Green Button	89,Yellow Button	600.0	950.0	2150.0	1800.0	0.0	950.0	0.0	1.0	ITI
170407.0	500.0	n/a	-1	-1	500	0.0	fixation	poldrack-single-stim	79	182036	0.0-5.37-0.37	beast_fmri_test	290	3.02713333333333	t	<div class = centerbox><div class = fixation>+</div></div>	none	500.0	test	n/a	n/a	n/a	n/a	n/a	n/a	n/a	n/a	n/a	n/a	n/a	n/a	n/a	n/a	n/a	n/a	n/a	n/a	fixation
170327.81769358917	2750.0	n/a	-1	-1	2750	80.1823064108	stim	stop-signal	80	184787	0.0-5.37-1.37	beast_fmri_test	290	3.038466666666667,3.0498,3.0611333333333333,3.0724666666666667	t,t,t,t	<img class = center src='/static/experiments/beast_fmri_test/images/T.png'></img>	71,89	2750.0	test	<img class = center src='/static/experiments/beast_fmri_test/images/redT.png'></img>	go	1750.0	2.0	37.0	go	non-target	T	71,Green Button	89,Yellow Button	600.0	1000.0	2150.0	1750.0	0.0	1000.0	0.0	n/a	go_stim
173077.81769358917	80.1823064108	n/a	-1	-1	2750	80.1823064108	stim	stop-signal	80	184787	0.0-5.37-1.37	beast_fmri_test	290	3.038466666666667,3.0498,3.0611333333333333,3.0724666666666667	t,t,t,t	<img class = center src='/static/experiments/beast_fmri_test/images/T.png'></img>	71,89	2750.0	test	<img class = center src='/static/experiments/beast_fmri_test/images/redT.png'></img>	go	1750.0	2.0	37.0	go	non-target	T	71,Green Button	89,Yellow Button	600.0	1000.0	2150.0	1750.0	0.0	1000.0	0.0	n/a	ITI
173745.0	500.0	n/a	-1	-1	500	0.0	fixation	poldrack-single-stim	81	185374	0.0-5.38-0.38	beast_fmri_test	290	3.08383333333333	t	<div class = centerbox><div class = fixation>+</div></div>	none	500.0	test	n/a	n/a	n/a	n/a	n/a	n/a	n/a	n/a	n/a	n/a	n/a	n/a	n/a	n/a	n/a	n/a	n/a	n/a	fixation
172709.47208648163	600.0	n/a	-1	-1	2750	1037.52791352	stim	stop-signal	82	188126	0.0-5.38-1.38	beast_fmri_test	290	3.0951333333333335,3.1064666666666665,3.1178,3.1291333333333333,3.1404666666666667,3.1518	t,t,t,t,t,t	<img class = center src='/static/experiments/beast_fmri_test/images/D.png'></img>	71,89	2750.0	test	<img class = center src='/static/experiments/beast_fmri_test/images/redD.png'></img>	stop	2150.0	2.0	38.0	stop	target	D	71,Green Button	89,Yellow Button	600.0	1000.0	2150.0	1750.0	0.0	600.0	0.0	1.0	go_stim
174859.47208648163	2150.0	n/a	-1	-1	2750	1037.52791352	stim	stop-signal	82	188126	0.0-5.38-1.38	beast_fmri_test	290	3.0951333333333335,3.1064666666666665,3.1178,3.1291333333333333,3.1404666666666667,3.1518	t,t,t,t,t,t	<img class = center src='/static/experiments/beast_fmri_test/images/D.png'></img>	71,89	2750.0	test	<img class = center src='/static/experiments/beast_fmri_test/images/redD.png'></img>	stop	2150.0	2.0	38.0	stop	target	D	71,Green Button	89,Yellow Button	600.0	1000.0	2150.0	1750.0	0.0	600.0	0.0	1.0	stop_stim
175459.47208648163	1037.52791352	n/a	-1	-1	2750	1037.52791352	stim	stop-signal	82	188126	0.0-5.38-1.38	beast_fmri_test	290	3.0951333333333335,3.1064666666666665,3.1178,3.1291333333333333,3.1404666666666667,3.1518	t,t,t,t,t,t	<img class = center src='/static/experiments/beast_fmri_test/images/D.png'></img>	71,89	2750.0	test	<img class = center src='/static/experiments/beast_fmri_test/images/redD.png'></img>	stop	2150.0	2.0	38.0	stop	target	D	71,Green Button	89,Yellow Button	600.0	1000.0	2150.0	1750.0	0.0	600.0	0.0	1.0	ITI
178040.0	500.0	n/a	-1	-1	500	0.0	fixation	poldrack-single-stim	83	189669	0.0-5.39-0.39	beast_fmri_test	290	n/a	n/a	<div class = centerbox><div class = fixation>+</div></div>	none	500.0	test	n/a	n/a	n/a	n/a	n/a	n/a	n/a	n/a	n/a	n/a	n/a	n/a	n/a	n/a	n/a	n/a	n/a	n/a	fixation
177527.28372590157	2750.0	n/a	-1	-1	2750	514.716274098	stim	stop-signal	84	192421	0.0-5.39-1.39	beast_fmri_test	290	3.163133333333333,3.1744666666666665,3.1858166666666667,3.19715,3.208483333333333	t,t,t,t,t	<img class = center src='/static/experiments/beast_fmri_test/images/P.png'></img>	71,89	2750.0	test	<img class = center src='/static/experiments/beast_fmri_test/images/redP.png'></img>	go	1750.0	2.0	39.0	go	non-target	P	71,Green Button	89,Yellow Button	650.0	1000.0	2150.0	1750.0	0.0	1000.0	0.0	n/a	go_stim
180277.28372590157	514.716274098	n/a	-1	-1	2750	514.716274098	stim	stop-signal	84	192421	0.0-5.39-1.39	beast_fmri_test	290	3.163133333333333,3.1744666666666665,3.1858166666666667,3.19715,3.208483333333333	t,t,t,t,t	<img class = center src='/static/experiments/beast_fmri_test/images/P.png'></img>	71,89	2750.0	test	<img class = center src='/static/experiments/beast_fmri_test/images/redP.png'></img>	go	1750.0	2.0	39.0	go	non-target	P	71,Green Button	89,Yellow Button	650.0	1000.0	2150.0	1750.0	0.0	1000.0	0.0	n/a	ITI
181811.0	500.0	n/a	-1	-1	500	0.0	fixation	poldrack-single-stim	85	193440	0.0-5.40-0.40	beast_fmri_test	290	3.21981666666666	t	<div class = centerbox><div class = fixation>+</div></div>	none	500.0	test	n/a	n/a	n/a	n/a	n/a	n/a	n/a	n/a	n/a	n/a	n/a	n/a	n/a	n/a	n/a	n/a	n/a	n/a	fixation
181497.88084910403	2750.0	n/a	-1	-1	2750	315.119150896	stim	stop-signal	86	196192	0.0-5.40-1.40	beast_fmri_test	290	3.23115,3.2424833333333334,3.253833333333333,3.26515	t,t,t,t	<img class = center src='/static/experiments/beast_fmri_test/images/D.png'></img>	71,89	2750.0	test	<img class = center src='/static/experiments/beast_fmri_test/images/redD.png'></img>	go	2100.0	2.0	40.0	go	target	D	71,Green Button	89,Yellow Button	650.0	1000.0	2100.0	1750.0	0.0	650.0	0.0	n/a	go_stim
184247.88084910403	315.119150896	n/a	-1	-1	2750	315.119150896	stim	stop-signal	86	196192	0.0-5.40-1.40	beast_fmri_test	290	3.23115,3.2424833333333334,3.253833333333333,3.26515	t,t,t,t	<img class = center src='/static/experiments/beast_fmri_test/images/D.png'></img>	71,89	2750.0	test	<img class = center src='/static/experiments/beast_fmri_test/images/redD.png'></img>	go	2100.0	2.0	40.0	go	target	D	71,Green Button	89,Yellow Button	650.0	1000.0	2100.0	1750.0	0.0	650.0	0.0	n/a	ITI
185384.0	500.0	n/a	-1	-1	500	0.0	fixation	poldrack-single-stim	87	197013	0.0-5.41-0.41	beast_fmri_test	290	3.27648333333333	t	<div class = centerbox><div class = fixation>+</div></div>	none	500.0	test	n/a	n/a	n/a	n/a	n/a	n/a	n/a	n/a	n/a	n/a	n/a	n/a	n/a	n/a	n/a	n/a	n/a	n/a	fixation
184928.32723725759	2750.0	n/a	-1	-1	2750	457.672762742	stim	stop-signal	88	199765	0.0-5.41-1.41	beast_fmri_test	290	3.2878166666666666,3.29915,3.3104833333333334,3.321816666666667,3.33315	t,t,t,t,t	<img class = center src='/static/experiments/beast_fmri_test/images/P.png'></img>	71,89	2750.0	test	<img class = center src='/static/experiments/beast_fmri_test/images/redP.png'></img>	go	2100.0	2.0	41.0	go	target	P	71,Green Button	89,Yellow Button	650.0	1000.0	2100.0	1750.0	0.0	650.0	0.0	n/a	go_stim
187678.32723725759	457.672762742	n/a	-1	-1	2750	457.672762742	stim	stop-signal	88	199765	0.0-5.41-1.41	beast_fmri_test	290	3.2878166666666666,3.29915,3.3104833333333334,3.321816666666667,3.33315	t,t,t,t,t	<img class = center src='/static/experiments/beast_fmri_test/images/P.png'></img>	71,89	2750.0	test	<img class = center src='/static/experiments/beast_fmri_test/images/redP.png'></img>	go	2100.0	2.0	41.0	go	target	P	71,Green Button	89,Yellow Button	650.0	1000.0	2100.0	1750.0	0.0	650.0	0.0	n/a	ITI
189099.0	500.0	n/a	-1	-1	500	0.0	fixation	poldrack-single-stim	89	200728	0.0-5.42-0.42	beast_fmri_test	290	3.34448333333333	t	<div class = centerbox><div class = fixation>+</div></div>	none	500.0	test	n/a	n/a	n/a	n/a	n/a	n/a	n/a	n/a	n/a	n/a	n/a	n/a	n/a	n/a	n/a	n/a	n/a	n/a	fixation
188417.30272332401	650.0	n/a	-1	-1	2750	683.697276676	stim	stop-signal	90	203480	0.0-5.42-1.42	beast_fmri_test	290	3.3558166666666667,3.36715,3.3784666666666667,3.3898166666666665,3.40115	t,t,t,t,t	<img class = center src='/static/experiments/beast_fmri_test/images/D.png'></img>	71,89	2750.0	test	<img class = center src='/static/experiments/beast_fmri_test/images/redD.png'></img>	stop	2100.0	2.0	42.0	stop	target	D	71,Green Button	89,Yellow Button	650.0	1000.0	2100.0	1750.0	0.0	650.0	0.0	1.0	go_stim
190517.30272332401	2100.0	n/a	-1	-1	2750	683.697276676	stim	stop-signal	90	203480	0.0-5.42-1.42	beast_fmri_test	290	3.3558166666666667,3.36715,3.3784666666666667,3.3898166666666665,3.40115	t,t,t,t,t	<img class = center src='/static/experiments/beast_fmri_test/images/D.png'></img>	71,89	2750.0	test	<img class = center src='/static/experiments/beast_fmri_test/images/redD.png'></img>	stop	2100.0	2.0	42.0	stop	target	D	71,Green Button	89,Yellow Button	650.0	1000.0	2100.0	1750.0	0.0	650.0	0.0	1.0	stop_stim
191167.30272332401	683.697276676	n/a	-1	-1	2750	683.697276676	stim	stop-signal	90	203480	0.0-5.42-1.42	beast_fmri_test	290	3.3558166666666667,3.36715,3.3784666666666667,3.3898166666666665,3.40115	t,t,t,t,t	<img class = center src='/static/experiments/beast_fmri_test/images/D.png'></img>	71,89	2750.0	test	<img class = center src='/static/experiments/beast_fmri_test/images/redD.png'></img>	stop	2100.0	2.0	42.0	stop	target	D	71,Green Button	89,Yellow Button	650.0	1000.0	2100.0	1750.0	0.0	650.0	0.0	1.0	ITI
193040.0	500.0	n/a	-1	-1	500	0.0	fixation	poldrack-single-stim	91	204669	0.0-5.43-0.43	beast_fmri_test	290	n/a	n/a	<div class = centerbox><div class = fixation>+</div></div>	none	500.0	test	n/a	n/a	n/a	n/a	n/a	n/a	n/a	n/a	n/a	n/a	n/a	n/a	n/a	n/a	n/a	n/a	n/a	n/a	fixation
192325.77166892681	2750.0	n/a	-1	-1	2750	715.228331073	stim	stop-signal	92	207420	0.0-5.43-1.43	beast_fmri_test	290	3.4124666666666665,3.4238333333333335,3.43515,3.446483333333333,3.4578	t,t,t,t,t	<img class = center src='/static/experiments/beast_fmri_test/images/D.png'></img>	71,89	2750.0	test	<img class = center src='/static/experiments/beast_fmri_test/images/redD.png'></img>	go	1750.0	2.0	43.0	go	non-target	D	71,Green Button	89,Yellow Button	700.0	1000.0	2100.0	1750.0	0.0	1000.0	0.0	n/a	go_stim
195075.77166892681	715.228331073	n/a	-1	-1	2750	715.228331073	stim	stop-signal	92	207420	0.0-5.43-1.43	beast_fmri_test	290	3.4124666666666665,3.4238333333333335,3.43515,3.446483333333333,3.4578	t,t,t,t,t	<img class = center src='/static/experiments/beast_fmri_test/images/D.png'></img>	71,89	2750.0	test	<img class = center src='/static/experiments/beast_fmri_test/images/redD.png'></img>	go	1750.0	2.0	43.0	go	non-target	D	71,Green Button	89,Yellow Button	700.0	1000.0	2100.0	1750.0	0.0	1000.0	0.0	n/a	ITI
197012.0	500.0	n/a	-1	-1	500	0.0	fixation	poldrack-single-stim	93	208641	0.0-5.44-0.44	beast_fmri_test	290	3.46913333333333	t	<div class = centerbox><div class = fixation>+</div></div>	none	500.0	test	n/a	n/a	n/a	n/a	n/a	n/a	n/a	n/a	n/a	n/a	n/a	n/a	n/a	n/a	n/a	n/a	n/a	n/a	fixation
195856.8760532242	2750.0	n/a	-1	-1	2750	1157.12394678	stim	stop-signal	94	211393	0.0-5.44-1.44	beast_fmri_test	290	3.4804666666666666,3.4918,3.50315,3.514466666666667,3.5258166666666666,3.5371333333333332	t,t,t,t,t,t	<img class = center src='/static/experiments/beast_fmri_test/images/D.png'></img>	71,89	2750.0	test	<img class = center src='/static/experiments/beast_fmri_test/images/redD.png'></img>	go	2050.0	2.0	44.0	go	target	D	71,Green Button	89,Yellow Button	700.0	1000.0	2050.0	1750.0	0.0	700.0	0.0	n/a	go_stim
198606.8760532242	1157.12394678	n/a	-1	-1	2750	1157.12394678	stim	stop-signal	94	211393	0.0-5.44-1.44	beast_fmri_test	290	3.4804666666666666,3.4918,3.50315,3.514466666666667,3.5258166666666666,3.5371333333333332	t,t,t,t,t,t	<img class = center src='/static/experiments/beast_fmri_test/images/D.png'></img>	71,89	2750.0	test	<img class = center src='/static/experiments/beast_fmri_test/images/redD.png'></img>	go	2050.0	2.0	44.0	go	target	D	71,Green Button	89,Yellow Button	700.0	1000.0	2050.0	1750.0	0.0	700.0	0.0	n/a	ITI
201428.0	500.0	n/a	-1	-1	500	0.0	fixation	poldrack-single-stim	95	213057	0.0-5.45-0.45	beast_fmri_test	290	3.54846666666666	t	<div class = centerbox><div class = fixation>+</div></div>	none	500.0	test	n/a	n/a	n/a	n/a	n/a	n/a	n/a	n/a	n/a	n/a	n/a	n/a	n/a	n/a	n/a	n/a	n/a	n/a	fixation
200087.10011414241	2750.0	n/a	-1	-1	2750	1343.89988586	stim	stop-signal	96	215810	0.0-5.45-1.45	beast_fmri_test	290	3.5598,3.5711333333333335,3.5824833333333332,3.5938333333333334,3.6051333333333333,3.6164666666666667	t,t,t,t,t,t	<img class = center src='/static/experiments/beast_fmri_test/images/D.png'></img>	71,89	2750.0	test	<img class = center src='/static/experiments/beast_fmri_test/images/redD.png'></img>	go	2050.0	2.0	45.0	go	target	D	71,Green Button	89,Yellow Button	700.0	1000.0	2050.0	1750.0	0.0	700.0	0.0	n/a	go_stim
202837.10011414241	1343.89988586	n/a	-1	-1	2750	1343.89988586	stim	stop-signal	96	215810	0.0-5.45-1.45	beast_fmri_test	290	3.5598,3.5711333333333335,3.5824833333333332,3.5938333333333334,3.6051333333333333,3.6164666666666667	t,t,t,t,t,t	<img class = center src='/static/experiments/beast_fmri_test/images/D.png'></img>	71,89	2750.0	test	<img class = center src='/static/experiments/beast_fmri_test/images/redD.png'></img>	go	2050.0	2.0	45.0	go	target	D	71,Green Button	89,Yellow Button	700.0	1000.0	2050.0	1750.0	0.0	700.0	0.0	n/a	ITI
206031.0	500.0	n/a	-1	-1	500	0.0	fixation	poldrack-single-stim	97	217660	0.0-5.46-0.46	beast_fmri_test	290	n/a	n/a	<div class = centerbox><div class = fixation>+</div></div>	none	500.0	test	n/a	n/a	n/a	n/a	n/a	n/a	n/a	n/a	n/a	n/a	n/a	n/a	n/a	n/a	n/a	n/a	n/a	n/a	fixation
202418.9977479935	700.0	n/a	-1	-1	2750	3613.00225201	stim	stop-signal	98	220411	0.0-5.46-1.46	beast_fmri_test	290	3.6278,3.6391333333333336,3.6504833333333333,3.6618,3.6731333333333334,3.684466666666667,3.6958,3.707133333333333,3.7184666666666666,3.729816666666667	t,t,t,t,t,t,t,t,t,t	<img class = center src='/static/experiments/beast_fmri_test/images/D.png'></img>	71,89	2750.0	test	<img class = center src='/static/experiments/beast_fmri_test/images/redD.png'></img>	stop	2050.0	2.0	46.0	stop	target	D	71,Green Button	89,Yellow Button	700.0	1000.0	2050.0	1750.0	0.0	700.0	0.0	1.0	go_stim
204468.9977479935	2050.0	n/a	-1	-1	2750	3613.00225201	stim	stop-signal	98	220411	0.0-5.46-1.46	beast_fmri_test	290	3.6278,3.6391333333333336,3.6504833333333333,3.6618,3.6731333333333334,3.684466666666667,3.6958,3.707133333333333,3.7184666666666666,3.729816666666667	t,t,t,t,t,t,t,t,t,t	<img class = center src='/static/experiments/beast_fmri_test/images/D.png'></img>	71,89	2750.0	test	<img class = center src='/static/experiments/beast_fmri_test/images/redD.png'></img>	stop	2050.0	2.0	46.0	stop	target	D	71,Green Button	89,Yellow Button	700.0	1000.0	2050.0	1750.0	0.0	700.0	0.0	1.0	stop_stim
205168.9977479935	3613.00225201	n/a	-1	-1	2750	3613.00225201	stim	stop-signal	98	220411	0.0-5.46-1.46	beast_fmri_test	290	3.6278,3.6391333333333336,3.6504833333333333,3.6618,3.6731333333333334,3.684466666666667,3.6958,3.707133333333333,3.7184666666666666,3.729816666666667	t,t,t,t,t,t,t,t,t,t	<img class = center src='/static/experiments/beast_fmri_test/images/D.png'></img>	71,89	2750.0	test	<img class = center src='/static/experiments/beast_fmri_test/images/redD.png'></img>	stop	2050.0	2.0	46.0	stop	target	D	71,Green Button	89,Yellow Button	700.0	1000.0	2050.0	1750.0	0.0	700.0	0.0	1.0	ITI
227404.0	15000.0	n/a	-1	-1	15000	0.0	practice-no-stop-feedback	poldrack-single-stim	99	239033	0.0-6.0	beast_fmri_test	290	3.74115,3.752483333333333,3.7638333333333334,3.77515,3.7864833333333334,3.797816666666667,3.80915,3.8204833333333332,3.8318166666666666,3.84315,3.8544833333333335,3.8658166666666665,3.87715,3.8884833333333333,3.8998166666666667,3.91115,3.9224833333333335,3.9338333333333333,3.94515,3.9564833333333334,3.9678166666666668,3.97915	t,t,t,t,t,t,t,t,t,t,t,t,t,t,t,t,t,t,t,t,t,t	"<div class = ""centerbox""><p class = ""center-block-text"">Your delay is 1 trials.</p><p class = center-block-text>Please wait for the scanner to start the block</p></div>"	77	15000.0	n/a	n/a	n/a	n/a	n/a	n/a	n/a	n/a	n/a	n/a	n/a	n/a	n/a	n/a	n/a	n/a	n/a	n/a	n/a	practice-no-stop-feedback
227905.0	500.0	n/a	-1	-1	500	0.0	fixation	poldrack-single-stim	100	239534	0.0-7.0-0.0	beast_fmri_test	290	3.99048333333333	t	<div class = centerbox><div class = fixation>+</div></div>	none	500.0	test	n/a	n/a	n/a	n/a	n/a	n/a	n/a	n/a	n/a	n/a	n/a	n/a	n/a	n/a	n/a	n/a	n/a	n/a	fixation
227148.48279033121	2750.0	n/a	-1	-1	2750	758.517209669	stim	stop-signal	101	242286	0.0-7.0-1.0	beast_fmri_test	290	4.001816666666667,4.01315,4.024483333333333,4.035816666666666,4.04715	t,t,t,t,t	<img class = center src='/static/experiments/beast_fmri_test/images/V.png'></img>	71,89	2750.0	test	<img class = center src='/static/experiments/beast_fmri_test/images/redV.png'></img>	go	-1.0	1.0	0.0	go	temp-non-target	V	71,Green Button	89,Yellow Button	750.0	1000.0	2050.0	1750.0	0.0	n/a	n/a	n/a	go_stim
229898.48279033121	758.517209669	n/a	-1	-1	2750	758.517209669	stim	stop-signal	101	242286	0.0-7.0-1.0	beast_fmri_test	290	4.001816666666667,4.01315,4.024483333333333,4.035816666666666,4.04715	t,t,t,t,t	<img class = center src='/static/experiments/beast_fmri_test/images/V.png'></img>	71,89	2750.0	test	<img class = center src='/static/experiments/beast_fmri_test/images/redV.png'></img>	go	-1.0	1.0	0.0	go	temp-non-target	V	71,Green Button	89,Yellow Button	750.0	1000.0	2050.0	1750.0	0.0	n/a	n/a	n/a	ITI
231920.0	500.0	n/a	-1	-1	500	0.0	fixation	poldrack-single-stim	102	243549	0.0-7.1-0.1	beast_fmri_test	290	4.05848333333333	t	<div class = centerbox><div class = fixation>+</div></div>	none	500.0	test	n/a	n/a	n/a	n/a	n/a	n/a	n/a	n/a	n/a	n/a	n/a	n/a	n/a	n/a	n/a	n/a	n/a	n/a	fixation
231362.92155658038	750.0	n/a	-1	-1	2750	559.07844342	stim	stop-signal	103	246301	0.0-7.1-1.1	beast_fmri_test	290	4.069816666666667,4.08115,4.092483333333333,4.103833333333333	t,t,t,t	<img class = center src='/static/experiments/beast_fmri_test/images/V.png'></img>	71,89	2750.0	test	<img class = center src='/static/experiments/beast_fmri_test/images/redV.png'></img>	stop	2000.0	1.0	1.0	stop	target	V	71,Green Button	89,Yellow Button	750.0	1000.0	2000.0	1750.0	0.0	750.0	0.0	1.0	go_stim
233362.92155658038	2000.0	n/a	-1	-1	2750	559.07844342	stim	stop-signal	103	246301	0.0-7.1-1.1	beast_fmri_test	290	4.069816666666667,4.08115,4.092483333333333,4.103833333333333	t,t,t,t	<img class = center src='/static/experiments/beast_fmri_test/images/V.png'></img>	71,89	2750.0	test	<img class = center src='/static/experiments/beast_fmri_test/images/redV.png'></img>	stop	2000.0	1.0	1.0	stop	target	V	71,Green Button	89,Yellow Button	750.0	1000.0	2000.0	1750.0	0.0	750.0	0.0	1.0	stop_stim
234112.92155658038	559.07844342	n/a	-1	-1	2750	559.07844342	stim	stop-signal	103	246301	0.0-7.1-1.1	beast_fmri_test	290	4.069816666666667,4.08115,4.092483333333333,4.103833333333333	t,t,t,t	<img class = center src='/static/experiments/beast_fmri_test/images/V.png'></img>	71,89	2750.0	test	<img class = center src='/static/experiments/beast_fmri_test/images/redV.png'></img>	stop	2000.0	1.0	1.0	stop	target	V	71,Green Button	89,Yellow Button	750.0	1000.0	2000.0	1750.0	0.0	750.0	0.0	1.0	ITI
235739.0	500.0	n/a	-1	-1	500	0.0	fixation	poldrack-single-stim	104	247368	0.0-7.2-0.2	beast_fmri_test	290	4.11515	t	<div class = centerbox><div class = fixation>+</div></div>	none	500.0	test	n/a	n/a	n/a	n/a	n/a	n/a	n/a	n/a	n/a	n/a	n/a	n/a	n/a	n/a	n/a	n/a	n/a	n/a	fixation
235720.06011824112	2750.0	n/a	-1	-1	2750	20.9398817589	stim	stop-signal	105	250120	0.0-7.2-1.2	beast_fmri_test	290	4.126483333333334,4.137816666666667,4.14915,4.1604833333333335	t,t,t,t	<img class = center src='/static/experiments/beast_fmri_test/images/V.png'></img>	71,89	2750.0	test	<img class = center src='/static/experiments/beast_fmri_test/images/redV.png'></img>	go	1950.0	1.0	2.0	go	target	V	71,Green Button	89,Yellow Button	800.0	1000.0	1950.0	1750.0	0.0	800.0	0.0	n/a	go_stim
238470.06011824112	20.9398817589	n/a	-1	-1	2750	20.9398817589	stim	stop-signal	105	250120	0.0-7.2-1.2	beast_fmri_test	290	4.126483333333334,4.137816666666667,4.14915,4.1604833333333335	t,t,t,t	<img class = center src='/static/experiments/beast_fmri_test/images/V.png'></img>	71,89	2750.0	test	<img class = center src='/static/experiments/beast_fmri_test/images/redV.png'></img>	go	1950.0	1.0	2.0	go	target	V	71,Green Button	89,Yellow Button	800.0	1000.0	1950.0	1750.0	0.0	800.0	0.0	n/a	ITI
239020.0	500.0	n/a	-1	-1	500	0.0	fixation	poldrack-single-stim	106	250649	0.0-7.3-0.3	beast_fmri_test	290	4.17181666666666	t	<div class = centerbox><div class = fixation>+</div></div>	none	500.0	test	n/a	n/a	n/a	n/a	n/a	n/a	n/a	n/a	n/a	n/a	n/a	n/a	n/a	n/a	n/a	n/a	n/a	n/a	fixation
235288.5052938927	2750.0	n/a	-1	-1	2750	3733.49470611	stim	stop-signal	107	253401	0.0-7.3-1.3	beast_fmri_test	290	4.183133333333333,4.194483333333333,4.205816666666666,4.21715,4.228466666666667,4.239816666666667,4.251133333333334,4.262466666666667,4.273833333333333,4.285166666666667	t,t,t,t,t,t,t,t,t,t	<img class = center src='/static/experiments/beast_fmri_test/images/V.png'></img>	71,89	2750.0	test	<img class = center src='/static/experiments/beast_fmri_test/images/redV.png'></img>	go	1950.0	1.0	3.0	go	target	V	71,Green Button	89,Yellow Button	800.0	1000.0	1950.0	1750.0	0.0	800.0	0.0	n/a	go_stim
238038.5052938927	3733.49470611	n/a	-1	-1	2750	3733.49470611	stim	stop-signal	107	253401	0.0-7.3-1.3	beast_fmri_test	290	4.183133333333333,4.194483333333333,4.205816666666666,4.21715,4.228466666666667,4.239816666666667,4.251133333333334,4.262466666666667,4.273833333333333,4.285166666666667	t,t,t,t,t,t,t,t,t,t	<img class = center src='/static/experiments/beast_fmri_test/images/V.png'></img>	71,89	2750.0	test	<img class = center src='/static/experiments/beast_fmri_test/images/redV.png'></img>	go	1950.0	1.0	3.0	go	target	V	71,Green Button	89,Yellow Button	800.0	1000.0	1950.0	1750.0	0.0	800.0	0.0	n/a	ITI
246012.0	500.0	n/a	-1	-1	500	0.0	fixation	poldrack-single-stim	108	257641	0.0-7.4-0.4	beast_fmri_test	290	n/a	n/a	<div class = centerbox><div class = fixation>+</div></div>	none	500.0	test	n/a	n/a	n/a	n/a	n/a	n/a	n/a	n/a	n/a	n/a	n/a	n/a	n/a	n/a	n/a	n/a	n/a	n/a	fixation
245851.36205130391	800.0	n/a	-1	-1	2750	162.637948696	stim	stop-signal	109	260393	0.0-7.4-1.4	beast_fmri_test	290	4.296483333333334,4.307833333333333,4.31915,4.3305,4.341816666666666	t,t,t,t,t	<img class = center src='/static/experiments/beast_fmri_test/images/V.png'></img>	71,89	2750.0	test	<img class = center src='/static/experiments/beast_fmri_test/images/redV.png'></img>	stop	1950.0	1.0	4.0	stop	target	V	71,Green Button	89,Yellow Button	800.0	1000.0	1950.0	1750.0	0.0	800.0	0.0	1.0	go_stim
247801.36205130391	1950.0	n/a	-1	-1	2750	162.637948696	stim	stop-signal	109	260393	0.0-7.4-1.4	beast_fmri_test	290	4.296483333333334,4.307833333333333,4.31915,4.3305,4.341816666666666	t,t,t,t,t	<img class = center src='/static/experiments/beast_fmri_test/images/V.png'></img>	71,89	2750.0	test	<img class = center src='/static/experiments/beast_fmri_test/images/redV.png'></img>	stop	1950.0	1.0	4.0	stop	target	V	71,Green Button	89,Yellow Button	800.0	1000.0	1950.0	1750.0	0.0	800.0	0.0	1.0	stop_stim
248601.36205130391	162.637948696	n/a	-1	-1	2750	162.637948696	stim	stop-signal	109	260393	0.0-7.4-1.4	beast_fmri_test	290	4.296483333333334,4.307833333333333,4.31915,4.3305,4.341816666666666	t,t,t,t,t	<img class = center src='/static/experiments/beast_fmri_test/images/V.png'></img>	71,89	2750.0	test	<img class = center src='/static/experiments/beast_fmri_test/images/redV.png'></img>	stop	1950.0	1.0	4.0	stop	target	V	71,Green Button	89,Yellow Button	800.0	1000.0	1950.0	1750.0	0.0	800.0	0.0	1.0	ITI
249435.0	500.0	n/a	-1	-1	500	0.0	fixation	poldrack-single-stim	110	261064	0.0-7.5-0.5	beast_fmri_test	290	n/a	n/a	<div class = centerbox><div class = fixation>+</div></div>	none	500.0	test	n/a	n/a	n/a	n/a	n/a	n/a	n/a	n/a	n/a	n/a	n/a	n/a	n/a	n/a	n/a	n/a	n/a	n/a	fixation
249247.4735658064	2750.0	n/a	-1	-1	2750	189.526434194	stim	stop-signal	111	263816	0.0-7.5-1.5	beast_fmri_test	290	4.353166666666667,4.364483333333333,4.3758333333333335,4.38715,4.398483333333333	t,t,t,t,t	<img class = center src='/static/experiments/beast_fmri_test/images/B.png'></img>	71,89	2750.0	test	<img class = center src='/static/experiments/beast_fmri_test/images/redB.png'></img>	go	1750.0	1.0	5.0	go	non-target	B	71,Green Button	89,Yellow Button	850.0	1000.0	1950.0	1750.0	0.0	1000.0	0.0	n/a	go_stim
251997.4735658064	189.526434194	n/a	-1	-1	2750	189.526434194	stim	stop-signal	111	263816	0.0-7.5-1.5	beast_fmri_test	290	4.353166666666667,4.364483333333333,4.3758333333333335,4.38715,4.398483333333333	t,t,t,t,t	<img class = center src='/static/experiments/beast_fmri_test/images/B.png'></img>	71,89	2750.0	test	<img class = center src='/static/experiments/beast_fmri_test/images/redB.png'></img>	go	1750.0	1.0	5.0	go	non-target	B	71,Green Button	89,Yellow Button	850.0	1000.0	1950.0	1750.0	0.0	1000.0	0.0	n/a	ITI
252883.0	500.0	n/a	-1	-1	500	0.0	fixation	poldrack-single-stim	112	264512	0.0-7.6-0.6	beast_fmri_test	290	n/a	n/a	<div class = centerbox><div class = fixation>+</div></div>	none	500.0	test	n/a	n/a	n/a	n/a	n/a	n/a	n/a	n/a	n/a	n/a	n/a	n/a	n/a	n/a	n/a	n/a	n/a	n/a	fixation
252516.59185164055	850.0	n/a	-1	-1	2750	368.408148359	stim	stop-signal	113	267264	0.0-7.6-1.6	beast_fmri_test	290	4.409816666666667,4.42115,4.432483333333334,4.44385,4.45515	t,t,t,t,t	<img class = center src='/static/experiments/beast_fmri_test/images/B.png'></img>	71,89	2750.0	test	<img class = center src='/static/experiments/beast_fmri_test/images/redB.png'></img>	stop	1900.0	1.0	6.0	stop	target	B	71,Green Button	89,Yellow Button	850.0	1000.0	1900.0	1750.0	0.0	850.0	0.0	1.0	go_stim
254416.59185164055	1900.0	n/a	-1	-1	2750	368.408148359	stim	stop-signal	113	267264	0.0-7.6-1.6	beast_fmri_test	290	4.409816666666667,4.42115,4.432483333333334,4.44385,4.45515	t,t,t,t,t	<img class = center src='/static/experiments/beast_fmri_test/images/B.png'></img>	71,89	2750.0	test	<img class = center src='/static/experiments/beast_fmri_test/images/redB.png'></img>	stop	1900.0	1.0	6.0	stop	target	B	71,Green Button	89,Yellow Button	850.0	1000.0	1900.0	1750.0	0.0	850.0	0.0	1.0	stop_stim
255266.59185164055	368.408148359	n/a	-1	-1	2750	368.408148359	stim	stop-signal	113	267264	0.0-7.6-1.6	beast_fmri_test	290	4.409816666666667,4.42115,4.432483333333334,4.44385,4.45515	t,t,t,t,t	<img class = center src='/static/experiments/beast_fmri_test/images/B.png'></img>	71,89	2750.0	test	<img class = center src='/static/experiments/beast_fmri_test/images/redB.png'></img>	stop	1900.0	1.0	6.0	stop	target	B	71,Green Button	89,Yellow Button	850.0	1000.0	1900.0	1750.0	0.0	850.0	0.0	1.0	ITI
256510.0	500.0	n/a	-1	-1	500	0.0	fixation	poldrack-single-stim	114	268139	0.0-7.7-0.7	beast_fmri_test	290	4.46648333333333	t	<div class = centerbox><div class = fixation>+</div></div>	none	500.0	test	n/a	n/a	n/a	n/a	n/a	n/a	n/a	n/a	n/a	n/a	n/a	n/a	n/a	n/a	n/a	n/a	n/a	n/a	fixation
253206.68325829529	2750.0	n/a	-1	-1	2750	3305.3167417	stim	stop-signal	115	270891	0.0-7.7-1.7	beast_fmri_test	290	4.477833333333334,4.489166666666667,4.500483333333333,4.511833333333334,4.52315,4.534483333333333,4.545816666666667,4.55715,4.568483333333333	t,t,t,t,t,t,t,t,t	<img class = center src='/static/experiments/beast_fmri_test/images/V.png'></img>	71,89	2750.0	test	<img class = center src='/static/experiments/beast_fmri_test/images/redV.png'></img>	go	1750.0	1.0	7.0	go	non-target	V	71,Green Button	89,Yellow Button	900.0	1000.0	1900.0	1750.0	0.0	1000.0	0.0	n/a	go_stim
255956.68325829529	3305.3167417	n/a	-1	-1	2750	3305.3167417	stim	stop-signal	115	270891	0.0-7.7-1.7	beast_fmri_test	290	4.477833333333334,4.489166666666667,4.500483333333333,4.511833333333334,4.52315,4.534483333333333,4.545816666666667,4.55715,4.568483333333333	t,t,t,t,t,t,t,t,t	<img class = center src='/static/experiments/beast_fmri_test/images/V.png'></img>	71,89	2750.0	test	<img class = center src='/static/experiments/beast_fmri_test/images/redV.png'></img>	go	1750.0	1.0	7.0	go	non-target	V	71,Green Button	89,Yellow Button	900.0	1000.0	1900.0	1750.0	0.0	1000.0	0.0	n/a	ITI
263075.0	500.0	n/a	-1	-1	500	0.0	fixation	poldrack-single-stim	116	274704	0.0-7.8-0.8	beast_fmri_test	290	n/a	n/a	<div class = centerbox><div class = fixation>+</div></div>	none	500.0	test	n/a	n/a	n/a	n/a	n/a	n/a	n/a	n/a	n/a	n/a	n/a	n/a	n/a	n/a	n/a	n/a	n/a	n/a	fixation
262723.88245007372	2750.0	n/a	-1	-1	2750	354.117549926	stim	stop-signal	117	277457	0.0-7.8-1.8	beast_fmri_test	290	4.579816666666667,4.59115,4.602483333333334,4.613833333333333,4.62515	t,t,t,t,t	<img class = center src='/static/experiments/beast_fmri_test/images/D.png'></img>	71,89	2750.0	test	<img class = center src='/static/experiments/beast_fmri_test/images/redD.png'></img>	go	1750.0	1.0	8.0	go	non-target	D	71,Green Button	89,Yellow Button	900.0	1000.0	1900.0	1750.0	0.0	1000.0	0.0	n/a	go_stim
265473.88245007372	354.117549926	n/a	-1	-1	2750	354.117549926	stim	stop-signal	117	277457	0.0-7.8-1.8	beast_fmri_test	290	4.579816666666667,4.59115,4.602483333333334,4.613833333333333,4.62515	t,t,t,t,t	<img class = center src='/static/experiments/beast_fmri_test/images/D.png'></img>	71,89	2750.0	test	<img class = center src='/static/experiments/beast_fmri_test/images/redD.png'></img>	go	1750.0	1.0	8.0	go	non-target	D	71,Green Button	89,Yellow Button	900.0	1000.0	1900.0	1750.0	0.0	1000.0	0.0	n/a	ITI
266691.0	500.0	n/a	-1	-1	500	0.0	fixation	poldrack-single-stim	118	278320	0.0-7.9-0.9	beast_fmri_test	290	4.63648333333333	t	<div class = centerbox><div class = fixation>+</div></div>	none	500.0	test	n/a	n/a	n/a	n/a	n/a	n/a	n/a	n/a	n/a	n/a	n/a	n/a	n/a	n/a	n/a	n/a	n/a	n/a	fixation
266342.12534095673	2750.0	n/a	-1	-1	2750	350.874659043	stim	stop-signal	119	281072	0.0-7.9-1.9	beast_fmri_test	290	4.6478166666666665,4.65915,4.670483333333333,4.681816666666666	t,t,t,t	<img class = center src='/static/experiments/beast_fmri_test/images/V.png'></img>	71,89	2750.0	test	<img class = center src='/static/experiments/beast_fmri_test/images/redV.png'></img>	go	1750.0	1.0	9.0	go	non-target	V	71,Green Button	89,Yellow Button	900.0	1000.0	1900.0	1750.0	0.0	1000.0	0.0	n/a	go_stim
269092.12534095673	350.874659043	n/a	-1	-1	2750	350.874659043	stim	stop-signal	119	281072	0.0-7.9-1.9	beast_fmri_test	290	4.6478166666666665,4.65915,4.670483333333333,4.681816666666666	t,t,t,t	<img class = center src='/static/experiments/beast_fmri_test/images/V.png'></img>	71,89	2750.0	test	<img class = center src='/static/experiments/beast_fmri_test/images/redV.png'></img>	go	1750.0	1.0	9.0	go	non-target	V	71,Green Button	89,Yellow Button	900.0	1000.0	1900.0	1750.0	0.0	1000.0	0.0	n/a	ITI
270302.0	500.0	n/a	-1	-1	500	0.0	fixation	poldrack-single-stim	120	281931	0.0-7.10-0.10	beast_fmri_test	290	4.69315	t	<div class = centerbox><div class = fixation>+</div></div>	none	500.0	test	n/a	n/a	n/a	n/a	n/a	n/a	n/a	n/a	n/a	n/a	n/a	n/a	n/a	n/a	n/a	n/a	n/a	n/a	fixation
269922.04274144873	2750.0	n/a	-1	-1	2750	381.957258551	stim	stop-signal	121	284683	0.0-7.10-1.10	beast_fmri_test	290	4.7045,4.715816666666667,4.72715,4.738483333333333,4.749816666666667	t,t,t,t,t	<img class = center src='/static/experiments/beast_fmri_test/images/P.png'></img>	71,89	2750.0	test	<img class = center src='/static/experiments/beast_fmri_test/images/redP.png'></img>	go	1750.0	1.0	10.0	go	non-target	P	71,Green Button	89,Yellow Button	900.0	1000.0	1900.0	1750.0	0.0	1000.0	0.0	n/a	go_stim
272672.04274144873	381.957258551	n/a	-1	-1	2750	381.957258551	stim	stop-signal	121	284683	0.0-7.10-1.10	beast_fmri_test	290	4.7045,4.715816666666667,4.72715,4.738483333333333,4.749816666666667	t,t,t,t,t	<img class = center src='/static/experiments/beast_fmri_test/images/P.png'></img>	71,89	2750.0	test	<img class = center src='/static/experiments/beast_fmri_test/images/redP.png'></img>	go	1750.0	1.0	10.0	go	non-target	P	71,Green Button	89,Yellow Button	900.0	1000.0	1900.0	1750.0	0.0	1000.0	0.0	n/a	ITI
273943.0	500.0	n/a	-1	-1	500	0.0	fixation	poldrack-single-stim	122	285572	0.0-7.11-0.11	beast_fmri_test	290	n/a	n/a	<div class = centerbox><div class = fixation>+</div></div>	none	500.0	test	n/a	n/a	n/a	n/a	n/a	n/a	n/a	n/a	n/a	n/a	n/a	n/a	n/a	n/a	n/a	n/a	n/a	n/a	fixation
272512.01562886394	1000.0	n/a	-1	-1	2750	1432.98437114	stim	stop-signal	123	288324	0.0-7.11-1.11	beast_fmri_test	290	4.76115,4.772483333333334,4.78385,4.79515,4.806483333333333,4.817816666666666,4.82915	t,t,t,t,t,t,t	<img class = center src='/static/experiments/beast_fmri_test/images/V.png'></img>	71,89	2750.0	test	<img class = center src='/static/experiments/beast_fmri_test/images/redV.png'></img>	stop	1750.0	1.0	11.0	stop	non-target	V	71,Green Button	89,Yellow Button	900.0	1000.0	1900.0	1750.0	0.0	1000.0	0.0	1.0	go_stim
274262.01562886394	1750.0	n/a	-1	-1	2750	1432.98437114	stim	stop-signal	123	288324	0.0-7.11-1.11	beast_fmri_test	290	4.76115,4.772483333333334,4.78385,4.79515,4.806483333333333,4.817816666666666,4.82915	t,t,t,t,t,t,t	<img class = center src='/static/experiments/beast_fmri_test/images/V.png'></img>	71,89	2750.0	test	<img class = center src='/static/experiments/beast_fmri_test/images/redV.png'></img>	stop	1750.0	1.0	11.0	stop	non-target	V	71,Green Button	89,Yellow Button	900.0	1000.0	1900.0	1750.0	0.0	1000.0	0.0	1.0	stop_stim
275262.01562886394	1432.98437114	n/a	-1	-1	2750	1432.98437114	stim	stop-signal	123	288324	0.0-7.11-1.11	beast_fmri_test	290	4.76115,4.772483333333334,4.78385,4.79515,4.806483333333333,4.817816666666666,4.82915	t,t,t,t,t,t,t	<img class = center src='/static/experiments/beast_fmri_test/images/V.png'></img>	71,89	2750.0	test	<img class = center src='/static/experiments/beast_fmri_test/images/redV.png'></img>	stop	1750.0	1.0	11.0	stop	non-target	V	71,Green Button	89,Yellow Button	900.0	1000.0	1900.0	1750.0	0.0	1000.0	0.0	1.0	ITI
278635.0	500.0	n/a	-1	-1	500	0.0	fixation	poldrack-single-stim	124	290264	0.0-7.12-0.12	beast_fmri_test	290	n/a	n/a	<div class = centerbox><div class = fixation>+</div></div>	none	500.0	test	n/a	n/a	n/a	n/a	n/a	n/a	n/a	n/a	n/a	n/a	n/a	n/a	n/a	n/a	n/a	n/a	n/a	n/a	fixation
277642.88874118455	2750.0	n/a	-1	-1	2750	994.111258815	stim	stop-signal	125	293016	0.0-7.12-1.12	beast_fmri_test	290	4.8405,4.85185,4.863166666666666,4.8745,4.885833333333333,4.897166666666666	t,t,t,t,t,t	<img class = center src='/static/experiments/beast_fmri_test/images/D.png'></img>	71,89	2750.0	test	<img class = center src='/static/experiments/beast_fmri_test/images/redD.png'></img>	go	1700.0	1.0	12.0	go	non-target	D	71,Green Button	89,Yellow Button	900.0	1050.0	1900.0	1700.0	0.0	1050.0	0.0	n/a	go_stim
280392.88874118455	994.111258815	n/a	-1	-1	2750	994.111258815	stim	stop-signal	125	293016	0.0-7.12-1.12	beast_fmri_test	290	4.8405,4.85185,4.863166666666666,4.8745,4.885833333333333,4.897166666666666	t,t,t,t,t,t	<img class = center src='/static/experiments/beast_fmri_test/images/D.png'></img>	71,89	2750.0	test	<img class = center src='/static/experiments/beast_fmri_test/images/redD.png'></img>	go	1700.0	1.0	12.0	go	non-target	D	71,Green Button	89,Yellow Button	900.0	1050.0	1900.0	1700.0	0.0	1050.0	0.0	n/a	ITI
282888.0	500.0	n/a	-1	-1	500	0.0	fixation	poldrack-single-stim	126	294517	0.0-7.13-0.13	beast_fmri_test	290	4.9085	t	<div class = centerbox><div class = fixation>+</div></div>	none	500.0	test	n/a	n/a	n/a	n/a	n/a	n/a	n/a	n/a	n/a	n/a	n/a	n/a	n/a	n/a	n/a	n/a	n/a	n/a	fixation
282442.61577968433	2750.0	n/a	-1	-1	2750	448.384220316	stim	stop-signal	127	297270	0.0-7.13-1.13	beast_fmri_test	290	4.919833333333333,4.931166666666667,4.9425,4.95385	t,t,t,t	<img class = center src='/static/experiments/beast_fmri_test/images/B.png'></img>	71,89	2750.0	test	<img class = center src='/static/experiments/beast_fmri_test/images/redB.png'></img>	go	1700.0	1.0	13.0	go	non-target	B	71,Green Button	89,Yellow Button	900.0	1050.0	1900.0	1700.0	0.0	1050.0	0.0	n/a	go_stim
285192.61577968433	448.384220316	n/a	-1	-1	2750	448.384220316	stim	stop-signal	127	297270	0.0-7.13-1.13	beast_fmri_test	290	4.919833333333333,4.931166666666667,4.9425,4.95385	t,t,t,t	<img class = center src='/static/experiments/beast_fmri_test/images/B.png'></img>	71,89	2750.0	test	<img class = center src='/static/experiments/beast_fmri_test/images/redB.png'></img>	go	1700.0	1.0	13.0	go	non-target	B	71,Green Button	89,Yellow Button	900.0	1050.0	1900.0	1700.0	0.0	1050.0	0.0	n/a	ITI
286595.0	500.0	n/a	-1	-1	500	0.0	fixation	poldrack-single-stim	128	298224	0.0-7.14-0.14	beast_fmri_test	290	4.96516666666666	t	<div class = centerbox><div class = fixation>+</div></div>	none	500.0	test	n/a	n/a	n/a	n/a	n/a	n/a	n/a	n/a	n/a	n/a	n/a	n/a	n/a	n/a	n/a	n/a	n/a	n/a	fixation
286519.46078960155	2750.0	n/a	-1	-1	2750	77.5392103985	stim	stop-signal	129	300976	0.0-7.14-1.14	beast_fmri_test	290	4.9765,4.987833333333334,4.9991666666666665,5.0105	t,t,t,t	<img class = center src='/static/experiments/beast_fmri_test/images/B.png'></img>	71,89	2750.0	test	<img class = center src='/static/experiments/beast_fmri_test/images/redB.png'></img>	go	1850.0	1.0	14.0	go	target	B	71,Green Button	89,Yellow Button	900.0	1050.0	1850.0	1700.0	0.0	900.0	0.0	n/a	go_stim
289269.46078960155	77.5392103985	n/a	-1	-1	2750	77.5392103985	stim	stop-signal	129	300976	0.0-7.14-1.14	beast_fmri_test	290	4.9765,4.987833333333334,4.9991666666666665,5.0105	t,t,t,t	<img class = center src='/static/experiments/beast_fmri_test/images/B.png'></img>	71,89	2750.0	test	<img class = center src='/static/experiments/beast_fmri_test/images/redB.png'></img>	go	1850.0	1.0	14.0	go	target	B	71,Green Button	89,Yellow Button	900.0	1050.0	1850.0	1700.0	0.0	900.0	0.0	n/a	ITI
289933.0	500.0	n/a	-1	-1	500	0.0	fixation	poldrack-single-stim	130	301562	0.0-7.15-0.15	beast_fmri_test	290	5.02183333333333	t	<div class = centerbox><div class = fixation>+</div></div>	none	500.0	test	n/a	n/a	n/a	n/a	n/a	n/a	n/a	n/a	n/a	n/a	n/a	n/a	n/a	n/a	n/a	n/a	n/a	n/a	fixation
288522.79989376641	1050.0	n/a	-1	-1	2750	1413.20010623	stim	stop-signal	131	304315	0.0-7.15-1.15	beast_fmri_test	290	5.033166666666666,5.0445,5.055833333333333,5.067166666666667,5.0785,5.089816666666667	t,t,t,t,t,t	<img class = center src='/static/experiments/beast_fmri_test/images/T.png'></img>	71,89	2750.0	test	<img class = center src='/static/experiments/beast_fmri_test/images/redT.png'></img>	stop	1700.0	1.0	15.0	stop	non-target	T	71,Green Button	89,Yellow Button	900.0	1050.0	1850.0	1700.0	0.0	1050.0	0.0	1.0	go_stim
290222.79989376641	1700.0	n/a	-1	-1	2750	1413.20010623	stim	stop-signal	131	304315	0.0-7.15-1.15	beast_fmri_test	290	5.033166666666666,5.0445,5.055833333333333,5.067166666666667,5.0785,5.089816666666667	t,t,t,t,t,t	<img class = center src='/static/experiments/beast_fmri_test/images/T.png'></img>	71,89	2750.0	test	<img class = center src='/static/experiments/beast_fmri_test/images/redT.png'></img>	stop	1700.0	1.0	15.0	stop	non-target	T	71,Green Button	89,Yellow Button	900.0	1050.0	1850.0	1700.0	0.0	1050.0	0.0	1.0	stop_stim
291272.79989376641	1413.20010623	n/a	-1	-1	2750	1413.20010623	stim	stop-signal	131	304315	0.0-7.15-1.15	beast_fmri_test	290	5.033166666666666,5.0445,5.055833333333333,5.067166666666667,5.0785,5.089816666666667	t,t,t,t,t,t	<img class = center src='/static/experiments/beast_fmri_test/images/T.png'></img>	71,89	2750.0	test	<img class = center src='/static/experiments/beast_fmri_test/images/redT.png'></img>	stop	1700.0	1.0	15.0	stop	non-target	T	71,Green Button	89,Yellow Button	900.0	1050.0	1850.0	1700.0	0.0	1050.0	0.0	1.0	ITI
294606.0	500.0	n/a	-1	-1	500	0.0	fixation	poldrack-single-stim	132	306235	0.0-7.16-0.16	beast_fmri_test	290	5.10116666666666	t	<div class = centerbox><div class = fixation>+</div></div>	none	500.0	test	n/a	n/a	n/a	n/a	n/a	n/a	n/a	n/a	n/a	n/a	n/a	n/a	n/a	n/a	n/a	n/a	n/a	n/a	fixation
293723.67973470403	1100.0	n/a	-1	-1	2750	884.320265296	stim	stop-signal	133	308987	0.0-7.16-1.16	beast_fmri_test	290	5.1124833333333335,5.12385,5.13515,5.1465,5.157816666666666	t,t,t,t,t	<img class = center src='/static/experiments/beast_fmri_test/images/B.png'></img>	71,89	2750.0	test	<img class = center src='/static/experiments/beast_fmri_test/images/redB.png'></img>	stop	1650.0	1.0	16.0	stop	non-target	B	71,Green Button	89,Yellow Button	900.0	1100.0	1850.0	1650.0	0.0	1100.0	0.0	1.0	go_stim
295373.67973470403	1650.0	n/a	-1	-1	2750	884.320265296	stim	stop-signal	133	308987	0.0-7.16-1.16	beast_fmri_test	290	5.1124833333333335,5.12385,5.13515,5.1465,5.157816666666666	t,t,t,t,t	<img class = center src='/static/experiments/beast_fmri_test/images/B.png'></img>	71,89	2750.0	test	<img class = center src='/static/experiments/beast_fmri_test/images/redB.png'></img>	stop	1650.0	1.0	16.0	stop	non-target	B	71,Green Button	89,Yellow Button	900.0	1100.0	1850.0	1650.0	0.0	1100.0	0.0	1.0	stop_stim
296473.67973470403	884.320265296	n/a	-1	-1	2750	884.320265296	stim	stop-signal	133	308987	0.0-7.16-1.16	beast_fmri_test	290	5.1124833333333335,5.12385,5.13515,5.1465,5.157816666666666	t,t,t,t,t	<img class = center src='/static/experiments/beast_fmri_test/images/B.png'></img>	71,89	2750.0	test	<img class = center src='/static/experiments/beast_fmri_test/images/redB.png'></img>	stop	1650.0	1.0	16.0	stop	non-target	B	71,Green Button	89,Yellow Button	900.0	1100.0	1850.0	1650.0	0.0	1100.0	0.0	1.0	ITI
298749.0	500.0	n/a	-1	-1	500	0.0	fixation	poldrack-single-stim	134	310378	0.0-7.17-0.17	beast_fmri_test	290	5.16916666666666	t	<div class = centerbox><div class = fixation>+</div></div>	none	500.0	test	n/a	n/a	n/a	n/a	n/a	n/a	n/a	n/a	n/a	n/a	n/a	n/a	n/a	n/a	n/a	n/a	n/a	n/a	fixation
298459.6156757648	1150.0	n/a	-1	-1	2750	292.384324235	stim	stop-signal	135	313131	0.0-7.17-1.17	beast_fmri_test	290	5.180483333333333,5.191816666666667,5.20315,5.214483333333333	t,t,t,t	<img class = center src='/static/experiments/beast_fmri_test/images/V.png'></img>	71,89	2750.0	test	<img class = center src='/static/experiments/beast_fmri_test/images/redV.png'></img>	stop	1600.0	1.0	17.0	stop	non-target	V	71,Green Button	89,Yellow Button	900.0	1150.0	1850.0	1600.0	0.0	1150.0	0.0	1.0	go_stim
300059.6156757648	1600.0	n/a	-1	-1	2750	292.384324235	stim	stop-signal	135	313131	0.0-7.17-1.17	beast_fmri_test	290	5.180483333333333,5.191816666666667,5.20315,5.214483333333333	t,t,t,t	<img class = center src='/static/experiments/beast_fmri_test/images/V.png'></img>	71,89	2750.0	test	<img class = center src='/static/experiments/beast_fmri_test/images/redV.png'></img>	stop	1600.0	1.0	17.0	stop	non-target	V	71,Green Button	89,Yellow Button	900.0	1150.0	1850.0	1600.0	0.0	1150.0	0.0	1.0	stop_stim
301209.6156757648	292.384324235	n/a	-1	-1	2750	292.384324235	stim	stop-signal	135	313131	0.0-7.17-1.17	beast_fmri_test	290	5.180483333333333,5.191816666666667,5.20315,5.214483333333333	t,t,t,t	<img class = center src='/static/experiments/beast_fmri_test/images/V.png'></img>	71,89	2750.0	test	<img class = center src='/static/experiments/beast_fmri_test/images/redV.png'></img>	stop	1600.0	1.0	17.0	stop	non-target	V	71,Green Button	89,Yellow Button	900.0	1150.0	1850.0	1600.0	0.0	1150.0	0.0	1.0	ITI
302300.0	500.0	n/a	-1	-1	500	0.0	fixation	poldrack-single-stim	136	313929	0.0-7.18-0.18	beast_fmri_test	290	5.22581666666666	t	<div class = centerbox><div class = fixation>+</div></div>	none	500.0	test	n/a	n/a	n/a	n/a	n/a	n/a	n/a	n/a	n/a	n/a	n/a	n/a	n/a	n/a	n/a	n/a	n/a	n/a	fixation
301670.18859178427	2750.0	n/a	-1	-1	2750	631.811408216	stim	stop-signal	137	316681	0.0-7.18-1.18	beast_fmri_test	290	5.237166666666667,5.248483333333334,5.259816666666667,5.27115,5.282483333333333	t,t,t,t,t	<img class = center src='/static/experiments/beast_fmri_test/images/V.png'></img>	71,89	2750.0	test	<img class = center src='/static/experiments/beast_fmri_test/images/redV.png'></img>	go	1850.0	1.0	18.0	go	target	V	71,Green Button	89,Yellow Button	900.0	1200.0	1850.0	1600.0	0.0	900.0	0.0	n/a	go_stim
304420.18859178427	631.811408216	n/a	-1	-1	2750	631.811408216	stim	stop-signal	137	316681	0.0-7.18-1.18	beast_fmri_test	290	5.237166666666667,5.248483333333334,5.259816666666667,5.27115,5.282483333333333	t,t,t,t,t	<img class = center src='/static/experiments/beast_fmri_test/images/V.png'></img>	71,89	2750.0	test	<img class = center src='/static/experiments/beast_fmri_test/images/redV.png'></img>	go	1850.0	1.0	18.0	go	target	V	71,Green Button	89,Yellow Button	900.0	1200.0	1850.0	1600.0	0.0	900.0	0.0	n/a	ITI
306192.0	500.0	n/a	-1	-1	500	0.0	fixation	poldrack-single-stim	138	317821	0.0-7.19-0.19	beast_fmri_test	290	5.29383333333333	t	<div class = centerbox><div class = fixation>+</div></div>	none	500.0	test	n/a	n/a	n/a	n/a	n/a	n/a	n/a	n/a	n/a	n/a	n/a	n/a	n/a	n/a	n/a	n/a	n/a	n/a	fixation
302155.8503386433	2750.0	n/a	-1	-1	2750	4038.14966136	stim	stop-signal	139	320573	0.0-7.19-1.19	beast_fmri_test	290	5.30515,5.316483333333333,5.327833333333333,5.33915,5.350483333333333,5.361816666666667,5.37315,5.3845,5.395833333333333,5.407166666666667	t,t,t,t,t,t,t,t,t,t	<img class = center src='/static/experiments/beast_fmri_test/images/V.png'></img>	71,89	2750.0	test	<img class = center src='/static/experiments/beast_fmri_test/images/redV.png'></img>	go	1850.0	1.0	19.0	go	target	V	71,Green Button	89,Yellow Button	900.0	1200.0	1850.0	1600.0	0.0	900.0	0.0	n/a	go_stim
