onset	duration	text	rt	key_press	block_duration	timing_post_trial	trial_id	trial_type	trial_index	time_elapsed	internal_node_id	exp_id	subject_id	trigger_times	triggers	stimulus	possible_responses	stim_duration	exp_stage	SS_stimulus	SS_trial_type	SS_duration	load	trial_num	stop_trial_type	adaptive_trial_type	stim	yes_response_key	no_response_key	SSD_target	SSD_non_target	SSTarget	SSNonTarget	go_acc	SS_delay	adaptive_acc	stop_acc	new_trial_type
test	10880	n/a	-1	-1	10880	0.0	practice-no-stop-feedback	poldrack-single-stim	398	1134136	0.0-18.0	beast_fmri_test	275	1123259,/,1123937,/,1124617,/,1125296,/,1125978,/,1126656,/,1127336,/,1128013,/,1128693,/,1129372,/,1130052,/,1130735,/,1131413,/,1132093,/,1132772,/,1133452,/,1134133,/	t,t,t,t,t,t,t,t,t,t,t,t,t,t,t,t,t	"<div class = ""centerbox""><p class = ""block-text"">Your delay is 3 trials.</p><p class = block-text>Please wait for the scanner to start the block</p></div>"	77	10880.0	n/a	n/a	n/a	n/a	n/a	n/a	n/a	n/a	n/a	n/a	n/a	n/a	n/a	n/a	n/a	n/a	n/a	n/a	n/a	start_functional_block
11379	500	n/a	-1	-1	500	0.0	fixation	poldrack-single-stim	399	1134638	0.0-19.0-0.0	beast_fmri_test	275	n/a	n/a	<div class = centerbox2><div class = fixation>+</div></div>	none	500.0	test	n/a	n/a	n/a	n/a	n/a	n/a	n/a	n/a	n/a	n/a	n/a	n/a	n/a	n/a	n/a	n/a	n/a	n/a	fixation
9058.0973293739371	temp_go_duration	n/a	774	71	2750	2323.90267063	stim	stop-signal	400	1137391	0.0-19.0-1.0	beast_fmri_test	275	1134813,/,1135493,/,1136174,/,1136853,/,1137531,/,1138208,/,1138887,/,1139568,/	t,t,t,t,t,t,t,t	<img class = center src='/static/experiments/beast_fmri_test/images/P.png'></img>	89,71	2750.0	test	<img class = center src='/static/experiments/beast_fmri_test/images/redP.png'></img>	stop	-1.0	3.0	0.0	stop	temp-non-target	P	89,Middle Finger	71,Index Finger	700.0	400.0	2100.0	2350.0	0.0	n/a	n/a	0.0	go_stim
temp-non-target	temp_stop_duration	n/a	774	71	2750	2323.90267063	stim	stop-signal	400	1137391	0.0-19.0-1.0	beast_fmri_test	275	1134813,/,1135493,/,1136174,/,1136853,/,1137531,/,1138208,/,1138887,/,1139568,/	t,t,t,t,t,t,t,t	<img class = center src='/static/experiments/beast_fmri_test/images/P.png'></img>	89,71	2750.0	test	<img class = center src='/static/experiments/beast_fmri_test/images/redP.png'></img>	stop	-1.0	3.0	0.0	stop	temp-non-target	P	89,Middle Finger	71,Index Finger	700.0	400.0	2100.0	2350.0	0.0	n/a	n/a	0.0	stop_stim
11808.097329373937	2323.9026706259651	n/a	774	71	2750	2323.90267063	stim	stop-signal	400	1137391	0.0-19.0-1.0	beast_fmri_test	275	1134813,/,1135493,/,1136174,/,1136853,/,1137531,/,1138208,/,1138887,/,1139568,/	t,t,t,t,t,t,t,t	<img class = center src='/static/experiments/beast_fmri_test/images/P.png'></img>	89,71	2750.0	test	<img class = center src='/static/experiments/beast_fmri_test/images/redP.png'></img>	stop	-1.0	3.0	0.0	stop	temp-non-target	P	89,Middle Finger	71,Index Finger	700.0	400.0	2100.0	2350.0	0.0	n/a	n/a	0.0	ITI
17002	500	n/a	-1	-1	500	0.0	fixation	poldrack-single-stim	401	1140261	0.0-19.1-0.1	beast_fmri_test	275	1140249,/	t	<div class = centerbox2><div class = fixation>+</div></div>	none	500.0	test	n/a	n/a	n/a	n/a	n/a	n/a	n/a	n/a	n/a	n/a	n/a	n/a	n/a	n/a	n/a	n/a	n/a	n/a	fixation
16953.111286747735	2750	n/a	433	71	2750	51.8887132522	stim	stop-signal	402	1143014	0.0-19.1-1.1	beast_fmri_test	275	1140928,/,1141608,/,1142288,/,1142969,/	t,t,t,t	<img class = center src='/static/experiments/beast_fmri_test/images/D.png'></img>	89,71	2750.0	test	<img class = center src='/static/experiments/beast_fmri_test/images/redD.png'></img>	go	-1.0	3.0	1.0	go	temp-non-target	D	89,Middle Finger	71,Index Finger	700.0	400.0	2100.0	2350.0	0.0	n/a	n/a	n/a	go_stim
19703.111286747735	51.888713252184793	n/a	433	71	2750	51.8887132522	stim	stop-signal	402	1143014	0.0-19.1-1.1	beast_fmri_test	275	1140928,/,1141608,/,1142288,/,1142969,/	t,t,t,t	<img class = center src='/static/experiments/beast_fmri_test/images/D.png'></img>	89,71	2750.0	test	<img class = center src='/static/experiments/beast_fmri_test/images/redD.png'></img>	go	-1.0	3.0	1.0	go	temp-non-target	D	89,Middle Finger	71,Index Finger	700.0	400.0	2100.0	2350.0	0.0	n/a	n/a	n/a	ITI
20363	500	n/a	-1	-1	500	0.0	fixation	poldrack-single-stim	403	1143622	0.0-19.2-0.2	beast_fmri_test	275	n/a	n/a	<div class = centerbox2><div class = fixation>+</div></div>	none	500.0	test	n/a	n/a	n/a	n/a	n/a	n/a	n/a	n/a	n/a	n/a	n/a	n/a	n/a	n/a	n/a	n/a	n/a	n/a	fixation
20020.62303014053	temp_go_duration	n/a	745	71	2750	345.37696986	stim	stop-signal	404	1146375	0.0-19.2-1.2	beast_fmri_test	275	1143648,/,1144328,/,1145008,/,1145688,/,1146368,/	t,t,t,t,t	<img class = center src='/static/experiments/beast_fmri_test/images/B.png'></img>	89,71	2750.0	test	<img class = center src='/static/experiments/beast_fmri_test/images/redB.png'></img>	stop	-1.0	3.0	2.0	stop	temp-non-target	B	89,Middle Finger	71,Index Finger	700.0	400.0	2100.0	2350.0	0.0	n/a	n/a	0.0	go_stim
temp-non-target	temp_stop_duration	n/a	745	71	2750	345.37696986	stim	stop-signal	404	1146375	0.0-19.2-1.2	beast_fmri_test	275	1143648,/,1144328,/,1145008,/,1145688,/,1146368,/	t,t,t,t,t	<img class = center src='/static/experiments/beast_fmri_test/images/B.png'></img>	89,71	2750.0	test	<img class = center src='/static/experiments/beast_fmri_test/images/redB.png'></img>	stop	-1.0	3.0	2.0	stop	temp-non-target	B	89,Middle Finger	71,Index Finger	700.0	400.0	2100.0	2350.0	0.0	n/a	n/a	0.0	stop_stim
22770.62303014053	345.37696985950498	n/a	745	71	2750	345.37696986	stim	stop-signal	404	1146375	0.0-19.2-1.2	beast_fmri_test	275	1143648,/,1144328,/,1145008,/,1145688,/,1146368,/	t,t,t,t,t	<img class = center src='/static/experiments/beast_fmri_test/images/B.png'></img>	89,71	2750.0	test	<img class = center src='/static/experiments/beast_fmri_test/images/redB.png'></img>	stop	-1.0	3.0	2.0	stop	temp-non-target	B	89,Middle Finger	71,Index Finger	700.0	400.0	2100.0	2350.0	0.0	n/a	n/a	0.0	ITI
24003	500	n/a	-1	-1	500	0.0	fixation	poldrack-single-stim	405	1147262	0.0-19.3-0.3	beast_fmri_test	275	1147049,/	t	<div class = centerbox2><div class = fixation>+</div></div>	none	500.0	test	n/a	n/a	n/a	n/a	n/a	n/a	n/a	n/a	n/a	n/a	n/a	n/a	n/a	n/a	n/a	n/a	n/a	n/a	fixation
23861.91112236958	400.0	n/a	600	71	2750	141.08887763	stim	stop-signal	406	1150012	0.0-19.3-1.3	beast_fmri_test	275	1147724,/,1148403,/,1149082,/,1149763,/	t,t,t,t	<img class = center src='/static/experiments/beast_fmri_test/images/B.png'></img>	89,71	2750.0	test	<img class = center src='/static/experiments/beast_fmri_test/images/redB.png'></img>	stop	2350.0	3.0	3.0	stop	non-target	B	89,Middle Finger	71,Index Finger	700.0	400.0	2100.0	2350.0	0.0	400.0	n/a	0.0	go_stim
26211.91112236958	2350.0	n/a	600	71	2750	141.08887763	stim	stop-signal	406	1150012	0.0-19.3-1.3	beast_fmri_test	275	1147724,/,1148403,/,1149082,/,1149763,/	t,t,t,t	<img class = center src='/static/experiments/beast_fmri_test/images/B.png'></img>	89,71	2750.0	test	<img class = center src='/static/experiments/beast_fmri_test/images/redB.png'></img>	stop	2350.0	3.0	3.0	stop	non-target	B	89,Middle Finger	71,Index Finger	700.0	400.0	2100.0	2350.0	0.0	400.0	n/a	0.0	stop_stim
26611.91112236958	141.08887763043498	n/a	600	71	2750	141.08887763	stim	stop-signal	406	1150012	0.0-19.3-1.3	beast_fmri_test	275	1147724,/,1148403,/,1149082,/,1149763,/	t,t,t,t	<img class = center src='/static/experiments/beast_fmri_test/images/B.png'></img>	89,71	2750.0	test	<img class = center src='/static/experiments/beast_fmri_test/images/redB.png'></img>	stop	2350.0	3.0	3.0	stop	non-target	B	89,Middle Finger	71,Index Finger	700.0	400.0	2100.0	2350.0	0.0	400.0	n/a	0.0	ITI
27437	500	n/a	-1	-1	500	0.0	fixation	poldrack-single-stim	407	1150696	0.0-19.4-0.4	beast_fmri_test	275	1150444,/	t	<div class = centerbox2><div class = fixation>+</div></div>	none	500.0	test	n/a	n/a	n/a	n/a	n/a	n/a	n/a	n/a	n/a	n/a	n/a	n/a	n/a	n/a	n/a	n/a	n/a	n/a	fixation
26203.005815072684	2750	n/a	627	71	2750	1237.99418493	stim	stop-signal	408	1153450	0.0-19.4-1.4	beast_fmri_test	275	1151124,/,1151803,/,1152484,/,1153163,/,1153844,/,1154523,/	t,t,t,t,t,t	<img class = center src='/static/experiments/beast_fmri_test/images/B.png'></img>	89,71	2750.0	test	<img class = center src='/static/experiments/beast_fmri_test/images/redB.png'></img>	go	2400.0	3.0	4.0	go	non-target	B	89,Middle Finger	71,Index Finger	700.0	350.0	2100.0	2400.0	1.0	350.0	1.0	n/a	go_stim
28953.005815072684	1237.9941849273607	n/a	627	71	2750	1237.99418493	stim	stop-signal	408	1153450	0.0-19.4-1.4	beast_fmri_test	275	1151124,/,1151803,/,1152484,/,1153163,/,1153844,/,1154523,/	t,t,t,t,t,t	<img class = center src='/static/experiments/beast_fmri_test/images/B.png'></img>	89,71	2750.0	test	<img class = center src='/static/experiments/beast_fmri_test/images/redB.png'></img>	go	2400.0	3.0	4.0	go	non-target	B	89,Middle Finger	71,Index Finger	700.0	350.0	2100.0	2400.0	1.0	350.0	1.0	n/a	ITI
31972	500	n/a	-1	-1	500	0.0	fixation	poldrack-single-stim	409	1155231	0.0-19.5-0.5	beast_fmri_test	275	1155204,/	t	<div class = centerbox2><div class = fixation>+</div></div>	none	500.0	test	n/a	n/a	n/a	n/a	n/a	n/a	n/a	n/a	n/a	n/a	n/a	n/a	n/a	n/a	n/a	n/a	n/a	n/a	fixation
30204.985903347842	2750	n/a	377	89	2750	1767.01409665	stim	stop-signal	410	1157981	0.0-19.5-1.5	beast_fmri_test	275	1155883,/,1156563,/,1157243,/,1157919,/,1158599,/,1159277,/	t,t,t,t,t,t	<img class = center src='/static/experiments/beast_fmri_test/images/B.png'></img>	89,71	2750.0	test	<img class = center src='/static/experiments/beast_fmri_test/images/redB.png'></img>	go	2050.0	3.0	5.0	go	target	B	89,Middle Finger	71,Index Finger	700.0	350.0	2050.0	2400.0	1.0	700.0	1.0	n/a	go_stim
32954.985903347842	1767.0140966521578	n/a	377	89	2750	1767.01409665	stim	stop-signal	410	1157981	0.0-19.5-1.5	beast_fmri_test	275	1155883,/,1156563,/,1157243,/,1157919,/,1158599,/,1159277,/	t,t,t,t,t,t	<img class = center src='/static/experiments/beast_fmri_test/images/B.png'></img>	89,71	2750.0	test	<img class = center src='/static/experiments/beast_fmri_test/images/redB.png'></img>	go	2050.0	3.0	5.0	go	target	B	89,Middle Finger	71,Index Finger	700.0	350.0	2050.0	2400.0	1.0	700.0	1.0	n/a	ITI
37034	500	n/a	-1	-1	500	0.0	fixation	poldrack-single-stim	411	1160293	0.0-19.6-0.6	beast_fmri_test	275	1159958,/	t	<div class = centerbox2><div class = fixation>+</div></div>	none	500.0	test	n/a	n/a	n/a	n/a	n/a	n/a	n/a	n/a	n/a	n/a	n/a	n/a	n/a	n/a	n/a	n/a	n/a	n/a	fixation
36886.167632426601	2750	n/a	393	71	2750	149.832367573	stim	stop-signal	412	1163045	0.0-19.6-1.6	beast_fmri_test	275	1160639,/,1161318,/,1162000,/,1162679,/	t,t,t,t	<img class = center src='/static/experiments/beast_fmri_test/images/P.png'></img>	89,71	2750.0	test	<img class = center src='/static/experiments/beast_fmri_test/images/redP.png'></img>	go	2400.0	3.0	6.0	go	non-target	P	89,Middle Finger	71,Index Finger	700.0	350.0	2050.0	2400.0	1.0	350.0	1.0	n/a	go_stim
39636.167632426601	149.83236757343374	n/a	393	71	2750	149.832367573	stim	stop-signal	412	1163045	0.0-19.6-1.6	beast_fmri_test	275	1160639,/,1161318,/,1162000,/,1162679,/	t,t,t,t	<img class = center src='/static/experiments/beast_fmri_test/images/P.png'></img>	89,71	2750.0	test	<img class = center src='/static/experiments/beast_fmri_test/images/redP.png'></img>	go	2400.0	3.0	6.0	go	non-target	P	89,Middle Finger	71,Index Finger	700.0	350.0	2050.0	2400.0	1.0	350.0	1.0	n/a	ITI
40482	500	n/a	-1	-1	500	0.0	fixation	poldrack-single-stim	413	1163741	0.0-19.7-0.7	beast_fmri_test	275	1163358,/	t	<div class = centerbox2><div class = fixation>+</div></div>	none	500.0	test	n/a	n/a	n/a	n/a	n/a	n/a	n/a	n/a	n/a	n/a	n/a	n/a	n/a	n/a	n/a	n/a	n/a	n/a	fixation
36516.02652848023	700.0	n/a	484	89	2750	3968.97347152	stim	stop-signal	414	1166494	0.0-19.7-1.7	beast_fmri_test	275	1164040,/,1164719,/,1165399,/,1166080,/,1166759,/,1167440,/,1168120,/,1168799,/,1169479,/,1170159,/	t,t,t,t,t,t,t,t,t,t	<img class = center src='/static/experiments/beast_fmri_test/images/B.png'></img>	89,71	2750.0	test	<img class = center src='/static/experiments/beast_fmri_test/images/redB.png'></img>	stop	2050.0	3.0	7.0	stop	target	B	89,Middle Finger	71,Index Finger	700.0	350.0	2050.0	2400.0	0.0	700.0	n/a	0.0	go_stim
38566.02652848023	2050.0	n/a	484	89	2750	3968.97347152	stim	stop-signal	414	1166494	0.0-19.7-1.7	beast_fmri_test	275	1164040,/,1164719,/,1165399,/,1166080,/,1166759,/,1167440,/,1168120,/,1168799,/,1169479,/,1170159,/	t,t,t,t,t,t,t,t,t,t	<img class = center src='/static/experiments/beast_fmri_test/images/B.png'></img>	89,71	2750.0	test	<img class = center src='/static/experiments/beast_fmri_test/images/redB.png'></img>	stop	2050.0	3.0	7.0	stop	target	B	89,Middle Finger	71,Index Finger	700.0	350.0	2050.0	2400.0	0.0	700.0	n/a	0.0	stop_stim
39266.02652848023	3968.9734715197169	n/a	484	89	2750	3968.97347152	stim	stop-signal	414	1166494	0.0-19.7-1.7	beast_fmri_test	275	1164040,/,1164719,/,1165399,/,1166080,/,1166759,/,1167440,/,1168120,/,1168799,/,1169479,/,1170159,/	t,t,t,t,t,t,t,t,t,t	<img class = center src='/static/experiments/beast_fmri_test/images/B.png'></img>	89,71	2750.0	test	<img class = center src='/static/experiments/beast_fmri_test/images/redB.png'></img>	stop	2050.0	3.0	7.0	stop	target	B	89,Middle Finger	71,Index Finger	700.0	350.0	2050.0	2400.0	0.0	700.0	n/a	0.0	ITI
47752	500	n/a	-1	-1	500	0.0	fixation	poldrack-single-stim	415	1171011	0.0-19.8-0.8	beast_fmri_test	275	1170839,/	t	<div class = centerbox2><div class = fixation>+</div></div>	none	500.0	test	n/a	n/a	n/a	n/a	n/a	n/a	n/a	n/a	n/a	n/a	n/a	n/a	n/a	n/a	n/a	n/a	n/a	n/a	fixation
45359.650667648995	2750	n/a	626	71	2750	2394.34933235	stim	stop-signal	416	1173763	0.0-19.8-1.8	beast_fmri_test	275	1171518,/,1172199,/,1172878,/,1173559,/,1174240,/,1174919,/,1175599,/	t,t,t,t,t,t,t	<img class = center src='/static/experiments/beast_fmri_test/images/D.png'></img>	89,71	2750.0	test	<img class = center src='/static/experiments/beast_fmri_test/images/redD.png'></img>	go	2400.0	3.0	8.0	go	non-target	D	89,Middle Finger	71,Index Finger	650.0	350.0	2050.0	2400.0	1.0	350.0	1.0	n/a	go_stim
48109.650667648995	2394.3493323511043	n/a	626	71	2750	2394.34933235	stim	stop-signal	416	1173763	0.0-19.8-1.8	beast_fmri_test	275	1171518,/,1172199,/,1172878,/,1173559,/,1174240,/,1174919,/,1175599,/	t,t,t,t,t,t,t	<img class = center src='/static/experiments/beast_fmri_test/images/D.png'></img>	89,71	2750.0	test	<img class = center src='/static/experiments/beast_fmri_test/images/redD.png'></img>	go	2400.0	3.0	8.0	go	non-target	D	89,Middle Finger	71,Index Finger	650.0	350.0	2050.0	2400.0	1.0	350.0	1.0	n/a	ITI
53441	500	n/a	-1	-1	500	0.0	fixation	poldrack-single-stim	417	1176700	0.0-19.9-0.9	beast_fmri_test	275	1176279,/	t	<div class = centerbox2><div class = fixation>+</div></div>	none	500.0	test	n/a	n/a	n/a	n/a	n/a	n/a	n/a	n/a	n/a	n/a	n/a	n/a	n/a	n/a	n/a	n/a	n/a	n/a	fixation
53275.532501578331	2750	n/a	700	71	2750	162.467498422	stim	stop-signal	418	1179447	0.0-19.9-1.9	beast_fmri_test	275	1176958,/,1177636,/,1178313,/,1178994,/	t,t,t,t	<img class = center src='/static/experiments/beast_fmri_test/images/D.png'></img>	89,71	2750.0	test	<img class = center src='/static/experiments/beast_fmri_test/images/redD.png'></img>	go	2400.0	3.0	9.0	go	non-target	D	89,Middle Finger	71,Index Finger	650.0	350.0	2050.0	2400.0	1.0	350.0	1.0	n/a	go_stim
56025.532501578331	162.4674984216249	n/a	700	71	2750	162.467498422	stim	stop-signal	418	1179447	0.0-19.9-1.9	beast_fmri_test	275	1176958,/,1177636,/,1178313,/,1178994,/	t,t,t,t	<img class = center src='/static/experiments/beast_fmri_test/images/D.png'></img>	89,71	2750.0	test	<img class = center src='/static/experiments/beast_fmri_test/images/redD.png'></img>	go	2400.0	3.0	9.0	go	non-target	D	89,Middle Finger	71,Index Finger	650.0	350.0	2050.0	2400.0	1.0	350.0	1.0	n/a	ITI
56897	500	n/a	-1	-1	500	0.0	fixation	poldrack-single-stim	419	1180156	0.0-19.10-0.10	beast_fmri_test	275	1179675,/	t	<div class = centerbox2><div class = fixation>+</div></div>	none	500.0	test	n/a	n/a	n/a	n/a	n/a	n/a	n/a	n/a	n/a	n/a	n/a	n/a	n/a	n/a	n/a	n/a	n/a	n/a	fixation
55982.94307702966	2750	n/a	627	89	2750	916.05692297	stim	stop-signal	420	1182908	0.0-19.10-1.10	beast_fmri_test	275	1180354,/,1181033,/,1181714,/,1182394,/,1183075,/,1183754,/	t,t,t,t,t,t	<img class = center src='/static/experiments/beast_fmri_test/images/B.png'></img>	89,71	2750.0	test	<img class = center src='/static/experiments/beast_fmri_test/images/redB.png'></img>	go	2100.0	3.0	10.0	go	target	B	89,Middle Finger	71,Index Finger	650.0	350.0	2100.0	2400.0	1.0	650.0	1.0	n/a	go_stim
58732.94307702966	916.05692297038331	n/a	627	89	2750	916.05692297	stim	stop-signal	420	1182908	0.0-19.10-1.10	beast_fmri_test	275	1180354,/,1181033,/,1181714,/,1182394,/,1183075,/,1183754,/	t,t,t,t,t,t	<img class = center src='/static/experiments/beast_fmri_test/images/B.png'></img>	89,71	2750.0	test	<img class = center src='/static/experiments/beast_fmri_test/images/redB.png'></img>	go	2100.0	3.0	10.0	go	target	B	89,Middle Finger	71,Index Finger	650.0	350.0	2100.0	2400.0	1.0	650.0	1.0	n/a	ITI
61110	500	n/a	-1	-1	500	0.0	fixation	poldrack-single-stim	421	1184369	0.0-19.11-0.11	beast_fmri_test	275	n/a	n/a	<div class = centerbox2><div class = fixation>+</div></div>	none	500.0	test	n/a	n/a	n/a	n/a	n/a	n/a	n/a	n/a	n/a	n/a	n/a	n/a	n/a	n/a	n/a	n/a	n/a	n/a	fixation
60305.264520122204	2750	n/a	484	71	2750	806.735479878	stim	stop-signal	422	1187121	0.0-19.11-1.11	beast_fmri_test	275	1184435,/,1185115,/,1185795,/,1186474,/,1187153,/,1187830,/	t,t,t,t,t,t	<img class = center src='/static/experiments/beast_fmri_test/images/T.png'></img>	89,71	2750.0	test	<img class = center src='/static/experiments/beast_fmri_test/images/redT.png'></img>	go	2400.0	3.0	11.0	go	non-target	T	89,Middle Finger	71,Index Finger	650.0	350.0	2100.0	2400.0	1.0	350.0	1.0	n/a	go_stim
63055.264520122204	806.73547987790892	n/a	484	71	2750	806.735479878	stim	stop-signal	422	1187121	0.0-19.11-1.11	beast_fmri_test	275	1184435,/,1185115,/,1185795,/,1186474,/,1187153,/,1187830,/	t,t,t,t,t,t	<img class = center src='/static/experiments/beast_fmri_test/images/T.png'></img>	89,71	2750.0	test	<img class = center src='/static/experiments/beast_fmri_test/images/redT.png'></img>	go	2400.0	3.0	11.0	go	non-target	T	89,Middle Finger	71,Index Finger	650.0	350.0	2100.0	2400.0	1.0	350.0	1.0	n/a	ITI
65210	500	n/a	-1	-1	500	0.0	fixation	poldrack-single-stim	423	1188469	0.0-19.12-0.12	beast_fmri_test	275	n/a	n/a	<div class = centerbox2><div class = fixation>+</div></div>	none	500.0	test	n/a	n/a	n/a	n/a	n/a	n/a	n/a	n/a	n/a	n/a	n/a	n/a	n/a	n/a	n/a	n/a	n/a	n/a	fixation
63942.524702204159	350.0	n/a	-1	-1	2750	1270.4752978	stim	stop-signal	424	1191222	0.0-19.12-1.12	beast_fmri_test	275	1188509,/,1189190,/,1189870,/,1190550,/,1191232,/,1191910,/	t,t,t,t,t,t	<img class = center src='/static/experiments/beast_fmri_test/images/V.png'></img>	89,71	2750.0	test	<img class = center src='/static/experiments/beast_fmri_test/images/redV.png'></img>	stop	2400.0	3.0	12.0	stop	non-target	V	89,Middle Finger	71,Index Finger	650.0	350.0	2100.0	2400.0	0.0	350.0	n/a	1.0	go_stim
66342.524702204159	2400.0	n/a	-1	-1	2750	1270.4752978	stim	stop-signal	424	1191222	0.0-19.12-1.12	beast_fmri_test	275	1188509,/,1189190,/,1189870,/,1190550,/,1191232,/,1191910,/	t,t,t,t,t,t	<img class = center src='/static/experiments/beast_fmri_test/images/V.png'></img>	89,71	2750.0	test	<img class = center src='/static/experiments/beast_fmri_test/images/redV.png'></img>	stop	2400.0	3.0	12.0	stop	non-target	V	89,Middle Finger	71,Index Finger	650.0	350.0	2100.0	2400.0	0.0	350.0	n/a	1.0	stop_stim
66692.524702204159	1270.4752977958788	n/a	-1	-1	2750	1270.4752978	stim	stop-signal	424	1191222	0.0-19.12-1.12	beast_fmri_test	275	1188509,/,1189190,/,1189870,/,1190550,/,1191232,/,1191910,/	t,t,t,t,t,t	<img class = center src='/static/experiments/beast_fmri_test/images/V.png'></img>	89,71	2750.0	test	<img class = center src='/static/experiments/beast_fmri_test/images/redV.png'></img>	stop	2400.0	3.0	12.0	stop	non-target	V	89,Middle Finger	71,Index Finger	650.0	350.0	2100.0	2400.0	0.0	350.0	n/a	1.0	ITI
69778	500	n/a	-1	-1	500	0.0	fixation	poldrack-single-stim	425	1193037	0.0-19.13-0.13	beast_fmri_test	275	1192593,/	t	<div class = centerbox2><div class = fixation>+</div></div>	none	500.0	test	n/a	n/a	n/a	n/a	n/a	n/a	n/a	n/a	n/a	n/a	n/a	n/a	n/a	n/a	n/a	n/a	n/a	n/a	fixation
68596.559343903325	2750	n/a	590	71	2750	1181.4406561	stim	stop-signal	426	1195787	0.0-19.13-1.13	beast_fmri_test	275	1193268,/,1193946,/,1194625,/,1195305,/,1195986,/,1196665,/	t,t,t,t,t,t	<img class = center src='/static/experiments/beast_fmri_test/images/D.png'></img>	89,71	2750.0	test	<img class = center src='/static/experiments/beast_fmri_test/images/redD.png'></img>	go	2350.0	3.0	13.0	go	non-target	D	89,Middle Finger	71,Index Finger	650.0	400.0	2100.0	2350.0	1.0	400.0	1.0	n/a	go_stim
71346.559343903325	1181.4406560967748	n/a	590	71	2750	1181.4406561	stim	stop-signal	426	1195787	0.0-19.13-1.13	beast_fmri_test	275	1193268,/,1193946,/,1194625,/,1195305,/,1195986,/,1196665,/	t,t,t,t,t,t	<img class = center src='/static/experiments/beast_fmri_test/images/D.png'></img>	89,71	2750.0	test	<img class = center src='/static/experiments/beast_fmri_test/images/redD.png'></img>	go	2350.0	3.0	13.0	go	non-target	D	89,Middle Finger	71,Index Finger	650.0	400.0	2100.0	2350.0	1.0	400.0	1.0	n/a	ITI
74255	500	n/a	-1	-1	500	0.0	fixation	poldrack-single-stim	427	1197514	0.0-19.14-0.14	beast_fmri_test	275	1197345,/	t	<div class = centerbox2><div class = fixation>+</div></div>	none	500.0	test	n/a	n/a	n/a	n/a	n/a	n/a	n/a	n/a	n/a	n/a	n/a	n/a	n/a	n/a	n/a	n/a	n/a	n/a	fixation
72856.667500376003	2750	n/a	605	89	2750	1400.33249962	stim	stop-signal	428	1200266	0.0-19.14-1.14	beast_fmri_test	275	1198025,/,1198705,/,1199385,/,1200064,/,1200744,/,1201425,/	t,t,t,t,t,t	<img class = center src='/static/experiments/beast_fmri_test/images/T.png'></img>	89,71	2750.0	test	<img class = center src='/static/experiments/beast_fmri_test/images/redT.png'></img>	go	2100.0	3.0	14.0	go	target	T	89,Middle Finger	71,Index Finger	650.0	400.0	2100.0	2350.0	1.0	650.0	1.0	n/a	go_stim
75606.667500376003	1400.3324996239692	n/a	605	89	2750	1400.33249962	stim	stop-signal	428	1200266	0.0-19.14-1.14	beast_fmri_test	275	1198025,/,1198705,/,1199385,/,1200064,/,1200744,/,1201425,/	t,t,t,t,t,t	<img class = center src='/static/experiments/beast_fmri_test/images/T.png'></img>	89,71	2750.0	test	<img class = center src='/static/experiments/beast_fmri_test/images/redT.png'></img>	go	2100.0	3.0	14.0	go	target	T	89,Middle Finger	71,Index Finger	650.0	400.0	2100.0	2350.0	1.0	650.0	1.0	n/a	ITI
78956	500	n/a	-1	-1	500	0.0	fixation	poldrack-single-stim	429	1202215	0.0-19.15-0.15	beast_fmri_test	275	1202105,/	t	<div class = centerbox2><div class = fixation>+</div></div>	none	500.0	test	n/a	n/a	n/a	n/a	n/a	n/a	n/a	n/a	n/a	n/a	n/a	n/a	n/a	n/a	n/a	n/a	n/a	n/a	fixation
78418.204104535282	650.0	n/a	424	89	2750	539.795895465	stim	stop-signal	430	1204967	0.0-19.15-1.15	beast_fmri_test	275	1202786,/,1203466,/,1204145,/,1204825,/,1205504,/	t,t,t,t,t	<img class = center src='/static/experiments/beast_fmri_test/images/V.png'></img>	89,71	2750.0	test	<img class = center src='/static/experiments/beast_fmri_test/images/redV.png'></img>	stop	2100.0	3.0	15.0	stop	target	V	89,Middle Finger	71,Index Finger	650.0	400.0	2100.0	2350.0	0.0	650.0	n/a	0.0	go_stim
80518.204104535282	2100.0	n/a	424	89	2750	539.795895465	stim	stop-signal	430	1204967	0.0-19.15-1.15	beast_fmri_test	275	1202786,/,1203466,/,1204145,/,1204825,/,1205504,/	t,t,t,t,t	<img class = center src='/static/experiments/beast_fmri_test/images/V.png'></img>	89,71	2750.0	test	<img class = center src='/static/experiments/beast_fmri_test/images/redV.png'></img>	stop	2100.0	3.0	15.0	stop	target	V	89,Middle Finger	71,Index Finger	650.0	400.0	2100.0	2350.0	0.0	650.0	n/a	0.0	stop_stim
81168.204104535282	539.79589546473744	n/a	424	89	2750	539.795895465	stim	stop-signal	430	1204967	0.0-19.15-1.15	beast_fmri_test	275	1202786,/,1203466,/,1204145,/,1204825,/,1205504,/	t,t,t,t,t	<img class = center src='/static/experiments/beast_fmri_test/images/V.png'></img>	89,71	2750.0	test	<img class = center src='/static/experiments/beast_fmri_test/images/redV.png'></img>	stop	2100.0	3.0	15.0	stop	target	V	89,Middle Finger	71,Index Finger	650.0	400.0	2100.0	2350.0	0.0	650.0	n/a	0.0	ITI
82792	500	n/a	-1	-1	500	0.0	fixation	poldrack-single-stim	431	1206051	0.0-19.16-0.16	beast_fmri_test	275	n/a	n/a	<div class = centerbox2><div class = fixation>+</div></div>	none	500.0	test	n/a	n/a	n/a	n/a	n/a	n/a	n/a	n/a	n/a	n/a	n/a	n/a	n/a	n/a	n/a	n/a	n/a	n/a	fixation
82737.082603299059	600.0	n/a	-1	-1	2750	53.9173967009	stim	stop-signal	432	1208800	0.0-19.16-1.16	beast_fmri_test	275	1206186,/,1206865,/,1207543,/,1208220,/	t,t,t,t	<img class = center src='/static/experiments/beast_fmri_test/images/D.png'></img>	89,71	2750.0	test	<img class = center src='/static/experiments/beast_fmri_test/images/redD.png'></img>	stop	2150.0	3.0	16.0	stop	target	D	89,Middle Finger	71,Index Finger	600.0	400.0	2150.0	2350.0	0.0	600.0	n/a	1.0	go_stim
84887.082603299059	2150.0	n/a	-1	-1	2750	53.9173967009	stim	stop-signal	432	1208800	0.0-19.16-1.16	beast_fmri_test	275	1206186,/,1206865,/,1207543,/,1208220,/	t,t,t,t	<img class = center src='/static/experiments/beast_fmri_test/images/D.png'></img>	89,71	2750.0	test	<img class = center src='/static/experiments/beast_fmri_test/images/redD.png'></img>	stop	2150.0	3.0	16.0	stop	target	D	89,Middle Finger	71,Index Finger	600.0	400.0	2150.0	2350.0	0.0	600.0	n/a	1.0	stop_stim
85487.082603299059	53.91739670092521	n/a	-1	-1	2750	53.9173967009	stim	stop-signal	432	1208800	0.0-19.16-1.16	beast_fmri_test	275	1206186,/,1206865,/,1207543,/,1208220,/	t,t,t,t	<img class = center src='/static/experiments/beast_fmri_test/images/D.png'></img>	89,71	2750.0	test	<img class = center src='/static/experiments/beast_fmri_test/images/redD.png'></img>	stop	2150.0	3.0	16.0	stop	target	D	89,Middle Finger	71,Index Finger	600.0	400.0	2150.0	2350.0	0.0	600.0	n/a	1.0	ITI
86141	500	n/a	-1	-1	500	0.0	fixation	poldrack-single-stim	433	1209400	0.0-19.17-0.17	beast_fmri_test	275	1208900,/	t	<div class = centerbox2><div class = fixation>+</div></div>	none	500.0	test	n/a	n/a	n/a	n/a	n/a	n/a	n/a	n/a	n/a	n/a	n/a	n/a	n/a	n/a	n/a	n/a	n/a	n/a	fixation
85541.453448846238	2750	n/a	959	89	2750	602.546551154	stim	stop-signal	434	1212153	0.0-19.17-1.17	beast_fmri_test	275	1209581,/,1210262,/,1210940,/,1211621,/,1212301,/	t,t,t,t,t	<img class = center src='/static/experiments/beast_fmri_test/images/D.png'></img>	89,71	2750.0	test	<img class = center src='/static/experiments/beast_fmri_test/images/redD.png'></img>	go	2350.0	3.0	17.0	go	non-target	D	89,Middle Finger	71,Index Finger	650.0	400.0	2150.0	2350.0	0.0	400.0	0.0	n/a	go_stim
88291.453448846238	602.5465511538265	n/a	959	89	2750	602.546551154	stim	stop-signal	434	1212153	0.0-19.17-1.17	beast_fmri_test	275	1209581,/,1210262,/,1210940,/,1211621,/,1212301,/	t,t,t,t,t	<img class = center src='/static/experiments/beast_fmri_test/images/D.png'></img>	89,71	2750.0	test	<img class = center src='/static/experiments/beast_fmri_test/images/redD.png'></img>	go	2350.0	3.0	17.0	go	non-target	D	89,Middle Finger	71,Index Finger	650.0	400.0	2150.0	2350.0	0.0	400.0	0.0	n/a	ITI
90051	500	n/a	-1	-1	500	0.0	fixation	poldrack-single-stim	435	1213310	0.0-19.18-0.18	beast_fmri_test	275	1212982,/	t	<div class = centerbox2><div class = fixation>+</div></div>	none	500.0	test	n/a	n/a	n/a	n/a	n/a	n/a	n/a	n/a	n/a	n/a	n/a	n/a	n/a	n/a	n/a	n/a	n/a	n/a	fixation
87256.013467972632	2750	n/a	951	71	2750	2797.98653203	stim	stop-signal	436	1216063	0.0-19.18-1.18	beast_fmri_test	275	1213660,/,1214339,/,1215020,/,1215700,/,1216379,/,1217061,/,1217738,/,1218415,/	t,t,t,t,t,t,t,t	<img class = center src='/static/experiments/beast_fmri_test/images/D.png'></img>	89,71	2750.0	test	<img class = center src='/static/experiments/beast_fmri_test/images/redD.png'></img>	go	2350.0	3.0	18.0	go	non-target	D	89,Middle Finger	71,Index Finger	650.0	400.0	2150.0	2350.0	1.0	400.0	1.0	n/a	go_stim
90006.013467972632	2797.9865320273639	n/a	951	71	2750	2797.98653203	stim	stop-signal	436	1216063	0.0-19.18-1.18	beast_fmri_test	275	1213660,/,1214339,/,1215020,/,1215700,/,1216379,/,1217061,/,1217738,/,1218415,/	t,t,t,t,t,t,t,t	<img class = center src='/static/experiments/beast_fmri_test/images/D.png'></img>	89,71	2750.0	test	<img class = center src='/static/experiments/beast_fmri_test/images/redD.png'></img>	go	2350.0	3.0	18.0	go	non-target	D	89,Middle Finger	71,Index Finger	650.0	400.0	2150.0	2350.0	1.0	400.0	1.0	n/a	ITI
96149	500	n/a	-1	-1	500	0.0	fixation	poldrack-single-stim	437	1219408	0.0-19.19-0.19	beast_fmri_test	275	1219095,/	t	<div class = centerbox2><div class = fixation>+</div></div>	none	500.0	test	n/a	n/a	n/a	n/a	n/a	n/a	n/a	n/a	n/a	n/a	n/a	n/a	n/a	n/a	n/a	n/a	n/a	n/a	fixation
95699.392409474589	2750	n/a	520	71	2750	452.607590525	stim	stop-signal	438	1222161	0.0-19.19-1.19	beast_fmri_test	275	1219778,/,1220457,/,1221137,/,1221816,/,1222497,/	t,t,t,t,t	<img class = center src='/static/experiments/beast_fmri_test/images/T.png'></img>	89,71	2750.0	test	<img class = center src='/static/experiments/beast_fmri_test/images/redT.png'></img>	go	2350.0	3.0	19.0	go	non-target	T	89,Middle Finger	71,Index Finger	650.0	400.0	2150.0	2350.0	1.0	400.0	1.0	n/a	go_stim
98449.392409474589	452.60759052547616	n/a	520	71	2750	452.607590525	stim	stop-signal	438	1222161	0.0-19.19-1.19	beast_fmri_test	275	1219778,/,1220457,/,1221137,/,1221816,/,1222497,/	t,t,t,t,t	<img class = center src='/static/experiments/beast_fmri_test/images/T.png'></img>	89,71	2750.0	test	<img class = center src='/static/experiments/beast_fmri_test/images/redT.png'></img>	go	2350.0	3.0	19.0	go	non-target	T	89,Middle Finger	71,Index Finger	650.0	400.0	2150.0	2350.0	1.0	400.0	1.0	n/a	ITI
99908	500	n/a	-1	-1	500	0.0	fixation	poldrack-single-stim	439	1223167	0.0-19.20-0.20	beast_fmri_test	275	n/a	n/a	<div class = centerbox2><div class = fixation>+</div></div>	none	500.0	test	n/a	n/a	n/a	n/a	n/a	n/a	n/a	n/a	n/a	n/a	n/a	n/a	n/a	n/a	n/a	n/a	n/a	n/a	fixation
99230.937578549609	2750	n/a	1122	89	2750	680.06242145	stim	stop-signal	440	1225920	0.0-19.20-1.20	beast_fmri_test	275	1223177,/,1223856,/,1224536,/,1225216,/,1225897,/,1226576,/	t,t,t,t,t,t	<img class = center src='/static/experiments/beast_fmri_test/images/D.png'></img>	89,71	2750.0	test	<img class = center src='/static/experiments/beast_fmri_test/images/redD.png'></img>	go	2100.0	3.0	20.0	go	target	D	89,Middle Finger	71,Index Finger	650.0	400.0	2100.0	2350.0	1.0	650.0	1.0	n/a	go_stim
101980.93757854961	680.06242145045348	n/a	1122	89	2750	680.06242145	stim	stop-signal	440	1225920	0.0-19.20-1.20	beast_fmri_test	275	1223177,/,1223856,/,1224536,/,1225216,/,1225897,/,1226576,/	t,t,t,t,t,t	<img class = center src='/static/experiments/beast_fmri_test/images/D.png'></img>	89,71	2750.0	test	<img class = center src='/static/experiments/beast_fmri_test/images/redD.png'></img>	go	2100.0	3.0	20.0	go	target	D	89,Middle Finger	71,Index Finger	650.0	400.0	2100.0	2350.0	1.0	650.0	1.0	n/a	ITI
103899	500	n/a	-1	-1	500	0.0	fixation	poldrack-single-stim	441	1227158	0.0-19.21-0.21	beast_fmri_test	275	n/a	n/a	<div class = centerbox2><div class = fixation>+</div></div>	none	500.0	test	n/a	n/a	n/a	n/a	n/a	n/a	n/a	n/a	n/a	n/a	n/a	n/a	n/a	n/a	n/a	n/a	n/a	n/a	fixation
103283.76869864389	2750	n/a	808	71	2750	618.231301356	stim	stop-signal	442	1229911	0.0-19.21-1.21	beast_fmri_test	275	1227257,/,1227936,/,1228616,/,1229296,/,1229977,/	t,t,t,t,t	<img class = center src='/static/experiments/beast_fmri_test/images/B.png'></img>	89,71	2750.0	test	<img class = center src='/static/experiments/beast_fmri_test/images/redB.png'></img>	go	2350.0	3.0	21.0	go	non-target	B	89,Middle Finger	71,Index Finger	650.0	400.0	2100.0	2350.0	1.0	400.0	1.0	n/a	go_stim
106033.76869864389	618.23130135602719	n/a	808	71	2750	618.231301356	stim	stop-signal	442	1229911	0.0-19.21-1.21	beast_fmri_test	275	1227257,/,1227936,/,1228616,/,1229296,/,1229977,/	t,t,t,t,t	<img class = center src='/static/experiments/beast_fmri_test/images/B.png'></img>	89,71	2750.0	test	<img class = center src='/static/experiments/beast_fmri_test/images/redB.png'></img>	go	2350.0	3.0	21.0	go	non-target	B	89,Middle Finger	71,Index Finger	650.0	400.0	2100.0	2350.0	1.0	400.0	1.0	n/a	ITI
107821	500	n/a	-1	-1	500	0.0	fixation	poldrack-single-stim	443	1231080	0.0-19.22-0.22	beast_fmri_test	275	1230656,/	t	<div class = centerbox2><div class = fixation>+</div></div>	none	500.0	test	n/a	n/a	n/a	n/a	n/a	n/a	n/a	n/a	n/a	n/a	n/a	n/a	n/a	n/a	n/a	n/a	n/a	n/a	fixation
107716.20157829672	400.0	n/a	-1	-1	2750	107.798421703	stim	stop-signal	444	1233833	0.0-19.22-1.22	beast_fmri_test	275	1231336,/,1232016,/,1232696,/,1233376,/	t,t,t,t	<img class = center src='/static/experiments/beast_fmri_test/images/P.png'></img>	89,71	2750.0	test	<img class = center src='/static/experiments/beast_fmri_test/images/redP.png'></img>	stop	2350.0	3.0	22.0	stop	non-target	P	89,Middle Finger	71,Index Finger	650.0	400.0	2100.0	2350.0	0.0	400.0	n/a	1.0	go_stim
110066.20157829672	2350.0	n/a	-1	-1	2750	107.798421703	stim	stop-signal	444	1233833	0.0-19.22-1.22	beast_fmri_test	275	1231336,/,1232016,/,1232696,/,1233376,/	t,t,t,t	<img class = center src='/static/experiments/beast_fmri_test/images/P.png'></img>	89,71	2750.0	test	<img class = center src='/static/experiments/beast_fmri_test/images/redP.png'></img>	stop	2350.0	3.0	22.0	stop	non-target	P	89,Middle Finger	71,Index Finger	650.0	400.0	2100.0	2350.0	0.0	400.0	n/a	1.0	stop_stim
110466.20157829672	107.79842170333332	n/a	-1	-1	2750	107.798421703	stim	stop-signal	444	1233833	0.0-19.22-1.22	beast_fmri_test	275	1231336,/,1232016,/,1232696,/,1233376,/	t,t,t,t	<img class = center src='/static/experiments/beast_fmri_test/images/P.png'></img>	89,71	2750.0	test	<img class = center src='/static/experiments/beast_fmri_test/images/redP.png'></img>	stop	2350.0	3.0	22.0	stop	non-target	P	89,Middle Finger	71,Index Finger	650.0	400.0	2100.0	2350.0	0.0	400.0	n/a	1.0	ITI
111240	500	n/a	-1	-1	500	0.0	fixation	poldrack-single-stim	445	1234499	0.0-19.23-0.23	beast_fmri_test	275	1234057,/	t	<div class = centerbox2><div class = fixation>+</div></div>	none	500.0	test	n/a	n/a	n/a	n/a	n/a	n/a	n/a	n/a	n/a	n/a	n/a	n/a	n/a	n/a	n/a	n/a	n/a	n/a	fixation
110488.72201727051	2750	n/a	554	71	2750	753.27798273	stim	stop-signal	446	1237251	0.0-19.23-1.23	beast_fmri_test	275	1234736,/,1235416,/,1236097,/,1236776,/,1237454,/	t,t,t,t,t	<img class = center src='/static/experiments/beast_fmri_test/images/P.png'></img>	89,71	2750.0	test	<img class = center src='/static/experiments/beast_fmri_test/images/redP.png'></img>	go	2300.0	3.0	23.0	go	non-target	P	89,Middle Finger	71,Index Finger	650.0	450.0	2100.0	2300.0	1.0	450.0	1.0	n/a	go_stim
113238.72201727051	753.27798272959672	n/a	554	71	2750	753.27798273	stim	stop-signal	446	1237251	0.0-19.23-1.23	beast_fmri_test	275	1234736,/,1235416,/,1236097,/,1236776,/,1237454,/	t,t,t,t,t	<img class = center src='/static/experiments/beast_fmri_test/images/P.png'></img>	89,71	2750.0	test	<img class = center src='/static/experiments/beast_fmri_test/images/redP.png'></img>	go	2300.0	3.0	23.0	go	non-target	P	89,Middle Finger	71,Index Finger	650.0	450.0	2100.0	2300.0	1.0	450.0	1.0	n/a	ITI
115299	500	n/a	-1	-1	500	0.0	fixation	poldrack-single-stim	447	1238558	0.0-19.24-0.24	beast_fmri_test	275	1238131,/	t	<div class = centerbox2><div class = fixation>+</div></div>	none	500.0	test	n/a	n/a	n/a	n/a	n/a	n/a	n/a	n/a	n/a	n/a	n/a	n/a	n/a	n/a	n/a	n/a	n/a	n/a	fixation
113523.94847848127	450.0	n/a	480	71	2750	1777.05152152	stim	stop-signal	448	1241310	0.0-19.24-1.24	beast_fmri_test	275	1238811,/,1239492,/,1240171,/,1240851,/,1241531,/,1242211,/,1242892,/	t,t,t,t,t,t,t	<img class = center src='/static/experiments/beast_fmri_test/images/D.png'></img>	89,71	2750.0	test	<img class = center src='/static/experiments/beast_fmri_test/images/redD.png'></img>	stop	2300.0	3.0	24.0	stop	non-target	D	89,Middle Finger	71,Index Finger	650.0	450.0	2100.0	2300.0	0.0	450.0	n/a	0.0	go_stim
115823.94847848127	2300.0	n/a	480	71	2750	1777.05152152	stim	stop-signal	448	1241310	0.0-19.24-1.24	beast_fmri_test	275	1238811,/,1239492,/,1240171,/,1240851,/,1241531,/,1242211,/,1242892,/	t,t,t,t,t,t,t	<img class = center src='/static/experiments/beast_fmri_test/images/D.png'></img>	89,71	2750.0	test	<img class = center src='/static/experiments/beast_fmri_test/images/redD.png'></img>	stop	2300.0	3.0	24.0	stop	non-target	D	89,Middle Finger	71,Index Finger	650.0	450.0	2100.0	2300.0	0.0	450.0	n/a	0.0	stop_stim
116273.94847848127	1777.0515215186658	n/a	480	71	2750	1777.05152152	stim	stop-signal	448	1241310	0.0-19.24-1.24	beast_fmri_test	275	1238811,/,1239492,/,1240171,/,1240851,/,1241531,/,1242211,/,1242892,/	t,t,t,t,t,t,t	<img class = center src='/static/experiments/beast_fmri_test/images/D.png'></img>	89,71	2750.0	test	<img class = center src='/static/experiments/beast_fmri_test/images/redD.png'></img>	stop	2300.0	3.0	24.0	stop	non-target	D	89,Middle Finger	71,Index Finger	650.0	450.0	2100.0	2300.0	0.0	450.0	n/a	0.0	ITI
120384	500	n/a	-1	-1	500	0.0	fixation	poldrack-single-stim	449	1243643	0.0-19.25-0.25	beast_fmri_test	275	1243572,/	t	<div class = centerbox2><div class = fixation>+</div></div>	none	500.0	test	n/a	n/a	n/a	n/a	n/a	n/a	n/a	n/a	n/a	n/a	n/a	n/a	n/a	n/a	n/a	n/a	n/a	n/a	fixation
118661.4489377758	2750	n/a	855	71	2750	1724.55106222	stim	stop-signal	450	1246395	0.0-19.25-1.25	beast_fmri_test	275	1244254,/,1244932,/,1245612,/,1246292,/,1246972,/,1247651,/	t,t,t,t,t,t	<img class = center src='/static/experiments/beast_fmri_test/images/T.png'></img>	89,71	2750.0	test	<img class = center src='/static/experiments/beast_fmri_test/images/redT.png'></img>	go	2350.0	3.0	25.0	go	non-target	T	89,Middle Finger	71,Index Finger	650.0	400.0	2100.0	2350.0	1.0	400.0	1.0	n/a	go_stim
121411.4489377758	1724.5510622241181	n/a	855	71	2750	1724.55106222	stim	stop-signal	450	1246395	0.0-19.25-1.25	beast_fmri_test	275	1244254,/,1244932,/,1245612,/,1246292,/,1246972,/,1247651,/	t,t,t,t,t,t	<img class = center src='/static/experiments/beast_fmri_test/images/T.png'></img>	89,71	2750.0	test	<img class = center src='/static/experiments/beast_fmri_test/images/redT.png'></img>	go	2350.0	3.0	25.0	go	non-target	T	89,Middle Finger	71,Index Finger	650.0	400.0	2100.0	2350.0	1.0	400.0	1.0	n/a	ITI
125409	500	n/a	-1	-1	500	0.0	fixation	poldrack-single-stim	451	1248668	0.0-19.26-0.26	beast_fmri_test	275	1248328,/	t	<div class = centerbox2><div class = fixation>+</div></div>	none	500.0	test	n/a	n/a	n/a	n/a	n/a	n/a	n/a	n/a	n/a	n/a	n/a	n/a	n/a	n/a	n/a	n/a	n/a	n/a	fixation
125259.1943116223	2750	n/a	665	71	2750	152.805688378	stim	stop-signal	452	1251421	0.0-19.26-1.26	beast_fmri_test	275	1249009,/,1249688,/,1250367,/,1251047,/	t,t,t,t	<img class = center src='/static/experiments/beast_fmri_test/images/D.png'></img>	89,71	2750.0	test	<img class = center src='/static/experiments/beast_fmri_test/images/redD.png'></img>	go	2350.0	3.0	26.0	go	non-target	D	89,Middle Finger	71,Index Finger	650.0	400.0	2100.0	2350.0	1.0	400.0	1.0	n/a	go_stim
128009.1943116223	152.8056883777914	n/a	665	71	2750	152.805688378	stim	stop-signal	452	1251421	0.0-19.26-1.26	beast_fmri_test	275	1249009,/,1249688,/,1250367,/,1251047,/	t,t,t,t	<img class = center src='/static/experiments/beast_fmri_test/images/D.png'></img>	89,71	2750.0	test	<img class = center src='/static/experiments/beast_fmri_test/images/redD.png'></img>	go	2350.0	3.0	26.0	go	non-target	D	89,Middle Finger	71,Index Finger	650.0	400.0	2100.0	2350.0	1.0	400.0	1.0	n/a	ITI
128874	500	n/a	-1	-1	500	0.0	fixation	poldrack-single-stim	453	1252133	0.0-19.27-0.27	beast_fmri_test	275	1251727,/	t	<div class = centerbox2><div class = fixation>+</div></div>	none	500.0	test	n/a	n/a	n/a	n/a	n/a	n/a	n/a	n/a	n/a	n/a	n/a	n/a	n/a	n/a	n/a	n/a	n/a	n/a	fixation
127349.79542985652	2750	n/a	381	89	2750	1526.20457014	stim	stop-signal	454	1254885	0.0-19.27-1.27	beast_fmri_test	275	1252407,/,1253088,/,1253769,/,1254447,/,1255127,/,1255807,/	t,t,t,t,t,t	<img class = center src='/static/experiments/beast_fmri_test/images/D.png'></img>	89,71	2750.0	test	<img class = center src='/static/experiments/beast_fmri_test/images/redD.png'></img>	go	2100.0	3.0	27.0	go	target	D	89,Middle Finger	71,Index Finger	650.0	400.0	2100.0	2350.0	1.0	650.0	1.0	n/a	go_stim
130099.79542985652	1526.2045701434106	n/a	381	89	2750	1526.20457014	stim	stop-signal	454	1254885	0.0-19.27-1.27	beast_fmri_test	275	1252407,/,1253088,/,1253769,/,1254447,/,1255127,/,1255807,/	t,t,t,t,t,t	<img class = center src='/static/experiments/beast_fmri_test/images/D.png'></img>	89,71	2750.0	test	<img class = center src='/static/experiments/beast_fmri_test/images/redD.png'></img>	go	2100.0	3.0	27.0	go	target	D	89,Middle Finger	71,Index Finger	650.0	400.0	2100.0	2350.0	1.0	650.0	1.0	n/a	ITI
133713	500	n/a	-1	-1	500	0.0	fixation	poldrack-single-stim	455	1256972	0.0-19.28-0.28	beast_fmri_test	275	1256487,/	t	<div class = centerbox2><div class = fixation>+</div></div>	none	500.0	test	n/a	n/a	n/a	n/a	n/a	n/a	n/a	n/a	n/a	n/a	n/a	n/a	n/a	n/a	n/a	n/a	n/a	n/a	fixation
133698.89098801324	2750	n/a	467	89	2750	12.1090119868	stim	stop-signal	456	1259720	0.0-19.28-1.28	beast_fmri_test	275	1257166,/,1257843,/,1258523,/,1259203,/	t,t,t,t	<img class = center src='/static/experiments/beast_fmri_test/images/T.png'></img>	89,71	2750.0	test	<img class = center src='/static/experiments/beast_fmri_test/images/redT.png'></img>	go	2100.0	3.0	28.0	go	target	T	89,Middle Finger	71,Index Finger	650.0	400.0	2100.0	2350.0	1.0	650.0	1.0	n/a	go_stim
136448.89098801324	12.109011986777329	n/a	467	89	2750	12.1090119868	stim	stop-signal	456	1259720	0.0-19.28-1.28	beast_fmri_test	275	1257166,/,1257843,/,1258523,/,1259203,/	t,t,t,t	<img class = center src='/static/experiments/beast_fmri_test/images/T.png'></img>	89,71	2750.0	test	<img class = center src='/static/experiments/beast_fmri_test/images/redT.png'></img>	go	2100.0	3.0	28.0	go	target	T	89,Middle Finger	71,Index Finger	650.0	400.0	2100.0	2350.0	1.0	650.0	1.0	n/a	ITI
137031	500	n/a	-1	-1	500	0.0	fixation	poldrack-single-stim	457	1260290	0.0-19.29-0.29	beast_fmri_test	275	1259883,/	t	<div class = centerbox2><div class = fixation>+</div></div>	none	500.0	test	n/a	n/a	n/a	n/a	n/a	n/a	n/a	n/a	n/a	n/a	n/a	n/a	n/a	n/a	n/a	n/a	n/a	n/a	fixation
135524.37942490075	2750	n/a	885	71	2750	1510.6205751	stim	stop-signal	458	1263044	0.0-19.29-1.29	beast_fmri_test	275	1260562,/,1261241,/,1261924,/,1262603,/,1263283,/,1263962,/	t,t,t,t,t,t	<img class = center src='/static/experiments/beast_fmri_test/images/T.png'></img>	89,71	2750.0	test	<img class = center src='/static/experiments/beast_fmri_test/images/redT.png'></img>	go	2350.0	3.0	29.0	go	non-target	T	89,Middle Finger	71,Index Finger	650.0	400.0	2100.0	2350.0	1.0	400.0	1.0	n/a	go_stim
138274.37942490075	1510.6205750992644	n/a	885	71	2750	1510.6205751	stim	stop-signal	458	1263044	0.0-19.29-1.29	beast_fmri_test	275	1260562,/,1261241,/,1261924,/,1262603,/,1263283,/,1263962,/	t,t,t,t,t,t	<img class = center src='/static/experiments/beast_fmri_test/images/T.png'></img>	89,71	2750.0	test	<img class = center src='/static/experiments/beast_fmri_test/images/redT.png'></img>	go	2350.0	3.0	29.0	go	non-target	T	89,Middle Finger	71,Index Finger	650.0	400.0	2100.0	2350.0	1.0	400.0	1.0	n/a	ITI
141857	500	n/a	-1	-1	500	0.0	fixation	poldrack-single-stim	459	1265116	0.0-19.30-0.30	beast_fmri_test	275	1264642,/	t	<div class = centerbox2><div class = fixation>+</div></div>	none	500.0	test	n/a	n/a	n/a	n/a	n/a	n/a	n/a	n/a	n/a	n/a	n/a	n/a	n/a	n/a	n/a	n/a	n/a	n/a	fixation
141839.79793978948	2750	n/a	539	71	2750	16.2020602106	stim	stop-signal	460	1267865	0.0-19.30-1.30	beast_fmri_test	275	1265322,/,1266003,/,1266682,/,1267360,/	t,t,t,t	<img class = center src='/static/experiments/beast_fmri_test/images/B.png'></img>	89,71	2750.0	test	<img class = center src='/static/experiments/beast_fmri_test/images/redB.png'></img>	go	2350.0	3.0	30.0	go	non-target	B	89,Middle Finger	71,Index Finger	650.0	400.0	2100.0	2350.0	1.0	400.0	1.0	n/a	go_stim
144589.79793978948	16.202060210634226	n/a	539	71	2750	16.2020602106	stim	stop-signal	460	1267865	0.0-19.30-1.30	beast_fmri_test	275	1265322,/,1266003,/,1266682,/,1267360,/	t,t,t,t	<img class = center src='/static/experiments/beast_fmri_test/images/B.png'></img>	89,71	2750.0	test	<img class = center src='/static/experiments/beast_fmri_test/images/redB.png'></img>	go	2350.0	3.0	30.0	go	non-target	B	89,Middle Finger	71,Index Finger	650.0	400.0	2100.0	2350.0	1.0	400.0	1.0	n/a	ITI
145177	500	n/a	-1	-1	500	0.0	fixation	poldrack-single-stim	461	1268436	0.0-19.31-0.31	beast_fmri_test	275	1268038,/	t	<div class = centerbox2><div class = fixation>+</div></div>	none	500.0	test	n/a	n/a	n/a	n/a	n/a	n/a	n/a	n/a	n/a	n/a	n/a	n/a	n/a	n/a	n/a	n/a	n/a	n/a	fixation
143605.3805149754	2750	n/a	1261	89	2750	1575.61948502	stim	stop-signal	462	1271190	0.0-19.31-1.31	beast_fmri_test	275	1268717,/,1269398,/,1270077,/,1270757,/,1271437,/,1272118,/	t,t,t,t,t,t	<img class = center src='/static/experiments/beast_fmri_test/images/T.png'></img>	89,71	2750.0	test	<img class = center src='/static/experiments/beast_fmri_test/images/redT.png'></img>	go	2100.0	3.0	31.0	go	target	T	89,Middle Finger	71,Index Finger	650.0	400.0	2100.0	2350.0	1.0	650.0	1.0	n/a	go_stim
146355.3805149754	1575.6194850245654	n/a	1261	89	2750	1575.61948502	stim	stop-signal	462	1271190	0.0-19.31-1.31	beast_fmri_test	275	1268717,/,1269398,/,1270077,/,1270757,/,1271437,/,1272118,/	t,t,t,t,t,t	<img class = center src='/static/experiments/beast_fmri_test/images/T.png'></img>	89,71	2750.0	test	<img class = center src='/static/experiments/beast_fmri_test/images/redT.png'></img>	go	2100.0	3.0	31.0	go	target	T	89,Middle Finger	71,Index Finger	650.0	400.0	2100.0	2350.0	1.0	650.0	1.0	n/a	ITI
150068	500	n/a	-1	-1	500	0.0	fixation	poldrack-single-stim	463	1273327	0.0-19.32-0.32	beast_fmri_test	275	1272825,/	t	<div class = centerbox2><div class = fixation>+</div></div>	none	500.0	test	n/a	n/a	n/a	n/a	n/a	n/a	n/a	n/a	n/a	n/a	n/a	n/a	n/a	n/a	n/a	n/a	n/a	n/a	fixation
148811.41367767146	400.0	n/a	553	71	2750	1260.58632233	stim	stop-signal	464	1276081	0.0-19.32-1.32	beast_fmri_test	275	1273478,/,1274158,/,1274838,/,1275518,/,1276198,/,1276880,/	t,t,t,t,t,t	<img class = center src='/static/experiments/beast_fmri_test/images/P.png'></img>	89,71	2750.0	test	<img class = center src='/static/experiments/beast_fmri_test/images/redP.png'></img>	stop	2350.0	3.0	32.0	stop	non-target	P	89,Middle Finger	71,Index Finger	650.0	400.0	2100.0	2350.0	0.0	400.0	n/a	0.0	go_stim
151161.41367767146	2350.0	n/a	553	71	2750	1260.58632233	stim	stop-signal	464	1276081	0.0-19.32-1.32	beast_fmri_test	275	1273478,/,1274158,/,1274838,/,1275518,/,1276198,/,1276880,/	t,t,t,t,t,t	<img class = center src='/static/experiments/beast_fmri_test/images/P.png'></img>	89,71	2750.0	test	<img class = center src='/static/experiments/beast_fmri_test/images/redP.png'></img>	stop	2350.0	3.0	32.0	stop	non-target	P	89,Middle Finger	71,Index Finger	650.0	400.0	2100.0	2350.0	0.0	400.0	n/a	0.0	stop_stim
151561.41367767146	1260.5863223285564	n/a	553	71	2750	1260.58632233	stim	stop-signal	464	1276081	0.0-19.32-1.32	beast_fmri_test	275	1273478,/,1274158,/,1274838,/,1275518,/,1276198,/,1276880,/	t,t,t,t,t,t	<img class = center src='/static/experiments/beast_fmri_test/images/P.png'></img>	89,71	2750.0	test	<img class = center src='/static/experiments/beast_fmri_test/images/redP.png'></img>	stop	2350.0	3.0	32.0	stop	non-target	P	89,Middle Finger	71,Index Finger	650.0	400.0	2100.0	2350.0	0.0	400.0	n/a	0.0	ITI
154624	500	n/a	-1	-1	500	0.0	fixation	poldrack-single-stim	465	1277883	0.0-19.33-0.33	beast_fmri_test	275	1277556,/	t	<div class = centerbox2><div class = fixation>+</div></div>	none	500.0	test	n/a	n/a	n/a	n/a	n/a	n/a	n/a	n/a	n/a	n/a	n/a	n/a	n/a	n/a	n/a	n/a	n/a	n/a	fixation
152617.59580167755	2750	n/a	585	71	2750	2008.40419832	stim	stop-signal	466	1280635	0.0-19.33-1.33	beast_fmri_test	275	1278234,/,1278913,/,1279592,/,1280274,/,1280955,/,1281633,/,1282313,/	t,t,t,t,t,t,t	<img class = center src='/static/experiments/beast_fmri_test/images/V.png'></img>	89,71	2750.0	test	<img class = center src='/static/experiments/beast_fmri_test/images/redV.png'></img>	go	2400.0	3.0	33.0	go	non-target	V	89,Middle Finger	71,Index Finger	650.0	350.0	2100.0	2400.0	1.0	350.0	1.0	n/a	go_stim
155367.59580167755	2008.4041983225247	n/a	585	71	2750	2008.40419832	stim	stop-signal	466	1280635	0.0-19.33-1.33	beast_fmri_test	275	1278234,/,1278913,/,1279592,/,1280274,/,1280955,/,1281633,/,1282313,/	t,t,t,t,t,t,t	<img class = center src='/static/experiments/beast_fmri_test/images/V.png'></img>	89,71	2750.0	test	<img class = center src='/static/experiments/beast_fmri_test/images/redV.png'></img>	go	2400.0	3.0	33.0	go	non-target	V	89,Middle Finger	71,Index Finger	650.0	350.0	2100.0	2400.0	1.0	350.0	1.0	n/a	ITI
159937	500	n/a	-1	-1	500	0.0	fixation	poldrack-single-stim	467	1283196	0.0-19.34-0.34	beast_fmri_test	275	1282993,/	t	<div class = centerbox2><div class = fixation>+</div></div>	none	500.0	test	n/a	n/a	n/a	n/a	n/a	n/a	n/a	n/a	n/a	n/a	n/a	n/a	n/a	n/a	n/a	n/a	n/a	n/a	fixation
159805.73800589843	350.0	n/a	-1	-1	2750	133.261994102	stim	stop-signal	468	1285948	0.0-19.34-1.34	beast_fmri_test	275	1283673,/,1284353,/,1285034,/,1285714,/	t,t,t,t	<img class = center src='/static/experiments/beast_fmri_test/images/B.png'></img>	89,71	2750.0	test	<img class = center src='/static/experiments/beast_fmri_test/images/redB.png'></img>	stop	2400.0	3.0	34.0	stop	non-target	B	89,Middle Finger	71,Index Finger	650.0	350.0	2100.0	2400.0	0.0	350.0	n/a	1.0	go_stim
162205.73800589843	2400.0	n/a	-1	-1	2750	133.261994102	stim	stop-signal	468	1285948	0.0-19.34-1.34	beast_fmri_test	275	1283673,/,1284353,/,1285034,/,1285714,/	t,t,t,t	<img class = center src='/static/experiments/beast_fmri_test/images/B.png'></img>	89,71	2750.0	test	<img class = center src='/static/experiments/beast_fmri_test/images/redB.png'></img>	stop	2400.0	3.0	34.0	stop	non-target	B	89,Middle Finger	71,Index Finger	650.0	350.0	2100.0	2400.0	0.0	350.0	n/a	1.0	stop_stim
162555.73800589843	133.2619941016213	n/a	-1	-1	2750	133.261994102	stim	stop-signal	468	1285948	0.0-19.34-1.34	beast_fmri_test	275	1283673,/,1284353,/,1285034,/,1285714,/	t,t,t,t	<img class = center src='/static/experiments/beast_fmri_test/images/B.png'></img>	89,71	2750.0	test	<img class = center src='/static/experiments/beast_fmri_test/images/redB.png'></img>	stop	2400.0	3.0	34.0	stop	non-target	B	89,Middle Finger	71,Index Finger	650.0	350.0	2100.0	2400.0	0.0	350.0	n/a	1.0	ITI
163373	500	n/a	-1	-1	500	0.0	fixation	poldrack-single-stim	469	1286632	0.0-19.35-0.35	beast_fmri_test	275	1286394,/	t	<div class = centerbox2><div class = fixation>+</div></div>	none	500.0	test	n/a	n/a	n/a	n/a	n/a	n/a	n/a	n/a	n/a	n/a	n/a	n/a	n/a	n/a	n/a	n/a	n/a	n/a	fixation
161682.14806644595	400.0	n/a	460	89	2750	1693.85193355	stim	stop-signal	470	1289385	0.0-19.35-1.35	beast_fmri_test	275	1287074,/,1287754,/,1288433,/,1289113,/,1289793,/,1290474,/	t,t,t,t,t,t	<img class = center src='/static/experiments/beast_fmri_test/images/T.png'></img>	89,71	2750.0	test	<img class = center src='/static/experiments/beast_fmri_test/images/redT.png'></img>	stop	2350.0	3.0	35.0	stop	non-target	T	89,Middle Finger	71,Index Finger	650.0	400.0	2100.0	2350.0	0.0	400.0	n/a	0.0	go_stim
164032.14806644595	2350.0	n/a	460	89	2750	1693.85193355	stim	stop-signal	470	1289385	0.0-19.35-1.35	beast_fmri_test	275	1287074,/,1287754,/,1288433,/,1289113,/,1289793,/,1290474,/	t,t,t,t,t,t	<img class = center src='/static/experiments/beast_fmri_test/images/T.png'></img>	89,71	2750.0	test	<img class = center src='/static/experiments/beast_fmri_test/images/redT.png'></img>	stop	2350.0	3.0	35.0	stop	non-target	T	89,Middle Finger	71,Index Finger	650.0	400.0	2100.0	2350.0	0.0	400.0	n/a	0.0	stop_stim
164432.14806644595	1693.8519335540002	n/a	460	89	2750	1693.85193355	stim	stop-signal	470	1289385	0.0-19.35-1.35	beast_fmri_test	275	1287074,/,1287754,/,1288433,/,1289113,/,1289793,/,1290474,/	t,t,t,t,t,t	<img class = center src='/static/experiments/beast_fmri_test/images/T.png'></img>	89,71	2750.0	test	<img class = center src='/static/experiments/beast_fmri_test/images/redT.png'></img>	stop	2350.0	3.0	35.0	stop	non-target	T	89,Middle Finger	71,Index Finger	650.0	400.0	2100.0	2350.0	0.0	400.0	n/a	0.0	ITI
168370	500	n/a	-1	-1	500	0.0	fixation	poldrack-single-stim	471	1291629	0.0-19.36-0.36	beast_fmri_test	275	1291155,/	t	<div class = centerbox2><div class = fixation>+</div></div>	none	500.0	test	n/a	n/a	n/a	n/a	n/a	n/a	n/a	n/a	n/a	n/a	n/a	n/a	n/a	n/a	n/a	n/a	n/a	n/a	fixation
167855.23472243734	350.0	n/a	501	71	2750	518.765277563	stim	stop-signal	472	1294383	0.0-19.36-1.36	beast_fmri_test	275	1291834,/,1292513,/,1293193,/,1293873,/,1294554,/	t,t,t,t,t	<img class = center src='/static/experiments/beast_fmri_test/images/P.png'></img>	89,71	2750.0	test	<img class = center src='/static/experiments/beast_fmri_test/images/redP.png'></img>	stop	2400.0	3.0	36.0	stop	non-target	P	89,Middle Finger	71,Index Finger	650.0	350.0	2100.0	2400.0	0.0	350.0	n/a	0.0	go_stim
170255.23472243734	2400.0	n/a	501	71	2750	518.765277563	stim	stop-signal	472	1294383	0.0-19.36-1.36	beast_fmri_test	275	1291834,/,1292513,/,1293193,/,1293873,/,1294554,/	t,t,t,t,t	<img class = center src='/static/experiments/beast_fmri_test/images/P.png'></img>	89,71	2750.0	test	<img class = center src='/static/experiments/beast_fmri_test/images/redP.png'></img>	stop	2400.0	3.0	36.0	stop	non-target	P	89,Middle Finger	71,Index Finger	650.0	350.0	2100.0	2400.0	0.0	350.0	n/a	0.0	stop_stim
170605.23472243734	518.765277562704	n/a	501	71	2750	518.765277563	stim	stop-signal	472	1294383	0.0-19.36-1.36	beast_fmri_test	275	1291834,/,1292513,/,1293193,/,1293873,/,1294554,/	t,t,t,t,t	<img class = center src='/static/experiments/beast_fmri_test/images/P.png'></img>	89,71	2750.0	test	<img class = center src='/static/experiments/beast_fmri_test/images/redP.png'></img>	stop	2400.0	3.0	36.0	stop	non-target	P	89,Middle Finger	71,Index Finger	650.0	350.0	2100.0	2400.0	0.0	350.0	n/a	0.0	ITI
172197	500	n/a	-1	-1	500	0.0	fixation	poldrack-single-stim	473	1295456	0.0-19.37-0.37	beast_fmri_test	275	1295233,/	t	<div class = centerbox2><div class = fixation>+</div></div>	none	500.0	test	n/a	n/a	n/a	n/a	n/a	n/a	n/a	n/a	n/a	n/a	n/a	n/a	n/a	n/a	n/a	n/a	n/a	n/a	fixation
171085.66462025745	650.0	n/a	-1	-1	2750	1109.33537974	stim	stop-signal	474	1298204	0.0-19.37-1.37	beast_fmri_test	275	1295915,/,1296595,/,1297272,/,1297949,/,1298628,/,1299308,/	t,t,t,t,t,t	<img class = center src='/static/experiments/beast_fmri_test/images/B.png'></img>	89,71	2750.0	test	<img class = center src='/static/experiments/beast_fmri_test/images/redB.png'></img>	stop	2100.0	3.0	37.0	stop	target	B	89,Middle Finger	71,Index Finger	650.0	300.0	2100.0	2400.0	0.0	650.0	n/a	1.0	go_stim
173185.66462025745	2100.0	n/a	-1	-1	2750	1109.33537974	stim	stop-signal	474	1298204	0.0-19.37-1.37	beast_fmri_test	275	1295915,/,1296595,/,1297272,/,1297949,/,1298628,/,1299308,/	t,t,t,t,t,t	<img class = center src='/static/experiments/beast_fmri_test/images/B.png'></img>	89,71	2750.0	test	<img class = center src='/static/experiments/beast_fmri_test/images/redB.png'></img>	stop	2100.0	3.0	37.0	stop	target	B	89,Middle Finger	71,Index Finger	650.0	300.0	2100.0	2400.0	0.0	650.0	n/a	1.0	stop_stim
173835.66462025745	1109.335379742442	n/a	-1	-1	2750	1109.33537974	stim	stop-signal	474	1298204	0.0-19.37-1.37	beast_fmri_test	275	1295915,/,1296595,/,1297272,/,1297949,/,1298628,/,1299308,/	t,t,t,t,t,t	<img class = center src='/static/experiments/beast_fmri_test/images/B.png'></img>	89,71	2750.0	test	<img class = center src='/static/experiments/beast_fmri_test/images/redB.png'></img>	stop	2100.0	3.0	37.0	stop	target	B	89,Middle Finger	71,Index Finger	650.0	300.0	2100.0	2400.0	0.0	650.0	n/a	1.0	ITI
176601	500	n/a	-1	-1	500	0.0	fixation	poldrack-single-stim	475	1299860	0.0-19.38-0.38	beast_fmri_test	275	n/a	n/a	<div class = centerbox2><div class = fixation>+</div></div>	none	500.0	test	n/a	n/a	n/a	n/a	n/a	n/a	n/a	n/a	n/a	n/a	n/a	n/a	n/a	n/a	n/a	n/a	n/a	n/a	fixation
176573.58829865069	2750	n/a	1027	89	2750	30.4117013493	stim	stop-signal	476	1302613	0.0-19.38-1.38	beast_fmri_test	275	1299988,/,1300670,/,1301348,/,1302030,/	t,t,t,t	<img class = center src='/static/experiments/beast_fmri_test/images/T.png'></img>	89,71	2750.0	test	<img class = center src='/static/experiments/beast_fmri_test/images/redT.png'></img>	go	2050.0	3.0	38.0	go	target	T	89,Middle Finger	71,Index Finger	700.0	300.0	2050.0	2400.0	1.0	700.0	1.0	n/a	go_stim
179323.58829865069	30.411701349346018	n/a	1027	89	2750	30.4117013493	stim	stop-signal	476	1302613	0.0-19.38-1.38	beast_fmri_test	275	1299988,/,1300670,/,1301348,/,1302030,/	t,t,t,t	<img class = center src='/static/experiments/beast_fmri_test/images/T.png'></img>	89,71	2750.0	test	<img class = center src='/static/experiments/beast_fmri_test/images/redT.png'></img>	go	2050.0	3.0	38.0	go	target	T	89,Middle Finger	71,Index Finger	700.0	300.0	2050.0	2400.0	1.0	700.0	1.0	n/a	ITI
179941	500	n/a	-1	-1	500	0.0	fixation	poldrack-single-stim	477	1303200	0.0-19.39-0.39	beast_fmri_test	275	1302710,/	t	<div class = centerbox2><div class = fixation>+</div></div>	none	500.0	test	n/a	n/a	n/a	n/a	n/a	n/a	n/a	n/a	n/a	n/a	n/a	n/a	n/a	n/a	n/a	n/a	n/a	n/a	fixation
178865.13011111598	2750	n/a	505	71	2750	1077.86988888	stim	stop-signal	478	1305952	0.0-19.39-1.39	beast_fmri_test	275	1303389,/,1304071,/,1304750,/,1305429,/,1306110,/,1306789,/	t,t,t,t,t,t	<img class = center src='/static/experiments/beast_fmri_test/images/D.png'></img>	89,71	2750.0	test	<img class = center src='/static/experiments/beast_fmri_test/images/redD.png'></img>	go	2450.0	3.0	39.0	go	non-target	D	89,Middle Finger	71,Index Finger	700.0	300.0	2050.0	2450.0	1.0	300.0	1.0	n/a	go_stim
181615.13011111598	1077.8698888839117	n/a	505	71	2750	1077.86988888	stim	stop-signal	478	1305952	0.0-19.39-1.39	beast_fmri_test	275	1303389,/,1304071,/,1304750,/,1305429,/,1306110,/,1306789,/	t,t,t,t,t,t	<img class = center src='/static/experiments/beast_fmri_test/images/D.png'></img>	89,71	2750.0	test	<img class = center src='/static/experiments/beast_fmri_test/images/redD.png'></img>	go	2450.0	3.0	39.0	go	non-target	D	89,Middle Finger	71,Index Finger	700.0	300.0	2050.0	2450.0	1.0	300.0	1.0	n/a	ITI
184317	500	n/a	-1	-1	500	0.0	fixation	poldrack-single-stim	479	1307576	0.0-19.40-0.40	beast_fmri_test	275	1307467,/	t	<div class = centerbox2><div class = fixation>+</div></div>	none	500.0	test	n/a	n/a	n/a	n/a	n/a	n/a	n/a	n/a	n/a	n/a	n/a	n/a	n/a	n/a	n/a	n/a	n/a	n/a	fixation
182206.59391875938	2750	n/a	1047	71	2750	2109.40608124	stim	stop-signal	480	1310325	0.0-19.40-1.40	beast_fmri_test	275	1308144,/,1308824,/,1309505,/,1310185,/,1310865,/,1311545,/,1312224,/	t,t,t,t,t,t,t	<img class = center src='/static/experiments/beast_fmri_test/images/B.png'></img>	89,71	2750.0	test	<img class = center src='/static/experiments/beast_fmri_test/images/redB.png'></img>	go	2050.0	3.0	40.0	go	target	B	89,Middle Finger	71,Index Finger	700.0	300.0	2050.0	2450.0	0.0	700.0	0.0	n/a	go_stim
184956.59391875938	2109.406081240621	n/a	1047	71	2750	2109.40608124	stim	stop-signal	480	1310325	0.0-19.40-1.40	beast_fmri_test	275	1308144,/,1308824,/,1309505,/,1310185,/,1310865,/,1311545,/,1312224,/	t,t,t,t,t,t,t	<img class = center src='/static/experiments/beast_fmri_test/images/B.png'></img>	89,71	2750.0	test	<img class = center src='/static/experiments/beast_fmri_test/images/redB.png'></img>	go	2050.0	3.0	40.0	go	target	B	89,Middle Finger	71,Index Finger	700.0	300.0	2050.0	2450.0	0.0	700.0	0.0	n/a	ITI
189727	500	n/a	-1	-1	500	0.0	fixation	poldrack-single-stim	481	1312986	0.0-19.41-0.41	beast_fmri_test	275	1312905,/	t	<div class = centerbox2><div class = fixation>+</div></div>	none	500.0	test	n/a	n/a	n/a	n/a	n/a	n/a	n/a	n/a	n/a	n/a	n/a	n/a	n/a	n/a	n/a	n/a	n/a	n/a	fixation
187844.87006439688	2750	n/a	595	71	2750	1886.1299356	stim	stop-signal	482	1315740	0.0-19.41-1.41	beast_fmri_test	275	1313584,/,1314265,/,1314945,/,1315626,/,1316304,/,1316984,/	t,t,t,t,t,t	<img class = center src='/static/experiments/beast_fmri_test/images/P.png'></img>	89,71	2750.0	test	<img class = center src='/static/experiments/beast_fmri_test/images/redP.png'></img>	go	2450.0	3.0	41.0	go	non-target	P	89,Middle Finger	71,Index Finger	700.0	300.0	2050.0	2450.0	1.0	300.0	1.0	n/a	go_stim
190594.87006439688	1886.1299356031659	n/a	595	71	2750	1886.1299356	stim	stop-signal	482	1315740	0.0-19.41-1.41	beast_fmri_test	275	1313584,/,1314265,/,1314945,/,1315626,/,1316304,/,1316984,/	t,t,t,t,t,t	<img class = center src='/static/experiments/beast_fmri_test/images/P.png'></img>	89,71	2750.0	test	<img class = center src='/static/experiments/beast_fmri_test/images/redP.png'></img>	go	2450.0	3.0	41.0	go	non-target	P	89,Middle Finger	71,Index Finger	700.0	300.0	2050.0	2450.0	1.0	300.0	1.0	n/a	ITI
194921	500	n/a	-1	-1	500	0.0	fixation	poldrack-single-stim	483	1318180	0.0-19.42-0.42	beast_fmri_test	275	1317682,/	t	<div class = centerbox2><div class = fixation>+</div></div>	none	500.0	test	n/a	n/a	n/a	n/a	n/a	n/a	n/a	n/a	n/a	n/a	n/a	n/a	n/a	n/a	n/a	n/a	n/a	n/a	fixation
194126.942753718	700.0	n/a	354	89	2750	797.057246282	stim	stop-signal	484	1320933	0.0-19.42-1.42	beast_fmri_test	275	1318341,/,1319020,/,1319699,/,1320380,/,1321059,/	t,t,t,t,t	<img class = center src='/static/experiments/beast_fmri_test/images/D.png'></img>	89,71	2750.0	test	<img class = center src='/static/experiments/beast_fmri_test/images/redD.png'></img>	stop	2050.0	3.0	42.0	stop	target	D	89,Middle Finger	71,Index Finger	700.0	300.0	2050.0	2450.0	0.0	700.0	n/a	0.0	go_stim
196176.942753718	2050.0	n/a	354	89	2750	797.057246282	stim	stop-signal	484	1320933	0.0-19.42-1.42	beast_fmri_test	275	1318341,/,1319020,/,1319699,/,1320380,/,1321059,/	t,t,t,t,t	<img class = center src='/static/experiments/beast_fmri_test/images/D.png'></img>	89,71	2750.0	test	<img class = center src='/static/experiments/beast_fmri_test/images/redD.png'></img>	stop	2050.0	3.0	42.0	stop	target	D	89,Middle Finger	71,Index Finger	700.0	300.0	2050.0	2450.0	0.0	700.0	n/a	0.0	stop_stim
196876.942753718	797.05724628188352	n/a	354	89	2750	797.057246282	stim	stop-signal	484	1320933	0.0-19.42-1.42	beast_fmri_test	275	1318341,/,1319020,/,1319699,/,1320380,/,1321059,/	t,t,t,t,t	<img class = center src='/static/experiments/beast_fmri_test/images/D.png'></img>	89,71	2750.0	test	<img class = center src='/static/experiments/beast_fmri_test/images/redD.png'></img>	stop	2050.0	3.0	42.0	stop	target	D	89,Middle Finger	71,Index Finger	700.0	300.0	2050.0	2450.0	0.0	700.0	n/a	0.0	ITI
199031	500	n/a	-1	-1	500	0.0	fixation	poldrack-single-stim	485	1322290	0.0-19.43-0.43	beast_fmri_test	275	1321787,/	t	<div class = centerbox2><div class = fixation>+</div></div>	none	500.0	test	n/a	n/a	n/a	n/a	n/a	n/a	n/a	n/a	n/a	n/a	n/a	n/a	n/a	n/a	n/a	n/a	n/a	n/a	fixation
198906.02417005436	2750	n/a	493	89	2750	126.975829946	stim	stop-signal	486	1325042	0.0-19.43-1.43	beast_fmri_test	275	1322419,/,1323099,/,1323779,/,1324460,/,1325140,/	t,t,t,t,t	<img class = center src='/static/experiments/beast_fmri_test/images/P.png'></img>	89,71	2750.0	test	<img class = center src='/static/experiments/beast_fmri_test/images/redP.png'></img>	go	2450.0	3.0	43.0	go	non-target	P	89,Middle Finger	71,Index Finger	650.0	300.0	2050.0	2450.0	0.0	300.0	0.0	n/a	go_stim
201656.02417005436	126.97582994558626	n/a	493	89	2750	126.975829946	stim	stop-signal	486	1325042	0.0-19.43-1.43	beast_fmri_test	275	1322419,/,1323099,/,1323779,/,1324460,/,1325140,/	t,t,t,t,t	<img class = center src='/static/experiments/beast_fmri_test/images/P.png'></img>	89,71	2750.0	test	<img class = center src='/static/experiments/beast_fmri_test/images/redP.png'></img>	go	2450.0	3.0	43.0	go	non-target	P	89,Middle Finger	71,Index Finger	650.0	300.0	2050.0	2450.0	0.0	300.0	0.0	n/a	ITI
202465	500	n/a	-1	-1	500	0.0	fixation	poldrack-single-stim	487	1325724	0.0-19.44-0.44	beast_fmri_test	275	n/a	n/a	<div class = centerbox2><div class = fixation>+</div></div>	none	500.0	test	n/a	n/a	n/a	n/a	n/a	n/a	n/a	n/a	n/a	n/a	n/a	n/a	n/a	n/a	n/a	n/a	n/a	n/a	fixation
202348.30733149429	300.0	n/a	-1	-1	2750	114.692668506	stim	stop-signal	488	1328472	0.0-19.44-1.44	beast_fmri_test	275	1325820,/,1326499,/,1327178,/,1327855,/,1328534,/	t,t,t,t,t	<img class = center src='/static/experiments/beast_fmri_test/images/V.png'></img>	89,71	2750.0	test	<img class = center src='/static/experiments/beast_fmri_test/images/redV.png'></img>	stop	2450.0	3.0	44.0	stop	non-target	V	89,Middle Finger	71,Index Finger	650.0	300.0	2050.0	2450.0	0.0	300.0	n/a	1.0	go_stim
204798.30733149429	2450.0	n/a	-1	-1	2750	114.692668506	stim	stop-signal	488	1328472	0.0-19.44-1.44	beast_fmri_test	275	1325820,/,1326499,/,1327178,/,1327855,/,1328534,/	t,t,t,t,t	<img class = center src='/static/experiments/beast_fmri_test/images/V.png'></img>	89,71	2750.0	test	<img class = center src='/static/experiments/beast_fmri_test/images/redV.png'></img>	stop	2450.0	3.0	44.0	stop	non-target	V	89,Middle Finger	71,Index Finger	650.0	300.0	2050.0	2450.0	0.0	300.0	n/a	1.0	stop_stim
205098.30733149429	114.6926685056375	n/a	-1	-1	2750	114.692668506	stim	stop-signal	488	1328472	0.0-19.44-1.44	beast_fmri_test	275	1325820,/,1326499,/,1327178,/,1327855,/,1328534,/	t,t,t,t,t	<img class = center src='/static/experiments/beast_fmri_test/images/V.png'></img>	89,71	2750.0	test	<img class = center src='/static/experiments/beast_fmri_test/images/redV.png'></img>	stop	2450.0	3.0	44.0	stop	non-target	V	89,Middle Finger	71,Index Finger	650.0	300.0	2050.0	2450.0	0.0	300.0	n/a	1.0	ITI
205877	500	n/a	-1	-1	500	0.0	fixation	poldrack-single-stim	489	1329136	0.0-19.45-0.45	beast_fmri_test	275	n/a	n/a	<div class = centerbox2><div class = fixation>+</div></div>	none	500.0	test	n/a	n/a	n/a	n/a	n/a	n/a	n/a	n/a	n/a	n/a	n/a	n/a	n/a	n/a	n/a	n/a	n/a	n/a	fixation
203256.68354393821	350.0	n/a	-1	-1	2750	2622.31645606	stim	stop-signal	490	1331888	0.0-19.45-1.45	beast_fmri_test	275	1329214,/,1329895,/,1330577,/,1331257,/,1331935,/,1332614,/,1333295,/,1333977,/	t,t,t,t,t,t,t,t	<img class = center src='/static/experiments/beast_fmri_test/images/V.png'></img>	89,71	2750.0	test	<img class = center src='/static/experiments/beast_fmri_test/images/redV.png'></img>	stop	2400.0	3.0	45.0	stop	non-target	V	89,Middle Finger	71,Index Finger	650.0	350.0	2050.0	2400.0	0.0	350.0	n/a	1.0	go_stim
205656.68354393821	2400.0	n/a	-1	-1	2750	2622.31645606	stim	stop-signal	490	1331888	0.0-19.45-1.45	beast_fmri_test	275	1329214,/,1329895,/,1330577,/,1331257,/,1331935,/,1332614,/,1333295,/,1333977,/	t,t,t,t,t,t,t,t	<img class = center src='/static/experiments/beast_fmri_test/images/V.png'></img>	89,71	2750.0	test	<img class = center src='/static/experiments/beast_fmri_test/images/redV.png'></img>	stop	2400.0	3.0	45.0	stop	non-target	V	89,Middle Finger	71,Index Finger	650.0	350.0	2050.0	2400.0	0.0	350.0	n/a	1.0	stop_stim
206006.68354393821	2622.3164560618288	n/a	-1	-1	2750	2622.31645606	stim	stop-signal	490	1331888	0.0-19.45-1.45	beast_fmri_test	275	1329214,/,1329895,/,1330577,/,1331257,/,1331935,/,1332614,/,1333295,/,1333977,/	t,t,t,t,t,t,t,t	<img class = center src='/static/experiments/beast_fmri_test/images/V.png'></img>	89,71	2750.0	test	<img class = center src='/static/experiments/beast_fmri_test/images/redV.png'></img>	stop	2400.0	3.0	45.0	stop	non-target	V	89,Middle Finger	71,Index Finger	650.0	350.0	2050.0	2400.0	0.0	350.0	n/a	1.0	ITI
211808	500	n/a	-1	-1	500	0.0	fixation	poldrack-single-stim	491	1335067	0.0-19.46-0.46	beast_fmri_test	275	1334656,/	t	<div class = centerbox2><div class = fixation>+</div></div>	none	500.0	test	n/a	n/a	n/a	n/a	n/a	n/a	n/a	n/a	n/a	n/a	n/a	n/a	n/a	n/a	n/a	n/a	n/a	n/a	fixation
211280.08259238	2750	n/a	442	89	2750	525.91740762	stim	stop-signal	492	1337815	0.0-19.46-1.46	beast_fmri_test	275	1335335,/,1336015,/,1336695,/,1337375,/,1338052,/	t,t,t,t,t	<img class = center src='/static/experiments/beast_fmri_test/images/P.png'></img>	89,71	2750.0	test	<img class = center src='/static/experiments/beast_fmri_test/images/redP.png'></img>	go	2100.0	3.0	46.0	go	target	P	89,Middle Finger	71,Index Finger	650.0	400.0	2100.0	2400.0	1.0	650.0	1.0	n/a	go_stim
214030.08259238	525.91740761992037	n/a	442	89	2750	525.91740762	stim	stop-signal	492	1337815	0.0-19.46-1.46	beast_fmri_test	275	1335335,/,1336015,/,1336695,/,1337375,/,1338052,/	t,t,t,t,t	<img class = center src='/static/experiments/beast_fmri_test/images/P.png'></img>	89,71	2750.0	test	<img class = center src='/static/experiments/beast_fmri_test/images/redP.png'></img>	go	2100.0	3.0	46.0	go	target	P	89,Middle Finger	71,Index Finger	650.0	400.0	2100.0	2400.0	1.0	650.0	1.0	n/a	ITI
215634	500	n/a	-1	-1	500	0.0	fixation	poldrack-single-stim	493	1338893	0.0-19.47-0.47	beast_fmri_test	275	1338730,/	t	<div class = centerbox2><div class = fixation>+</div></div>	none	500.0	test	n/a	n/a	n/a	n/a	n/a	n/a	n/a	n/a	n/a	n/a	n/a	n/a	n/a	n/a	n/a	n/a	n/a	n/a	fixation
214450.99397956952	2750	n/a	569	71	2750	1185.00602043	stim	stop-signal	494	1341645	0.0-19.47-1.47	beast_fmri_test	275	1339411,/,1340091,/,1340770,/,1341450,/,1342130,/,1342812,/	t,t,t,t,t,t	<img class = center src='/static/experiments/beast_fmri_test/images/D.png'></img>	89,71	2750.0	test	<img class = center src='/static/experiments/beast_fmri_test/images/redD.png'></img>	go	2350.0	3.0	47.0	go	non-target	D	89,Middle Finger	71,Index Finger	650.0	400.0	2100.0	2350.0	1.0	400.0	1.0	n/a	go_stim
217200.99397956952	1185.0060204304571	n/a	569	71	2750	1185.00602043	stim	stop-signal	494	1341645	0.0-19.47-1.47	beast_fmri_test	275	1339411,/,1340091,/,1340770,/,1341450,/,1342130,/,1342812,/	t,t,t,t,t,t	<img class = center src='/static/experiments/beast_fmri_test/images/D.png'></img>	89,71	2750.0	test	<img class = center src='/static/experiments/beast_fmri_test/images/redD.png'></img>	go	2350.0	3.0	47.0	go	non-target	D	89,Middle Finger	71,Index Finger	650.0	400.0	2100.0	2350.0	1.0	400.0	1.0	n/a	ITI
234623	15000	n/a	-1	-1	15000	0.0	practice-no-stop-feedback	poldrack-single-stim	495	1357882	0.0-20.0	beast_fmri_test	275	1343490,/,1344171,/,1344851,/,1345530,/,1346210,/,1346890,/,1347570,/,1348252,/,1348931,/,1349611,/,1350290,/,1350970,/,1351652,/,1352331,/,1353011,/,1353690,/,1354371,/,1355050,/,1355730,/,1356410,/,1357090,/,1357767,/	t,t,t,t,t,t,t,t,t,t,t,t,t,t,t,t,t,t,t,t,t,t	"<div class = ""centerbox""><p class = ""block-text"">Your delay is 3 trials.</p><p class = block-text>Please wait for the scanner to start the block</p></div>"	77	15000.0	n/a	n/a	n/a	n/a	n/a	n/a	n/a	n/a	n/a	n/a	n/a	n/a	n/a	n/a	n/a	n/a	n/a	n/a	n/a	practice-no-stop-feedback
235124	500	n/a	-1	-1	500	0.0	fixation	poldrack-single-stim	496	1358383	0.0-21.0-0.0	beast_fmri_test	275	n/a	n/a	<div class = centerbox2><div class = fixation>+</div></div>	none	500.0	test	n/a	n/a	n/a	n/a	n/a	n/a	n/a	n/a	n/a	n/a	n/a	n/a	n/a	n/a	n/a	n/a	n/a	n/a	fixation
233264.62361702812	temp_go_duration	n/a	797	71	2750	1862.37638297	stim	stop-signal	497	1361136	0.0-21.0-1.0	beast_fmri_test	275	1358446,/,1359126,/,1359806,/,1360486,/,1361166,/,1361846,/,1362528,/	t,t,t,t,t,t,t	<img class = center src='/static/experiments/beast_fmri_test/images/D.png'></img>	89,71	2750.0	test	<img class = center src='/static/experiments/beast_fmri_test/images/redD.png'></img>	stop	-1.0	3.0	0.0	stop	temp-non-target	D	89,Middle Finger	71,Index Finger	650.0	400.0	2100.0	2350.0	0.0	n/a	n/a	0.0	go_stim
temp-non-target	temp_stop_duration	n/a	797	71	2750	1862.37638297	stim	stop-signal	497	1361136	0.0-21.0-1.0	beast_fmri_test	275	1358446,/,1359126,/,1359806,/,1360486,/,1361166,/,1361846,/,1362528,/	t,t,t,t,t,t,t	<img class = center src='/static/experiments/beast_fmri_test/images/D.png'></img>	89,71	2750.0	test	<img class = center src='/static/experiments/beast_fmri_test/images/redD.png'></img>	stop	-1.0	3.0	0.0	stop	temp-non-target	D	89,Middle Finger	71,Index Finger	650.0	400.0	2100.0	2350.0	0.0	n/a	n/a	0.0	stop_stim
236014.62361702812	1862.3763829717871	n/a	797	71	2750	1862.37638297	stim	stop-signal	497	1361136	0.0-21.0-1.0	beast_fmri_test	275	1358446,/,1359126,/,1359806,/,1360486,/,1361166,/,1361846,/,1362528,/	t,t,t,t,t,t,t	<img class = center src='/static/experiments/beast_fmri_test/images/D.png'></img>	89,71	2750.0	test	<img class = center src='/static/experiments/beast_fmri_test/images/redD.png'></img>	stop	-1.0	3.0	0.0	stop	temp-non-target	D	89,Middle Finger	71,Index Finger	650.0	400.0	2100.0	2350.0	0.0	n/a	n/a	0.0	ITI
240291	500	n/a	-1	-1	500	0.0	fixation	poldrack-single-stim	498	1363550	0.0-21.1-0.1	beast_fmri_test	275	1363207,/	t	<div class = centerbox2><div class = fixation>+</div></div>	none	500.0	test	n/a	n/a	n/a	n/a	n/a	n/a	n/a	n/a	n/a	n/a	n/a	n/a	n/a	n/a	n/a	n/a	n/a	n/a	fixation
239241.67737471312	temp_go_duration	n/a	461	71	2750	1052.32262529	stim	stop-signal	499	1366303	0.0-21.1-1.1	beast_fmri_test	275	1363887,/,1364566,/,1365246,/,1365927,/,1366606,/,1367285,/	t,t,t,t,t,t	<img class = center src='/static/experiments/beast_fmri_test/images/V.png'></img>	89,71	2750.0	test	<img class = center src='/static/experiments/beast_fmri_test/images/redV.png'></img>	stop	-1.0	3.0	1.0	stop	temp-non-target	V	89,Middle Finger	71,Index Finger	650.0	400.0	2100.0	2350.0	0.0	n/a	n/a	0.0	go_stim
temp-non-target	temp_stop_duration	n/a	461	71	2750	1052.32262529	stim	stop-signal	499	1366303	0.0-21.1-1.1	beast_fmri_test	275	1363887,/,1364566,/,1365246,/,1365927,/,1366606,/,1367285,/	t,t,t,t,t,t	<img class = center src='/static/experiments/beast_fmri_test/images/V.png'></img>	89,71	2750.0	test	<img class = center src='/static/experiments/beast_fmri_test/images/redV.png'></img>	stop	-1.0	3.0	1.0	stop	temp-non-target	V	89,Middle Finger	71,Index Finger	650.0	400.0	2100.0	2350.0	0.0	n/a	n/a	0.0	stop_stim
241991.67737471312	1052.3226252868512	n/a	461	71	2750	1052.32262529	stim	stop-signal	499	1366303	0.0-21.1-1.1	beast_fmri_test	275	1363887,/,1364566,/,1365246,/,1365927,/,1366606,/,1367285,/	t,t,t,t,t,t	<img class = center src='/static/experiments/beast_fmri_test/images/V.png'></img>	89,71	2750.0	test	<img class = center src='/static/experiments/beast_fmri_test/images/redV.png'></img>	stop	-1.0	3.0	1.0	stop	temp-non-target	V	89,Middle Finger	71,Index Finger	650.0	400.0	2100.0	2350.0	0.0	n/a	n/a	0.0	ITI
244654	500	n/a	-1	-1	500	0.0	fixation	poldrack-single-stim	500	1367913	0.0-21.2-0.2	beast_fmri_test	275	n/a	n/a	<div class = centerbox2><div class = fixation>+</div></div>	none	500.0	test	n/a	n/a	n/a	n/a	n/a	n/a	n/a	n/a	n/a	n/a	n/a	n/a	n/a	n/a	n/a	n/a	n/a	n/a	fixation
244614.80774012418	temp_go_duration	n/a	415	71	2750	40.1922598759	stim	stop-signal	501	1370664	0.0-21.2-1.2	beast_fmri_test	275	1367967,/,1368641,/,1369321,/,1370001,/,1370681,/	t,t,t,t,t	<img class = center src='/static/experiments/beast_fmri_test/images/T.png'></img>	89,71	2750.0	test	<img class = center src='/static/experiments/beast_fmri_test/images/redT.png'></img>	stop	-1.0	3.0	2.0	stop	temp-non-target	T	89,Middle Finger	71,Index Finger	650.0	400.0	2100.0	2350.0	0.0	n/a	n/a	0.0	go_stim
temp-non-target	temp_stop_duration	n/a	415	71	2750	40.1922598759	stim	stop-signal	501	1370664	0.0-21.2-1.2	beast_fmri_test	275	1367967,/,1368641,/,1369321,/,1370001,/,1370681,/	t,t,t,t,t	<img class = center src='/static/experiments/beast_fmri_test/images/T.png'></img>	89,71	2750.0	test	<img class = center src='/static/experiments/beast_fmri_test/images/redT.png'></img>	stop	-1.0	3.0	2.0	stop	temp-non-target	T	89,Middle Finger	71,Index Finger	650.0	400.0	2100.0	2350.0	0.0	n/a	n/a	0.0	stop_stim
247364.80774012418	40.19225987586745	n/a	415	71	2750	40.1922598759	stim	stop-signal	501	1370664	0.0-21.2-1.2	beast_fmri_test	275	1367967,/,1368641,/,1369321,/,1370001,/,1370681,/	t,t,t,t,t	<img class = center src='/static/experiments/beast_fmri_test/images/T.png'></img>	89,71	2750.0	test	<img class = center src='/static/experiments/beast_fmri_test/images/redT.png'></img>	stop	-1.0	3.0	2.0	stop	temp-non-target	T	89,Middle Finger	71,Index Finger	650.0	400.0	2100.0	2350.0	0.0	n/a	n/a	0.0	ITI
247994	500	n/a	-1	-1	500	0.0	fixation	poldrack-single-stim	502	1371253	0.0-21.3-0.3	beast_fmri_test	275	n/a	n/a	<div class = centerbox2><div class = fixation>+</div></div>	none	500.0	test	n/a	n/a	n/a	n/a	n/a	n/a	n/a	n/a	n/a	n/a	n/a	n/a	n/a	n/a	n/a	n/a	n/a	n/a	fixation
247821.85484059644	2750	n/a	356	89	2750	175.145159403	stim	stop-signal	503	1374006	0.0-21.3-1.3	beast_fmri_test	275	1371361,/,1372042,/,1372722,/,1373401,/,1374081,/	t,t,t,t,t	<img class = center src='/static/experiments/beast_fmri_test/images/D.png'></img>	89,71	2750.0	test	<img class = center src='/static/experiments/beast_fmri_test/images/redD.png'></img>	go	2100.0	3.0	3.0	go	target	D	89,Middle Finger	71,Index Finger	650.0	400.0	2100.0	2350.0	1.0	650.0	1.0	n/a	go_stim
250571.85484059644	175.14515940347482	n/a	356	89	2750	175.145159403	stim	stop-signal	503	1374006	0.0-21.3-1.3	beast_fmri_test	275	1371361,/,1372042,/,1372722,/,1373401,/,1374081,/	t,t,t,t,t	<img class = center src='/static/experiments/beast_fmri_test/images/D.png'></img>	89,71	2750.0	test	<img class = center src='/static/experiments/beast_fmri_test/images/redD.png'></img>	go	2100.0	3.0	3.0	go	target	D	89,Middle Finger	71,Index Finger	650.0	400.0	2100.0	2350.0	1.0	650.0	1.0	n/a	ITI
251475	500	n/a	-1	-1	500	0.0	fixation	poldrack-single-stim	504	1374734	0.0-21.4-0.4	beast_fmri_test	275	n/a	n/a	<div class = centerbox2><div class = fixation>+</div></div>	none	500.0	test	n/a	n/a	n/a	n/a	n/a	n/a	n/a	n/a	n/a	n/a	n/a	n/a	n/a	n/a	n/a	n/a	n/a	n/a	fixation
250748.83068514988	2750	n/a	601	71	2750	726.16931485	stim	stop-signal	505	1377484	0.0-21.4-1.4	beast_fmri_test	275	1374764,/,1375441,/,1376123,/,1376802,/,1377480,/,1378156,/	t,t,t,t,t,t	<img class = center src='/static/experiments/beast_fmri_test/images/B.png'></img>	89,71	2750.0	test	<img class = center src='/static/experiments/beast_fmri_test/images/redB.png'></img>	go	2350.0	3.0	4.0	go	non-target	B	89,Middle Finger	71,Index Finger	650.0	400.0	2100.0	2350.0	1.0	400.0	1.0	n/a	go_stim
253498.83068514988	726.1693148502078	n/a	601	71	2750	726.16931485	stim	stop-signal	505	1377484	0.0-21.4-1.4	beast_fmri_test	275	1374764,/,1375441,/,1376123,/,1376802,/,1377480,/,1378156,/	t,t,t,t,t,t	<img class = center src='/static/experiments/beast_fmri_test/images/B.png'></img>	89,71	2750.0	test	<img class = center src='/static/experiments/beast_fmri_test/images/redB.png'></img>	go	2350.0	3.0	4.0	go	non-target	B	89,Middle Finger	71,Index Finger	650.0	400.0	2100.0	2350.0	1.0	400.0	1.0	n/a	ITI
255506	500	n/a	-1	-1	500	0.0	fixation	poldrack-single-stim	506	1378765	0.0-21.5-0.5	beast_fmri_test	275	n/a	n/a	<div class = centerbox2><div class = fixation>+</div></div>	none	500.0	test	n/a	n/a	n/a	n/a	n/a	n/a	n/a	n/a	n/a	n/a	n/a	n/a	n/a	n/a	n/a	n/a	n/a	n/a	fixation
253009.6860071104	2750	n/a	413	89	2750	2499.31399289	stim	stop-signal	507	1381518	0.0-21.5-1.5	beast_fmri_test	275	1378836,/,1379518,/,1380196,/,1380877,/,1381556,/,1382238,/,1382916,/,1383597,/	t,t,t,t,t,t,t,t	<img class = center src='/static/experiments/beast_fmri_test/images/T.png'></img>	89,71	2750.0	test	<img class = center src='/static/experiments/beast_fmri_test/images/redT.png'></img>	go	2100.0	3.0	5.0	go	target	T	89,Middle Finger	71,Index Finger	650.0	400.0	2100.0	2350.0	1.0	650.0	1.0	n/a	go_stim
255759.6860071104	2499.3139928896721	n/a	413	89	2750	2499.31399289	stim	stop-signal	507	1381518	0.0-21.5-1.5	beast_fmri_test	275	1378836,/,1379518,/,1380196,/,1380877,/,1381556,/,1382238,/,1382916,/,1383597,/	t,t,t,t,t,t,t,t	<img class = center src='/static/experiments/beast_fmri_test/images/T.png'></img>	89,71	2750.0	test	<img class = center src='/static/experiments/beast_fmri_test/images/redT.png'></img>	go	2100.0	3.0	5.0	go	target	T	89,Middle Finger	71,Index Finger	650.0	400.0	2100.0	2350.0	1.0	650.0	1.0	n/a	ITI
261312	500	n/a	-1	-1	500	0.0	fixation	poldrack-single-stim	508	1384571	0.0-21.6-0.6	beast_fmri_test	275	1384276,/	t	<div class = centerbox2><div class = fixation>+</div></div>	none	500.0	test	n/a	n/a	n/a	n/a	n/a	n/a	n/a	n/a	n/a	n/a	n/a	n/a	n/a	n/a	n/a	n/a	n/a	n/a	fixation
260713.18372454331	400.0	n/a	544	71	2750	600.816275457	stim	stop-signal	509	1387323	0.0-21.6-1.6	beast_fmri_test	275	1384958,/,1385636,/,1386317,/,1386997,/,1387673,/	t,t,t,t,t	<img class = center src='/static/experiments/beast_fmri_test/images/V.png'></img>	89,71	2750.0	test	<img class = center src='/static/experiments/beast_fmri_test/images/redV.png'></img>	stop	2350.0	3.0	6.0	stop	non-target	V	89,Middle Finger	71,Index Finger	650.0	400.0	2100.0	2350.0	0.0	400.0	n/a	0.0	go_stim
263063.18372454331	2350.0	n/a	544	71	2750	600.816275457	stim	stop-signal	509	1387323	0.0-21.6-1.6	beast_fmri_test	275	1384958,/,1385636,/,1386317,/,1386997,/,1387673,/	t,t,t,t,t	<img class = center src='/static/experiments/beast_fmri_test/images/V.png'></img>	89,71	2750.0	test	<img class = center src='/static/experiments/beast_fmri_test/images/redV.png'></img>	stop	2350.0	3.0	6.0	stop	non-target	V	89,Middle Finger	71,Index Finger	650.0	400.0	2100.0	2350.0	0.0	400.0	n/a	0.0	stop_stim
263463.18372454331	600.81627545677668	n/a	544	71	2750	600.816275457	stim	stop-signal	509	1387323	0.0-21.6-1.6	beast_fmri_test	275	1384958,/,1385636,/,1386317,/,1386997,/,1387673,/	t,t,t,t,t	<img class = center src='/static/experiments/beast_fmri_test/images/V.png'></img>	89,71	2750.0	test	<img class = center src='/static/experiments/beast_fmri_test/images/redV.png'></img>	stop	2350.0	3.0	6.0	stop	non-target	V	89,Middle Finger	71,Index Finger	650.0	400.0	2100.0	2350.0	0.0	400.0	n/a	0.0	ITI
265214	500	n/a	-1	-1	500	0.0	fixation	poldrack-single-stim	510	1388473	0.0-21.7-0.7	beast_fmri_test	275	1388352,/	t	<div class = centerbox2><div class = fixation>+</div></div>	none	500.0	test	n/a	n/a	n/a	n/a	n/a	n/a	n/a	n/a	n/a	n/a	n/a	n/a	n/a	n/a	n/a	n/a	n/a	n/a	fixation
264825.34022003971	2750	n/a	612	71	2750	391.65977996	stim	stop-signal	511	1391226	0.0-21.7-1.7	beast_fmri_test	275	1389034,/,1389714,/,1390392,/,1391072,/	t,t,t,t	<img class = center src='/static/experiments/beast_fmri_test/images/D.png'></img>	89,71	2750.0	test	<img class = center src='/static/experiments/beast_fmri_test/images/redD.png'></img>	go	2400.0	3.0	7.0	go	non-target	D	89,Middle Finger	71,Index Finger	650.0	350.0	2100.0	2400.0	1.0	350.0	1.0	n/a	go_stim
267575.34022003971	391.65977996034064	n/a	612	71	2750	391.65977996	stim	stop-signal	511	1391226	0.0-21.7-1.7	beast_fmri_test	275	1389034,/,1389714,/,1390392,/,1391072,/	t,t,t,t	<img class = center src='/static/experiments/beast_fmri_test/images/D.png'></img>	89,71	2750.0	test	<img class = center src='/static/experiments/beast_fmri_test/images/redD.png'></img>	go	2400.0	3.0	7.0	go	non-target	D	89,Middle Finger	71,Index Finger	650.0	350.0	2100.0	2400.0	1.0	350.0	1.0	n/a	ITI
268915	500	n/a	-1	-1	500	0.0	fixation	poldrack-single-stim	512	1392174	0.0-21.8-0.8	beast_fmri_test	275	1391752,/	t	<div class = centerbox2><div class = fixation>+</div></div>	none	500.0	test	n/a	n/a	n/a	n/a	n/a	n/a	n/a	n/a	n/a	n/a	n/a	n/a	n/a	n/a	n/a	n/a	n/a	n/a	fixation
267793.41273018112	2750	n/a	350	89	2750	1123.58726982	stim	stop-signal	513	1394926	0.0-21.8-1.8	beast_fmri_test	275	1392432,/,1393112,/,1393792,/,1394472,/,1395154,/,1395834,/	t,t,t,t,t,t	<img class = center src='/static/experiments/beast_fmri_test/images/T.png'></img>	89,71	2750.0	test	<img class = center src='/static/experiments/beast_fmri_test/images/redT.png'></img>	go	2100.0	3.0	8.0	go	target	T	89,Middle Finger	71,Index Finger	650.0	350.0	2100.0	2400.0	1.0	650.0	1.0	n/a	go_stim
270543.41273018112	1123.5872698188166	n/a	350	89	2750	1123.58726982	stim	stop-signal	513	1394926	0.0-21.8-1.8	beast_fmri_test	275	1392432,/,1393112,/,1393792,/,1394472,/,1395154,/,1395834,/	t,t,t,t,t,t	<img class = center src='/static/experiments/beast_fmri_test/images/T.png'></img>	89,71	2750.0	test	<img class = center src='/static/experiments/beast_fmri_test/images/redT.png'></img>	go	2100.0	3.0	8.0	go	target	T	89,Middle Finger	71,Index Finger	650.0	350.0	2100.0	2400.0	1.0	650.0	1.0	n/a	ITI
273347	500	n/a	-1	-1	500	0.0	fixation	poldrack-single-stim	514	1396606	0.0-21.9-0.9	beast_fmri_test	275	1396512,/	t	<div class = centerbox2><div class = fixation>+</div></div>	none	500.0	test	n/a	n/a	n/a	n/a	n/a	n/a	n/a	n/a	n/a	n/a	n/a	n/a	n/a	n/a	n/a	n/a	n/a	n/a	fixation
273052.59697975498	2750	n/a	437	71	2750	293.403020245	stim	stop-signal	515	1399355	0.0-21.9-1.9	beast_fmri_test	275	1397191,/,1397868,/,1398547,/,1399228,/	t,t,t,t	<img class = center src='/static/experiments/beast_fmri_test/images/D.png'></img>	89,71	2750.0	test	<img class = center src='/static/experiments/beast_fmri_test/images/redD.png'></img>	go	2400.0	3.0	9.0	go	non-target	D	89,Middle Finger	71,Index Finger	650.0	350.0	2100.0	2400.0	1.0	350.0	1.0	n/a	go_stim
275802.59697975498	293.40302024494883	n/a	437	71	2750	293.403020245	stim	stop-signal	515	1399355	0.0-21.9-1.9	beast_fmri_test	275	1397191,/,1397868,/,1398547,/,1399228,/	t,t,t,t	<img class = center src='/static/experiments/beast_fmri_test/images/D.png'></img>	89,71	2750.0	test	<img class = center src='/static/experiments/beast_fmri_test/images/redD.png'></img>	go	2400.0	3.0	9.0	go	non-target	D	89,Middle Finger	71,Index Finger	650.0	350.0	2100.0	2400.0	1.0	350.0	1.0	n/a	ITI
276944	500	n/a	-1	-1	500	0.0	fixation	poldrack-single-stim	516	1400203	0.0-21.10-0.10	beast_fmri_test	275	1399908,/	t	<div class = centerbox2><div class = fixation>+</div></div>	none	500.0	test	n/a	n/a	n/a	n/a	n/a	n/a	n/a	n/a	n/a	n/a	n/a	n/a	n/a	n/a	n/a	n/a	n/a	n/a	fixation
276925.01510351873	2750	n/a	524	71	2750	20.9848964813	stim	stop-signal	517	1402955	0.0-21.10-1.10	beast_fmri_test	275	1400587,/,1401267,/,1401948,/,1402628,/	t,t,t,t	<img class = center src='/static/experiments/beast_fmri_test/images/P.png'></img>	89,71	2750.0	test	<img class = center src='/static/experiments/beast_fmri_test/images/redP.png'></img>	go	2400.0	3.0	10.0	go	non-target	P	89,Middle Finger	71,Index Finger	650.0	350.0	2100.0	2400.0	1.0	350.0	1.0	n/a	go_stim
279675.01510351873	20.984896481281769	n/a	524	71	2750	20.9848964813	stim	stop-signal	517	1402955	0.0-21.10-1.10	beast_fmri_test	275	1400587,/,1401267,/,1401948,/,1402628,/	t,t,t,t	<img class = center src='/static/experiments/beast_fmri_test/images/P.png'></img>	89,71	2750.0	test	<img class = center src='/static/experiments/beast_fmri_test/images/redP.png'></img>	go	2400.0	3.0	10.0	go	non-target	P	89,Middle Finger	71,Index Finger	650.0	350.0	2100.0	2400.0	1.0	350.0	1.0	n/a	ITI
280271	500	n/a	-1	-1	500	0.0	fixation	poldrack-single-stim	518	1403530	0.0-21.11-0.11	beast_fmri_test	275	1403307,/	t	<div class = centerbox2><div class = fixation>+</div></div>	none	500.0	test	n/a	n/a	n/a	n/a	n/a	n/a	n/a	n/a	n/a	n/a	n/a	n/a	n/a	n/a	n/a	n/a	n/a	n/a	fixation
279889.04235994583	2750	n/a	482	89	2750	383.957640054	stim	stop-signal	519	1406282	0.0-21.11-1.11	beast_fmri_test	275	1403988,/,1404668,/,1405348,/,1406027,/	t,t,t,t	<img class = center src='/static/experiments/beast_fmri_test/images/T.png'></img>	89,71	2750.0	test	<img class = center src='/static/experiments/beast_fmri_test/images/redT.png'></img>	go	2100.0	3.0	11.0	go	target	T	89,Middle Finger	71,Index Finger	650.0	350.0	2100.0	2400.0	1.0	650.0	1.0	n/a	go_stim
282639.04235994583	383.95764005421768	n/a	482	89	2750	383.957640054	stim	stop-signal	519	1406282	0.0-21.11-1.11	beast_fmri_test	275	1403988,/,1404668,/,1405348,/,1406027,/	t,t,t,t	<img class = center src='/static/experiments/beast_fmri_test/images/T.png'></img>	89,71	2750.0	test	<img class = center src='/static/experiments/beast_fmri_test/images/redT.png'></img>	go	2100.0	3.0	11.0	go	target	T	89,Middle Finger	71,Index Finger	650.0	350.0	2100.0	2400.0	1.0	650.0	1.0	n/a	ITI
283960	500	n/a	-1	-1	500	0.0	fixation	poldrack-single-stim	520	1407219	0.0-21.12-0.12	beast_fmri_test	275	1406718,/	t	<div class = centerbox2><div class = fixation>+</div></div>	none	500.0	test	n/a	n/a	n/a	n/a	n/a	n/a	n/a	n/a	n/a	n/a	n/a	n/a	n/a	n/a	n/a	n/a	n/a	n/a	fixation
282768.48148117773	350.0	n/a	560	71	2750	1193.51851882	stim	stop-signal	521	1409971	0.0-21.12-1.12	beast_fmri_test	275	1407387,/,1408067,/,1408747,/,1409428,/,1410108,/,1410788,/	t,t,t,t,t,t	<img class = center src='/static/experiments/beast_fmri_test/images/P.png'></img>	89,71	2750.0	test	<img class = center src='/static/experiments/beast_fmri_test/images/redP.png'></img>	stop	2400.0	3.0	12.0	stop	non-target	P	89,Middle Finger	71,Index Finger	650.0	350.0	2100.0	2400.0	0.0	350.0	n/a	0.0	go_stim
285168.48148117773	2400.0	n/a	560	71	2750	1193.51851882	stim	stop-signal	521	1409971	0.0-21.12-1.12	beast_fmri_test	275	1407387,/,1408067,/,1408747,/,1409428,/,1410108,/,1410788,/	t,t,t,t,t,t	<img class = center src='/static/experiments/beast_fmri_test/images/P.png'></img>	89,71	2750.0	test	<img class = center src='/static/experiments/beast_fmri_test/images/redP.png'></img>	stop	2400.0	3.0	12.0	stop	non-target	P	89,Middle Finger	71,Index Finger	650.0	350.0	2100.0	2400.0	0.0	350.0	n/a	0.0	stop_stim
285518.48148117773	1193.5185188223179	n/a	560	71	2750	1193.51851882	stim	stop-signal	521	1409971	0.0-21.12-1.12	beast_fmri_test	275	1407387,/,1408067,/,1408747,/,1409428,/,1410108,/,1410788,/	t,t,t,t,t,t	<img class = center src='/static/experiments/beast_fmri_test/images/P.png'></img>	89,71	2750.0	test	<img class = center src='/static/experiments/beast_fmri_test/images/redP.png'></img>	stop	2400.0	3.0	12.0	stop	non-target	P	89,Middle Finger	71,Index Finger	650.0	350.0	2100.0	2400.0	0.0	350.0	n/a	0.0	ITI
288461	500	n/a	-1	-1	500	0.0	fixation	poldrack-single-stim	522	1411720	0.0-21.13-0.13	beast_fmri_test	275	1411467,/	t	<div class = centerbox2><div class = fixation>+</div></div>	none	500.0	test	n/a	n/a	n/a	n/a	n/a	n/a	n/a	n/a	n/a	n/a	n/a	n/a	n/a	n/a	n/a	n/a	n/a	n/a	fixation
287562.5218366303	2750	n/a	420	71	2750	901.47816337	stim	stop-signal	523	1414473	0.0-21.13-1.13	beast_fmri_test	275	1412147,/,1412827,/,1413507,/,1414188,/,1414868,/	t,t,t,t,t	<img class = center src='/static/experiments/beast_fmri_test/images/D.png'></img>	89,71	2750.0	test	<img class = center src='/static/experiments/beast_fmri_test/images/redD.png'></img>	go	2450.0	3.0	13.0	go	non-target	D	89,Middle Finger	71,Index Finger	650.0	300.0	2100.0	2450.0	1.0	300.0	1.0	n/a	go_stim
290312.5218366303	901.47816336979031	n/a	420	71	2750	901.47816337	stim	stop-signal	523	1414473	0.0-21.13-1.13	beast_fmri_test	275	1412147,/,1412827,/,1413507,/,1414188,/,1414868,/	t,t,t,t,t	<img class = center src='/static/experiments/beast_fmri_test/images/D.png'></img>	89,71	2750.0	test	<img class = center src='/static/experiments/beast_fmri_test/images/redD.png'></img>	go	2450.0	3.0	13.0	go	non-target	D	89,Middle Finger	71,Index Finger	650.0	300.0	2100.0	2450.0	1.0	300.0	1.0	n/a	ITI
292675	500	n/a	-1	-1	500	0.0	fixation	poldrack-single-stim	524	1415934	0.0-21.14-0.14	beast_fmri_test	275	1415547,/	t	<div class = centerbox2><div class = fixation>+</div></div>	none	500.0	test	n/a	n/a	n/a	n/a	n/a	n/a	n/a	n/a	n/a	n/a	n/a	n/a	n/a	n/a	n/a	n/a	n/a	n/a	fixation
292265.95462270384	2750	n/a	640	71	2750	407.045377296	stim	stop-signal	525	1418682	0.0-21.14-1.14	beast_fmri_test	275	1416228,/,1416907,/,1417586,/,1418264,/,1418944,/	t,t,t,t,t	<img class = center src='/static/experiments/beast_fmri_test/images/B.png'></img>	89,71	2750.0	test	<img class = center src='/static/experiments/beast_fmri_test/images/redB.png'></img>	go	2450.0	3.0	14.0	go	non-target	B	89,Middle Finger	71,Index Finger	650.0	300.0	2100.0	2450.0	1.0	300.0	1.0	n/a	go_stim
295015.95462270384	407.0453772961514	n/a	640	71	2750	407.045377296	stim	stop-signal	525	1418682	0.0-21.14-1.14	beast_fmri_test	275	1416228,/,1416907,/,1417586,/,1418264,/,1418944,/	t,t,t,t,t	<img class = center src='/static/experiments/beast_fmri_test/images/B.png'></img>	89,71	2750.0	test	<img class = center src='/static/experiments/beast_fmri_test/images/redB.png'></img>	go	2450.0	3.0	14.0	go	non-target	B	89,Middle Finger	71,Index Finger	650.0	300.0	2100.0	2450.0	1.0	300.0	1.0	n/a	ITI
296392	500	n/a	-1	-1	500	0.0	fixation	poldrack-single-stim	526	1419651	0.0-21.15-0.15	beast_fmri_test	275	1419623,/	t	<div class = centerbox2><div class = fixation>+</div></div>	none	500.0	test	n/a	n/a	n/a	n/a	n/a	n/a	n/a	n/a	n/a	n/a	n/a	n/a	n/a	n/a	n/a	n/a	n/a	n/a	fixation
293306.3087292749	2750	n/a	423	71	2750	3086.69127073	stim	stop-signal	527	1422402	0.0-21.15-1.15	beast_fmri_test	275	1420303,/,1420983,/,1421665,/,1422344,/,1423025,/,1423703,/,1424383,/,1425064,/	t,t,t,t,t,t,t,t	<img class = center src='/static/experiments/beast_fmri_test/images/V.png'></img>	89,71	2750.0	test	<img class = center src='/static/experiments/beast_fmri_test/images/redV.png'></img>	go	2450.0	3.0	15.0	go	non-target	V	89,Middle Finger	71,Index Finger	650.0	300.0	2100.0	2450.0	1.0	300.0	1.0	n/a	go_stim
296056.3087292749	3086.6912707251709	n/a	423	71	2750	3086.69127073	stim	stop-signal	527	1422402	0.0-21.15-1.15	beast_fmri_test	275	1420303,/,1420983,/,1421665,/,1422344,/,1423025,/,1423703,/,1424383,/,1425064,/	t,t,t,t,t,t,t,t	<img class = center src='/static/experiments/beast_fmri_test/images/V.png'></img>	89,71	2750.0	test	<img class = center src='/static/experiments/beast_fmri_test/images/redV.png'></img>	go	2450.0	3.0	15.0	go	non-target	V	89,Middle Finger	71,Index Finger	650.0	300.0	2100.0	2450.0	1.0	300.0	1.0	n/a	ITI
302781	500	n/a	-1	-1	500	0.0	fixation	poldrack-single-stim	528	1426040	0.0-21.16-0.16	beast_fmri_test	275	1425744,/	t	<div class = centerbox2><div class = fixation>+</div></div>	none	500.0	test	n/a	n/a	n/a	n/a	n/a	n/a	n/a	n/a	n/a	n/a	n/a	n/a	n/a	n/a	n/a	n/a	n/a	n/a	fixation
298599.12171793822	2750	n/a	359	71	2750	4181.87828206	stim	stop-signal	529	1428790	0.0-21.16-1.16	beast_fmri_test	275	1426419,/,1427099,/,1427780,/,1428459,/,1429138,/,1429818,/,1430498,/,1431178,/,1431859,/,1432540,/	t,t,t,t,t,t,t,t,t,t	<img class = center src='/static/experiments/beast_fmri_test/images/T.png'></img>	89,71	2750.0	test	<img class = center src='/static/experiments/beast_fmri_test/images/redT.png'></img>	go	2450.0	3.0	16.0	go	non-target	T	89,Middle Finger	71,Index Finger	650.0	300.0	2100.0	2450.0	1.0	300.0	1.0	n/a	go_stim
301349.12171793822	4181.8782820617671	n/a	359	71	2750	4181.87828206	stim	stop-signal	529	1428790	0.0-21.16-1.16	beast_fmri_test	275	1426419,/,1427099,/,1427780,/,1428459,/,1429138,/,1429818,/,1430498,/,1431178,/,1431859,/,1432540,/	t,t,t,t,t,t,t,t,t,t	<img class = center src='/static/experiments/beast_fmri_test/images/T.png'></img>	89,71	2750.0	test	<img class = center src='/static/experiments/beast_fmri_test/images/redT.png'></img>	go	2450.0	3.0	16.0	go	non-target	T	89,Middle Finger	71,Index Finger	650.0	300.0	2100.0	2450.0	1.0	300.0	1.0	n/a	ITI
310273	500	n/a	-1	-1	500	0.0	fixation	poldrack-single-stim	530	1433532	0.0-21.17-0.17	beast_fmri_test	275	1433220,/	t	<div class = centerbox2><div class = fixation>+</div></div>	none	500.0	test	n/a	n/a	n/a	n/a	n/a	n/a	n/a	n/a	n/a	n/a	n/a	n/a	n/a	n/a	n/a	n/a	n/a	n/a	fixation
308975.60280987597	2750	n/a	432	89	2750	1299.39719012	stim	stop-signal	531	1436284	0.0-21.17-1.17	beast_fmri_test	275	1433899,/,1434578,/,1435259,/,1435941,/,1436619,/,1437297,/	t,t,t,t,t,t	<img class = center src='/static/experiments/beast_fmri_test/images/P.png'></img>	89,71	2750.0	test	<img class = center src='/static/experiments/beast_fmri_test/images/redP.png'></img>	go	2450.0	3.0	17.0	go	non-target	P	89,Middle Finger	71,Index Finger	650.0	300.0	2100.0	2450.0	0.0	300.0	0.0	n/a	go_stim
311725.60280987597	1299.3971901241084	n/a	432	89	2750	1299.39719012	stim	stop-signal	531	1436284	0.0-21.17-1.17	beast_fmri_test	275	1433899,/,1434578,/,1435259,/,1435941,/,1436619,/,1437297,/	t,t,t,t,t,t	<img class = center src='/static/experiments/beast_fmri_test/images/P.png'></img>	89,71	2750.0	test	<img class = center src='/static/experiments/beast_fmri_test/images/redP.png'></img>	go	2450.0	3.0	17.0	go	non-target	P	89,Middle Finger	71,Index Finger	650.0	300.0	2100.0	2450.0	0.0	300.0	0.0	n/a	ITI
314880	500	n/a	-1	-1	500	0.0	fixation	poldrack-single-stim	532	1438139	0.0-21.18-0.18	beast_fmri_test	275	1437976,/	t	<div class = centerbox2><div class = fixation>+</div></div>	none	500.0	test	n/a	n/a	n/a	n/a	n/a	n/a	n/a	n/a	n/a	n/a	n/a	n/a	n/a	n/a	n/a	n/a	n/a	n/a	fixation
314521.38802192709	2750	n/a	1026	71	2750	362.611978073	stim	stop-signal	533	1440893	0.0-21.18-1.18	beast_fmri_test	275	1438654,/,1439334,/,1440013,/,1440695,/	t,t,t,t	<img class = center src='/static/experiments/beast_fmri_test/images/V.png'></img>	89,71	2750.0	test	<img class = center src='/static/experiments/beast_fmri_test/images/redV.png'></img>	go	2100.0	3.0	18.0	go	target	V	89,Middle Finger	71,Index Finger	650.0	300.0	2100.0	2450.0	0.0	650.0	0.0	n/a	go_stim
317271.38802192709	362.61197807300692	n/a	1026	71	2750	362.611978073	stim	stop-signal	533	1440893	0.0-21.18-1.18	beast_fmri_test	275	1438654,/,1439334,/,1440013,/,1440695,/	t,t,t,t	<img class = center src='/static/experiments/beast_fmri_test/images/V.png'></img>	89,71	2750.0	test	<img class = center src='/static/experiments/beast_fmri_test/images/redV.png'></img>	go	2100.0	3.0	18.0	go	target	V	89,Middle Finger	71,Index Finger	650.0	300.0	2100.0	2450.0	0.0	650.0	0.0	n/a	ITI
318554	500	n/a	-1	-1	500	0.0	fixation	poldrack-single-stim	534	1441813	0.0-21.19-0.19	beast_fmri_test	275	1441373,/	t	<div class = centerbox2><div class = fixation>+</div></div>	none	500.0	test	n/a	n/a	n/a	n/a	n/a	n/a	n/a	n/a	n/a	n/a	n/a	n/a	n/a	n/a	n/a	n/a	n/a	n/a	fixation
318421.91191229993	2750	n/a	1063	71	2750	135.0880877	stim	stop-signal	535	1444566	0.0-21.19-1.19	beast_fmri_test	275	1442054,/,1442735,/,1443415,/,1444094,/	t,t,t,t	<img class = center src='/static/experiments/beast_fmri_test/images/V.png'></img>	89,71	2750.0	test	<img class = center src='/static/experiments/beast_fmri_test/images/redV.png'></img>	go	2450.0	3.0	19.0	go	non-target	V	89,Middle Finger	71,Index Finger	650.0	300.0	2100.0	2450.0	1.0	300.0	1.0	n/a	go_stim
321171.91191229993	135.08808770016745	n/a	1063	71	2750	135.0880877	stim	stop-signal	535	1444566	0.0-21.19-1.19	beast_fmri_test	275	1442054,/,1442735,/,1443415,/,1444094,/	t,t,t,t	<img class = center src='/static/experiments/beast_fmri_test/images/V.png'></img>	89,71	2750.0	test	<img class = center src='/static/experiments/beast_fmri_test/images/redV.png'></img>	go	2450.0	3.0	19.0	go	non-target	V	89,Middle Finger	71,Index Finger	650.0	300.0	2100.0	2450.0	1.0	300.0	1.0	n/a	ITI
322006	500	n/a	-1	-1	500	0.0	fixation	poldrack-single-stim	536	1445265	0.0-21.20-0.20	beast_fmri_test	275	1444775,/	t	<div class = centerbox2><div class = fixation>+</div></div>	none	500.0	test	n/a	n/a	n/a	n/a	n/a	n/a	n/a	n/a	n/a	n/a	n/a	n/a	n/a	n/a	n/a	n/a	n/a	n/a	fixation
321541.89968776703	300.0	n/a	616	89	2750	462.100312233	stim	stop-signal	537	1448013	0.0-21.20-1.20	beast_fmri_test	275	1445454,/,1446135,/,1446814,/,1447492,/,1448169,/	t,t,t,t,t	<img class = center src='/static/experiments/beast_fmri_test/images/T.png'></img>	89,71	2750.0	test	<img class = center src='/static/experiments/beast_fmri_test/images/redT.png'></img>	stop	2450.0	3.0	20.0	stop	non-target	T	89,Middle Finger	71,Index Finger	650.0	300.0	2100.0	2450.0	0.0	300.0	n/a	0.0	go_stim
323991.89968776703	2450.0	n/a	616	89	2750	462.100312233	stim	stop-signal	537	1448013	0.0-21.20-1.20	beast_fmri_test	275	1445454,/,1446135,/,1446814,/,1447492,/,1448169,/	t,t,t,t,t	<img class = center src='/static/experiments/beast_fmri_test/images/T.png'></img>	89,71	2750.0	test	<img class = center src='/static/experiments/beast_fmri_test/images/redT.png'></img>	stop	2450.0	3.0	20.0	stop	non-target	T	89,Middle Finger	71,Index Finger	650.0	300.0	2100.0	2450.0	0.0	300.0	n/a	0.0	stop_stim
