onset	duration	text	rt	key_press	block_duration	timing_post_trial	trial_id	trial_type	trial_index	time_elapsed	internal_node_id	exp_id	subject_id	trigger_times	triggers	stimulus	possible_responses	stim_duration	exp_stage	SS_stimulus	SS_trial_type	SS_duration	load	trial_num	stop_trial_type	adaptive_trial_type	stim	yes_response_key	no_response_key	SSD_target	SSD_non_target	SSTarget	SSNonTarget	go_acc	SS_delay	adaptive_acc	stop_acc	new_trial_type
test	10880	n/a	-1	-1	10880	0.0	practice-no-stop-feedback	poldrack-single-stim	594	1661332	0.0-24.0	beast_fmri_test	275	1650455,/,1651134,/,1651813,/,1652493,/,1653173,/,1653852,/,1654532,/,1655212,/,1655892,/,1656574,/,1657251,/,1657929,/,1658608,/,1659288,/,1659967,/,1660647,/,1661329,/	t,t,t,t,t,t,t,t,t,t,t,t,t,t,t,t,t	"<div class = ""centerbox""><p class = ""block-text"">Your delay is 3 trials.</p><p class = block-text>Please wait for the scanner to start the block</p></div>"	77	10880.0	n/a	n/a	n/a	n/a	n/a	n/a	n/a	n/a	n/a	n/a	n/a	n/a	n/a	n/a	n/a	n/a	n/a	n/a	n/a	start_functional_block
11380	500	n/a	-1	-1	500	0.0	fixation	poldrack-single-stim	595	1661835	0.0-25.0-0.0	beast_fmri_test	275	n/a	n/a	<div class = centerbox2><div class = fixation>+</div></div>	none	500.0	test	n/a	n/a	n/a	n/a	n/a	n/a	n/a	n/a	n/a	n/a	n/a	n/a	n/a	n/a	n/a	n/a	n/a	n/a	fixation
11248.921143436339	temp_go_duration	n/a	675	71	2750	133.078856564	stim	stop-signal	596	1664587	0.0-25.0-1.0	beast_fmri_test	275	1662009,/,1662688,/,1663368,/,1664050,/	t,t,t,t	<img class = center src='/static/experiments/beast_fmri_test/images/B.png'></img>	89,71	2750.0	test	<img class = center src='/static/experiments/beast_fmri_test/images/redB.png'></img>	stop	-1.0	3.0	0.0	stop	temp-non-target	B	89,Middle Finger	71,Index Finger	700.0	400.0	2050.0	2350.0	0.0	n/a	n/a	0.0	go_stim
temp-non-target	temp_stop_duration	n/a	675	71	2750	133.078856564	stim	stop-signal	596	1664587	0.0-25.0-1.0	beast_fmri_test	275	1662009,/,1662688,/,1663368,/,1664050,/	t,t,t,t	<img class = center src='/static/experiments/beast_fmri_test/images/B.png'></img>	89,71	2750.0	test	<img class = center src='/static/experiments/beast_fmri_test/images/redB.png'></img>	stop	-1.0	3.0	0.0	stop	temp-non-target	B	89,Middle Finger	71,Index Finger	700.0	400.0	2050.0	2350.0	0.0	n/a	n/a	0.0	stop_stim
13998.921143436339	133.07885656371243	n/a	675	71	2750	133.078856564	stim	stop-signal	596	1664587	0.0-25.0-1.0	beast_fmri_test	275	1662009,/,1662688,/,1663368,/,1664050,/	t,t,t,t	<img class = center src='/static/experiments/beast_fmri_test/images/B.png'></img>	89,71	2750.0	test	<img class = center src='/static/experiments/beast_fmri_test/images/redB.png'></img>	stop	-1.0	3.0	0.0	stop	temp-non-target	B	89,Middle Finger	71,Index Finger	700.0	400.0	2050.0	2350.0	0.0	n/a	n/a	0.0	ITI
14828	500	n/a	-1	-1	500	0.0	fixation	poldrack-single-stim	597	1665283	0.0-25.1-0.1	beast_fmri_test	275	1664782,/	t	<div class = centerbox2><div class = fixation>+</div></div>	none	500.0	test	n/a	n/a	n/a	n/a	n/a	n/a	n/a	n/a	n/a	n/a	n/a	n/a	n/a	n/a	n/a	n/a	n/a	n/a	fixation
14560.874903291464	temp_go_duration	n/a	664	71	2750	265.125096709	stim	stop-signal	598	1668031	0.0-25.1-1.1	beast_fmri_test	275	1665409,/,1666089,/,1666769,/,1667448,/,1668124,/	t,t,t,t,t	<img class = center src='/static/experiments/beast_fmri_test/images/P.png'></img>	89,71	2750.0	test	<img class = center src='/static/experiments/beast_fmri_test/images/redP.png'></img>	stop	-1.0	3.0	1.0	stop	temp-non-target	P	89,Middle Finger	71,Index Finger	700.0	400.0	2050.0	2350.0	0.0	n/a	n/a	0.0	go_stim
temp-non-target	temp_stop_duration	n/a	664	71	2750	265.125096709	stim	stop-signal	598	1668031	0.0-25.1-1.1	beast_fmri_test	275	1665409,/,1666089,/,1666769,/,1667448,/,1668124,/	t,t,t,t,t	<img class = center src='/static/experiments/beast_fmri_test/images/P.png'></img>	89,71	2750.0	test	<img class = center src='/static/experiments/beast_fmri_test/images/redP.png'></img>	stop	-1.0	3.0	1.0	stop	temp-non-target	P	89,Middle Finger	71,Index Finger	700.0	400.0	2050.0	2350.0	0.0	n/a	n/a	0.0	stop_stim
17310.874903291464	265.12509670857469	n/a	664	71	2750	265.125096709	stim	stop-signal	598	1668031	0.0-25.1-1.1	beast_fmri_test	275	1665409,/,1666089,/,1666769,/,1667448,/,1668124,/	t,t,t,t,t	<img class = center src='/static/experiments/beast_fmri_test/images/P.png'></img>	89,71	2750.0	test	<img class = center src='/static/experiments/beast_fmri_test/images/redP.png'></img>	stop	-1.0	3.0	1.0	stop	temp-non-target	P	89,Middle Finger	71,Index Finger	700.0	400.0	2050.0	2350.0	0.0	n/a	n/a	0.0	ITI
18412	500	n/a	-1	-1	500	0.0	fixation	poldrack-single-stim	599	1668867	0.0-25.2-0.2	beast_fmri_test	275	1668804,/	t	<div class = centerbox2><div class = fixation>+</div></div>	none	500.0	test	n/a	n/a	n/a	n/a	n/a	n/a	n/a	n/a	n/a	n/a	n/a	n/a	n/a	n/a	n/a	n/a	n/a	n/a	fixation
16225.085297811311	2750	n/a	649	71	2750	2188.91470219	stim	stop-signal	600	1671619	0.0-25.2-1.2	beast_fmri_test	275	1669484,/,1670165,/,1670844,/,1671524,/,1672204,/,1672884,/,1673563,/	t,t,t,t,t,t,t	<img class = center src='/static/experiments/beast_fmri_test/images/D.png'></img>	89,71	2750.0	test	<img class = center src='/static/experiments/beast_fmri_test/images/redD.png'></img>	go	-1.0	3.0	2.0	go	temp-non-target	D	89,Middle Finger	71,Index Finger	700.0	400.0	2050.0	2350.0	0.0	n/a	n/a	n/a	go_stim
18975.085297811311	2188.9147021887925	n/a	649	71	2750	2188.91470219	stim	stop-signal	600	1671619	0.0-25.2-1.2	beast_fmri_test	275	1669484,/,1670165,/,1670844,/,1671524,/,1672204,/,1672884,/,1673563,/	t,t,t,t,t,t,t	<img class = center src='/static/experiments/beast_fmri_test/images/D.png'></img>	89,71	2750.0	test	<img class = center src='/static/experiments/beast_fmri_test/images/redD.png'></img>	go	-1.0	3.0	2.0	go	temp-non-target	D	89,Middle Finger	71,Index Finger	700.0	400.0	2050.0	2350.0	0.0	n/a	n/a	n/a	ITI
23919	500	n/a	-1	-1	500	0.0	fixation	poldrack-single-stim	601	1674374	0.0-25.3-0.3	beast_fmri_test	275	1674247,/	t	<div class = centerbox2><div class = fixation>+</div></div>	none	500.0	test	n/a	n/a	n/a	n/a	n/a	n/a	n/a	n/a	n/a	n/a	n/a	n/a	n/a	n/a	n/a	n/a	n/a	n/a	fixation
22604.618650986347	2750	n/a	517	71	2750	1317.38134901	stim	stop-signal	602	1677127	0.0-25.3-1.3	beast_fmri_test	275	1674923,/,1675604,/,1676284,/,1676964,/,1677640,/,1678319,/	t,t,t,t,t,t	<img class = center src='/static/experiments/beast_fmri_test/images/V.png'></img>	89,71	2750.0	test	<img class = center src='/static/experiments/beast_fmri_test/images/redV.png'></img>	go	2350.0	3.0	3.0	go	non-target	V	89,Middle Finger	71,Index Finger	700.0	400.0	2050.0	2350.0	1.0	400.0	1.0	n/a	go_stim
25354.618650986347	1317.3813490136868	n/a	517	71	2750	1317.38134901	stim	stop-signal	602	1677127	0.0-25.3-1.3	beast_fmri_test	275	1674923,/,1675604,/,1676284,/,1676964,/,1677640,/,1678319,/	t,t,t,t,t,t	<img class = center src='/static/experiments/beast_fmri_test/images/V.png'></img>	89,71	2750.0	test	<img class = center src='/static/experiments/beast_fmri_test/images/redV.png'></img>	go	2350.0	3.0	3.0	go	non-target	V	89,Middle Finger	71,Index Finger	700.0	400.0	2050.0	2350.0	1.0	400.0	1.0	n/a	ITI
28549	500	n/a	-1	-1	500	0.0	fixation	poldrack-single-stim	603	1679004	0.0-25.4-0.4	beast_fmri_test	275	1678999,/	t	<div class = centerbox2><div class = fixation>+</div></div>	none	500.0	test	n/a	n/a	n/a	n/a	n/a	n/a	n/a	n/a	n/a	n/a	n/a	n/a	n/a	n/a	n/a	n/a	n/a	n/a	fixation
28427.492684626952	2750	n/a	1004	71	2750	125.507315373	stim	stop-signal	604	1681758	0.0-25.4-1.4	beast_fmri_test	275	1679680,/,1680360,/,1681039,/,1681719,/	t,t,t,t	<img class = center src='/static/experiments/beast_fmri_test/images/P.png'></img>	89,71	2750.0	test	<img class = center src='/static/experiments/beast_fmri_test/images/redP.png'></img>	go	2050.0	3.0	4.0	go	target	P	89,Middle Finger	71,Index Finger	700.0	400.0	2050.0	2350.0	0.0	700.0	0.0	n/a	go_stim
31177.492684626952	125.5073153729582	n/a	1004	71	2750	125.507315373	stim	stop-signal	604	1681758	0.0-25.4-1.4	beast_fmri_test	275	1679680,/,1680360,/,1681039,/,1681719,/	t,t,t,t	<img class = center src='/static/experiments/beast_fmri_test/images/P.png'></img>	89,71	2750.0	test	<img class = center src='/static/experiments/beast_fmri_test/images/redP.png'></img>	go	2050.0	3.0	4.0	go	target	P	89,Middle Finger	71,Index Finger	700.0	400.0	2050.0	2350.0	0.0	700.0	0.0	n/a	ITI
31992	500	n/a	-1	-1	500	0.0	fixation	poldrack-single-stim	605	1682447	0.0-25.5-0.5	beast_fmri_test	275	1682397,/	t	<div class = centerbox2><div class = fixation>+</div></div>	none	500.0	test	n/a	n/a	n/a	n/a	n/a	n/a	n/a	n/a	n/a	n/a	n/a	n/a	n/a	n/a	n/a	n/a	n/a	n/a	fixation
30087.28183028847	2750	n/a	1047	89	2750	1904.71816971	stim	stop-signal	606	1685197	0.0-25.5-1.5	beast_fmri_test	275	1683073,/,1683753,/,1684434,/,1685114,/,1685794,/,1686474,/	t,t,t,t,t,t	<img class = center src='/static/experiments/beast_fmri_test/images/V.png'></img>	89,71	2750.0	test	<img class = center src='/static/experiments/beast_fmri_test/images/redV.png'></img>	go	2350.0	3.0	5.0	go	non-target	V	89,Middle Finger	71,Index Finger	700.0	400.0	2050.0	2350.0	0.0	400.0	0.0	n/a	go_stim
32837.28183028847	1904.718169711465	n/a	1047	89	2750	1904.71816971	stim	stop-signal	606	1685197	0.0-25.5-1.5	beast_fmri_test	275	1683073,/,1683753,/,1684434,/,1685114,/,1685794,/,1686474,/	t,t,t,t,t,t	<img class = center src='/static/experiments/beast_fmri_test/images/V.png'></img>	89,71	2750.0	test	<img class = center src='/static/experiments/beast_fmri_test/images/redV.png'></img>	go	2350.0	3.0	5.0	go	non-target	V	89,Middle Finger	71,Index Finger	700.0	400.0	2050.0	2350.0	0.0	400.0	0.0	n/a	ITI
37210	500	n/a	-1	-1	500	0.0	fixation	poldrack-single-stim	607	1687665	0.0-25.6-0.6	beast_fmri_test	275	1687164,/	t	<div class = centerbox2><div class = fixation>+</div></div>	none	500.0	test	n/a	n/a	n/a	n/a	n/a	n/a	n/a	n/a	n/a	n/a	n/a	n/a	n/a	n/a	n/a	n/a	n/a	n/a	fixation
36987.509435213869	2750	n/a	576	71	2750	225.490564786	stim	stop-signal	608	1690418	0.0-25.6-1.6	beast_fmri_test	275	1687834,/,1688514,/,1689193,/,1689875,/,1690555,/	t,t,t,t,t	<img class = center src='/static/experiments/beast_fmri_test/images/V.png'></img>	89,71	2750.0	test	<img class = center src='/static/experiments/beast_fmri_test/images/redV.png'></img>	go	2050.0	3.0	6.0	go	target	V	89,Middle Finger	71,Index Finger	700.0	400.0	2050.0	2350.0	0.0	700.0	0.0	n/a	go_stim
39737.509435213869	225.49056478607463	n/a	576	71	2750	225.490564786	stim	stop-signal	608	1690418	0.0-25.6-1.6	beast_fmri_test	275	1687834,/,1688514,/,1689193,/,1689875,/,1690555,/	t,t,t,t,t	<img class = center src='/static/experiments/beast_fmri_test/images/V.png'></img>	89,71	2750.0	test	<img class = center src='/static/experiments/beast_fmri_test/images/redV.png'></img>	go	2050.0	3.0	6.0	go	target	V	89,Middle Finger	71,Index Finger	700.0	400.0	2050.0	2350.0	0.0	700.0	0.0	n/a	ITI
40754	500	n/a	-1	-1	500	0.0	fixation	poldrack-single-stim	609	1691209	0.0-25.7-0.7	beast_fmri_test	275	n/a	n/a	<div class = centerbox2><div class = fixation>+</div></div>	none	500.0	test	n/a	n/a	n/a	n/a	n/a	n/a	n/a	n/a	n/a	n/a	n/a	n/a	n/a	n/a	n/a	n/a	n/a	n/a	fixation
40737.424037310062	2750	n/a	624	89	2750	18.57596269	stim	stop-signal	610	1693961	0.0-25.7-1.7	beast_fmri_test	275	1691235,/,1691914,/,1692595,/,1693276,/,1693955,/	t,t,t,t,t	<img class = center src='/static/experiments/beast_fmri_test/images/P.png'></img>	89,71	2750.0	test	<img class = center src='/static/experiments/beast_fmri_test/images/redP.png'></img>	go	2050.0	3.0	7.0	go	target	P	89,Middle Finger	71,Index Finger	700.0	400.0	2050.0	2350.0	1.0	700.0	1.0	n/a	go_stim
43487.424037310062	18.575962690002715	n/a	624	89	2750	18.57596269	stim	stop-signal	610	1693961	0.0-25.7-1.7	beast_fmri_test	275	1691235,/,1691914,/,1692595,/,1693276,/,1693955,/	t,t,t,t,t	<img class = center src='/static/experiments/beast_fmri_test/images/P.png'></img>	89,71	2750.0	test	<img class = center src='/static/experiments/beast_fmri_test/images/redP.png'></img>	go	2050.0	3.0	7.0	go	target	P	89,Middle Finger	71,Index Finger	700.0	400.0	2050.0	2350.0	1.0	700.0	1.0	n/a	ITI
44088	500	n/a	-1	-1	500	0.0	fixation	poldrack-single-stim	611	1694543	0.0-25.8-0.8	beast_fmri_test	275	n/a	n/a	<div class = centerbox2><div class = fixation>+</div></div>	none	500.0	test	n/a	n/a	n/a	n/a	n/a	n/a	n/a	n/a	n/a	n/a	n/a	n/a	n/a	n/a	n/a	n/a	n/a	n/a	fixation
43332.786410408327	2750	n/a	819	71	2750	755.213589592	stim	stop-signal	612	1697293	0.0-25.8-1.8	beast_fmri_test	275	1694635,/,1695316,/,1695994,/,1696674,/,1697352,/,1698031,/	t,t,t,t,t,t	<img class = center src='/static/experiments/beast_fmri_test/images/P.png'></img>	89,71	2750.0	test	<img class = center src='/static/experiments/beast_fmri_test/images/redP.png'></img>	go	2350.0	3.0	8.0	go	non-target	P	89,Middle Finger	71,Index Finger	700.0	400.0	2050.0	2350.0	1.0	400.0	1.0	n/a	go_stim
46082.786410408327	755.213589591747	n/a	819	71	2750	755.213589592	stim	stop-signal	612	1697293	0.0-25.8-1.8	beast_fmri_test	275	1694635,/,1695316,/,1695994,/,1696674,/,1697352,/,1698031,/	t,t,t,t,t,t	<img class = center src='/static/experiments/beast_fmri_test/images/P.png'></img>	89,71	2750.0	test	<img class = center src='/static/experiments/beast_fmri_test/images/redP.png'></img>	go	2350.0	3.0	8.0	go	non-target	P	89,Middle Finger	71,Index Finger	700.0	400.0	2050.0	2350.0	1.0	400.0	1.0	n/a	ITI
48157	500	n/a	-1	-1	500	0.0	fixation	poldrack-single-stim	613	1698612	0.0-25.9-0.9	beast_fmri_test	275	n/a	n/a	<div class = centerbox2><div class = fixation>+</div></div>	none	500.0	test	n/a	n/a	n/a	n/a	n/a	n/a	n/a	n/a	n/a	n/a	n/a	n/a	n/a	n/a	n/a	n/a	n/a	n/a	fixation
47742.665388271911	2750	n/a	1091	71	2750	416.334611728	stim	stop-signal	614	1701364	0.0-25.9-1.9	beast_fmri_test	275	1698711,/,1699392,/,1700070,/,1700751,/,1701429,/	t,t,t,t,t	<img class = center src='/static/experiments/beast_fmri_test/images/T.png'></img>	89,71	2750.0	test	<img class = center src='/static/experiments/beast_fmri_test/images/redT.png'></img>	go	2350.0	3.0	9.0	go	non-target	T	89,Middle Finger	71,Index Finger	700.0	400.0	2050.0	2350.0	1.0	400.0	1.0	n/a	go_stim
50492.665388271911	416.33461172798525	n/a	1091	71	2750	416.334611728	stim	stop-signal	614	1701364	0.0-25.9-1.9	beast_fmri_test	275	1698711,/,1699392,/,1700070,/,1700751,/,1701429,/	t,t,t,t,t	<img class = center src='/static/experiments/beast_fmri_test/images/T.png'></img>	89,71	2750.0	test	<img class = center src='/static/experiments/beast_fmri_test/images/redT.png'></img>	go	2350.0	3.0	9.0	go	non-target	T	89,Middle Finger	71,Index Finger	700.0	400.0	2050.0	2350.0	1.0	400.0	1.0	n/a	ITI
51891	500	n/a	-1	-1	500	0.0	fixation	poldrack-single-stim	615	1702346	0.0-25.10-0.10	beast_fmri_test	275	1702109,/	t	<div class = centerbox2><div class = fixation>+</div></div>	none	500.0	test	n/a	n/a	n/a	n/a	n/a	n/a	n/a	n/a	n/a	n/a	n/a	n/a	n/a	n/a	n/a	n/a	n/a	n/a	fixation
49173.374430795666	2750	n/a	642	71	2750	2720.6255692	stim	stop-signal	616	1705099	0.0-25.10-1.10	beast_fmri_test	275	1702790,/,1703470,/,1704151,/,1704830,/,1705510,/,1706189,/,1706870,/,1707549,/	t,t,t,t,t,t,t,t	<img class = center src='/static/experiments/beast_fmri_test/images/V.png'></img>	89,71	2750.0	test	<img class = center src='/static/experiments/beast_fmri_test/images/redV.png'></img>	go	2350.0	3.0	10.0	go	non-target	V	89,Middle Finger	71,Index Finger	700.0	400.0	2050.0	2350.0	1.0	400.0	1.0	n/a	go_stim
51923.374430795666	2720.6255692042291	n/a	642	71	2750	2720.6255692	stim	stop-signal	616	1705099	0.0-25.10-1.10	beast_fmri_test	275	1702790,/,1703470,/,1704151,/,1704830,/,1705510,/,1706189,/,1706870,/,1707549,/	t,t,t,t,t,t,t,t	<img class = center src='/static/experiments/beast_fmri_test/images/V.png'></img>	89,71	2750.0	test	<img class = center src='/static/experiments/beast_fmri_test/images/redV.png'></img>	go	2350.0	3.0	10.0	go	non-target	V	89,Middle Finger	71,Index Finger	700.0	400.0	2050.0	2350.0	1.0	400.0	1.0	n/a	ITI
57930	500	n/a	-1	-1	500	0.0	fixation	poldrack-single-stim	617	1708385	0.0-25.11-0.11	beast_fmri_test	275	1708231,/	t	<div class = centerbox2><div class = fixation>+</div></div>	none	500.0	test	n/a	n/a	n/a	n/a	n/a	n/a	n/a	n/a	n/a	n/a	n/a	n/a	n/a	n/a	n/a	n/a	n/a	n/a	fixation
57802.679723711219	700.0	n/a	745	89	2750	129.320276289	stim	stop-signal	618	1711137	0.0-25.11-1.11	beast_fmri_test	275	1708911,/,1709591,/,1710271,/,1710950,/	t,t,t,t	<img class = center src='/static/experiments/beast_fmri_test/images/P.png'></img>	89,71	2750.0	test	<img class = center src='/static/experiments/beast_fmri_test/images/redP.png'></img>	stop	2050.0	3.0	11.0	stop	target	P	89,Middle Finger	71,Index Finger	700.0	400.0	2050.0	2350.0	0.0	700.0	n/a	0.0	go_stim
59852.679723711219	2050.0	n/a	745	89	2750	129.320276289	stim	stop-signal	618	1711137	0.0-25.11-1.11	beast_fmri_test	275	1708911,/,1709591,/,1710271,/,1710950,/	t,t,t,t	<img class = center src='/static/experiments/beast_fmri_test/images/P.png'></img>	89,71	2750.0	test	<img class = center src='/static/experiments/beast_fmri_test/images/redP.png'></img>	stop	2050.0	3.0	11.0	stop	target	P	89,Middle Finger	71,Index Finger	700.0	400.0	2050.0	2350.0	0.0	700.0	n/a	0.0	stop_stim
60552.679723711219	129.3202762888495	n/a	745	89	2750	129.320276289	stim	stop-signal	618	1711137	0.0-25.11-1.11	beast_fmri_test	275	1708911,/,1709591,/,1710271,/,1710950,/	t,t,t,t	<img class = center src='/static/experiments/beast_fmri_test/images/P.png'></img>	89,71	2750.0	test	<img class = center src='/static/experiments/beast_fmri_test/images/redP.png'></img>	stop	2050.0	3.0	11.0	stop	target	P	89,Middle Finger	71,Index Finger	700.0	400.0	2050.0	2350.0	0.0	700.0	n/a	0.0	ITI
61379	500	n/a	-1	-1	500	0.0	fixation	poldrack-single-stim	619	1711834	0.0-25.12-0.12	beast_fmri_test	275	1711630,/	t	<div class = centerbox2><div class = fixation>+</div></div>	none	500.0	test	n/a	n/a	n/a	n/a	n/a	n/a	n/a	n/a	n/a	n/a	n/a	n/a	n/a	n/a	n/a	n/a	n/a	n/a	fixation
59677.478555534733	2750	n/a	474	71	2750	1705.52144447	stim	stop-signal	620	1714588	0.0-25.12-1.12	beast_fmri_test	275	1712312,/,1712991,/,1713670,/,1714350,/,1715030,/,1715709,/	t,t,t,t,t,t	<img class = center src='/static/experiments/beast_fmri_test/images/B.png'></img>	89,71	2750.0	test	<img class = center src='/static/experiments/beast_fmri_test/images/redB.png'></img>	go	2350.0	3.0	12.0	go	non-target	B	89,Middle Finger	71,Index Finger	650.0	400.0	2050.0	2350.0	1.0	400.0	1.0	n/a	go_stim
62427.478555534733	1705.5214444652258	n/a	474	71	2750	1705.52144447	stim	stop-signal	620	1714588	0.0-25.12-1.12	beast_fmri_test	275	1712312,/,1712991,/,1713670,/,1714350,/,1715030,/,1715709,/	t,t,t,t,t,t	<img class = center src='/static/experiments/beast_fmri_test/images/B.png'></img>	89,71	2750.0	test	<img class = center src='/static/experiments/beast_fmri_test/images/redB.png'></img>	go	2350.0	3.0	12.0	go	non-target	B	89,Middle Finger	71,Index Finger	650.0	400.0	2050.0	2350.0	1.0	400.0	1.0	n/a	ITI
66402	500	n/a	-1	-1	500	0.0	fixation	poldrack-single-stim	621	1716857	0.0-25.13-0.13	beast_fmri_test	275	1716389,/	t	<div class = centerbox2><div class = fixation>+</div></div>	none	500.0	test	n/a	n/a	n/a	n/a	n/a	n/a	n/a	n/a	n/a	n/a	n/a	n/a	n/a	n/a	n/a	n/a	n/a	n/a	fixation
66025.768446920207	2750	n/a	1017	71	2750	374.23155308	stim	stop-signal	622	1719605	0.0-25.13-1.13	beast_fmri_test	275	1717071,/,1717747,/,1718425,/,1719106,/,1719786,/	t,t,t,t,t	<img class = center src='/static/experiments/beast_fmri_test/images/V.png'></img>	89,71	2750.0	test	<img class = center src='/static/experiments/beast_fmri_test/images/redV.png'></img>	go	2100.0	3.0	13.0	go	target	V	89,Middle Finger	71,Index Finger	650.0	400.0	2100.0	2350.0	0.0	650.0	0.0	n/a	go_stim
68775.768446920207	374.23155307972655	n/a	1017	71	2750	374.23155308	stim	stop-signal	622	1719605	0.0-25.13-1.13	beast_fmri_test	275	1717071,/,1717747,/,1718425,/,1719106,/,1719786,/	t,t,t,t,t	<img class = center src='/static/experiments/beast_fmri_test/images/V.png'></img>	89,71	2750.0	test	<img class = center src='/static/experiments/beast_fmri_test/images/redV.png'></img>	go	2100.0	3.0	13.0	go	target	V	89,Middle Finger	71,Index Finger	650.0	400.0	2100.0	2350.0	0.0	650.0	0.0	n/a	ITI
70087	500	n/a	-1	-1	500	0.0	fixation	poldrack-single-stim	623	1720542	0.0-25.14-0.14	beast_fmri_test	275	1720467,/	t	<div class = centerbox2><div class = fixation>+</div></div>	none	500.0	test	n/a	n/a	n/a	n/a	n/a	n/a	n/a	n/a	n/a	n/a	n/a	n/a	n/a	n/a	n/a	n/a	n/a	n/a	fixation
69818.725881881546	2750	n/a	735	89	2750	272.274118119	stim	stop-signal	624	1723296	0.0-25.14-1.14	beast_fmri_test	275	1721146,/,1721826,/,1722506,/,1723186,/	t,t,t,t	<img class = center src='/static/experiments/beast_fmri_test/images/V.png'></img>	89,71	2750.0	test	<img class = center src='/static/experiments/beast_fmri_test/images/redV.png'></img>	go	2350.0	3.0	14.0	go	non-target	V	89,Middle Finger	71,Index Finger	650.0	400.0	2100.0	2350.0	0.0	400.0	0.0	n/a	go_stim
72568.725881881546	272.27411811850004	n/a	735	89	2750	272.274118119	stim	stop-signal	624	1723296	0.0-25.14-1.14	beast_fmri_test	275	1721146,/,1721826,/,1722506,/,1723186,/	t,t,t,t	<img class = center src='/static/experiments/beast_fmri_test/images/V.png'></img>	89,71	2750.0	test	<img class = center src='/static/experiments/beast_fmri_test/images/redV.png'></img>	go	2350.0	3.0	14.0	go	non-target	V	89,Middle Finger	71,Index Finger	650.0	400.0	2100.0	2350.0	0.0	400.0	0.0	n/a	ITI
73677	500	n/a	-1	-1	500	0.0	fixation	poldrack-single-stim	625	1724132	0.0-25.15-0.15	beast_fmri_test	275	1723866,/	t	<div class = centerbox2><div class = fixation>+</div></div>	none	500.0	test	n/a	n/a	n/a	n/a	n/a	n/a	n/a	n/a	n/a	n/a	n/a	n/a	n/a	n/a	n/a	n/a	n/a	n/a	fixation
73121.502341538202	2750	n/a	554	71	2750	557.497658462	stim	stop-signal	626	1726884	0.0-25.15-1.15	beast_fmri_test	275	1724546,/,1725226,/,1725906,/,1726586,/,1727265,/	t,t,t,t,t	<img class = center src='/static/experiments/beast_fmri_test/images/P.png'></img>	89,71	2750.0	test	<img class = center src='/static/experiments/beast_fmri_test/images/redP.png'></img>	go	2350.0	3.0	15.0	go	non-target	P	89,Middle Finger	71,Index Finger	650.0	400.0	2100.0	2350.0	1.0	400.0	1.0	n/a	go_stim
75871.502341538202	557.49765846185312	n/a	554	71	2750	557.497658462	stim	stop-signal	626	1726884	0.0-25.15-1.15	beast_fmri_test	275	1724546,/,1725226,/,1725906,/,1726586,/,1727265,/	t,t,t,t,t	<img class = center src='/static/experiments/beast_fmri_test/images/P.png'></img>	89,71	2750.0	test	<img class = center src='/static/experiments/beast_fmri_test/images/redP.png'></img>	go	2350.0	3.0	15.0	go	non-target	P	89,Middle Finger	71,Index Finger	650.0	400.0	2100.0	2350.0	1.0	400.0	1.0	n/a	ITI
77545	500	n/a	-1	-1	500	0.0	fixation	poldrack-single-stim	627	1728000	0.0-25.16-0.16	beast_fmri_test	275	1727941,/	t	<div class = centerbox2><div class = fixation>+</div></div>	none	500.0	test	n/a	n/a	n/a	n/a	n/a	n/a	n/a	n/a	n/a	n/a	n/a	n/a	n/a	n/a	n/a	n/a	n/a	n/a	fixation
77160.127735044807	650.0	n/a	-1	-1	2750	386.872264955	stim	stop-signal	628	1730752	0.0-25.16-1.16	beast_fmri_test	275	1728621,/,1729302,/,1729981,/,1730661,/	t,t,t,t	<img class = center src='/static/experiments/beast_fmri_test/images/V.png'></img>	89,71	2750.0	test	<img class = center src='/static/experiments/beast_fmri_test/images/redV.png'></img>	stop	2100.0	3.0	16.0	stop	target	V	89,Middle Finger	71,Index Finger	650.0	400.0	2100.0	2350.0	0.0	650.0	n/a	1.0	go_stim
79260.127735044807	2100.0	n/a	-1	-1	2750	386.872264955	stim	stop-signal	628	1730752	0.0-25.16-1.16	beast_fmri_test	275	1728621,/,1729302,/,1729981,/,1730661,/	t,t,t,t	<img class = center src='/static/experiments/beast_fmri_test/images/V.png'></img>	89,71	2750.0	test	<img class = center src='/static/experiments/beast_fmri_test/images/redV.png'></img>	stop	2100.0	3.0	16.0	stop	target	V	89,Middle Finger	71,Index Finger	650.0	400.0	2100.0	2350.0	0.0	650.0	n/a	1.0	stop_stim
79910.127735044807	386.87226495518968	n/a	-1	-1	2750	386.872264955	stim	stop-signal	628	1730752	0.0-25.16-1.16	beast_fmri_test	275	1728621,/,1729302,/,1729981,/,1730661,/	t,t,t,t	<img class = center src='/static/experiments/beast_fmri_test/images/V.png'></img>	89,71	2750.0	test	<img class = center src='/static/experiments/beast_fmri_test/images/redV.png'></img>	stop	2100.0	3.0	16.0	stop	target	V	89,Middle Finger	71,Index Finger	650.0	400.0	2100.0	2350.0	0.0	650.0	n/a	1.0	ITI
81244	500	n/a	-1	-1	500	0.0	fixation	poldrack-single-stim	629	1731699	0.0-25.17-0.17	beast_fmri_test	275	1731342,/	t	<div class = centerbox2><div class = fixation>+</div></div>	none	500.0	test	n/a	n/a	n/a	n/a	n/a	n/a	n/a	n/a	n/a	n/a	n/a	n/a	n/a	n/a	n/a	n/a	n/a	n/a	fixation
79065.510067155352	400.0	n/a	-1	-1	2750	2181.48993284	stim	stop-signal	630	1734452	0.0-25.17-1.17	beast_fmri_test	275	1732021,/,1732702,/,1733382,/,1734061,/,1734741,/,1735421,/,1736101,/	t,t,t,t,t,t,t	<img class = center src='/static/experiments/beast_fmri_test/images/T.png'></img>	89,71	2750.0	test	<img class = center src='/static/experiments/beast_fmri_test/images/redT.png'></img>	stop	2350.0	3.0	17.0	stop	non-target	T	89,Middle Finger	71,Index Finger	700.0	400.0	2100.0	2350.0	0.0	400.0	n/a	1.0	go_stim
81415.510067155352	2350.0	n/a	-1	-1	2750	2181.48993284	stim	stop-signal	630	1734452	0.0-25.17-1.17	beast_fmri_test	275	1732021,/,1732702,/,1733382,/,1734061,/,1734741,/,1735421,/,1736101,/	t,t,t,t,t,t,t	<img class = center src='/static/experiments/beast_fmri_test/images/T.png'></img>	89,71	2750.0	test	<img class = center src='/static/experiments/beast_fmri_test/images/redT.png'></img>	stop	2350.0	3.0	17.0	stop	non-target	T	89,Middle Finger	71,Index Finger	700.0	400.0	2100.0	2350.0	0.0	400.0	n/a	1.0	stop_stim
81815.510067155352	2181.4899328445931	n/a	-1	-1	2750	2181.48993284	stim	stop-signal	630	1734452	0.0-25.17-1.17	beast_fmri_test	275	1732021,/,1732702,/,1733382,/,1734061,/,1734741,/,1735421,/,1736101,/	t,t,t,t,t,t,t	<img class = center src='/static/experiments/beast_fmri_test/images/T.png'></img>	89,71	2750.0	test	<img class = center src='/static/experiments/beast_fmri_test/images/redT.png'></img>	stop	2350.0	3.0	17.0	stop	non-target	T	89,Middle Finger	71,Index Finger	700.0	400.0	2100.0	2350.0	0.0	400.0	n/a	1.0	ITI
86739	500	n/a	-1	-1	500	0.0	fixation	poldrack-single-stim	631	1737194	0.0-25.18-0.18	beast_fmri_test	275	1736781,/	t	<div class = centerbox2><div class = fixation>+</div></div>	none	500.0	test	n/a	n/a	n/a	n/a	n/a	n/a	n/a	n/a	n/a	n/a	n/a	n/a	n/a	n/a	n/a	n/a	n/a	n/a	fixation
83649.081319531193	2750	n/a	565	89	2750	3088.91868047	stim	stop-signal	632	1739943	0.0-25.18-1.18	beast_fmri_test	275	1737458,/,1738135,/,1738816,/,1739495,/,1740176,/,1740856,/,1741536,/,1742216,/,1742897,/	t,t,t,t,t,t,t,t,t	<img class = center src='/static/experiments/beast_fmri_test/images/V.png'></img>	89,71	2750.0	test	<img class = center src='/static/experiments/beast_fmri_test/images/redV.png'></img>	go	2300.0	3.0	18.0	go	non-target	V	89,Middle Finger	71,Index Finger	700.0	450.0	2100.0	2300.0	0.0	450.0	0.0	n/a	go_stim
86399.081319531193	3088.9186804687315	n/a	565	89	2750	3088.91868047	stim	stop-signal	632	1739943	0.0-25.18-1.18	beast_fmri_test	275	1737458,/,1738135,/,1738816,/,1739495,/,1740176,/,1740856,/,1741536,/,1742216,/,1742897,/	t,t,t,t,t,t,t,t,t	<img class = center src='/static/experiments/beast_fmri_test/images/V.png'></img>	89,71	2750.0	test	<img class = center src='/static/experiments/beast_fmri_test/images/redV.png'></img>	go	2300.0	3.0	18.0	go	non-target	V	89,Middle Finger	71,Index Finger	700.0	450.0	2100.0	2300.0	0.0	450.0	0.0	n/a	ITI
93148	500	n/a	-1	-1	500	0.0	fixation	poldrack-single-stim	633	1743603	0.0-25.19-0.19	beast_fmri_test	275	1743576,/	t	<div class = centerbox2><div class = fixation>+</div></div>	none	500.0	test	n/a	n/a	n/a	n/a	n/a	n/a	n/a	n/a	n/a	n/a	n/a	n/a	n/a	n/a	n/a	n/a	n/a	n/a	fixation
90407.175410375698	2750	n/a	1747	89	2750	2742.82458962	stim	stop-signal	634	1746355	0.0-25.19-1.19	beast_fmri_test	275	1744256,/,1744936,/,1745616,/,1746296,/,1746976,/,1747653,/,1748330,/,1749012,/	t,t,t,t,t,t,t,t	<img class = center src='/static/experiments/beast_fmri_test/images/B.png'></img>	89,71	2750.0	test	<img class = center src='/static/experiments/beast_fmri_test/images/redB.png'></img>	go	2300.0	3.0	19.0	go	non-target	B	89,Middle Finger	71,Index Finger	700.0	450.0	2100.0	2300.0	0.0	450.0	0.0	n/a	go_stim
93157.175410375698	2742.8245896242638	n/a	1747	89	2750	2742.82458962	stim	stop-signal	634	1746355	0.0-25.19-1.19	beast_fmri_test	275	1744256,/,1744936,/,1745616,/,1746296,/,1746976,/,1747653,/,1748330,/,1749012,/	t,t,t,t,t,t,t,t	<img class = center src='/static/experiments/beast_fmri_test/images/B.png'></img>	89,71	2750.0	test	<img class = center src='/static/experiments/beast_fmri_test/images/redB.png'></img>	go	2300.0	3.0	19.0	go	non-target	B	89,Middle Finger	71,Index Finger	700.0	450.0	2100.0	2300.0	0.0	450.0	0.0	n/a	ITI
99205	500	n/a	-1	-1	500	0.0	fixation	poldrack-single-stim	635	1749660	0.0-25.20-0.20	beast_fmri_test	275	n/a	n/a	<div class = centerbox2><div class = fixation>+</div></div>	none	500.0	test	n/a	n/a	n/a	n/a	n/a	n/a	n/a	n/a	n/a	n/a	n/a	n/a	n/a	n/a	n/a	n/a	n/a	n/a	fixation
98840.517841388471	2750	n/a	738	71	2750	367.482158612	stim	stop-signal	636	1752413	0.0-25.20-1.20	beast_fmri_test	275	1749693,/,1750374,/,1751052,/,1751732,/,1752412,/	t,t,t,t,t	<img class = center src='/static/experiments/beast_fmri_test/images/D.png'></img>	89,71	2750.0	test	<img class = center src='/static/experiments/beast_fmri_test/images/redD.png'></img>	go	2300.0	3.0	20.0	go	non-target	D	89,Middle Finger	71,Index Finger	700.0	450.0	2100.0	2300.0	1.0	450.0	1.0	n/a	go_stim
101590.51784138847	367.48215861162544	n/a	738	71	2750	367.482158612	stim	stop-signal	636	1752413	0.0-25.20-1.20	beast_fmri_test	275	1749693,/,1750374,/,1751052,/,1751732,/,1752412,/	t,t,t,t,t	<img class = center src='/static/experiments/beast_fmri_test/images/D.png'></img>	89,71	2750.0	test	<img class = center src='/static/experiments/beast_fmri_test/images/redD.png'></img>	go	2300.0	3.0	20.0	go	non-target	D	89,Middle Finger	71,Index Finger	700.0	450.0	2100.0	2300.0	1.0	450.0	1.0	n/a	ITI
102889	500	n/a	-1	-1	500	0.0	fixation	poldrack-single-stim	637	1753344	0.0-25.21-0.21	beast_fmri_test	275	1753091,/	t	<div class = centerbox2><div class = fixation>+</div></div>	none	500.0	test	n/a	n/a	n/a	n/a	n/a	n/a	n/a	n/a	n/a	n/a	n/a	n/a	n/a	n/a	n/a	n/a	n/a	n/a	fixation
102258.11657501734	2750	n/a	717	71	2750	634.883424983	stim	stop-signal	638	1756098	0.0-25.21-1.21	beast_fmri_test	275	1753772,/,1754453,/,1755132,/,1755812,/,1756492,/	t,t,t,t,t	<img class = center src='/static/experiments/beast_fmri_test/images/V.png'></img>	89,71	2750.0	test	<img class = center src='/static/experiments/beast_fmri_test/images/redV.png'></img>	go	2050.0	3.0	21.0	go	target	V	89,Middle Finger	71,Index Finger	700.0	450.0	2050.0	2300.0	0.0	700.0	0.0	n/a	go_stim
105008.11657501734	634.88342498260181	n/a	717	71	2750	634.883424983	stim	stop-signal	638	1756098	0.0-25.21-1.21	beast_fmri_test	275	1753772,/,1754453,/,1755132,/,1755812,/,1756492,/	t,t,t,t,t	<img class = center src='/static/experiments/beast_fmri_test/images/V.png'></img>	89,71	2750.0	test	<img class = center src='/static/experiments/beast_fmri_test/images/redV.png'></img>	go	2050.0	3.0	21.0	go	target	V	89,Middle Finger	71,Index Finger	700.0	450.0	2050.0	2300.0	0.0	700.0	0.0	n/a	ITI
106841	500	n/a	-1	-1	500	0.0	fixation	poldrack-single-stim	639	1757296	0.0-25.22-0.22	beast_fmri_test	275	1757170,/	t	<div class = centerbox2><div class = fixation>+</div></div>	none	500.0	test	n/a	n/a	n/a	n/a	n/a	n/a	n/a	n/a	n/a	n/a	n/a	n/a	n/a	n/a	n/a	n/a	n/a	n/a	fixation
106607.55337279383	2750	n/a	1022	89	2750	231.446627206	stim	stop-signal	640	1760044	0.0-25.22-1.22	beast_fmri_test	275	1757847,/,1758526,/,1759208,/,1759887,/	t,t,t,t	<img class = center src='/static/experiments/beast_fmri_test/images/B.png'></img>	89,71	2750.0	test	<img class = center src='/static/experiments/beast_fmri_test/images/redB.png'></img>	go	2050.0	3.0	22.0	go	target	B	89,Middle Finger	71,Index Finger	700.0	450.0	2050.0	2300.0	1.0	700.0	1.0	n/a	go_stim
109357.55337279383	231.44662720607784	n/a	1022	89	2750	231.446627206	stim	stop-signal	640	1760044	0.0-25.22-1.22	beast_fmri_test	275	1757847,/,1758526,/,1759208,/,1759887,/	t,t,t,t	<img class = center src='/static/experiments/beast_fmri_test/images/B.png'></img>	89,71	2750.0	test	<img class = center src='/static/experiments/beast_fmri_test/images/redB.png'></img>	go	2050.0	3.0	22.0	go	target	B	89,Middle Finger	71,Index Finger	700.0	450.0	2050.0	2300.0	1.0	700.0	1.0	n/a	ITI
110405	500	n/a	-1	-1	500	0.0	fixation	poldrack-single-stim	641	1760860	0.0-25.23-0.23	beast_fmri_test	275	1760568,/	t	<div class = centerbox2><div class = fixation>+</div></div>	none	500.0	test	n/a	n/a	n/a	n/a	n/a	n/a	n/a	n/a	n/a	n/a	n/a	n/a	n/a	n/a	n/a	n/a	n/a	n/a	fixation
110184.48926348076	2750	n/a	1567	71	2750	222.510736519	stim	stop-signal	642	1763612	0.0-25.23-1.23	beast_fmri_test	275	1761247,/,1761927,/,1762606,/,1763287,/	t,t,t,t	<img class = center src='/static/experiments/beast_fmri_test/images/D.png'></img>	89,71	2750.0	test	<img class = center src='/static/experiments/beast_fmri_test/images/redD.png'></img>	go	2050.0	3.0	23.0	go	target	D	89,Middle Finger	71,Index Finger	700.0	450.0	2050.0	2300.0	0.0	700.0	0.0	n/a	go_stim
112934.48926348076	222.5107365192118	n/a	1567	71	2750	222.510736519	stim	stop-signal	642	1763612	0.0-25.23-1.23	beast_fmri_test	275	1761247,/,1761927,/,1762606,/,1763287,/	t,t,t,t	<img class = center src='/static/experiments/beast_fmri_test/images/D.png'></img>	89,71	2750.0	test	<img class = center src='/static/experiments/beast_fmri_test/images/redD.png'></img>	go	2050.0	3.0	23.0	go	target	D	89,Middle Finger	71,Index Finger	700.0	450.0	2050.0	2300.0	0.0	700.0	0.0	n/a	ITI
113951	500	n/a	-1	-1	500	0.0	fixation	poldrack-single-stim	643	1764406	0.0-25.24-0.24	beast_fmri_test	275	1763966,/	t	<div class = centerbox2><div class = fixation>+</div></div>	none	500.0	test	n/a	n/a	n/a	n/a	n/a	n/a	n/a	n/a	n/a	n/a	n/a	n/a	n/a	n/a	n/a	n/a	n/a	n/a	fixation
113167.44526246609	2750	n/a	1161	71	2750	786.554737534	stim	stop-signal	644	1767159	0.0-25.24-1.24	beast_fmri_test	275	1764647,/,1765327,/,1766007,/,1766687,/,1767366,/	t,t,t,t,t	<img class = center src='/static/experiments/beast_fmri_test/images/P.png'></img>	89,71	2750.0	test	<img class = center src='/static/experiments/beast_fmri_test/images/redP.png'></img>	go	2300.0	3.0	24.0	go	non-target	P	89,Middle Finger	71,Index Finger	700.0	450.0	2050.0	2300.0	1.0	450.0	1.0	n/a	go_stim
115917.44526246609	786.5547375338582	n/a	1161	71	2750	786.554737534	stim	stop-signal	644	1767159	0.0-25.24-1.24	beast_fmri_test	275	1764647,/,1765327,/,1766007,/,1766687,/,1767366,/	t,t,t,t,t	<img class = center src='/static/experiments/beast_fmri_test/images/P.png'></img>	89,71	2750.0	test	<img class = center src='/static/experiments/beast_fmri_test/images/redP.png'></img>	go	2300.0	3.0	24.0	go	non-target	P	89,Middle Finger	71,Index Finger	700.0	450.0	2050.0	2300.0	1.0	450.0	1.0	n/a	ITI
118057	500	n/a	-1	-1	500	0.0	fixation	poldrack-single-stim	645	1768512	0.0-25.25-0.25	beast_fmri_test	275	1768047,/	t	<div class = centerbox2><div class = fixation>+</div></div>	none	500.0	test	n/a	n/a	n/a	n/a	n/a	n/a	n/a	n/a	n/a	n/a	n/a	n/a	n/a	n/a	n/a	n/a	n/a	n/a	fixation
117534.472699526	450.0	n/a	674	71	2750	527.527300474	stim	stop-signal	646	1771267	0.0-25.25-1.25	beast_fmri_test	275	1768727,/,1769406,/,1770087,/,1770767,/,1771447,/	t,t,t,t,t	<img class = center src='/static/experiments/beast_fmri_test/images/D.png'></img>	89,71	2750.0	test	<img class = center src='/static/experiments/beast_fmri_test/images/redD.png'></img>	stop	2300.0	3.0	25.0	stop	non-target	D	89,Middle Finger	71,Index Finger	700.0	450.0	2050.0	2300.0	0.0	450.0	n/a	0.0	go_stim
119834.472699526	2300.0	n/a	674	71	2750	527.527300474	stim	stop-signal	646	1771267	0.0-25.25-1.25	beast_fmri_test	275	1768727,/,1769406,/,1770087,/,1770767,/,1771447,/	t,t,t,t,t	<img class = center src='/static/experiments/beast_fmri_test/images/D.png'></img>	89,71	2750.0	test	<img class = center src='/static/experiments/beast_fmri_test/images/redD.png'></img>	stop	2300.0	3.0	25.0	stop	non-target	D	89,Middle Finger	71,Index Finger	700.0	450.0	2050.0	2300.0	0.0	450.0	n/a	0.0	stop_stim
120284.472699526	527.52730047409761	n/a	674	71	2750	527.527300474	stim	stop-signal	646	1771267	0.0-25.25-1.25	beast_fmri_test	275	1768727,/,1769406,/,1770087,/,1770767,/,1771447,/	t,t,t,t,t	<img class = center src='/static/experiments/beast_fmri_test/images/D.png'></img>	89,71	2750.0	test	<img class = center src='/static/experiments/beast_fmri_test/images/redD.png'></img>	stop	2300.0	3.0	25.0	stop	non-target	D	89,Middle Finger	71,Index Finger	700.0	450.0	2050.0	2300.0	0.0	450.0	n/a	0.0	ITI
121902	500	n/a	-1	-1	500	0.0	fixation	poldrack-single-stim	647	1772357	0.0-25.26-0.26	beast_fmri_test	275	1772128,/	t	<div class = centerbox2><div class = fixation>+</div></div>	none	500.0	test	n/a	n/a	n/a	n/a	n/a	n/a	n/a	n/a	n/a	n/a	n/a	n/a	n/a	n/a	n/a	n/a	n/a	n/a	fixation
121863.5425752704	400.0	n/a	-1	-1	2750	39.4574247297	stim	stop-signal	648	1775108	0.0-25.26-1.26	beast_fmri_test	275	1772806,/,1773489,/,1774166,/,1774847,/	t,t,t,t	<img class = center src='/static/experiments/beast_fmri_test/images/T.png'></img>	89,71	2750.0	test	<img class = center src='/static/experiments/beast_fmri_test/images/redT.png'></img>	stop	2350.0	3.0	26.0	stop	non-target	T	89,Middle Finger	71,Index Finger	700.0	400.0	2050.0	2350.0	0.0	400.0	n/a	1.0	go_stim
124213.5425752704	2350.0	n/a	-1	-1	2750	39.4574247297	stim	stop-signal	648	1775108	0.0-25.26-1.26	beast_fmri_test	275	1772806,/,1773489,/,1774166,/,1774847,/	t,t,t,t	<img class = center src='/static/experiments/beast_fmri_test/images/T.png'></img>	89,71	2750.0	test	<img class = center src='/static/experiments/beast_fmri_test/images/redT.png'></img>	stop	2350.0	3.0	26.0	stop	non-target	T	89,Middle Finger	71,Index Finger	700.0	400.0	2050.0	2350.0	0.0	400.0	n/a	1.0	stop_stim
124613.5425752704	39.457424729654001	n/a	-1	-1	2750	39.4574247297	stim	stop-signal	648	1775108	0.0-25.26-1.26	beast_fmri_test	275	1772806,/,1773489,/,1774166,/,1774847,/	t,t,t,t	<img class = center src='/static/experiments/beast_fmri_test/images/T.png'></img>	89,71	2750.0	test	<img class = center src='/static/experiments/beast_fmri_test/images/redT.png'></img>	stop	2350.0	3.0	26.0	stop	non-target	T	89,Middle Finger	71,Index Finger	700.0	400.0	2050.0	2350.0	0.0	400.0	n/a	1.0	ITI
125251	500	n/a	-1	-1	500	0.0	fixation	poldrack-single-stim	649	1775706	0.0-25.27-0.27	beast_fmri_test	275	1775527,/	t	<div class = centerbox2><div class = fixation>+</div></div>	none	500.0	test	n/a	n/a	n/a	n/a	n/a	n/a	n/a	n/a	n/a	n/a	n/a	n/a	n/a	n/a	n/a	n/a	n/a	n/a	fixation
124314.00714990124	450.0	n/a	-1	-1	2750	933.992850099	stim	stop-signal	650	1778453	0.0-25.27-1.27	beast_fmri_test	275	1776208,/,1776888,/,1777564,/,1778242,/,1778923,/	t,t,t,t,t	<img class = center src='/static/experiments/beast_fmri_test/images/T.png'></img>	89,71	2750.0	test	<img class = center src='/static/experiments/beast_fmri_test/images/redT.png'></img>	stop	2300.0	3.0	27.0	stop	non-target	T	89,Middle Finger	71,Index Finger	700.0	450.0	2050.0	2300.0	0.0	450.0	n/a	1.0	go_stim
126614.00714990124	2300.0	n/a	-1	-1	2750	933.992850099	stim	stop-signal	650	1778453	0.0-25.27-1.27	beast_fmri_test	275	1776208,/,1776888,/,1777564,/,1778242,/,1778923,/	t,t,t,t,t	<img class = center src='/static/experiments/beast_fmri_test/images/T.png'></img>	89,71	2750.0	test	<img class = center src='/static/experiments/beast_fmri_test/images/redT.png'></img>	stop	2300.0	3.0	27.0	stop	non-target	T	89,Middle Finger	71,Index Finger	700.0	450.0	2050.0	2300.0	0.0	450.0	n/a	1.0	stop_stim
127064.00714990124	933.99285009874484	n/a	-1	-1	2750	933.992850099	stim	stop-signal	650	1778453	0.0-25.27-1.27	beast_fmri_test	275	1776208,/,1776888,/,1777564,/,1778242,/,1778923,/	t,t,t,t,t	<img class = center src='/static/experiments/beast_fmri_test/images/T.png'></img>	89,71	2750.0	test	<img class = center src='/static/experiments/beast_fmri_test/images/redT.png'></img>	stop	2300.0	3.0	27.0	stop	non-target	T	89,Middle Finger	71,Index Finger	700.0	450.0	2050.0	2300.0	0.0	450.0	n/a	1.0	ITI
129496	500	n/a	-1	-1	500	0.0	fixation	poldrack-single-stim	651	1779951	0.0-25.28-0.28	beast_fmri_test	275	1779603,/	t	<div class = centerbox2><div class = fixation>+</div></div>	none	500.0	test	n/a	n/a	n/a	n/a	n/a	n/a	n/a	n/a	n/a	n/a	n/a	n/a	n/a	n/a	n/a	n/a	n/a	n/a	fixation
128924.39831528417	2750	n/a	673	71	2750	572.601684716	stim	stop-signal	652	1782702	0.0-25.28-1.28	beast_fmri_test	275	1780284,/,1780963,/,1781642,/,1782322,/,1783003,/	t,t,t,t,t	<img class = center src='/static/experiments/beast_fmri_test/images/P.png'></img>	89,71	2750.0	test	<img class = center src='/static/experiments/beast_fmri_test/images/redP.png'></img>	go	2250.0	3.0	28.0	go	non-target	P	89,Middle Finger	71,Index Finger	700.0	500.0	2050.0	2250.0	1.0	500.0	1.0	n/a	go_stim
131674.39831528417	572.6016847158661	n/a	673	71	2750	572.601684716	stim	stop-signal	652	1782702	0.0-25.28-1.28	beast_fmri_test	275	1780284,/,1780963,/,1781642,/,1782322,/,1783003,/	t,t,t,t,t	<img class = center src='/static/experiments/beast_fmri_test/images/P.png'></img>	89,71	2750.0	test	<img class = center src='/static/experiments/beast_fmri_test/images/redP.png'></img>	go	2250.0	3.0	28.0	go	non-target	P	89,Middle Finger	71,Index Finger	700.0	500.0	2050.0	2250.0	1.0	500.0	1.0	n/a	ITI
133385	500	n/a	-1	-1	500	0.0	fixation	poldrack-single-stim	653	1783840	0.0-25.29-0.29	beast_fmri_test	275	1783684,/	t	<div class = centerbox2><div class = fixation>+</div></div>	none	500.0	test	n/a	n/a	n/a	n/a	n/a	n/a	n/a	n/a	n/a	n/a	n/a	n/a	n/a	n/a	n/a	n/a	n/a	n/a	fixation
131245.25115010585	2750	n/a	1824	89	2750	2141.74884989	stim	stop-signal	654	1786592	0.0-25.29-1.29	beast_fmri_test	275	1784363,/,1785043,/,1785723,/,1786403,/,1787081,/,1787759,/,1788438,/	t,t,t,t,t,t,t	<img class = center src='/static/experiments/beast_fmri_test/images/D.png'></img>	89,71	2750.0	test	<img class = center src='/static/experiments/beast_fmri_test/images/redD.png'></img>	go	2250.0	3.0	29.0	go	non-target	D	89,Middle Finger	71,Index Finger	700.0	500.0	2050.0	2250.0	0.0	500.0	0.0	n/a	go_stim
133995.25115010585	2141.7488498941007	n/a	1824	89	2750	2141.74884989	stim	stop-signal	654	1786592	0.0-25.29-1.29	beast_fmri_test	275	1784363,/,1785043,/,1785723,/,1786403,/,1787081,/,1787759,/,1788438,/	t,t,t,t,t,t,t	<img class = center src='/static/experiments/beast_fmri_test/images/D.png'></img>	89,71	2750.0	test	<img class = center src='/static/experiments/beast_fmri_test/images/redD.png'></img>	go	2250.0	3.0	29.0	go	non-target	D	89,Middle Finger	71,Index Finger	700.0	500.0	2050.0	2250.0	0.0	500.0	0.0	n/a	ITI
138843	500	n/a	-1	-1	500	0.0	fixation	poldrack-single-stim	655	1789298	0.0-25.30-0.30	beast_fmri_test	275	1789118,/	t	<div class = centerbox2><div class = fixation>+</div></div>	none	500.0	test	n/a	n/a	n/a	n/a	n/a	n/a	n/a	n/a	n/a	n/a	n/a	n/a	n/a	n/a	n/a	n/a	n/a	n/a	fixation
138605.5490187495	700.0	n/a	544	89	2750	239.45098125	stim	stop-signal	656	1792050	0.0-25.30-1.30	beast_fmri_test	275	1789798,/,1790478,/,1791158,/,1791838,/	t,t,t,t	<img class = center src='/static/experiments/beast_fmri_test/images/T.png'></img>	89,71	2750.0	test	<img class = center src='/static/experiments/beast_fmri_test/images/redT.png'></img>	stop	2050.0	3.0	30.0	stop	target	T	89,Middle Finger	71,Index Finger	700.0	500.0	2050.0	2250.0	0.0	700.0	n/a	0.0	go_stim
140655.5490187495	2050.0	n/a	544	89	2750	239.45098125	stim	stop-signal	656	1792050	0.0-25.30-1.30	beast_fmri_test	275	1789798,/,1790478,/,1791158,/,1791838,/	t,t,t,t	<img class = center src='/static/experiments/beast_fmri_test/images/T.png'></img>	89,71	2750.0	test	<img class = center src='/static/experiments/beast_fmri_test/images/redT.png'></img>	stop	2050.0	3.0	30.0	stop	target	T	89,Middle Finger	71,Index Finger	700.0	500.0	2050.0	2250.0	0.0	700.0	n/a	0.0	stop_stim
141355.5490187495	239.45098125039607	n/a	544	89	2750	239.45098125	stim	stop-signal	656	1792050	0.0-25.30-1.30	beast_fmri_test	275	1789798,/,1790478,/,1791158,/,1791838,/	t,t,t,t	<img class = center src='/static/experiments/beast_fmri_test/images/T.png'></img>	89,71	2750.0	test	<img class = center src='/static/experiments/beast_fmri_test/images/redT.png'></img>	stop	2050.0	3.0	30.0	stop	target	T	89,Middle Finger	71,Index Finger	700.0	500.0	2050.0	2250.0	0.0	700.0	n/a	0.0	ITI
142398	500	n/a	-1	-1	500	0.0	fixation	poldrack-single-stim	657	1792853	0.0-25.31-0.31	beast_fmri_test	275	1792519,/	t	<div class = centerbox2><div class = fixation>+</div></div>	none	500.0	test	n/a	n/a	n/a	n/a	n/a	n/a	n/a	n/a	n/a	n/a	n/a	n/a	n/a	n/a	n/a	n/a	n/a	n/a	fixation
141187.77098505222	500.0	n/a	478	89	2750	1214.22901495	stim	stop-signal	658	1795607	0.0-25.31-1.31	beast_fmri_test	275	1793198,/,1793878,/,1794558,/,1795238,/,1795919,/,1796599,/	t,t,t,t,t,t	<img class = center src='/static/experiments/beast_fmri_test/images/T.png'></img>	89,71	2750.0	test	<img class = center src='/static/experiments/beast_fmri_test/images/redT.png'></img>	stop	2250.0	3.0	31.0	stop	non-target	T	89,Middle Finger	71,Index Finger	650.0	500.0	2050.0	2250.0	0.0	500.0	n/a	0.0	go_stim
143437.77098505222	2250.0	n/a	478	89	2750	1214.22901495	stim	stop-signal	658	1795607	0.0-25.31-1.31	beast_fmri_test	275	1793198,/,1793878,/,1794558,/,1795238,/,1795919,/,1796599,/	t,t,t,t,t,t	<img class = center src='/static/experiments/beast_fmri_test/images/T.png'></img>	89,71	2750.0	test	<img class = center src='/static/experiments/beast_fmri_test/images/redT.png'></img>	stop	2250.0	3.0	31.0	stop	non-target	T	89,Middle Finger	71,Index Finger	650.0	500.0	2050.0	2250.0	0.0	500.0	n/a	0.0	stop_stim
143937.77098505222	1214.229014947859	n/a	478	89	2750	1214.22901495	stim	stop-signal	658	1795607	0.0-25.31-1.31	beast_fmri_test	275	1793198,/,1793878,/,1794558,/,1795238,/,1795919,/,1796599,/	t,t,t,t,t,t	<img class = center src='/static/experiments/beast_fmri_test/images/T.png'></img>	89,71	2750.0	test	<img class = center src='/static/experiments/beast_fmri_test/images/redT.png'></img>	stop	2250.0	3.0	31.0	stop	non-target	T	89,Middle Finger	71,Index Finger	650.0	500.0	2050.0	2250.0	0.0	500.0	n/a	0.0	ITI
146933	500	n/a	-1	-1	500	0.0	fixation	poldrack-single-stim	659	1797388	0.0-25.32-0.32	beast_fmri_test	275	1797277,/	t	<div class = centerbox2><div class = fixation>+</div></div>	none	500.0	test	n/a	n/a	n/a	n/a	n/a	n/a	n/a	n/a	n/a	n/a	n/a	n/a	n/a	n/a	n/a	n/a	n/a	n/a	fixation
146391.96326531889	450.0	n/a	-1	-1	2750	541.036734681	stim	stop-signal	660	1800138	0.0-25.32-1.32	beast_fmri_test	275	1797953,/,1798633,/,1799314,/,1799993,/,1800673,/	t,t,t,t,t	<img class = center src='/static/experiments/beast_fmri_test/images/T.png'></img>	89,71	2750.0	test	<img class = center src='/static/experiments/beast_fmri_test/images/redT.png'></img>	stop	2300.0	3.0	32.0	stop	non-target	T	89,Middle Finger	71,Index Finger	650.0	450.0	2050.0	2300.0	0.0	450.0	n/a	1.0	go_stim
148691.96326531889	2300.0	n/a	-1	-1	2750	541.036734681	stim	stop-signal	660	1800138	0.0-25.32-1.32	beast_fmri_test	275	1797953,/,1798633,/,1799314,/,1799993,/,1800673,/	t,t,t,t,t	<img class = center src='/static/experiments/beast_fmri_test/images/T.png'></img>	89,71	2750.0	test	<img class = center src='/static/experiments/beast_fmri_test/images/redT.png'></img>	stop	2300.0	3.0	32.0	stop	non-target	T	89,Middle Finger	71,Index Finger	650.0	450.0	2050.0	2300.0	0.0	450.0	n/a	1.0	stop_stim
149141.96326531889	541.03673468109196	n/a	-1	-1	2750	541.036734681	stim	stop-signal	660	1800138	0.0-25.32-1.32	beast_fmri_test	275	1797953,/,1798633,/,1799314,/,1799993,/,1800673,/	t,t,t,t,t	<img class = center src='/static/experiments/beast_fmri_test/images/T.png'></img>	89,71	2750.0	test	<img class = center src='/static/experiments/beast_fmri_test/images/redT.png'></img>	stop	2300.0	3.0	32.0	stop	non-target	T	89,Middle Finger	71,Index Finger	650.0	450.0	2050.0	2300.0	0.0	450.0	n/a	1.0	ITI
150791	500	n/a	-1	-1	500	0.0	fixation	poldrack-single-stim	661	1801246	0.0-25.33-0.33	beast_fmri_test	275	n/a	n/a	<div class = centerbox2><div class = fixation>+</div></div>	none	500.0	test	n/a	n/a	n/a	n/a	n/a	n/a	n/a	n/a	n/a	n/a	n/a	n/a	n/a	n/a	n/a	n/a	n/a	n/a	fixation
149166.05481427535	2750	n/a	488	89	2750	1627.94518572	stim	stop-signal	662	1803999	0.0-25.33-1.33	beast_fmri_test	275	1801353,/,1802034,/,1802713,/,1803393,/,1804074,/,1804754,/,1805433,/	t,t,t,t,t,t,t	<img class = center src='/static/experiments/beast_fmri_test/images/T.png'></img>	89,71	2750.0	test	<img class = center src='/static/experiments/beast_fmri_test/images/redT.png'></img>	go	2100.0	3.0	33.0	go	target	T	89,Middle Finger	71,Index Finger	650.0	500.0	2100.0	2300.0	1.0	650.0	1.0	n/a	go_stim
151916.05481427535	1627.9451857247213	n/a	488	89	2750	1627.94518572	stim	stop-signal	662	1803999	0.0-25.33-1.33	beast_fmri_test	275	1801353,/,1802034,/,1802713,/,1803393,/,1804074,/,1804754,/,1805433,/	t,t,t,t,t,t,t	<img class = center src='/static/experiments/beast_fmri_test/images/T.png'></img>	89,71	2750.0	test	<img class = center src='/static/experiments/beast_fmri_test/images/redT.png'></img>	go	2100.0	3.0	33.0	go	target	T	89,Middle Finger	71,Index Finger	650.0	500.0	2100.0	2300.0	1.0	650.0	1.0	n/a	ITI
155737	500	n/a	-1	-1	500	0.0	fixation	poldrack-single-stim	663	1806192	0.0-25.34-0.34	beast_fmri_test	275	1806115,/	t	<div class = centerbox2><div class = fixation>+</div></div>	none	500.0	test	n/a	n/a	n/a	n/a	n/a	n/a	n/a	n/a	n/a	n/a	n/a	n/a	n/a	n/a	n/a	n/a	n/a	n/a	fixation
155515.58858488011	2750	n/a	376	89	2750	220.41141512	stim	stop-signal	664	1808941	0.0-25.34-1.34	beast_fmri_test	275	1806805,/,1807470,/,1808148,/,1808829,/	t,t,t,t	<img class = center src='/static/experiments/beast_fmri_test/images/T.png'></img>	89,71	2750.0	test	<img class = center src='/static/experiments/beast_fmri_test/images/redT.png'></img>	go	2100.0	3.0	34.0	go	target	T	89,Middle Finger	71,Index Finger	650.0	500.0	2100.0	2300.0	1.0	650.0	1.0	n/a	go_stim
158265.58858488011	220.41141511981164	n/a	376	89	2750	220.41141512	stim	stop-signal	664	1808941	0.0-25.34-1.34	beast_fmri_test	275	1806805,/,1807470,/,1808148,/,1808829,/	t,t,t,t	<img class = center src='/static/experiments/beast_fmri_test/images/T.png'></img>	89,71	2750.0	test	<img class = center src='/static/experiments/beast_fmri_test/images/redT.png'></img>	go	2100.0	3.0	34.0	go	target	T	89,Middle Finger	71,Index Finger	650.0	500.0	2100.0	2300.0	1.0	650.0	1.0	n/a	ITI
159271	500	n/a	-1	-1	500	0.0	fixation	poldrack-single-stim	665	1809726	0.0-25.35-0.35	beast_fmri_test	275	1809510,/	t	<div class = centerbox2><div class = fixation>+</div></div>	none	500.0	test	n/a	n/a	n/a	n/a	n/a	n/a	n/a	n/a	n/a	n/a	n/a	n/a	n/a	n/a	n/a	n/a	n/a	n/a	fixation
158476.86918035336	2750	n/a	319	89	2750	797.130819647	stim	stop-signal	666	1812479	0.0-25.35-1.35	beast_fmri_test	275	1810190,/,1810870,/,1811550,/,1812229,/,1812909,/	t,t,t,t,t	<img class = center src='/static/experiments/beast_fmri_test/images/T.png'></img>	89,71	2750.0	test	<img class = center src='/static/experiments/beast_fmri_test/images/redT.png'></img>	go	2100.0	3.0	35.0	go	target	T	89,Middle Finger	71,Index Finger	650.0	500.0	2100.0	2300.0	1.0	650.0	1.0	n/a	go_stim
161226.86918035336	797.13081964663331	n/a	319	89	2750	797.130819647	stim	stop-signal	666	1812479	0.0-25.35-1.35	beast_fmri_test	275	1810190,/,1810870,/,1811550,/,1812229,/,1812909,/	t,t,t,t,t	<img class = center src='/static/experiments/beast_fmri_test/images/T.png'></img>	89,71	2750.0	test	<img class = center src='/static/experiments/beast_fmri_test/images/redT.png'></img>	go	2100.0	3.0	35.0	go	target	T	89,Middle Finger	71,Index Finger	650.0	500.0	2100.0	2300.0	1.0	650.0	1.0	n/a	ITI
163391	500	n/a	-1	-1	500	0.0	fixation	poldrack-single-stim	667	1813846	0.0-25.36-0.36	beast_fmri_test	275	1813589,/	t	<div class = centerbox2><div class = fixation>+</div></div>	none	500.0	test	n/a	n/a	n/a	n/a	n/a	n/a	n/a	n/a	n/a	n/a	n/a	n/a	n/a	n/a	n/a	n/a	n/a	n/a	fixation
162993.98758257553	650.0	n/a	402	89	2750	400.012417424	stim	stop-signal	668	1816599	0.0-25.36-1.36	beast_fmri_test	275	1814268,/,1814949,/,1815629,/,1816309,/,1816990,/	t,t,t,t,t	<img class = center src='/static/experiments/beast_fmri_test/images/T.png'></img>	89,71	2750.0	test	<img class = center src='/static/experiments/beast_fmri_test/images/redT.png'></img>	stop	2100.0	3.0	36.0	stop	target	T	89,Middle Finger	71,Index Finger	650.0	500.0	2100.0	2300.0	0.0	650.0	n/a	0.0	go_stim
165093.98758257553	2100.0	n/a	402	89	2750	400.012417424	stim	stop-signal	668	1816599	0.0-25.36-1.36	beast_fmri_test	275	1814268,/,1814949,/,1815629,/,1816309,/,1816990,/	t,t,t,t,t	<img class = center src='/static/experiments/beast_fmri_test/images/T.png'></img>	89,71	2750.0	test	<img class = center src='/static/experiments/beast_fmri_test/images/redT.png'></img>	stop	2100.0	3.0	36.0	stop	target	T	89,Middle Finger	71,Index Finger	650.0	500.0	2100.0	2300.0	0.0	650.0	n/a	0.0	stop_stim
165743.98758257553	400.01241742446012	n/a	402	89	2750	400.012417424	stim	stop-signal	668	1816599	0.0-25.36-1.36	beast_fmri_test	275	1814268,/,1814949,/,1815629,/,1816309,/,1816990,/	t,t,t,t,t	<img class = center src='/static/experiments/beast_fmri_test/images/T.png'></img>	89,71	2750.0	test	<img class = center src='/static/experiments/beast_fmri_test/images/redT.png'></img>	stop	2100.0	3.0	36.0	stop	target	T	89,Middle Finger	71,Index Finger	650.0	500.0	2100.0	2300.0	0.0	650.0	n/a	0.0	ITI
167110	500	n/a	-1	-1	500	0.0	fixation	poldrack-single-stim	669	1817565	0.0-25.37-0.37	beast_fmri_test	275	n/a	n/a	<div class = centerbox2><div class = fixation>+</div></div>	none	500.0	test	n/a	n/a	n/a	n/a	n/a	n/a	n/a	n/a	n/a	n/a	n/a	n/a	n/a	n/a	n/a	n/a	n/a	n/a	fixation
166892.90399523289	2750	n/a	544	71	2750	219.096004767	stim	stop-signal	670	1820317	0.0-25.37-1.37	beast_fmri_test	275	1817665,/,1818344,/,1819024,/,1819704,/,1820384,/	t,t,t,t,t	<img class = center src='/static/experiments/beast_fmri_test/images/B.png'></img>	89,71	2750.0	test	<img class = center src='/static/experiments/beast_fmri_test/images/redB.png'></img>	go	2250.0	3.0	37.0	go	non-target	B	89,Middle Finger	71,Index Finger	600.0	500.0	2100.0	2250.0	1.0	500.0	1.0	n/a	go_stim
169642.90399523289	219.09600476703025	n/a	544	71	2750	219.096004767	stim	stop-signal	670	1820317	0.0-25.37-1.37	beast_fmri_test	275	1817665,/,1818344,/,1819024,/,1819704,/,1820384,/	t,t,t,t,t	<img class = center src='/static/experiments/beast_fmri_test/images/B.png'></img>	89,71	2750.0	test	<img class = center src='/static/experiments/beast_fmri_test/images/redB.png'></img>	go	2250.0	3.0	37.0	go	non-target	B	89,Middle Finger	71,Index Finger	600.0	500.0	2100.0	2250.0	1.0	500.0	1.0	n/a	ITI
170648	500	n/a	-1	-1	500	0.0	fixation	poldrack-single-stim	671	1821103	0.0-25.38-0.38	beast_fmri_test	275	1821066,/	t	<div class = centerbox2><div class = fixation>+</div></div>	none	500.0	test	n/a	n/a	n/a	n/a	n/a	n/a	n/a	n/a	n/a	n/a	n/a	n/a	n/a	n/a	n/a	n/a	n/a	n/a	fixation
169183.38687368808	2750	n/a	498	71	2750	1467.61312631	stim	stop-signal	672	1823856	0.0-25.38-1.38	beast_fmri_test	275	1821745,/,1822425,/,1823105,/,1823784,/,1824465,/,1825144,/	t,t,t,t,t,t	<img class = center src='/static/experiments/beast_fmri_test/images/B.png'></img>	89,71	2750.0	test	<img class = center src='/static/experiments/beast_fmri_test/images/redB.png'></img>	go	2250.0	3.0	38.0	go	non-target	B	89,Middle Finger	71,Index Finger	600.0	500.0	2100.0	2250.0	1.0	500.0	1.0	n/a	go_stim
171933.38687368808	1467.613126311903	n/a	498	71	2750	1467.61312631	stim	stop-signal	672	1823856	0.0-25.38-1.38	beast_fmri_test	275	1821745,/,1822425,/,1823105,/,1823784,/,1824465,/,1825144,/	t,t,t,t,t,t	<img class = center src='/static/experiments/beast_fmri_test/images/B.png'></img>	89,71	2750.0	test	<img class = center src='/static/experiments/beast_fmri_test/images/redB.png'></img>	go	2250.0	3.0	38.0	go	non-target	B	89,Middle Finger	71,Index Finger	600.0	500.0	2100.0	2250.0	1.0	500.0	1.0	n/a	ITI
175429	500	n/a	-1	-1	500	0.0	fixation	poldrack-single-stim	673	1825884	0.0-25.39-0.39	beast_fmri_test	275	1825824,/	t	<div class = centerbox2><div class = fixation>+</div></div>	none	500.0	test	n/a	n/a	n/a	n/a	n/a	n/a	n/a	n/a	n/a	n/a	n/a	n/a	n/a	n/a	n/a	n/a	n/a	n/a	fixation
175148.01140891528	2750	n/a	529	71	2750	283.988591085	stim	stop-signal	674	1828637	0.0-25.39-1.39	beast_fmri_test	275	1826505,/,1827184,/,1827865,/,1828543,/	t,t,t,t	<img class = center src='/static/experiments/beast_fmri_test/images/B.png'></img>	89,71	2750.0	test	<img class = center src='/static/experiments/beast_fmri_test/images/redB.png'></img>	go	2250.0	3.0	39.0	go	non-target	B	89,Middle Finger	71,Index Finger	600.0	500.0	2100.0	2250.0	1.0	500.0	1.0	n/a	go_stim
177898.01140891528	283.98859108466417	n/a	529	71	2750	283.988591085	stim	stop-signal	674	1828637	0.0-25.39-1.39	beast_fmri_test	275	1826505,/,1827184,/,1827865,/,1828543,/	t,t,t,t	<img class = center src='/static/experiments/beast_fmri_test/images/B.png'></img>	89,71	2750.0	test	<img class = center src='/static/experiments/beast_fmri_test/images/redB.png'></img>	go	2250.0	3.0	39.0	go	non-target	B	89,Middle Finger	71,Index Finger	600.0	500.0	2100.0	2250.0	1.0	500.0	1.0	n/a	ITI
179029	500	n/a	-1	-1	500	0.0	fixation	poldrack-single-stim	675	1829484	0.0-25.40-0.40	beast_fmri_test	275	1829224,/	t	<div class = centerbox2><div class = fixation>+</div></div>	none	500.0	test	n/a	n/a	n/a	n/a	n/a	n/a	n/a	n/a	n/a	n/a	n/a	n/a	n/a	n/a	n/a	n/a	n/a	n/a	fixation
178920.72269732575	2750	n/a	537	71	2750	111.277302674	stim	stop-signal	676	1832237	0.0-25.40-1.40	beast_fmri_test	275	1829904,/,1830585,/,1831265,/,1831945,/	t,t,t,t	<img class = center src='/static/experiments/beast_fmri_test/images/P.png'></img>	89,71	2750.0	test	<img class = center src='/static/experiments/beast_fmri_test/images/redP.png'></img>	go	2250.0	3.0	40.0	go	non-target	P	89,Middle Finger	71,Index Finger	600.0	500.0	2100.0	2250.0	1.0	500.0	1.0	n/a	go_stim
181670.72269732575	111.27730267416632	n/a	537	71	2750	111.277302674	stim	stop-signal	676	1832237	0.0-25.40-1.40	beast_fmri_test	275	1829904,/,1830585,/,1831265,/,1831945,/	t,t,t,t	<img class = center src='/static/experiments/beast_fmri_test/images/P.png'></img>	89,71	2750.0	test	<img class = center src='/static/experiments/beast_fmri_test/images/redP.png'></img>	go	2250.0	3.0	40.0	go	non-target	P	89,Middle Finger	71,Index Finger	600.0	500.0	2100.0	2250.0	1.0	500.0	1.0	n/a	ITI
182459	500	n/a	-1	-1	500	0.0	fixation	poldrack-single-stim	677	1832914	0.0-25.41-0.41	beast_fmri_test	275	1832624,/	t	<div class = centerbox2><div class = fixation>+</div></div>	none	500.0	test	n/a	n/a	n/a	n/a	n/a	n/a	n/a	n/a	n/a	n/a	n/a	n/a	n/a	n/a	n/a	n/a	n/a	n/a	fixation
181395.88907384966	2750	n/a	726	71	2750	1066.11092615	stim	stop-signal	678	1835667	0.0-25.41-1.41	beast_fmri_test	275	1833304,/,1833985,/,1834664,/,1835344,/,1836024,/,1836704,/	t,t,t,t,t,t	<img class = center src='/static/experiments/beast_fmri_test/images/P.png'></img>	89,71	2750.0	test	<img class = center src='/static/experiments/beast_fmri_test/images/redP.png'></img>	go	2250.0	3.0	41.0	go	non-target	P	89,Middle Finger	71,Index Finger	600.0	500.0	2100.0	2250.0	1.0	500.0	1.0	n/a	go_stim
184145.88907384966	1066.1109261502561	n/a	726	71	2750	1066.11092615	stim	stop-signal	678	1835667	0.0-25.41-1.41	beast_fmri_test	275	1833304,/,1833985,/,1834664,/,1835344,/,1836024,/,1836704,/	t,t,t,t,t,t	<img class = center src='/static/experiments/beast_fmri_test/images/P.png'></img>	89,71	2750.0	test	<img class = center src='/static/experiments/beast_fmri_test/images/redP.png'></img>	go	2250.0	3.0	41.0	go	non-target	P	89,Middle Finger	71,Index Finger	600.0	500.0	2100.0	2250.0	1.0	500.0	1.0	n/a	ITI
186843	500	n/a	-1	-1	500	0.0	fixation	poldrack-single-stim	679	1837298	0.0-25.42-0.42	beast_fmri_test	275	n/a	n/a	<div class = centerbox2><div class = fixation>+</div></div>	none	500.0	test	n/a	n/a	n/a	n/a	n/a	n/a	n/a	n/a	n/a	n/a	n/a	n/a	n/a	n/a	n/a	n/a	n/a	n/a	fixation
186250.84796979465	500.0	n/a	649	71	2750	593.152030205	stim	stop-signal	680	1840049	0.0-25.42-1.42	beast_fmri_test	275	1837382,/,1838061,/,1838740,/,1839420,/,1840100,/	t,t,t,t,t	<img class = center src='/static/experiments/beast_fmri_test/images/T.png'></img>	89,71	2750.0	test	<img class = center src='/static/experiments/beast_fmri_test/images/redT.png'></img>	stop	2250.0	3.0	42.0	stop	non-target	T	89,Middle Finger	71,Index Finger	600.0	500.0	2100.0	2250.0	0.0	500.0	n/a	0.0	go_stim
188500.84796979465	2250.0	n/a	649	71	2750	593.152030205	stim	stop-signal	680	1840049	0.0-25.42-1.42	beast_fmri_test	275	1837382,/,1838061,/,1838740,/,1839420,/,1840100,/	t,t,t,t,t	<img class = center src='/static/experiments/beast_fmri_test/images/T.png'></img>	89,71	2750.0	test	<img class = center src='/static/experiments/beast_fmri_test/images/redT.png'></img>	stop	2250.0	3.0	42.0	stop	non-target	T	89,Middle Finger	71,Index Finger	600.0	500.0	2100.0	2250.0	0.0	500.0	n/a	0.0	stop_stim
189000.84796979465	593.1520302054264	n/a	649	71	2750	593.152030205	stim	stop-signal	680	1840049	0.0-25.42-1.42	beast_fmri_test	275	1837382,/,1838061,/,1838740,/,1839420,/,1840100,/	t,t,t,t,t	<img class = center src='/static/experiments/beast_fmri_test/images/T.png'></img>	89,71	2750.0	test	<img class = center src='/static/experiments/beast_fmri_test/images/redT.png'></img>	stop	2250.0	3.0	42.0	stop	non-target	T	89,Middle Finger	71,Index Finger	600.0	500.0	2100.0	2250.0	0.0	500.0	n/a	0.0	ITI
190763	500	n/a	-1	-1	500	0.0	fixation	poldrack-single-stim	681	1841218	0.0-25.43-0.43	beast_fmri_test	275	1840786,/	t	<div class = centerbox2><div class = fixation>+</div></div>	none	500.0	test	n/a	n/a	n/a	n/a	n/a	n/a	n/a	n/a	n/a	n/a	n/a	n/a	n/a	n/a	n/a	n/a	n/a	n/a	fixation
188385.72728990461	450.0	n/a	-1	-1	2750	2381.2727101	stim	stop-signal	682	1843972	0.0-25.43-1.43	beast_fmri_test	275	1841461,/,1842140,/,1842820,/,1843500,/,1844180,/,1844860,/,1845541,/,1846221,/	t,t,t,t,t,t,t,t	<img class = center src='/static/experiments/beast_fmri_test/images/V.png'></img>	89,71	2750.0	test	<img class = center src='/static/experiments/beast_fmri_test/images/redV.png'></img>	stop	2300.0	3.0	43.0	stop	non-target	V	89,Middle Finger	71,Index Finger	600.0	450.0	2100.0	2300.0	0.0	450.0	n/a	1.0	go_stim
190685.72728990461	2300.0	n/a	-1	-1	2750	2381.2727101	stim	stop-signal	682	1843972	0.0-25.43-1.43	beast_fmri_test	275	1841461,/,1842140,/,1842820,/,1843500,/,1844180,/,1844860,/,1845541,/,1846221,/	t,t,t,t,t,t,t,t	<img class = center src='/static/experiments/beast_fmri_test/images/V.png'></img>	89,71	2750.0	test	<img class = center src='/static/experiments/beast_fmri_test/images/redV.png'></img>	stop	2300.0	3.0	43.0	stop	non-target	V	89,Middle Finger	71,Index Finger	600.0	450.0	2100.0	2300.0	0.0	450.0	n/a	1.0	stop_stim
191135.72728990461	2381.2727100953762	n/a	-1	-1	2750	2381.2727101	stim	stop-signal	682	1843972	0.0-25.43-1.43	beast_fmri_test	275	1841461,/,1842140,/,1842820,/,1843500,/,1844180,/,1844860,/,1845541,/,1846221,/	t,t,t,t,t,t,t,t	<img class = center src='/static/experiments/beast_fmri_test/images/V.png'></img>	89,71	2750.0	test	<img class = center src='/static/experiments/beast_fmri_test/images/redV.png'></img>	stop	2300.0	3.0	43.0	stop	non-target	V	89,Middle Finger	71,Index Finger	600.0	450.0	2100.0	2300.0	0.0	450.0	n/a	1.0	ITI
196477	500	n/a	-1	-1	500	0.0	fixation	poldrack-single-stim	683	1846932	0.0-25.44-0.44	beast_fmri_test	275	1846902,/	t	<div class = centerbox2><div class = fixation>+</div></div>	none	500.0	test	n/a	n/a	n/a	n/a	n/a	n/a	n/a	n/a	n/a	n/a	n/a	n/a	n/a	n/a	n/a	n/a	n/a	n/a	fixation
196157.08119690907	500.0	n/a	409	71	2750	318.918803091	stim	stop-signal	684	1849681	0.0-25.44-1.44	beast_fmri_test	275	1847577,/,1848254,/,1848936,/,1849615,/	t,t,t,t	<img class = center src='/static/experiments/beast_fmri_test/images/B.png'></img>	89,71	2750.0	test	<img class = center src='/static/experiments/beast_fmri_test/images/redB.png'></img>	stop	2250.0	3.0	44.0	stop	non-target	B	89,Middle Finger	71,Index Finger	600.0	500.0	2100.0	2250.0	0.0	500.0	n/a	0.0	go_stim
198407.08119690907	2250.0	n/a	409	71	2750	318.918803091	stim	stop-signal	684	1849681	0.0-25.44-1.44	beast_fmri_test	275	1847577,/,1848254,/,1848936,/,1849615,/	t,t,t,t	<img class = center src='/static/experiments/beast_fmri_test/images/B.png'></img>	89,71	2750.0	test	<img class = center src='/static/experiments/beast_fmri_test/images/redB.png'></img>	stop	2250.0	3.0	44.0	stop	non-target	B	89,Middle Finger	71,Index Finger	600.0	500.0	2100.0	2250.0	0.0	500.0	n/a	0.0	stop_stim
198907.08119690907	318.91880309085576	n/a	409	71	2750	318.918803091	stim	stop-signal	684	1849681	0.0-25.44-1.44	beast_fmri_test	275	1847577,/,1848254,/,1848936,/,1849615,/	t,t,t,t	<img class = center src='/static/experiments/beast_fmri_test/images/B.png'></img>	89,71	2750.0	test	<img class = center src='/static/experiments/beast_fmri_test/images/redB.png'></img>	stop	2250.0	3.0	44.0	stop	non-target	B	89,Middle Finger	71,Index Finger	600.0	500.0	2100.0	2250.0	0.0	500.0	n/a	0.0	ITI
200118	500	n/a	-1	-1	500	0.0	fixation	poldrack-single-stim	685	1850573	0.0-25.45-0.45	beast_fmri_test	275	1850296,/	t	<div class = centerbox2><div class = fixation>+</div></div>	none	500.0	test	n/a	n/a	n/a	n/a	n/a	n/a	n/a	n/a	n/a	n/a	n/a	n/a	n/a	n/a	n/a	n/a	n/a	n/a	fixation
199681.5994448429	600.0	n/a	755	89	2750	438.400555157	stim	stop-signal	686	1853325	0.0-25.45-1.45	beast_fmri_test	275	1850975,/,1851655,/,1852336,/,1853015,/,1853696,/	t,t,t,t,t	<img class = center src='/static/experiments/beast_fmri_test/images/T.png'></img>	89,71	2750.0	test	<img class = center src='/static/experiments/beast_fmri_test/images/redT.png'></img>	stop	2150.0	3.0	45.0	stop	target	T	89,Middle Finger	71,Index Finger	600.0	450.0	2150.0	2250.0	0.0	600.0	n/a	0.0	go_stim
201831.5994448429	2150.0	n/a	755	89	2750	438.400555157	stim	stop-signal	686	1853325	0.0-25.45-1.45	beast_fmri_test	275	1850975,/,1851655,/,1852336,/,1853015,/,1853696,/	t,t,t,t,t	<img class = center src='/static/experiments/beast_fmri_test/images/T.png'></img>	89,71	2750.0	test	<img class = center src='/static/experiments/beast_fmri_test/images/redT.png'></img>	stop	2150.0	3.0	45.0	stop	target	T	89,Middle Finger	71,Index Finger	600.0	450.0	2150.0	2250.0	0.0	600.0	n/a	0.0	stop_stim
202431.5994448429	438.40055515716551	n/a	755	89	2750	438.400555157	stim	stop-signal	686	1853325	0.0-25.45-1.45	beast_fmri_test	275	1850975,/,1851655,/,1852336,/,1853015,/,1853696,/	t,t,t,t,t	<img class = center src='/static/experiments/beast_fmri_test/images/T.png'></img>	89,71	2750.0	test	<img class = center src='/static/experiments/beast_fmri_test/images/redT.png'></img>	stop	2150.0	3.0	45.0	stop	target	T	89,Middle Finger	71,Index Finger	600.0	450.0	2150.0	2250.0	0.0	600.0	n/a	0.0	ITI
203876	500	n/a	-1	-1	500	0.0	fixation	poldrack-single-stim	687	1854331	0.0-25.46-0.46	beast_fmri_test	275	n/a	n/a	<div class = centerbox2><div class = fixation>+</div></div>	none	500.0	test	n/a	n/a	n/a	n/a	n/a	n/a	n/a	n/a	n/a	n/a	n/a	n/a	n/a	n/a	n/a	n/a	n/a	n/a	fixation
203376.62119068997	2750	n/a	495	71	2750	500.37880931	stim	stop-signal	688	1857082	0.0-25.46-1.46	beast_fmri_test	275	1854375,/,1855056,/,1855735,/,1856415,/,1857093,/	t,t,t,t,t	<img class = center src='/static/experiments/beast_fmri_test/images/T.png'></img>	89,71	2750.0	test	<img class = center src='/static/experiments/beast_fmri_test/images/redT.png'></img>	go	2300.0	3.0	46.0	go	non-target	T	89,Middle Finger	71,Index Finger	550.0	450.0	2150.0	2300.0	1.0	450.0	1.0	n/a	go_stim
206126.62119068997	500.37880931003991	n/a	495	71	2750	500.37880931	stim	stop-signal	688	1857082	0.0-25.46-1.46	beast_fmri_test	275	1854375,/,1855056,/,1855735,/,1856415,/,1857093,/	t,t,t,t,t	<img class = center src='/static/experiments/beast_fmri_test/images/T.png'></img>	89,71	2750.0	test	<img class = center src='/static/experiments/beast_fmri_test/images/redT.png'></img>	go	2300.0	3.0	46.0	go	non-target	T	89,Middle Finger	71,Index Finger	550.0	450.0	2150.0	2300.0	1.0	450.0	1.0	n/a	ITI
207695	500	n/a	-1	-1	500	0.0	fixation	poldrack-single-stim	689	1858150	0.0-25.47-0.47	beast_fmri_test	275	1857771,/	t	<div class = centerbox2><div class = fixation>+</div></div>	none	500.0	test	n/a	n/a	n/a	n/a	n/a	n/a	n/a	n/a	n/a	n/a	n/a	n/a	n/a	n/a	n/a	n/a	n/a	n/a	fixation
205908.99641274428	450.0	n/a	639	71	2750	1788.00358726	stim	stop-signal	690	1860902	0.0-25.47-1.47	beast_fmri_test	275	1858450,/,1859131,/,1859811,/,1860490,/,1861170,/,1861850,/,1862531,/	t,t,t,t,t,t,t	<img class = center src='/static/experiments/beast_fmri_test/images/T.png'></img>	89,71	2750.0	test	<img class = center src='/static/experiments/beast_fmri_test/images/redT.png'></img>	stop	2300.0	3.0	47.0	stop	non-target	T	89,Middle Finger	71,Index Finger	550.0	450.0	2150.0	2300.0	0.0	450.0	n/a	0.0	go_stim
208208.99641274428	2300.0	n/a	639	71	2750	1788.00358726	stim	stop-signal	690	1860902	0.0-25.47-1.47	beast_fmri_test	275	1858450,/,1859131,/,1859811,/,1860490,/,1861170,/,1861850,/,1862531,/	t,t,t,t,t,t,t	<img class = center src='/static/experiments/beast_fmri_test/images/T.png'></img>	89,71	2750.0	test	<img class = center src='/static/experiments/beast_fmri_test/images/redT.png'></img>	stop	2300.0	3.0	47.0	stop	non-target	T	89,Middle Finger	71,Index Finger	550.0	450.0	2150.0	2300.0	0.0	450.0	n/a	0.0	stop_stim
208658.99641274428	1788.003587255718	n/a	639	71	2750	1788.00358726	stim	stop-signal	690	1860902	0.0-25.47-1.47	beast_fmri_test	275	1858450,/,1859131,/,1859811,/,1860490,/,1861170,/,1861850,/,1862531,/	t,t,t,t,t,t,t	<img class = center src='/static/experiments/beast_fmri_test/images/T.png'></img>	89,71	2750.0	test	<img class = center src='/static/experiments/beast_fmri_test/images/redT.png'></img>	stop	2300.0	3.0	47.0	stop	non-target	T	89,Middle Finger	71,Index Finger	550.0	450.0	2150.0	2300.0	0.0	450.0	n/a	0.0	ITI
227299	15000	n/a	-1	-1	15000	0.0	practice-no-stop-feedback	poldrack-single-stim	691	1877754	0.0-26.0	beast_fmri_test	275	1863210,/,1863891,/,1864571,/,1865251,/,1865930,/,1866611,/,1867288,/,1867967,/,1868647,/,1869327,/,1870007,/,1870686,/,1871366,/,1872046,/,1872727,/,1873407,/,1874087,/,1874766,/,1875446,/,1876126,/,1876806,/,1877483,/	t,t,t,t,t,t,t,t,t,t,t,t,t,t,t,t,t,t,t,t,t,t	"<div class = ""centerbox""><p class = ""block-text"">Your delay is 2 trials.</p><p class = block-text>Please wait for the scanner to start the block</p></div>"	77	15000.0	n/a	n/a	n/a	n/a	n/a	n/a	n/a	n/a	n/a	n/a	n/a	n/a	n/a	n/a	n/a	n/a	n/a	n/a	n/a	practice-no-stop-feedback
227800	500	n/a	-1	-1	500	0.0	fixation	poldrack-single-stim	692	1878255	0.0-27.0-0.0	beast_fmri_test	275	1878161,/	t	<div class = centerbox2><div class = fixation>+</div></div>	none	500.0	test	n/a	n/a	n/a	n/a	n/a	n/a	n/a	n/a	n/a	n/a	n/a	n/a	n/a	n/a	n/a	n/a	n/a	n/a	fixation
227768.38193512824	2750	n/a	778	71	2750	35.6180648718	stim	stop-signal	693	1881009	0.0-27.0-1.0	beast_fmri_test	275	1878841,/,1879521,/,1880202,/,1880882,/	t,t,t,t	<img class = center src='/static/experiments/beast_fmri_test/images/B.png'></img>	89,71	2750.0	test	<img class = center src='/static/experiments/beast_fmri_test/images/redB.png'></img>	go	-1.0	2.0	0.0	go	temp-non-target	B	89,Middle Finger	71,Index Finger	550.0	400.0	2150.0	2300.0	0.0	n/a	n/a	n/a	go_stim
230518.38193512824	35.618064871823648	n/a	778	71	2750	35.6180648718	stim	stop-signal	693	1881009	0.0-27.0-1.0	beast_fmri_test	275	1878841,/,1879521,/,1880202,/,1880882,/	t,t,t,t	<img class = center src='/static/experiments/beast_fmri_test/images/B.png'></img>	89,71	2750.0	test	<img class = center src='/static/experiments/beast_fmri_test/images/redB.png'></img>	go	-1.0	2.0	0.0	go	temp-non-target	B	89,Middle Finger	71,Index Finger	550.0	400.0	2150.0	2300.0	0.0	n/a	n/a	n/a	ITI
231164	500	n/a	-1	-1	500	0.0	fixation	poldrack-single-stim	694	1881619	0.0-27.1-0.1	beast_fmri_test	275	1881561,/	t	<div class = centerbox2><div class = fixation>+</div></div>	none	500.0	test	n/a	n/a	n/a	n/a	n/a	n/a	n/a	n/a	n/a	n/a	n/a	n/a	n/a	n/a	n/a	n/a	n/a	n/a	fixation
230906.8388283907	2750	n/a	749	71	2750	260.161171609	stim	stop-signal	695	1884372	0.0-27.1-1.1	beast_fmri_test	275	1882242,/,1882921,/,1883601,/,1884281,/	t,t,t,t	<img class = center src='/static/experiments/beast_fmri_test/images/V.png'></img>	89,71	2750.0	test	<img class = center src='/static/experiments/beast_fmri_test/images/redV.png'></img>	go	-1.0	2.0	1.0	go	temp-non-target	V	89,Middle Finger	71,Index Finger	550.0	400.0	2150.0	2300.0	0.0	n/a	n/a	n/a	go_stim
233656.8388283907	260.16117160932771	n/a	749	71	2750	260.161171609	stim	stop-signal	695	1884372	0.0-27.1-1.1	beast_fmri_test	275	1882242,/,1882921,/,1883601,/,1884281,/	t,t,t,t	<img class = center src='/static/experiments/beast_fmri_test/images/V.png'></img>	89,71	2750.0	test	<img class = center src='/static/experiments/beast_fmri_test/images/redV.png'></img>	go	-1.0	2.0	1.0	go	temp-non-target	V	89,Middle Finger	71,Index Finger	550.0	400.0	2150.0	2300.0	0.0	n/a	n/a	n/a	ITI
234750	500	n/a	-1	-1	500	0.0	fixation	poldrack-single-stim	696	1885205	0.0-27.2-0.2	beast_fmri_test	275	1884961,/	t	<div class = centerbox2><div class = fixation>+</div></div>	none	500.0	test	n/a	n/a	n/a	n/a	n/a	n/a	n/a	n/a	n/a	n/a	n/a	n/a	n/a	n/a	n/a	n/a	n/a	n/a	fixation
234371.11799077736	550.0	n/a	555	89	2750	376.882009223	stim	stop-signal	697	1887953	0.0-27.2-1.2	beast_fmri_test	275	1885642,/,1886322,/,1887000,/,1887677,/	t,t,t,t	<img class = center src='/static/experiments/beast_fmri_test/images/B.png'></img>	89,71	2750.0	test	<img class = center src='/static/experiments/beast_fmri_test/images/redB.png'></img>	stop	2200.0	2.0	2.0	stop	target	B	89,Middle Finger	71,Index Finger	550.0	400.0	2200.0	2300.0	0.0	550.0	n/a	0.0	go_stim
236571.11799077736	2200.0	n/a	555	89	2750	376.882009223	stim	stop-signal	697	1887953	0.0-27.2-1.2	beast_fmri_test	275	1885642,/,1886322,/,1887000,/,1887677,/	t,t,t,t	<img class = center src='/static/experiments/beast_fmri_test/images/B.png'></img>	89,71	2750.0	test	<img class = center src='/static/experiments/beast_fmri_test/images/redB.png'></img>	stop	2200.0	2.0	2.0	stop	target	B	89,Middle Finger	71,Index Finger	550.0	400.0	2200.0	2300.0	0.0	550.0	n/a	0.0	stop_stim
237121.11799077736	376.88200922274933	n/a	555	89	2750	376.882009223	stim	stop-signal	697	1887953	0.0-27.2-1.2	beast_fmri_test	275	1885642,/,1886322,/,1887000,/,1887677,/	t,t,t,t	<img class = center src='/static/experiments/beast_fmri_test/images/B.png'></img>	89,71	2750.0	test	<img class = center src='/static/experiments/beast_fmri_test/images/redB.png'></img>	stop	2200.0	2.0	2.0	stop	target	B	89,Middle Finger	71,Index Finger	550.0	400.0	2200.0	2300.0	0.0	550.0	n/a	0.0	ITI
238445	500	n/a	-1	-1	500	0.0	fixation	poldrack-single-stim	698	1888900	0.0-27.3-0.3	beast_fmri_test	275	1888398,/	t	<div class = centerbox2><div class = fixation>+</div></div>	none	500.0	test	n/a	n/a	n/a	n/a	n/a	n/a	n/a	n/a	n/a	n/a	n/a	n/a	n/a	n/a	n/a	n/a	n/a	n/a	fixation
234883.1938911234	400.0	n/a	456	71	2750	3564.80610888	stim	stop-signal	699	1891653	0.0-27.3-1.3	beast_fmri_test	275	1889038,/,1889716,/,1890397,/,1891076,/,1891757,/,1892436,/,1893116,/,1893796,/,1894477,/,1895157,/	t,t,t,t,t,t,t,t,t,t	<img class = center src='/static/experiments/beast_fmri_test/images/T.png'></img>	89,71	2750.0	test	<img class = center src='/static/experiments/beast_fmri_test/images/redT.png'></img>	stop	2350.0	2.0	3.0	stop	non-target	T	89,Middle Finger	71,Index Finger	500.0	400.0	2200.0	2350.0	0.0	400.0	n/a	0.0	go_stim
237233.1938911234	2350.0	n/a	456	71	2750	3564.80610888	stim	stop-signal	699	1891653	0.0-27.3-1.3	beast_fmri_test	275	1889038,/,1889716,/,1890397,/,1891076,/,1891757,/,1892436,/,1893116,/,1893796,/,1894477,/,1895157,/	t,t,t,t,t,t,t,t,t,t	<img class = center src='/static/experiments/beast_fmri_test/images/T.png'></img>	89,71	2750.0	test	<img class = center src='/static/experiments/beast_fmri_test/images/redT.png'></img>	stop	2350.0	2.0	3.0	stop	non-target	T	89,Middle Finger	71,Index Finger	500.0	400.0	2200.0	2350.0	0.0	400.0	n/a	0.0	stop_stim
237633.1938911234	3564.8061088765571	n/a	456	71	2750	3564.80610888	stim	stop-signal	699	1891653	0.0-27.3-1.3	beast_fmri_test	275	1889038,/,1889716,/,1890397,/,1891076,/,1891757,/,1892436,/,1893116,/,1893796,/,1894477,/,1895157,/	t,t,t,t,t,t,t,t,t,t	<img class = center src='/static/experiments/beast_fmri_test/images/T.png'></img>	89,71	2750.0	test	<img class = center src='/static/experiments/beast_fmri_test/images/redT.png'></img>	stop	2350.0	2.0	3.0	stop	non-target	T	89,Middle Finger	71,Index Finger	500.0	400.0	2200.0	2350.0	0.0	400.0	n/a	0.0	ITI
245334	500	n/a	-1	-1	500	0.0	fixation	poldrack-single-stim	700	1895789	0.0-27.4-0.4	beast_fmri_test	275	n/a	n/a	<div class = centerbox2><div class = fixation>+</div></div>	none	500.0	test	n/a	n/a	n/a	n/a	n/a	n/a	n/a	n/a	n/a	n/a	n/a	n/a	n/a	n/a	n/a	n/a	n/a	n/a	fixation
243874.615938253	2750	n/a	536	71	2750	1458.38406175	stim	stop-signal	701	1898538	0.0-27.4-1.4	beast_fmri_test	275	1895836,/,1896518,/,1897196,/,1897872,/,1898552,/,1899233,/,1899912,/	t,t,t,t,t,t,t	<img class = center src='/static/experiments/beast_fmri_test/images/V.png'></img>	89,71	2750.0	test	<img class = center src='/static/experiments/beast_fmri_test/images/redV.png'></img>	go	2400.0	2.0	4.0	go	non-target	V	89,Middle Finger	71,Index Finger	500.0	350.0	2200.0	2400.0	1.0	350.0	1.0	n/a	go_stim
246624.615938253	1458.384061746923	n/a	536	71	2750	1458.38406175	stim	stop-signal	701	1898538	0.0-27.4-1.4	beast_fmri_test	275	1895836,/,1896518,/,1897196,/,1897872,/,1898552,/,1899233,/,1899912,/	t,t,t,t,t,t,t	<img class = center src='/static/experiments/beast_fmri_test/images/V.png'></img>	89,71	2750.0	test	<img class = center src='/static/experiments/beast_fmri_test/images/redV.png'></img>	go	2400.0	2.0	4.0	go	non-target	V	89,Middle Finger	71,Index Finger	500.0	350.0	2200.0	2400.0	1.0	350.0	1.0	n/a	ITI
250112	500	n/a	-1	-1	500	0.0	fixation	poldrack-single-stim	702	1900567	0.0-27.5-0.5	beast_fmri_test	275	n/a	n/a	<div class = centerbox2><div class = fixation>+</div></div>	none	500.0	test	n/a	n/a	n/a	n/a	n/a	n/a	n/a	n/a	n/a	n/a	n/a	n/a	n/a	n/a	n/a	n/a	n/a	n/a	fixation
249350.63861500006	2750	n/a	428	71	2750	764.361385	stim	stop-signal	703	1903320	0.0-27.5-1.5	beast_fmri_test	275	1900594,/,1901272,/,1901952,/,1902632,/,1903312,/,1903993,/	t,t,t,t,t,t	<img class = center src='/static/experiments/beast_fmri_test/images/D.png'></img>	89,71	2750.0	test	<img class = center src='/static/experiments/beast_fmri_test/images/redD.png'></img>	go	2400.0	2.0	5.0	go	non-target	D	89,Middle Finger	71,Index Finger	500.0	350.0	2200.0	2400.0	1.0	350.0	1.0	n/a	go_stim
252100.63861500006	764.36138500001721	n/a	428	71	2750	764.361385	stim	stop-signal	703	1903320	0.0-27.5-1.5	beast_fmri_test	275	1900594,/,1901272,/,1901952,/,1902632,/,1903312,/,1903993,/	t,t,t,t,t,t	<img class = center src='/static/experiments/beast_fmri_test/images/D.png'></img>	89,71	2750.0	test	<img class = center src='/static/experiments/beast_fmri_test/images/redD.png'></img>	go	2400.0	2.0	5.0	go	non-target	D	89,Middle Finger	71,Index Finger	500.0	350.0	2200.0	2400.0	1.0	350.0	1.0	n/a	ITI
254204	500	n/a	-1	-1	500	0.0	fixation	poldrack-single-stim	704	1904659	0.0-27.6-0.6	beast_fmri_test	275	n/a	n/a	<div class = centerbox2><div class = fixation>+</div></div>	none	500.0	test	n/a	n/a	n/a	n/a	n/a	n/a	n/a	n/a	n/a	n/a	n/a	n/a	n/a	n/a	n/a	n/a	n/a	n/a	fixation
253941.7002554324	2750	n/a	394	71	2750	262.299744568	stim	stop-signal	705	1907409	0.0-27.6-1.6	beast_fmri_test	275	1904675,/,1905353,/,1906033,/,1906713,/,1907390,/	t,t,t,t,t	<img class = center src='/static/experiments/beast_fmri_test/images/B.png'></img>	89,71	2750.0	test	<img class = center src='/static/experiments/beast_fmri_test/images/redB.png'></img>	go	2400.0	2.0	6.0	go	non-target	B	89,Middle Finger	71,Index Finger	500.0	350.0	2200.0	2400.0	1.0	350.0	1.0	n/a	go_stim
256691.7002554324	262.29974456754132	n/a	394	71	2750	262.299744568	stim	stop-signal	705	1907409	0.0-27.6-1.6	beast_fmri_test	275	1904675,/,1905353,/,1906033,/,1906713,/,1907390,/	t,t,t,t,t	<img class = center src='/static/experiments/beast_fmri_test/images/B.png'></img>	89,71	2750.0	test	<img class = center src='/static/experiments/beast_fmri_test/images/redB.png'></img>	go	2400.0	2.0	6.0	go	non-target	B	89,Middle Finger	71,Index Finger	500.0	350.0	2200.0	2400.0	1.0	350.0	1.0	n/a	ITI
257790	500	n/a	-1	-1	500	0.0	fixation	poldrack-single-stim	706	1908245	0.0-27.7-0.7	beast_fmri_test	275	1908067,/	t	<div class = centerbox2><div class = fixation>+</div></div>	none	500.0	test	n/a	n/a	n/a	n/a	n/a	n/a	n/a	n/a	n/a	n/a	n/a	n/a	n/a	n/a	n/a	n/a	n/a	n/a	fixation
256804.88774070889	2750	n/a	554	71	2750	987.112259291	stim	stop-signal	707	1910997	0.0-27.7-1.7	beast_fmri_test	275	1908747,/,1909427,/,1910108,/,1910787,/,1911468,/	t,t,t,t,t	<img class = center src='/static/experiments/beast_fmri_test/images/V.png'></img>	89,71	2750.0	test	<img class = center src='/static/experiments/beast_fmri_test/images/redV.png'></img>	go	2400.0	2.0	7.0	go	non-target	V	89,Middle Finger	71,Index Finger	500.0	350.0	2200.0	2400.0	1.0	350.0	1.0	n/a	go_stim
259554.88774070889	987.11225929118757	n/a	554	71	2750	987.112259291	stim	stop-signal	707	1910997	0.0-27.7-1.7	beast_fmri_test	275	1908747,/,1909427,/,1910108,/,1910787,/,1911468,/	t,t,t,t,t	<img class = center src='/static/experiments/beast_fmri_test/images/V.png'></img>	89,71	2750.0	test	<img class = center src='/static/experiments/beast_fmri_test/images/redV.png'></img>	go	2400.0	2.0	7.0	go	non-target	V	89,Middle Finger	71,Index Finger	500.0	350.0	2200.0	2400.0	1.0	350.0	1.0	n/a	ITI
262107	500	n/a	-1	-1	500	0.0	fixation	poldrack-single-stim	708	1912562	0.0-27.8-0.8	beast_fmri_test	275	1912147,/	t	<div class = centerbox2><div class = fixation>+</div></div>	none	500.0	test	n/a	n/a	n/a	n/a	n/a	n/a	n/a	n/a	n/a	n/a	n/a	n/a	n/a	n/a	n/a	n/a	n/a	n/a	fixation
262011.36718701432	2750	n/a	725	89	2750	98.6328129856	stim	stop-signal	709	1915315	0.0-27.8-1.8	beast_fmri_test	275	1912828,/,1913508,/,1914189,/,1914867,/	t,t,t,t	<img class = center src='/static/experiments/beast_fmri_test/images/B.png'></img>	89,71	2750.0	test	<img class = center src='/static/experiments/beast_fmri_test/images/redB.png'></img>	go	2250.0	2.0	8.0	go	target	B	89,Middle Finger	71,Index Finger	500.0	350.0	2250.0	2400.0	1.0	500.0	1.0	n/a	go_stim
264761.36718701432	98.632812985581154	n/a	725	89	2750	98.6328129856	stim	stop-signal	709	1915315	0.0-27.8-1.8	beast_fmri_test	275	1912828,/,1913508,/,1914189,/,1914867,/	t,t,t,t	<img class = center src='/static/experiments/beast_fmri_test/images/B.png'></img>	89,71	2750.0	test	<img class = center src='/static/experiments/beast_fmri_test/images/redB.png'></img>	go	2250.0	2.0	8.0	go	target	B	89,Middle Finger	71,Index Finger	500.0	350.0	2250.0	2400.0	1.0	500.0	1.0	n/a	ITI
265528	500	n/a	-1	-1	500	0.0	fixation	poldrack-single-stim	710	1915983	0.0-27.9-0.9	beast_fmri_test	275	1915548,/	t	<div class = centerbox2><div class = fixation>+</div></div>	none	500.0	test	n/a	n/a	n/a	n/a	n/a	n/a	n/a	n/a	n/a	n/a	n/a	n/a	n/a	n/a	n/a	n/a	n/a	n/a	fixation
261163.81949667283	2750	n/a	725	89	2750	4361.18050333	stim	stop-signal	711	1918730	0.0-27.9-1.9	beast_fmri_test	275	1916227,/,1916907,/,1917585,/,1918262,/,1918944,/,1919622,/,1920304,/,1920983,/,1921664,/,1922343,/,1923023,/	t,t,t,t,t,t,t,t,t,t,t	<img class = center src='/static/experiments/beast_fmri_test/images/B.png'></img>	89,71	2750.0	test	<img class = center src='/static/experiments/beast_fmri_test/images/redB.png'></img>	go	2400.0	2.0	9.0	go	non-target	B	89,Middle Finger	71,Index Finger	500.0	350.0	2250.0	2400.0	0.0	350.0	0.0	n/a	go_stim
263913.81949667283	4361.180503327153	n/a	725	89	2750	4361.18050333	stim	stop-signal	711	1918730	0.0-27.9-1.9	beast_fmri_test	275	1916227,/,1916907,/,1917585,/,1918262,/,1918944,/,1919622,/,1920304,/,1920983,/,1921664,/,1922343,/,1923023,/	t,t,t,t,t,t,t,t,t,t,t	<img class = center src='/static/experiments/beast_fmri_test/images/B.png'></img>	89,71	2750.0	test	<img class = center src='/static/experiments/beast_fmri_test/images/redB.png'></img>	go	2400.0	2.0	9.0	go	non-target	B	89,Middle Finger	71,Index Finger	500.0	350.0	2250.0	2400.0	0.0	350.0	0.0	n/a	ITI
273207	500	n/a	-1	-1	500	0.0	fixation	poldrack-single-stim	712	1923662	0.0-27.10-0.10	beast_fmri_test	275	n/a	n/a	<div class = centerbox2><div class = fixation>+</div></div>	none	500.0	test	n/a	n/a	n/a	n/a	n/a	n/a	n/a	n/a	n/a	n/a	n/a	n/a	n/a	n/a	n/a	n/a	n/a	n/a	fixation
272924.96320893103	2750	n/a	619	71	2750	285.036791069	stim	stop-signal	713	1926415	0.0-27.10-1.10	beast_fmri_test	275	1923710,/,1924384,/,1925064,/,1925743,/,1926425,/	t,t,t,t,t	<img class = center src='/static/experiments/beast_fmri_test/images/V.png'></img>	89,71	2750.0	test	<img class = center src='/static/experiments/beast_fmri_test/images/redV.png'></img>	go	2400.0	2.0	10.0	go	non-target	V	89,Middle Finger	71,Index Finger	500.0	350.0	2250.0	2400.0	1.0	350.0	1.0	n/a	go_stim
275674.96320893103	285.03679106887716	n/a	619	71	2750	285.036791069	stim	stop-signal	713	1926415	0.0-27.10-1.10	beast_fmri_test	275	1923710,/,1924384,/,1925064,/,1925743,/,1926425,/	t,t,t,t,t	<img class = center src='/static/experiments/beast_fmri_test/images/V.png'></img>	89,71	2750.0	test	<img class = center src='/static/experiments/beast_fmri_test/images/redV.png'></img>	go	2400.0	2.0	10.0	go	non-target	V	89,Middle Finger	71,Index Finger	500.0	350.0	2250.0	2400.0	1.0	350.0	1.0	n/a	ITI
276818	500	n/a	-1	-1	500	0.0	fixation	poldrack-single-stim	714	1927273	0.0-27.11-0.11	beast_fmri_test	275	1927102,/	t	<div class = centerbox2><div class = fixation>+</div></div>	none	500.0	test	n/a	n/a	n/a	n/a	n/a	n/a	n/a	n/a	n/a	n/a	n/a	n/a	n/a	n/a	n/a	n/a	n/a	n/a	fixation
276814.05789512955	350.0	n/a	-1	-1	2750	3.94210487056	stim	stop-signal	715	1930023	0.0-27.11-1.11	beast_fmri_test	275	1927779,/,1928459,/,1929138,/,1929818,/	t,t,t,t	<img class = center src='/static/experiments/beast_fmri_test/images/P.png'></img>	89,71	2750.0	test	<img class = center src='/static/experiments/beast_fmri_test/images/redP.png'></img>	stop	2400.0	2.0	11.0	stop	non-target	P	89,Middle Finger	71,Index Finger	500.0	350.0	2250.0	2400.0	0.0	350.0	n/a	1.0	go_stim
279214.05789512955	2400.0	n/a	-1	-1	2750	3.94210487056	stim	stop-signal	715	1930023	0.0-27.11-1.11	beast_fmri_test	275	1927779,/,1928459,/,1929138,/,1929818,/	t,t,t,t	<img class = center src='/static/experiments/beast_fmri_test/images/P.png'></img>	89,71	2750.0	test	<img class = center src='/static/experiments/beast_fmri_test/images/redP.png'></img>	stop	2400.0	2.0	11.0	stop	non-target	P	89,Middle Finger	71,Index Finger	500.0	350.0	2250.0	2400.0	0.0	350.0	n/a	1.0	stop_stim
279564.05789512955	3.9421048705605179	n/a	-1	-1	2750	3.94210487056	stim	stop-signal	715	1930023	0.0-27.11-1.11	beast_fmri_test	275	1927779,/,1928459,/,1929138,/,1929818,/	t,t,t,t	<img class = center src='/static/experiments/beast_fmri_test/images/P.png'></img>	89,71	2750.0	test	<img class = center src='/static/experiments/beast_fmri_test/images/redP.png'></img>	stop	2400.0	2.0	11.0	stop	non-target	P	89,Middle Finger	71,Index Finger	500.0	350.0	2250.0	2400.0	0.0	350.0	n/a	1.0	ITI
280146	500	n/a	-1	-1	500	0.0	fixation	poldrack-single-stim	716	1930601	0.0-27.12-0.12	beast_fmri_test	275	1930499,/	t	<div class = centerbox2><div class = fixation>+</div></div>	none	500.0	test	n/a	n/a	n/a	n/a	n/a	n/a	n/a	n/a	n/a	n/a	n/a	n/a	n/a	n/a	n/a	n/a	n/a	n/a	fixation
278569.80745842773	2750	n/a	843	71	2750	1578.19254157	stim	stop-signal	717	1933353	0.0-27.12-1.12	beast_fmri_test	275	1931178,/,1931858,/,1932540,/,1933220,/,1933899,/,1934579,/	t,t,t,t,t,t	<img class = center src='/static/experiments/beast_fmri_test/images/P.png'></img>	89,71	2750.0	test	<img class = center src='/static/experiments/beast_fmri_test/images/redP.png'></img>	go	2350.0	2.0	12.0	go	non-target	P	89,Middle Finger	71,Index Finger	500.0	400.0	2250.0	2350.0	1.0	400.0	1.0	n/a	go_stim
281319.80745842773	1578.1925415723481	n/a	843	71	2750	1578.19254157	stim	stop-signal	717	1933353	0.0-27.12-1.12	beast_fmri_test	275	1931178,/,1931858,/,1932540,/,1933220,/,1933899,/,1934579,/	t,t,t,t,t,t	<img class = center src='/static/experiments/beast_fmri_test/images/P.png'></img>	89,71	2750.0	test	<img class = center src='/static/experiments/beast_fmri_test/images/redP.png'></img>	go	2350.0	2.0	12.0	go	non-target	P	89,Middle Finger	71,Index Finger	500.0	400.0	2250.0	2350.0	1.0	400.0	1.0	n/a	ITI
285063	500	n/a	-1	-1	500	0.0	fixation	poldrack-single-stim	718	1935518	0.0-27.13-0.13	beast_fmri_test	275	1935260,/	t	<div class = centerbox2><div class = fixation>+</div></div>	none	500.0	test	n/a	n/a	n/a	n/a	n/a	n/a	n/a	n/a	n/a	n/a	n/a	n/a	n/a	n/a	n/a	n/a	n/a	n/a	fixation
284171.53880984709	400.0	n/a	444	71	2750	890.461190153	stim	stop-signal	719	1938267	0.0-27.13-1.13	beast_fmri_test	275	1935938,/,1936619,/,1937296,/,1937975,/,1938654,/	t,t,t,t,t	<img class = center src='/static/experiments/beast_fmri_test/images/B.png'></img>	89,71	2750.0	test	<img class = center src='/static/experiments/beast_fmri_test/images/redB.png'></img>	stop	2350.0	2.0	13.0	stop	non-target	B	89,Middle Finger	71,Index Finger	500.0	400.0	2250.0	2350.0	0.0	400.0	n/a	0.0	go_stim
286521.53880984709	2350.0	n/a	444	71	2750	890.461190153	stim	stop-signal	719	1938267	0.0-27.13-1.13	beast_fmri_test	275	1935938,/,1936619,/,1937296,/,1937975,/,1938654,/	t,t,t,t,t	<img class = center src='/static/experiments/beast_fmri_test/images/B.png'></img>	89,71	2750.0	test	<img class = center src='/static/experiments/beast_fmri_test/images/redB.png'></img>	stop	2350.0	2.0	13.0	stop	non-target	B	89,Middle Finger	71,Index Finger	500.0	400.0	2250.0	2350.0	0.0	400.0	n/a	0.0	stop_stim
286921.53880984709	890.4611901529122	n/a	444	71	2750	890.461190153	stim	stop-signal	719	1938267	0.0-27.13-1.13	beast_fmri_test	275	1935938,/,1936619,/,1937296,/,1937975,/,1938654,/	t,t,t,t,t	<img class = center src='/static/experiments/beast_fmri_test/images/B.png'></img>	89,71	2750.0	test	<img class = center src='/static/experiments/beast_fmri_test/images/redB.png'></img>	stop	2350.0	2.0	13.0	stop	non-target	B	89,Middle Finger	71,Index Finger	500.0	400.0	2250.0	2350.0	0.0	400.0	n/a	0.0	ITI
289275	500	n/a	-1	-1	500	0.0	fixation	poldrack-single-stim	720	1939730	0.0-27.14-0.14	beast_fmri_test	275	1939334,/	t	<div class = centerbox2><div class = fixation>+</div></div>	none	500.0	test	n/a	n/a	n/a	n/a	n/a	n/a	n/a	n/a	n/a	n/a	n/a	n/a	n/a	n/a	n/a	n/a	n/a	n/a	fixation
288970.77146006864	2750	n/a	481	89	2750	307.228539931	stim	stop-signal	721	1942483	0.0-27.14-1.14	beast_fmri_test	275	1940014,/,1940693,/,1941373,/,1942053,/,1942733,/	t,t,t,t,t	<img class = center src='/static/experiments/beast_fmri_test/images/P.png'></img>	89,71	2750.0	test	<img class = center src='/static/experiments/beast_fmri_test/images/redP.png'></img>	go	2250.0	2.0	14.0	go	target	P	89,Middle Finger	71,Index Finger	500.0	350.0	2250.0	2350.0	1.0	500.0	1.0	n/a	go_stim
291720.77146006864	307.22853993139381	n/a	481	89	2750	307.228539931	stim	stop-signal	721	1942483	0.0-27.14-1.14	beast_fmri_test	275	1940014,/,1940693,/,1941373,/,1942053,/,1942733,/	t,t,t,t,t	<img class = center src='/static/experiments/beast_fmri_test/images/P.png'></img>	89,71	2750.0	test	<img class = center src='/static/experiments/beast_fmri_test/images/redP.png'></img>	go	2250.0	2.0	14.0	go	target	P	89,Middle Finger	71,Index Finger	500.0	350.0	2250.0	2350.0	1.0	500.0	1.0	n/a	ITI
292915	500	n/a	-1	-1	500	0.0	fixation	poldrack-single-stim	722	1943370	0.0-27.15-0.15	beast_fmri_test	275	n/a	n/a	<div class = centerbox2><div class = fixation>+</div></div>	none	500.0	test	n/a	n/a	n/a	n/a	n/a	n/a	n/a	n/a	n/a	n/a	n/a	n/a	n/a	n/a	n/a	n/a	n/a	n/a	fixation
292304.49189112661	2750	n/a	421	71	2750	613.508108873	stim	stop-signal	723	1946123	0.0-27.15-1.15	beast_fmri_test	275	1943414,/,1944094,/,1944774,/,1945454,/,1946134,/	t,t,t,t,t	<img class = center src='/static/experiments/beast_fmri_test/images/T.png'></img>	89,71	2750.0	test	<img class = center src='/static/experiments/beast_fmri_test/images/redT.png'></img>	go	2400.0	2.0	15.0	go	non-target	T	89,Middle Finger	71,Index Finger	500.0	350.0	2250.0	2400.0	1.0	350.0	1.0	n/a	go_stim
295054.49189112661	613.50810887342993	n/a	421	71	2750	613.508108873	stim	stop-signal	723	1946123	0.0-27.15-1.15	beast_fmri_test	275	1943414,/,1944094,/,1944774,/,1945454,/,1946134,/	t,t,t,t,t	<img class = center src='/static/experiments/beast_fmri_test/images/T.png'></img>	89,71	2750.0	test	<img class = center src='/static/experiments/beast_fmri_test/images/redT.png'></img>	go	2400.0	2.0	15.0	go	non-target	T	89,Middle Finger	71,Index Finger	500.0	350.0	2250.0	2400.0	1.0	350.0	1.0	n/a	ITI
296850	500	n/a	-1	-1	500	0.0	fixation	poldrack-single-stim	724	1947305	0.0-27.16-0.16	beast_fmri_test	275	1946815,/	t	<div class = centerbox2><div class = fixation>+</div></div>	none	500.0	test	n/a	n/a	n/a	n/a	n/a	n/a	n/a	n/a	n/a	n/a	n/a	n/a	n/a	n/a	n/a	n/a	n/a	n/a	fixation
295956.09890556429	2750	n/a	1068	89	2750	895.901094436	stim	stop-signal	725	1950057	0.0-27.16-1.16	beast_fmri_test	275	1947492,/,1948170,/,1948850,/,1949528,/,1950208,/,1950889,/	t,t,t,t,t,t	<img class = center src='/static/experiments/beast_fmri_test/images/P.png'></img>	89,71	2750.0	test	<img class = center src='/static/experiments/beast_fmri_test/images/redP.png'></img>	go	2250.0	2.0	16.0	go	target	P	89,Middle Finger	71,Index Finger	500.0	350.0	2250.0	2400.0	1.0	500.0	1.0	n/a	go_stim
298706.09890556429	895.90109443569384	n/a	1068	89	2750	895.901094436	stim	stop-signal	725	1950057	0.0-27.16-1.16	beast_fmri_test	275	1947492,/,1948170,/,1948850,/,1949528,/,1950208,/,1950889,/	t,t,t,t,t,t	<img class = center src='/static/experiments/beast_fmri_test/images/P.png'></img>	89,71	2750.0	test	<img class = center src='/static/experiments/beast_fmri_test/images/redP.png'></img>	go	2250.0	2.0	16.0	go	target	P	89,Middle Finger	71,Index Finger	500.0	350.0	2250.0	2400.0	1.0	500.0	1.0	n/a	ITI
301074	500	n/a	-1	-1	500	0.0	fixation	poldrack-single-stim	726	1951529	0.0-27.17-0.17	beast_fmri_test	275	n/a	n/a	<div class = centerbox2><div class = fixation>+</div></div>	none	500.0	test	n/a	n/a	n/a	n/a	n/a	n/a	n/a	n/a	n/a	n/a	n/a	n/a	n/a	n/a	n/a	n/a	n/a	n/a	fixation
300568.7303539766	2750	n/a	825	71	2750	508.269646023	stim	stop-signal	727	1954282	0.0-27.17-1.17	beast_fmri_test	275	1951568,/,1952250,/,1952929,/,1953610,/,1954290,/	t,t,t,t,t	<img class = center src='/static/experiments/beast_fmri_test/images/T.png'></img>	89,71	2750.0	test	<img class = center src='/static/experiments/beast_fmri_test/images/redT.png'></img>	go	2250.0	2.0	17.0	go	target	T	89,Middle Finger	71,Index Finger	500.0	350.0	2250.0	2400.0	0.0	500.0	0.0	n/a	go_stim
303318.7303539766	508.26964602328621	n/a	825	71	2750	508.269646023	stim	stop-signal	727	1954282	0.0-27.17-1.17	beast_fmri_test	275	1951568,/,1952250,/,1952929,/,1953610,/,1954290,/	t,t,t,t,t	<img class = center src='/static/experiments/beast_fmri_test/images/T.png'></img>	89,71	2750.0	test	<img class = center src='/static/experiments/beast_fmri_test/images/redT.png'></img>	go	2250.0	2.0	17.0	go	target	T	89,Middle Finger	71,Index Finger	500.0	350.0	2250.0	2400.0	0.0	500.0	0.0	n/a	ITI
304912	500	n/a	-1	-1	500	0.0	fixation	poldrack-single-stim	728	1955367	0.0-27.18-0.18	beast_fmri_test	275	1954969,/	t	<div class = centerbox2><div class = fixation>+</div></div>	none	500.0	test	n/a	n/a	n/a	n/a	n/a	n/a	n/a	n/a	n/a	n/a	n/a	n/a	n/a	n/a	n/a	n/a	n/a	n/a	fixation
304599.69179628021	500.0	n/a	542	71	2750	309.30820372	stim	stop-signal	729	1958114	0.0-27.18-1.18	beast_fmri_test	275	1955649,/,1956331,/,1957009,/,1957686,/,1958365,/	t,t,t,t,t	<img class = center src='/static/experiments/beast_fmri_test/images/P.png'></img>	89,71	2750.0	test	<img class = center src='/static/experiments/beast_fmri_test/images/redP.png'></img>	stop	2250.0	2.0	18.0	stop	target	P	89,Middle Finger	71,Index Finger	500.0	350.0	2250.0	2400.0	0.0	500.0	n/a	0.0	go_stim
306849.69179628021	2250.0	n/a	542	71	2750	309.30820372	stim	stop-signal	729	1958114	0.0-27.18-1.18	beast_fmri_test	275	1955649,/,1956331,/,1957009,/,1957686,/,1958365,/	t,t,t,t,t	<img class = center src='/static/experiments/beast_fmri_test/images/P.png'></img>	89,71	2750.0	test	<img class = center src='/static/experiments/beast_fmri_test/images/redP.png'></img>	stop	2250.0	2.0	18.0	stop	target	P	89,Middle Finger	71,Index Finger	500.0	350.0	2250.0	2400.0	0.0	500.0	n/a	0.0	stop_stim
307349.69179628021	309.30820371970736	n/a	542	71	2750	309.30820372	stim	stop-signal	729	1958114	0.0-27.18-1.18	beast_fmri_test	275	1955649,/,1956331,/,1957009,/,1957686,/,1958365,/	t,t,t,t,t	<img class = center src='/static/experiments/beast_fmri_test/images/P.png'></img>	89,71	2750.0	test	<img class = center src='/static/experiments/beast_fmri_test/images/redP.png'></img>	stop	2250.0	2.0	18.0	stop	target	P	89,Middle Finger	71,Index Finger	500.0	350.0	2250.0	2400.0	0.0	500.0	n/a	0.0	ITI
308544	500	n/a	-1	-1	500	0.0	fixation	poldrack-single-stim	730	1958999	0.0-27.19-0.19	beast_fmri_test	275	n/a	n/a	<div class = centerbox2><div class = fixation>+</div></div>	none	500.0	test	n/a	n/a	n/a	n/a	n/a	n/a	n/a	n/a	n/a	n/a	n/a	n/a	n/a	n/a	n/a	n/a	n/a	n/a	fixation
307134.33285850799	2750	n/a	1088	89	2750	1412.66714149	stim	stop-signal	731	1961752	0.0-27.19-1.19	beast_fmri_test	275	1959044,/,1959724,/,1960404,/,1961084,/,1961764,/,1962444,/,1963125,/	t,t,t,t,t,t,t	<img class = center src='/static/experiments/beast_fmri_test/images/T.png'></img>	89,71	2750.0	test	<img class = center src='/static/experiments/beast_fmri_test/images/redT.png'></img>	go	2300.0	2.0	19.0	go	target	T	89,Middle Finger	71,Index Finger	450.0	350.0	2300.0	2400.0	1.0	450.0	1.0	n/a	go_stim
309884.33285850799	1412.6671414920945	n/a	1088	89	2750	1412.66714149	stim	stop-signal	731	1961752	0.0-27.19-1.19	beast_fmri_test	275	1959044,/,1959724,/,1960404,/,1961084,/,1961764,/,1962444,/,1963125,/	t,t,t,t,t,t,t	<img class = center src='/static/experiments/beast_fmri_test/images/T.png'></img>	89,71	2750.0	test	<img class = center src='/static/experiments/beast_fmri_test/images/redT.png'></img>	go	2300.0	2.0	19.0	go	target	T	89,Middle Finger	71,Index Finger	450.0	350.0	2300.0	2400.0	1.0	450.0	1.0	n/a	ITI
313287	500	n/a	-1	-1	500	0.0	fixation	poldrack-single-stim	732	1963742	0.0-27.20-0.20	beast_fmri_test	275	n/a	n/a	<div class = centerbox2><div class = fixation>+</div></div>	none	500.0	test	n/a	n/a	n/a	n/a	n/a	n/a	n/a	n/a	n/a	n/a	n/a	n/a	n/a	n/a	n/a	n/a	n/a	n/a	fixation
311172.84160140972	2750	n/a	370	71	2750	2118.15839859	stim	stop-signal	733	1966496	0.0-27.20-1.20	beast_fmri_test	275	1963804,/,1964484,/,1965165,/,1965844,/,1966525,/,1967202,/,1967881,/,1968559,/	t,t,t,t,t,t,t,t	<img class = center src='/static/experiments/beast_fmri_test/images/V.png'></img>	89,71	2750.0	test	<img class = center src='/static/experiments/beast_fmri_test/images/redV.png'></img>	go	2400.0	2.0	20.0	go	non-target	V	89,Middle Finger	71,Index Finger	450.0	350.0	2300.0	2400.0	1.0	350.0	1.0	n/a	go_stim
313922.84160140972	2118.158398590399	n/a	370	71	2750	2118.15839859	stim	stop-signal	733	1966496	0.0-27.20-1.20	beast_fmri_test	275	1963804,/,1964484,/,1965165,/,1965844,/,1966525,/,1967202,/,1967881,/,1968559,/	t,t,t,t,t,t,t,t	<img class = center src='/static/experiments/beast_fmri_test/images/V.png'></img>	89,71	2750.0	test	<img class = center src='/static/experiments/beast_fmri_test/images/redV.png'></img>	go	2400.0	2.0	20.0	go	non-target	V	89,Middle Finger	71,Index Finger	450.0	350.0	2300.0	2400.0	1.0	350.0	1.0	n/a	ITI
318737	500	n/a	-1	-1	500	0.0	fixation	poldrack-single-stim	734	1969192	0.0-27.21-0.21	beast_fmri_test	275	n/a	n/a	<div class = centerbox2><div class = fixation>+</div></div>	none	500.0	test	n/a	n/a	n/a	n/a	n/a	n/a	n/a	n/a	n/a	n/a	n/a	n/a	n/a	n/a	n/a	n/a	n/a	n/a	fixation
