onset	duration	text	rt	key_press	block_duration	timing_post_trial	trial_id	trial_type	trial_index	time_elapsed	internal_node_id	exp_id	subject_id	trigger_times	triggers	stimulus	possible_responses	stim_duration	exp_stage	SS_stimulus	SS_trial_type	SS_duration	load	trial_num	stop_trial_type	adaptive_trial_type	stim	yes_response_key	no_response_key	SSD_target	SSD_non_target	SSTarget	SSNonTarget	go_acc	SS_delay	adaptive_acc	stop_acc	new_trial_type
test	10880.0	n/a	-1	-1	10880	0.0	practice-no-stop-feedback	poldrack-single-stim	200	610763	0.0-12.0	beast_fmri_test	275	599887,/,600565,/,601248,/,601928,/,602607,/,603287,/,603968,/,604648,/,605327,/,606007,/,606689,/,607366,/,608044,/,608723,/,609401,/,610083,/,610762,/	t,t,t,t,t,t,t,t,t,t,t,t,t,t,t,t,t	"<div class = ""centerbox""><p class = ""block-text"">Your delay is 3 trials.</p><p class = block-text>Please wait for the scanner to start the block</p></div>"	77	10880.0	n/a	n/a	n/a	n/a	n/a	n/a	n/a	n/a	n/a	n/a	n/a	n/a	n/a	n/a	n/a	n/a	n/a	n/a	n/a	start_functional_block
11379	500.0	n/a	-1	-1	500	0.0	fixation	poldrack-single-stim	201	611266	0.0-13.0-0.0	beast_fmri_test	275	n/a	n/a	<div class = centerbox2><div class = fixation>+</div></div>	none	500.0	test	n/a	n/a	n/a	n/a	n/a	n/a	n/a	n/a	n/a	n/a	n/a	n/a	n/a	n/a	n/a	n/a	n/a	n/a	fixation
10003.06071164005	2750.0	n/a	512	71	2750	1379.93928836	stim	stop-signal	202	614020	0.0-13.0-1.0	beast_fmri_test	275	611443,/,612122,/,612802,/,613482,/,614161,/,614843,/	t,t,t,t,t,t	<img class = center src='/static/experiments/beast_fmri_test/images/V.png'></img>	89,71	2750.0	test	<img class = center src='/static/experiments/beast_fmri_test/images/redV.png'></img>	go	-1.0	3.0	0.0	go	temp-non-target	V	89,Middle Finger	71,Index Finger	500.0	500.0	2250.0	2250.0	0.0	n/a	n/a	n/a	go_stim
12753.06071164005	1379.93928836	n/a	512	71	2750	1379.93928836	stim	stop-signal	202	614020	0.0-13.0-1.0	beast_fmri_test	275	611443,/,612122,/,612802,/,613482,/,614161,/,614843,/	t,t,t,t,t,t	<img class = center src='/static/experiments/beast_fmri_test/images/V.png'></img>	89,71	2750.0	test	<img class = center src='/static/experiments/beast_fmri_test/images/redV.png'></img>	go	-1.0	3.0	0.0	go	temp-non-target	V	89,Middle Finger	71,Index Finger	500.0	500.0	2250.0	2250.0	0.0	n/a	n/a	n/a	ITI
16042	500.0	n/a	-1	-1	500	0.0	fixation	poldrack-single-stim	203	615929	0.0-13.1-0.1	beast_fmri_test	275	615522,/	t	<div class = centerbox2><div class = fixation>+</div></div>	none	500.0	test	n/a	n/a	n/a	n/a	n/a	n/a	n/a	n/a	n/a	n/a	n/a	n/a	n/a	n/a	n/a	n/a	n/a	n/a	fixation
15221.497598257964	2750.0	n/a	474	71	2750	819.502401742	stim	stop-signal	204	618678	0.0-13.1-1.1	beast_fmri_test	275	616202,/,616882,/,617562,/,618238,/,618918,/	t,t,t,t,t	<img class = center src='/static/experiments/beast_fmri_test/images/V.png'></img>	89,71	2750.0	test	<img class = center src='/static/experiments/beast_fmri_test/images/redV.png'></img>	go	-1.0	3.0	1.0	go	temp-non-target	V	89,Middle Finger	71,Index Finger	500.0	500.0	2250.0	2250.0	0.0	n/a	n/a	n/a	go_stim
17971.497598257964	819.502401742	n/a	474	71	2750	819.502401742	stim	stop-signal	204	618678	0.0-13.1-1.1	beast_fmri_test	275	616202,/,616882,/,617562,/,618238,/,618918,/	t,t,t,t,t	<img class = center src='/static/experiments/beast_fmri_test/images/V.png'></img>	89,71	2750.0	test	<img class = center src='/static/experiments/beast_fmri_test/images/redV.png'></img>	go	-1.0	3.0	1.0	go	temp-non-target	V	89,Middle Finger	71,Index Finger	500.0	500.0	2250.0	2250.0	0.0	n/a	n/a	n/a	ITI
20135	500.0	n/a	-1	-1	500	0.0	fixation	poldrack-single-stim	205	620022	0.0-13.2-0.2	beast_fmri_test	275	619597,/	t	<div class = centerbox2><div class = fixation>+</div></div>	none	500.0	test	n/a	n/a	n/a	n/a	n/a	n/a	n/a	n/a	n/a	n/a	n/a	n/a	n/a	n/a	n/a	n/a	n/a	n/a	fixation
19999.91492396174	2750.0	n/a	598	71	2750	137.085076038	stim	stop-signal	206	622774	0.0-13.2-1.2	beast_fmri_test	275	620279,/,620957,/,621636,/,622316,/	t,t,t,t	<img class = center src='/static/experiments/beast_fmri_test/images/D.png'></img>	89,71	2750.0	test	<img class = center src='/static/experiments/beast_fmri_test/images/redD.png'></img>	go	-1.0	3.0	2.0	go	temp-non-target	D	89,Middle Finger	71,Index Finger	500.0	500.0	2250.0	2250.0	0.0	n/a	n/a	n/a	go_stim
22749.91492396174	137.085076038	n/a	598	71	2750	137.085076038	stim	stop-signal	206	622774	0.0-13.2-1.2	beast_fmri_test	275	620279,/,620957,/,621636,/,622316,/	t,t,t,t	<img class = center src='/static/experiments/beast_fmri_test/images/D.png'></img>	89,71	2750.0	test	<img class = center src='/static/experiments/beast_fmri_test/images/redD.png'></img>	go	-1.0	3.0	2.0	go	temp-non-target	D	89,Middle Finger	71,Index Finger	500.0	500.0	2250.0	2250.0	0.0	n/a	n/a	n/a	ITI
23550	500.0	n/a	-1	-1	500	0.0	fixation	poldrack-single-stim	207	623437	0.0-13.3-0.3	beast_fmri_test	275	622997,/	t	<div class = centerbox2><div class = fixation>+</div></div>	none	500.0	test	n/a	n/a	n/a	n/a	n/a	n/a	n/a	n/a	n/a	n/a	n/a	n/a	n/a	n/a	n/a	n/a	n/a	n/a	fixation
22974.823723395937	2750.0	n/a	884	71	2750	578.176276604	stim	stop-signal	208	626190	0.0-13.3-1.3	beast_fmri_test	275	623677,/,624357,/,625037,/,625718,/,626396,/	t,t,t,t,t	<img class = center src='/static/experiments/beast_fmri_test/images/B.png'></img>	89,71	2750.0	test	<img class = center src='/static/experiments/beast_fmri_test/images/redB.png'></img>	go	2250.0	3.0	3.0	go	non-target	B	89,Middle Finger	71,Index Finger	500.0	500.0	2250.0	2250.0	1.0	500.0	1.0	n/a	go_stim
25724.823723395937	578.176276604	n/a	884	71	2750	578.176276604	stim	stop-signal	208	626190	0.0-13.3-1.3	beast_fmri_test	275	623677,/,624357,/,625037,/,625718,/,626396,/	t,t,t,t,t	<img class = center src='/static/experiments/beast_fmri_test/images/B.png'></img>	89,71	2750.0	test	<img class = center src='/static/experiments/beast_fmri_test/images/redB.png'></img>	go	2250.0	3.0	3.0	go	non-target	B	89,Middle Finger	71,Index Finger	500.0	500.0	2250.0	2250.0	1.0	500.0	1.0	n/a	ITI
27407	500.0	n/a	-1	-1	500	0.0	fixation	poldrack-single-stim	209	627294	0.0-13.4-0.4	beast_fmri_test	275	627077,/	t	<div class = centerbox2><div class = fixation>+</div></div>	none	500.0	test	n/a	n/a	n/a	n/a	n/a	n/a	n/a	n/a	n/a	n/a	n/a	n/a	n/a	n/a	n/a	n/a	n/a	n/a	fixation
27219.10432532616	2750.0	n/a	1062	71	2750	190.895674674	stim	stop-signal	210	630047	0.0-13.4-1.4	beast_fmri_test	275	627757,/,628437,/,629119,/,629798,/	t,t,t,t	<img class = center src='/static/experiments/beast_fmri_test/images/B.png'></img>	89,71	2750.0	test	<img class = center src='/static/experiments/beast_fmri_test/images/redB.png'></img>	go	2250.0	3.0	4.0	go	non-target	B	89,Middle Finger	71,Index Finger	500.0	500.0	2250.0	2250.0	1.0	500.0	1.0	n/a	go_stim
29969.10432532616	190.895674674	n/a	1062	71	2750	190.895674674	stim	stop-signal	210	630047	0.0-13.4-1.4	beast_fmri_test	275	627757,/,628437,/,629119,/,629798,/	t,t,t,t	<img class = center src='/static/experiments/beast_fmri_test/images/B.png'></img>	89,71	2750.0	test	<img class = center src='/static/experiments/beast_fmri_test/images/redB.png'></img>	go	2250.0	3.0	4.0	go	non-target	B	89,Middle Finger	71,Index Finger	500.0	500.0	2250.0	2250.0	1.0	500.0	1.0	n/a	ITI
30878	500.0	n/a	-1	-1	500	0.0	fixation	poldrack-single-stim	211	630765	0.0-13.5-0.5	beast_fmri_test	275	630479,/	t	<div class = centerbox2><div class = fixation>+</div></div>	none	500.0	test	n/a	n/a	n/a	n/a	n/a	n/a	n/a	n/a	n/a	n/a	n/a	n/a	n/a	n/a	n/a	n/a	n/a	n/a	fixation
30345.329236793681	500.0	n/a	734	71	2750	535.670763206	stim	stop-signal	212	633518	0.0-13.5-1.5	beast_fmri_test	275	631158,/,631838,/,632517,/,633198,/,633878,/	t,t,t,t,t	<img class = center src='/static/experiments/beast_fmri_test/images/T.png'></img>	89,71	2750.0	test	<img class = center src='/static/experiments/beast_fmri_test/images/redT.png'></img>	stop	2250.0	3.0	5.0	stop	non-target	T	89,Middle Finger	71,Index Finger	500.0	500.0	2250.0	2250.0	0.0	500.0	n/a	0.0	go_stim
32595.329236793681	2250.0	n/a	734	71	2750	535.670763206	stim	stop-signal	212	633518	0.0-13.5-1.5	beast_fmri_test	275	631158,/,631838,/,632517,/,633198,/,633878,/	t,t,t,t,t	<img class = center src='/static/experiments/beast_fmri_test/images/T.png'></img>	89,71	2750.0	test	<img class = center src='/static/experiments/beast_fmri_test/images/redT.png'></img>	stop	2250.0	3.0	5.0	stop	non-target	T	89,Middle Finger	71,Index Finger	500.0	500.0	2250.0	2250.0	0.0	500.0	n/a	0.0	stop_stim
33095.329236793681	535.670763206	n/a	734	71	2750	535.670763206	stim	stop-signal	212	633518	0.0-13.5-1.5	beast_fmri_test	275	631158,/,631838,/,632517,/,633198,/,633878,/	t,t,t,t,t	<img class = center src='/static/experiments/beast_fmri_test/images/T.png'></img>	89,71	2750.0	test	<img class = center src='/static/experiments/beast_fmri_test/images/redT.png'></img>	stop	2250.0	3.0	5.0	stop	non-target	T	89,Middle Finger	71,Index Finger	500.0	500.0	2250.0	2250.0	0.0	500.0	n/a	0.0	ITI
34692	500.0	n/a	-1	-1	500	0.0	fixation	poldrack-single-stim	213	634579	0.0-13.6-0.6	beast_fmri_test	275	634559,/	t	<div class = centerbox2><div class = fixation>+</div></div>	none	500.0	test	n/a	n/a	n/a	n/a	n/a	n/a	n/a	n/a	n/a	n/a	n/a	n/a	n/a	n/a	n/a	n/a	n/a	n/a	fixation
33864.669389928924	2750.0	n/a	815	71	2750	829.330610071	stim	stop-signal	214	637331	0.0-13.6-1.6	beast_fmri_test	275	635237,/,635917,/,636598,/,637281,/,637956,/	t,t,t,t,t	<img class = center src='/static/experiments/beast_fmri_test/images/T.png'></img>	89,71	2750.0	test	<img class = center src='/static/experiments/beast_fmri_test/images/redT.png'></img>	go	2300.0	3.0	6.0	go	non-target	T	89,Middle Finger	71,Index Finger	500.0	450.0	2250.0	2300.0	1.0	450.0	1.0	n/a	go_stim
36614.669389928924	829.330610071	n/a	815	71	2750	829.330610071	stim	stop-signal	214	637331	0.0-13.6-1.6	beast_fmri_test	275	635237,/,635917,/,636598,/,637281,/,637956,/	t,t,t,t,t	<img class = center src='/static/experiments/beast_fmri_test/images/T.png'></img>	89,71	2750.0	test	<img class = center src='/static/experiments/beast_fmri_test/images/redT.png'></img>	go	2300.0	3.0	6.0	go	non-target	T	89,Middle Finger	71,Index Finger	500.0	450.0	2250.0	2300.0	1.0	450.0	1.0	n/a	ITI
38792	500.0	n/a	-1	-1	500	0.0	fixation	poldrack-single-stim	215	638679	0.0-13.7-0.7	beast_fmri_test	275	638635,/	t	<div class = centerbox2><div class = fixation>+</div></div>	none	500.0	test	n/a	n/a	n/a	n/a	n/a	n/a	n/a	n/a	n/a	n/a	n/a	n/a	n/a	n/a	n/a	n/a	n/a	n/a	fixation
38720.275623670197	2750.0	n/a	592	71	2750	74.7243763299	stim	stop-signal	216	641432	0.0-13.7-1.7	beast_fmri_test	275	639314,/,639993,/,640673,/,641353,/	t,t,t,t	<img class = center src='/static/experiments/beast_fmri_test/images/P.png'></img>	89,71	2750.0	test	<img class = center src='/static/experiments/beast_fmri_test/images/redP.png'></img>	go	2300.0	3.0	7.0	go	non-target	P	89,Middle Finger	71,Index Finger	500.0	450.0	2250.0	2300.0	1.0	450.0	1.0	n/a	go_stim
41470.275623670197	74.7243763299	n/a	592	71	2750	74.7243763299	stim	stop-signal	216	641432	0.0-13.7-1.7	beast_fmri_test	275	639314,/,639993,/,640673,/,641353,/	t,t,t,t	<img class = center src='/static/experiments/beast_fmri_test/images/P.png'></img>	89,71	2750.0	test	<img class = center src='/static/experiments/beast_fmri_test/images/redP.png'></img>	go	2300.0	3.0	7.0	go	non-target	P	89,Middle Finger	71,Index Finger	500.0	450.0	2250.0	2300.0	1.0	450.0	1.0	n/a	ITI
42142	500.0	n/a	-1	-1	500	0.0	fixation	poldrack-single-stim	217	642029	0.0-13.8-0.8	beast_fmri_test	275	n/a	n/a	<div class = centerbox2><div class = fixation>+</div></div>	none	500.0	test	n/a	n/a	n/a	n/a	n/a	n/a	n/a	n/a	n/a	n/a	n/a	n/a	n/a	n/a	n/a	n/a	n/a	n/a	fixation
41265.776871544309	450.0	n/a	-1	-1	2750	878.223128456	stim	stop-signal	218	644781	0.0-13.8-1.8	beast_fmri_test	275	642033,/,642713,/,643393,/,644074,/,644752,/,645432,/	t,t,t,t,t,t	<img class = center src='/static/experiments/beast_fmri_test/images/D.png'></img>	89,71	2750.0	test	<img class = center src='/static/experiments/beast_fmri_test/images/redD.png'></img>	stop	2300.0	3.0	8.0	stop	non-target	D	89,Middle Finger	71,Index Finger	500.0	450.0	2250.0	2300.0	0.0	450.0	n/a	1.0	go_stim
43565.776871544309	2300.0	n/a	-1	-1	2750	878.223128456	stim	stop-signal	218	644781	0.0-13.8-1.8	beast_fmri_test	275	642033,/,642713,/,643393,/,644074,/,644752,/,645432,/	t,t,t,t,t,t	<img class = center src='/static/experiments/beast_fmri_test/images/D.png'></img>	89,71	2750.0	test	<img class = center src='/static/experiments/beast_fmri_test/images/redD.png'></img>	stop	2300.0	3.0	8.0	stop	non-target	D	89,Middle Finger	71,Index Finger	500.0	450.0	2250.0	2300.0	0.0	450.0	n/a	1.0	stop_stim
44015.776871544309	878.223128456	n/a	-1	-1	2750	878.223128456	stim	stop-signal	218	644781	0.0-13.8-1.8	beast_fmri_test	275	642033,/,642713,/,643393,/,644074,/,644752,/,645432,/	t,t,t,t,t,t	<img class = center src='/static/experiments/beast_fmri_test/images/D.png'></img>	89,71	2750.0	test	<img class = center src='/static/experiments/beast_fmri_test/images/redD.png'></img>	stop	2300.0	3.0	8.0	stop	non-target	D	89,Middle Finger	71,Index Finger	500.0	450.0	2250.0	2300.0	0.0	450.0	n/a	1.0	ITI
46300	500.0	n/a	-1	-1	500	0.0	fixation	poldrack-single-stim	219	646187	0.0-13.9-0.9	beast_fmri_test	275	646113,/	t	<div class = centerbox2><div class = fixation>+</div></div>	none	500.0	test	n/a	n/a	n/a	n/a	n/a	n/a	n/a	n/a	n/a	n/a	n/a	n/a	n/a	n/a	n/a	n/a	n/a	n/a	fixation
46205.14577988151	2750.0	n/a	427	89	2750	92.8542201185	stim	stop-signal	220	648935	0.0-13.9-1.9	beast_fmri_test	275	646794,/,647472,/,648150,/,648828,/	t,t,t,t	<img class = center src='/static/experiments/beast_fmri_test/images/T.png'></img>	89,71	2750.0	test	<img class = center src='/static/experiments/beast_fmri_test/images/redT.png'></img>	go	2250.0	3.0	9.0	go	target	T	89,Middle Finger	71,Index Finger	500.0	500.0	2250.0	2300.0	1.0	500.0	1.0	n/a	go_stim
48955.14577988151	92.8542201185	n/a	427	89	2750	92.8542201185	stim	stop-signal	220	648935	0.0-13.9-1.9	beast_fmri_test	275	646794,/,647472,/,648150,/,648828,/	t,t,t,t	<img class = center src='/static/experiments/beast_fmri_test/images/T.png'></img>	89,71	2750.0	test	<img class = center src='/static/experiments/beast_fmri_test/images/redT.png'></img>	go	2250.0	3.0	9.0	go	target	T	89,Middle Finger	71,Index Finger	500.0	500.0	2250.0	2300.0	1.0	500.0	1.0	n/a	ITI
49667	500.0	n/a	-1	-1	500	0.0	fixation	poldrack-single-stim	221	649554	0.0-13.10-0.10	beast_fmri_test	275	649509,/	t	<div class = centerbox2><div class = fixation>+</div></div>	none	500.0	test	n/a	n/a	n/a	n/a	n/a	n/a	n/a	n/a	n/a	n/a	n/a	n/a	n/a	n/a	n/a	n/a	n/a	n/a	fixation
49610.288531083614	500.0	n/a	569	71	2750	59.7114689164	stim	stop-signal	222	652307	0.0-13.10-1.10	beast_fmri_test	275	650187,/,650868,/,651549,/,652228,/	t,t,t,t	<img class = center src='/static/experiments/beast_fmri_test/images/V.png'></img>	89,71	2750.0	test	<img class = center src='/static/experiments/beast_fmri_test/images/redV.png'></img>	stop	2250.0	3.0	10.0	stop	non-target	V	89,Middle Finger	71,Index Finger	500.0	500.0	2250.0	2250.0	0.0	500.0	n/a	0.0	go_stim
51860.288531083614	2250.0	n/a	569	71	2750	59.7114689164	stim	stop-signal	222	652307	0.0-13.10-1.10	beast_fmri_test	275	650187,/,650868,/,651549,/,652228,/	t,t,t,t	<img class = center src='/static/experiments/beast_fmri_test/images/V.png'></img>	89,71	2750.0	test	<img class = center src='/static/experiments/beast_fmri_test/images/redV.png'></img>	stop	2250.0	3.0	10.0	stop	non-target	V	89,Middle Finger	71,Index Finger	500.0	500.0	2250.0	2250.0	0.0	500.0	n/a	0.0	stop_stim
52360.288531083614	59.7114689164	n/a	569	71	2750	59.7114689164	stim	stop-signal	222	652307	0.0-13.10-1.10	beast_fmri_test	275	650187,/,650868,/,651549,/,652228,/	t,t,t,t	<img class = center src='/static/experiments/beast_fmri_test/images/V.png'></img>	89,71	2750.0	test	<img class = center src='/static/experiments/beast_fmri_test/images/redV.png'></img>	stop	2250.0	3.0	10.0	stop	non-target	V	89,Middle Finger	71,Index Finger	500.0	500.0	2250.0	2250.0	0.0	500.0	n/a	0.0	ITI
53002	500.0	n/a	-1	-1	500	0.0	fixation	poldrack-single-stim	223	652889	0.0-13.11-0.11	beast_fmri_test	275	n/a	n/a	<div class = centerbox2><div class = fixation>+</div></div>	none	500.0	test	n/a	n/a	n/a	n/a	n/a	n/a	n/a	n/a	n/a	n/a	n/a	n/a	n/a	n/a	n/a	n/a	n/a	n/a	fixation
52869.225318729179	2750.0	n/a	817	89	2750	135.774681271	stim	stop-signal	224	655642	0.0-13.11-1.11	beast_fmri_test	275	652911,/,653589,/,654270,/,654949,/,655627,/	t,t,t,t,t	<img class = center src='/static/experiments/beast_fmri_test/images/D.png'></img>	89,71	2750.0	test	<img class = center src='/static/experiments/beast_fmri_test/images/redD.png'></img>	go	2250.0	3.0	11.0	go	target	D	89,Middle Finger	71,Index Finger	500.0	450.0	2250.0	2250.0	1.0	500.0	1.0	n/a	go_stim
55619.225318729179	135.774681271	n/a	817	89	2750	135.774681271	stim	stop-signal	224	655642	0.0-13.11-1.11	beast_fmri_test	275	652911,/,653589,/,654270,/,654949,/,655627,/	t,t,t,t,t	<img class = center src='/static/experiments/beast_fmri_test/images/D.png'></img>	89,71	2750.0	test	<img class = center src='/static/experiments/beast_fmri_test/images/redD.png'></img>	go	2250.0	3.0	11.0	go	target	D	89,Middle Finger	71,Index Finger	500.0	450.0	2250.0	2250.0	1.0	500.0	1.0	n/a	ITI
56414	500.0	n/a	-1	-1	500	0.0	fixation	poldrack-single-stim	225	656301	0.0-13.12-0.12	beast_fmri_test	275	n/a	n/a	<div class = centerbox2><div class = fixation>+</div></div>	none	500.0	test	n/a	n/a	n/a	n/a	n/a	n/a	n/a	n/a	n/a	n/a	n/a	n/a	n/a	n/a	n/a	n/a	n/a	n/a	fixation
55320.611498810584	2750.0	n/a	1209	71	2750	1090.38850119	stim	stop-signal	226	659048	0.0-13.12-1.12	beast_fmri_test	275	656312,/,656990,/,657669,/,658346,/,659024,/,659704,/	t,t,t,t,t,t	<img class = center src='/static/experiments/beast_fmri_test/images/V.png'></img>	89,71	2750.0	test	<img class = center src='/static/experiments/beast_fmri_test/images/redV.png'></img>	go	2300.0	3.0	12.0	go	non-target	V	89,Middle Finger	71,Index Finger	500.0	450.0	2250.0	2300.0	1.0	450.0	1.0	n/a	go_stim
58070.611498810584	1090.38850119	n/a	1209	71	2750	1090.38850119	stim	stop-signal	226	659048	0.0-13.12-1.12	beast_fmri_test	275	656312,/,656990,/,657669,/,658346,/,659024,/,659704,/	t,t,t,t,t,t	<img class = center src='/static/experiments/beast_fmri_test/images/V.png'></img>	89,71	2750.0	test	<img class = center src='/static/experiments/beast_fmri_test/images/redV.png'></img>	go	2300.0	3.0	12.0	go	non-target	V	89,Middle Finger	71,Index Finger	500.0	450.0	2250.0	2300.0	1.0	450.0	1.0	n/a	ITI
60778	500.0	n/a	-1	-1	500	0.0	fixation	poldrack-single-stim	227	660665	0.0-13.13-0.13	beast_fmri_test	275	660384,/	t	<div class = centerbox2><div class = fixation>+</div></div>	none	500.0	test	n/a	n/a	n/a	n/a	n/a	n/a	n/a	n/a	n/a	n/a	n/a	n/a	n/a	n/a	n/a	n/a	n/a	n/a	fixation
59141.483431597124	2750.0	n/a	640	71	2750	1638.5165684	stim	stop-signal	228	663417	0.0-13.13-1.13	beast_fmri_test	275	661065,/,661745,/,662424,/,663104,/,663783,/,664464,/	t,t,t,t,t,t	<img class = center src='/static/experiments/beast_fmri_test/images/B.png'></img>	89,71	2750.0	test	<img class = center src='/static/experiments/beast_fmri_test/images/redB.png'></img>	go	2300.0	3.0	13.0	go	non-target	B	89,Middle Finger	71,Index Finger	500.0	450.0	2250.0	2300.0	1.0	450.0	1.0	n/a	go_stim
61891.483431597124	1638.5165684	n/a	640	71	2750	1638.5165684	stim	stop-signal	228	663417	0.0-13.13-1.13	beast_fmri_test	275	661065,/,661745,/,662424,/,663104,/,663783,/,664464,/	t,t,t,t,t,t	<img class = center src='/static/experiments/beast_fmri_test/images/B.png'></img>	89,71	2750.0	test	<img class = center src='/static/experiments/beast_fmri_test/images/redB.png'></img>	go	2300.0	3.0	13.0	go	non-target	B	89,Middle Finger	71,Index Finger	500.0	450.0	2250.0	2300.0	1.0	450.0	1.0	n/a	ITI
65692	500.0	n/a	-1	-1	500	0.0	fixation	poldrack-single-stim	229	665579	0.0-13.14-0.14	beast_fmri_test	275	665144,/	t	<div class = centerbox2><div class = fixation>+</div></div>	none	500.0	test	n/a	n/a	n/a	n/a	n/a	n/a	n/a	n/a	n/a	n/a	n/a	n/a	n/a	n/a	n/a	n/a	n/a	n/a	fixation
65463.413183519733	2750.0	n/a	533	71	2750	226.58681648	stim	stop-signal	230	668327	0.0-13.14-1.14	beast_fmri_test	275	665824,/,666506,/,667184,/,667862,/,668538,/	t,t,t,t,t	<img class = center src='/static/experiments/beast_fmri_test/images/B.png'></img>	89,71	2750.0	test	<img class = center src='/static/experiments/beast_fmri_test/images/redB.png'></img>	go	2300.0	3.0	14.0	go	non-target	B	89,Middle Finger	71,Index Finger	500.0	450.0	2250.0	2300.0	1.0	450.0	1.0	n/a	go_stim
68213.413183519733	226.58681648	n/a	533	71	2750	226.58681648	stim	stop-signal	230	668327	0.0-13.14-1.14	beast_fmri_test	275	665824,/,666506,/,667184,/,667862,/,668538,/	t,t,t,t,t	<img class = center src='/static/experiments/beast_fmri_test/images/B.png'></img>	89,71	2750.0	test	<img class = center src='/static/experiments/beast_fmri_test/images/redB.png'></img>	go	2300.0	3.0	14.0	go	non-target	B	89,Middle Finger	71,Index Finger	500.0	450.0	2250.0	2300.0	1.0	450.0	1.0	n/a	ITI
69190	500.0	n/a	-1	-1	500	0.0	fixation	poldrack-single-stim	231	669077	0.0-13.15-0.15	beast_fmri_test	275	n/a	n/a	<div class = centerbox2><div class = fixation>+</div></div>	none	500.0	test	n/a	n/a	n/a	n/a	n/a	n/a	n/a	n/a	n/a	n/a	n/a	n/a	n/a	n/a	n/a	n/a	n/a	n/a	fixation
67749.576566749136	450.0	n/a	769	71	2750	1443.42343325	stim	stop-signal	232	671830	0.0-13.15-1.15	beast_fmri_test	275	669219,/,669899,/,670580,/,671259,/,671939,/,672619,/	t,t,t,t,t,t	<img class = center src='/static/experiments/beast_fmri_test/images/B.png'></img>	89,71	2750.0	test	<img class = center src='/static/experiments/beast_fmri_test/images/redB.png'></img>	stop	2300.0	3.0	15.0	stop	non-target	B	89,Middle Finger	71,Index Finger	500.0	450.0	2250.0	2300.0	0.0	450.0	n/a	0.0	go_stim
70049.576566749136	2300.0	n/a	769	71	2750	1443.42343325	stim	stop-signal	232	671830	0.0-13.15-1.15	beast_fmri_test	275	669219,/,669899,/,670580,/,671259,/,671939,/,672619,/	t,t,t,t,t,t	<img class = center src='/static/experiments/beast_fmri_test/images/B.png'></img>	89,71	2750.0	test	<img class = center src='/static/experiments/beast_fmri_test/images/redB.png'></img>	stop	2300.0	3.0	15.0	stop	non-target	B	89,Middle Finger	71,Index Finger	500.0	450.0	2250.0	2300.0	0.0	450.0	n/a	0.0	stop_stim
70499.576566749136	1443.42343325	n/a	769	71	2750	1443.42343325	stim	stop-signal	232	671830	0.0-13.15-1.15	beast_fmri_test	275	669219,/,669899,/,670580,/,671259,/,671939,/,672619,/	t,t,t,t,t,t	<img class = center src='/static/experiments/beast_fmri_test/images/B.png'></img>	89,71	2750.0	test	<img class = center src='/static/experiments/beast_fmri_test/images/redB.png'></img>	stop	2300.0	3.0	15.0	stop	non-target	B	89,Middle Finger	71,Index Finger	500.0	450.0	2250.0	2300.0	0.0	450.0	n/a	0.0	ITI
73912	500.0	n/a	-1	-1	500	0.0	fixation	poldrack-single-stim	233	673799	0.0-13.16-0.16	beast_fmri_test	275	673300,/	t	<div class = centerbox2><div class = fixation>+</div></div>	none	500.0	test	n/a	n/a	n/a	n/a	n/a	n/a	n/a	n/a	n/a	n/a	n/a	n/a	n/a	n/a	n/a	n/a	n/a	n/a	fixation
72578.373027208843	500.0	n/a	470	89	2750	1336.62697279	stim	stop-signal	234	676552	0.0-13.16-1.16	beast_fmri_test	275	673979,/,674659,/,675339,/,676019,/,676700,/,677379,/	t,t,t,t,t,t	<img class = center src='/static/experiments/beast_fmri_test/images/B.png'></img>	89,71	2750.0	test	<img class = center src='/static/experiments/beast_fmri_test/images/redB.png'></img>	stop	2250.0	3.0	16.0	stop	target	B	89,Middle Finger	71,Index Finger	500.0	400.0	2250.0	2300.0	0.0	500.0	n/a	0.0	go_stim
74828.373027208843	2250.0	n/a	470	89	2750	1336.62697279	stim	stop-signal	234	676552	0.0-13.16-1.16	beast_fmri_test	275	673979,/,674659,/,675339,/,676019,/,676700,/,677379,/	t,t,t,t,t,t	<img class = center src='/static/experiments/beast_fmri_test/images/B.png'></img>	89,71	2750.0	test	<img class = center src='/static/experiments/beast_fmri_test/images/redB.png'></img>	stop	2250.0	3.0	16.0	stop	target	B	89,Middle Finger	71,Index Finger	500.0	400.0	2250.0	2300.0	0.0	500.0	n/a	0.0	stop_stim
75328.373027208843	1336.62697279	n/a	470	89	2750	1336.62697279	stim	stop-signal	234	676552	0.0-13.16-1.16	beast_fmri_test	275	673979,/,674659,/,675339,/,676019,/,676700,/,677379,/	t,t,t,t,t,t	<img class = center src='/static/experiments/beast_fmri_test/images/B.png'></img>	89,71	2750.0	test	<img class = center src='/static/experiments/beast_fmri_test/images/redB.png'></img>	stop	2250.0	3.0	16.0	stop	target	B	89,Middle Finger	71,Index Finger	500.0	400.0	2250.0	2300.0	0.0	500.0	n/a	0.0	ITI
78523	500.0	n/a	-1	-1	500	0.0	fixation	poldrack-single-stim	235	678410	0.0-13.17-0.17	beast_fmri_test	275	678056,/	t	<div class = centerbox2><div class = fixation>+</div></div>	none	500.0	test	n/a	n/a	n/a	n/a	n/a	n/a	n/a	n/a	n/a	n/a	n/a	n/a	n/a	n/a	n/a	n/a	n/a	n/a	fixation
74075.7824243824	450.0	n/a	386	89	2750	4450.21757562	stim	stop-signal	236	681163	0.0-13.17-1.17	beast_fmri_test	275	678735,/,679413,/,680094,/,680774,/,681455,/,682134,/,682815,/,683495,/,684173,/,684854,/,685535,/	t,t,t,t,t,t,t,t,t,t,t	<img class = center src='/static/experiments/beast_fmri_test/images/B.png'></img>	89,71	2750.0	test	<img class = center src='/static/experiments/beast_fmri_test/images/redB.png'></img>	stop	2300.0	3.0	17.0	stop	target	B	89,Middle Finger	71,Index Finger	450.0	400.0	2300.0	2300.0	0.0	450.0	n/a	0.0	go_stim
76375.7824243824	2300.0	n/a	386	89	2750	4450.21757562	stim	stop-signal	236	681163	0.0-13.17-1.17	beast_fmri_test	275	678735,/,679413,/,680094,/,680774,/,681455,/,682134,/,682815,/,683495,/,684173,/,684854,/,685535,/	t,t,t,t,t,t,t,t,t,t,t	<img class = center src='/static/experiments/beast_fmri_test/images/B.png'></img>	89,71	2750.0	test	<img class = center src='/static/experiments/beast_fmri_test/images/redB.png'></img>	stop	2300.0	3.0	17.0	stop	target	B	89,Middle Finger	71,Index Finger	450.0	400.0	2300.0	2300.0	0.0	450.0	n/a	0.0	stop_stim
76825.7824243824	4450.21757562	n/a	386	89	2750	4450.21757562	stim	stop-signal	236	681163	0.0-13.17-1.17	beast_fmri_test	275	678735,/,679413,/,680094,/,680774,/,681455,/,682134,/,682815,/,683495,/,684173,/,684854,/,685535,/	t,t,t,t,t,t,t,t,t,t,t	<img class = center src='/static/experiments/beast_fmri_test/images/B.png'></img>	89,71	2750.0	test	<img class = center src='/static/experiments/beast_fmri_test/images/redB.png'></img>	stop	2300.0	3.0	17.0	stop	target	B	89,Middle Finger	71,Index Finger	450.0	400.0	2300.0	2300.0	0.0	450.0	n/a	0.0	ITI
86254	500.0	n/a	-1	-1	500	0.0	fixation	poldrack-single-stim	237	686141	0.0-13.18-0.18	beast_fmri_test	275	n/a	n/a	<div class = centerbox2><div class = fixation>+</div></div>	none	500.0	test	n/a	n/a	n/a	n/a	n/a	n/a	n/a	n/a	n/a	n/a	n/a	n/a	n/a	n/a	n/a	n/a	n/a	n/a	fixation
81257.0	2750.0	n/a	385	71	2750	5000.0	stim	stop-signal	238	688894	0.0-13.18-1.18	beast_fmri_test	275	686215,/,686896,/,687575,/,688255,/,688935,/,689615,/,690295,/,690975,/,691656,/,692335,/,693016,/,693695,/	t,t,t,t,t,t,t,t,t,t,t,t	<img class = center src='/static/experiments/beast_fmri_test/images/T.png'></img>	89,71	2750.0	test	<img class = center src='/static/experiments/beast_fmri_test/images/redT.png'></img>	go	2350.0	3.0	18.0	go	non-target	T	89,Middle Finger	71,Index Finger	400.0	400.0	2300.0	2350.0	1.0	400.0	1.0	n/a	go_stim
84007.0	5000.0	n/a	385	71	2750	5000.0	stim	stop-signal	238	688894	0.0-13.18-1.18	beast_fmri_test	275	686215,/,686896,/,687575,/,688255,/,688935,/,689615,/,690295,/,690975,/,691656,/,692335,/,693016,/,693695,/	t,t,t,t,t,t,t,t,t,t,t,t	<img class = center src='/static/experiments/beast_fmri_test/images/T.png'></img>	89,71	2750.0	test	<img class = center src='/static/experiments/beast_fmri_test/images/redT.png'></img>	go	2350.0	3.0	18.0	go	non-target	T	89,Middle Finger	71,Index Finger	400.0	400.0	2300.0	2350.0	1.0	400.0	1.0	n/a	ITI
94535	500.0	n/a	-1	-1	500	0.0	fixation	poldrack-single-stim	239	694422	0.0-13.19-0.19	beast_fmri_test	275	694375,/	t	<div class = centerbox2><div class = fixation>+</div></div>	none	500.0	test	n/a	n/a	n/a	n/a	n/a	n/a	n/a	n/a	n/a	n/a	n/a	n/a	n/a	n/a	n/a	n/a	n/a	n/a	fixation
93204.064641304198	2750.0	n/a	650	71	2750	1333.9353587	stim	stop-signal	240	697175	0.0-13.19-1.19	beast_fmri_test	275	695055,/,695735,/,696415,/,697095,/,697773,/,698450,/	t,t,t,t,t,t	<img class = center src='/static/experiments/beast_fmri_test/images/V.png'></img>	89,71	2750.0	test	<img class = center src='/static/experiments/beast_fmri_test/images/redV.png'></img>	go	2350.0	3.0	19.0	go	non-target	V	89,Middle Finger	71,Index Finger	400.0	400.0	2300.0	2350.0	1.0	400.0	1.0	n/a	go_stim
95954.064641304198	1333.9353587	n/a	650	71	2750	1333.9353587	stim	stop-signal	240	697175	0.0-13.19-1.19	beast_fmri_test	275	695055,/,695735,/,696415,/,697095,/,697773,/,698450,/	t,t,t,t,t,t	<img class = center src='/static/experiments/beast_fmri_test/images/V.png'></img>	89,71	2750.0	test	<img class = center src='/static/experiments/beast_fmri_test/images/redV.png'></img>	go	2350.0	3.0	19.0	go	non-target	V	89,Middle Finger	71,Index Finger	400.0	400.0	2300.0	2350.0	1.0	400.0	1.0	n/a	ITI
99145	500.0	n/a	-1	-1	500	0.0	fixation	poldrack-single-stim	241	699032	0.0-13.20-0.20	beast_fmri_test	275	n/a	n/a	<div class = centerbox2><div class = fixation>+</div></div>	none	500.0	test	n/a	n/a	n/a	n/a	n/a	n/a	n/a	n/a	n/a	n/a	n/a	n/a	n/a	n/a	n/a	n/a	n/a	n/a	fixation
98667.05372671748	400.0	n/a	-1	-1	2750	479.946273282	stim	stop-signal	242	701784	0.0-13.20-1.20	beast_fmri_test	275	699131,/,699810,/,700490,/,701170,/,701850,/	t,t,t,t,t	<img class = center src='/static/experiments/beast_fmri_test/images/B.png'></img>	89,71	2750.0	test	<img class = center src='/static/experiments/beast_fmri_test/images/redB.png'></img>	stop	2350.0	3.0	20.0	stop	target	B	89,Middle Finger	71,Index Finger	400.0	400.0	2350.0	2350.0	0.0	400.0	n/a	1.0	go_stim
101017.05372671748	2350.0	n/a	-1	-1	2750	479.946273282	stim	stop-signal	242	701784	0.0-13.20-1.20	beast_fmri_test	275	699131,/,699810,/,700490,/,701170,/,701850,/	t,t,t,t,t	<img class = center src='/static/experiments/beast_fmri_test/images/B.png'></img>	89,71	2750.0	test	<img class = center src='/static/experiments/beast_fmri_test/images/redB.png'></img>	stop	2350.0	3.0	20.0	stop	target	B	89,Middle Finger	71,Index Finger	400.0	400.0	2350.0	2350.0	0.0	400.0	n/a	1.0	stop_stim
101417.05372671748	479.946273282	n/a	-1	-1	2750	479.946273282	stim	stop-signal	242	701784	0.0-13.20-1.20	beast_fmri_test	275	699131,/,699810,/,700490,/,701170,/,701850,/	t,t,t,t,t	<img class = center src='/static/experiments/beast_fmri_test/images/B.png'></img>	89,71	2750.0	test	<img class = center src='/static/experiments/beast_fmri_test/images/redB.png'></img>	stop	2350.0	3.0	20.0	stop	target	B	89,Middle Finger	71,Index Finger	400.0	400.0	2350.0	2350.0	0.0	400.0	n/a	1.0	ITI
102901	500.0	n/a	-1	-1	500	0.0	fixation	poldrack-single-stim	243	702788	0.0-13.21-0.21	beast_fmri_test	275	702530,/	t	<div class = centerbox2><div class = fixation>+</div></div>	none	500.0	test	n/a	n/a	n/a	n/a	n/a	n/a	n/a	n/a	n/a	n/a	n/a	n/a	n/a	n/a	n/a	n/a	n/a	n/a	fixation
100827.64533908118	2750.0	n/a	368	89	2750	2076.35466092	stim	stop-signal	244	705541	0.0-13.21-1.21	beast_fmri_test	275	703210,/,703891,/,704571,/,705250,/,705931,/,706610,/,707291,/	t,t,t,t,t,t,t	<img class = center src='/static/experiments/beast_fmri_test/images/T.png'></img>	89,71	2750.0	test	<img class = center src='/static/experiments/beast_fmri_test/images/redT.png'></img>	go	2300.0	3.0	21.0	go	target	T	89,Middle Finger	71,Index Finger	450.0	400.0	2300.0	2350.0	1.0	450.0	1.0	n/a	go_stim
103577.64533908118	2076.35466092	n/a	368	89	2750	2076.35466092	stim	stop-signal	244	705541	0.0-13.21-1.21	beast_fmri_test	275	703210,/,703891,/,704571,/,705250,/,705931,/,706610,/,707291,/	t,t,t,t,t,t,t	<img class = center src='/static/experiments/beast_fmri_test/images/T.png'></img>	89,71	2750.0	test	<img class = center src='/static/experiments/beast_fmri_test/images/redT.png'></img>	go	2300.0	3.0	21.0	go	target	T	89,Middle Finger	71,Index Finger	450.0	400.0	2300.0	2350.0	1.0	450.0	1.0	n/a	ITI
108254	500.0	n/a	-1	-1	500	0.0	fixation	poldrack-single-stim	245	708141	0.0-13.22-0.22	beast_fmri_test	275	707967,/	t	<div class = centerbox2><div class = fixation>+</div></div>	none	500.0	test	n/a	n/a	n/a	n/a	n/a	n/a	n/a	n/a	n/a	n/a	n/a	n/a	n/a	n/a	n/a	n/a	n/a	n/a	fixation
107612.33788730914	400.0	n/a	576	71	2750	643.662112691	stim	stop-signal	246	710893	0.0-13.22-1.22	beast_fmri_test	275	708645,/,709325,/,710006,/,710685,/,711365,/	t,t,t,t,t	<img class = center src='/static/experiments/beast_fmri_test/images/D.png'></img>	89,71	2750.0	test	<img class = center src='/static/experiments/beast_fmri_test/images/redD.png'></img>	stop	2350.0	3.0	22.0	stop	non-target	D	89,Middle Finger	71,Index Finger	450.0	400.0	2300.0	2350.0	0.0	400.0	n/a	0.0	go_stim
109962.33788730914	2350.0	n/a	576	71	2750	643.662112691	stim	stop-signal	246	710893	0.0-13.22-1.22	beast_fmri_test	275	708645,/,709325,/,710006,/,710685,/,711365,/	t,t,t,t,t	<img class = center src='/static/experiments/beast_fmri_test/images/D.png'></img>	89,71	2750.0	test	<img class = center src='/static/experiments/beast_fmri_test/images/redD.png'></img>	stop	2350.0	3.0	22.0	stop	non-target	D	89,Middle Finger	71,Index Finger	450.0	400.0	2300.0	2350.0	0.0	400.0	n/a	0.0	stop_stim
110362.33788730914	643.662112691	n/a	576	71	2750	643.662112691	stim	stop-signal	246	710893	0.0-13.22-1.22	beast_fmri_test	275	708645,/,709325,/,710006,/,710685,/,711365,/	t,t,t,t,t	<img class = center src='/static/experiments/beast_fmri_test/images/D.png'></img>	89,71	2750.0	test	<img class = center src='/static/experiments/beast_fmri_test/images/redD.png'></img>	stop	2350.0	3.0	22.0	stop	non-target	D	89,Middle Finger	71,Index Finger	450.0	400.0	2300.0	2350.0	0.0	400.0	n/a	0.0	ITI
112176	500.0	n/a	-1	-1	500	0.0	fixation	poldrack-single-stim	247	712063	0.0-13.23-0.23	beast_fmri_test	275	712045,/	t	<div class = centerbox2><div class = fixation>+</div></div>	none	500.0	test	n/a	n/a	n/a	n/a	n/a	n/a	n/a	n/a	n/a	n/a	n/a	n/a	n/a	n/a	n/a	n/a	n/a	n/a	fixation
111681.58967591356	350.0	n/a	1031	71	2750	497.410324086	stim	stop-signal	248	714816	0.0-13.23-1.23	beast_fmri_test	275	712725,/,713406,/,714087,/,714766,/	t,t,t,t	<img class = center src='/static/experiments/beast_fmri_test/images/P.png'></img>	89,71	2750.0	test	<img class = center src='/static/experiments/beast_fmri_test/images/redP.png'></img>	stop	2400.0	3.0	23.0	stop	non-target	P	89,Middle Finger	71,Index Finger	450.0	350.0	2300.0	2400.0	0.0	350.0	n/a	0.0	go_stim
114081.58967591356	2400.0	n/a	1031	71	2750	497.410324086	stim	stop-signal	248	714816	0.0-13.23-1.23	beast_fmri_test	275	712725,/,713406,/,714087,/,714766,/	t,t,t,t	<img class = center src='/static/experiments/beast_fmri_test/images/P.png'></img>	89,71	2750.0	test	<img class = center src='/static/experiments/beast_fmri_test/images/redP.png'></img>	stop	2400.0	3.0	23.0	stop	non-target	P	89,Middle Finger	71,Index Finger	450.0	350.0	2300.0	2400.0	0.0	350.0	n/a	0.0	stop_stim
114431.58967591356	497.410324086	n/a	1031	71	2750	497.410324086	stim	stop-signal	248	714816	0.0-13.23-1.23	beast_fmri_test	275	712725,/,713406,/,714087,/,714766,/	t,t,t,t	<img class = center src='/static/experiments/beast_fmri_test/images/P.png'></img>	89,71	2750.0	test	<img class = center src='/static/experiments/beast_fmri_test/images/redP.png'></img>	stop	2400.0	3.0	23.0	stop	non-target	P	89,Middle Finger	71,Index Finger	450.0	350.0	2300.0	2400.0	0.0	350.0	n/a	0.0	ITI
115950	500.0	n/a	-1	-1	500	0.0	fixation	poldrack-single-stim	249	715837	0.0-13.24-0.24	beast_fmri_test	275	715447,/	t	<div class = centerbox2><div class = fixation>+</div></div>	none	500.0	test	n/a	n/a	n/a	n/a	n/a	n/a	n/a	n/a	n/a	n/a	n/a	n/a	n/a	n/a	n/a	n/a	n/a	n/a	fixation
113173.10342570697	2750.0	n/a	1446	71	2750	2774.89657429	stim	stop-signal	250	718585	0.0-13.24-1.24	beast_fmri_test	275	716126,/,716806,/,717486,/,718163,/,718841,/,719521,/,720202,/,720881,/	t,t,t,t,t,t,t,t	<img class = center src='/static/experiments/beast_fmri_test/images/V.png'></img>	89,71	2750.0	test	<img class = center src='/static/experiments/beast_fmri_test/images/redV.png'></img>	go	2450.0	3.0	24.0	go	non-target	V	89,Middle Finger	71,Index Finger	450.0	300.0	2300.0	2450.0	1.0	300.0	1.0	n/a	go_stim
115923.10342570697	2774.89657429	n/a	1446	71	2750	2774.89657429	stim	stop-signal	250	718585	0.0-13.24-1.24	beast_fmri_test	275	716126,/,716806,/,717486,/,718163,/,718841,/,719521,/,720202,/,720881,/	t,t,t,t,t,t,t,t	<img class = center src='/static/experiments/beast_fmri_test/images/V.png'></img>	89,71	2750.0	test	<img class = center src='/static/experiments/beast_fmri_test/images/redV.png'></img>	go	2450.0	3.0	24.0	go	non-target	V	89,Middle Finger	71,Index Finger	450.0	300.0	2300.0	2450.0	1.0	300.0	1.0	n/a	ITI
122000	500.0	n/a	-1	-1	500	0.0	fixation	poldrack-single-stim	251	721887	0.0-13.25-0.25	beast_fmri_test	275	721561,/	t	<div class = centerbox2><div class = fixation>+</div></div>	none	500.0	test	n/a	n/a	n/a	n/a	n/a	n/a	n/a	n/a	n/a	n/a	n/a	n/a	n/a	n/a	n/a	n/a	n/a	n/a	fixation
120016.05704862333	2750.0	n/a	897	89	2750	1985.94295138	stim	stop-signal	252	724639	0.0-13.25-1.25	beast_fmri_test	275	722243,/,722921,/,723602,/,724281,/,724962,/,725642,/,726322,/	t,t,t,t,t,t,t	<img class = center src='/static/experiments/beast_fmri_test/images/D.png'></img>	89,71	2750.0	test	<img class = center src='/static/experiments/beast_fmri_test/images/redD.png'></img>	go	2300.0	3.0	25.0	go	target	D	89,Middle Finger	71,Index Finger	450.0	300.0	2300.0	2450.0	1.0	450.0	1.0	n/a	go_stim
122766.05704862333	1985.94295138	n/a	897	89	2750	1985.94295138	stim	stop-signal	252	724639	0.0-13.25-1.25	beast_fmri_test	275	722243,/,722921,/,723602,/,724281,/,724962,/,725642,/,726322,/	t,t,t,t,t,t,t	<img class = center src='/static/experiments/beast_fmri_test/images/D.png'></img>	89,71	2750.0	test	<img class = center src='/static/experiments/beast_fmri_test/images/redD.png'></img>	go	2300.0	3.0	25.0	go	target	D	89,Middle Finger	71,Index Finger	450.0	300.0	2300.0	2450.0	1.0	450.0	1.0	n/a	ITI
127267	500.0	n/a	-1	-1	500	0.0	fixation	poldrack-single-stim	253	727154	0.0-13.26-0.26	beast_fmri_test	275	727002,/	t	<div class = centerbox2><div class = fixation>+</div></div>	none	500.0	test	n/a	n/a	n/a	n/a	n/a	n/a	n/a	n/a	n/a	n/a	n/a	n/a	n/a	n/a	n/a	n/a	n/a	n/a	fixation
125399.2986927845	2750.0	n/a	1498	71	2750	1864.70130722	stim	stop-signal	254	729901	0.0-13.26-1.26	beast_fmri_test	275	727680,/,728357,/,729037,/,729716,/,730396,/,731076,/,731755,/	t,t,t,t,t,t,t	<img class = center src='/static/experiments/beast_fmri_test/images/B.png'></img>	89,71	2750.0	test	<img class = center src='/static/experiments/beast_fmri_test/images/redB.png'></img>	go	2450.0	3.0	26.0	go	non-target	B	89,Middle Finger	71,Index Finger	450.0	300.0	2300.0	2450.0	1.0	300.0	1.0	n/a	go_stim
128149.2986927845	1864.70130722	n/a	1498	71	2750	1864.70130722	stim	stop-signal	254	729901	0.0-13.26-1.26	beast_fmri_test	275	727680,/,728357,/,729037,/,729716,/,730396,/,731076,/,731755,/	t,t,t,t,t,t,t	<img class = center src='/static/experiments/beast_fmri_test/images/B.png'></img>	89,71	2750.0	test	<img class = center src='/static/experiments/beast_fmri_test/images/redB.png'></img>	go	2450.0	3.0	26.0	go	non-target	B	89,Middle Finger	71,Index Finger	450.0	300.0	2300.0	2450.0	1.0	300.0	1.0	n/a	ITI
132405	500.0	n/a	-1	-1	500	0.0	fixation	poldrack-single-stim	255	732292	0.0-13.27-0.27	beast_fmri_test	275	n/a	n/a	<div class = centerbox2><div class = fixation>+</div></div>	none	500.0	test	n/a	n/a	n/a	n/a	n/a	n/a	n/a	n/a	n/a	n/a	n/a	n/a	n/a	n/a	n/a	n/a	n/a	n/a	fixation
132226.95599935809	2750.0	n/a	525	71	2750	181.044000642	stim	stop-signal	256	735045	0.0-13.27-1.27	beast_fmri_test	275	732437,/,733117,/,733796,/,734477,/,735156,/	t,t,t,t,t	<img class = center src='/static/experiments/beast_fmri_test/images/T.png'></img>	89,71	2750.0	test	<img class = center src='/static/experiments/beast_fmri_test/images/redT.png'></img>	go	2450.0	3.0	27.0	go	non-target	T	89,Middle Finger	71,Index Finger	450.0	300.0	2300.0	2450.0	1.0	300.0	1.0	n/a	go_stim
134976.95599935809	181.044000642	n/a	525	71	2750	181.044000642	stim	stop-signal	256	735045	0.0-13.27-1.27	beast_fmri_test	275	732437,/,733117,/,733796,/,734477,/,735156,/	t,t,t,t,t	<img class = center src='/static/experiments/beast_fmri_test/images/T.png'></img>	89,71	2750.0	test	<img class = center src='/static/experiments/beast_fmri_test/images/redT.png'></img>	go	2450.0	3.0	27.0	go	non-target	T	89,Middle Finger	71,Index Finger	450.0	300.0	2300.0	2450.0	1.0	300.0	1.0	n/a	ITI
135871	500.0	n/a	-1	-1	500	0.0	fixation	poldrack-single-stim	257	735758	0.0-13.28-0.28	beast_fmri_test	275	n/a	n/a	<div class = centerbox2><div class = fixation>+</div></div>	none	500.0	test	n/a	n/a	n/a	n/a	n/a	n/a	n/a	n/a	n/a	n/a	n/a	n/a	n/a	n/a	n/a	n/a	n/a	n/a	fixation
135715.00340241485	2750.0	n/a	560	71	2750	152.996597585	stim	stop-signal	258	738505	0.0-13.28-1.28	beast_fmri_test	275	735836,/,736517,/,737196,/,737874,/,738551,/	t,t,t,t,t	<img class = center src='/static/experiments/beast_fmri_test/images/P.png'></img>	89,71	2750.0	test	<img class = center src='/static/experiments/beast_fmri_test/images/redP.png'></img>	go	2450.0	3.0	28.0	go	non-target	P	89,Middle Finger	71,Index Finger	450.0	300.0	2300.0	2450.0	1.0	300.0	1.0	n/a	go_stim
138465.00340241485	152.996597585	n/a	560	71	2750	152.996597585	stim	stop-signal	258	738505	0.0-13.28-1.28	beast_fmri_test	275	735836,/,736517,/,737196,/,737874,/,738551,/	t,t,t,t,t	<img class = center src='/static/experiments/beast_fmri_test/images/P.png'></img>	89,71	2750.0	test	<img class = center src='/static/experiments/beast_fmri_test/images/redP.png'></img>	go	2450.0	3.0	28.0	go	non-target	P	89,Middle Finger	71,Index Finger	450.0	300.0	2300.0	2450.0	1.0	300.0	1.0	n/a	ITI
139301	500.0	n/a	-1	-1	500	0.0	fixation	poldrack-single-stim	259	739188	0.0-13.29-0.29	beast_fmri_test	275	n/a	n/a	<div class = centerbox2><div class = fixation>+</div></div>	none	500.0	test	n/a	n/a	n/a	n/a	n/a	n/a	n/a	n/a	n/a	n/a	n/a	n/a	n/a	n/a	n/a	n/a	n/a	n/a	fixation
139125.70447667805	300.0	n/a	-1	-1	2750	177.295523322	stim	stop-signal	260	741940	0.0-13.29-1.29	beast_fmri_test	275	739231,/,739912,/,740593,/,741272,/,741952,/	t,t,t,t,t	<img class = center src='/static/experiments/beast_fmri_test/images/V.png'></img>	89,71	2750.0	test	<img class = center src='/static/experiments/beast_fmri_test/images/redV.png'></img>	stop	2450.0	3.0	29.0	stop	non-target	V	89,Middle Finger	71,Index Finger	450.0	300.0	2300.0	2450.0	0.0	300.0	n/a	1.0	go_stim
141575.70447667805	2450.0	n/a	-1	-1	2750	177.295523322	stim	stop-signal	260	741940	0.0-13.29-1.29	beast_fmri_test	275	739231,/,739912,/,740593,/,741272,/,741952,/	t,t,t,t,t	<img class = center src='/static/experiments/beast_fmri_test/images/V.png'></img>	89,71	2750.0	test	<img class = center src='/static/experiments/beast_fmri_test/images/redV.png'></img>	stop	2450.0	3.0	29.0	stop	non-target	V	89,Middle Finger	71,Index Finger	450.0	300.0	2300.0	2450.0	0.0	300.0	n/a	1.0	stop_stim
141875.70447667805	177.295523322	n/a	-1	-1	2750	177.295523322	stim	stop-signal	260	741940	0.0-13.29-1.29	beast_fmri_test	275	739231,/,739912,/,740593,/,741272,/,741952,/	t,t,t,t,t	<img class = center src='/static/experiments/beast_fmri_test/images/V.png'></img>	89,71	2750.0	test	<img class = center src='/static/experiments/beast_fmri_test/images/redV.png'></img>	stop	2450.0	3.0	29.0	stop	non-target	V	89,Middle Finger	71,Index Finger	450.0	300.0	2300.0	2450.0	0.0	300.0	n/a	1.0	ITI
142759	500.0	n/a	-1	-1	500	0.0	fixation	poldrack-single-stim	261	742646	0.0-13.30-0.30	beast_fmri_test	275	742632,/	t	<div class = centerbox2><div class = fixation>+</div></div>	none	500.0	test	n/a	n/a	n/a	n/a	n/a	n/a	n/a	n/a	n/a	n/a	n/a	n/a	n/a	n/a	n/a	n/a	n/a	n/a	fixation
142222.00528846937	2750.0	n/a	438	89	2750	538.994711531	stim	stop-signal	262	745398	0.0-13.30-1.30	beast_fmri_test	275	743313,/,743992,/,744672,/,745352,/	t,t,t,t	<img class = center src='/static/experiments/beast_fmri_test/images/T.png'></img>	89,71	2750.0	test	<img class = center src='/static/experiments/beast_fmri_test/images/redT.png'></img>	go	2300.0	3.0	30.0	go	target	T	89,Middle Finger	71,Index Finger	450.0	350.0	2300.0	2450.0	1.0	450.0	1.0	n/a	go_stim
144972.00528846937	538.994711531	n/a	438	89	2750	538.994711531	stim	stop-signal	262	745398	0.0-13.30-1.30	beast_fmri_test	275	743313,/,743992,/,744672,/,745352,/	t,t,t,t	<img class = center src='/static/experiments/beast_fmri_test/images/T.png'></img>	89,71	2750.0	test	<img class = center src='/static/experiments/beast_fmri_test/images/redT.png'></img>	go	2300.0	3.0	30.0	go	target	T	89,Middle Finger	71,Index Finger	450.0	350.0	2300.0	2450.0	1.0	450.0	1.0	n/a	ITI
146579	500.0	n/a	-1	-1	500	0.0	fixation	poldrack-single-stim	263	746466	0.0-13.31-0.31	beast_fmri_test	275	746033,/	t	<div class = centerbox2><div class = fixation>+</div></div>	none	500.0	test	n/a	n/a	n/a	n/a	n/a	n/a	n/a	n/a	n/a	n/a	n/a	n/a	n/a	n/a	n/a	n/a	n/a	n/a	fixation
146546.98778420966	2750.0	n/a	742	71	2750	36.0122157904	stim	stop-signal	264	749220	0.0-13.31-1.31	beast_fmri_test	275	746714,/,747392,/,748072,/,748752,/	t,t,t,t	<img class = center src='/static/experiments/beast_fmri_test/images/T.png'></img>	89,71	2750.0	test	<img class = center src='/static/experiments/beast_fmri_test/images/redT.png'></img>	go	2400.0	3.0	31.0	go	non-target	T	89,Middle Finger	71,Index Finger	450.0	350.0	2300.0	2400.0	1.0	350.0	1.0	n/a	go_stim
149296.98778420966	36.0122157904	n/a	742	71	2750	36.0122157904	stim	stop-signal	264	749220	0.0-13.31-1.31	beast_fmri_test	275	746714,/,747392,/,748072,/,748752,/	t,t,t,t	<img class = center src='/static/experiments/beast_fmri_test/images/T.png'></img>	89,71	2750.0	test	<img class = center src='/static/experiments/beast_fmri_test/images/redT.png'></img>	go	2400.0	3.0	31.0	go	non-target	T	89,Middle Finger	71,Index Finger	450.0	350.0	2300.0	2400.0	1.0	350.0	1.0	n/a	ITI
149896	500.0	n/a	-1	-1	500	0.0	fixation	poldrack-single-stim	265	749783	0.0-13.32-0.32	beast_fmri_test	275	749432,/	t	<div class = centerbox2><div class = fixation>+</div></div>	none	500.0	test	n/a	n/a	n/a	n/a	n/a	n/a	n/a	n/a	n/a	n/a	n/a	n/a	n/a	n/a	n/a	n/a	n/a	n/a	fixation
149573.13962566818	350.0	n/a	-1	-1	2750	325.860374332	stim	stop-signal	266	752536	0.0-13.32-1.32	beast_fmri_test	275	750113,/,750793,/,751474,/,752153,/,752832,/	t,t,t,t,t	<img class = center src='/static/experiments/beast_fmri_test/images/P.png'></img>	89,71	2750.0	test	<img class = center src='/static/experiments/beast_fmri_test/images/redP.png'></img>	stop	2400.0	3.0	32.0	stop	non-target	P	89,Middle Finger	71,Index Finger	450.0	350.0	2300.0	2400.0	0.0	350.0	n/a	1.0	go_stim
151973.13962566818	2400.0	n/a	-1	-1	2750	325.860374332	stim	stop-signal	266	752536	0.0-13.32-1.32	beast_fmri_test	275	750113,/,750793,/,751474,/,752153,/,752832,/	t,t,t,t,t	<img class = center src='/static/experiments/beast_fmri_test/images/P.png'></img>	89,71	2750.0	test	<img class = center src='/static/experiments/beast_fmri_test/images/redP.png'></img>	stop	2400.0	3.0	32.0	stop	non-target	P	89,Middle Finger	71,Index Finger	450.0	350.0	2300.0	2400.0	0.0	350.0	n/a	1.0	stop_stim
152323.13962566818	325.860374332	n/a	-1	-1	2750	325.860374332	stim	stop-signal	266	752536	0.0-13.32-1.32	beast_fmri_test	275	750113,/,750793,/,751474,/,752153,/,752832,/	t,t,t,t,t	<img class = center src='/static/experiments/beast_fmri_test/images/P.png'></img>	89,71	2750.0	test	<img class = center src='/static/experiments/beast_fmri_test/images/redP.png'></img>	stop	2400.0	3.0	32.0	stop	non-target	P	89,Middle Finger	71,Index Finger	450.0	350.0	2300.0	2400.0	0.0	350.0	n/a	1.0	ITI
153502	500.0	n/a	-1	-1	500	0.0	fixation	poldrack-single-stim	267	753389	0.0-13.33-0.33	beast_fmri_test	275	n/a	n/a	<div class = centerbox2><div class = fixation>+</div></div>	none	500.0	test	n/a	n/a	n/a	n/a	n/a	n/a	n/a	n/a	n/a	n/a	n/a	n/a	n/a	n/a	n/a	n/a	n/a	n/a	fixation
153342.69067155081	2750.0	n/a	462	71	2750	162.309328449	stim	stop-signal	268	756142	0.0-13.33-1.33	beast_fmri_test	275	753512,/,754192,/,754872,/,755552,/,756234,/	t,t,t,t,t	<img class = center src='/static/experiments/beast_fmri_test/images/D.png'></img>	89,71	2750.0	test	<img class = center src='/static/experiments/beast_fmri_test/images/redD.png'></img>	go	2350.0	3.0	33.0	go	non-target	D	89,Middle Finger	71,Index Finger	450.0	400.0	2300.0	2350.0	1.0	400.0	1.0	n/a	go_stim
156092.69067155081	162.309328449	n/a	462	71	2750	162.309328449	stim	stop-signal	268	756142	0.0-13.33-1.33	beast_fmri_test	275	753512,/,754192,/,754872,/,755552,/,756234,/	t,t,t,t,t	<img class = center src='/static/experiments/beast_fmri_test/images/D.png'></img>	89,71	2750.0	test	<img class = center src='/static/experiments/beast_fmri_test/images/redD.png'></img>	go	2350.0	3.0	33.0	go	non-target	D	89,Middle Finger	71,Index Finger	450.0	400.0	2300.0	2350.0	1.0	400.0	1.0	n/a	ITI
156949	500.0	n/a	-1	-1	500	0.0	fixation	poldrack-single-stim	269	756836	0.0-13.34-0.34	beast_fmri_test	275	n/a	n/a	<div class = centerbox2><div class = fixation>+</div></div>	none	500.0	test	n/a	n/a	n/a	n/a	n/a	n/a	n/a	n/a	n/a	n/a	n/a	n/a	n/a	n/a	n/a	n/a	n/a	n/a	fixation
156787.60998708743	2750.0	n/a	1943	89	2750	159.390012913	stim	stop-signal	270	759584	0.0-13.34-1.34	beast_fmri_test	275	756913,/,757591,/,758268,/,758947,/,759627,/	t,t,t,t,t	<img class = center src='/static/experiments/beast_fmri_test/images/T.png'></img>	89,71	2750.0	test	<img class = center src='/static/experiments/beast_fmri_test/images/redT.png'></img>	go	2300.0	3.0	34.0	go	target	T	89,Middle Finger	71,Index Finger	450.0	400.0	2300.0	2350.0	1.0	450.0	1.0	n/a	go_stim
159537.60998708743	159.390012913	n/a	1943	89	2750	159.390012913	stim	stop-signal	270	759584	0.0-13.34-1.34	beast_fmri_test	275	756913,/,757591,/,758268,/,758947,/,759627,/	t,t,t,t,t	<img class = center src='/static/experiments/beast_fmri_test/images/T.png'></img>	89,71	2750.0	test	<img class = center src='/static/experiments/beast_fmri_test/images/redT.png'></img>	go	2300.0	3.0	34.0	go	target	T	89,Middle Finger	71,Index Finger	450.0	400.0	2300.0	2350.0	1.0	450.0	1.0	n/a	ITI
160387	500.0	n/a	-1	-1	500	0.0	fixation	poldrack-single-stim	271	760274	0.0-13.35-0.35	beast_fmri_test	275	n/a	n/a	<div class = centerbox2><div class = fixation>+</div></div>	none	500.0	test	n/a	n/a	n/a	n/a	n/a	n/a	n/a	n/a	n/a	n/a	n/a	n/a	n/a	n/a	n/a	n/a	n/a	n/a	fixation
159977.24439827318	400.0	n/a	-1	-1	2750	412.755601727	stim	stop-signal	272	763027	0.0-13.35-1.35	beast_fmri_test	275	760310,/,760988,/,761668,/,762348,/,763028,/	t,t,t,t,t	<img class = center src='/static/experiments/beast_fmri_test/images/T.png'></img>	89,71	2750.0	test	<img class = center src='/static/experiments/beast_fmri_test/images/redT.png'></img>	stop	2350.0	3.0	35.0	stop	non-target	T	89,Middle Finger	71,Index Finger	450.0	400.0	2300.0	2350.0	0.0	400.0	n/a	1.0	go_stim
162327.24439827318	2350.0	n/a	-1	-1	2750	412.755601727	stim	stop-signal	272	763027	0.0-13.35-1.35	beast_fmri_test	275	760310,/,760988,/,761668,/,762348,/,763028,/	t,t,t,t,t	<img class = center src='/static/experiments/beast_fmri_test/images/T.png'></img>	89,71	2750.0	test	<img class = center src='/static/experiments/beast_fmri_test/images/redT.png'></img>	stop	2350.0	3.0	35.0	stop	non-target	T	89,Middle Finger	71,Index Finger	450.0	400.0	2300.0	2350.0	0.0	400.0	n/a	1.0	stop_stim
162727.24439827318	412.755601727	n/a	-1	-1	2750	412.755601727	stim	stop-signal	272	763027	0.0-13.35-1.35	beast_fmri_test	275	760310,/,760988,/,761668,/,762348,/,763028,/	t,t,t,t,t	<img class = center src='/static/experiments/beast_fmri_test/images/T.png'></img>	89,71	2750.0	test	<img class = center src='/static/experiments/beast_fmri_test/images/redT.png'></img>	stop	2350.0	3.0	35.0	stop	non-target	T	89,Middle Finger	71,Index Finger	450.0	400.0	2300.0	2350.0	0.0	400.0	n/a	1.0	ITI
164079	500.0	n/a	-1	-1	500	0.0	fixation	poldrack-single-stim	273	763966	0.0-13.36-0.36	beast_fmri_test	275	763707,/	t	<div class = centerbox2><div class = fixation>+</div></div>	none	500.0	test	n/a	n/a	n/a	n/a	n/a	n/a	n/a	n/a	n/a	n/a	n/a	n/a	n/a	n/a	n/a	n/a	n/a	n/a	fixation
163023.10721677064	2750.0	n/a	1221	89	2750	1058.89278323	stim	stop-signal	274	766719	0.0-13.36-1.36	beast_fmri_test	275	764389,/,765068,/,765749,/,766428,/,767107,/	t,t,t,t,t	<img class = center src='/static/experiments/beast_fmri_test/images/T.png'></img>	89,71	2750.0	test	<img class = center src='/static/experiments/beast_fmri_test/images/redT.png'></img>	go	2300.0	3.0	36.0	go	non-target	T	89,Middle Finger	71,Index Finger	450.0	450.0	2300.0	2300.0	0.0	450.0	0.0	n/a	go_stim
165773.10721677064	1058.89278323	n/a	1221	89	2750	1058.89278323	stim	stop-signal	274	766719	0.0-13.36-1.36	beast_fmri_test	275	764389,/,765068,/,765749,/,766428,/,767107,/	t,t,t,t,t	<img class = center src='/static/experiments/beast_fmri_test/images/T.png'></img>	89,71	2750.0	test	<img class = center src='/static/experiments/beast_fmri_test/images/redT.png'></img>	go	2300.0	3.0	36.0	go	non-target	T	89,Middle Finger	71,Index Finger	450.0	450.0	2300.0	2300.0	0.0	450.0	0.0	n/a	ITI
168418	500.0	n/a	-1	-1	500	0.0	fixation	poldrack-single-stim	275	768305	0.0-13.37-0.37	beast_fmri_test	275	767806,/	t	<div class = centerbox2><div class = fixation>+</div></div>	none	500.0	test	n/a	n/a	n/a	n/a	n/a	n/a	n/a	n/a	n/a	n/a	n/a	n/a	n/a	n/a	n/a	n/a	n/a	n/a	fixation
168346.16266687308	2750.0	n/a	742	71	2750	73.8373331269	stim	stop-signal	276	771057	0.0-13.37-1.37	beast_fmri_test	275	768462,/,769142,/,769823,/,770503,/	t,t,t,t	<img class = center src='/static/experiments/beast_fmri_test/images/B.png'></img>	89,71	2750.0	test	<img class = center src='/static/experiments/beast_fmri_test/images/redB.png'></img>	go	2300.0	3.0	37.0	go	non-target	B	89,Middle Finger	71,Index Finger	450.0	450.0	2300.0	2300.0	1.0	450.0	1.0	n/a	go_stim
171096.16266687308	73.8373331269	n/a	742	71	2750	73.8373331269	stim	stop-signal	276	771057	0.0-13.37-1.37	beast_fmri_test	275	768462,/,769142,/,769823,/,770503,/	t,t,t,t	<img class = center src='/static/experiments/beast_fmri_test/images/B.png'></img>	89,71	2750.0	test	<img class = center src='/static/experiments/beast_fmri_test/images/redB.png'></img>	go	2300.0	3.0	37.0	go	non-target	B	89,Middle Finger	71,Index Finger	450.0	450.0	2300.0	2300.0	1.0	450.0	1.0	n/a	ITI
171773	500.0	n/a	-1	-1	500	0.0	fixation	poldrack-single-stim	277	771660	0.0-13.38-0.38	beast_fmri_test	275	771183,/	t	<div class = centerbox2><div class = fixation>+</div></div>	none	500.0	test	n/a	n/a	n/a	n/a	n/a	n/a	n/a	n/a	n/a	n/a	n/a	n/a	n/a	n/a	n/a	n/a	n/a	n/a	fixation
171284.64907508634	450.0	n/a	607	71	2750	491.350924914	stim	stop-signal	278	774413	0.0-13.38-1.38	beast_fmri_test	275	771862,/,772543,/,773224,/,773904,/,774583,/	t,t,t,t,t	<img class = center src='/static/experiments/beast_fmri_test/images/D.png'></img>	89,71	2750.0	test	<img class = center src='/static/experiments/beast_fmri_test/images/redD.png'></img>	stop	2300.0	3.0	38.0	stop	non-target	D	89,Middle Finger	71,Index Finger	450.0	450.0	2300.0	2300.0	0.0	450.0	n/a	0.0	go_stim
173584.64907508634	2300.0	n/a	607	71	2750	491.350924914	stim	stop-signal	278	774413	0.0-13.38-1.38	beast_fmri_test	275	771862,/,772543,/,773224,/,773904,/,774583,/	t,t,t,t,t	<img class = center src='/static/experiments/beast_fmri_test/images/D.png'></img>	89,71	2750.0	test	<img class = center src='/static/experiments/beast_fmri_test/images/redD.png'></img>	stop	2300.0	3.0	38.0	stop	non-target	D	89,Middle Finger	71,Index Finger	450.0	450.0	2300.0	2300.0	0.0	450.0	n/a	0.0	stop_stim
174034.64907508634	491.350924914	n/a	607	71	2750	491.350924914	stim	stop-signal	278	774413	0.0-13.38-1.38	beast_fmri_test	275	771862,/,772543,/,773224,/,773904,/,774583,/	t,t,t,t,t	<img class = center src='/static/experiments/beast_fmri_test/images/D.png'></img>	89,71	2750.0	test	<img class = center src='/static/experiments/beast_fmri_test/images/redD.png'></img>	stop	2300.0	3.0	38.0	stop	non-target	D	89,Middle Finger	71,Index Finger	450.0	450.0	2300.0	2300.0	0.0	450.0	n/a	0.0	ITI
175545	500.0	n/a	-1	-1	500	0.0	fixation	poldrack-single-stim	279	775432	0.0-13.39-0.39	beast_fmri_test	275	775264,/	t	<div class = centerbox2><div class = fixation>+</div></div>	none	500.0	test	n/a	n/a	n/a	n/a	n/a	n/a	n/a	n/a	n/a	n/a	n/a	n/a	n/a	n/a	n/a	n/a	n/a	n/a	fixation
175196.04656278319	2750.0	n/a	962	89	2750	347.953437217	stim	stop-signal	280	778181	0.0-13.39-1.39	beast_fmri_test	275	775945,/,776623,/,777302,/,777980,/	t,t,t,t	<img class = center src='/static/experiments/beast_fmri_test/images/T.png'></img>	89,71	2750.0	test	<img class = center src='/static/experiments/beast_fmri_test/images/redT.png'></img>	go	2300.0	3.0	39.0	go	target	T	89,Middle Finger	71,Index Finger	450.0	400.0	2300.0	2300.0	1.0	450.0	1.0	n/a	go_stim
177946.04656278319	347.953437217	n/a	962	89	2750	347.953437217	stim	stop-signal	280	778181	0.0-13.39-1.39	beast_fmri_test	275	775945,/,776623,/,777302,/,777980,/	t,t,t,t	<img class = center src='/static/experiments/beast_fmri_test/images/T.png'></img>	89,71	2750.0	test	<img class = center src='/static/experiments/beast_fmri_test/images/redT.png'></img>	go	2300.0	3.0	39.0	go	target	T	89,Middle Finger	71,Index Finger	450.0	400.0	2300.0	2300.0	1.0	450.0	1.0	n/a	ITI
179171	500.0	n/a	-1	-1	500	0.0	fixation	poldrack-single-stim	281	779058	0.0-13.40-0.40	beast_fmri_test	275	778659,/	t	<div class = centerbox2><div class = fixation>+</div></div>	none	500.0	test	n/a	n/a	n/a	n/a	n/a	n/a	n/a	n/a	n/a	n/a	n/a	n/a	n/a	n/a	n/a	n/a	n/a	n/a	fixation
178802.21758205059	2750.0	n/a	950	71	2750	371.782417949	stim	stop-signal	282	781811	0.0-13.40-1.40	beast_fmri_test	275	779338,/,780018,/,780698,/,781378,/,782059,/	t,t,t,t,t	<img class = center src='/static/experiments/beast_fmri_test/images/T.png'></img>	89,71	2750.0	test	<img class = center src='/static/experiments/beast_fmri_test/images/redT.png'></img>	go	2350.0	3.0	40.0	go	non-target	T	89,Middle Finger	71,Index Finger	450.0	400.0	2300.0	2350.0	1.0	400.0	1.0	n/a	go_stim
181552.21758205059	371.782417949	n/a	950	71	2750	371.782417949	stim	stop-signal	282	781811	0.0-13.40-1.40	beast_fmri_test	275	779338,/,780018,/,780698,/,781378,/,782059,/	t,t,t,t,t	<img class = center src='/static/experiments/beast_fmri_test/images/T.png'></img>	89,71	2750.0	test	<img class = center src='/static/experiments/beast_fmri_test/images/redT.png'></img>	go	2350.0	3.0	40.0	go	non-target	T	89,Middle Finger	71,Index Finger	450.0	400.0	2300.0	2350.0	1.0	400.0	1.0	n/a	ITI
182822	500.0	n/a	-1	-1	500	0.0	fixation	poldrack-single-stim	283	782709	0.0-13.41-0.41	beast_fmri_test	275	n/a	n/a	<div class = centerbox2><div class = fixation>+</div></div>	none	500.0	test	n/a	n/a	n/a	n/a	n/a	n/a	n/a	n/a	n/a	n/a	n/a	n/a	n/a	n/a	n/a	n/a	n/a	n/a	fixation
182673.75971952616	450.0	n/a	-1	-1	2750	150.240280474	stim	stop-signal	284	785461	0.0-13.41-1.41	beast_fmri_test	275	782739,/,783419,/,784099,/,784779,/,785459,/	t,t,t,t,t	<img class = center src='/static/experiments/beast_fmri_test/images/D.png'></img>	89,71	2750.0	test	<img class = center src='/static/experiments/beast_fmri_test/images/redD.png'></img>	stop	2300.0	3.0	41.0	stop	target	D	89,Middle Finger	71,Index Finger	450.0	400.0	2300.0	2350.0	0.0	450.0	n/a	1.0	go_stim
184973.75971952616	2300.0	n/a	-1	-1	2750	150.240280474	stim	stop-signal	284	785461	0.0-13.41-1.41	beast_fmri_test	275	782739,/,783419,/,784099,/,784779,/,785459,/	t,t,t,t,t	<img class = center src='/static/experiments/beast_fmri_test/images/D.png'></img>	89,71	2750.0	test	<img class = center src='/static/experiments/beast_fmri_test/images/redD.png'></img>	stop	2300.0	3.0	41.0	stop	target	D	89,Middle Finger	71,Index Finger	450.0	400.0	2300.0	2350.0	0.0	450.0	n/a	1.0	stop_stim
185423.75971952616	150.240280474	n/a	-1	-1	2750	150.240280474	stim	stop-signal	284	785461	0.0-13.41-1.41	beast_fmri_test	275	782739,/,783419,/,784099,/,784779,/,785459,/	t,t,t,t,t	<img class = center src='/static/experiments/beast_fmri_test/images/D.png'></img>	89,71	2750.0	test	<img class = center src='/static/experiments/beast_fmri_test/images/redD.png'></img>	stop	2300.0	3.0	41.0	stop	target	D	89,Middle Finger	71,Index Finger	450.0	400.0	2300.0	2350.0	0.0	450.0	n/a	1.0	ITI
186253	500.0	n/a	-1	-1	500	0.0	fixation	poldrack-single-stim	285	786140	0.0-13.42-0.42	beast_fmri_test	275	786138,/	t	<div class = centerbox2><div class = fixation>+</div></div>	none	500.0	test	n/a	n/a	n/a	n/a	n/a	n/a	n/a	n/a	n/a	n/a	n/a	n/a	n/a	n/a	n/a	n/a	n/a	n/a	fixation
185606.9421473426	2750.0	n/a	798	71	2750	644.057852657	stim	stop-signal	286	788888	0.0-13.42-1.42	beast_fmri_test	275	786818,/,787497,/,788175,/,788853,/	t,t,t,t	<img class = center src='/static/experiments/beast_fmri_test/images/D.png'></img>	89,71	2750.0	test	<img class = center src='/static/experiments/beast_fmri_test/images/redD.png'></img>	go	2350.0	3.0	42.0	go	non-target	D	89,Middle Finger	71,Index Finger	500.0	400.0	2300.0	2350.0	1.0	400.0	1.0	n/a	go_stim
188356.9421473426	644.057852657	n/a	798	71	2750	644.057852657	stim	stop-signal	286	788888	0.0-13.42-1.42	beast_fmri_test	275	786818,/,787497,/,788175,/,788853,/	t,t,t,t	<img class = center src='/static/experiments/beast_fmri_test/images/D.png'></img>	89,71	2750.0	test	<img class = center src='/static/experiments/beast_fmri_test/images/redD.png'></img>	go	2350.0	3.0	42.0	go	non-target	D	89,Middle Finger	71,Index Finger	500.0	400.0	2300.0	2350.0	1.0	400.0	1.0	n/a	ITI
190181	500.0	n/a	-1	-1	500	0.0	fixation	poldrack-single-stim	287	790068	0.0-13.43-0.43	beast_fmri_test	275	789565,/	t	<div class = centerbox2><div class = fixation>+</div></div>	none	500.0	test	n/a	n/a	n/a	n/a	n/a	n/a	n/a	n/a	n/a	n/a	n/a	n/a	n/a	n/a	n/a	n/a	n/a	n/a	fixation
189693.65513774182	500.0	n/a	-1	-1	2750	490.344862258	stim	stop-signal	288	792821	0.0-13.43-1.43	beast_fmri_test	275	790213,/,790893,/,791574,/,792254,/,792934,/	t,t,t,t,t	<img class = center src='/static/experiments/beast_fmri_test/images/T.png'></img>	89,71	2750.0	test	<img class = center src='/static/experiments/beast_fmri_test/images/redT.png'></img>	stop	2250.0	3.0	43.0	stop	target	T	89,Middle Finger	71,Index Finger	500.0	400.0	2250.0	2350.0	0.0	500.0	n/a	1.0	go_stim
191943.65513774182	2250.0	n/a	-1	-1	2750	490.344862258	stim	stop-signal	288	792821	0.0-13.43-1.43	beast_fmri_test	275	790213,/,790893,/,791574,/,792254,/,792934,/	t,t,t,t,t	<img class = center src='/static/experiments/beast_fmri_test/images/T.png'></img>	89,71	2750.0	test	<img class = center src='/static/experiments/beast_fmri_test/images/redT.png'></img>	stop	2250.0	3.0	43.0	stop	target	T	89,Middle Finger	71,Index Finger	500.0	400.0	2250.0	2350.0	0.0	500.0	n/a	1.0	stop_stim
192443.65513774182	490.344862258	n/a	-1	-1	2750	490.344862258	stim	stop-signal	288	792821	0.0-13.43-1.43	beast_fmri_test	275	790213,/,790893,/,791574,/,792254,/,792934,/	t,t,t,t,t	<img class = center src='/static/experiments/beast_fmri_test/images/T.png'></img>	89,71	2750.0	test	<img class = center src='/static/experiments/beast_fmri_test/images/redT.png'></img>	stop	2250.0	3.0	43.0	stop	target	T	89,Middle Finger	71,Index Finger	500.0	400.0	2250.0	2350.0	0.0	500.0	n/a	1.0	ITI
193952	500.0	n/a	-1	-1	500	0.0	fixation	poldrack-single-stim	289	793839	0.0-13.44-0.44	beast_fmri_test	275	793615,/	t	<div class = centerbox2><div class = fixation>+</div></div>	none	500.0	test	n/a	n/a	n/a	n/a	n/a	n/a	n/a	n/a	n/a	n/a	n/a	n/a	n/a	n/a	n/a	n/a	n/a	n/a	fixation
193875.74621788284	2750.0	n/a	490	89	2750	79.2537821171	stim	stop-signal	290	796592	0.0-13.44-1.44	beast_fmri_test	275	794294,/,794974,/,795654,/,796334,/	t,t,t,t	<img class = center src='/static/experiments/beast_fmri_test/images/D.png'></img>	89,71	2750.0	test	<img class = center src='/static/experiments/beast_fmri_test/images/redD.png'></img>	go	2200.0	3.0	44.0	go	target	D	89,Middle Finger	71,Index Finger	550.0	400.0	2200.0	2350.0	1.0	550.0	1.0	n/a	go_stim
196625.74621788284	79.2537821171	n/a	490	89	2750	79.2537821171	stim	stop-signal	290	796592	0.0-13.44-1.44	beast_fmri_test	275	794294,/,794974,/,795654,/,796334,/	t,t,t,t	<img class = center src='/static/experiments/beast_fmri_test/images/D.png'></img>	89,71	2750.0	test	<img class = center src='/static/experiments/beast_fmri_test/images/redD.png'></img>	go	2200.0	3.0	44.0	go	target	D	89,Middle Finger	71,Index Finger	550.0	400.0	2200.0	2350.0	1.0	550.0	1.0	n/a	ITI
197317	500.0	n/a	-1	-1	500	0.0	fixation	poldrack-single-stim	291	797204	0.0-13.45-0.45	beast_fmri_test	275	797013,/	t	<div class = centerbox2><div class = fixation>+</div></div>	none	500.0	test	n/a	n/a	n/a	n/a	n/a	n/a	n/a	n/a	n/a	n/a	n/a	n/a	n/a	n/a	n/a	n/a	n/a	n/a	fixation
195886.14734639856	2750.0	n/a	1342	71	2750	1429.8526536	stim	stop-signal	292	799953	0.0-13.45-1.45	beast_fmri_test	275	797691,/,798369,/,799049,/,799730,/,800408,/,801089,/	t,t,t,t,t,t	<img class = center src='/static/experiments/beast_fmri_test/images/D.png'></img>	89,71	2750.0	test	<img class = center src='/static/experiments/beast_fmri_test/images/redD.png'></img>	go	2200.0	3.0	45.0	go	target	D	89,Middle Finger	71,Index Finger	550.0	400.0	2200.0	2350.0	0.0	550.0	0.0	n/a	go_stim
198636.14734639856	1429.8526536	n/a	1342	71	2750	1429.8526536	stim	stop-signal	292	799953	0.0-13.45-1.45	beast_fmri_test	275	797691,/,798369,/,799049,/,799730,/,800408,/,801089,/	t,t,t,t,t,t	<img class = center src='/static/experiments/beast_fmri_test/images/D.png'></img>	89,71	2750.0	test	<img class = center src='/static/experiments/beast_fmri_test/images/redD.png'></img>	go	2200.0	3.0	45.0	go	target	D	89,Middle Finger	71,Index Finger	550.0	400.0	2200.0	2350.0	0.0	550.0	0.0	n/a	ITI
202030	500.0	n/a	-1	-1	500	0.0	fixation	poldrack-single-stim	293	801917	0.0-13.46-0.46	beast_fmri_test	275	801774,/	t	<div class = centerbox2><div class = fixation>+</div></div>	none	500.0	test	n/a	n/a	n/a	n/a	n/a	n/a	n/a	n/a	n/a	n/a	n/a	n/a	n/a	n/a	n/a	n/a	n/a	n/a	fixation
201230.25159346696	2750.0	n/a	428	89	2750	802.748406533	stim	stop-signal	294	804670	0.0-13.46-1.46	beast_fmri_test	275	802450,/,803129,/,803809,/,804489,/,805169,/	t,t,t,t,t	<img class = center src='/static/experiments/beast_fmri_test/images/T.png'></img>	89,71	2750.0	test	<img class = center src='/static/experiments/beast_fmri_test/images/redT.png'></img>	go	2200.0	3.0	46.0	go	target	T	89,Middle Finger	71,Index Finger	550.0	400.0	2200.0	2350.0	1.0	550.0	1.0	n/a	go_stim
203980.25159346696	802.748406533	n/a	428	89	2750	802.748406533	stim	stop-signal	294	804670	0.0-13.46-1.46	beast_fmri_test	275	802450,/,803129,/,803809,/,804489,/,805169,/	t,t,t,t,t	<img class = center src='/static/experiments/beast_fmri_test/images/T.png'></img>	89,71	2750.0	test	<img class = center src='/static/experiments/beast_fmri_test/images/redT.png'></img>	go	2200.0	3.0	46.0	go	target	T	89,Middle Finger	71,Index Finger	550.0	400.0	2200.0	2350.0	1.0	550.0	1.0	n/a	ITI
206116	500.0	n/a	-1	-1	500	0.0	fixation	poldrack-single-stim	295	806003	0.0-13.47-0.47	beast_fmri_test	275	805851,/	t	<div class = centerbox2><div class = fixation>+</div></div>	none	500.0	test	n/a	n/a	n/a	n/a	n/a	n/a	n/a	n/a	n/a	n/a	n/a	n/a	n/a	n/a	n/a	n/a	n/a	n/a	fixation
205556.46734919271	2750.0	n/a	426	71	2750	561.532650807	stim	stop-signal	296	808755	0.0-13.47-1.47	beast_fmri_test	275	806529,/,807209,/,807890,/,808571,/,809249,/	t,t,t,t,t	<img class = center src='/static/experiments/beast_fmri_test/images/V.png'></img>	89,71	2750.0	test	<img class = center src='/static/experiments/beast_fmri_test/images/redV.png'></img>	go	2350.0	3.0	47.0	go	non-target	V	89,Middle Finger	71,Index Finger	550.0	400.0	2200.0	2350.0	1.0	400.0	1.0	n/a	go_stim
208306.46734919271	561.532650807	n/a	426	71	2750	561.532650807	stim	stop-signal	296	808755	0.0-13.47-1.47	beast_fmri_test	275	806529,/,807209,/,807890,/,808571,/,809249,/	t,t,t,t,t	<img class = center src='/static/experiments/beast_fmri_test/images/V.png'></img>	89,71	2750.0	test	<img class = center src='/static/experiments/beast_fmri_test/images/redV.png'></img>	go	2350.0	3.0	47.0	go	non-target	V	89,Middle Finger	71,Index Finger	550.0	400.0	2200.0	2350.0	1.0	400.0	1.0	n/a	ITI
224457	15000.0	n/a	-1	-1	15000	0.0	practice-no-stop-feedback	poldrack-single-stim	297	824344	0.0-14.0	beast_fmri_test	275	809929,/,810609,/,811289,/,811970,/,812651,/,813331,/,814010,/,814689,/,815369,/,816051,/,816729,/,817409,/,818087,/,818765,/,819445,/,820125,/,820805,/,821484,/,822165,/,822845,/,823524,/,824204,/	t,t,t,t,t,t,t,t,t,t,t,t,t,t,t,t,t,t,t,t,t,t	"<div class = ""centerbox""><p class = ""block-text"">Your delay is 4 trials.</p><p class = block-text>Please wait for the scanner to start the block</p></div>"	77	15000.0	n/a	n/a	n/a	n/a	n/a	n/a	n/a	n/a	n/a	n/a	n/a	n/a	n/a	n/a	n/a	n/a	n/a	n/a	n/a	practice-no-stop-feedback
224959	500.0	n/a	-1	-1	500	0.0	fixation	poldrack-single-stim	298	824846	0.0-15.0-0.0	beast_fmri_test	275	n/a	n/a	<div class = centerbox2><div class = fixation>+</div></div>	none	500.0	test	n/a	n/a	n/a	n/a	n/a	n/a	n/a	n/a	n/a	n/a	n/a	n/a	n/a	n/a	n/a	n/a	n/a	n/a	fixation
222269.2137660135	2750.0	n/a	983	71	2750	2689.78623399	stim	stop-signal	299	827596	0.0-15.0-1.0	beast_fmri_test	275	824884,/,825566,/,826244,/,826924,/,827604,/,828281,/,828960,/,829642,/	t,t,t,t,t,t,t,t	<img class = center src='/static/experiments/beast_fmri_test/images/D.png'></img>	89,71	2750.0	test	<img class = center src='/static/experiments/beast_fmri_test/images/redD.png'></img>	go	-1.0	4.0	0.0	go	temp-non-target	D	89,Middle Finger	71,Index Finger	550.0	400.0	2200.0	2350.0	0.0	n/a	n/a	n/a	go_stim
225019.2137660135	2689.78623399	n/a	983	71	2750	2689.78623399	stim	stop-signal	299	827596	0.0-15.0-1.0	beast_fmri_test	275	824884,/,825566,/,826244,/,826924,/,827604,/,828281,/,828960,/,829642,/	t,t,t,t,t,t,t,t	<img class = center src='/static/experiments/beast_fmri_test/images/D.png'></img>	89,71	2750.0	test	<img class = center src='/static/experiments/beast_fmri_test/images/redD.png'></img>	go	-1.0	4.0	0.0	go	temp-non-target	D	89,Middle Finger	71,Index Finger	550.0	400.0	2200.0	2350.0	0.0	n/a	n/a	n/a	ITI
230929	500.0	n/a	-1	-1	500	0.0	fixation	poldrack-single-stim	300	830816	0.0-15.1-0.1	beast_fmri_test	275	830325,/	t	<div class = centerbox2><div class = fixation>+</div></div>	none	500.0	test	n/a	n/a	n/a	n/a	n/a	n/a	n/a	n/a	n/a	n/a	n/a	n/a	n/a	n/a	n/a	n/a	n/a	n/a	fixation
230668.40868658666	2750.0	n/a	683	71	2750	262.591313413	stim	stop-signal	301	833568	0.0-15.1-1.1	beast_fmri_test	275	831001,/,831681,/,832360,/,833040,/,833720,/	t,t,t,t,t	<img class = center src='/static/experiments/beast_fmri_test/images/P.png'></img>	89,71	2750.0	test	<img class = center src='/static/experiments/beast_fmri_test/images/redP.png'></img>	go	-1.0	4.0	1.0	go	temp-non-target	P	89,Middle Finger	71,Index Finger	550.0	400.0	2200.0	2350.0	0.0	n/a	n/a	n/a	go_stim
233418.40868658666	262.591313413	n/a	683	71	2750	262.591313413	stim	stop-signal	301	833568	0.0-15.1-1.1	beast_fmri_test	275	831001,/,831681,/,832360,/,833040,/,833720,/	t,t,t,t,t	<img class = center src='/static/experiments/beast_fmri_test/images/P.png'></img>	89,71	2750.0	test	<img class = center src='/static/experiments/beast_fmri_test/images/redP.png'></img>	go	-1.0	4.0	1.0	go	temp-non-target	P	89,Middle Finger	71,Index Finger	550.0	400.0	2200.0	2350.0	0.0	n/a	n/a	n/a	ITI
234476	500.0	n/a	-1	-1	500	0.0	fixation	poldrack-single-stim	302	834363	0.0-15.2-0.2	beast_fmri_test	275	n/a	n/a	<div class = centerbox2><div class = fixation>+</div></div>	none	500.0	test	n/a	n/a	n/a	n/a	n/a	n/a	n/a	n/a	n/a	n/a	n/a	n/a	n/a	n/a	n/a	n/a	n/a	n/a	fixation
232319.2955159751	2750.0	n/a	725	71	2750	2158.70448402	stim	stop-signal	303	837115	0.0-15.2-1.2	beast_fmri_test	275	834400,/,835082,/,835760,/,836441,/,837120,/,837798,/,838475,/,839155,/	t,t,t,t,t,t,t,t	<img class = center src='/static/experiments/beast_fmri_test/images/D.png'></img>	89,71	2750.0	test	<img class = center src='/static/experiments/beast_fmri_test/images/redD.png'></img>	go	-1.0	4.0	2.0	go	temp-non-target	D	89,Middle Finger	71,Index Finger	550.0	400.0	2200.0	2350.0	0.0	n/a	n/a	n/a	go_stim
235069.2955159751	2158.70448402	n/a	725	71	2750	2158.70448402	stim	stop-signal	303	837115	0.0-15.2-1.2	beast_fmri_test	275	834400,/,835082,/,835760,/,836441,/,837120,/,837798,/,838475,/,839155,/	t,t,t,t,t,t,t,t	<img class = center src='/static/experiments/beast_fmri_test/images/D.png'></img>	89,71	2750.0	test	<img class = center src='/static/experiments/beast_fmri_test/images/redD.png'></img>	go	-1.0	4.0	2.0	go	temp-non-target	D	89,Middle Finger	71,Index Finger	550.0	400.0	2200.0	2350.0	0.0	n/a	n/a	n/a	ITI
239914	500.0	n/a	-1	-1	500	0.0	fixation	poldrack-single-stim	304	839801	0.0-15.3-0.3	beast_fmri_test	275	n/a	n/a	<div class = centerbox2><div class = fixation>+</div></div>	none	500.0	test	n/a	n/a	n/a	n/a	n/a	n/a	n/a	n/a	n/a	n/a	n/a	n/a	n/a	n/a	n/a	n/a	n/a	n/a	fixation
239740.297490792	2750.0	n/a	699	71	2750	177.702509208	stim	stop-signal	305	842555	0.0-15.3-1.3	beast_fmri_test	275	839837,/,840516,/,841195,/,841875,/,842556,/	t,t,t,t,t	<img class = center src='/static/experiments/beast_fmri_test/images/V.png'></img>	89,71	2750.0	test	<img class = center src='/static/experiments/beast_fmri_test/images/redV.png'></img>	go	-1.0	4.0	3.0	go	temp-non-target	V	89,Middle Finger	71,Index Finger	550.0	400.0	2200.0	2350.0	0.0	n/a	n/a	n/a	go_stim
242490.297490792	177.702509208	n/a	699	71	2750	177.702509208	stim	stop-signal	305	842555	0.0-15.3-1.3	beast_fmri_test	275	839837,/,840516,/,841195,/,841875,/,842556,/	t,t,t,t,t	<img class = center src='/static/experiments/beast_fmri_test/images/V.png'></img>	89,71	2750.0	test	<img class = center src='/static/experiments/beast_fmri_test/images/redV.png'></img>	go	-1.0	4.0	3.0	go	temp-non-target	V	89,Middle Finger	71,Index Finger	550.0	400.0	2200.0	2350.0	0.0	n/a	n/a	n/a	ITI
243380	500.0	n/a	-1	-1	500	0.0	fixation	poldrack-single-stim	306	843267	0.0-15.4-0.4	beast_fmri_test	275	843235,/	t	<div class = centerbox2><div class = fixation>+</div></div>	none	500.0	test	n/a	n/a	n/a	n/a	n/a	n/a	n/a	n/a	n/a	n/a	n/a	n/a	n/a	n/a	n/a	n/a	n/a	n/a	fixation
242498.19700213126	2750.0	n/a	643	71	2750	884.802997869	stim	stop-signal	307	846020	0.0-15.4-1.4	beast_fmri_test	275	843914,/,844595,/,845276,/,845956,/,846636,/	t,t,t,t,t	<img class = center src='/static/experiments/beast_fmri_test/images/B.png'></img>	89,71	2750.0	test	<img class = center src='/static/experiments/beast_fmri_test/images/redB.png'></img>	go	2350.0	4.0	4.0	go	non-target	B	89,Middle Finger	71,Index Finger	550.0	400.0	2200.0	2350.0	1.0	400.0	1.0	n/a	go_stim
245248.19700213126	884.802997869	n/a	643	71	2750	884.802997869	stim	stop-signal	307	846020	0.0-15.4-1.4	beast_fmri_test	275	843914,/,844595,/,845276,/,845956,/,846636,/	t,t,t,t,t	<img class = center src='/static/experiments/beast_fmri_test/images/B.png'></img>	89,71	2750.0	test	<img class = center src='/static/experiments/beast_fmri_test/images/redB.png'></img>	go	2350.0	4.0	4.0	go	non-target	B	89,Middle Finger	71,Index Finger	550.0	400.0	2200.0	2350.0	1.0	400.0	1.0	n/a	ITI
247549	500.0	n/a	-1	-1	500	0.0	fixation	poldrack-single-stim	308	847436	0.0-15.5-0.5	beast_fmri_test	275	847315,/	t	<div class = centerbox2><div class = fixation>+</div></div>	none	500.0	test	n/a	n/a	n/a	n/a	n/a	n/a	n/a	n/a	n/a	n/a	n/a	n/a	n/a	n/a	n/a	n/a	n/a	n/a	fixation
247006.06351541588	2750.0	n/a	1117	89	2750	540.936484584	stim	stop-signal	309	850184	0.0-15.5-1.5	beast_fmri_test	275	847992,/,848670,/,849350,/,850030,/,850711,/	t,t,t,t,t	<img class = center src='/static/experiments/beast_fmri_test/images/P.png'></img>	89,71	2750.0	test	<img class = center src='/static/experiments/beast_fmri_test/images/redP.png'></img>	go	2200.0	4.0	5.0	go	target	P	89,Middle Finger	71,Index Finger	550.0	400.0	2200.0	2350.0	1.0	550.0	1.0	n/a	go_stim
249756.06351541588	540.936484584	n/a	1117	89	2750	540.936484584	stim	stop-signal	309	850184	0.0-15.5-1.5	beast_fmri_test	275	847992,/,848670,/,849350,/,850030,/,850711,/	t,t,t,t,t	<img class = center src='/static/experiments/beast_fmri_test/images/P.png'></img>	89,71	2750.0	test	<img class = center src='/static/experiments/beast_fmri_test/images/redP.png'></img>	go	2200.0	4.0	5.0	go	target	P	89,Middle Finger	71,Index Finger	550.0	400.0	2200.0	2350.0	1.0	550.0	1.0	n/a	ITI
251368	500.0	n/a	-1	-1	500	0.0	fixation	poldrack-single-stim	310	851255	0.0-15.6-0.6	beast_fmri_test	275	n/a	n/a	<div class = centerbox2><div class = fixation>+</div></div>	none	500.0	test	n/a	n/a	n/a	n/a	n/a	n/a	n/a	n/a	n/a	n/a	n/a	n/a	n/a	n/a	n/a	n/a	n/a	n/a	fixation
249557.71120231494	2750.0	n/a	1290	89	2750	1812.28879769	stim	stop-signal	311	854007	0.0-15.6-1.6	beast_fmri_test	275	851392,/,852070,/,852751,/,853432,/,854112,/,854791,/,855472,/	t,t,t,t,t,t,t	<img class = center src='/static/experiments/beast_fmri_test/images/D.png'></img>	89,71	2750.0	test	<img class = center src='/static/experiments/beast_fmri_test/images/redD.png'></img>	go	2200.0	4.0	6.0	go	target	D	89,Middle Finger	71,Index Finger	550.0	400.0	2200.0	2350.0	1.0	550.0	1.0	n/a	go_stim
252307.71120231494	1812.28879769	n/a	1290	89	2750	1812.28879769	stim	stop-signal	311	854007	0.0-15.6-1.6	beast_fmri_test	275	851392,/,852070,/,852751,/,853432,/,854112,/,854791,/,855472,/	t,t,t,t,t,t,t	<img class = center src='/static/experiments/beast_fmri_test/images/D.png'></img>	89,71	2750.0	test	<img class = center src='/static/experiments/beast_fmri_test/images/redD.png'></img>	go	2200.0	4.0	6.0	go	target	D	89,Middle Finger	71,Index Finger	550.0	400.0	2200.0	2350.0	1.0	550.0	1.0	n/a	ITI
256461	500.0	n/a	-1	-1	500	0.0	fixation	poldrack-single-stim	312	856348	0.0-15.7-0.7	beast_fmri_test	275	856151,/	t	<div class = centerbox2><div class = fixation>+</div></div>	none	500.0	test	n/a	n/a	n/a	n/a	n/a	n/a	n/a	n/a	n/a	n/a	n/a	n/a	n/a	n/a	n/a	n/a	n/a	n/a	fixation
255458.34479556384	400.0	n/a	-1	-1	2750	1000.65520444	stim	stop-signal	313	859096	0.0-15.7-1.7	beast_fmri_test	275	856831,/,857510,/,858187,/,858867,/,859546,/	t,t,t,t,t	<img class = center src='/static/experiments/beast_fmri_test/images/D.png'></img>	89,71	2750.0	test	<img class = center src='/static/experiments/beast_fmri_test/images/redD.png'></img>	stop	2350.0	4.0	7.0	stop	non-target	D	89,Middle Finger	71,Index Finger	550.0	400.0	2200.0	2350.0	0.0	400.0	n/a	1.0	go_stim
257808.34479556384	2350.0	n/a	-1	-1	2750	1000.65520444	stim	stop-signal	313	859096	0.0-15.7-1.7	beast_fmri_test	275	856831,/,857510,/,858187,/,858867,/,859546,/	t,t,t,t,t	<img class = center src='/static/experiments/beast_fmri_test/images/D.png'></img>	89,71	2750.0	test	<img class = center src='/static/experiments/beast_fmri_test/images/redD.png'></img>	stop	2350.0	4.0	7.0	stop	non-target	D	89,Middle Finger	71,Index Finger	550.0	400.0	2200.0	2350.0	0.0	400.0	n/a	1.0	stop_stim
258208.34479556384	1000.65520444	n/a	-1	-1	2750	1000.65520444	stim	stop-signal	313	859096	0.0-15.7-1.7	beast_fmri_test	275	856831,/,857510,/,858187,/,858867,/,859546,/	t,t,t,t,t	<img class = center src='/static/experiments/beast_fmri_test/images/D.png'></img>	89,71	2750.0	test	<img class = center src='/static/experiments/beast_fmri_test/images/redD.png'></img>	stop	2350.0	4.0	7.0	stop	non-target	D	89,Middle Finger	71,Index Finger	550.0	400.0	2200.0	2350.0	0.0	400.0	n/a	1.0	ITI
260744	500.0	n/a	-1	-1	500	0.0	fixation	poldrack-single-stim	314	860631	0.0-15.8-0.8	beast_fmri_test	275	860226,/	t	<div class = centerbox2><div class = fixation>+</div></div>	none	500.0	test	n/a	n/a	n/a	n/a	n/a	n/a	n/a	n/a	n/a	n/a	n/a	n/a	n/a	n/a	n/a	n/a	n/a	n/a	fixation
259206.75675768906	2750.0	n/a	1637	89	2750	1540.24324231	stim	stop-signal	315	863384	0.0-15.8-1.8	beast_fmri_test	275	860907,/,861586,/,862266,/,862946,/,863627,/,864307,/	t,t,t,t,t,t	<img class = center src='/static/experiments/beast_fmri_test/images/T.png'></img>	89,71	2750.0	test	<img class = center src='/static/experiments/beast_fmri_test/images/redT.png'></img>	go	2300.0	4.0	8.0	go	non-target	T	89,Middle Finger	71,Index Finger	550.0	450.0	2200.0	2300.0	0.0	450.0	0.0	n/a	go_stim
261956.75675768906	1540.24324231	n/a	1637	89	2750	1540.24324231	stim	stop-signal	315	863384	0.0-15.8-1.8	beast_fmri_test	275	860907,/,861586,/,862266,/,862946,/,863627,/,864307,/	t,t,t,t,t,t	<img class = center src='/static/experiments/beast_fmri_test/images/T.png'></img>	89,71	2750.0	test	<img class = center src='/static/experiments/beast_fmri_test/images/redT.png'></img>	go	2300.0	4.0	8.0	go	non-target	T	89,Middle Finger	71,Index Finger	550.0	450.0	2200.0	2300.0	0.0	450.0	0.0	n/a	ITI
265572	500.0	n/a	-1	-1	500	0.0	fixation	poldrack-single-stim	316	865459	0.0-15.9-0.9	beast_fmri_test	275	864986,/	t	<div class = centerbox2><div class = fixation>+</div></div>	none	500.0	test	n/a	n/a	n/a	n/a	n/a	n/a	n/a	n/a	n/a	n/a	n/a	n/a	n/a	n/a	n/a	n/a	n/a	n/a	fixation
264769.32981690264	2750.0	n/a	1041	89	2750	801.670183097	stim	stop-signal	317	868208	0.0-15.9-1.9	beast_fmri_test	275	865666,/,866348,/,867026,/,867704,/,868382,/	t,t,t,t,t	<img class = center src='/static/experiments/beast_fmri_test/images/P.png'></img>	89,71	2750.0	test	<img class = center src='/static/experiments/beast_fmri_test/images/redP.png'></img>	go	2200.0	4.0	9.0	go	target	P	89,Middle Finger	71,Index Finger	550.0	450.0	2200.0	2300.0	1.0	550.0	1.0	n/a	go_stim
267519.32981690264	801.670183097	n/a	1041	89	2750	801.670183097	stim	stop-signal	317	868208	0.0-15.9-1.9	beast_fmri_test	275	865666,/,866348,/,867026,/,867704,/,868382,/	t,t,t,t,t	<img class = center src='/static/experiments/beast_fmri_test/images/P.png'></img>	89,71	2750.0	test	<img class = center src='/static/experiments/beast_fmri_test/images/redP.png'></img>	go	2200.0	4.0	9.0	go	target	P	89,Middle Finger	71,Index Finger	550.0	450.0	2200.0	2300.0	1.0	550.0	1.0	n/a	ITI
269652	500.0	n/a	-1	-1	500	0.0	fixation	poldrack-single-stim	318	869539	0.0-15.10-0.10	beast_fmri_test	275	869062,/	t	<div class = centerbox2><div class = fixation>+</div></div>	none	500.0	test	n/a	n/a	n/a	n/a	n/a	n/a	n/a	n/a	n/a	n/a	n/a	n/a	n/a	n/a	n/a	n/a	n/a	n/a	fixation
269570.61974773929	2750.0	n/a	1631	71	2750	85.3802522608	stim	stop-signal	319	872293	0.0-15.10-1.10	beast_fmri_test	275	869742,/,870421,/,871101,/,871781,/	t,t,t,t	<img class = center src='/static/experiments/beast_fmri_test/images/D.png'></img>	89,71	2750.0	test	<img class = center src='/static/experiments/beast_fmri_test/images/redD.png'></img>	go	2200.0	4.0	10.0	go	target	D	89,Middle Finger	71,Index Finger	550.0	450.0	2200.0	2300.0	0.0	550.0	0.0	n/a	go_stim
272320.61974773929	85.3802522608	n/a	1631	71	2750	85.3802522608	stim	stop-signal	319	872293	0.0-15.10-1.10	beast_fmri_test	275	869742,/,870421,/,871101,/,871781,/	t,t,t,t	<img class = center src='/static/experiments/beast_fmri_test/images/D.png'></img>	89,71	2750.0	test	<img class = center src='/static/experiments/beast_fmri_test/images/redD.png'></img>	go	2200.0	4.0	10.0	go	target	D	89,Middle Finger	71,Index Finger	550.0	450.0	2200.0	2300.0	0.0	550.0	0.0	n/a	ITI
273023	500.0	n/a	-1	-1	500	0.0	fixation	poldrack-single-stim	320	872910	0.0-15.11-0.11	beast_fmri_test	275	872463,/	t	<div class = centerbox2><div class = fixation>+</div></div>	none	500.0	test	n/a	n/a	n/a	n/a	n/a	n/a	n/a	n/a	n/a	n/a	n/a	n/a	n/a	n/a	n/a	n/a	n/a	n/a	fixation
272560.58794160793	2750.0	n/a	1793	71	2750	465.412058392	stim	stop-signal	321	875663	0.0-15.11-1.11	beast_fmri_test	275	873142,/,873823,/,874502,/,875181,/,875861,/	t,t,t,t,t	<img class = center src='/static/experiments/beast_fmri_test/images/P.png'></img>	89,71	2750.0	test	<img class = center src='/static/experiments/beast_fmri_test/images/redP.png'></img>	go	2300.0	4.0	11.0	go	non-target	P	89,Middle Finger	71,Index Finger	550.0	450.0	2200.0	2300.0	1.0	450.0	1.0	n/a	go_stim
275310.58794160793	465.412058392	n/a	1793	71	2750	465.412058392	stim	stop-signal	321	875663	0.0-15.11-1.11	beast_fmri_test	275	873142,/,873823,/,874502,/,875181,/,875861,/	t,t,t,t,t	<img class = center src='/static/experiments/beast_fmri_test/images/P.png'></img>	89,71	2750.0	test	<img class = center src='/static/experiments/beast_fmri_test/images/redP.png'></img>	go	2300.0	4.0	11.0	go	non-target	P	89,Middle Finger	71,Index Finger	550.0	450.0	2200.0	2300.0	1.0	450.0	1.0	n/a	ITI
276779	500.0	n/a	-1	-1	500	0.0	fixation	poldrack-single-stim	322	876666	0.0-15.12-0.12	beast_fmri_test	275	876541,/	t	<div class = centerbox2><div class = fixation>+</div></div>	none	500.0	test	n/a	n/a	n/a	n/a	n/a	n/a	n/a	n/a	n/a	n/a	n/a	n/a	n/a	n/a	n/a	n/a	n/a	n/a	fixation
276078.97056360939	2750.0	n/a	1435	71	2750	698.029436391	stim	stop-signal	323	879414	0.0-15.12-1.12	beast_fmri_test	275	877222,/,877899,/,878578,/,879257,/,879936,/	t,t,t,t,t	<img class = center src='/static/experiments/beast_fmri_test/images/B.png'></img>	89,71	2750.0	test	<img class = center src='/static/experiments/beast_fmri_test/images/redB.png'></img>	go	2300.0	4.0	12.0	go	non-target	B	89,Middle Finger	71,Index Finger	550.0	450.0	2200.0	2300.0	1.0	450.0	1.0	n/a	go_stim
278828.97056360939	698.029436391	n/a	1435	71	2750	698.029436391	stim	stop-signal	323	879414	0.0-15.12-1.12	beast_fmri_test	275	877222,/,877899,/,878578,/,879257,/,879936,/	t,t,t,t,t	<img class = center src='/static/experiments/beast_fmri_test/images/B.png'></img>	89,71	2750.0	test	<img class = center src='/static/experiments/beast_fmri_test/images/redB.png'></img>	go	2300.0	4.0	12.0	go	non-target	B	89,Middle Finger	71,Index Finger	550.0	450.0	2200.0	2300.0	1.0	450.0	1.0	n/a	ITI
280757	500.0	n/a	-1	-1	500	0.0	fixation	poldrack-single-stim	324	880644	0.0-15.13-0.13	beast_fmri_test	275	880616,/	t	<div class = centerbox2><div class = fixation>+</div></div>	none	500.0	test	n/a	n/a	n/a	n/a	n/a	n/a	n/a	n/a	n/a	n/a	n/a	n/a	n/a	n/a	n/a	n/a	n/a	n/a	fixation
280042.92015399167	450.0	n/a	-1	-1	2750	717.079846008	stim	stop-signal	325	883397	0.0-15.13-1.13	beast_fmri_test	275	881296,/,881976,/,882656,/,883337,/,884017,/	t,t,t,t,t	<img class = center src='/static/experiments/beast_fmri_test/images/V.png'></img>	89,71	2750.0	test	<img class = center src='/static/experiments/beast_fmri_test/images/redV.png'></img>	stop	2300.0	4.0	13.0	stop	non-target	V	89,Middle Finger	71,Index Finger	550.0	450.0	2200.0	2300.0	0.0	450.0	n/a	1.0	go_stim
282342.92015399167	2300.0	n/a	-1	-1	2750	717.079846008	stim	stop-signal	325	883397	0.0-15.13-1.13	beast_fmri_test	275	881296,/,881976,/,882656,/,883337,/,884017,/	t,t,t,t,t	<img class = center src='/static/experiments/beast_fmri_test/images/V.png'></img>	89,71	2750.0	test	<img class = center src='/static/experiments/beast_fmri_test/images/redV.png'></img>	stop	2300.0	4.0	13.0	stop	non-target	V	89,Middle Finger	71,Index Finger	550.0	450.0	2200.0	2300.0	0.0	450.0	n/a	1.0	stop_stim
282792.92015399167	717.079846008	n/a	-1	-1	2750	717.079846008	stim	stop-signal	325	883397	0.0-15.13-1.13	beast_fmri_test	275	881296,/,881976,/,882656,/,883337,/,884017,/	t,t,t,t,t	<img class = center src='/static/experiments/beast_fmri_test/images/V.png'></img>	89,71	2750.0	test	<img class = center src='/static/experiments/beast_fmri_test/images/redV.png'></img>	stop	2300.0	4.0	13.0	stop	non-target	V	89,Middle Finger	71,Index Finger	550.0	450.0	2200.0	2300.0	0.0	450.0	n/a	1.0	ITI
284763	500.0	n/a	-1	-1	500	0.0	fixation	poldrack-single-stim	326	884650	0.0-15.14-0.14	beast_fmri_test	275	n/a	n/a	<div class = centerbox2><div class = fixation>+</div></div>	none	500.0	test	n/a	n/a	n/a	n/a	n/a	n/a	n/a	n/a	n/a	n/a	n/a	n/a	n/a	n/a	n/a	n/a	n/a	n/a	fixation
283632.80391373055	500.0	n/a	743	71	2750	1132.19608627	stim	stop-signal	327	887402	0.0-15.14-1.14	beast_fmri_test	275	884696,/,885379,/,886057,/,886737,/,887418,/,888095,/	t,t,t,t,t,t	<img class = center src='/static/experiments/beast_fmri_test/images/T.png'></img>	89,71	2750.0	test	<img class = center src='/static/experiments/beast_fmri_test/images/redT.png'></img>	stop	2250.0	4.0	14.0	stop	non-target	T	89,Middle Finger	71,Index Finger	550.0	500.0	2200.0	2250.0	0.0	500.0	n/a	0.0	go_stim
285882.80391373055	2250.0	n/a	743	71	2750	1132.19608627	stim	stop-signal	327	887402	0.0-15.14-1.14	beast_fmri_test	275	884696,/,885379,/,886057,/,886737,/,887418,/,888095,/	t,t,t,t,t,t	<img class = center src='/static/experiments/beast_fmri_test/images/T.png'></img>	89,71	2750.0	test	<img class = center src='/static/experiments/beast_fmri_test/images/redT.png'></img>	stop	2250.0	4.0	14.0	stop	non-target	T	89,Middle Finger	71,Index Finger	550.0	500.0	2200.0	2250.0	0.0	500.0	n/a	0.0	stop_stim
286382.80391373055	1132.19608627	n/a	743	71	2750	1132.19608627	stim	stop-signal	327	887402	0.0-15.14-1.14	beast_fmri_test	275	884696,/,885379,/,886057,/,886737,/,887418,/,888095,/	t,t,t,t,t,t	<img class = center src='/static/experiments/beast_fmri_test/images/T.png'></img>	89,71	2750.0	test	<img class = center src='/static/experiments/beast_fmri_test/images/redT.png'></img>	stop	2250.0	4.0	14.0	stop	non-target	T	89,Middle Finger	71,Index Finger	550.0	500.0	2200.0	2250.0	0.0	500.0	n/a	0.0	ITI
289180	500.0	n/a	-1	-1	500	0.0	fixation	poldrack-single-stim	328	889067	0.0-15.15-0.15	beast_fmri_test	275	888772,/	t	<div class = centerbox2><div class = fixation>+</div></div>	none	500.0	test	n/a	n/a	n/a	n/a	n/a	n/a	n/a	n/a	n/a	n/a	n/a	n/a	n/a	n/a	n/a	n/a	n/a	n/a	fixation
287565.58166709414	2750.0	n/a	1126	71	2750	1617.41833291	stim	stop-signal	329	891820	0.0-15.15-1.15	beast_fmri_test	275	889452,/,890132,/,890812,/,891493,/,892172,/,892853,/	t,t,t,t,t,t	<img class = center src='/static/experiments/beast_fmri_test/images/T.png'></img>	89,71	2750.0	test	<img class = center src='/static/experiments/beast_fmri_test/images/redT.png'></img>	go	2300.0	4.0	15.0	go	non-target	T	89,Middle Finger	71,Index Finger	550.0	450.0	2200.0	2300.0	1.0	450.0	1.0	n/a	go_stim
290315.58166709414	1617.41833291	n/a	1126	71	2750	1617.41833291	stim	stop-signal	329	891820	0.0-15.15-1.15	beast_fmri_test	275	889452,/,890132,/,890812,/,891493,/,892172,/,892853,/	t,t,t,t,t,t	<img class = center src='/static/experiments/beast_fmri_test/images/T.png'></img>	89,71	2750.0	test	<img class = center src='/static/experiments/beast_fmri_test/images/redT.png'></img>	go	2300.0	4.0	15.0	go	non-target	T	89,Middle Finger	71,Index Finger	550.0	450.0	2200.0	2300.0	1.0	450.0	1.0	n/a	ITI
294088	500.0	n/a	-1	-1	500	0.0	fixation	poldrack-single-stim	330	893975	0.0-15.16-0.16	beast_fmri_test	275	893533,/	t	<div class = centerbox2><div class = fixation>+</div></div>	none	500.0	test	n/a	n/a	n/a	n/a	n/a	n/a	n/a	n/a	n/a	n/a	n/a	n/a	n/a	n/a	n/a	n/a	n/a	n/a	fixation
290675.58741264755	450.0	n/a	530	71	2750	3415.41258735	stim	stop-signal	331	896728	0.0-15.16-1.16	beast_fmri_test	275	894213,/,894892,/,895574,/,896252,/,896933,/,897612,/,898288,/,898967,/,899648,/	t,t,t,t,t,t,t,t,t	<img class = center src='/static/experiments/beast_fmri_test/images/P.png'></img>	89,71	2750.0	test	<img class = center src='/static/experiments/beast_fmri_test/images/redP.png'></img>	stop	2300.0	4.0	16.0	stop	non-target	P	89,Middle Finger	71,Index Finger	550.0	450.0	2200.0	2300.0	0.0	450.0	n/a	0.0	go_stim
292975.58741264755	2300.0	n/a	530	71	2750	3415.41258735	stim	stop-signal	331	896728	0.0-15.16-1.16	beast_fmri_test	275	894213,/,894892,/,895574,/,896252,/,896933,/,897612,/,898288,/,898967,/,899648,/	t,t,t,t,t,t,t,t,t	<img class = center src='/static/experiments/beast_fmri_test/images/P.png'></img>	89,71	2750.0	test	<img class = center src='/static/experiments/beast_fmri_test/images/redP.png'></img>	stop	2300.0	4.0	16.0	stop	non-target	P	89,Middle Finger	71,Index Finger	550.0	450.0	2200.0	2300.0	0.0	450.0	n/a	0.0	stop_stim
293425.58741264755	3415.41258735	n/a	530	71	2750	3415.41258735	stim	stop-signal	331	896728	0.0-15.16-1.16	beast_fmri_test	275	894213,/,894892,/,895574,/,896252,/,896933,/,897612,/,898288,/,898967,/,899648,/	t,t,t,t,t,t,t,t,t	<img class = center src='/static/experiments/beast_fmri_test/images/P.png'></img>	89,71	2750.0	test	<img class = center src='/static/experiments/beast_fmri_test/images/redP.png'></img>	stop	2300.0	4.0	16.0	stop	non-target	P	89,Middle Finger	71,Index Finger	550.0	450.0	2200.0	2300.0	0.0	450.0	n/a	0.0	ITI
300789	500.0	n/a	-1	-1	500	0.0	fixation	poldrack-single-stim	332	900676	0.0-15.17-0.17	beast_fmri_test	275	900327,/	t	<div class = centerbox2><div class = fixation>+</div></div>	none	500.0	test	n/a	n/a	n/a	n/a	n/a	n/a	n/a	n/a	n/a	n/a	n/a	n/a	n/a	n/a	n/a	n/a	n/a	n/a	fixation
299840.15269342694	2750.0	n/a	601	89	2750	951.847306573	stim	stop-signal	333	903429	0.0-15.17-1.17	beast_fmri_test	275	901008,/,901689,/,902368,/,903047,/,903727,/	t,t,t,t,t	<img class = center src='/static/experiments/beast_fmri_test/images/B.png'></img>	89,71	2750.0	test	<img class = center src='/static/experiments/beast_fmri_test/images/redB.png'></img>	go	2350.0	4.0	17.0	go	non-target	B	89,Middle Finger	71,Index Finger	550.0	400.0	2200.0	2350.0	0.0	400.0	0.0	n/a	go_stim
302590.15269342694	951.847306573	n/a	601	89	2750	951.847306573	stim	stop-signal	333	903429	0.0-15.17-1.17	beast_fmri_test	275	901008,/,901689,/,902368,/,903047,/,903727,/	t,t,t,t,t	<img class = center src='/static/experiments/beast_fmri_test/images/B.png'></img>	89,71	2750.0	test	<img class = center src='/static/experiments/beast_fmri_test/images/redB.png'></img>	go	2350.0	4.0	17.0	go	non-target	B	89,Middle Finger	71,Index Finger	550.0	400.0	2200.0	2350.0	0.0	400.0	0.0	n/a	ITI
305029	500.0	n/a	-1	-1	500	0.0	fixation	poldrack-single-stim	334	904916	0.0-15.18-0.18	beast_fmri_test	275	904415,/	t	<div class = centerbox2><div class = fixation>+</div></div>	none	500.0	test	n/a	n/a	n/a	n/a	n/a	n/a	n/a	n/a	n/a	n/a	n/a	n/a	n/a	n/a	n/a	n/a	n/a	n/a	fixation
304593.88497281249	2750.0	n/a	464	71	2750	435.115027188	stim	stop-signal	335	907666	0.0-15.18-1.18	beast_fmri_test	275	905087,/,905768,/,906449,/,907127,/,907805,/	t,t,t,t,t	<img class = center src='/static/experiments/beast_fmri_test/images/V.png'></img>	89,71	2750.0	test	<img class = center src='/static/experiments/beast_fmri_test/images/redV.png'></img>	go	2350.0	4.0	18.0	go	non-target	V	89,Middle Finger	71,Index Finger	550.0	400.0	2200.0	2350.0	1.0	400.0	1.0	n/a	go_stim
307343.88497281249	435.115027188	n/a	464	71	2750	435.115027188	stim	stop-signal	335	907666	0.0-15.18-1.18	beast_fmri_test	275	905087,/,905768,/,906449,/,907127,/,907805,/	t,t,t,t,t	<img class = center src='/static/experiments/beast_fmri_test/images/V.png'></img>	89,71	2750.0	test	<img class = center src='/static/experiments/beast_fmri_test/images/redV.png'></img>	go	2350.0	4.0	18.0	go	non-target	V	89,Middle Finger	71,Index Finger	550.0	400.0	2200.0	2350.0	1.0	400.0	1.0	n/a	ITI
308750	500.0	n/a	-1	-1	500	0.0	fixation	poldrack-single-stim	336	908637	0.0-15.19-0.19	beast_fmri_test	275	908482,/	t	<div class = centerbox2><div class = fixation>+</div></div>	none	500.0	test	n/a	n/a	n/a	n/a	n/a	n/a	n/a	n/a	n/a	n/a	n/a	n/a	n/a	n/a	n/a	n/a	n/a	n/a	fixation
307314.8775693283	2750.0	n/a	753	71	2750	1437.12243067	stim	stop-signal	337	911389	0.0-15.19-1.19	beast_fmri_test	275	909162,/,909844,/,910524,/,911204,/,911883,/,912563,/	t,t,t,t,t,t	<img class = center src='/static/experiments/beast_fmri_test/images/D.png'></img>	89,71	2750.0	test	<img class = center src='/static/experiments/beast_fmri_test/images/redD.png'></img>	go	2350.0	4.0	19.0	go	non-target	D	89,Middle Finger	71,Index Finger	550.0	400.0	2200.0	2350.0	1.0	400.0	1.0	n/a	go_stim
310064.8775693283	1437.12243067	n/a	753	71	2750	1437.12243067	stim	stop-signal	337	911389	0.0-15.19-1.19	beast_fmri_test	275	909162,/,909844,/,910524,/,911204,/,911883,/,912563,/	t,t,t,t,t,t	<img class = center src='/static/experiments/beast_fmri_test/images/D.png'></img>	89,71	2750.0	test	<img class = center src='/static/experiments/beast_fmri_test/images/redD.png'></img>	go	2350.0	4.0	19.0	go	non-target	D	89,Middle Finger	71,Index Finger	550.0	400.0	2200.0	2350.0	1.0	400.0	1.0	n/a	ITI
313475	500.0	n/a	-1	-1	500	0.0	fixation	poldrack-single-stim	338	913362	0.0-15.20-0.20	beast_fmri_test	275	913243,/	t	<div class = centerbox2><div class = fixation>+</div></div>	none	500.0	test	n/a	n/a	n/a	n/a	n/a	n/a	n/a	n/a	n/a	n/a	n/a	n/a	n/a	n/a	n/a	n/a	n/a	n/a	fixation
313056.5976620859	2750.0	n/a	929	71	2750	420.402337914	stim	stop-signal	339	916114	0.0-15.20-1.20	beast_fmri_test	275	913923,/,914602,/,915283,/,915964,/	t,t,t,t	<img class = center src='/static/experiments/beast_fmri_test/images/B.png'></img>	89,71	2750.0	test	<img class = center src='/static/experiments/beast_fmri_test/images/redB.png'></img>	go	2350.0	4.0	20.0	go	non-target	B	89,Middle Finger	71,Index Finger	550.0	400.0	2200.0	2350.0	1.0	400.0	1.0	n/a	go_stim
315806.5976620859	420.402337914	n/a	929	71	2750	420.402337914	stim	stop-signal	339	916114	0.0-15.20-1.20	beast_fmri_test	275	913923,/,914602,/,915283,/,915964,/	t,t,t,t	<img class = center src='/static/experiments/beast_fmri_test/images/B.png'></img>	89,71	2750.0	test	<img class = center src='/static/experiments/beast_fmri_test/images/redB.png'></img>	go	2350.0	4.0	20.0	go	non-target	B	89,Middle Finger	71,Index Finger	550.0	400.0	2200.0	2350.0	1.0	400.0	1.0	n/a	ITI
317185	500.0	n/a	-1	-1	500	0.0	fixation	poldrack-single-stim	340	917072	0.0-15.21-0.21	beast_fmri_test	275	916644,/	t	<div class = centerbox2><div class = fixation>+</div></div>	none	500.0	test	n/a	n/a	n/a	n/a	n/a	n/a	n/a	n/a	n/a	n/a	n/a	n/a	n/a	n/a	n/a	n/a	n/a	n/a	fixation
316162.38903623633	2750.0	n/a	771	71	2750	1020.61096376	stim	stop-signal	341	919820	0.0-15.21-1.21	beast_fmri_test	275	917322,/,918000,/,918680,/,919359,/,920038,/,920719,/	t,t,t,t,t,t	<img class = center src='/static/experiments/beast_fmri_test/images/T.png'></img>	89,71	2750.0	test	<img class = center src='/static/experiments/beast_fmri_test/images/redT.png'></img>	go	2350.0	4.0	21.0	go	non-target	T	89,Middle Finger	71,Index Finger	550.0	400.0	2200.0	2350.0	1.0	400.0	1.0	n/a	go_stim
318912.38903623633	1020.61096376	n/a	771	71	2750	1020.61096376	stim	stop-signal	341	919820	0.0-15.21-1.21	beast_fmri_test	275	917322,/,918000,/,918680,/,919359,/,920038,/,920719,/	t,t,t,t,t,t	<img class = center src='/static/experiments/beast_fmri_test/images/T.png'></img>	89,71	2750.0	test	<img class = center src='/static/experiments/beast_fmri_test/images/redT.png'></img>	go	2350.0	4.0	21.0	go	non-target	T	89,Middle Finger	71,Index Finger	550.0	400.0	2200.0	2350.0	1.0	400.0	1.0	n/a	ITI
321488	500.0	n/a	-1	-1	500	0.0	fixation	poldrack-single-stim	342	921375	0.0-15.22-0.22	beast_fmri_test	275	n/a	n/a	<div class = centerbox2><div class = fixation>+</div></div>	none	500.0	test	n/a	n/a	n/a	n/a	n/a	n/a	n/a	n/a	n/a	n/a	n/a	n/a	n/a	n/a	n/a	n/a	n/a	n/a	fixation
320038.04927141347	2750.0	n/a	865	71	2750	1452.95072859	stim	stop-signal	343	924128	0.0-15.22-1.22	beast_fmri_test	275	921399,/,922079,/,922758,/,923438,/,924119,/,924800,/,925479,/	t,t,t,t,t,t,t	<img class = center src='/static/experiments/beast_fmri_test/images/T.png'></img>	89,71	2750.0	test	<img class = center src='/static/experiments/beast_fmri_test/images/redT.png'></img>	go	2350.0	4.0	22.0	go	non-target	T	89,Middle Finger	71,Index Finger	550.0	400.0	2200.0	2350.0	1.0	400.0	1.0	n/a	go_stim
322788.04927141347	1452.95072859	n/a	865	71	2750	1452.95072859	stim	stop-signal	343	924128	0.0-15.22-1.22	beast_fmri_test	275	921399,/,922079,/,922758,/,923438,/,924119,/,924800,/,925479,/	t,t,t,t,t,t,t	<img class = center src='/static/experiments/beast_fmri_test/images/T.png'></img>	89,71	2750.0	test	<img class = center src='/static/experiments/beast_fmri_test/images/redT.png'></img>	go	2350.0	4.0	22.0	go	non-target	T	89,Middle Finger	71,Index Finger	550.0	400.0	2200.0	2350.0	1.0	400.0	1.0	n/a	ITI
326226	500.0	n/a	-1	-1	500	0.0	fixation	poldrack-single-stim	344	926113	0.0-15.23-0.23	beast_fmri_test	275	n/a	n/a	<div class = centerbox2><div class = fixation>+</div></div>	none	500.0	test	n/a	n/a	n/a	n/a	n/a	n/a	n/a	n/a	n/a	n/a	n/a	n/a	n/a	n/a	n/a	n/a	n/a	n/a	fixation
326082.67372954125	2750.0	n/a	899	71	2750	146.326270459	stim	stop-signal	345	928866	0.0-15.23-1.23	beast_fmri_test	275	926158,/,926838,/,927518,/,928198,/,928878,/	t,t,t,t,t	<img class = center src='/static/experiments/beast_fmri_test/images/D.png'></img>	89,71	2750.0	test	<img class = center src='/static/experiments/beast_fmri_test/images/redD.png'></img>	go	2200.0	4.0	23.0	go	target	D	89,Middle Finger	71,Index Finger	550.0	400.0	2200.0	2350.0	0.0	550.0	0.0	n/a	go_stim
