onset	duration	text	rt	key_press	block_duration	timing_post_trial	trial_id	trial_type	trial_index	time_elapsed	internal_node_id	exp_id	subject_id	trigger_times	triggers	stimulus	possible_responses	stim_duration	exp_stage	SS_stimulus	SS_trial_type	SS_duration	load	trial_num	stop_trial_type	adaptive_trial_type	stim	yes_response_key	no_response_key	SSD_target	SSD_non_target	SSTarget	SSNonTarget	go_acc	SS_delay	adaptive_acc	stop_acc	new_trial_type
test	10880	n/a	-1	-1	10880	0.0	practice-no-stop-feedback	poldrack-single-stim	6	79553	0.0-6.0	beast_fmri_test	275	68674,/,69354,/,70033,/,70713,/,71394,/,72073,/,72753,/,73433,/,74113,/,74792,/,75473,/,76152,/,76833,/,77514,/,78191,/,78869,/,79550,/	t,t,t,t,t,t,t,t,t,t,t,t,t,t,t,t,t	"<div class = ""centerbox""><p class = ""block-text"">Your delay is 2 trials.</p><p class = block-text>Please wait for the scanner to start the block</p></div>"	77	10880.0	n/a	n/a	n/a	n/a	n/a	n/a	n/a	n/a	n/a	n/a	n/a	n/a	n/a	n/a	n/a	n/a	n/a	n/a	n/a	start_functional_block
11383	500	n/a	-1	-1	500	0.0	fixation	poldrack-single-stim	7	80057	0.0-7.0-0.0	beast_fmri_test	275	n/a	n/a	<div class = centerbox2><div class = fixation>+</div></div>	none	500.0	test	n/a	n/a	n/a	n/a	n/a	n/a	n/a	n/a	n/a	n/a	n/a	n/a	n/a	n/a	n/a	n/a	n/a	n/a	fixation
11290.569196946264	2750	n/a	-1	-1	2750	97.4308030537	stim	stop-signal	8	82812	0.0-7.0-1.0	beast_fmri_test	275	80229,/,80910,/,81589,/,82270,/	t,t,t,t	<img class = center src='/static/experiments/beast_fmri_test/images/V.png'></img>	89,71	2750.0	test	<img class = center src='/static/experiments/beast_fmri_test/images/redV.png'></img>	go	-1.0	2.0	0.0	go	temp-non-target	V	89,Middle Finger	71,Index Finger	500.0	500.0	0.0	0.0	0.0	n/a	n/a	n/a	go_stim
14040.569196946264	97.430803053730486	n/a	-1	-1	2750	97.4308030537	stim	stop-signal	8	82812	0.0-7.0-1.0	beast_fmri_test	275	80229,/,80910,/,81589,/,82270,/	t,t,t,t	<img class = center src='/static/experiments/beast_fmri_test/images/V.png'></img>	89,71	2750.0	test	<img class = center src='/static/experiments/beast_fmri_test/images/redV.png'></img>	go	-1.0	2.0	0.0	go	temp-non-target	V	89,Middle Finger	71,Index Finger	500.0	500.0	0.0	0.0	0.0	n/a	n/a	n/a	ITI
14748	500	n/a	-1	-1	500	0.0	fixation	poldrack-single-stim	9	83422	0.0-7.1-0.1	beast_fmri_test	275	82949,/	t	<div class = centerbox2><div class = fixation>+</div></div>	none	500.0	test	n/a	n/a	n/a	n/a	n/a	n/a	n/a	n/a	n/a	n/a	n/a	n/a	n/a	n/a	n/a	n/a	n/a	n/a	fixation
14417.264798732926	2750	n/a	1248	71	2750	333.735201267	stim	stop-signal	10	86175	0.0-7.1-1.1	beast_fmri_test	275	83629,/,84309,/,84990,/,85669,/,86349,/	t,t,t,t,t	<img class = center src='/static/experiments/beast_fmri_test/images/D.png'></img>	89,71	2750.0	test	<img class = center src='/static/experiments/beast_fmri_test/images/redD.png'></img>	go	-1.0	2.0	1.0	go	temp-non-target	D	89,Middle Finger	71,Index Finger	500.0	500.0	0.0	0.0	0.0	n/a	n/a	n/a	go_stim
17167.264798732926	333.73520126708075	n/a	1248	71	2750	333.735201267	stim	stop-signal	10	86175	0.0-7.1-1.1	beast_fmri_test	275	83629,/,84309,/,84990,/,85669,/,86349,/	t,t,t,t,t	<img class = center src='/static/experiments/beast_fmri_test/images/D.png'></img>	89,71	2750.0	test	<img class = center src='/static/experiments/beast_fmri_test/images/redD.png'></img>	go	-1.0	2.0	1.0	go	temp-non-target	D	89,Middle Finger	71,Index Finger	500.0	500.0	0.0	0.0	0.0	n/a	n/a	n/a	ITI
18340	500	n/a	-1	-1	500	0.0	fixation	poldrack-single-stim	11	87014	0.0-7.2-0.2	beast_fmri_test	275	n/a	n/a	<div class = centerbox2><div class = fixation>+</div></div>	none	500.0	test	n/a	n/a	n/a	n/a	n/a	n/a	n/a	n/a	n/a	n/a	n/a	n/a	n/a	n/a	n/a	n/a	n/a	n/a	fixation
18274.828372593518	2750	n/a	973	89	2750	67.1716274065	stim	stop-signal	12	89766	0.0-7.2-1.2	beast_fmri_test	275	87030,/,87709,/,88389,/,89069,/,89749,/	t,t,t,t,t	<img class = center src='/static/experiments/beast_fmri_test/images/V.png'></img>	89,71	2750.0	test	<img class = center src='/static/experiments/beast_fmri_test/images/redV.png'></img>	go	2250.0	2.0	2.0	go	target	V	89,Middle Finger	71,Index Finger	500.0	500.0	2250.0	0.0	1.0	500.0	1.0	n/a	go_stim
21024.828372593518	67.171627406475722	n/a	973	89	2750	67.1716274065	stim	stop-signal	12	89766	0.0-7.2-1.2	beast_fmri_test	275	87030,/,87709,/,88389,/,89069,/,89749,/	t,t,t,t,t	<img class = center src='/static/experiments/beast_fmri_test/images/V.png'></img>	89,71	2750.0	test	<img class = center src='/static/experiments/beast_fmri_test/images/redV.png'></img>	go	2250.0	2.0	2.0	go	target	V	89,Middle Finger	71,Index Finger	500.0	500.0	2250.0	0.0	1.0	500.0	1.0	n/a	ITI
21669	500	n/a	-1	-1	500	0.0	fixation	poldrack-single-stim	13	90343	0.0-7.3-0.3	beast_fmri_test	275	n/a	n/a	<div class = centerbox2><div class = fixation>+</div></div>	none	500.0	test	n/a	n/a	n/a	n/a	n/a	n/a	n/a	n/a	n/a	n/a	n/a	n/a	n/a	n/a	n/a	n/a	n/a	n/a	fixation
20642.818319077836	500.0	n/a	900	71	2750	1030.18168092	stim	stop-signal	14	93097	0.0-7.3-1.3	beast_fmri_test	275	90429,/,91109,/,91790,/,92469,/,93148,/,93829,/	t,t,t,t,t,t	<img class = center src='/static/experiments/beast_fmri_test/images/T.png'></img>	89,71	2750.0	test	<img class = center src='/static/experiments/beast_fmri_test/images/redT.png'></img>	stop	2250.0	2.0	3.0	stop	non-target	T	89,Middle Finger	71,Index Finger	500.0	500.0	2250.0	2250.0	0.0	500.0	n/a	0.0	go_stim
22892.818319077836	2250.0	n/a	900	71	2750	1030.18168092	stim	stop-signal	14	93097	0.0-7.3-1.3	beast_fmri_test	275	90429,/,91109,/,91790,/,92469,/,93148,/,93829,/	t,t,t,t,t,t	<img class = center src='/static/experiments/beast_fmri_test/images/T.png'></img>	89,71	2750.0	test	<img class = center src='/static/experiments/beast_fmri_test/images/redT.png'></img>	stop	2250.0	2.0	3.0	stop	non-target	T	89,Middle Finger	71,Index Finger	500.0	500.0	2250.0	2250.0	0.0	500.0	n/a	0.0	stop_stim
23392.818319077836	1030.1816809221677	n/a	900	71	2750	1030.18168092	stim	stop-signal	14	93097	0.0-7.3-1.3	beast_fmri_test	275	90429,/,91109,/,91790,/,92469,/,93148,/,93829,/	t,t,t,t,t,t	<img class = center src='/static/experiments/beast_fmri_test/images/T.png'></img>	89,71	2750.0	test	<img class = center src='/static/experiments/beast_fmri_test/images/redT.png'></img>	stop	2250.0	2.0	3.0	stop	non-target	T	89,Middle Finger	71,Index Finger	500.0	500.0	2250.0	2250.0	0.0	500.0	n/a	0.0	ITI
25961	500	n/a	-1	-1	500	0.0	fixation	poldrack-single-stim	15	94635	0.0-7.4-0.4	beast_fmri_test	275	94508,/	t	<div class = centerbox2><div class = fixation>+</div></div>	none	500.0	test	n/a	n/a	n/a	n/a	n/a	n/a	n/a	n/a	n/a	n/a	n/a	n/a	n/a	n/a	n/a	n/a	n/a	n/a	fixation
24898.724386132963	450.0	n/a	835	71	2750	1065.27561387	stim	stop-signal	16	97388	0.0-7.4-1.4	beast_fmri_test	275	95190,/,95869,/,96549,/,97230,/,97908,/	t,t,t,t,t	<img class = center src='/static/experiments/beast_fmri_test/images/T.png'></img>	89,71	2750.0	test	<img class = center src='/static/experiments/beast_fmri_test/images/redT.png'></img>	stop	2300.0	2.0	4.0	stop	non-target	T	89,Middle Finger	71,Index Finger	500.0	450.0	2250.0	2300.0	0.0	450.0	n/a	0.0	go_stim
27198.724386132963	2300.0	n/a	835	71	2750	1065.27561387	stim	stop-signal	16	97388	0.0-7.4-1.4	beast_fmri_test	275	95190,/,95869,/,96549,/,97230,/,97908,/	t,t,t,t,t	<img class = center src='/static/experiments/beast_fmri_test/images/T.png'></img>	89,71	2750.0	test	<img class = center src='/static/experiments/beast_fmri_test/images/redT.png'></img>	stop	2300.0	2.0	4.0	stop	non-target	T	89,Middle Finger	71,Index Finger	500.0	450.0	2250.0	2300.0	0.0	450.0	n/a	0.0	stop_stim
27648.724386132963	1065.2756138670372	n/a	835	71	2750	1065.27561387	stim	stop-signal	16	97388	0.0-7.4-1.4	beast_fmri_test	275	95190,/,95869,/,96549,/,97230,/,97908,/	t,t,t,t,t	<img class = center src='/static/experiments/beast_fmri_test/images/T.png'></img>	89,71	2750.0	test	<img class = center src='/static/experiments/beast_fmri_test/images/redT.png'></img>	stop	2300.0	2.0	4.0	stop	non-target	T	89,Middle Finger	71,Index Finger	500.0	450.0	2250.0	2300.0	0.0	450.0	n/a	0.0	ITI
30284	500	n/a	-1	-1	500	0.0	fixation	poldrack-single-stim	17	98958	0.0-7.5-0.5	beast_fmri_test	275	98584,/	t	<div class = centerbox2><div class = fixation>+</div></div>	none	500.0	test	n/a	n/a	n/a	n/a	n/a	n/a	n/a	n/a	n/a	n/a	n/a	n/a	n/a	n/a	n/a	n/a	n/a	n/a	fixation
30186.500085622669	400.0	n/a	-1	-1	2750	99.4999143773	stim	stop-signal	18	101710	0.0-7.5-1.5	beast_fmri_test	275	99264,/,99945,/,100624,/,101304,/	t,t,t,t	<img class = center src='/static/experiments/beast_fmri_test/images/B.png'></img>	89,71	2750.0	test	<img class = center src='/static/experiments/beast_fmri_test/images/redB.png'></img>	stop	2350.0	2.0	5.0	stop	non-target	B	89,Middle Finger	71,Index Finger	500.0	400.0	2250.0	2350.0	0.0	400.0	n/a	1.0	go_stim
32536.500085622669	2350.0	n/a	-1	-1	2750	99.4999143773	stim	stop-signal	18	101710	0.0-7.5-1.5	beast_fmri_test	275	99264,/,99945,/,100624,/,101304,/	t,t,t,t	<img class = center src='/static/experiments/beast_fmri_test/images/B.png'></img>	89,71	2750.0	test	<img class = center src='/static/experiments/beast_fmri_test/images/redB.png'></img>	stop	2350.0	2.0	5.0	stop	non-target	B	89,Middle Finger	71,Index Finger	500.0	400.0	2250.0	2350.0	0.0	400.0	n/a	1.0	stop_stim
32936.500085622669	99.499914377331791	n/a	-1	-1	2750	99.4999143773	stim	stop-signal	18	101710	0.0-7.5-1.5	beast_fmri_test	275	99264,/,99945,/,100624,/,101304,/	t,t,t,t	<img class = center src='/static/experiments/beast_fmri_test/images/B.png'></img>	89,71	2750.0	test	<img class = center src='/static/experiments/beast_fmri_test/images/redB.png'></img>	stop	2350.0	2.0	5.0	stop	non-target	B	89,Middle Finger	71,Index Finger	500.0	400.0	2250.0	2350.0	0.0	400.0	n/a	1.0	ITI
33641	500	n/a	-1	-1	500	0.0	fixation	poldrack-single-stim	19	102315	0.0-7.6-0.6	beast_fmri_test	275	101985,/	t	<div class = centerbox2><div class = fixation>+</div></div>	none	500.0	test	n/a	n/a	n/a	n/a	n/a	n/a	n/a	n/a	n/a	n/a	n/a	n/a	n/a	n/a	n/a	n/a	n/a	n/a	fixation
33083.082522558427	2750	n/a	963	71	2750	560.917477442	stim	stop-signal	20	105068	0.0-7.6-1.6	beast_fmri_test	275	102664,/,103345,/,104025,/,104704,/,105384,/	t,t,t,t,t	<img class = center src='/static/experiments/beast_fmri_test/images/B.png'></img>	89,71	2750.0	test	<img class = center src='/static/experiments/beast_fmri_test/images/redB.png'></img>	go	2300.0	2.0	6.0	go	non-target	B	89,Middle Finger	71,Index Finger	500.0	450.0	2250.0	2300.0	1.0	450.0	1.0	n/a	go_stim
35833.082522558427	560.91747744157738	n/a	963	71	2750	560.917477442	stim	stop-signal	20	105068	0.0-7.6-1.6	beast_fmri_test	275	102664,/,103345,/,104025,/,104704,/,105384,/	t,t,t,t,t	<img class = center src='/static/experiments/beast_fmri_test/images/B.png'></img>	89,71	2750.0	test	<img class = center src='/static/experiments/beast_fmri_test/images/redB.png'></img>	go	2300.0	2.0	6.0	go	non-target	B	89,Middle Finger	71,Index Finger	500.0	450.0	2250.0	2300.0	1.0	450.0	1.0	n/a	ITI
37461	500	n/a	-1	-1	500	0.0	fixation	poldrack-single-stim	21	106135	0.0-7.7-0.7	beast_fmri_test	275	106065,/	t	<div class = centerbox2><div class = fixation>+</div></div>	none	500.0	test	n/a	n/a	n/a	n/a	n/a	n/a	n/a	n/a	n/a	n/a	n/a	n/a	n/a	n/a	n/a	n/a	n/a	n/a	fixation
36627.000767499048	450.0	n/a	-1	-1	2750	831.999232501	stim	stop-signal	22	108883	0.0-7.7-1.7	beast_fmri_test	275	106745,/,107426,/,108104,/,108780,/,109460,/	t,t,t,t,t	<img class = center src='/static/experiments/beast_fmri_test/images/P.png'></img>	89,71	2750.0	test	<img class = center src='/static/experiments/beast_fmri_test/images/redP.png'></img>	stop	2300.0	2.0	7.0	stop	non-target	P	89,Middle Finger	71,Index Finger	500.0	450.0	2250.0	2300.0	0.0	450.0	n/a	1.0	go_stim
38927.000767499048	2300.0	n/a	-1	-1	2750	831.999232501	stim	stop-signal	22	108883	0.0-7.7-1.7	beast_fmri_test	275	106745,/,107426,/,108104,/,108780,/,109460,/	t,t,t,t,t	<img class = center src='/static/experiments/beast_fmri_test/images/P.png'></img>	89,71	2750.0	test	<img class = center src='/static/experiments/beast_fmri_test/images/redP.png'></img>	stop	2300.0	2.0	7.0	stop	non-target	P	89,Middle Finger	71,Index Finger	500.0	450.0	2250.0	2300.0	0.0	450.0	n/a	1.0	stop_stim
39377.000767499048	831.99923250094889	n/a	-1	-1	2750	831.999232501	stim	stop-signal	22	108883	0.0-7.7-1.7	beast_fmri_test	275	106745,/,107426,/,108104,/,108780,/,109460,/	t,t,t,t,t	<img class = center src='/static/experiments/beast_fmri_test/images/P.png'></img>	89,71	2750.0	test	<img class = center src='/static/experiments/beast_fmri_test/images/redP.png'></img>	stop	2300.0	2.0	7.0	stop	non-target	P	89,Middle Finger	71,Index Finger	500.0	450.0	2250.0	2300.0	0.0	450.0	n/a	1.0	ITI
41550	500	n/a	-1	-1	500	0.0	fixation	poldrack-single-stim	23	110224	0.0-7.8-0.8	beast_fmri_test	275	110140,/	t	<div class = centerbox2><div class = fixation>+</div></div>	none	500.0	test	n/a	n/a	n/a	n/a	n/a	n/a	n/a	n/a	n/a	n/a	n/a	n/a	n/a	n/a	n/a	n/a	n/a	n/a	fixation
39758.110725445062	2750	n/a	862	89	2750	1793.88927455	stim	stop-signal	24	112976	0.0-7.8-1.8	beast_fmri_test	275	110821,/,111500,/,112181,/,112860,/,113541,/,114220,/	t,t,t,t,t,t	<img class = center src='/static/experiments/beast_fmri_test/images/B.png'></img>	89,71	2750.0	test	<img class = center src='/static/experiments/beast_fmri_test/images/redB.png'></img>	go	2250.0	2.0	8.0	go	target	B	89,Middle Finger	71,Index Finger	500.0	500.0	2250.0	2300.0	1.0	500.0	1.0	n/a	go_stim
42508.110725445062	1793.8892745549415	n/a	862	89	2750	1793.88927455	stim	stop-signal	24	112976	0.0-7.8-1.8	beast_fmri_test	275	110821,/,111500,/,112181,/,112860,/,113541,/,114220,/	t,t,t,t,t,t	<img class = center src='/static/experiments/beast_fmri_test/images/B.png'></img>	89,71	2750.0	test	<img class = center src='/static/experiments/beast_fmri_test/images/redB.png'></img>	go	2250.0	2.0	8.0	go	target	B	89,Middle Finger	71,Index Finger	500.0	500.0	2250.0	2300.0	1.0	500.0	1.0	n/a	ITI
46603	500	n/a	-1	-1	500	0.0	fixation	poldrack-single-stim	25	115277	0.0-7.9-0.9	beast_fmri_test	275	114901,/	t	<div class = centerbox2><div class = fixation>+</div></div>	none	500.0	test	n/a	n/a	n/a	n/a	n/a	n/a	n/a	n/a	n/a	n/a	n/a	n/a	n/a	n/a	n/a	n/a	n/a	n/a	fixation
46465.395016297494	500.0	n/a	697	71	2750	137.604983703	stim	stop-signal	26	118027	0.0-7.9-1.9	beast_fmri_test	275	115580,/,116259,/,116940,/,117621,/	t,t,t,t	<img class = center src='/static/experiments/beast_fmri_test/images/T.png'></img>	89,71	2750.0	test	<img class = center src='/static/experiments/beast_fmri_test/images/redT.png'></img>	stop	2250.0	2.0	9.0	stop	non-target	T	89,Middle Finger	71,Index Finger	500.0	500.0	2250.0	2250.0	0.0	500.0	n/a	0.0	go_stim
48715.395016297494	2250.0	n/a	697	71	2750	137.604983703	stim	stop-signal	26	118027	0.0-7.9-1.9	beast_fmri_test	275	115580,/,116259,/,116940,/,117621,/	t,t,t,t	<img class = center src='/static/experiments/beast_fmri_test/images/T.png'></img>	89,71	2750.0	test	<img class = center src='/static/experiments/beast_fmri_test/images/redT.png'></img>	stop	2250.0	2.0	9.0	stop	non-target	T	89,Middle Finger	71,Index Finger	500.0	500.0	2250.0	2250.0	0.0	500.0	n/a	0.0	stop_stim
49215.395016297494	137.60498370250446	n/a	697	71	2750	137.604983703	stim	stop-signal	26	118027	0.0-7.9-1.9	beast_fmri_test	275	115580,/,116259,/,116940,/,117621,/	t,t,t,t	<img class = center src='/static/experiments/beast_fmri_test/images/T.png'></img>	89,71	2750.0	test	<img class = center src='/static/experiments/beast_fmri_test/images/redT.png'></img>	stop	2250.0	2.0	9.0	stop	non-target	T	89,Middle Finger	71,Index Finger	500.0	500.0	2250.0	2250.0	0.0	500.0	n/a	0.0	ITI
49994	500	n/a	-1	-1	500	0.0	fixation	poldrack-single-stim	27	118668	0.0-7.10-0.10	beast_fmri_test	275	118298,/	t	<div class = centerbox2><div class = fixation>+</div></div>	none	500.0	test	n/a	n/a	n/a	n/a	n/a	n/a	n/a	n/a	n/a	n/a	n/a	n/a	n/a	n/a	n/a	n/a	n/a	n/a	fixation
49801.788957425641	450.0	n/a	-1	-1	2750	197.211042574	stim	stop-signal	28	121423	0.0-7.10-1.10	beast_fmri_test	275	118975,/,119655,/,120335,/,121015,/	t,t,t,t	<img class = center src='/static/experiments/beast_fmri_test/images/V.png'></img>	89,71	2750.0	test	<img class = center src='/static/experiments/beast_fmri_test/images/redV.png'></img>	stop	2300.0	2.0	10.0	stop	non-target	V	89,Middle Finger	71,Index Finger	500.0	450.0	2250.0	2300.0	0.0	450.0	n/a	1.0	go_stim
52101.788957425641	2300.0	n/a	-1	-1	2750	197.211042574	stim	stop-signal	28	121423	0.0-7.10-1.10	beast_fmri_test	275	118975,/,119655,/,120335,/,121015,/	t,t,t,t	<img class = center src='/static/experiments/beast_fmri_test/images/V.png'></img>	89,71	2750.0	test	<img class = center src='/static/experiments/beast_fmri_test/images/redV.png'></img>	stop	2300.0	2.0	10.0	stop	non-target	V	89,Middle Finger	71,Index Finger	500.0	450.0	2250.0	2300.0	0.0	450.0	n/a	1.0	stop_stim
52551.788957425641	197.21104257436363	n/a	-1	-1	2750	197.211042574	stim	stop-signal	28	121423	0.0-7.10-1.10	beast_fmri_test	275	118975,/,119655,/,120335,/,121015,/	t,t,t,t	<img class = center src='/static/experiments/beast_fmri_test/images/V.png'></img>	89,71	2750.0	test	<img class = center src='/static/experiments/beast_fmri_test/images/redV.png'></img>	stop	2300.0	2.0	10.0	stop	non-target	V	89,Middle Finger	71,Index Finger	500.0	450.0	2250.0	2300.0	0.0	450.0	n/a	1.0	ITI
53455	500	n/a	-1	-1	500	0.0	fixation	poldrack-single-stim	29	122129	0.0-7.11-0.11	beast_fmri_test	275	121694,/	t	<div class = centerbox2><div class = fixation>+</div></div>	none	500.0	test	n/a	n/a	n/a	n/a	n/a	n/a	n/a	n/a	n/a	n/a	n/a	n/a	n/a	n/a	n/a	n/a	n/a	n/a	fixation
53355.517379167126	2750	n/a	621	89	2750	104.482620833	stim	stop-signal	30	124884	0.0-7.11-1.11	beast_fmri_test	275	122375,/,123055,/,123735,/,124415,/	t,t,t,t	<img class = center src='/static/experiments/beast_fmri_test/images/T.png'></img>	89,71	2750.0	test	<img class = center src='/static/experiments/beast_fmri_test/images/redT.png'></img>	go	2250.0	2.0	11.0	go	target	T	89,Middle Finger	71,Index Finger	500.0	500.0	2250.0	2300.0	1.0	500.0	1.0	n/a	go_stim
56105.517379167126	104.48262083287683	n/a	621	89	2750	104.482620833	stim	stop-signal	30	124884	0.0-7.11-1.11	beast_fmri_test	275	122375,/,123055,/,123735,/,124415,/	t,t,t,t	<img class = center src='/static/experiments/beast_fmri_test/images/T.png'></img>	89,71	2750.0	test	<img class = center src='/static/experiments/beast_fmri_test/images/redT.png'></img>	go	2250.0	2.0	11.0	go	target	T	89,Middle Finger	71,Index Finger	500.0	500.0	2250.0	2300.0	1.0	500.0	1.0	n/a	ITI
56820	500	n/a	-1	-1	500	0.0	fixation	poldrack-single-stim	31	125494	0.0-7.12-0.12	beast_fmri_test	275	125095,/	t	<div class = centerbox2><div class = fixation>+</div></div>	none	500.0	test	n/a	n/a	n/a	n/a	n/a	n/a	n/a	n/a	n/a	n/a	n/a	n/a	n/a	n/a	n/a	n/a	n/a	n/a	fixation
55955.908373360347	2750	n/a	798	89	2750	863.09162664	stim	stop-signal	32	128243	0.0-7.12-1.12	beast_fmri_test	275	125775,/,126455,/,127135,/,127813,/,128491,/	t,t,t,t,t	<img class = center src='/static/experiments/beast_fmri_test/images/V.png'></img>	89,71	2750.0	test	<img class = center src='/static/experiments/beast_fmri_test/images/redV.png'></img>	go	2250.0	2.0	12.0	go	target	V	89,Middle Finger	71,Index Finger	500.0	500.0	2250.0	2300.0	1.0	500.0	1.0	n/a	go_stim
58705.908373360347	863.09162663964526	n/a	798	89	2750	863.09162664	stim	stop-signal	32	128243	0.0-7.12-1.12	beast_fmri_test	275	125775,/,126455,/,127135,/,127813,/,128491,/	t,t,t,t,t	<img class = center src='/static/experiments/beast_fmri_test/images/V.png'></img>	89,71	2750.0	test	<img class = center src='/static/experiments/beast_fmri_test/images/redV.png'></img>	go	2250.0	2.0	12.0	go	target	V	89,Middle Finger	71,Index Finger	500.0	500.0	2250.0	2300.0	1.0	500.0	1.0	n/a	ITI
60940	500	n/a	-1	-1	500	0.0	fixation	poldrack-single-stim	33	129614	0.0-7.13-0.13	beast_fmri_test	275	129171,/	t	<div class = centerbox2><div class = fixation>+</div></div>	none	500.0	test	n/a	n/a	n/a	n/a	n/a	n/a	n/a	n/a	n/a	n/a	n/a	n/a	n/a	n/a	n/a	n/a	n/a	n/a	fixation
58677.128570592045	500.0	n/a	-1	-1	2750	2264.87142941	stim	stop-signal	34	132366	0.0-7.13-1.13	beast_fmri_test	275	129851,/,130530,/,131210,/,131890,/,132571,/,133250,/,133932,/,134611,/	t,t,t,t,t,t,t,t	<img class = center src='/static/experiments/beast_fmri_test/images/T.png'></img>	89,71	2750.0	test	<img class = center src='/static/experiments/beast_fmri_test/images/redT.png'></img>	stop	2250.0	2.0	13.0	stop	target	T	89,Middle Finger	71,Index Finger	500.0	500.0	2250.0	2300.0	0.0	500.0	n/a	1.0	go_stim
60927.128570592045	2250.0	n/a	-1	-1	2750	2264.87142941	stim	stop-signal	34	132366	0.0-7.13-1.13	beast_fmri_test	275	129851,/,130530,/,131210,/,131890,/,132571,/,133250,/,133932,/,134611,/	t,t,t,t,t,t,t,t	<img class = center src='/static/experiments/beast_fmri_test/images/T.png'></img>	89,71	2750.0	test	<img class = center src='/static/experiments/beast_fmri_test/images/redT.png'></img>	stop	2250.0	2.0	13.0	stop	target	T	89,Middle Finger	71,Index Finger	500.0	500.0	2250.0	2300.0	0.0	500.0	n/a	1.0	stop_stim
61427.128570592045	2264.8714294079491	n/a	-1	-1	2750	2264.87142941	stim	stop-signal	34	132366	0.0-7.13-1.13	beast_fmri_test	275	129851,/,130530,/,131210,/,131890,/,132571,/,133250,/,133932,/,134611,/	t,t,t,t,t,t,t,t	<img class = center src='/static/experiments/beast_fmri_test/images/T.png'></img>	89,71	2750.0	test	<img class = center src='/static/experiments/beast_fmri_test/images/redT.png'></img>	stop	2250.0	2.0	13.0	stop	target	T	89,Middle Finger	71,Index Finger	500.0	500.0	2250.0	2300.0	0.0	500.0	n/a	1.0	ITI
66467	500	n/a	-1	-1	500	0.0	fixation	poldrack-single-stim	35	135141	0.0-7.14-0.14	beast_fmri_test	275	n/a	n/a	<div class = centerbox2><div class = fixation>+</div></div>	none	500.0	test	n/a	n/a	n/a	n/a	n/a	n/a	n/a	n/a	n/a	n/a	n/a	n/a	n/a	n/a	n/a	n/a	n/a	n/a	fixation
65114.939719494694	2750	n/a	642	71	2750	1354.06028051	stim	stop-signal	36	137893	0.0-7.14-1.14	beast_fmri_test	275	135291,/,135971,/,136651,/,137333,/,138009,/,138687,/	t,t,t,t,t,t	<img class = center src='/static/experiments/beast_fmri_test/images/B.png'></img>	89,71	2750.0	test	<img class = center src='/static/experiments/beast_fmri_test/images/redB.png'></img>	go	2250.0	2.0	14.0	go	non-target	B	89,Middle Finger	71,Index Finger	550.0	500.0	2250.0	2250.0	1.0	500.0	1.0	n/a	go_stim
67864.939719494694	1354.0602805052947	n/a	642	71	2750	1354.06028051	stim	stop-signal	36	137893	0.0-7.14-1.14	beast_fmri_test	275	135291,/,135971,/,136651,/,137333,/,138009,/,138687,/	t,t,t,t,t,t	<img class = center src='/static/experiments/beast_fmri_test/images/B.png'></img>	89,71	2750.0	test	<img class = center src='/static/experiments/beast_fmri_test/images/redB.png'></img>	go	2250.0	2.0	14.0	go	non-target	B	89,Middle Finger	71,Index Finger	550.0	500.0	2250.0	2250.0	1.0	500.0	1.0	n/a	ITI
71079	500	n/a	-1	-1	500	0.0	fixation	poldrack-single-stim	37	139753	0.0-7.15-0.15	beast_fmri_test	275	139366,/	t	<div class = centerbox2><div class = fixation>+</div></div>	none	500.0	test	n/a	n/a	n/a	n/a	n/a	n/a	n/a	n/a	n/a	n/a	n/a	n/a	n/a	n/a	n/a	n/a	n/a	n/a	fixation
70679.475969334308	2750	n/a	796	71	2750	401.524030666	stim	stop-signal	38	142505	0.0-7.15-1.15	beast_fmri_test	275	140047,/,140726,/,141407,/,142086,/,142766,/	t,t,t,t,t	<img class = center src='/static/experiments/beast_fmri_test/images/V.png'></img>	89,71	2750.0	test	<img class = center src='/static/experiments/beast_fmri_test/images/redV.png'></img>	go	2250.0	2.0	15.0	go	non-target	V	89,Middle Finger	71,Index Finger	550.0	500.0	2250.0	2250.0	1.0	500.0	1.0	n/a	go_stim
73429.475969334308	401.52403066570207	n/a	796	71	2750	401.524030666	stim	stop-signal	38	142505	0.0-7.15-1.15	beast_fmri_test	275	140047,/,140726,/,141407,/,142086,/,142766,/	t,t,t,t,t	<img class = center src='/static/experiments/beast_fmri_test/images/V.png'></img>	89,71	2750.0	test	<img class = center src='/static/experiments/beast_fmri_test/images/redV.png'></img>	go	2250.0	2.0	15.0	go	non-target	V	89,Middle Finger	71,Index Finger	550.0	500.0	2250.0	2250.0	1.0	500.0	1.0	n/a	ITI
74742	500	n/a	-1	-1	500	0.0	fixation	poldrack-single-stim	39	143416	0.0-7.16-0.16	beast_fmri_test	275	n/a	n/a	<div class = centerbox2><div class = fixation>+</div></div>	none	500.0	test	n/a	n/a	n/a	n/a	n/a	n/a	n/a	n/a	n/a	n/a	n/a	n/a	n/a	n/a	n/a	n/a	n/a	n/a	fixation
74483.219746758725	500.0	n/a	-1	-1	2750	261.780253241	stim	stop-signal	40	146169	0.0-7.16-1.16	beast_fmri_test	275	143447,/,144126,/,144806,/,145486,/,146168,/	t,t,t,t,t	<img class = center src='/static/experiments/beast_fmri_test/images/P.png'></img>	89,71	2750.0	test	<img class = center src='/static/experiments/beast_fmri_test/images/redP.png'></img>	stop	2250.0	2.0	16.0	stop	non-target	P	89,Middle Finger	71,Index Finger	550.0	500.0	2250.0	2250.0	0.0	500.0	n/a	1.0	go_stim
76733.219746758725	2250.0	n/a	-1	-1	2750	261.780253241	stim	stop-signal	40	146169	0.0-7.16-1.16	beast_fmri_test	275	143447,/,144126,/,144806,/,145486,/,146168,/	t,t,t,t,t	<img class = center src='/static/experiments/beast_fmri_test/images/P.png'></img>	89,71	2750.0	test	<img class = center src='/static/experiments/beast_fmri_test/images/redP.png'></img>	stop	2250.0	2.0	16.0	stop	non-target	P	89,Middle Finger	71,Index Finger	550.0	500.0	2250.0	2250.0	0.0	500.0	n/a	1.0	stop_stim
77233.219746758725	261.7802532412847	n/a	-1	-1	2750	261.780253241	stim	stop-signal	40	146169	0.0-7.16-1.16	beast_fmri_test	275	143447,/,144126,/,144806,/,145486,/,146168,/	t,t,t,t,t	<img class = center src='/static/experiments/beast_fmri_test/images/P.png'></img>	89,71	2750.0	test	<img class = center src='/static/experiments/beast_fmri_test/images/redP.png'></img>	stop	2250.0	2.0	16.0	stop	non-target	P	89,Middle Finger	71,Index Finger	550.0	500.0	2250.0	2250.0	0.0	500.0	n/a	1.0	ITI
78265	500	n/a	-1	-1	500	0.0	fixation	poldrack-single-stim	41	146939	0.0-7.17-0.17	beast_fmri_test	275	146847,/	t	<div class = centerbox2><div class = fixation>+</div></div>	none	500.0	test	n/a	n/a	n/a	n/a	n/a	n/a	n/a	n/a	n/a	n/a	n/a	n/a	n/a	n/a	n/a	n/a	n/a	n/a	fixation
76843.812851191091	550.0	n/a	729	89	2750	1424.18714881	stim	stop-signal	42	149692	0.0-7.17-1.17	beast_fmri_test	275	147526,/,148207,/,148886,/,149566,/,150247,/,150927,/	t,t,t,t,t,t	<img class = center src='/static/experiments/beast_fmri_test/images/V.png'></img>	89,71	2750.0	test	<img class = center src='/static/experiments/beast_fmri_test/images/redV.png'></img>	stop	2200.0	2.0	17.0	stop	target	V	89,Middle Finger	71,Index Finger	550.0	550.0	2200.0	2250.0	0.0	550.0	n/a	0.0	go_stim
79043.812851191091	2200.0	n/a	729	89	2750	1424.18714881	stim	stop-signal	42	149692	0.0-7.17-1.17	beast_fmri_test	275	147526,/,148207,/,148886,/,149566,/,150247,/,150927,/	t,t,t,t,t,t	<img class = center src='/static/experiments/beast_fmri_test/images/V.png'></img>	89,71	2750.0	test	<img class = center src='/static/experiments/beast_fmri_test/images/redV.png'></img>	stop	2200.0	2.0	17.0	stop	target	V	89,Middle Finger	71,Index Finger	550.0	550.0	2200.0	2250.0	0.0	550.0	n/a	0.0	stop_stim
79593.812851191091	1424.1871488089066	n/a	729	89	2750	1424.18714881	stim	stop-signal	42	149692	0.0-7.17-1.17	beast_fmri_test	275	147526,/,148207,/,148886,/,149566,/,150247,/,150927,/	t,t,t,t,t,t	<img class = center src='/static/experiments/beast_fmri_test/images/V.png'></img>	89,71	2750.0	test	<img class = center src='/static/experiments/beast_fmri_test/images/redV.png'></img>	stop	2200.0	2.0	17.0	stop	target	V	89,Middle Finger	71,Index Finger	550.0	550.0	2200.0	2250.0	0.0	550.0	n/a	0.0	ITI
82950	500	n/a	-1	-1	500	0.0	fixation	poldrack-single-stim	43	151624	0.0-7.18-0.18	beast_fmri_test	275	151608,/	t	<div class = centerbox2><div class = fixation>+</div></div>	none	500.0	test	n/a	n/a	n/a	n/a	n/a	n/a	n/a	n/a	n/a	n/a	n/a	n/a	n/a	n/a	n/a	n/a	n/a	n/a	fixation
82837.607338188274	2750	n/a	1426	71	2750	115.392661812	stim	stop-signal	44	154377	0.0-7.18-1.18	beast_fmri_test	275	152286,/,152966,/,153646,/,154327,/	t,t,t,t	<img class = center src='/static/experiments/beast_fmri_test/images/P.png'></img>	89,71	2750.0	test	<img class = center src='/static/experiments/beast_fmri_test/images/redP.png'></img>	go	2250.0	2.0	18.0	go	target	P	89,Middle Finger	71,Index Finger	500.0	550.0	2250.0	2250.0	0.0	500.0	0.0	n/a	go_stim
85587.607338188274	115.39266181173171	n/a	1426	71	2750	115.392661812	stim	stop-signal	44	154377	0.0-7.18-1.18	beast_fmri_test	275	152286,/,152966,/,153646,/,154327,/	t,t,t,t	<img class = center src='/static/experiments/beast_fmri_test/images/P.png'></img>	89,71	2750.0	test	<img class = center src='/static/experiments/beast_fmri_test/images/redP.png'></img>	go	2250.0	2.0	18.0	go	target	P	89,Middle Finger	71,Index Finger	500.0	550.0	2250.0	2250.0	0.0	500.0	0.0	n/a	ITI
86325	500	n/a	-1	-1	500	0.0	fixation	poldrack-single-stim	45	154999	0.0-7.19-0.19	beast_fmri_test	275	n/a	n/a	<div class = centerbox2><div class = fixation>+</div></div>	none	500.0	test	n/a	n/a	n/a	n/a	n/a	n/a	n/a	n/a	n/a	n/a	n/a	n/a	n/a	n/a	n/a	n/a	n/a	n/a	fixation
83475.933625827485	2750	n/a	699	71	2750	2850.06637417	stim	stop-signal	46	157750	0.0-7.19-1.19	beast_fmri_test	275	155006,/,155686,/,156366,/,157046,/,157725,/,158403,/,159081,/,159761,/,160442,/	t,t,t,t,t,t,t,t,t	<img class = center src='/static/experiments/beast_fmri_test/images/D.png'></img>	89,71	2750.0	test	<img class = center src='/static/experiments/beast_fmri_test/images/redD.png'></img>	go	2200.0	2.0	19.0	go	non-target	D	89,Middle Finger	71,Index Finger	500.0	550.0	2250.0	2200.0	1.0	550.0	1.0	n/a	go_stim
86225.933625827485	2850.066374172513	n/a	699	71	2750	2850.06637417	stim	stop-signal	46	157750	0.0-7.19-1.19	beast_fmri_test	275	155006,/,155686,/,156366,/,157046,/,157725,/,158403,/,159081,/,159761,/,160442,/	t,t,t,t,t,t,t,t,t	<img class = center src='/static/experiments/beast_fmri_test/images/D.png'></img>	89,71	2750.0	test	<img class = center src='/static/experiments/beast_fmri_test/images/redD.png'></img>	go	2200.0	2.0	19.0	go	non-target	D	89,Middle Finger	71,Index Finger	500.0	550.0	2250.0	2200.0	1.0	550.0	1.0	n/a	ITI
92431	500	n/a	-1	-1	500	0.0	fixation	poldrack-single-stim	47	161105	0.0-7.20-0.20	beast_fmri_test	275	n/a	n/a	<div class = centerbox2><div class = fixation>+</div></div>	none	500.0	test	n/a	n/a	n/a	n/a	n/a	n/a	n/a	n/a	n/a	n/a	n/a	n/a	n/a	n/a	n/a	n/a	n/a	n/a	fixation
92371.829710482882	500.0	n/a	974	71	2750	61.1702895171	stim	stop-signal	48	163857	0.0-7.20-1.20	beast_fmri_test	275	161122,/,161801,/,162482,/,163162,/,163841,/	t,t,t,t,t	<img class = center src='/static/experiments/beast_fmri_test/images/P.png'></img>	89,71	2750.0	test	<img class = center src='/static/experiments/beast_fmri_test/images/redP.png'></img>	stop	2250.0	2.0	20.0	stop	target	P	89,Middle Finger	71,Index Finger	500.0	550.0	2250.0	2200.0	0.0	500.0	n/a	0.0	go_stim
94621.829710482882	2250.0	n/a	974	71	2750	61.1702895171	stim	stop-signal	48	163857	0.0-7.20-1.20	beast_fmri_test	275	161122,/,161801,/,162482,/,163162,/,163841,/	t,t,t,t,t	<img class = center src='/static/experiments/beast_fmri_test/images/P.png'></img>	89,71	2750.0	test	<img class = center src='/static/experiments/beast_fmri_test/images/redP.png'></img>	stop	2250.0	2.0	20.0	stop	target	P	89,Middle Finger	71,Index Finger	500.0	550.0	2250.0	2200.0	0.0	500.0	n/a	0.0	stop_stim
95121.829710482882	61.170289517119777	n/a	974	71	2750	61.1702895171	stim	stop-signal	48	163857	0.0-7.20-1.20	beast_fmri_test	275	161122,/,161801,/,162482,/,163162,/,163841,/	t,t,t,t,t	<img class = center src='/static/experiments/beast_fmri_test/images/P.png'></img>	89,71	2750.0	test	<img class = center src='/static/experiments/beast_fmri_test/images/redP.png'></img>	stop	2250.0	2.0	20.0	stop	target	P	89,Middle Finger	71,Index Finger	500.0	550.0	2250.0	2200.0	0.0	500.0	n/a	0.0	ITI
95751	500	n/a	-1	-1	500	0.0	fixation	poldrack-single-stim	49	164425	0.0-7.21-0.21	beast_fmri_test	275	n/a	n/a	<div class = centerbox2><div class = fixation>+</div></div>	none	500.0	test	n/a	n/a	n/a	n/a	n/a	n/a	n/a	n/a	n/a	n/a	n/a	n/a	n/a	n/a	n/a	n/a	n/a	n/a	fixation
94334.476933965227	2750	n/a	955	71	2750	1418.52306603	stim	stop-signal	50	167177	0.0-7.21-1.21	beast_fmri_test	275	164522,/,165204,/,165882,/,166562,/,167242,/,167920,/	t,t,t,t,t,t	<img class = center src='/static/experiments/beast_fmri_test/images/V.png'></img>	89,71	2750.0	test	<img class = center src='/static/experiments/beast_fmri_test/images/redV.png'></img>	go	2200.0	2.0	21.0	go	non-target	V	89,Middle Finger	71,Index Finger	450.0	550.0	2250.0	2200.0	1.0	550.0	1.0	n/a	go_stim
97084.476933965227	1418.5230660347738	n/a	955	71	2750	1418.52306603	stim	stop-signal	50	167177	0.0-7.21-1.21	beast_fmri_test	275	164522,/,165204,/,165882,/,166562,/,167242,/,167920,/	t,t,t,t,t,t	<img class = center src='/static/experiments/beast_fmri_test/images/V.png'></img>	89,71	2750.0	test	<img class = center src='/static/experiments/beast_fmri_test/images/redV.png'></img>	go	2200.0	2.0	21.0	go	non-target	V	89,Middle Finger	71,Index Finger	450.0	550.0	2250.0	2200.0	1.0	550.0	1.0	n/a	ITI
100429	500	n/a	-1	-1	500	0.0	fixation	poldrack-single-stim	51	169103	0.0-7.22-0.22	beast_fmri_test	275	168602,/	t	<div class = centerbox2><div class = fixation>+</div></div>	none	500.0	test	n/a	n/a	n/a	n/a	n/a	n/a	n/a	n/a	n/a	n/a	n/a	n/a	n/a	n/a	n/a	n/a	n/a	n/a	fixation
99666.074275889376	2750	n/a	835	89	2750	766.925724111	stim	stop-signal	52	171857	0.0-7.22-1.22	beast_fmri_test	275	169278,/,169959,/,170639,/,171318,/,171997,/	t,t,t,t,t	<img class = center src='/static/experiments/beast_fmri_test/images/P.png'></img>	89,71	2750.0	test	<img class = center src='/static/experiments/beast_fmri_test/images/redP.png'></img>	go	2300.0	2.0	22.0	go	target	P	89,Middle Finger	71,Index Finger	450.0	550.0	2300.0	2200.0	1.0	450.0	1.0	n/a	go_stim
102416.07427588938	766.92572411062213	n/a	835	89	2750	766.925724111	stim	stop-signal	52	171857	0.0-7.22-1.22	beast_fmri_test	275	169278,/,169959,/,170639,/,171318,/,171997,/	t,t,t,t,t	<img class = center src='/static/experiments/beast_fmri_test/images/P.png'></img>	89,71	2750.0	test	<img class = center src='/static/experiments/beast_fmri_test/images/redP.png'></img>	go	2300.0	2.0	22.0	go	target	P	89,Middle Finger	71,Index Finger	450.0	550.0	2300.0	2200.0	1.0	450.0	1.0	n/a	ITI
104460	500	n/a	-1	-1	500	0.0	fixation	poldrack-single-stim	53	173134	0.0-7.23-0.23	beast_fmri_test	275	172677,/	t	<div class = centerbox2><div class = fixation>+</div></div>	none	500.0	test	n/a	n/a	n/a	n/a	n/a	n/a	n/a	n/a	n/a	n/a	n/a	n/a	n/a	n/a	n/a	n/a	n/a	n/a	fixation
102491.74648520077	550.0	n/a	666	71	2750	1970.2535148	stim	stop-signal	54	175886	0.0-7.23-1.23	beast_fmri_test	275	173357,/,174037,/,174718,/,175398,/,176078,/,176758,/,177437,/	t,t,t,t,t,t,t	<img class = center src='/static/experiments/beast_fmri_test/images/D.png'></img>	89,71	2750.0	test	<img class = center src='/static/experiments/beast_fmri_test/images/redD.png'></img>	stop	2200.0	2.0	23.0	stop	non-target	D	89,Middle Finger	71,Index Finger	450.0	550.0	2300.0	2200.0	0.0	550.0	n/a	0.0	go_stim
104691.74648520077	2200.0	n/a	666	71	2750	1970.2535148	stim	stop-signal	54	175886	0.0-7.23-1.23	beast_fmri_test	275	173357,/,174037,/,174718,/,175398,/,176078,/,176758,/,177437,/	t,t,t,t,t,t,t	<img class = center src='/static/experiments/beast_fmri_test/images/D.png'></img>	89,71	2750.0	test	<img class = center src='/static/experiments/beast_fmri_test/images/redD.png'></img>	stop	2200.0	2.0	23.0	stop	non-target	D	89,Middle Finger	71,Index Finger	450.0	550.0	2300.0	2200.0	0.0	550.0	n/a	0.0	stop_stim
105241.74648520077	1970.2535147992407	n/a	666	71	2750	1970.2535148	stim	stop-signal	54	175886	0.0-7.23-1.23	beast_fmri_test	275	173357,/,174037,/,174718,/,175398,/,176078,/,176758,/,177437,/	t,t,t,t,t,t,t	<img class = center src='/static/experiments/beast_fmri_test/images/D.png'></img>	89,71	2750.0	test	<img class = center src='/static/experiments/beast_fmri_test/images/redD.png'></img>	stop	2200.0	2.0	23.0	stop	non-target	D	89,Middle Finger	71,Index Finger	450.0	550.0	2300.0	2200.0	0.0	550.0	n/a	0.0	ITI
109692	500	n/a	-1	-1	500	0.0	fixation	poldrack-single-stim	55	178366	0.0-7.24-0.24	beast_fmri_test	275	178114,/	t	<div class = centerbox2><div class = fixation>+</div></div>	none	500.0	test	n/a	n/a	n/a	n/a	n/a	n/a	n/a	n/a	n/a	n/a	n/a	n/a	n/a	n/a	n/a	n/a	n/a	n/a	fixation
109638.3185284237	2750	n/a	812	89	2750	54.6814715763	stim	stop-signal	56	181117	0.0-7.24-1.24	beast_fmri_test	275	178792,/,179473,/,180154,/,180833,/	t,t,t,t	<img class = center src='/static/experiments/beast_fmri_test/images/P.png'></img>	89,71	2750.0	test	<img class = center src='/static/experiments/beast_fmri_test/images/redP.png'></img>	go	2300.0	2.0	24.0	go	target	P	89,Middle Finger	71,Index Finger	450.0	500.0	2300.0	2200.0	1.0	450.0	1.0	n/a	go_stim
112388.3185284237	54.681471576311026	n/a	812	89	2750	54.6814715763	stim	stop-signal	56	181117	0.0-7.24-1.24	beast_fmri_test	275	178792,/,179473,/,180154,/,180833,/	t,t,t,t	<img class = center src='/static/experiments/beast_fmri_test/images/P.png'></img>	89,71	2750.0	test	<img class = center src='/static/experiments/beast_fmri_test/images/redP.png'></img>	go	2300.0	2.0	24.0	go	target	P	89,Middle Finger	71,Index Finger	450.0	500.0	2300.0	2200.0	1.0	450.0	1.0	n/a	ITI
113006	500	n/a	-1	-1	500	0.0	fixation	poldrack-single-stim	57	181680	0.0-7.25-0.25	beast_fmri_test	275	181513,/	t	<div class = centerbox2><div class = fixation>+</div></div>	none	500.0	test	n/a	n/a	n/a	n/a	n/a	n/a	n/a	n/a	n/a	n/a	n/a	n/a	n/a	n/a	n/a	n/a	n/a	n/a	fixation
112172.95281701267	2750	n/a	767	89	2750	835.047182987	stim	stop-signal	58	184432	0.0-7.25-1.25	beast_fmri_test	275	182192,/,182872,/,183552,/,184232,/,184912,/	t,t,t,t,t	<img class = center src='/static/experiments/beast_fmri_test/images/D.png'></img>	89,71	2750.0	test	<img class = center src='/static/experiments/beast_fmri_test/images/redD.png'></img>	go	2300.0	2.0	25.0	go	target	D	89,Middle Finger	71,Index Finger	450.0	500.0	2300.0	2200.0	1.0	450.0	1.0	n/a	go_stim
114922.95281701267	835.04718298731473	n/a	767	89	2750	835.047182987	stim	stop-signal	58	184432	0.0-7.25-1.25	beast_fmri_test	275	182192,/,182872,/,183552,/,184232,/,184912,/	t,t,t,t,t	<img class = center src='/static/experiments/beast_fmri_test/images/D.png'></img>	89,71	2750.0	test	<img class = center src='/static/experiments/beast_fmri_test/images/redD.png'></img>	go	2300.0	2.0	25.0	go	target	D	89,Middle Finger	71,Index Finger	450.0	500.0	2300.0	2200.0	1.0	450.0	1.0	n/a	ITI
117107	500	n/a	-1	-1	500	0.0	fixation	poldrack-single-stim	59	185781	0.0-7.26-0.26	beast_fmri_test	275	185593,/	t	<div class = centerbox2><div class = fixation>+</div></div>	none	500.0	test	n/a	n/a	n/a	n/a	n/a	n/a	n/a	n/a	n/a	n/a	n/a	n/a	n/a	n/a	n/a	n/a	n/a	n/a	fixation
116641.21039731355	2750	n/a	595	71	2750	464.789602686	stim	stop-signal	60	188530	0.0-7.26-1.26	beast_fmri_test	275	186273,/,186952,/,187631,/,188308,/,188987,/	t,t,t,t,t	<img class = center src='/static/experiments/beast_fmri_test/images/T.png'></img>	89,71	2750.0	test	<img class = center src='/static/experiments/beast_fmri_test/images/redT.png'></img>	go	2250.0	2.0	26.0	go	non-target	T	89,Middle Finger	71,Index Finger	450.0	500.0	2300.0	2250.0	1.0	500.0	1.0	n/a	go_stim
119391.21039731355	464.78960268644204	n/a	595	71	2750	464.789602686	stim	stop-signal	60	188530	0.0-7.26-1.26	beast_fmri_test	275	186273,/,186952,/,187631,/,188308,/,188987,/	t,t,t,t,t	<img class = center src='/static/experiments/beast_fmri_test/images/T.png'></img>	89,71	2750.0	test	<img class = center src='/static/experiments/beast_fmri_test/images/redT.png'></img>	go	2250.0	2.0	26.0	go	non-target	T	89,Middle Finger	71,Index Finger	450.0	500.0	2300.0	2250.0	1.0	500.0	1.0	n/a	ITI
120827	500	n/a	-1	-1	500	0.0	fixation	poldrack-single-stim	61	189501	0.0-7.27-0.27	beast_fmri_test	275	n/a	n/a	<div class = centerbox2><div class = fixation>+</div></div>	none	500.0	test	n/a	n/a	n/a	n/a	n/a	n/a	n/a	n/a	n/a	n/a	n/a	n/a	n/a	n/a	n/a	n/a	n/a	n/a	fixation
120604.47210763503	450.0	n/a	721	89	2750	224.527892365	stim	stop-signal	62	192253	0.0-7.27-1.27	beast_fmri_test	275	189668,/,190348,/,191028,/,191707,/,192388,/	t,t,t,t,t	<img class = center src='/static/experiments/beast_fmri_test/images/D.png'></img>	89,71	2750.0	test	<img class = center src='/static/experiments/beast_fmri_test/images/redD.png'></img>	stop	2300.0	2.0	27.0	stop	target	D	89,Middle Finger	71,Index Finger	450.0	500.0	2300.0	2250.0	0.0	450.0	n/a	0.0	go_stim
122904.47210763503	2300.0	n/a	721	89	2750	224.527892365	stim	stop-signal	62	192253	0.0-7.27-1.27	beast_fmri_test	275	189668,/,190348,/,191028,/,191707,/,192388,/	t,t,t,t,t	<img class = center src='/static/experiments/beast_fmri_test/images/D.png'></img>	89,71	2750.0	test	<img class = center src='/static/experiments/beast_fmri_test/images/redD.png'></img>	stop	2300.0	2.0	27.0	stop	target	D	89,Middle Finger	71,Index Finger	450.0	500.0	2300.0	2250.0	0.0	450.0	n/a	0.0	stop_stim
123354.47210763503	224.52789236498143	n/a	721	89	2750	224.527892365	stim	stop-signal	62	192253	0.0-7.27-1.27	beast_fmri_test	275	189668,/,190348,/,191028,/,191707,/,192388,/	t,t,t,t,t	<img class = center src='/static/experiments/beast_fmri_test/images/D.png'></img>	89,71	2750.0	test	<img class = center src='/static/experiments/beast_fmri_test/images/redD.png'></img>	stop	2300.0	2.0	27.0	stop	target	D	89,Middle Finger	71,Index Finger	450.0	500.0	2300.0	2250.0	0.0	450.0	n/a	0.0	ITI
124315	500	n/a	-1	-1	500	0.0	fixation	poldrack-single-stim	63	192989	0.0-7.28-0.28	beast_fmri_test	275	n/a	n/a	<div class = centerbox2><div class = fixation>+</div></div>	none	500.0	test	n/a	n/a	n/a	n/a	n/a	n/a	n/a	n/a	n/a	n/a	n/a	n/a	n/a	n/a	n/a	n/a	n/a	n/a	fixation
123876.11611103817	2750	n/a	624	71	2750	442.883888962	stim	stop-signal	64	195743	0.0-7.28-1.28	beast_fmri_test	275	193068,/,193749,/,194428,/,195109,/,195788,/	t,t,t,t,t	<img class = center src='/static/experiments/beast_fmri_test/images/V.png'></img>	89,71	2750.0	test	<img class = center src='/static/experiments/beast_fmri_test/images/redV.png'></img>	go	2250.0	2.0	28.0	go	non-target	V	89,Middle Finger	71,Index Finger	400.0	500.0	2300.0	2250.0	1.0	500.0	1.0	n/a	go_stim
126626.11611103817	442.88388896183983	n/a	624	71	2750	442.883888962	stim	stop-signal	64	195743	0.0-7.28-1.28	beast_fmri_test	275	193068,/,193749,/,194428,/,195109,/,195788,/	t,t,t,t,t	<img class = center src='/static/experiments/beast_fmri_test/images/V.png'></img>	89,71	2750.0	test	<img class = center src='/static/experiments/beast_fmri_test/images/redV.png'></img>	go	2250.0	2.0	28.0	go	non-target	V	89,Middle Finger	71,Index Finger	400.0	500.0	2300.0	2250.0	1.0	500.0	1.0	n/a	ITI
128020	500	n/a	-1	-1	500	0.0	fixation	poldrack-single-stim	65	196694	0.0-7.29-0.29	beast_fmri_test	275	196468,/	t	<div class = centerbox2><div class = fixation>+</div></div>	none	500.0	test	n/a	n/a	n/a	n/a	n/a	n/a	n/a	n/a	n/a	n/a	n/a	n/a	n/a	n/a	n/a	n/a	n/a	n/a	fixation
127565.33718144533	2750	n/a	667	71	2750	452.662818555	stim	stop-signal	66	199442	0.0-7.29-1.29	beast_fmri_test	275	197148,/,197827,/,198504,/,199185,/,199863,/	t,t,t,t,t	<img class = center src='/static/experiments/beast_fmri_test/images/B.png'></img>	89,71	2750.0	test	<img class = center src='/static/experiments/beast_fmri_test/images/redB.png'></img>	go	2250.0	2.0	29.0	go	non-target	B	89,Middle Finger	71,Index Finger	400.0	500.0	2300.0	2250.0	1.0	500.0	1.0	n/a	go_stim
130315.33718144533	452.66281855468458	n/a	667	71	2750	452.662818555	stim	stop-signal	66	199442	0.0-7.29-1.29	beast_fmri_test	275	197148,/,197827,/,198504,/,199185,/,199863,/	t,t,t,t,t	<img class = center src='/static/experiments/beast_fmri_test/images/B.png'></img>	89,71	2750.0	test	<img class = center src='/static/experiments/beast_fmri_test/images/redB.png'></img>	go	2250.0	2.0	29.0	go	non-target	B	89,Middle Finger	71,Index Finger	400.0	500.0	2300.0	2250.0	1.0	500.0	1.0	n/a	ITI
131734	500	n/a	-1	-1	500	0.0	fixation	poldrack-single-stim	67	200408	0.0-7.30-0.30	beast_fmri_test	275	n/a	n/a	<div class = centerbox2><div class = fixation>+</div></div>	none	500.0	test	n/a	n/a	n/a	n/a	n/a	n/a	n/a	n/a	n/a	n/a	n/a	n/a	n/a	n/a	n/a	n/a	n/a	n/a	fixation
131019.31142311261	2750	n/a	760	71	2750	716.688576887	stim	stop-signal	68	203160	0.0-7.30-1.30	beast_fmri_test	275	200543,/,201223,/,201903,/,202583,/,203263,/	t,t,t,t,t	<img class = center src='/static/experiments/beast_fmri_test/images/D.png'></img>	89,71	2750.0	test	<img class = center src='/static/experiments/beast_fmri_test/images/redD.png'></img>	go	2250.0	2.0	30.0	go	non-target	D	89,Middle Finger	71,Index Finger	400.0	500.0	2300.0	2250.0	1.0	500.0	1.0	n/a	go_stim
133769.31142311261	716.68857688739774	n/a	760	71	2750	716.688576887	stim	stop-signal	68	203160	0.0-7.30-1.30	beast_fmri_test	275	200543,/,201223,/,201903,/,202583,/,203263,/	t,t,t,t,t	<img class = center src='/static/experiments/beast_fmri_test/images/D.png'></img>	89,71	2750.0	test	<img class = center src='/static/experiments/beast_fmri_test/images/redD.png'></img>	go	2250.0	2.0	30.0	go	non-target	D	89,Middle Finger	71,Index Finger	400.0	500.0	2300.0	2250.0	1.0	500.0	1.0	n/a	ITI
135717	500	n/a	-1	-1	500	0.0	fixation	poldrack-single-stim	69	204391	0.0-7.31-0.31	beast_fmri_test	275	203945,/	t	<div class = centerbox2><div class = fixation>+</div></div>	none	500.0	test	n/a	n/a	n/a	n/a	n/a	n/a	n/a	n/a	n/a	n/a	n/a	n/a	n/a	n/a	n/a	n/a	n/a	n/a	fixation
134437.34871301134	2750	n/a	779	71	2750	1281.65128699	stim	stop-signal	70	207143	0.0-7.31-1.31	beast_fmri_test	275	204624,/,205303,/,205983,/,206663,/,207343,/,208023,/	t,t,t,t,t,t	<img class = center src='/static/experiments/beast_fmri_test/images/P.png'></img>	89,71	2750.0	test	<img class = center src='/static/experiments/beast_fmri_test/images/redP.png'></img>	go	2250.0	2.0	31.0	go	non-target	P	89,Middle Finger	71,Index Finger	400.0	500.0	2300.0	2250.0	1.0	500.0	1.0	n/a	go_stim
137187.34871301134	1281.6512869886599	n/a	779	71	2750	1281.65128699	stim	stop-signal	70	207143	0.0-7.31-1.31	beast_fmri_test	275	204624,/,205303,/,205983,/,206663,/,207343,/,208023,/	t,t,t,t,t,t	<img class = center src='/static/experiments/beast_fmri_test/images/P.png'></img>	89,71	2750.0	test	<img class = center src='/static/experiments/beast_fmri_test/images/redP.png'></img>	go	2250.0	2.0	31.0	go	non-target	P	89,Middle Finger	71,Index Finger	400.0	500.0	2300.0	2250.0	1.0	500.0	1.0	n/a	ITI
140264	500	n/a	-1	-1	500	0.0	fixation	poldrack-single-stim	71	208938	0.0-7.32-0.32	beast_fmri_test	275	208704,/	t	<div class = centerbox2><div class = fixation>+</div></div>	none	500.0	test	n/a	n/a	n/a	n/a	n/a	n/a	n/a	n/a	n/a	n/a	n/a	n/a	n/a	n/a	n/a	n/a	n/a	n/a	fixation
139743.30626707152	2750	n/a	1118	71	2750	524.693732928	stim	stop-signal	72	211692	0.0-7.32-1.32	beast_fmri_test	275	209383,/,210062,/,210743,/,211423,/,212103,/	t,t,t,t,t	<img class = center src='/static/experiments/beast_fmri_test/images/B.png'></img>	89,71	2750.0	test	<img class = center src='/static/experiments/beast_fmri_test/images/redB.png'></img>	go	2250.0	2.0	32.0	go	non-target	B	89,Middle Finger	71,Index Finger	400.0	500.0	2300.0	2250.0	1.0	500.0	1.0	n/a	go_stim
142493.30626707152	524.69373292849866	n/a	1118	71	2750	524.693732928	stim	stop-signal	72	211692	0.0-7.32-1.32	beast_fmri_test	275	209383,/,210062,/,210743,/,211423,/,212103,/	t,t,t,t,t	<img class = center src='/static/experiments/beast_fmri_test/images/B.png'></img>	89,71	2750.0	test	<img class = center src='/static/experiments/beast_fmri_test/images/redB.png'></img>	go	2250.0	2.0	32.0	go	non-target	B	89,Middle Finger	71,Index Finger	400.0	500.0	2300.0	2250.0	1.0	500.0	1.0	n/a	ITI
144054	500	n/a	-1	-1	500	0.0	fixation	poldrack-single-stim	73	212728	0.0-7.33-0.33	beast_fmri_test	275	n/a	n/a	<div class = centerbox2><div class = fixation>+</div></div>	none	500.0	test	n/a	n/a	n/a	n/a	n/a	n/a	n/a	n/a	n/a	n/a	n/a	n/a	n/a	n/a	n/a	n/a	n/a	n/a	fixation
142216.7120408515	2750	n/a	606	71	2750	1840.28795915	stim	stop-signal	74	215481	0.0-7.33-1.33	beast_fmri_test	275	212783,/,213463,/,214143,/,214823,/,215506,/,216183,/,216864,/	t,t,t,t,t,t,t	<img class = center src='/static/experiments/beast_fmri_test/images/V.png'></img>	89,71	2750.0	test	<img class = center src='/static/experiments/beast_fmri_test/images/redV.png'></img>	go	2250.0	2.0	33.0	go	non-target	V	89,Middle Finger	71,Index Finger	400.0	500.0	2300.0	2250.0	1.0	500.0	1.0	n/a	go_stim
144966.7120408515	1840.2879591484921	n/a	606	71	2750	1840.28795915	stim	stop-signal	74	215481	0.0-7.33-1.33	beast_fmri_test	275	212783,/,213463,/,214143,/,214823,/,215506,/,216183,/,216864,/	t,t,t,t,t,t,t	<img class = center src='/static/experiments/beast_fmri_test/images/V.png'></img>	89,71	2750.0	test	<img class = center src='/static/experiments/beast_fmri_test/images/redV.png'></img>	go	2250.0	2.0	33.0	go	non-target	V	89,Middle Finger	71,Index Finger	400.0	500.0	2300.0	2250.0	1.0	500.0	1.0	n/a	ITI
149161	500	n/a	-1	-1	500	0.0	fixation	poldrack-single-stim	75	217835	0.0-7.34-0.34	beast_fmri_test	275	217544,/	t	<div class = centerbox2><div class = fixation>+</div></div>	none	500.0	test	n/a	n/a	n/a	n/a	n/a	n/a	n/a	n/a	n/a	n/a	n/a	n/a	n/a	n/a	n/a	n/a	n/a	n/a	fixation
147958.24957885424	2750	n/a	647	71	2750	1201.75042115	stim	stop-signal	76	220584	0.0-7.34-1.34	beast_fmri_test	275	218221,/,218899,/,219578,/,220259,/,220939,/,221619,/	t,t,t,t,t,t	<img class = center src='/static/experiments/beast_fmri_test/images/T.png'></img>	89,71	2750.0	test	<img class = center src='/static/experiments/beast_fmri_test/images/redT.png'></img>	go	2250.0	2.0	34.0	go	non-target	T	89,Middle Finger	71,Index Finger	400.0	500.0	2300.0	2250.0	1.0	500.0	1.0	n/a	go_stim
150708.24957885424	1201.7504211457708	n/a	647	71	2750	1201.75042115	stim	stop-signal	76	220584	0.0-7.34-1.34	beast_fmri_test	275	218221,/,218899,/,219578,/,220259,/,220939,/,221619,/	t,t,t,t,t,t	<img class = center src='/static/experiments/beast_fmri_test/images/T.png'></img>	89,71	2750.0	test	<img class = center src='/static/experiments/beast_fmri_test/images/redT.png'></img>	go	2250.0	2.0	34.0	go	non-target	T	89,Middle Finger	71,Index Finger	400.0	500.0	2300.0	2250.0	1.0	500.0	1.0	n/a	ITI
153624	500	n/a	-1	-1	500	0.0	fixation	poldrack-single-stim	77	222298	0.0-7.35-0.35	beast_fmri_test	275	n/a	n/a	<div class = centerbox2><div class = fixation>+</div></div>	none	500.0	test	n/a	n/a	n/a	n/a	n/a	n/a	n/a	n/a	n/a	n/a	n/a	n/a	n/a	n/a	n/a	n/a	n/a	n/a	fixation
150812.2887238304	2750	n/a	697	71	2750	2814.71127617	stim	stop-signal	78	225051	0.0-7.35-1.35	beast_fmri_test	275	222300,/,222980,/,223659,/,224339,/,225019,/,225699,/,226379,/,227060,/,227739,/	t,t,t,t,t,t,t,t,t	<img class = center src='/static/experiments/beast_fmri_test/images/V.png'></img>	89,71	2750.0	test	<img class = center src='/static/experiments/beast_fmri_test/images/redV.png'></img>	go	2350.0	2.0	35.0	go	target	V	89,Middle Finger	71,Index Finger	400.0	500.0	2350.0	2250.0	0.0	400.0	0.0	n/a	go_stim
153562.2887238304	2814.7112761696089	n/a	697	71	2750	2814.71127617	stim	stop-signal	78	225051	0.0-7.35-1.35	beast_fmri_test	275	222300,/,222980,/,223659,/,224339,/,225019,/,225699,/,226379,/,227060,/,227739,/	t,t,t,t,t,t,t,t,t	<img class = center src='/static/experiments/beast_fmri_test/images/V.png'></img>	89,71	2750.0	test	<img class = center src='/static/experiments/beast_fmri_test/images/redV.png'></img>	go	2350.0	2.0	35.0	go	target	V	89,Middle Finger	71,Index Finger	400.0	500.0	2350.0	2250.0	0.0	400.0	0.0	n/a	ITI
159700	500	n/a	-1	-1	500	0.0	fixation	poldrack-single-stim	79	228374	0.0-7.36-0.36	beast_fmri_test	275	n/a	n/a	<div class = centerbox2><div class = fixation>+</div></div>	none	500.0	test	n/a	n/a	n/a	n/a	n/a	n/a	n/a	n/a	n/a	n/a	n/a	n/a	n/a	n/a	n/a	n/a	n/a	n/a	fixation
156908.36170861596	2750	n/a	619	71	2750	2793.63829138	stim	stop-signal	80	231126	0.0-7.36-1.36	beast_fmri_test	275	228415,/,229094,/,229774,/,230454,/,231136,/,231814,/,232495,/,233174,/,233854,/	t,t,t,t,t,t,t,t,t	<img class = center src='/static/experiments/beast_fmri_test/images/P.png'></img>	89,71	2750.0	test	<img class = center src='/static/experiments/beast_fmri_test/images/redP.png'></img>	go	2250.0	2.0	36.0	go	non-target	P	89,Middle Finger	71,Index Finger	400.0	500.0	2350.0	2250.0	1.0	500.0	1.0	n/a	go_stim
159658.36170861596	2793.6382913840416	n/a	619	71	2750	2793.63829138	stim	stop-signal	80	231126	0.0-7.36-1.36	beast_fmri_test	275	228415,/,229094,/,229774,/,230454,/,231136,/,231814,/,232495,/,233174,/,233854,/	t,t,t,t,t,t,t,t,t	<img class = center src='/static/experiments/beast_fmri_test/images/P.png'></img>	89,71	2750.0	test	<img class = center src='/static/experiments/beast_fmri_test/images/redP.png'></img>	go	2250.0	2.0	36.0	go	non-target	P	89,Middle Finger	71,Index Finger	400.0	500.0	2350.0	2250.0	1.0	500.0	1.0	n/a	ITI
165758	500	n/a	-1	-1	500	0.0	fixation	poldrack-single-stim	81	234432	0.0-7.37-0.37	beast_fmri_test	275	n/a	n/a	<div class = centerbox2><div class = fixation>+</div></div>	none	500.0	test	n/a	n/a	n/a	n/a	n/a	n/a	n/a	n/a	n/a	n/a	n/a	n/a	n/a	n/a	n/a	n/a	n/a	n/a	fixation
164688.3631223476	2750	n/a	876	89	2750	1071.63687765	stim	stop-signal	82	237184	0.0-7.37-1.37	beast_fmri_test	275	234534,/,235214,/,235894,/,236574,/,237254,/,237933,/	t,t,t,t,t,t	<img class = center src='/static/experiments/beast_fmri_test/images/V.png'></img>	89,71	2750.0	test	<img class = center src='/static/experiments/beast_fmri_test/images/redV.png'></img>	go	2350.0	2.0	37.0	go	target	V	89,Middle Finger	71,Index Finger	400.0	500.0	2350.0	2250.0	1.0	400.0	1.0	n/a	go_stim
167438.3631223476	1071.6368776524087	n/a	876	89	2750	1071.63687765	stim	stop-signal	82	237184	0.0-7.37-1.37	beast_fmri_test	275	234534,/,235214,/,235894,/,236574,/,237254,/,237933,/	t,t,t,t,t,t	<img class = center src='/static/experiments/beast_fmri_test/images/V.png'></img>	89,71	2750.0	test	<img class = center src='/static/experiments/beast_fmri_test/images/redV.png'></img>	go	2350.0	2.0	37.0	go	target	V	89,Middle Finger	71,Index Finger	400.0	500.0	2350.0	2250.0	1.0	400.0	1.0	n/a	ITI
170090	500	n/a	-1	-1	500	0.0	fixation	poldrack-single-stim	83	238764	0.0-7.38-0.38	beast_fmri_test	275	238610,/	t	<div class = centerbox2><div class = fixation>+</div></div>	none	500.0	test	n/a	n/a	n/a	n/a	n/a	n/a	n/a	n/a	n/a	n/a	n/a	n/a	n/a	n/a	n/a	n/a	n/a	n/a	fixation
169590.65924156902	500.0	n/a	949	71	2750	500.340758431	stim	stop-signal	84	241515	0.0-7.38-1.38	beast_fmri_test	275	239290,/,239969,/,240650,/,241329,/,242009,/	t,t,t,t,t	<img class = center src='/static/experiments/beast_fmri_test/images/V.png'></img>	89,71	2750.0	test	<img class = center src='/static/experiments/beast_fmri_test/images/redV.png'></img>	stop	2250.0	2.0	38.0	stop	non-target	V	89,Middle Finger	71,Index Finger	400.0	500.0	2350.0	2250.0	0.0	500.0	n/a	0.0	go_stim
171840.65924156902	2250.0	n/a	949	71	2750	500.340758431	stim	stop-signal	84	241515	0.0-7.38-1.38	beast_fmri_test	275	239290,/,239969,/,240650,/,241329,/,242009,/	t,t,t,t,t	<img class = center src='/static/experiments/beast_fmri_test/images/V.png'></img>	89,71	2750.0	test	<img class = center src='/static/experiments/beast_fmri_test/images/redV.png'></img>	stop	2250.0	2.0	38.0	stop	non-target	V	89,Middle Finger	71,Index Finger	400.0	500.0	2350.0	2250.0	0.0	500.0	n/a	0.0	stop_stim
172340.65924156902	500.34075843097082	n/a	949	71	2750	500.340758431	stim	stop-signal	84	241515	0.0-7.38-1.38	beast_fmri_test	275	239290,/,239969,/,240650,/,241329,/,242009,/	t,t,t,t,t	<img class = center src='/static/experiments/beast_fmri_test/images/V.png'></img>	89,71	2750.0	test	<img class = center src='/static/experiments/beast_fmri_test/images/redV.png'></img>	stop	2250.0	2.0	38.0	stop	non-target	V	89,Middle Finger	71,Index Finger	400.0	500.0	2350.0	2250.0	0.0	500.0	n/a	0.0	ITI
173854	500	n/a	-1	-1	500	0.0	fixation	poldrack-single-stim	85	242528	0.0-7.39-0.39	beast_fmri_test	275	n/a	n/a	<div class = centerbox2><div class = fixation>+</div></div>	none	500.0	test	n/a	n/a	n/a	n/a	n/a	n/a	n/a	n/a	n/a	n/a	n/a	n/a	n/a	n/a	n/a	n/a	n/a	n/a	fixation
172823.26123844431	2750	n/a	536	71	2750	1029.73876156	stim	stop-signal	86	245277	0.0-7.39-1.39	beast_fmri_test	275	242689,/,243365,/,244044,/,244724,/,245404,/,246084,/	t,t,t,t,t,t	<img class = center src='/static/experiments/beast_fmri_test/images/P.png'></img>	89,71	2750.0	test	<img class = center src='/static/experiments/beast_fmri_test/images/redP.png'></img>	go	2300.0	2.0	39.0	go	non-target	P	89,Middle Finger	71,Index Finger	400.0	450.0	2350.0	2300.0	1.0	450.0	1.0	n/a	go_stim
175573.26123844431	1029.7387615556875	n/a	536	71	2750	1029.73876156	stim	stop-signal	86	245277	0.0-7.39-1.39	beast_fmri_test	275	242689,/,243365,/,244044,/,244724,/,245404,/,246084,/	t,t,t,t,t,t	<img class = center src='/static/experiments/beast_fmri_test/images/P.png'></img>	89,71	2750.0	test	<img class = center src='/static/experiments/beast_fmri_test/images/redP.png'></img>	go	2300.0	2.0	39.0	go	non-target	P	89,Middle Finger	71,Index Finger	400.0	450.0	2350.0	2300.0	1.0	450.0	1.0	n/a	ITI
178145	500	n/a	-1	-1	500	0.0	fixation	poldrack-single-stim	87	246819	0.0-7.40-0.40	beast_fmri_test	275	246764,/	t	<div class = centerbox2><div class = fixation>+</div></div>	none	500.0	test	n/a	n/a	n/a	n/a	n/a	n/a	n/a	n/a	n/a	n/a	n/a	n/a	n/a	n/a	n/a	n/a	n/a	n/a	fixation
177214.46010507937	2750	n/a	1267	71	2750	934.539894921	stim	stop-signal	88	249573	0.0-7.40-1.40	beast_fmri_test	275	247445,/,248125,/,248805,/,249486,/,250165,/	t,t,t,t,t	<img class = center src='/static/experiments/beast_fmri_test/images/B.png'></img>	89,71	2750.0	test	<img class = center src='/static/experiments/beast_fmri_test/images/redB.png'></img>	go	2300.0	2.0	40.0	go	non-target	B	89,Middle Finger	71,Index Finger	400.0	450.0	2350.0	2300.0	1.0	450.0	1.0	n/a	go_stim
179964.46010507937	934.53989492063783	n/a	1267	71	2750	934.539894921	stim	stop-signal	88	249573	0.0-7.40-1.40	beast_fmri_test	275	247445,/,248125,/,248805,/,249486,/,250165,/	t,t,t,t,t	<img class = center src='/static/experiments/beast_fmri_test/images/B.png'></img>	89,71	2750.0	test	<img class = center src='/static/experiments/beast_fmri_test/images/redB.png'></img>	go	2300.0	2.0	40.0	go	non-target	B	89,Middle Finger	71,Index Finger	400.0	450.0	2350.0	2300.0	1.0	450.0	1.0	n/a	ITI
182349	500	n/a	-1	-1	500	0.0	fixation	poldrack-single-stim	89	251023	0.0-7.41-0.41	beast_fmri_test	275	250846,/	t	<div class = centerbox2><div class = fixation>+</div></div>	none	500.0	test	n/a	n/a	n/a	n/a	n/a	n/a	n/a	n/a	n/a	n/a	n/a	n/a	n/a	n/a	n/a	n/a	n/a	n/a	fixation
181775.22707561473	400.0	n/a	616	89	2750	576.772924385	stim	stop-signal	90	253776	0.0-7.41-1.41	beast_fmri_test	275	251527,/,252205,/,252885,/,253565,/,254245,/	t,t,t,t,t	<img class = center src='/static/experiments/beast_fmri_test/images/P.png'></img>	89,71	2750.0	test	<img class = center src='/static/experiments/beast_fmri_test/images/redP.png'></img>	stop	2350.0	2.0	41.0	stop	target	P	89,Middle Finger	71,Index Finger	400.0	450.0	2350.0	2300.0	0.0	400.0	n/a	0.0	go_stim
184125.22707561473	2350.0	n/a	616	89	2750	576.772924385	stim	stop-signal	90	253776	0.0-7.41-1.41	beast_fmri_test	275	251527,/,252205,/,252885,/,253565,/,254245,/	t,t,t,t,t	<img class = center src='/static/experiments/beast_fmri_test/images/P.png'></img>	89,71	2750.0	test	<img class = center src='/static/experiments/beast_fmri_test/images/redP.png'></img>	stop	2350.0	2.0	41.0	stop	target	P	89,Middle Finger	71,Index Finger	400.0	450.0	2350.0	2300.0	0.0	400.0	n/a	0.0	stop_stim
184525.22707561473	576.77292438525853	n/a	616	89	2750	576.772924385	stim	stop-signal	90	253776	0.0-7.41-1.41	beast_fmri_test	275	251527,/,252205,/,252885,/,253565,/,254245,/	t,t,t,t,t	<img class = center src='/static/experiments/beast_fmri_test/images/P.png'></img>	89,71	2750.0	test	<img class = center src='/static/experiments/beast_fmri_test/images/redP.png'></img>	stop	2350.0	2.0	41.0	stop	target	P	89,Middle Finger	71,Index Finger	400.0	450.0	2350.0	2300.0	0.0	400.0	n/a	0.0	ITI
186194	500	n/a	-1	-1	500	0.0	fixation	poldrack-single-stim	91	254868	0.0-7.42-0.42	beast_fmri_test	275	n/a	n/a	<div class = centerbox2><div class = fixation>+</div></div>	none	500.0	test	n/a	n/a	n/a	n/a	n/a	n/a	n/a	n/a	n/a	n/a	n/a	n/a	n/a	n/a	n/a	n/a	n/a	n/a	fixation
185939.92848613334	2750	n/a	749	71	2750	255.071513867	stim	stop-signal	92	257619	0.0-7.42-1.42	beast_fmri_test	275	254925,/,255607,/,256287,/,256965,/,257644,/	t,t,t,t,t	<img class = center src='/static/experiments/beast_fmri_test/images/T.png'></img>	89,71	2750.0	test	<img class = center src='/static/experiments/beast_fmri_test/images/redT.png'></img>	go	2300.0	2.0	42.0	go	non-target	T	89,Middle Finger	71,Index Finger	350.0	450.0	2350.0	2300.0	1.0	450.0	1.0	n/a	go_stim
188689.92848613334	255.07151386665075	n/a	749	71	2750	255.071513867	stim	stop-signal	92	257619	0.0-7.42-1.42	beast_fmri_test	275	254925,/,255607,/,256287,/,256965,/,257644,/	t,t,t,t,t	<img class = center src='/static/experiments/beast_fmri_test/images/T.png'></img>	89,71	2750.0	test	<img class = center src='/static/experiments/beast_fmri_test/images/redT.png'></img>	go	2300.0	2.0	42.0	go	non-target	T	89,Middle Finger	71,Index Finger	350.0	450.0	2350.0	2300.0	1.0	450.0	1.0	n/a	ITI
189714	500	n/a	-1	-1	500	0.0	fixation	poldrack-single-stim	93	258388	0.0-7.43-0.43	beast_fmri_test	275	258321,/	t	<div class = centerbox2><div class = fixation>+</div></div>	none	500.0	test	n/a	n/a	n/a	n/a	n/a	n/a	n/a	n/a	n/a	n/a	n/a	n/a	n/a	n/a	n/a	n/a	n/a	n/a	fixation
189161.53341550491	2750	n/a	584	71	2750	554.466584495	stim	stop-signal	94	261140	0.0-7.43-1.43	beast_fmri_test	275	259000,/,259681,/,260361,/,261040,/	t,t,t,t	<img class = center src='/static/experiments/beast_fmri_test/images/D.png'></img>	89,71	2750.0	test	<img class = center src='/static/experiments/beast_fmri_test/images/redD.png'></img>	go	2300.0	2.0	43.0	go	non-target	D	89,Middle Finger	71,Index Finger	350.0	450.0	2350.0	2300.0	1.0	450.0	1.0	n/a	go_stim
191911.53341550491	554.46658449510403	n/a	584	71	2750	554.466584495	stim	stop-signal	94	261140	0.0-7.43-1.43	beast_fmri_test	275	259000,/,259681,/,260361,/,261040,/	t,t,t,t	<img class = center src='/static/experiments/beast_fmri_test/images/D.png'></img>	89,71	2750.0	test	<img class = center src='/static/experiments/beast_fmri_test/images/redD.png'></img>	go	2300.0	2.0	43.0	go	non-target	D	89,Middle Finger	71,Index Finger	350.0	450.0	2350.0	2300.0	1.0	450.0	1.0	n/a	ITI
193535	500	n/a	-1	-1	500	0.0	fixation	poldrack-single-stim	95	262209	0.0-7.44-0.44	beast_fmri_test	275	261720,/	t	<div class = centerbox2><div class = fixation>+</div></div>	none	500.0	test	n/a	n/a	n/a	n/a	n/a	n/a	n/a	n/a	n/a	n/a	n/a	n/a	n/a	n/a	n/a	n/a	n/a	n/a	fixation
193012.48283434479	450.0	n/a	620	71	2750	525.517165655	stim	stop-signal	96	264962	0.0-7.44-1.44	beast_fmri_test	275	262401,/,263081,/,263760,/,264441,/,265120,/	t,t,t,t,t	<img class = center src='/static/experiments/beast_fmri_test/images/V.png'></img>	89,71	2750.0	test	<img class = center src='/static/experiments/beast_fmri_test/images/redV.png'></img>	stop	2300.0	2.0	44.0	stop	non-target	V	89,Middle Finger	71,Index Finger	350.0	450.0	2350.0	2300.0	0.0	450.0	n/a	0.0	go_stim
195312.48283434479	2300.0	n/a	620	71	2750	525.517165655	stim	stop-signal	96	264962	0.0-7.44-1.44	beast_fmri_test	275	262401,/,263081,/,263760,/,264441,/,265120,/	t,t,t,t,t	<img class = center src='/static/experiments/beast_fmri_test/images/V.png'></img>	89,71	2750.0	test	<img class = center src='/static/experiments/beast_fmri_test/images/redV.png'></img>	stop	2300.0	2.0	44.0	stop	non-target	V	89,Middle Finger	71,Index Finger	350.0	450.0	2350.0	2300.0	0.0	450.0	n/a	0.0	stop_stim
195762.48283434479	525.51716565522247	n/a	620	71	2750	525.517165655	stim	stop-signal	96	264962	0.0-7.44-1.44	beast_fmri_test	275	262401,/,263081,/,263760,/,264441,/,265120,/	t,t,t,t,t	<img class = center src='/static/experiments/beast_fmri_test/images/V.png'></img>	89,71	2750.0	test	<img class = center src='/static/experiments/beast_fmri_test/images/redV.png'></img>	stop	2300.0	2.0	44.0	stop	non-target	V	89,Middle Finger	71,Index Finger	350.0	450.0	2350.0	2300.0	0.0	450.0	n/a	0.0	ITI
197331	500	n/a	-1	-1	500	0.0	fixation	poldrack-single-stim	97	266005	0.0-7.45-0.45	beast_fmri_test	275	265800,/	t	<div class = centerbox2><div class = fixation>+</div></div>	none	500.0	test	n/a	n/a	n/a	n/a	n/a	n/a	n/a	n/a	n/a	n/a	n/a	n/a	n/a	n/a	n/a	n/a	n/a	n/a	fixation
195401.88336263306	2750	n/a	1023	71	2750	1932.11663737	stim	stop-signal	98	268758	0.0-7.45-1.45	beast_fmri_test	275	266480,/,267160,/,267840,/,268520,/,269200,/,269880,/,270560,/	t,t,t,t,t,t,t	<img class = center src='/static/experiments/beast_fmri_test/images/V.png'></img>	89,71	2750.0	test	<img class = center src='/static/experiments/beast_fmri_test/images/redV.png'></img>	go	2350.0	2.0	45.0	go	non-target	V	89,Middle Finger	71,Index Finger	350.0	400.0	2350.0	2350.0	1.0	400.0	1.0	n/a	go_stim
198151.88336263306	1932.1166373669569	n/a	1023	71	2750	1932.11663737	stim	stop-signal	98	268758	0.0-7.45-1.45	beast_fmri_test	275	266480,/,267160,/,267840,/,268520,/,269200,/,269880,/,270560,/	t,t,t,t,t,t,t	<img class = center src='/static/experiments/beast_fmri_test/images/V.png'></img>	89,71	2750.0	test	<img class = center src='/static/experiments/beast_fmri_test/images/redV.png'></img>	go	2350.0	2.0	45.0	go	non-target	V	89,Middle Finger	71,Index Finger	350.0	400.0	2350.0	2350.0	1.0	400.0	1.0	n/a	ITI
202533	500	n/a	-1	-1	500	0.0	fixation	poldrack-single-stim	99	271207	0.0-7.46-0.46	beast_fmri_test	275	n/a	n/a	<div class = centerbox2><div class = fixation>+</div></div>	none	500.0	test	n/a	n/a	n/a	n/a	n/a	n/a	n/a	n/a	n/a	n/a	n/a	n/a	n/a	n/a	n/a	n/a	n/a	n/a	fixation
202403.50727874262	2750	n/a	903	71	2750	132.492721257	stim	stop-signal	100	273960	0.0-7.46-1.46	beast_fmri_test	275	271240,/,271920,/,272600,/,273281,/,273962,/	t,t,t,t,t	<img class = center src='/static/experiments/beast_fmri_test/images/B.png'></img>	89,71	2750.0	test	<img class = center src='/static/experiments/beast_fmri_test/images/redB.png'></img>	go	2350.0	2.0	46.0	go	non-target	B	89,Middle Finger	71,Index Finger	350.0	400.0	2350.0	2350.0	1.0	400.0	1.0	n/a	go_stim
205153.50727874262	132.49272125739392	n/a	903	71	2750	132.492721257	stim	stop-signal	100	273960	0.0-7.46-1.46	beast_fmri_test	275	271240,/,271920,/,272600,/,273281,/,273962,/	t,t,t,t,t	<img class = center src='/static/experiments/beast_fmri_test/images/B.png'></img>	89,71	2750.0	test	<img class = center src='/static/experiments/beast_fmri_test/images/redB.png'></img>	go	2350.0	2.0	46.0	go	non-target	B	89,Middle Finger	71,Index Finger	350.0	400.0	2350.0	2350.0	1.0	400.0	1.0	n/a	ITI
220423	15000	n/a	-1	-1	15000	0.0	practice-no-stop-feedback	poldrack-single-stim	101	289097	0.0-8.0	beast_fmri_test	275	274642,/,275321,/,276001,/,276681,/,277361,/,278038,/,278717,/,279396,/,280078,/,280756,/,281436,/,282117,/,282796,/,283478,/,284158,/,284836,/,285517,/,286197,/,286878,/,287556,/,288234,/,288912,/	t,t,t,t,t,t,t,t,t,t,t,t,t,t,t,t,t,t,t,t,t,t	"<div class = ""centerbox""><p class = ""block-text"">Your delay is 3 trials.</p><p class = block-text>Please wait for the scanner to start the block</p></div>"	77	15000.0	n/a	n/a	n/a	n/a	n/a	n/a	n/a	n/a	n/a	n/a	n/a	n/a	n/a	n/a	n/a	n/a	n/a	n/a	n/a	practice-no-stop-feedback
220925	500	n/a	-1	-1	500	0.0	fixation	poldrack-single-stim	102	289599	0.0-9.0-0.0	beast_fmri_test	275	289592,/	t	<div class = centerbox2><div class = fixation>+</div></div>	none	500.0	test	n/a	n/a	n/a	n/a	n/a	n/a	n/a	n/a	n/a	n/a	n/a	n/a	n/a	n/a	n/a	n/a	n/a	n/a	fixation
219335.31750785455	2750	n/a	1084	71	2750	1591.68249215	stim	stop-signal	103	292351	0.0-9.0-1.0	beast_fmri_test	275	290271,/,290951,/,291631,/,292311,/,292991,/,293672,/	t,t,t,t,t,t	<img class = center src='/static/experiments/beast_fmri_test/images/D.png'></img>	89,71	2750.0	test	<img class = center src='/static/experiments/beast_fmri_test/images/redD.png'></img>	go	-1.0	3.0	0.0	go	temp-non-target	D	89,Middle Finger	71,Index Finger	350.0	400.0	2350.0	2350.0	0.0	n/a	n/a	n/a	go_stim
222085.31750785455	1591.6824921454684	n/a	1084	71	2750	1591.68249215	stim	stop-signal	103	292351	0.0-9.0-1.0	beast_fmri_test	275	290271,/,290951,/,291631,/,292311,/,292991,/,293672,/	t,t,t,t,t,t	<img class = center src='/static/experiments/beast_fmri_test/images/D.png'></img>	89,71	2750.0	test	<img class = center src='/static/experiments/beast_fmri_test/images/redD.png'></img>	go	-1.0	3.0	0.0	go	temp-non-target	D	89,Middle Finger	71,Index Finger	350.0	400.0	2350.0	2350.0	0.0	n/a	n/a	n/a	ITI
225787	500	n/a	-1	-1	500	0.0	fixation	poldrack-single-stim	104	294461	0.0-9.1-0.1	beast_fmri_test	275	294352,/	t	<div class = centerbox2><div class = fixation>+</div></div>	none	500.0	test	n/a	n/a	n/a	n/a	n/a	n/a	n/a	n/a	n/a	n/a	n/a	n/a	n/a	n/a	n/a	n/a	n/a	n/a	fixation
224221.64525091863	2750	n/a	843	71	2750	1567.35474908	stim	stop-signal	105	297213	0.0-9.1-1.1	beast_fmri_test	275	295031,/,295712,/,296393,/,297071,/,297750,/,298428,/	t,t,t,t,t,t	<img class = center src='/static/experiments/beast_fmri_test/images/D.png'></img>	89,71	2750.0	test	<img class = center src='/static/experiments/beast_fmri_test/images/redD.png'></img>	go	-1.0	3.0	1.0	go	temp-non-target	D	89,Middle Finger	71,Index Finger	350.0	400.0	2350.0	2350.0	0.0	n/a	n/a	n/a	go_stim
226971.64525091863	1567.3547490813417	n/a	843	71	2750	1567.35474908	stim	stop-signal	105	297213	0.0-9.1-1.1	beast_fmri_test	275	295031,/,295712,/,296393,/,297071,/,297750,/,298428,/	t,t,t,t,t,t	<img class = center src='/static/experiments/beast_fmri_test/images/D.png'></img>	89,71	2750.0	test	<img class = center src='/static/experiments/beast_fmri_test/images/redD.png'></img>	go	-1.0	3.0	1.0	go	temp-non-target	D	89,Middle Finger	71,Index Finger	350.0	400.0	2350.0	2350.0	0.0	n/a	n/a	n/a	ITI
230614	500	n/a	-1	-1	500	0.0	fixation	poldrack-single-stim	106	299288	0.0-9.2-0.2	beast_fmri_test	275	299107,/	t	<div class = centerbox2><div class = fixation>+</div></div>	none	500.0	test	n/a	n/a	n/a	n/a	n/a	n/a	n/a	n/a	n/a	n/a	n/a	n/a	n/a	n/a	n/a	n/a	n/a	n/a	fixation
230075.64506982913	temp_go_duration	n/a	544	71	2750	539.354930171	stim	stop-signal	107	302039	0.0-9.2-1.2	beast_fmri_test	275	299787,/,300466,/,301146,/,301826,/,302506,/	t,t,t,t,t	<img class = center src='/static/experiments/beast_fmri_test/images/V.png'></img>	89,71	2750.0	test	<img class = center src='/static/experiments/beast_fmri_test/images/redV.png'></img>	stop	-1.0	3.0	2.0	stop	temp-non-target	V	89,Middle Finger	71,Index Finger	350.0	400.0	2350.0	2350.0	0.0	n/a	n/a	0.0	go_stim
temp-non-target	temp_stop_duration	n/a	544	71	2750	539.354930171	stim	stop-signal	107	302039	0.0-9.2-1.2	beast_fmri_test	275	299787,/,300466,/,301146,/,301826,/,302506,/	t,t,t,t,t	<img class = center src='/static/experiments/beast_fmri_test/images/V.png'></img>	89,71	2750.0	test	<img class = center src='/static/experiments/beast_fmri_test/images/redV.png'></img>	stop	-1.0	3.0	2.0	stop	temp-non-target	V	89,Middle Finger	71,Index Finger	350.0	400.0	2350.0	2350.0	0.0	n/a	n/a	0.0	stop_stim
232825.64506982913	539.35493017088345	n/a	544	71	2750	539.354930171	stim	stop-signal	107	302039	0.0-9.2-1.2	beast_fmri_test	275	299787,/,300466,/,301146,/,301826,/,302506,/	t,t,t,t,t	<img class = center src='/static/experiments/beast_fmri_test/images/V.png'></img>	89,71	2750.0	test	<img class = center src='/static/experiments/beast_fmri_test/images/redV.png'></img>	stop	-1.0	3.0	2.0	stop	temp-non-target	V	89,Middle Finger	71,Index Finger	350.0	400.0	2350.0	2350.0	0.0	n/a	n/a	0.0	ITI
234422	500	n/a	-1	-1	500	0.0	fixation	poldrack-single-stim	108	303096	0.0-9.3-0.3	beast_fmri_test	275	n/a	n/a	<div class = centerbox2><div class = fixation>+</div></div>	none	500.0	test	n/a	n/a	n/a	n/a	n/a	n/a	n/a	n/a	n/a	n/a	n/a	n/a	n/a	n/a	n/a	n/a	n/a	n/a	fixation
233008.55849742744	2750	n/a	674	71	2750	1416.44150257	stim	stop-signal	109	305849	0.0-9.3-1.3	beast_fmri_test	275	303187,/,303868,/,304546,/,305227,/,305907,/,306589,/	t,t,t,t,t,t	<img class = center src='/static/experiments/beast_fmri_test/images/B.png'></img>	89,71	2750.0	test	<img class = center src='/static/experiments/beast_fmri_test/images/redB.png'></img>	go	2350.0	3.0	3.0	go	non-target	B	89,Middle Finger	71,Index Finger	350.0	400.0	2350.0	2350.0	1.0	400.0	1.0	n/a	go_stim
235758.55849742744	1416.4415025725596	n/a	674	71	2750	1416.44150257	stim	stop-signal	109	305849	0.0-9.3-1.3	beast_fmri_test	275	303187,/,303868,/,304546,/,305227,/,305907,/,306589,/	t,t,t,t,t,t	<img class = center src='/static/experiments/beast_fmri_test/images/B.png'></img>	89,71	2750.0	test	<img class = center src='/static/experiments/beast_fmri_test/images/redB.png'></img>	go	2350.0	3.0	3.0	go	non-target	B	89,Middle Finger	71,Index Finger	350.0	400.0	2350.0	2350.0	1.0	400.0	1.0	n/a	ITI
239108	500	n/a	-1	-1	500	0.0	fixation	poldrack-single-stim	110	307782	0.0-9.4-0.4	beast_fmri_test	275	307281,/	t	<div class = centerbox2><div class = fixation>+</div></div>	none	500.0	test	n/a	n/a	n/a	n/a	n/a	n/a	n/a	n/a	n/a	n/a	n/a	n/a	n/a	n/a	n/a	n/a	n/a	n/a	fixation
237292.6387208908	2750	n/a	1173	71	2750	1813.36127911	stim	stop-signal	111	310530	0.0-9.4-1.4	beast_fmri_test	275	307946,/,308622,/,309302,/,309982,/,310663,/,311343,/,312023,/	t,t,t,t,t,t,t	<img class = center src='/static/experiments/beast_fmri_test/images/B.png'></img>	89,71	2750.0	test	<img class = center src='/static/experiments/beast_fmri_test/images/redB.png'></img>	go	2350.0	3.0	4.0	go	non-target	B	89,Middle Finger	71,Index Finger	350.0	400.0	2350.0	2350.0	1.0	400.0	1.0	n/a	go_stim
240042.6387208908	1813.3612791091903	n/a	1173	71	2750	1813.36127911	stim	stop-signal	111	310530	0.0-9.4-1.4	beast_fmri_test	275	307946,/,308622,/,309302,/,309982,/,310663,/,311343,/,312023,/	t,t,t,t,t,t,t	<img class = center src='/static/experiments/beast_fmri_test/images/B.png'></img>	89,71	2750.0	test	<img class = center src='/static/experiments/beast_fmri_test/images/redB.png'></img>	go	2350.0	3.0	4.0	go	non-target	B	89,Middle Finger	71,Index Finger	350.0	400.0	2350.0	2350.0	1.0	400.0	1.0	n/a	ITI
244186	500	n/a	-1	-1	500	0.0	fixation	poldrack-single-stim	112	312860	0.0-9.5-0.5	beast_fmri_test	275	312702,/	t	<div class = centerbox2><div class = fixation>+</div></div>	none	500.0	test	n/a	n/a	n/a	n/a	n/a	n/a	n/a	n/a	n/a	n/a	n/a	n/a	n/a	n/a	n/a	n/a	n/a	n/a	fixation
244081.60405508382	350.0	n/a	586	89	2750	104.395944916	stim	stop-signal	113	315610	0.0-9.5-1.5	beast_fmri_test	275	313378,/,314057,/,314737,/,315418,/	t,t,t,t	<img class = center src='/static/experiments/beast_fmri_test/images/V.png'></img>	89,71	2750.0	test	<img class = center src='/static/experiments/beast_fmri_test/images/redV.png'></img>	stop	2400.0	3.0	5.0	stop	target	V	89,Middle Finger	71,Index Finger	350.0	400.0	2400.0	2350.0	0.0	350.0	n/a	0.0	go_stim
246481.60405508382	2400.0	n/a	586	89	2750	104.395944916	stim	stop-signal	113	315610	0.0-9.5-1.5	beast_fmri_test	275	313378,/,314057,/,314737,/,315418,/	t,t,t,t	<img class = center src='/static/experiments/beast_fmri_test/images/V.png'></img>	89,71	2750.0	test	<img class = center src='/static/experiments/beast_fmri_test/images/redV.png'></img>	stop	2400.0	3.0	5.0	stop	target	V	89,Middle Finger	71,Index Finger	350.0	400.0	2400.0	2350.0	0.0	350.0	n/a	0.0	stop_stim
246831.60405508382	104.39594491615691	n/a	586	89	2750	104.395944916	stim	stop-signal	113	315610	0.0-9.5-1.5	beast_fmri_test	275	313378,/,314057,/,314737,/,315418,/	t,t,t,t	<img class = center src='/static/experiments/beast_fmri_test/images/V.png'></img>	89,71	2750.0	test	<img class = center src='/static/experiments/beast_fmri_test/images/redV.png'></img>	stop	2400.0	3.0	5.0	stop	target	V	89,Middle Finger	71,Index Finger	350.0	400.0	2400.0	2350.0	0.0	350.0	n/a	0.0	ITI
247555	500	n/a	-1	-1	500	0.0	fixation	poldrack-single-stim	114	316229	0.0-9.6-0.6	beast_fmri_test	275	316097,/	t	<div class = centerbox2><div class = fixation>+</div></div>	none	500.0	test	n/a	n/a	n/a	n/a	n/a	n/a	n/a	n/a	n/a	n/a	n/a	n/a	n/a	n/a	n/a	n/a	n/a	n/a	fixation
246598.4286516257	400.0	n/a	675	71	2750	960.571348374	stim	stop-signal	115	318983	0.0-9.6-1.6	beast_fmri_test	275	316777,/,317457,/,318137,/,318817,/,319497,/	t,t,t,t,t	<img class = center src='/static/experiments/beast_fmri_test/images/T.png'></img>	89,71	2750.0	test	<img class = center src='/static/experiments/beast_fmri_test/images/redT.png'></img>	stop	2350.0	3.0	6.0	stop	non-target	T	89,Middle Finger	71,Index Finger	300.0	400.0	2400.0	2350.0	0.0	400.0	n/a	0.0	go_stim
248948.4286516257	2350.0	n/a	675	71	2750	960.571348374	stim	stop-signal	115	318983	0.0-9.6-1.6	beast_fmri_test	275	316777,/,317457,/,318137,/,318817,/,319497,/	t,t,t,t,t	<img class = center src='/static/experiments/beast_fmri_test/images/T.png'></img>	89,71	2750.0	test	<img class = center src='/static/experiments/beast_fmri_test/images/redT.png'></img>	stop	2350.0	3.0	6.0	stop	non-target	T	89,Middle Finger	71,Index Finger	300.0	400.0	2400.0	2350.0	0.0	400.0	n/a	0.0	stop_stim
249348.4286516257	960.57134837432636	n/a	675	71	2750	960.571348374	stim	stop-signal	115	318983	0.0-9.6-1.6	beast_fmri_test	275	316777,/,317457,/,318137,/,318817,/,319497,/	t,t,t,t,t	<img class = center src='/static/experiments/beast_fmri_test/images/T.png'></img>	89,71	2750.0	test	<img class = center src='/static/experiments/beast_fmri_test/images/redT.png'></img>	stop	2350.0	3.0	6.0	stop	non-target	T	89,Middle Finger	71,Index Finger	300.0	400.0	2400.0	2350.0	0.0	400.0	n/a	0.0	ITI
251785	500	n/a	-1	-1	500	0.0	fixation	poldrack-single-stim	116	320459	0.0-9.7-0.7	beast_fmri_test	275	320179,/	t	<div class = centerbox2><div class = fixation>+</div></div>	none	500.0	test	n/a	n/a	n/a	n/a	n/a	n/a	n/a	n/a	n/a	n/a	n/a	n/a	n/a	n/a	n/a	n/a	n/a	n/a	fixation
251148.97653618088	2750	n/a	518	89	2750	639.023463819	stim	stop-signal	117	323212	0.0-9.7-1.7	beast_fmri_test	275	320857,/,321537,/,322218,/,322897,/,323578,/	t,t,t,t,t	<img class = center src='/static/experiments/beast_fmri_test/images/B.png'></img>	89,71	2750.0	test	<img class = center src='/static/experiments/beast_fmri_test/images/redB.png'></img>	go	2450.0	3.0	7.0	go	target	B	89,Middle Finger	71,Index Finger	300.0	350.0	2450.0	2350.0	1.0	300.0	1.0	n/a	go_stim
253898.97653618088	639.02346381913981	n/a	518	89	2750	639.023463819	stim	stop-signal	117	323212	0.0-9.7-1.7	beast_fmri_test	275	320857,/,321537,/,322218,/,322897,/,323578,/	t,t,t,t,t	<img class = center src='/static/experiments/beast_fmri_test/images/B.png'></img>	89,71	2750.0	test	<img class = center src='/static/experiments/beast_fmri_test/images/redB.png'></img>	go	2450.0	3.0	7.0	go	target	B	89,Middle Finger	71,Index Finger	300.0	350.0	2450.0	2350.0	1.0	300.0	1.0	n/a	ITI
255693	500	n/a	-1	-1	500	0.0	fixation	poldrack-single-stim	118	324367	0.0-9.8-0.8	beast_fmri_test	275	324257,/	t	<div class = centerbox2><div class = fixation>+</div></div>	none	500.0	test	n/a	n/a	n/a	n/a	n/a	n/a	n/a	n/a	n/a	n/a	n/a	n/a	n/a	n/a	n/a	n/a	n/a	n/a	fixation
254333.72677638079	2750	n/a	661	71	2750	1362.27322362	stim	stop-signal	119	327120	0.0-9.8-1.8	beast_fmri_test	275	324939,/,325618,/,326298,/,326978,/,327658,/,328337,/	t,t,t,t,t,t	<img class = center src='/static/experiments/beast_fmri_test/images/B.png'></img>	89,71	2750.0	test	<img class = center src='/static/experiments/beast_fmri_test/images/redB.png'></img>	go	2400.0	3.0	8.0	go	non-target	B	89,Middle Finger	71,Index Finger	300.0	350.0	2450.0	2400.0	1.0	350.0	1.0	n/a	go_stim
257083.72677638079	1362.2732236192226	n/a	661	71	2750	1362.27322362	stim	stop-signal	119	327120	0.0-9.8-1.8	beast_fmri_test	275	324939,/,325618,/,326298,/,326978,/,327658,/,328337,/	t,t,t,t,t,t	<img class = center src='/static/experiments/beast_fmri_test/images/B.png'></img>	89,71	2750.0	test	<img class = center src='/static/experiments/beast_fmri_test/images/redB.png'></img>	go	2400.0	3.0	8.0	go	non-target	B	89,Middle Finger	71,Index Finger	300.0	350.0	2450.0	2400.0	1.0	350.0	1.0	n/a	ITI
260328	500	n/a	-1	-1	500	0.0	fixation	poldrack-single-stim	120	329002	0.0-9.9-0.9	beast_fmri_test	275	n/a	n/a	<div class = centerbox2><div class = fixation>+</div></div>	none	500.0	test	n/a	n/a	n/a	n/a	n/a	n/a	n/a	n/a	n/a	n/a	n/a	n/a	n/a	n/a	n/a	n/a	n/a	n/a	fixation
257997.11333573592	2750	n/a	688	89	2750	2332.88666426	stim	stop-signal	121	331754	0.0-9.9-1.9	beast_fmri_test	275	329017,/,329697,/,330378,/,331057,/,331737,/,332417,/,333099,/,333780,/	t,t,t,t,t,t,t,t	<img class = center src='/static/experiments/beast_fmri_test/images/T.png'></img>	89,71	2750.0	test	<img class = center src='/static/experiments/beast_fmri_test/images/redT.png'></img>	go	2450.0	3.0	9.0	go	target	T	89,Middle Finger	71,Index Finger	300.0	350.0	2450.0	2400.0	1.0	300.0	1.0	n/a	go_stim
260747.11333573592	2332.8866642641074	n/a	688	89	2750	2332.88666426	stim	stop-signal	121	331754	0.0-9.9-1.9	beast_fmri_test	275	329017,/,329697,/,330378,/,331057,/,331737,/,332417,/,333099,/,333780,/	t,t,t,t,t,t,t,t	<img class = center src='/static/experiments/beast_fmri_test/images/T.png'></img>	89,71	2750.0	test	<img class = center src='/static/experiments/beast_fmri_test/images/redT.png'></img>	go	2450.0	3.0	9.0	go	target	T	89,Middle Finger	71,Index Finger	300.0	350.0	2450.0	2400.0	1.0	300.0	1.0	n/a	ITI
265930	500	n/a	-1	-1	500	0.0	fixation	poldrack-single-stim	122	334604	0.0-9.10-0.10	beast_fmri_test	275	334459,/	t	<div class = centerbox2><div class = fixation>+</div></div>	none	500.0	test	n/a	n/a	n/a	n/a	n/a	n/a	n/a	n/a	n/a	n/a	n/a	n/a	n/a	n/a	n/a	n/a	n/a	n/a	fixation
264417.08820225688	350.0	n/a	567	71	2750	1514.91179774	stim	stop-signal	123	337356	0.0-9.10-1.10	beast_fmri_test	275	335139,/,335819,/,336498,/,337179,/,337856,/,338535,/	t,t,t,t,t,t	<img class = center src='/static/experiments/beast_fmri_test/images/D.png'></img>	89,71	2750.0	test	<img class = center src='/static/experiments/beast_fmri_test/images/redD.png'></img>	stop	2400.0	3.0	10.0	stop	non-target	D	89,Middle Finger	71,Index Finger	300.0	350.0	2450.0	2400.0	0.0	350.0	n/a	0.0	go_stim
266817.08820225688	2400.0	n/a	567	71	2750	1514.91179774	stim	stop-signal	123	337356	0.0-9.10-1.10	beast_fmri_test	275	335139,/,335819,/,336498,/,337179,/,337856,/,338535,/	t,t,t,t,t,t	<img class = center src='/static/experiments/beast_fmri_test/images/D.png'></img>	89,71	2750.0	test	<img class = center src='/static/experiments/beast_fmri_test/images/redD.png'></img>	stop	2400.0	3.0	10.0	stop	non-target	D	89,Middle Finger	71,Index Finger	300.0	350.0	2450.0	2400.0	0.0	350.0	n/a	0.0	stop_stim
267167.08820225688	1514.911797743137	n/a	567	71	2750	1514.91179774	stim	stop-signal	123	337356	0.0-9.10-1.10	beast_fmri_test	275	335139,/,335819,/,336498,/,337179,/,337856,/,338535,/	t,t,t,t,t,t	<img class = center src='/static/experiments/beast_fmri_test/images/D.png'></img>	89,71	2750.0	test	<img class = center src='/static/experiments/beast_fmri_test/images/redD.png'></img>	stop	2400.0	3.0	10.0	stop	non-target	D	89,Middle Finger	71,Index Finger	300.0	350.0	2450.0	2400.0	0.0	350.0	n/a	0.0	ITI
270710	500	n/a	-1	-1	500	0.0	fixation	poldrack-single-stim	124	339384	0.0-9.11-0.11	beast_fmri_test	275	339215,/	t	<div class = centerbox2><div class = fixation>+</div></div>	none	500.0	test	n/a	n/a	n/a	n/a	n/a	n/a	n/a	n/a	n/a	n/a	n/a	n/a	n/a	n/a	n/a	n/a	n/a	n/a	fixation
270186.99815153488	2750	n/a	817	89	2750	526.001848465	stim	stop-signal	125	342137	0.0-9.11-1.11	beast_fmri_test	275	339895,/,340573,/,341253,/,341933,/,342613,/	t,t,t,t,t	<img class = center src='/static/experiments/beast_fmri_test/images/B.png'></img>	89,71	2750.0	test	<img class = center src='/static/experiments/beast_fmri_test/images/redB.png'></img>	go	2450.0	3.0	11.0	go	target	B	89,Middle Finger	71,Index Finger	300.0	300.0	2450.0	2400.0	1.0	300.0	1.0	n/a	go_stim
272936.99815153488	526.00184846515003	n/a	817	89	2750	526.001848465	stim	stop-signal	125	342137	0.0-9.11-1.11	beast_fmri_test	275	339895,/,340573,/,341253,/,341933,/,342613,/	t,t,t,t,t	<img class = center src='/static/experiments/beast_fmri_test/images/B.png'></img>	89,71	2750.0	test	<img class = center src='/static/experiments/beast_fmri_test/images/redB.png'></img>	go	2450.0	3.0	11.0	go	target	B	89,Middle Finger	71,Index Finger	300.0	300.0	2450.0	2400.0	1.0	300.0	1.0	n/a	ITI
274508	500	n/a	-1	-1	500	0.0	fixation	poldrack-single-stim	126	343182	0.0-9.12-0.12	beast_fmri_test	275	n/a	n/a	<div class = centerbox2><div class = fixation>+</div></div>	none	500.0	test	n/a	n/a	n/a	n/a	n/a	n/a	n/a	n/a	n/a	n/a	n/a	n/a	n/a	n/a	n/a	n/a	n/a	n/a	fixation
270890.01103052683	2750	n/a	653	71	2750	3620.98896947	stim	stop-signal	127	345935	0.0-9.12-1.12	beast_fmri_test	275	343293,/,343973,/,344654,/,345333,/,346015,/,346693,/,347374,/,348052,/,348729,/,349408,/	t,t,t,t,t,t,t,t,t,t	<img class = center src='/static/experiments/beast_fmri_test/images/T.png'></img>	89,71	2750.0	test	<img class = center src='/static/experiments/beast_fmri_test/images/redT.png'></img>	go	2450.0	3.0	12.0	go	target	T	89,Middle Finger	71,Index Finger	300.0	300.0	2450.0	2400.0	0.0	300.0	0.0	n/a	go_stim
273640.01103052683	3620.9889694731842	n/a	653	71	2750	3620.98896947	stim	stop-signal	127	345935	0.0-9.12-1.12	beast_fmri_test	275	343293,/,343973,/,344654,/,345333,/,346015,/,346693,/,347374,/,348052,/,348729,/,349408,/	t,t,t,t,t,t,t,t,t,t	<img class = center src='/static/experiments/beast_fmri_test/images/T.png'></img>	89,71	2750.0	test	<img class = center src='/static/experiments/beast_fmri_test/images/redT.png'></img>	go	2450.0	3.0	12.0	go	target	T	89,Middle Finger	71,Index Finger	300.0	300.0	2450.0	2400.0	0.0	300.0	0.0	n/a	ITI
281394	500	n/a	-1	-1	500	0.0	fixation	poldrack-single-stim	128	350068	0.0-9.13-0.13	beast_fmri_test	275	n/a	n/a	<div class = centerbox2><div class = fixation>+</div></div>	none	500.0	test	n/a	n/a	n/a	n/a	n/a	n/a	n/a	n/a	n/a	n/a	n/a	n/a	n/a	n/a	n/a	n/a	n/a	n/a	fixation
281329.64403116569	2750	n/a	527	71	2750	69.3559688343	stim	stop-signal	129	352823	0.0-9.13-1.13	beast_fmri_test	275	350089,/,350768,/,351449,/,352128,/,352808,/	t,t,t,t,t	<img class = center src='/static/experiments/beast_fmri_test/images/P.png'></img>	89,71	2750.0	test	<img class = center src='/static/experiments/beast_fmri_test/images/redP.png'></img>	go	2450.0	3.0	13.0	go	non-target	P	89,Middle Finger	71,Index Finger	300.0	300.0	2450.0	2450.0	1.0	300.0	1.0	n/a	go_stim
284079.64403116569	69.355968834307362	n/a	527	71	2750	69.3559688343	stim	stop-signal	129	352823	0.0-9.13-1.13	beast_fmri_test	275	350089,/,350768,/,351449,/,352128,/,352808,/	t,t,t,t,t	<img class = center src='/static/experiments/beast_fmri_test/images/P.png'></img>	89,71	2750.0	test	<img class = center src='/static/experiments/beast_fmri_test/images/redP.png'></img>	go	2450.0	3.0	13.0	go	non-target	P	89,Middle Finger	71,Index Finger	300.0	300.0	2450.0	2450.0	1.0	300.0	1.0	n/a	ITI
284735	500	n/a	-1	-1	500	0.0	fixation	poldrack-single-stim	130	353409	0.0-9.14-0.14	beast_fmri_test	275	n/a	n/a	<div class = centerbox2><div class = fixation>+</div></div>	none	500.0	test	n/a	n/a	n/a	n/a	n/a	n/a	n/a	n/a	n/a	n/a	n/a	n/a	n/a	n/a	n/a	n/a	n/a	n/a	fixation
284419.85819716577	2750	n/a	681	71	2750	318.141802834	stim	stop-signal	131	356162	0.0-9.14-1.14	beast_fmri_test	275	353490,/,354170,/,354849,/,355528,/,356208,/	t,t,t,t,t	<img class = center src='/static/experiments/beast_fmri_test/images/D.png'></img>	89,71	2750.0	test	<img class = center src='/static/experiments/beast_fmri_test/images/redD.png'></img>	go	2450.0	3.0	14.0	go	non-target	D	89,Middle Finger	71,Index Finger	300.0	300.0	2450.0	2450.0	1.0	300.0	1.0	n/a	go_stim
287169.85819716577	318.14180283424656	n/a	681	71	2750	318.141802834	stim	stop-signal	131	356162	0.0-9.14-1.14	beast_fmri_test	275	353490,/,354170,/,354849,/,355528,/,356208,/	t,t,t,t,t	<img class = center src='/static/experiments/beast_fmri_test/images/D.png'></img>	89,71	2750.0	test	<img class = center src='/static/experiments/beast_fmri_test/images/redD.png'></img>	go	2450.0	3.0	14.0	go	non-target	D	89,Middle Finger	71,Index Finger	300.0	300.0	2450.0	2450.0	1.0	300.0	1.0	n/a	ITI
288328	500	n/a	-1	-1	500	0.0	fixation	poldrack-single-stim	132	357002	0.0-9.15-0.15	beast_fmri_test	275	356888,/	t	<div class = centerbox2><div class = fixation>+</div></div>	none	500.0	test	n/a	n/a	n/a	n/a	n/a	n/a	n/a	n/a	n/a	n/a	n/a	n/a	n/a	n/a	n/a	n/a	n/a	n/a	fixation
288129.94796359492	2750	n/a	1080	71	2750	195.052036405	stim	stop-signal	133	359749	0.0-9.15-1.15	beast_fmri_test	275	357569,/,358244,/,358925,/,359604,/	t,t,t,t	<img class = center src='/static/experiments/beast_fmri_test/images/D.png'></img>	89,71	2750.0	test	<img class = center src='/static/experiments/beast_fmri_test/images/redD.png'></img>	go	2450.0	3.0	15.0	go	non-target	D	89,Middle Finger	71,Index Finger	300.0	300.0	2450.0	2450.0	1.0	300.0	1.0	n/a	go_stim
290879.94796359492	195.05203640510121	n/a	1080	71	2750	195.052036405	stim	stop-signal	133	359749	0.0-9.15-1.15	beast_fmri_test	275	357569,/,358244,/,358925,/,359604,/	t,t,t,t	<img class = center src='/static/experiments/beast_fmri_test/images/D.png'></img>	89,71	2750.0	test	<img class = center src='/static/experiments/beast_fmri_test/images/redD.png'></img>	go	2450.0	3.0	15.0	go	non-target	D	89,Middle Finger	71,Index Finger	300.0	300.0	2450.0	2450.0	1.0	300.0	1.0	n/a	ITI
291791	500	n/a	-1	-1	500	0.0	fixation	poldrack-single-stim	134	360465	0.0-9.16-0.16	beast_fmri_test	275	360285,/	t	<div class = centerbox2><div class = fixation>+</div></div>	none	500.0	test	n/a	n/a	n/a	n/a	n/a	n/a	n/a	n/a	n/a	n/a	n/a	n/a	n/a	n/a	n/a	n/a	n/a	n/a	fixation
291681.22403982742	300.0	n/a	-1	-1	2750	111.775960173	stim	stop-signal	135	363217	0.0-9.16-1.16	beast_fmri_test	275	360963,/,361646,/,362325,/,363006,/	t,t,t,t	<img class = center src='/static/experiments/beast_fmri_test/images/V.png'></img>	89,71	2750.0	test	<img class = center src='/static/experiments/beast_fmri_test/images/redV.png'></img>	stop	2450.0	3.0	16.0	stop	non-target	V	89,Middle Finger	71,Index Finger	300.0	300.0	2450.0	2450.0	0.0	300.0	n/a	1.0	go_stim
294131.22403982742	2450.0	n/a	-1	-1	2750	111.775960173	stim	stop-signal	135	363217	0.0-9.16-1.16	beast_fmri_test	275	360963,/,361646,/,362325,/,363006,/	t,t,t,t	<img class = center src='/static/experiments/beast_fmri_test/images/V.png'></img>	89,71	2750.0	test	<img class = center src='/static/experiments/beast_fmri_test/images/redV.png'></img>	stop	2450.0	3.0	16.0	stop	non-target	V	89,Middle Finger	71,Index Finger	300.0	300.0	2450.0	2450.0	0.0	300.0	n/a	1.0	stop_stim
294431.22403982742	111.77596017257505	n/a	-1	-1	2750	111.775960173	stim	stop-signal	135	363217	0.0-9.16-1.16	beast_fmri_test	275	360963,/,361646,/,362325,/,363006,/	t,t,t,t	<img class = center src='/static/experiments/beast_fmri_test/images/V.png'></img>	89,71	2750.0	test	<img class = center src='/static/experiments/beast_fmri_test/images/redV.png'></img>	stop	2450.0	3.0	16.0	stop	non-target	V	89,Middle Finger	71,Index Finger	300.0	300.0	2450.0	2450.0	0.0	300.0	n/a	1.0	ITI
295173	500	n/a	-1	-1	500	0.0	fixation	poldrack-single-stim	136	363847	0.0-9.17-0.17	beast_fmri_test	275	363684,/	t	<div class = centerbox2><div class = fixation>+</div></div>	none	500.0	test	n/a	n/a	n/a	n/a	n/a	n/a	n/a	n/a	n/a	n/a	n/a	n/a	n/a	n/a	n/a	n/a	n/a	n/a	fixation
294419.22042859253	2750	n/a	1528	71	2750	756.779571407	stim	stop-signal	137	366600	0.0-9.17-1.17	beast_fmri_test	275	364365,/,365045,/,365725,/,366404,/,367085,/	t,t,t,t,t	<img class = center src='/static/experiments/beast_fmri_test/images/V.png'></img>	89,71	2750.0	test	<img class = center src='/static/experiments/beast_fmri_test/images/redV.png'></img>	go	2400.0	3.0	17.0	go	non-target	V	89,Middle Finger	71,Index Finger	300.0	350.0	2450.0	2400.0	1.0	350.0	1.0	n/a	go_stim
297169.22042859253	756.77957140745616	n/a	1528	71	2750	756.779571407	stim	stop-signal	137	366600	0.0-9.17-1.17	beast_fmri_test	275	364365,/,365045,/,365725,/,366404,/,367085,/	t,t,t,t,t	<img class = center src='/static/experiments/beast_fmri_test/images/V.png'></img>	89,71	2750.0	test	<img class = center src='/static/experiments/beast_fmri_test/images/redV.png'></img>	go	2400.0	3.0	17.0	go	non-target	V	89,Middle Finger	71,Index Finger	300.0	350.0	2450.0	2400.0	1.0	350.0	1.0	n/a	ITI
299200	500	n/a	-1	-1	500	0.0	fixation	poldrack-single-stim	138	367874	0.0-9.18-0.18	beast_fmri_test	275	367764,/	t	<div class = centerbox2><div class = fixation>+</div></div>	none	500.0	test	n/a	n/a	n/a	n/a	n/a	n/a	n/a	n/a	n/a	n/a	n/a	n/a	n/a	n/a	n/a	n/a	n/a	n/a	fixation
299198.37613712688	350.0	n/a	-1	-1	2750	0.623862873144	stim	stop-signal	139	370623	0.0-9.18-1.18	beast_fmri_test	275	368440,/,369120,/,369799,/,370480,/	t,t,t,t	<img class = center src='/static/experiments/beast_fmri_test/images/V.png'></img>	89,71	2750.0	test	<img class = center src='/static/experiments/beast_fmri_test/images/redV.png'></img>	stop	2400.0	3.0	18.0	stop	non-target	V	89,Middle Finger	71,Index Finger	300.0	350.0	2450.0	2400.0	0.0	350.0	n/a	1.0	go_stim
301598.37613712688	2400.0	n/a	-1	-1	2750	0.623862873144	stim	stop-signal	139	370623	0.0-9.18-1.18	beast_fmri_test	275	368440,/,369120,/,369799,/,370480,/	t,t,t,t	<img class = center src='/static/experiments/beast_fmri_test/images/V.png'></img>	89,71	2750.0	test	<img class = center src='/static/experiments/beast_fmri_test/images/redV.png'></img>	stop	2400.0	3.0	18.0	stop	non-target	V	89,Middle Finger	71,Index Finger	300.0	350.0	2450.0	2400.0	0.0	350.0	n/a	1.0	stop_stim
301948.37613712688	0.62386287314392475	n/a	-1	-1	2750	0.623862873144	stim	stop-signal	139	370623	0.0-9.18-1.18	beast_fmri_test	275	368440,/,369120,/,369799,/,370480,/	t,t,t,t	<img class = center src='/static/experiments/beast_fmri_test/images/V.png'></img>	89,71	2750.0	test	<img class = center src='/static/experiments/beast_fmri_test/images/redV.png'></img>	stop	2400.0	3.0	18.0	stop	non-target	V	89,Middle Finger	71,Index Finger	300.0	350.0	2450.0	2400.0	0.0	350.0	n/a	1.0	ITI
302473	500	n/a	-1	-1	500	0.0	fixation	poldrack-single-stim	140	371147	0.0-9.19-0.19	beast_fmri_test	275	n/a	n/a	<div class = centerbox2><div class = fixation>+</div></div>	none	500.0	test	n/a	n/a	n/a	n/a	n/a	n/a	n/a	n/a	n/a	n/a	n/a	n/a	n/a	n/a	n/a	n/a	n/a	n/a	fixation
302161.80062784743	2750	n/a	492	89	2750	312.199372153	stim	stop-signal	141	373898	0.0-9.19-1.19	beast_fmri_test	275	371168,/,371839,/,372520,/,373201,/,373881,/	t,t,t,t,t	<img class = center src='/static/experiments/beast_fmri_test/images/V.png'></img>	89,71	2750.0	test	<img class = center src='/static/experiments/beast_fmri_test/images/redV.png'></img>	go	2450.0	3.0	19.0	go	target	V	89,Middle Finger	71,Index Finger	300.0	400.0	2450.0	2400.0	1.0	300.0	1.0	n/a	go_stim
304911.80062784743	312.19937215255101	n/a	492	89	2750	312.199372153	stim	stop-signal	141	373898	0.0-9.19-1.19	beast_fmri_test	275	371168,/,371839,/,372520,/,373201,/,373881,/	t,t,t,t,t	<img class = center src='/static/experiments/beast_fmri_test/images/V.png'></img>	89,71	2750.0	test	<img class = center src='/static/experiments/beast_fmri_test/images/redV.png'></img>	go	2450.0	3.0	19.0	go	target	V	89,Middle Finger	71,Index Finger	300.0	400.0	2450.0	2400.0	1.0	300.0	1.0	n/a	ITI
306055	500	n/a	-1	-1	500	0.0	fixation	poldrack-single-stim	142	374729	0.0-9.20-0.20	beast_fmri_test	275	374560,/	t	<div class = centerbox2><div class = fixation>+</div></div>	none	500.0	test	n/a	n/a	n/a	n/a	n/a	n/a	n/a	n/a	n/a	n/a	n/a	n/a	n/a	n/a	n/a	n/a	n/a	n/a	fixation
304676.28421176592	400.0	n/a	-1	-1	2750	1381.71578823	stim	stop-signal	143	377482	0.0-9.20-1.20	beast_fmri_test	275	375240,/,375921,/,376600,/,377281,/,377957,/,378636,/	t,t,t,t,t,t	<img class = center src='/static/experiments/beast_fmri_test/images/P.png'></img>	89,71	2750.0	test	<img class = center src='/static/experiments/beast_fmri_test/images/redP.png'></img>	stop	2350.0	3.0	20.0	stop	non-target	P	89,Middle Finger	71,Index Finger	300.0	400.0	2450.0	2350.0	0.0	400.0	n/a	1.0	go_stim
307026.28421176592	2350.0	n/a	-1	-1	2750	1381.71578823	stim	stop-signal	143	377482	0.0-9.20-1.20	beast_fmri_test	275	375240,/,375921,/,376600,/,377281,/,377957,/,378636,/	t,t,t,t,t,t	<img class = center src='/static/experiments/beast_fmri_test/images/P.png'></img>	89,71	2750.0	test	<img class = center src='/static/experiments/beast_fmri_test/images/redP.png'></img>	stop	2350.0	3.0	20.0	stop	non-target	P	89,Middle Finger	71,Index Finger	300.0	400.0	2450.0	2350.0	0.0	400.0	n/a	1.0	stop_stim
307426.28421176592	1381.7157882340771	n/a	-1	-1	2750	1381.71578823	stim	stop-signal	143	377482	0.0-9.20-1.20	beast_fmri_test	275	375240,/,375921,/,376600,/,377281,/,377957,/,378636,/	t,t,t,t,t,t	<img class = center src='/static/experiments/beast_fmri_test/images/P.png'></img>	89,71	2750.0	test	<img class = center src='/static/experiments/beast_fmri_test/images/redP.png'></img>	stop	2350.0	3.0	20.0	stop	non-target	P	89,Middle Finger	71,Index Finger	300.0	400.0	2450.0	2350.0	0.0	400.0	n/a	1.0	ITI
310703	500	n/a	-1	-1	500	0.0	fixation	poldrack-single-stim	144	379377	0.0-9.21-0.21	beast_fmri_test	275	379314,/	t	<div class = centerbox2><div class = fixation>+</div></div>	none	500.0	test	n/a	n/a	n/a	n/a	n/a	n/a	n/a	n/a	n/a	n/a	n/a	n/a	n/a	n/a	n/a	n/a	n/a	n/a	fixation
309391.90407016536	2750	n/a	1499	71	2750	1313.09592983	stim	stop-signal	145	382129	0.0-9.21-1.21	beast_fmri_test	275	379995,/,380676,/,381355,/,382035,/,382715,/,383395,/	t,t,t,t,t,t	<img class = center src='/static/experiments/beast_fmri_test/images/P.png'></img>	89,71	2750.0	test	<img class = center src='/static/experiments/beast_fmri_test/images/redP.png'></img>	go	2300.0	3.0	21.0	go	non-target	P	89,Middle Finger	71,Index Finger	300.0	450.0	2450.0	2300.0	1.0	450.0	1.0	n/a	go_stim
312141.90407016536	1313.0959298346279	n/a	1499	71	2750	1313.09592983	stim	stop-signal	145	382129	0.0-9.21-1.21	beast_fmri_test	275	379995,/,380676,/,381355,/,382035,/,382715,/,383395,/	t,t,t,t,t,t	<img class = center src='/static/experiments/beast_fmri_test/images/P.png'></img>	89,71	2750.0	test	<img class = center src='/static/experiments/beast_fmri_test/images/redP.png'></img>	go	2300.0	3.0	21.0	go	non-target	P	89,Middle Finger	71,Index Finger	300.0	450.0	2450.0	2300.0	1.0	450.0	1.0	n/a	ITI
315286	500	n/a	-1	-1	500	0.0	fixation	poldrack-single-stim	146	383960	0.0-9.22-0.22	beast_fmri_test	275	n/a	n/a	<div class = centerbox2><div class = fixation>+</div></div>	none	500.0	test	n/a	n/a	n/a	n/a	n/a	n/a	n/a	n/a	n/a	n/a	n/a	n/a	n/a	n/a	n/a	n/a	n/a	n/a	fixation
315126.5779620916	450.0	n/a	580	71	2750	163.422037908	stim	stop-signal	147	386714	0.0-9.22-1.22	beast_fmri_test	275	384075,/,384754,/,385434,/,386114,/,386795,/	t,t,t,t,t	<img class = center src='/static/experiments/beast_fmri_test/images/D.png'></img>	89,71	2750.0	test	<img class = center src='/static/experiments/beast_fmri_test/images/redD.png'></img>	stop	2300.0	3.0	22.0	stop	non-target	D	89,Middle Finger	71,Index Finger	300.0	450.0	2450.0	2300.0	0.0	450.0	n/a	0.0	go_stim
317426.5779620916	2300.0	n/a	580	71	2750	163.422037908	stim	stop-signal	147	386714	0.0-9.22-1.22	beast_fmri_test	275	384075,/,384754,/,385434,/,386114,/,386795,/	t,t,t,t,t	<img class = center src='/static/experiments/beast_fmri_test/images/D.png'></img>	89,71	2750.0	test	<img class = center src='/static/experiments/beast_fmri_test/images/redD.png'></img>	stop	2300.0	3.0	22.0	stop	non-target	D	89,Middle Finger	71,Index Finger	300.0	450.0	2450.0	2300.0	0.0	450.0	n/a	0.0	stop_stim
317876.5779620916	163.42203790842299	n/a	580	71	2750	163.422037908	stim	stop-signal	147	386714	0.0-9.22-1.22	beast_fmri_test	275	384075,/,384754,/,385434,/,386114,/,386795,/	t,t,t,t,t	<img class = center src='/static/experiments/beast_fmri_test/images/D.png'></img>	89,71	2750.0	test	<img class = center src='/static/experiments/beast_fmri_test/images/redD.png'></img>	stop	2300.0	3.0	22.0	stop	non-target	D	89,Middle Finger	71,Index Finger	300.0	450.0	2450.0	2300.0	0.0	450.0	n/a	0.0	ITI
318725	500	n/a	-1	-1	500	0.0	fixation	poldrack-single-stim	148	387399	0.0-9.23-0.23	beast_fmri_test	275	n/a	n/a	<div class = centerbox2><div class = fixation>+</div></div>	none	500.0	test	n/a	n/a	n/a	n/a	n/a	n/a	n/a	n/a	n/a	n/a	n/a	n/a	n/a	n/a	n/a	n/a	n/a	n/a	fixation
