onset	duration	text	rt	key_press	block_duration	timing_post_trial	trial_id	trial_type	trial_index	time_elapsed	internal_node_id	exp_id	subject_id	trigger_times	triggers	stimulus	possible_responses	stim_duration	exp_stage	SS_stimulus	SS_trial_type	SS_duration	load	trial_num	stop_trial_type	adaptive_trial_type	stim	yes_response_key	no_response_key	SSD_target	SSD_non_target	SSTarget	SSNonTarget	go_acc	SS_delay	adaptive_acc	stop_acc	new_trial_type
test	10880	n/a	-1	-1	10880	0.0	practice-no-stop-feedback	poldrack-single-stim	396	1122171	0.0-18.0	beast_fmri_test	328	1111294,/,1111972,/,1112652,/,1113331,/,1114011,/,1114690,/,1115371,/,1116051,/,1116731,/,1117409,/,1118090,/,1118770,/,1119450,/,1120130,/,1120810,/,1121489,/,1122169,/	t,t,t,t,t,t,t,t,t,t,t,t,t,t,t,t,t	"<div class = ""centerbox""><p class = ""block-text"">Your delay is 3 trials.</p><p class = block-text>Please wait for the scanner to start the block</p></div>"	77	10880.0	n/a	n/a	n/a	n/a	n/a	n/a	n/a	n/a	n/a	n/a	n/a	n/a	n/a	n/a	n/a	n/a	n/a	n/a	n/a	start_functional_block
11379	500	n/a	-1	-1	500	0.0	fixation	poldrack-single-stim	397	1122673	0.0-19.0-0.0	beast_fmri_test	328	n/a	n/a	<div class = centerbox2><div class = fixation>+</div></div>	none	500.0	test	n/a	n/a	n/a	n/a	n/a	n/a	n/a	n/a	n/a	n/a	n/a	n/a	n/a	n/a	n/a	n/a	n/a	n/a	fixation
9566.2739671759773	2750	n/a	-1	-1	2750	1815.72603282	stim	stop-signal	398	1125426	0.0-19.0-1.0	beast_fmri_test	328	1122847,/,1123527,/,1124206,/,1124886,/,1125566,/,1126246,/,1126926,/	t,t,t,t,t,t,t	<img class = center src='/static/experiments/beast_fmri_test/images/P.png'></img>	71,89	2750.0	test	<img class = center src='/static/experiments/beast_fmri_test/images/redP.png'></img>	go	-1.0	3.0	0.0	go	temp-non-target	P	71,Index Finger	89,Middle Finger	800.0	1200.0	1900.0	1550.0	0.0	n/a	n/a	n/a	go_stim
12316.273967175977	1815.7260328240573	n/a	-1	-1	2750	1815.72603282	stim	stop-signal	398	1125426	0.0-19.0-1.0	beast_fmri_test	328	1122847,/,1123527,/,1124206,/,1124886,/,1125566,/,1126246,/,1126926,/	t,t,t,t,t,t,t	<img class = center src='/static/experiments/beast_fmri_test/images/P.png'></img>	71,89	2750.0	test	<img class = center src='/static/experiments/beast_fmri_test/images/redP.png'></img>	go	-1.0	3.0	0.0	go	temp-non-target	P	71,Index Finger	89,Middle Finger	800.0	1200.0	1900.0	1550.0	0.0	n/a	n/a	n/a	ITI
16499	500	n/a	-1	-1	500	0.0	fixation	poldrack-single-stim	399	1127793	0.0-19.1-0.1	beast_fmri_test	328	1127605,/	t	<div class = centerbox2><div class = fixation>+</div></div>	none	500.0	test	n/a	n/a	n/a	n/a	n/a	n/a	n/a	n/a	n/a	n/a	n/a	n/a	n/a	n/a	n/a	n/a	n/a	n/a	fixation
15598.843109196518	2750	n/a	-1	-1	2750	902.156890803	stim	stop-signal	400	1130545	0.0-19.1-1.1	beast_fmri_test	328	1128284,/,1128965,/,1129645,/,1130323,/,1131004,/	t,t,t,t,t	<img class = center src='/static/experiments/beast_fmri_test/images/P.png'></img>	71,89	2750.0	test	<img class = center src='/static/experiments/beast_fmri_test/images/redP.png'></img>	go	-1.0	3.0	1.0	go	temp-non-target	P	71,Index Finger	89,Middle Finger	800.0	1200.0	1900.0	1550.0	0.0	n/a	n/a	n/a	go_stim
18348.843109196518	902.15689080344828	n/a	-1	-1	2750	902.156890803	stim	stop-signal	400	1130545	0.0-19.1-1.1	beast_fmri_test	328	1128284,/,1128965,/,1129645,/,1130323,/,1131004,/	t,t,t,t,t	<img class = center src='/static/experiments/beast_fmri_test/images/P.png'></img>	71,89	2750.0	test	<img class = center src='/static/experiments/beast_fmri_test/images/redP.png'></img>	go	-1.0	3.0	1.0	go	temp-non-target	P	71,Index Finger	89,Middle Finger	800.0	1200.0	1900.0	1550.0	0.0	n/a	n/a	n/a	ITI
20703	500	n/a	-1	-1	500	0.0	fixation	poldrack-single-stim	401	1131997	0.0-19.2-0.2	beast_fmri_test	328	1131684,/	t	<div class = centerbox2><div class = fixation>+</div></div>	none	500.0	test	n/a	n/a	n/a	n/a	n/a	n/a	n/a	n/a	n/a	n/a	n/a	n/a	n/a	n/a	n/a	n/a	n/a	n/a	fixation
19699.215775286546	2750	n/a	-1	-1	2750	1005.78422471	stim	stop-signal	402	1134749	0.0-19.2-1.2	beast_fmri_test	328	1132363,/,1133042,/,1133723,/,1134403,/,1135083,/	t,t,t,t,t	<img class = center src='/static/experiments/beast_fmri_test/images/P.png'></img>	71,89	2750.0	test	<img class = center src='/static/experiments/beast_fmri_test/images/redP.png'></img>	go	-1.0	3.0	2.0	go	temp-non-target	P	71,Index Finger	89,Middle Finger	800.0	1200.0	1900.0	1550.0	0.0	n/a	n/a	n/a	go_stim
22449.215775286546	1005.7842247135092	n/a	-1	-1	2750	1005.78422471	stim	stop-signal	402	1134749	0.0-19.2-1.2	beast_fmri_test	328	1132363,/,1133042,/,1133723,/,1134403,/,1135083,/	t,t,t,t,t	<img class = center src='/static/experiments/beast_fmri_test/images/P.png'></img>	71,89	2750.0	test	<img class = center src='/static/experiments/beast_fmri_test/images/redP.png'></img>	go	-1.0	3.0	2.0	go	temp-non-target	P	71,Index Finger	89,Middle Finger	800.0	1200.0	1900.0	1550.0	0.0	n/a	n/a	n/a	ITI
25012	500	n/a	-1	-1	500	0.0	fixation	poldrack-single-stim	403	1136306	0.0-19.3-0.3	beast_fmri_test	328	1135804,/	t	<div class = centerbox2><div class = fixation>+</div></div>	none	500.0	test	n/a	n/a	n/a	n/a	n/a	n/a	n/a	n/a	n/a	n/a	n/a	n/a	n/a	n/a	n/a	n/a	n/a	n/a	fixation
24730.000914453296	2750	n/a	1031	89	2750	284.999085547	stim	stop-signal	404	1139059	0.0-19.3-1.3	beast_fmri_test	328	1136443,/,1137121,/,1137801,/,1138479,/,1139161,/	t,t,t,t,t	<img class = center src='/static/experiments/beast_fmri_test/images/V.png'></img>	71,89	2750.0	test	<img class = center src='/static/experiments/beast_fmri_test/images/redV.png'></img>	go	1550.0	3.0	3.0	go	non-target	V	71,Index Finger	89,Middle Finger	800.0	1200.0	1900.0	1550.0	1.0	1200.0	1.0	n/a	go_stim
27480.000914453296	284.99908554678268	n/a	1031	89	2750	284.999085547	stim	stop-signal	404	1139059	0.0-19.3-1.3	beast_fmri_test	328	1136443,/,1137121,/,1137801,/,1138479,/,1139161,/	t,t,t,t,t	<img class = center src='/static/experiments/beast_fmri_test/images/V.png'></img>	71,89	2750.0	test	<img class = center src='/static/experiments/beast_fmri_test/images/redV.png'></img>	go	1550.0	3.0	3.0	go	non-target	V	71,Index Finger	89,Middle Finger	800.0	1200.0	1900.0	1550.0	1.0	1200.0	1.0	n/a	ITI
28598	500	n/a	-1	-1	500	0.0	fixation	poldrack-single-stim	405	1139892	0.0-19.4-0.4	beast_fmri_test	328	1139841,/	t	<div class = centerbox2><div class = fixation>+</div></div>	none	500.0	test	n/a	n/a	n/a	n/a	n/a	n/a	n/a	n/a	n/a	n/a	n/a	n/a	n/a	n/a	n/a	n/a	n/a	n/a	fixation
28572.212089182343	2750	n/a	1073	89	2750	26.7879108177	stim	stop-signal	406	1142643	0.0-19.4-1.4	beast_fmri_test	328	1140520,/,1141200,/,1141879,/,1142559,/	t,t,t,t	<img class = center src='/static/experiments/beast_fmri_test/images/T.png'></img>	71,89	2750.0	test	<img class = center src='/static/experiments/beast_fmri_test/images/redT.png'></img>	go	1550.0	3.0	4.0	go	non-target	T	71,Index Finger	89,Middle Finger	800.0	1200.0	1900.0	1550.0	1.0	1200.0	1.0	n/a	go_stim
31322.212089182343	26.787910817675947	n/a	1073	89	2750	26.7879108177	stim	stop-signal	406	1142643	0.0-19.4-1.4	beast_fmri_test	328	1140520,/,1141200,/,1141879,/,1142559,/	t,t,t,t	<img class = center src='/static/experiments/beast_fmri_test/images/T.png'></img>	71,89	2750.0	test	<img class = center src='/static/experiments/beast_fmri_test/images/redT.png'></img>	go	1550.0	3.0	4.0	go	non-target	T	71,Index Finger	89,Middle Finger	800.0	1200.0	1900.0	1550.0	1.0	1200.0	1.0	n/a	ITI
31923	500	n/a	-1	-1	500	0.0	fixation	poldrack-single-stim	407	1143217	0.0-19.5-0.5	beast_fmri_test	328	n/a	n/a	<div class = centerbox2><div class = fixation>+</div></div>	none	500.0	test	n/a	n/a	n/a	n/a	n/a	n/a	n/a	n/a	n/a	n/a	n/a	n/a	n/a	n/a	n/a	n/a	n/a	n/a	fixation
31131.979781004833	2750	n/a	1922	89	2750	793.020218995	stim	stop-signal	408	1145969	0.0-19.5-1.5	beast_fmri_test	328	1143237,/,1143917,/,1144598,/,1145276,/,1145957,/,1146636,/	t,t,t,t,t,t	<img class = center src='/static/experiments/beast_fmri_test/images/T.png'></img>	71,89	2750.0	test	<img class = center src='/static/experiments/beast_fmri_test/images/redT.png'></img>	go	1550.0	3.0	5.0	go	non-target	T	71,Index Finger	89,Middle Finger	800.0	1200.0	1900.0	1550.0	1.0	1200.0	1.0	n/a	go_stim
33881.979781004833	793.02021899512204	n/a	1922	89	2750	793.020218995	stim	stop-signal	408	1145969	0.0-19.5-1.5	beast_fmri_test	328	1143237,/,1143917,/,1144598,/,1145276,/,1145957,/,1146636,/	t,t,t,t,t,t	<img class = center src='/static/experiments/beast_fmri_test/images/T.png'></img>	71,89	2750.0	test	<img class = center src='/static/experiments/beast_fmri_test/images/redT.png'></img>	go	1550.0	3.0	5.0	go	non-target	T	71,Index Finger	89,Middle Finger	800.0	1200.0	1900.0	1550.0	1.0	1200.0	1.0	n/a	ITI
36021	500	n/a	-1	-1	500	0.0	fixation	poldrack-single-stim	409	1147315	0.0-19.6-0.6	beast_fmri_test	328	n/a	n/a	<div class = centerbox2><div class = fixation>+</div></div>	none	500.0	test	n/a	n/a	n/a	n/a	n/a	n/a	n/a	n/a	n/a	n/a	n/a	n/a	n/a	n/a	n/a	n/a	n/a	n/a	fixation
33453.272924727062	800.0	n/a	899	71	2750	2569.72707527	stim	stop-signal	410	1150067	0.0-19.6-1.6	beast_fmri_test	328	1147318,/,1147995,/,1148674,/,1149356,/,1150036,/,1150715,/,1151395,/,1152074,/	t,t,t,t,t,t,t,t	<img class = center src='/static/experiments/beast_fmri_test/images/V.png'></img>	71,89	2750.0	test	<img class = center src='/static/experiments/beast_fmri_test/images/redV.png'></img>	stop	1950.0	3.0	6.0	stop	target	V	71,Index Finger	89,Middle Finger	800.0	1200.0	1950.0	1550.0	0.0	800.0	n/a	0.0	go_stim
35403.272924727062	1950.0	n/a	899	71	2750	2569.72707527	stim	stop-signal	410	1150067	0.0-19.6-1.6	beast_fmri_test	328	1147318,/,1147995,/,1148674,/,1149356,/,1150036,/,1150715,/,1151395,/,1152074,/	t,t,t,t,t,t,t,t	<img class = center src='/static/experiments/beast_fmri_test/images/V.png'></img>	71,89	2750.0	test	<img class = center src='/static/experiments/beast_fmri_test/images/redV.png'></img>	stop	1950.0	3.0	6.0	stop	target	V	71,Index Finger	89,Middle Finger	800.0	1200.0	1950.0	1550.0	0.0	800.0	n/a	0.0	stop_stim
36203.272924727062	2569.7270752728368	n/a	899	71	2750	2569.72707527	stim	stop-signal	410	1150067	0.0-19.6-1.6	beast_fmri_test	328	1147318,/,1147995,/,1148674,/,1149356,/,1150036,/,1150715,/,1151395,/,1152074,/	t,t,t,t,t,t,t,t	<img class = center src='/static/experiments/beast_fmri_test/images/V.png'></img>	71,89	2750.0	test	<img class = center src='/static/experiments/beast_fmri_test/images/redV.png'></img>	stop	1950.0	3.0	6.0	stop	target	V	71,Index Finger	89,Middle Finger	800.0	1200.0	1950.0	1550.0	0.0	800.0	n/a	0.0	ITI
41893	500	n/a	-1	-1	500	0.0	fixation	poldrack-single-stim	411	1153187	0.0-19.7-0.7	beast_fmri_test	328	1152754,/	t	<div class = centerbox2><div class = fixation>+</div></div>	none	500.0	test	n/a	n/a	n/a	n/a	n/a	n/a	n/a	n/a	n/a	n/a	n/a	n/a	n/a	n/a	n/a	n/a	n/a	n/a	fixation
40931.817950113909	2750	n/a	1276	71	2750	964.182049886	stim	stop-signal	412	1155940	0.0-19.7-1.7	beast_fmri_test	328	1153435,/,1154113,/,1154794,/,1155472,/,1156152,/,1156831,/	t,t,t,t,t,t	<img class = center src='/static/experiments/beast_fmri_test/images/T.png'></img>	71,89	2750.0	test	<img class = center src='/static/experiments/beast_fmri_test/images/redT.png'></img>	go	2000.0	3.0	7.0	go	target	T	71,Index Finger	89,Middle Finger	750.0	1200.0	2000.0	1550.0	1.0	750.0	1.0	n/a	go_stim
43681.817950113909	964.18204988609136	n/a	1276	71	2750	964.182049886	stim	stop-signal	412	1155940	0.0-19.7-1.7	beast_fmri_test	328	1153435,/,1154113,/,1154794,/,1155472,/,1156152,/,1156831,/	t,t,t,t,t,t	<img class = center src='/static/experiments/beast_fmri_test/images/T.png'></img>	71,89	2750.0	test	<img class = center src='/static/experiments/beast_fmri_test/images/redT.png'></img>	go	2000.0	3.0	7.0	go	target	T	71,Index Finger	89,Middle Finger	750.0	1200.0	2000.0	1550.0	1.0	750.0	1.0	n/a	ITI
46162	500	n/a	-1	-1	500	0.0	fixation	poldrack-single-stim	413	1157456	0.0-19.8-0.8	beast_fmri_test	328	n/a	n/a	<div class = centerbox2><div class = fixation>+</div></div>	none	500.0	test	n/a	n/a	n/a	n/a	n/a	n/a	n/a	n/a	n/a	n/a	n/a	n/a	n/a	n/a	n/a	n/a	n/a	n/a	fixation
45818.755456458544	2750	n/a	1110	89	2750	345.244543541	stim	stop-signal	414	1160208	0.0-19.8-1.8	beast_fmri_test	328	1157513,/,1158191,/,1158872,/,1159551,/,1160229,/	t,t,t,t,t	<img class = center src='/static/experiments/beast_fmri_test/images/P.png'></img>	71,89	2750.0	test	<img class = center src='/static/experiments/beast_fmri_test/images/redP.png'></img>	go	1550.0	3.0	8.0	go	non-target	P	71,Index Finger	89,Middle Finger	750.0	1200.0	2000.0	1550.0	1.0	1200.0	1.0	n/a	go_stim
48568.755456458544	345.24454354149788	n/a	1110	89	2750	345.244543541	stim	stop-signal	414	1160208	0.0-19.8-1.8	beast_fmri_test	328	1157513,/,1158191,/,1158872,/,1159551,/,1160229,/	t,t,t,t,t	<img class = center src='/static/experiments/beast_fmri_test/images/P.png'></img>	71,89	2750.0	test	<img class = center src='/static/experiments/beast_fmri_test/images/redP.png'></img>	go	1550.0	3.0	8.0	go	non-target	P	71,Index Finger	89,Middle Finger	750.0	1200.0	2000.0	1550.0	1.0	1200.0	1.0	n/a	ITI
49811	500	n/a	-1	-1	500	0.0	fixation	poldrack-single-stim	415	1161105	0.0-19.9-0.9	beast_fmri_test	328	1160910,/	t	<div class = centerbox2><div class = fixation>+</div></div>	none	500.0	test	n/a	n/a	n/a	n/a	n/a	n/a	n/a	n/a	n/a	n/a	n/a	n/a	n/a	n/a	n/a	n/a	n/a	n/a	fixation
47521.712485593511	2750	n/a	952	71	2750	2289.28751441	stim	stop-signal	416	1163855	0.0-19.9-1.9	beast_fmri_test	328	1161590,/,1162270,/,1162950,/,1163629,/,1164309,/,1164988,/,1165668,/	t,t,t,t,t,t,t	<img class = center src='/static/experiments/beast_fmri_test/images/V.png'></img>	71,89	2750.0	test	<img class = center src='/static/experiments/beast_fmri_test/images/redV.png'></img>	go	2000.0	3.0	9.0	go	target	V	71,Index Finger	89,Middle Finger	750.0	1200.0	2000.0	1550.0	1.0	750.0	1.0	n/a	go_stim
50271.712485593511	2289.2875144065019	n/a	952	71	2750	2289.28751441	stim	stop-signal	416	1163855	0.0-19.9-1.9	beast_fmri_test	328	1161590,/,1162270,/,1162950,/,1163629,/,1164309,/,1164988,/,1165668,/	t,t,t,t,t,t,t	<img class = center src='/static/experiments/beast_fmri_test/images/V.png'></img>	71,89	2750.0	test	<img class = center src='/static/experiments/beast_fmri_test/images/redV.png'></img>	go	2000.0	3.0	9.0	go	target	V	71,Index Finger	89,Middle Finger	750.0	1200.0	2000.0	1550.0	1.0	750.0	1.0	n/a	ITI
55403	500	n/a	-1	-1	500	0.0	fixation	poldrack-single-stim	417	1166697	0.0-19.10-0.10	beast_fmri_test	328	1166348,/	t	<div class = centerbox2><div class = fixation>+</div></div>	none	500.0	test	n/a	n/a	n/a	n/a	n/a	n/a	n/a	n/a	n/a	n/a	n/a	n/a	n/a	n/a	n/a	n/a	n/a	n/a	fixation
55356.121184889227	2750	n/a	856	89	2750	49.8788151109	stim	stop-signal	418	1169450	0.0-19.10-1.10	beast_fmri_test	328	1167027,/,1167708,/,1168387,/,1169065,/	t,t,t,t	<img class = center src='/static/experiments/beast_fmri_test/images/D.png'></img>	71,89	2750.0	test	<img class = center src='/static/experiments/beast_fmri_test/images/redD.png'></img>	go	1550.0	3.0	10.0	go	non-target	D	71,Index Finger	89,Middle Finger	750.0	1200.0	2000.0	1550.0	1.0	1200.0	1.0	n/a	go_stim
58106.121184889227	49.878815110876744	n/a	856	89	2750	49.8788151109	stim	stop-signal	418	1169450	0.0-19.10-1.10	beast_fmri_test	328	1167027,/,1167708,/,1168387,/,1169065,/	t,t,t,t	<img class = center src='/static/experiments/beast_fmri_test/images/D.png'></img>	71,89	2750.0	test	<img class = center src='/static/experiments/beast_fmri_test/images/redD.png'></img>	go	1550.0	3.0	10.0	go	non-target	D	71,Index Finger	89,Middle Finger	750.0	1200.0	2000.0	1550.0	1.0	1200.0	1.0	n/a	ITI
58763	500	n/a	-1	-1	500	0.0	fixation	poldrack-single-stim	419	1170057	0.0-19.11-0.11	beast_fmri_test	328	1169745,/	t	<div class = centerbox2><div class = fixation>+</div></div>	none	500.0	test	n/a	n/a	n/a	n/a	n/a	n/a	n/a	n/a	n/a	n/a	n/a	n/a	n/a	n/a	n/a	n/a	n/a	n/a	fixation
56070.844782572007	2750	n/a	1364	89	2750	2693.15521743	stim	stop-signal	420	1172808	0.0-19.11-1.11	beast_fmri_test	328	1170426,/,1171104,/,1171784,/,1172464,/,1173145,/,1173824,/,1174504,/,1175183,/	t,t,t,t,t,t,t,t	<img class = center src='/static/experiments/beast_fmri_test/images/V.png'></img>	71,89	2750.0	test	<img class = center src='/static/experiments/beast_fmri_test/images/redV.png'></img>	go	1550.0	3.0	11.0	go	non-target	V	71,Index Finger	89,Middle Finger	750.0	1200.0	2000.0	1550.0	1.0	1200.0	1.0	n/a	go_stim
58820.844782572007	2693.1552174280841	n/a	1364	89	2750	2693.15521743	stim	stop-signal	420	1172808	0.0-19.11-1.11	beast_fmri_test	328	1170426,/,1171104,/,1171784,/,1172464,/,1173145,/,1173824,/,1174504,/,1175183,/	t,t,t,t,t,t,t,t	<img class = center src='/static/experiments/beast_fmri_test/images/V.png'></img>	71,89	2750.0	test	<img class = center src='/static/experiments/beast_fmri_test/images/redV.png'></img>	go	1550.0	3.0	11.0	go	non-target	V	71,Index Finger	89,Middle Finger	750.0	1200.0	2000.0	1550.0	1.0	1200.0	1.0	n/a	ITI
64762	500	n/a	-1	-1	500	0.0	fixation	poldrack-single-stim	421	1176056	0.0-19.12-0.12	beast_fmri_test	328	1175865,/	t	<div class = centerbox2><div class = fixation>+</div></div>	none	500.0	test	n/a	n/a	n/a	n/a	n/a	n/a	n/a	n/a	n/a	n/a	n/a	n/a	n/a	n/a	n/a	n/a	n/a	n/a	fixation
64563.855436147656	2750	n/a	920	89	2750	199.144563852	stim	stop-signal	422	1178807	0.0-19.12-1.12	beast_fmri_test	328	1176544,/,1177223,/,1177903,/,1178582,/	t,t,t,t	<img class = center src='/static/experiments/beast_fmri_test/images/T.png'></img>	71,89	2750.0	test	<img class = center src='/static/experiments/beast_fmri_test/images/redT.png'></img>	go	1550.0	3.0	12.0	go	non-target	T	71,Index Finger	89,Middle Finger	750.0	1200.0	2000.0	1550.0	1.0	1200.0	1.0	n/a	go_stim
67313.855436147656	199.14456385224625	n/a	920	89	2750	199.144563852	stim	stop-signal	422	1178807	0.0-19.12-1.12	beast_fmri_test	328	1176544,/,1177223,/,1177903,/,1178582,/	t,t,t,t	<img class = center src='/static/experiments/beast_fmri_test/images/T.png'></img>	71,89	2750.0	test	<img class = center src='/static/experiments/beast_fmri_test/images/redT.png'></img>	go	1550.0	3.0	12.0	go	non-target	T	71,Index Finger	89,Middle Finger	750.0	1200.0	2000.0	1550.0	1.0	1200.0	1.0	n/a	ITI
68267	500	n/a	-1	-1	500	0.0	fixation	poldrack-single-stim	423	1179561	0.0-19.13-0.13	beast_fmri_test	328	1179262,/	t	<div class = centerbox2><div class = fixation>+</div></div>	none	500.0	test	n/a	n/a	n/a	n/a	n/a	n/a	n/a	n/a	n/a	n/a	n/a	n/a	n/a	n/a	n/a	n/a	n/a	n/a	fixation
67698.515548498137	2750	n/a	1517	89	2750	568.484451502	stim	stop-signal	424	1182311	0.0-19.13-1.13	beast_fmri_test	328	1179942,/,1180622,/,1181300,/,1181982,/,1182661,/	t,t,t,t,t	<img class = center src='/static/experiments/beast_fmri_test/images/V.png'></img>	71,89	2750.0	test	<img class = center src='/static/experiments/beast_fmri_test/images/redV.png'></img>	go	1550.0	3.0	13.0	go	non-target	V	71,Index Finger	89,Middle Finger	750.0	1200.0	2000.0	1550.0	1.0	1200.0	1.0	n/a	go_stim
70448.515548498137	568.48445150186933	n/a	1517	89	2750	568.484451502	stim	stop-signal	424	1182311	0.0-19.13-1.13	beast_fmri_test	328	1179942,/,1180622,/,1181300,/,1181982,/,1182661,/	t,t,t,t,t	<img class = center src='/static/experiments/beast_fmri_test/images/V.png'></img>	71,89	2750.0	test	<img class = center src='/static/experiments/beast_fmri_test/images/redV.png'></img>	go	1550.0	3.0	13.0	go	non-target	V	71,Index Finger	89,Middle Finger	750.0	1200.0	2000.0	1550.0	1.0	1200.0	1.0	n/a	ITI
72143	500	n/a	-1	-1	500	0.0	fixation	poldrack-single-stim	425	1183437	0.0-19.14-0.14	beast_fmri_test	328	1183341,/	t	<div class = centerbox2><div class = fixation>+</div></div>	none	500.0	test	n/a	n/a	n/a	n/a	n/a	n/a	n/a	n/a	n/a	n/a	n/a	n/a	n/a	n/a	n/a	n/a	n/a	n/a	fixation
71463.103624870768	2750	n/a	1372	89	2750	680.896375129	stim	stop-signal	426	1186188	0.0-19.14-1.14	beast_fmri_test	328	1184020,/,1184700,/,1185378,/,1186059,/,1186739,/	t,t,t,t,t	<img class = center src='/static/experiments/beast_fmri_test/images/B.png'></img>	71,89	2750.0	test	<img class = center src='/static/experiments/beast_fmri_test/images/redB.png'></img>	go	1550.0	3.0	14.0	go	non-target	B	71,Index Finger	89,Middle Finger	750.0	1200.0	2000.0	1550.0	1.0	1200.0	1.0	n/a	go_stim
74213.103624870768	680.89637512911906	n/a	1372	89	2750	680.896375129	stim	stop-signal	426	1186188	0.0-19.14-1.14	beast_fmri_test	328	1184020,/,1184700,/,1185378,/,1186059,/,1186739,/	t,t,t,t,t	<img class = center src='/static/experiments/beast_fmri_test/images/B.png'></img>	71,89	2750.0	test	<img class = center src='/static/experiments/beast_fmri_test/images/redB.png'></img>	go	1550.0	3.0	14.0	go	non-target	B	71,Index Finger	89,Middle Finger	750.0	1200.0	2000.0	1550.0	1.0	1200.0	1.0	n/a	ITI
76130	500	n/a	-1	-1	500	0.0	fixation	poldrack-single-stim	427	1187424	0.0-19.15-0.15	beast_fmri_test	328	1187418,/	t	<div class = centerbox2><div class = fixation>+</div></div>	none	500.0	test	n/a	n/a	n/a	n/a	n/a	n/a	n/a	n/a	n/a	n/a	n/a	n/a	n/a	n/a	n/a	n/a	n/a	n/a	fixation
74140.47608833015	2750	n/a	1214	89	2750	1991.52391167	stim	stop-signal	428	1190176	0.0-19.15-1.15	beast_fmri_test	328	1188097,/,1188776,/,1189457,/,1190136,/,1190817,/,1191495,/	t,t,t,t,t,t	<img class = center src='/static/experiments/beast_fmri_test/images/D.png'></img>	71,89	2750.0	test	<img class = center src='/static/experiments/beast_fmri_test/images/redD.png'></img>	go	1550.0	3.0	15.0	go	non-target	D	71,Index Finger	89,Middle Finger	750.0	1200.0	2000.0	1550.0	1.0	1200.0	1.0	n/a	go_stim
76890.47608833015	1991.5239116699656	n/a	1214	89	2750	1991.52391167	stim	stop-signal	428	1190176	0.0-19.15-1.15	beast_fmri_test	328	1188097,/,1188776,/,1189457,/,1190136,/,1190817,/,1191495,/	t,t,t,t,t,t	<img class = center src='/static/experiments/beast_fmri_test/images/D.png'></img>	71,89	2750.0	test	<img class = center src='/static/experiments/beast_fmri_test/images/redD.png'></img>	go	1550.0	3.0	15.0	go	non-target	D	71,Index Finger	89,Middle Finger	750.0	1200.0	2000.0	1550.0	1.0	1200.0	1.0	n/a	ITI
81432	500	n/a	-1	-1	500	0.0	fixation	poldrack-single-stim	429	1192726	0.0-19.16-0.16	beast_fmri_test	328	1192224,/	t	<div class = centerbox2><div class = fixation>+</div></div>	none	500.0	test	n/a	n/a	n/a	n/a	n/a	n/a	n/a	n/a	n/a	n/a	n/a	n/a	n/a	n/a	n/a	n/a	n/a	n/a	fixation
81319.570524343522	2750	n/a	1080	89	2750	113.429475657	stim	stop-signal	430	1195477	0.0-19.16-1.16	beast_fmri_test	328	1192856,/,1193535,/,1194215,/,1194894,/,1195575,/	t,t,t,t,t	<img class = center src='/static/experiments/beast_fmri_test/images/P.png'></img>	71,89	2750.0	test	<img class = center src='/static/experiments/beast_fmri_test/images/redP.png'></img>	go	1550.0	3.0	16.0	go	non-target	P	71,Index Finger	89,Middle Finger	750.0	1200.0	2000.0	1550.0	1.0	1200.0	1.0	n/a	go_stim
84069.570524343522	113.42947565651308	n/a	1080	89	2750	113.429475657	stim	stop-signal	430	1195477	0.0-19.16-1.16	beast_fmri_test	328	1192856,/,1193535,/,1194215,/,1194894,/,1195575,/	t,t,t,t,t	<img class = center src='/static/experiments/beast_fmri_test/images/P.png'></img>	71,89	2750.0	test	<img class = center src='/static/experiments/beast_fmri_test/images/redP.png'></img>	go	1550.0	3.0	16.0	go	non-target	P	71,Index Finger	89,Middle Finger	750.0	1200.0	2000.0	1550.0	1.0	1200.0	1.0	n/a	ITI
84875	500	n/a	-1	-1	500	0.0	fixation	poldrack-single-stim	431	1196169	0.0-19.17-0.17	beast_fmri_test	328	n/a	n/a	<div class = centerbox2><div class = fixation>+</div></div>	none	500.0	test	n/a	n/a	n/a	n/a	n/a	n/a	n/a	n/a	n/a	n/a	n/a	n/a	n/a	n/a	n/a	n/a	n/a	n/a	fixation
84473.496703817043	750.0	n/a	-1	-1	2750	403.503296183	stim	stop-signal	432	1198921	0.0-19.17-1.17	beast_fmri_test	328	1196254,/,1196933,/,1197614,/,1198293,/,1198973,/	t,t,t,t,t	<img class = center src='/static/experiments/beast_fmri_test/images/B.png'></img>	71,89	2750.0	test	<img class = center src='/static/experiments/beast_fmri_test/images/redB.png'></img>	stop	2000.0	3.0	17.0	stop	target	B	71,Index Finger	89,Middle Finger	750.0	1200.0	2000.0	1550.0	0.0	750.0	n/a	1.0	go_stim
86473.496703817043	2000.0	n/a	-1	-1	2750	403.503296183	stim	stop-signal	432	1198921	0.0-19.17-1.17	beast_fmri_test	328	1196254,/,1196933,/,1197614,/,1198293,/,1198973,/	t,t,t,t,t	<img class = center src='/static/experiments/beast_fmri_test/images/B.png'></img>	71,89	2750.0	test	<img class = center src='/static/experiments/beast_fmri_test/images/redB.png'></img>	stop	2000.0	3.0	17.0	stop	target	B	71,Index Finger	89,Middle Finger	750.0	1200.0	2000.0	1550.0	0.0	750.0	n/a	1.0	stop_stim
87223.496703817043	403.50329618304977	n/a	-1	-1	2750	403.503296183	stim	stop-signal	432	1198921	0.0-19.17-1.17	beast_fmri_test	328	1196254,/,1196933,/,1197614,/,1198293,/,1198973,/	t,t,t,t,t	<img class = center src='/static/experiments/beast_fmri_test/images/B.png'></img>	71,89	2750.0	test	<img class = center src='/static/experiments/beast_fmri_test/images/redB.png'></img>	stop	2000.0	3.0	17.0	stop	target	B	71,Index Finger	89,Middle Finger	750.0	1200.0	2000.0	1550.0	0.0	750.0	n/a	1.0	ITI
88587	500	n/a	-1	-1	500	0.0	fixation	poldrack-single-stim	433	1199881	0.0-19.18-0.18	beast_fmri_test	328	1199675,/	t	<div class = centerbox2><div class = fixation>+</div></div>	none	500.0	test	n/a	n/a	n/a	n/a	n/a	n/a	n/a	n/a	n/a	n/a	n/a	n/a	n/a	n/a	n/a	n/a	n/a	n/a	fixation
88451.32185280975	2750	n/a	1020	89	2750	136.67814719	stim	stop-signal	434	1202632	0.0-19.18-1.18	beast_fmri_test	328	1200332,/,1201011,/,1201691,/,1202372,/	t,t,t,t	<img class = center src='/static/experiments/beast_fmri_test/images/P.png'></img>	71,89	2750.0	test	<img class = center src='/static/experiments/beast_fmri_test/images/redP.png'></img>	go	1550.0	3.0	18.0	go	non-target	P	71,Index Finger	89,Middle Finger	800.0	1200.0	2000.0	1550.0	1.0	1200.0	1.0	n/a	go_stim
91201.32185280975	136.67814719022658	n/a	1020	89	2750	136.67814719	stim	stop-signal	434	1202632	0.0-19.18-1.18	beast_fmri_test	328	1200332,/,1201011,/,1201691,/,1202372,/	t,t,t,t	<img class = center src='/static/experiments/beast_fmri_test/images/P.png'></img>	71,89	2750.0	test	<img class = center src='/static/experiments/beast_fmri_test/images/redP.png'></img>	go	1550.0	3.0	18.0	go	non-target	P	71,Index Finger	89,Middle Finger	800.0	1200.0	2000.0	1550.0	1.0	1200.0	1.0	n/a	ITI
92024	500	n/a	-1	-1	500	0.0	fixation	poldrack-single-stim	435	1203318	0.0-19.19-0.19	beast_fmri_test	328	1203050,/	t	<div class = centerbox2><div class = fixation>+</div></div>	none	500.0	test	n/a	n/a	n/a	n/a	n/a	n/a	n/a	n/a	n/a	n/a	n/a	n/a	n/a	n/a	n/a	n/a	n/a	n/a	fixation
91601.351322131464	2750	n/a	2326	71	2750	426.648677869	stim	stop-signal	436	1206072	0.0-19.19-1.19	beast_fmri_test	328	1203731,/,1204411,/,1205089,/,1205771,/,1206450,/	t,t,t,t,t	<img class = center src='/static/experiments/beast_fmri_test/images/P.png'></img>	71,89	2750.0	test	<img class = center src='/static/experiments/beast_fmri_test/images/redP.png'></img>	go	1950.0	3.0	19.0	go	target	P	71,Index Finger	89,Middle Finger	800.0	1200.0	1950.0	1550.0	1.0	800.0	1.0	n/a	go_stim
94351.351322131464	426.6486778685333	n/a	2326	71	2750	426.648677869	stim	stop-signal	436	1206072	0.0-19.19-1.19	beast_fmri_test	328	1203731,/,1204411,/,1205089,/,1205771,/,1206450,/	t,t,t,t,t	<img class = center src='/static/experiments/beast_fmri_test/images/P.png'></img>	71,89	2750.0	test	<img class = center src='/static/experiments/beast_fmri_test/images/redP.png'></img>	go	1950.0	3.0	19.0	go	target	P	71,Index Finger	89,Middle Finger	800.0	1200.0	1950.0	1550.0	1.0	800.0	1.0	n/a	ITI
95758	500	n/a	-1	-1	500	0.0	fixation	poldrack-single-stim	437	1207052	0.0-19.20-0.20	beast_fmri_test	328	n/a	n/a	<div class = centerbox2><div class = fixation>+</div></div>	none	500.0	test	n/a	n/a	n/a	n/a	n/a	n/a	n/a	n/a	n/a	n/a	n/a	n/a	n/a	n/a	n/a	n/a	n/a	n/a	fixation
92770.736189449904	800.0	n/a	-1	-1	2750	2989.26381055	stim	stop-signal	438	1209804	0.0-19.20-1.20	beast_fmri_test	328	1207130,/,1207810,/,1208490,/,1209169,/,1209847,/,1210529,/,1211208,/,1211887,/,1212567,/	t,t,t,t,t,t,t,t,t	<img class = center src='/static/experiments/beast_fmri_test/images/B.png'></img>	71,89	2750.0	test	<img class = center src='/static/experiments/beast_fmri_test/images/redB.png'></img>	stop	1950.0	3.0	20.0	stop	target	B	71,Index Finger	89,Middle Finger	800.0	1200.0	1950.0	1550.0	0.0	800.0	n/a	1.0	go_stim
94720.736189449904	1950.0	n/a	-1	-1	2750	2989.26381055	stim	stop-signal	438	1209804	0.0-19.20-1.20	beast_fmri_test	328	1207130,/,1207810,/,1208490,/,1209169,/,1209847,/,1210529,/,1211208,/,1211887,/,1212567,/	t,t,t,t,t,t,t,t,t	<img class = center src='/static/experiments/beast_fmri_test/images/B.png'></img>	71,89	2750.0	test	<img class = center src='/static/experiments/beast_fmri_test/images/redB.png'></img>	stop	1950.0	3.0	20.0	stop	target	B	71,Index Finger	89,Middle Finger	800.0	1200.0	1950.0	1550.0	0.0	800.0	n/a	1.0	stop_stim
95520.736189449904	2989.2638105501219	n/a	-1	-1	2750	2989.26381055	stim	stop-signal	438	1209804	0.0-19.20-1.20	beast_fmri_test	328	1207130,/,1207810,/,1208490,/,1209169,/,1209847,/,1210529,/,1211208,/,1211887,/,1212567,/	t,t,t,t,t,t,t,t,t	<img class = center src='/static/experiments/beast_fmri_test/images/B.png'></img>	71,89	2750.0	test	<img class = center src='/static/experiments/beast_fmri_test/images/redB.png'></img>	stop	1950.0	3.0	20.0	stop	target	B	71,Index Finger	89,Middle Finger	800.0	1200.0	1950.0	1550.0	0.0	800.0	n/a	1.0	ITI
102053	500	n/a	-1	-1	500	0.0	fixation	poldrack-single-stim	439	1213347	0.0-19.21-0.21	beast_fmri_test	328	1213246,/	t	<div class = centerbox2><div class = fixation>+</div></div>	none	500.0	test	n/a	n/a	n/a	n/a	n/a	n/a	n/a	n/a	n/a	n/a	n/a	n/a	n/a	n/a	n/a	n/a	n/a	n/a	fixation
101839.36763414531	1200.0	n/a	1261	89	2750	216.632365855	stim	stop-signal	440	1216100	0.0-19.21-1.21	beast_fmri_test	328	1213927,/,1214607,/,1215286,/,1215965,/	t,t,t,t	<img class = center src='/static/experiments/beast_fmri_test/images/V.png'></img>	71,89	2750.0	test	<img class = center src='/static/experiments/beast_fmri_test/images/redV.png'></img>	stop	1550.0	3.0	21.0	stop	non-target	V	71,Index Finger	89,Middle Finger	850.0	1200.0	1950.0	1550.0	0.0	1200.0	n/a	0.0	go_stim
103389.36763414531	1550.0	n/a	1261	89	2750	216.632365855	stim	stop-signal	440	1216100	0.0-19.21-1.21	beast_fmri_test	328	1213927,/,1214607,/,1215286,/,1215965,/	t,t,t,t	<img class = center src='/static/experiments/beast_fmri_test/images/V.png'></img>	71,89	2750.0	test	<img class = center src='/static/experiments/beast_fmri_test/images/redV.png'></img>	stop	1550.0	3.0	21.0	stop	non-target	V	71,Index Finger	89,Middle Finger	850.0	1200.0	1950.0	1550.0	0.0	1200.0	n/a	0.0	stop_stim
104589.36763414531	216.63236585474758	n/a	1261	89	2750	216.632365855	stim	stop-signal	440	1216100	0.0-19.21-1.21	beast_fmri_test	328	1213927,/,1214607,/,1215286,/,1215965,/	t,t,t,t	<img class = center src='/static/experiments/beast_fmri_test/images/V.png'></img>	71,89	2750.0	test	<img class = center src='/static/experiments/beast_fmri_test/images/redV.png'></img>	stop	1550.0	3.0	21.0	stop	non-target	V	71,Index Finger	89,Middle Finger	850.0	1200.0	1950.0	1550.0	0.0	1200.0	n/a	0.0	ITI
105576	500	n/a	-1	-1	500	0.0	fixation	poldrack-single-stim	441	1216870	0.0-19.22-0.22	beast_fmri_test	328	1216644,/	t	<div class = centerbox2><div class = fixation>+</div></div>	none	500.0	test	n/a	n/a	n/a	n/a	n/a	n/a	n/a	n/a	n/a	n/a	n/a	n/a	n/a	n/a	n/a	n/a	n/a	n/a	fixation
104323.62481771037	2750	n/a	1057	71	2750	1253.37518229	stim	stop-signal	442	1219621	0.0-19.22-1.22	beast_fmri_test	328	1217324,/,1218004,/,1218683,/,1219364,/,1220044,/,1220723,/	t,t,t,t,t,t	<img class = center src='/static/experiments/beast_fmri_test/images/P.png'></img>	71,89	2750.0	test	<img class = center src='/static/experiments/beast_fmri_test/images/redP.png'></img>	go	1900.0	3.0	22.0	go	target	P	71,Index Finger	89,Middle Finger	850.0	1150.0	1900.0	1550.0	1.0	850.0	1.0	n/a	go_stim
107073.62481771037	1253.3751822897302	n/a	1057	71	2750	1253.37518229	stim	stop-signal	442	1219621	0.0-19.22-1.22	beast_fmri_test	328	1217324,/,1218004,/,1218683,/,1219364,/,1220044,/,1220723,/	t,t,t,t,t,t	<img class = center src='/static/experiments/beast_fmri_test/images/P.png'></img>	71,89	2750.0	test	<img class = center src='/static/experiments/beast_fmri_test/images/redP.png'></img>	go	1900.0	3.0	22.0	go	target	P	71,Index Finger	89,Middle Finger	850.0	1150.0	1900.0	1550.0	1.0	850.0	1.0	n/a	ITI
110139	500	n/a	-1	-1	500	0.0	fixation	poldrack-single-stim	443	1221433	0.0-19.23-0.23	beast_fmri_test	328	1221403,/	t	<div class = centerbox2><div class = fixation>+</div></div>	none	500.0	test	n/a	n/a	n/a	n/a	n/a	n/a	n/a	n/a	n/a	n/a	n/a	n/a	n/a	n/a	n/a	n/a	n/a	n/a	fixation
108061.19408477494	2750	n/a	1251	89	2750	2080.80591522	stim	stop-signal	444	1224186	0.0-19.23-1.23	beast_fmri_test	328	1222083,/,1222762,/,1223441,/,1224122,/,1224801,/,1225481,/,1226159,/	t,t,t,t,t,t,t	<img class = center src='/static/experiments/beast_fmri_test/images/D.png'></img>	71,89	2750.0	test	<img class = center src='/static/experiments/beast_fmri_test/images/redD.png'></img>	go	1600.0	3.0	23.0	go	non-target	D	71,Index Finger	89,Middle Finger	850.0	1150.0	1900.0	1600.0	1.0	1150.0	1.0	n/a	go_stim
110811.19408477494	2080.8059152249862	n/a	1251	89	2750	2080.80591522	stim	stop-signal	444	1224186	0.0-19.23-1.23	beast_fmri_test	328	1222083,/,1222762,/,1223441,/,1224122,/,1224801,/,1225481,/,1226159,/	t,t,t,t,t,t,t	<img class = center src='/static/experiments/beast_fmri_test/images/D.png'></img>	71,89	2750.0	test	<img class = center src='/static/experiments/beast_fmri_test/images/redD.png'></img>	go	1600.0	3.0	23.0	go	non-target	D	71,Index Finger	89,Middle Finger	850.0	1150.0	1900.0	1600.0	1.0	1150.0	1.0	n/a	ITI
115534	500	n/a	-1	-1	500	0.0	fixation	poldrack-single-stim	445	1226828	0.0-19.24-0.24	beast_fmri_test	328	n/a	n/a	<div class = centerbox2><div class = fixation>+</div></div>	none	500.0	test	n/a	n/a	n/a	n/a	n/a	n/a	n/a	n/a	n/a	n/a	n/a	n/a	n/a	n/a	n/a	n/a	n/a	n/a	fixation
115528.3823517526	2750	n/a	1542	89	2750	5.61764824749	stim	stop-signal	446	1229578	0.0-19.24-1.24	beast_fmri_test	328	1226840,/,1227520,/,1228199,/,1228879,/,1229559,/	t,t,t,t,t	<img class = center src='/static/experiments/beast_fmri_test/images/P.png'></img>	71,89	2750.0	test	<img class = center src='/static/experiments/beast_fmri_test/images/redP.png'></img>	go	1600.0	3.0	24.0	go	non-target	P	71,Index Finger	89,Middle Finger	850.0	1150.0	1900.0	1600.0	1.0	1150.0	1.0	n/a	go_stim
118278.3823517526	5.6176482474889671	n/a	1542	89	2750	5.61764824749	stim	stop-signal	446	1229578	0.0-19.24-1.24	beast_fmri_test	328	1226840,/,1227520,/,1228199,/,1228879,/,1229559,/	t,t,t,t,t	<img class = center src='/static/experiments/beast_fmri_test/images/P.png'></img>	71,89	2750.0	test	<img class = center src='/static/experiments/beast_fmri_test/images/redP.png'></img>	go	1600.0	3.0	24.0	go	non-target	P	71,Index Finger	89,Middle Finger	850.0	1150.0	1900.0	1600.0	1.0	1150.0	1.0	n/a	ITI
118850	500	n/a	-1	-1	500	0.0	fixation	poldrack-single-stim	447	1230144	0.0-19.25-0.25	beast_fmri_test	328	n/a	n/a	<div class = centerbox2><div class = fixation>+</div></div>	none	500.0	test	n/a	n/a	n/a	n/a	n/a	n/a	n/a	n/a	n/a	n/a	n/a	n/a	n/a	n/a	n/a	n/a	n/a	n/a	fixation
118316.73015671456	2750	n/a	1215	89	2750	535.269843285	stim	stop-signal	448	1232896	0.0-19.25-1.25	beast_fmri_test	328	1230238,/,1230918,/,1231597,/,1232276,/,1232956,/	t,t,t,t,t	<img class = center src='/static/experiments/beast_fmri_test/images/B.png'></img>	71,89	2750.0	test	<img class = center src='/static/experiments/beast_fmri_test/images/redB.png'></img>	go	1600.0	3.0	25.0	go	non-target	B	71,Index Finger	89,Middle Finger	850.0	1150.0	1900.0	1600.0	1.0	1150.0	1.0	n/a	go_stim
121066.73015671456	535.26984328543574	n/a	1215	89	2750	535.269843285	stim	stop-signal	448	1232896	0.0-19.25-1.25	beast_fmri_test	328	1230238,/,1230918,/,1231597,/,1232276,/,1232956,/	t,t,t,t,t	<img class = center src='/static/experiments/beast_fmri_test/images/B.png'></img>	71,89	2750.0	test	<img class = center src='/static/experiments/beast_fmri_test/images/redB.png'></img>	go	1600.0	3.0	25.0	go	non-target	B	71,Index Finger	89,Middle Finger	850.0	1150.0	1900.0	1600.0	1.0	1150.0	1.0	n/a	ITI
122697	500	n/a	-1	-1	500	0.0	fixation	poldrack-single-stim	449	1233991	0.0-19.26-0.26	beast_fmri_test	328	1233637,/	t	<div class = centerbox2><div class = fixation>+</div></div>	none	500.0	test	n/a	n/a	n/a	n/a	n/a	n/a	n/a	n/a	n/a	n/a	n/a	n/a	n/a	n/a	n/a	n/a	n/a	n/a	fixation
121409.71676846384	2750	n/a	1160	89	2750	1289.28323154	stim	stop-signal	450	1236743	0.0-19.26-1.26	beast_fmri_test	328	1234316,/,1234996,/,1235677,/,1236356,/,1237036,/,1237716,/	t,t,t,t,t,t	<img class = center src='/static/experiments/beast_fmri_test/images/T.png'></img>	71,89	2750.0	test	<img class = center src='/static/experiments/beast_fmri_test/images/redT.png'></img>	go	1600.0	3.0	26.0	go	non-target	T	71,Index Finger	89,Middle Finger	850.0	1150.0	1900.0	1600.0	1.0	1150.0	1.0	n/a	go_stim
124159.71676846384	1289.2832315361018	n/a	1160	89	2750	1289.28323154	stim	stop-signal	450	1236743	0.0-19.26-1.26	beast_fmri_test	328	1234316,/,1234996,/,1235677,/,1236356,/,1237036,/,1237716,/	t,t,t,t,t,t	<img class = center src='/static/experiments/beast_fmri_test/images/T.png'></img>	71,89	2750.0	test	<img class = center src='/static/experiments/beast_fmri_test/images/redT.png'></img>	go	1600.0	3.0	26.0	go	non-target	T	71,Index Finger	89,Middle Finger	850.0	1150.0	1900.0	1600.0	1.0	1150.0	1.0	n/a	ITI
127302	500	n/a	-1	-1	500	0.0	fixation	poldrack-single-stim	451	1238596	0.0-19.27-0.27	beast_fmri_test	328	1238396,/	t	<div class = centerbox2><div class = fixation>+</div></div>	none	500.0	test	n/a	n/a	n/a	n/a	n/a	n/a	n/a	n/a	n/a	n/a	n/a	n/a	n/a	n/a	n/a	n/a	n/a	n/a	fixation
126284.28813587548	1150.0	n/a	1089	89	2750	1019.71186412	stim	stop-signal	452	1241348	0.0-19.27-1.27	beast_fmri_test	328	1239075,/,1239754,/,1240434,/,1241113,/,1241792,/	t,t,t,t,t	<img class = center src='/static/experiments/beast_fmri_test/images/V.png'></img>	71,89	2750.0	test	<img class = center src='/static/experiments/beast_fmri_test/images/redV.png'></img>	stop	1600.0	3.0	27.0	stop	non-target	V	71,Index Finger	89,Middle Finger	850.0	1150.0	1900.0	1600.0	0.0	1150.0	n/a	0.0	go_stim
127884.28813587548	1600.0	n/a	1089	89	2750	1019.71186412	stim	stop-signal	452	1241348	0.0-19.27-1.27	beast_fmri_test	328	1239075,/,1239754,/,1240434,/,1241113,/,1241792,/	t,t,t,t,t	<img class = center src='/static/experiments/beast_fmri_test/images/V.png'></img>	71,89	2750.0	test	<img class = center src='/static/experiments/beast_fmri_test/images/redV.png'></img>	stop	1600.0	3.0	27.0	stop	non-target	V	71,Index Finger	89,Middle Finger	850.0	1150.0	1900.0	1600.0	0.0	1150.0	n/a	0.0	stop_stim
129034.28813587548	1019.7118641244152	n/a	1089	89	2750	1019.71186412	stim	stop-signal	452	1241348	0.0-19.27-1.27	beast_fmri_test	328	1239075,/,1239754,/,1240434,/,1241113,/,1241792,/	t,t,t,t,t	<img class = center src='/static/experiments/beast_fmri_test/images/V.png'></img>	71,89	2750.0	test	<img class = center src='/static/experiments/beast_fmri_test/images/redV.png'></img>	stop	1600.0	3.0	27.0	stop	non-target	V	71,Index Finger	89,Middle Finger	850.0	1150.0	1900.0	1600.0	0.0	1150.0	n/a	0.0	ITI
131634	500	n/a	-1	-1	500	0.0	fixation	poldrack-single-stim	453	1242928	0.0-19.28-0.28	beast_fmri_test	328	1242473,/	t	<div class = centerbox2><div class = fixation>+</div></div>	none	500.0	test	n/a	n/a	n/a	n/a	n/a	n/a	n/a	n/a	n/a	n/a	n/a	n/a	n/a	n/a	n/a	n/a	n/a	n/a	fixation
130655.96997291944	2750	n/a	1343	71	2750	980.030027081	stim	stop-signal	454	1245680	0.0-19.28-1.28	beast_fmri_test	328	1243154,/,1243835,/,1244511,/,1245192,/,1245872,/,1246552,/	t,t,t,t,t,t	<img class = center src='/static/experiments/beast_fmri_test/images/B.png'></img>	71,89	2750.0	test	<img class = center src='/static/experiments/beast_fmri_test/images/redB.png'></img>	go	1900.0	3.0	28.0	go	target	B	71,Index Finger	89,Middle Finger	850.0	1100.0	1900.0	1600.0	1.0	850.0	1.0	n/a	go_stim
133405.96997291944	980.0300270805127	n/a	1343	71	2750	980.030027081	stim	stop-signal	454	1245680	0.0-19.28-1.28	beast_fmri_test	328	1243154,/,1243835,/,1244511,/,1245192,/,1245872,/,1246552,/	t,t,t,t,t,t	<img class = center src='/static/experiments/beast_fmri_test/images/B.png'></img>	71,89	2750.0	test	<img class = center src='/static/experiments/beast_fmri_test/images/redB.png'></img>	go	1900.0	3.0	28.0	go	target	B	71,Index Finger	89,Middle Finger	850.0	1100.0	1900.0	1600.0	1.0	850.0	1.0	n/a	ITI
135931	500	n/a	-1	-1	500	0.0	fixation	poldrack-single-stim	455	1247225	0.0-19.29-0.29	beast_fmri_test	328	n/a	n/a	<div class = centerbox2><div class = fixation>+</div></div>	none	500.0	test	n/a	n/a	n/a	n/a	n/a	n/a	n/a	n/a	n/a	n/a	n/a	n/a	n/a	n/a	n/a	n/a	n/a	n/a	fixation
134093.91646736115	1100.0	n/a	1106	71	2750	1838.08353264	stim	stop-signal	456	1249976	0.0-19.29-1.29	beast_fmri_test	328	1247230,/,1247911,/,1248590,/,1249269,/,1249949,/,1250629,/,1251309,/	t,t,t,t,t,t,t	<img class = center src='/static/experiments/beast_fmri_test/images/P.png'></img>	71,89	2750.0	test	<img class = center src='/static/experiments/beast_fmri_test/images/redP.png'></img>	stop	1650.0	3.0	29.0	stop	non-target	P	71,Index Finger	89,Middle Finger	850.0	1100.0	1900.0	1650.0	0.0	1100.0	n/a	0.0	go_stim
135743.91646736115	1650.0	n/a	1106	71	2750	1838.08353264	stim	stop-signal	456	1249976	0.0-19.29-1.29	beast_fmri_test	328	1247230,/,1247911,/,1248590,/,1249269,/,1249949,/,1250629,/,1251309,/	t,t,t,t,t,t,t	<img class = center src='/static/experiments/beast_fmri_test/images/P.png'></img>	71,89	2750.0	test	<img class = center src='/static/experiments/beast_fmri_test/images/redP.png'></img>	stop	1650.0	3.0	29.0	stop	non-target	P	71,Index Finger	89,Middle Finger	850.0	1100.0	1900.0	1650.0	0.0	1100.0	n/a	0.0	stop_stim
136843.91646736115	1838.0835326388128	n/a	1106	71	2750	1838.08353264	stim	stop-signal	456	1249976	0.0-19.29-1.29	beast_fmri_test	328	1247230,/,1247911,/,1248590,/,1249269,/,1249949,/,1250629,/,1251309,/	t,t,t,t,t,t,t	<img class = center src='/static/experiments/beast_fmri_test/images/P.png'></img>	71,89	2750.0	test	<img class = center src='/static/experiments/beast_fmri_test/images/redP.png'></img>	stop	1650.0	3.0	29.0	stop	non-target	P	71,Index Finger	89,Middle Finger	850.0	1100.0	1900.0	1650.0	0.0	1100.0	n/a	0.0	ITI
141079	500	n/a	-1	-1	500	0.0	fixation	poldrack-single-stim	457	1252373	0.0-19.30-0.30	beast_fmri_test	328	1251988,/	t	<div class = centerbox2><div class = fixation>+</div></div>	none	500.0	test	n/a	n/a	n/a	n/a	n/a	n/a	n/a	n/a	n/a	n/a	n/a	n/a	n/a	n/a	n/a	n/a	n/a	n/a	fixation
138391.13218076969	850.0	n/a	-1	-1	2750	2689.86781923	stim	stop-signal	458	1255125	0.0-19.30-1.30	beast_fmri_test	328	1252668,/,1253348,/,1254029,/,1254707,/,1255387,/,1256068,/,1256746,/,1257426,/	t,t,t,t,t,t,t,t	<img class = center src='/static/experiments/beast_fmri_test/images/V.png'></img>	71,89	2750.0	test	<img class = center src='/static/experiments/beast_fmri_test/images/redV.png'></img>	stop	1900.0	3.0	30.0	stop	target	V	71,Index Finger	89,Middle Finger	850.0	1050.0	1900.0	1650.0	0.0	850.0	n/a	1.0	go_stim
140291.13218076969	1900.0	n/a	-1	-1	2750	2689.86781923	stim	stop-signal	458	1255125	0.0-19.30-1.30	beast_fmri_test	328	1252668,/,1253348,/,1254029,/,1254707,/,1255387,/,1256068,/,1256746,/,1257426,/	t,t,t,t,t,t,t,t	<img class = center src='/static/experiments/beast_fmri_test/images/V.png'></img>	71,89	2750.0	test	<img class = center src='/static/experiments/beast_fmri_test/images/redV.png'></img>	stop	1900.0	3.0	30.0	stop	target	V	71,Index Finger	89,Middle Finger	850.0	1050.0	1900.0	1650.0	0.0	850.0	n/a	1.0	stop_stim
141141.13218076969	2689.8678192302605	n/a	-1	-1	2750	2689.86781923	stim	stop-signal	458	1255125	0.0-19.30-1.30	beast_fmri_test	328	1252668,/,1253348,/,1254029,/,1254707,/,1255387,/,1256068,/,1256746,/,1257426,/	t,t,t,t,t,t,t,t	<img class = center src='/static/experiments/beast_fmri_test/images/V.png'></img>	71,89	2750.0	test	<img class = center src='/static/experiments/beast_fmri_test/images/redV.png'></img>	stop	1900.0	3.0	30.0	stop	target	V	71,Index Finger	89,Middle Finger	850.0	1050.0	1900.0	1650.0	0.0	850.0	n/a	1.0	ITI
147083	500	n/a	-1	-1	500	0.0	fixation	poldrack-single-stim	459	1258377	0.0-19.31-0.31	beast_fmri_test	328	1258107,/	t	<div class = centerbox2><div class = fixation>+</div></div>	none	500.0	test	n/a	n/a	n/a	n/a	n/a	n/a	n/a	n/a	n/a	n/a	n/a	n/a	n/a	n/a	n/a	n/a	n/a	n/a	fixation
146988.95510261669	1050.0	n/a	-1	-1	2750	97.0448973833	stim	stop-signal	460	1261130	0.0-19.31-1.31	beast_fmri_test	328	1258786,/,1259464,/,1260145,/,1260826,/	t,t,t,t	<img class = center src='/static/experiments/beast_fmri_test/images/T.png'></img>	71,89	2750.0	test	<img class = center src='/static/experiments/beast_fmri_test/images/redT.png'></img>	stop	1700.0	3.0	31.0	stop	non-target	T	71,Index Finger	89,Middle Finger	900.0	1050.0	1900.0	1700.0	0.0	1050.0	n/a	1.0	go_stim
148688.95510261669	1700.0	n/a	-1	-1	2750	97.0448973833	stim	stop-signal	460	1261130	0.0-19.31-1.31	beast_fmri_test	328	1258786,/,1259464,/,1260145,/,1260826,/	t,t,t,t	<img class = center src='/static/experiments/beast_fmri_test/images/T.png'></img>	71,89	2750.0	test	<img class = center src='/static/experiments/beast_fmri_test/images/redT.png'></img>	stop	1700.0	3.0	31.0	stop	non-target	T	71,Index Finger	89,Middle Finger	900.0	1050.0	1900.0	1700.0	0.0	1050.0	n/a	1.0	stop_stim
149738.95510261669	97.044897383292351	n/a	-1	-1	2750	97.0448973833	stim	stop-signal	460	1261130	0.0-19.31-1.31	beast_fmri_test	328	1258786,/,1259464,/,1260145,/,1260826,/	t,t,t,t	<img class = center src='/static/experiments/beast_fmri_test/images/T.png'></img>	71,89	2750.0	test	<img class = center src='/static/experiments/beast_fmri_test/images/redT.png'></img>	stop	1700.0	3.0	31.0	stop	non-target	T	71,Index Finger	89,Middle Finger	900.0	1050.0	1900.0	1700.0	0.0	1050.0	n/a	1.0	ITI
150498	500	n/a	-1	-1	500	0.0	fixation	poldrack-single-stim	461	1261792	0.0-19.32-0.32	beast_fmri_test	328	1261506,/	t	<div class = centerbox2><div class = fixation>+</div></div>	none	500.0	test	n/a	n/a	n/a	n/a	n/a	n/a	n/a	n/a	n/a	n/a	n/a	n/a	n/a	n/a	n/a	n/a	n/a	n/a	fixation
149139.60854377365	2750	n/a	1028	71	2750	1360.39145623	stim	stop-signal	462	1264544	0.0-19.32-1.32	beast_fmri_test	328	1262184,/,1262864,/,1263543,/,1264223,/,1264903,/,1265583,/	t,t,t,t,t,t	<img class = center src='/static/experiments/beast_fmri_test/images/P.png'></img>	71,89	2750.0	test	<img class = center src='/static/experiments/beast_fmri_test/images/redP.png'></img>	go	1850.0	3.0	32.0	go	target	P	71,Index Finger	89,Middle Finger	900.0	1100.0	1850.0	1700.0	1.0	900.0	1.0	n/a	go_stim
151889.60854377365	1360.3914562262862	n/a	1028	71	2750	1360.39145623	stim	stop-signal	462	1264544	0.0-19.32-1.32	beast_fmri_test	328	1262184,/,1262864,/,1263543,/,1264223,/,1264903,/,1265583,/	t,t,t,t,t,t	<img class = center src='/static/experiments/beast_fmri_test/images/P.png'></img>	71,89	2750.0	test	<img class = center src='/static/experiments/beast_fmri_test/images/redP.png'></img>	go	1850.0	3.0	32.0	go	target	P	71,Index Finger	89,Middle Finger	900.0	1100.0	1850.0	1700.0	1.0	900.0	1.0	n/a	ITI
155172	500	n/a	-1	-1	500	0.0	fixation	poldrack-single-stim	463	1266466	0.0-19.33-0.33	beast_fmri_test	328	1266263,/	t	<div class = centerbox2><div class = fixation>+</div></div>	none	500.0	test	n/a	n/a	n/a	n/a	n/a	n/a	n/a	n/a	n/a	n/a	n/a	n/a	n/a	n/a	n/a	n/a	n/a	n/a	fixation
154917.36773660104	2750	n/a	1089	71	2750	255.632263399	stim	stop-signal	464	1269217	0.0-19.33-1.33	beast_fmri_test	328	1266942,/,1267622,/,1268302,/,1268982,/	t,t,t,t	<img class = center src='/static/experiments/beast_fmri_test/images/V.png'></img>	71,89	2750.0	test	<img class = center src='/static/experiments/beast_fmri_test/images/redV.png'></img>	go	1850.0	3.0	33.0	go	target	V	71,Index Finger	89,Middle Finger	900.0	1100.0	1850.0	1700.0	1.0	900.0	1.0	n/a	go_stim
157667.36773660104	255.63226339898682	n/a	1089	71	2750	255.632263399	stim	stop-signal	464	1269217	0.0-19.33-1.33	beast_fmri_test	328	1266942,/,1267622,/,1268302,/,1268982,/	t,t,t,t	<img class = center src='/static/experiments/beast_fmri_test/images/V.png'></img>	71,89	2750.0	test	<img class = center src='/static/experiments/beast_fmri_test/images/redV.png'></img>	go	1850.0	3.0	33.0	go	target	V	71,Index Finger	89,Middle Finger	900.0	1100.0	1850.0	1700.0	1.0	900.0	1.0	n/a	ITI
158747	500	n/a	-1	-1	500	0.0	fixation	poldrack-single-stim	465	1270041	0.0-19.34-0.34	beast_fmri_test	328	1269662,/	t	<div class = centerbox2><div class = fixation>+</div></div>	none	500.0	test	n/a	n/a	n/a	n/a	n/a	n/a	n/a	n/a	n/a	n/a	n/a	n/a	n/a	n/a	n/a	n/a	n/a	n/a	fixation
155383.60118144634	1100.0	n/a	-1	-1	2750	3365.39881855	stim	stop-signal	466	1272793	0.0-19.34-1.34	beast_fmri_test	328	1270340,/,1271021,/,1271701,/,1272379,/,1273059,/,1273739,/,1274419,/,1275098,/,1275779,/	t,t,t,t,t,t,t,t,t	<img class = center src='/static/experiments/beast_fmri_test/images/B.png'></img>	71,89	2750.0	test	<img class = center src='/static/experiments/beast_fmri_test/images/redB.png'></img>	stop	1650.0	3.0	34.0	stop	non-target	B	71,Index Finger	89,Middle Finger	900.0	1100.0	1850.0	1650.0	0.0	1100.0	n/a	1.0	go_stim
157033.60118144634	1650.0	n/a	-1	-1	2750	3365.39881855	stim	stop-signal	466	1272793	0.0-19.34-1.34	beast_fmri_test	328	1270340,/,1271021,/,1271701,/,1272379,/,1273059,/,1273739,/,1274419,/,1275098,/,1275779,/	t,t,t,t,t,t,t,t,t	<img class = center src='/static/experiments/beast_fmri_test/images/B.png'></img>	71,89	2750.0	test	<img class = center src='/static/experiments/beast_fmri_test/images/redB.png'></img>	stop	1650.0	3.0	34.0	stop	non-target	B	71,Index Finger	89,Middle Finger	900.0	1100.0	1850.0	1650.0	0.0	1100.0	n/a	1.0	stop_stim
158133.60118144634	3365.39881855372	n/a	-1	-1	2750	3365.39881855	stim	stop-signal	466	1272793	0.0-19.34-1.34	beast_fmri_test	328	1270340,/,1271021,/,1271701,/,1272379,/,1273059,/,1273739,/,1274419,/,1275098,/,1275779,/	t,t,t,t,t,t,t,t,t	<img class = center src='/static/experiments/beast_fmri_test/images/B.png'></img>	71,89	2750.0	test	<img class = center src='/static/experiments/beast_fmri_test/images/redB.png'></img>	stop	1650.0	3.0	34.0	stop	non-target	B	71,Index Finger	89,Middle Finger	900.0	1100.0	1850.0	1650.0	0.0	1100.0	n/a	1.0	ITI
165425	500	n/a	-1	-1	500	0.0	fixation	poldrack-single-stim	467	1276719	0.0-19.35-0.35	beast_fmri_test	328	1276457,/	t	<div class = centerbox2><div class = fixation>+</div></div>	none	500.0	test	n/a	n/a	n/a	n/a	n/a	n/a	n/a	n/a	n/a	n/a	n/a	n/a	n/a	n/a	n/a	n/a	n/a	n/a	fixation
162776.07284936751	2750	n/a	1604	89	2750	2650.92715063	stim	stop-signal	468	1279471	0.0-19.35-1.35	beast_fmri_test	328	1277138,/,1277816,/,1278497,/,1279176,/,1279857,/,1280535,/,1281215,/,1281895,/	t,t,t,t,t,t,t,t	<img class = center src='/static/experiments/beast_fmri_test/images/P.png'></img>	71,89	2750.0	test	<img class = center src='/static/experiments/beast_fmri_test/images/redP.png'></img>	go	1850.0	3.0	35.0	go	target	P	71,Index Finger	89,Middle Finger	900.0	1150.0	1850.0	1650.0	0.0	900.0	0.0	n/a	go_stim
165526.07284936751	2650.9271506325531	n/a	1604	89	2750	2650.92715063	stim	stop-signal	468	1279471	0.0-19.35-1.35	beast_fmri_test	328	1277138,/,1277816,/,1278497,/,1279176,/,1279857,/,1280535,/,1281215,/,1281895,/	t,t,t,t,t,t,t,t	<img class = center src='/static/experiments/beast_fmri_test/images/P.png'></img>	71,89	2750.0	test	<img class = center src='/static/experiments/beast_fmri_test/images/redP.png'></img>	go	1850.0	3.0	35.0	go	target	P	71,Index Finger	89,Middle Finger	900.0	1150.0	1850.0	1650.0	0.0	900.0	0.0	n/a	ITI
171389	500	n/a	-1	-1	500	0.0	fixation	poldrack-single-stim	469	1282683	0.0-19.36-0.36	beast_fmri_test	328	1282575,/	t	<div class = centerbox2><div class = fixation>+</div></div>	none	500.0	test	n/a	n/a	n/a	n/a	n/a	n/a	n/a	n/a	n/a	n/a	n/a	n/a	n/a	n/a	n/a	n/a	n/a	n/a	fixation
170526.55955669191	2750	n/a	1071	71	2750	865.440443308	stim	stop-signal	470	1285436	0.0-19.36-1.36	beast_fmri_test	328	1283253,/,1283934,/,1284614,/,1285294,/,1285972,/	t,t,t,t,t	<img class = center src='/static/experiments/beast_fmri_test/images/V.png'></img>	71,89	2750.0	test	<img class = center src='/static/experiments/beast_fmri_test/images/redV.png'></img>	go	1850.0	3.0	36.0	go	target	V	71,Index Finger	89,Middle Finger	900.0	1150.0	1850.0	1650.0	1.0	900.0	1.0	n/a	go_stim
173276.55955669191	865.44044330812471	n/a	1071	71	2750	865.440443308	stim	stop-signal	470	1285436	0.0-19.36-1.36	beast_fmri_test	328	1283253,/,1283934,/,1284614,/,1285294,/,1285972,/	t,t,t,t,t	<img class = center src='/static/experiments/beast_fmri_test/images/V.png'></img>	71,89	2750.0	test	<img class = center src='/static/experiments/beast_fmri_test/images/redV.png'></img>	go	1850.0	3.0	36.0	go	target	V	71,Index Finger	89,Middle Finger	900.0	1150.0	1850.0	1650.0	1.0	900.0	1.0	n/a	ITI
175567	500	n/a	-1	-1	500	0.0	fixation	poldrack-single-stim	471	1286861	0.0-19.37-0.37	beast_fmri_test	328	1286653,/	t	<div class = centerbox2><div class = fixation>+</div></div>	none	500.0	test	n/a	n/a	n/a	n/a	n/a	n/a	n/a	n/a	n/a	n/a	n/a	n/a	n/a	n/a	n/a	n/a	n/a	n/a	fixation
175475.59289803542	1150.0	n/a	-1	-1	2750	92.4071019645	stim	stop-signal	472	1289612	0.0-19.37-1.37	beast_fmri_test	328	1287332,/,1288012,/,1288694,/,1289370,/	t,t,t,t	<img class = center src='/static/experiments/beast_fmri_test/images/P.png'></img>	71,89	2750.0	test	<img class = center src='/static/experiments/beast_fmri_test/images/redP.png'></img>	stop	1600.0	3.0	37.0	stop	non-target	P	71,Index Finger	89,Middle Finger	900.0	1150.0	1850.0	1600.0	0.0	1150.0	n/a	1.0	go_stim
177075.59289803542	1600.0	n/a	-1	-1	2750	92.4071019645	stim	stop-signal	472	1289612	0.0-19.37-1.37	beast_fmri_test	328	1287332,/,1288012,/,1288694,/,1289370,/	t,t,t,t	<img class = center src='/static/experiments/beast_fmri_test/images/P.png'></img>	71,89	2750.0	test	<img class = center src='/static/experiments/beast_fmri_test/images/redP.png'></img>	stop	1600.0	3.0	37.0	stop	non-target	P	71,Index Finger	89,Middle Finger	900.0	1150.0	1850.0	1600.0	0.0	1150.0	n/a	1.0	stop_stim
178225.59289803542	92.40710196451063	n/a	-1	-1	2750	92.4071019645	stim	stop-signal	472	1289612	0.0-19.37-1.37	beast_fmri_test	328	1287332,/,1288012,/,1288694,/,1289370,/	t,t,t,t	<img class = center src='/static/experiments/beast_fmri_test/images/P.png'></img>	71,89	2750.0	test	<img class = center src='/static/experiments/beast_fmri_test/images/redP.png'></img>	stop	1600.0	3.0	37.0	stop	non-target	P	71,Index Finger	89,Middle Finger	900.0	1150.0	1850.0	1600.0	0.0	1150.0	n/a	1.0	ITI
179036	500	n/a	-1	-1	500	0.0	fixation	poldrack-single-stim	473	1290330	0.0-19.38-0.38	beast_fmri_test	328	1290053,/	t	<div class = centerbox2><div class = fixation>+</div></div>	none	500.0	test	n/a	n/a	n/a	n/a	n/a	n/a	n/a	n/a	n/a	n/a	n/a	n/a	n/a	n/a	n/a	n/a	n/a	n/a	fixation
176766.42585330224	2750	n/a	1547	89	2750	2271.5741467	stim	stop-signal	474	1293082	0.0-19.38-1.38	beast_fmri_test	328	1290730,/,1291410,/,1292090,/,1292770,/,1293449,/,1294130,/,1294809,/	t,t,t,t,t,t,t	<img class = center src='/static/experiments/beast_fmri_test/images/V.png'></img>	71,89	2750.0	test	<img class = center src='/static/experiments/beast_fmri_test/images/redV.png'></img>	go	1550.0	3.0	38.0	go	non-target	V	71,Index Finger	89,Middle Finger	900.0	1200.0	1850.0	1550.0	1.0	1200.0	1.0	n/a	go_stim
179516.42585330224	2271.5741466976842	n/a	1547	89	2750	2271.5741467	stim	stop-signal	474	1293082	0.0-19.38-1.38	beast_fmri_test	328	1290730,/,1291410,/,1292090,/,1292770,/,1293449,/,1294130,/,1294809,/	t,t,t,t,t,t,t	<img class = center src='/static/experiments/beast_fmri_test/images/V.png'></img>	71,89	2750.0	test	<img class = center src='/static/experiments/beast_fmri_test/images/redV.png'></img>	go	1550.0	3.0	38.0	go	non-target	V	71,Index Finger	89,Middle Finger	900.0	1200.0	1850.0	1550.0	1.0	1200.0	1.0	n/a	ITI
184618	500	n/a	-1	-1	500	0.0	fixation	poldrack-single-stim	475	1295912	0.0-19.39-0.39	beast_fmri_test	328	1295489,/	t	<div class = centerbox2><div class = fixation>+</div></div>	none	500.0	test	n/a	n/a	n/a	n/a	n/a	n/a	n/a	n/a	n/a	n/a	n/a	n/a	n/a	n/a	n/a	n/a	n/a	n/a	fixation
184602.79819043516	2750	n/a	997	89	2750	18.2018095648	stim	stop-signal	476	1298665	0.0-19.39-1.39	beast_fmri_test	328	1296169,/,1296849,/,1297528,/,1298208,/	t,t,t,t	<img class = center src='/static/experiments/beast_fmri_test/images/B.png'></img>	71,89	2750.0	test	<img class = center src='/static/experiments/beast_fmri_test/images/redB.png'></img>	go	1550.0	3.0	39.0	go	non-target	B	71,Index Finger	89,Middle Finger	900.0	1200.0	1850.0	1550.0	1.0	1200.0	1.0	n/a	go_stim
187352.79819043516	18.201809564758001	n/a	997	89	2750	18.2018095648	stim	stop-signal	476	1298665	0.0-19.39-1.39	beast_fmri_test	328	1296169,/,1296849,/,1297528,/,1298208,/	t,t,t,t	<img class = center src='/static/experiments/beast_fmri_test/images/B.png'></img>	71,89	2750.0	test	<img class = center src='/static/experiments/beast_fmri_test/images/redB.png'></img>	go	1550.0	3.0	39.0	go	non-target	B	71,Index Finger	89,Middle Finger	900.0	1200.0	1850.0	1550.0	1.0	1200.0	1.0	n/a	ITI
187942	500	n/a	-1	-1	500	0.0	fixation	poldrack-single-stim	477	1299236	0.0-19.40-0.40	beast_fmri_test	328	1298888,/	t	<div class = centerbox2><div class = fixation>+</div></div>	none	500.0	test	n/a	n/a	n/a	n/a	n/a	n/a	n/a	n/a	n/a	n/a	n/a	n/a	n/a	n/a	n/a	n/a	n/a	n/a	fixation
187732.44932592218	2750	n/a	934	71	2750	212.550674078	stim	stop-signal	478	1301989	0.0-19.40-1.40	beast_fmri_test	328	1299568,/,1300247,/,1300927,/,1301606,/	t,t,t,t	<img class = center src='/static/experiments/beast_fmri_test/images/P.png'></img>	71,89	2750.0	test	<img class = center src='/static/experiments/beast_fmri_test/images/redP.png'></img>	go	1850.0	3.0	40.0	go	target	P	71,Index Finger	89,Middle Finger	900.0	1200.0	1850.0	1550.0	1.0	900.0	1.0	n/a	go_stim
190482.44932592218	212.55067407778495	n/a	934	71	2750	212.550674078	stim	stop-signal	478	1301989	0.0-19.40-1.40	beast_fmri_test	328	1299568,/,1300247,/,1300927,/,1301606,/	t,t,t,t	<img class = center src='/static/experiments/beast_fmri_test/images/P.png'></img>	71,89	2750.0	test	<img class = center src='/static/experiments/beast_fmri_test/images/redP.png'></img>	go	1850.0	3.0	40.0	go	target	P	71,Index Finger	89,Middle Finger	900.0	1200.0	1850.0	1550.0	1.0	900.0	1.0	n/a	ITI
191470	500	n/a	-1	-1	500	0.0	fixation	poldrack-single-stim	479	1302764	0.0-19.41-0.41	beast_fmri_test	328	1302288,/	t	<div class = centerbox2><div class = fixation>+</div></div>	none	500.0	test	n/a	n/a	n/a	n/a	n/a	n/a	n/a	n/a	n/a	n/a	n/a	n/a	n/a	n/a	n/a	n/a	n/a	n/a	fixation
189611.8030519383	1200.0	n/a	-1	-1	2750	1861.19694806	stim	stop-signal	480	1305517	0.0-19.41-1.41	beast_fmri_test	328	1302966,/,1303645,/,1304325,/,1305005,/,1305685,/,1306364,/,1307044,/	t,t,t,t,t,t,t	<img class = center src='/static/experiments/beast_fmri_test/images/B.png'></img>	71,89	2750.0	test	<img class = center src='/static/experiments/beast_fmri_test/images/redB.png'></img>	stop	1550.0	3.0	41.0	stop	non-target	B	71,Index Finger	89,Middle Finger	900.0	1200.0	1850.0	1550.0	0.0	1200.0	n/a	1.0	go_stim
191161.8030519383	1550.0	n/a	-1	-1	2750	1861.19694806	stim	stop-signal	480	1305517	0.0-19.41-1.41	beast_fmri_test	328	1302966,/,1303645,/,1304325,/,1305005,/,1305685,/,1306364,/,1307044,/	t,t,t,t,t,t,t	<img class = center src='/static/experiments/beast_fmri_test/images/B.png'></img>	71,89	2750.0	test	<img class = center src='/static/experiments/beast_fmri_test/images/redB.png'></img>	stop	1550.0	3.0	41.0	stop	non-target	B	71,Index Finger	89,Middle Finger	900.0	1200.0	1850.0	1550.0	0.0	1200.0	n/a	1.0	stop_stim
192361.8030519383	1861.1969480617536	n/a	-1	-1	2750	1861.19694806	stim	stop-signal	480	1305517	0.0-19.41-1.41	beast_fmri_test	328	1302966,/,1303645,/,1304325,/,1305005,/,1305685,/,1306364,/,1307044,/	t,t,t,t,t,t,t	<img class = center src='/static/experiments/beast_fmri_test/images/B.png'></img>	71,89	2750.0	test	<img class = center src='/static/experiments/beast_fmri_test/images/redB.png'></img>	stop	1550.0	3.0	41.0	stop	non-target	B	71,Index Finger	89,Middle Finger	900.0	1200.0	1850.0	1550.0	0.0	1200.0	n/a	1.0	ITI
196650	500	n/a	-1	-1	500	0.0	fixation	poldrack-single-stim	481	1307944	0.0-19.42-0.42	beast_fmri_test	328	1307724,/	t	<div class = centerbox2><div class = fixation>+</div></div>	none	500.0	test	n/a	n/a	n/a	n/a	n/a	n/a	n/a	n/a	n/a	n/a	n/a	n/a	n/a	n/a	n/a	n/a	n/a	n/a	fixation
195640.17440406978	1250.0	n/a	962	89	2750	1010.82559593	stim	stop-signal	482	1310695	0.0-19.42-1.42	beast_fmri_test	328	1308403,/,1309083,/,1309761,/,1310441,/,1311120,/	t,t,t,t,t	<img class = center src='/static/experiments/beast_fmri_test/images/D.png'></img>	71,89	2750.0	test	<img class = center src='/static/experiments/beast_fmri_test/images/redD.png'></img>	stop	1500.0	3.0	42.0	stop	non-target	D	71,Index Finger	89,Middle Finger	900.0	1250.0	1850.0	1500.0	0.0	1250.0	n/a	0.0	go_stim
197140.17440406978	1500.0	n/a	962	89	2750	1010.82559593	stim	stop-signal	482	1310695	0.0-19.42-1.42	beast_fmri_test	328	1308403,/,1309083,/,1309761,/,1310441,/,1311120,/	t,t,t,t,t	<img class = center src='/static/experiments/beast_fmri_test/images/D.png'></img>	71,89	2750.0	test	<img class = center src='/static/experiments/beast_fmri_test/images/redD.png'></img>	stop	1500.0	3.0	42.0	stop	non-target	D	71,Index Finger	89,Middle Finger	900.0	1250.0	1850.0	1500.0	0.0	1250.0	n/a	0.0	stop_stim
198390.17440406978	1010.8255959302452	n/a	962	89	2750	1010.82559593	stim	stop-signal	482	1310695	0.0-19.42-1.42	beast_fmri_test	328	1308403,/,1309083,/,1309761,/,1310441,/,1311120,/	t,t,t,t,t	<img class = center src='/static/experiments/beast_fmri_test/images/D.png'></img>	71,89	2750.0	test	<img class = center src='/static/experiments/beast_fmri_test/images/redD.png'></img>	stop	1500.0	3.0	42.0	stop	non-target	D	71,Index Finger	89,Middle Finger	900.0	1250.0	1850.0	1500.0	0.0	1250.0	n/a	0.0	ITI
200977	500	n/a	-1	-1	500	0.0	fixation	poldrack-single-stim	483	1312271	0.0-19.43-0.43	beast_fmri_test	328	1311800,/	t	<div class = centerbox2><div class = fixation>+</div></div>	none	500.0	test	n/a	n/a	n/a	n/a	n/a	n/a	n/a	n/a	n/a	n/a	n/a	n/a	n/a	n/a	n/a	n/a	n/a	n/a	fixation
200408.85290441732	1200.0	n/a	-1	-1	2750	571.147095583	stim	stop-signal	484	1315024	0.0-19.43-1.43	beast_fmri_test	328	1312482,/,1313161,/,1313841,/,1314520,/,1315200,/	t,t,t,t,t	<img class = center src='/static/experiments/beast_fmri_test/images/D.png'></img>	71,89	2750.0	test	<img class = center src='/static/experiments/beast_fmri_test/images/redD.png'></img>	stop	1550.0	3.0	43.0	stop	non-target	D	71,Index Finger	89,Middle Finger	900.0	1200.0	1850.0	1550.0	0.0	1200.0	n/a	1.0	go_stim
201958.85290441732	1550.0	n/a	-1	-1	2750	571.147095583	stim	stop-signal	484	1315024	0.0-19.43-1.43	beast_fmri_test	328	1312482,/,1313161,/,1313841,/,1314520,/,1315200,/	t,t,t,t,t	<img class = center src='/static/experiments/beast_fmri_test/images/D.png'></img>	71,89	2750.0	test	<img class = center src='/static/experiments/beast_fmri_test/images/redD.png'></img>	stop	1550.0	3.0	43.0	stop	non-target	D	71,Index Finger	89,Middle Finger	900.0	1200.0	1850.0	1550.0	0.0	1200.0	n/a	1.0	stop_stim
203158.85290441732	571.14709558265224	n/a	-1	-1	2750	571.147095583	stim	stop-signal	484	1315024	0.0-19.43-1.43	beast_fmri_test	328	1312482,/,1313161,/,1313841,/,1314520,/,1315200,/	t,t,t,t,t	<img class = center src='/static/experiments/beast_fmri_test/images/D.png'></img>	71,89	2750.0	test	<img class = center src='/static/experiments/beast_fmri_test/images/redD.png'></img>	stop	1550.0	3.0	43.0	stop	non-target	D	71,Index Finger	89,Middle Finger	900.0	1200.0	1850.0	1550.0	0.0	1200.0	n/a	1.0	ITI
204868	500	n/a	-1	-1	500	0.0	fixation	poldrack-single-stim	485	1316162	0.0-19.44-0.44	beast_fmri_test	328	1315880,/	t	<div class = centerbox2><div class = fixation>+</div></div>	none	500.0	test	n/a	n/a	n/a	n/a	n/a	n/a	n/a	n/a	n/a	n/a	n/a	n/a	n/a	n/a	n/a	n/a	n/a	n/a	fixation
200863.03658134188	1250.0	n/a	-1	-1	2750	4006.96341866	stim	stop-signal	486	1318914	0.0-19.44-1.44	beast_fmri_test	328	1316559,/,1317239,/,1317919,/,1318599,/,1319278,/,1319958,/,1320637,/,1321318,/,1321998,/,1322678,/	t,t,t,t,t,t,t,t,t,t	<img class = center src='/static/experiments/beast_fmri_test/images/V.png'></img>	71,89	2750.0	test	<img class = center src='/static/experiments/beast_fmri_test/images/redV.png'></img>	stop	1500.0	3.0	44.0	stop	non-target	V	71,Index Finger	89,Middle Finger	900.0	1250.0	1850.0	1500.0	0.0	1250.0	n/a	1.0	go_stim
202363.03658134188	1500.0	n/a	-1	-1	2750	4006.96341866	stim	stop-signal	486	1318914	0.0-19.44-1.44	beast_fmri_test	328	1316559,/,1317239,/,1317919,/,1318599,/,1319278,/,1319958,/,1320637,/,1321318,/,1321998,/,1322678,/	t,t,t,t,t,t,t,t,t,t	<img class = center src='/static/experiments/beast_fmri_test/images/V.png'></img>	71,89	2750.0	test	<img class = center src='/static/experiments/beast_fmri_test/images/redV.png'></img>	stop	1500.0	3.0	44.0	stop	non-target	V	71,Index Finger	89,Middle Finger	900.0	1250.0	1850.0	1500.0	0.0	1250.0	n/a	1.0	stop_stim
203613.03658134188	4006.9634186580888	n/a	-1	-1	2750	4006.96341866	stim	stop-signal	486	1318914	0.0-19.44-1.44	beast_fmri_test	328	1316559,/,1317239,/,1317919,/,1318599,/,1319278,/,1319958,/,1320637,/,1321318,/,1321998,/,1322678,/	t,t,t,t,t,t,t,t,t,t	<img class = center src='/static/experiments/beast_fmri_test/images/V.png'></img>	71,89	2750.0	test	<img class = center src='/static/experiments/beast_fmri_test/images/redV.png'></img>	stop	1500.0	3.0	44.0	stop	non-target	V	71,Index Finger	89,Middle Finger	900.0	1250.0	1850.0	1500.0	0.0	1250.0	n/a	1.0	ITI
212190	500	n/a	-1	-1	500	0.0	fixation	poldrack-single-stim	487	1323484	0.0-19.45-0.45	beast_fmri_test	328	1323357,/	t	<div class = centerbox2><div class = fixation>+</div></div>	none	500.0	test	n/a	n/a	n/a	n/a	n/a	n/a	n/a	n/a	n/a	n/a	n/a	n/a	n/a	n/a	n/a	n/a	n/a	n/a	fixation
209957.40905673592	900.0	n/a	-1	-1	2750	2234.59094326	stim	stop-signal	488	1326236	0.0-19.45-1.45	beast_fmri_test	328	1324037,/,1324715,/,1325396,/,1326076,/,1326755,/,1327435,/,1328115,/	t,t,t,t,t,t,t	<img class = center src='/static/experiments/beast_fmri_test/images/D.png'></img>	71,89	2750.0	test	<img class = center src='/static/experiments/beast_fmri_test/images/redD.png'></img>	stop	1850.0	3.0	45.0	stop	target	D	71,Index Finger	89,Middle Finger	900.0	1300.0	1850.0	1500.0	0.0	900.0	n/a	1.0	go_stim
211807.40905673592	1850.0	n/a	-1	-1	2750	2234.59094326	stim	stop-signal	488	1326236	0.0-19.45-1.45	beast_fmri_test	328	1324037,/,1324715,/,1325396,/,1326076,/,1326755,/,1327435,/,1328115,/	t,t,t,t,t,t,t	<img class = center src='/static/experiments/beast_fmri_test/images/D.png'></img>	71,89	2750.0	test	<img class = center src='/static/experiments/beast_fmri_test/images/redD.png'></img>	stop	1850.0	3.0	45.0	stop	target	D	71,Index Finger	89,Middle Finger	900.0	1300.0	1850.0	1500.0	0.0	900.0	n/a	1.0	stop_stim
212707.40905673592	2234.590943264122	n/a	-1	-1	2750	2234.59094326	stim	stop-signal	488	1326236	0.0-19.45-1.45	beast_fmri_test	328	1324037,/,1324715,/,1325396,/,1326076,/,1326755,/,1327435,/,1328115,/	t,t,t,t,t,t,t	<img class = center src='/static/experiments/beast_fmri_test/images/D.png'></img>	71,89	2750.0	test	<img class = center src='/static/experiments/beast_fmri_test/images/redD.png'></img>	stop	1850.0	3.0	45.0	stop	target	D	71,Index Finger	89,Middle Finger	900.0	1300.0	1850.0	1500.0	0.0	900.0	n/a	1.0	ITI
217740	500	n/a	-1	-1	500	0.0	fixation	poldrack-single-stim	489	1329034	0.0-19.46-0.46	beast_fmri_test	328	1328795,/	t	<div class = centerbox2><div class = fixation>+</div></div>	none	500.0	test	n/a	n/a	n/a	n/a	n/a	n/a	n/a	n/a	n/a	n/a	n/a	n/a	n/a	n/a	n/a	n/a	n/a	n/a	fixation
216177.81685675192	2750	n/a	1243	89	2750	1564.18314325	stim	stop-signal	490	1331786	0.0-19.46-1.46	beast_fmri_test	328	1329474,/,1330153,/,1330834,/,1331513,/,1332192,/,1332872,/	t,t,t,t,t,t	<img class = center src='/static/experiments/beast_fmri_test/images/P.png'></img>	71,89	2750.0	test	<img class = center src='/static/experiments/beast_fmri_test/images/redP.png'></img>	go	1450.0	3.0	46.0	go	non-target	P	71,Index Finger	89,Middle Finger	950.0	1300.0	1850.0	1450.0	1.0	1300.0	1.0	n/a	go_stim
218927.81685675192	1564.1831432481156	n/a	1243	89	2750	1564.18314325	stim	stop-signal	490	1331786	0.0-19.46-1.46	beast_fmri_test	328	1329474,/,1330153,/,1330834,/,1331513,/,1332192,/,1332872,/	t,t,t,t,t,t	<img class = center src='/static/experiments/beast_fmri_test/images/P.png'></img>	71,89	2750.0	test	<img class = center src='/static/experiments/beast_fmri_test/images/redP.png'></img>	go	1450.0	3.0	46.0	go	non-target	P	71,Index Finger	89,Middle Finger	950.0	1300.0	1850.0	1450.0	1.0	1300.0	1.0	n/a	ITI
222624	500	n/a	-1	-1	500	0.0	fixation	poldrack-single-stim	491	1333918	0.0-19.47-0.47	beast_fmri_test	328	1333553,/	t	<div class = centerbox2><div class = fixation>+</div></div>	none	500.0	test	n/a	n/a	n/a	n/a	n/a	n/a	n/a	n/a	n/a	n/a	n/a	n/a	n/a	n/a	n/a	n/a	n/a	n/a	fixation
222611.89876481961	2750	n/a	1355	89	2750	14.1012351805	stim	stop-signal	492	1336670	0.0-19.47-1.47	beast_fmri_test	328	1334231,/,1334911,/,1335591,/,1336271,/	t,t,t,t	<img class = center src='/static/experiments/beast_fmri_test/images/B.png'></img>	71,89	2750.0	test	<img class = center src='/static/experiments/beast_fmri_test/images/redB.png'></img>	go	1450.0	3.0	47.0	go	non-target	B	71,Index Finger	89,Middle Finger	950.0	1300.0	1850.0	1450.0	1.0	1300.0	1.0	n/a	go_stim
225361.89876481961	14.101235180499305	n/a	1355	89	2750	14.1012351805	stim	stop-signal	492	1336670	0.0-19.47-1.47	beast_fmri_test	328	1334231,/,1334911,/,1335591,/,1336271,/	t,t,t,t	<img class = center src='/static/experiments/beast_fmri_test/images/B.png'></img>	71,89	2750.0	test	<img class = center src='/static/experiments/beast_fmri_test/images/redB.png'></img>	go	1450.0	3.0	47.0	go	non-target	B	71,Index Finger	89,Middle Finger	950.0	1300.0	1850.0	1450.0	1.0	1300.0	1.0	n/a	ITI
240452	15000	n/a	-1	-1	15000	0.0	practice-no-stop-feedback	poldrack-single-stim	493	1351746	0.0-20.0	beast_fmri_test	328	1336951,/,1337630,/,1338310,/,1338989,/,1339669,/,1340347,/,1341029,/,1341709,/,1342388,/,1343067,/,1343746,/,1344426,/,1345106,/,1345785,/,1346466,/,1347144,/,1347825,/,1348505,/,1349184,/,1349863,/,1350544,/,1351224,/	t,t,t,t,t,t,t,t,t,t,t,t,t,t,t,t,t,t,t,t,t,t	"<div class = ""centerbox""><p class = ""block-text"">Your delay is 4 trials.</p><p class = block-text>Please wait for the scanner to start the block</p></div>"	77	15000.0	n/a	n/a	n/a	n/a	n/a	n/a	n/a	n/a	n/a	n/a	n/a	n/a	n/a	n/a	n/a	n/a	n/a	n/a	n/a	practice-no-stop-feedback
240956	500	n/a	-1	-1	500	0.0	fixation	poldrack-single-stim	494	1352250	0.0-21.0-0.0	beast_fmri_test	328	1351904,/	t	<div class = centerbox2><div class = fixation>+</div></div>	none	500.0	test	n/a	n/a	n/a	n/a	n/a	n/a	n/a	n/a	n/a	n/a	n/a	n/a	n/a	n/a	n/a	n/a	n/a	n/a	fixation
240946.75100820139	2750	n/a	-1	-1	2750	12.2489917986	stim	stop-signal	495	1355003	0.0-21.0-1.0	beast_fmri_test	328	1352583,/,1353262,/,1353943,/,1354621,/	t,t,t,t	<img class = center src='/static/experiments/beast_fmri_test/images/B.png'></img>	71,89	2750.0	test	<img class = center src='/static/experiments/beast_fmri_test/images/redB.png'></img>	go	-1.0	4.0	0.0	go	temp-non-target	B	71,Index Finger	89,Middle Finger	950.0	1300.0	1850.0	1450.0	0.0	n/a	n/a	n/a	go_stim
243696.75100820139	12.248991798622255	n/a	-1	-1	2750	12.2489917986	stim	stop-signal	495	1355003	0.0-21.0-1.0	beast_fmri_test	328	1352583,/,1353262,/,1353943,/,1354621,/	t,t,t,t	<img class = center src='/static/experiments/beast_fmri_test/images/B.png'></img>	71,89	2750.0	test	<img class = center src='/static/experiments/beast_fmri_test/images/redB.png'></img>	go	-1.0	4.0	0.0	go	temp-non-target	B	71,Index Finger	89,Middle Finger	950.0	1300.0	1850.0	1450.0	0.0	n/a	n/a	n/a	ITI
244287	500	n/a	-1	-1	500	0.0	fixation	poldrack-single-stim	496	1355581	0.0-21.1-0.1	beast_fmri_test	328	1355303,/	t	<div class = centerbox2><div class = fixation>+</div></div>	none	500.0	test	n/a	n/a	n/a	n/a	n/a	n/a	n/a	n/a	n/a	n/a	n/a	n/a	n/a	n/a	n/a	n/a	n/a	n/a	fixation
244007.38054124149	temp_go_duration	n/a	-1	-1	2750	281.619458758	stim	stop-signal	497	1358333	0.0-21.1-1.1	beast_fmri_test	328	1355982,/,1356661,/,1357341,/,1358021,/	t,t,t,t	<img class = center src='/static/experiments/beast_fmri_test/images/P.png'></img>	71,89	2750.0	test	<img class = center src='/static/experiments/beast_fmri_test/images/redP.png'></img>	stop	-1.0	4.0	1.0	stop	temp-non-target	P	71,Index Finger	89,Middle Finger	950.0	1300.0	1850.0	1450.0	0.0	n/a	n/a	1.0	go_stim
temp-non-target	temp_stop_duration	n/a	-1	-1	2750	281.619458758	stim	stop-signal	497	1358333	0.0-21.1-1.1	beast_fmri_test	328	1355982,/,1356661,/,1357341,/,1358021,/	t,t,t,t	<img class = center src='/static/experiments/beast_fmri_test/images/P.png'></img>	71,89	2750.0	test	<img class = center src='/static/experiments/beast_fmri_test/images/redP.png'></img>	stop	-1.0	4.0	1.0	stop	temp-non-target	P	71,Index Finger	89,Middle Finger	950.0	1300.0	1850.0	1450.0	0.0	n/a	n/a	1.0	stop_stim
246757.38054124149	281.61945875839029	n/a	-1	-1	2750	281.619458758	stim	stop-signal	497	1358333	0.0-21.1-1.1	beast_fmri_test	328	1355982,/,1356661,/,1357341,/,1358021,/	t,t,t,t	<img class = center src='/static/experiments/beast_fmri_test/images/P.png'></img>	71,89	2750.0	test	<img class = center src='/static/experiments/beast_fmri_test/images/redP.png'></img>	stop	-1.0	4.0	1.0	stop	temp-non-target	P	71,Index Finger	89,Middle Finger	950.0	1300.0	1850.0	1450.0	0.0	n/a	n/a	1.0	ITI
247887	500	n/a	-1	-1	500	0.0	fixation	poldrack-single-stim	498	1359181	0.0-21.2-0.2	beast_fmri_test	328	1358700,/	t	<div class = centerbox2><div class = fixation>+</div></div>	none	500.0	test	n/a	n/a	n/a	n/a	n/a	n/a	n/a	n/a	n/a	n/a	n/a	n/a	n/a	n/a	n/a	n/a	n/a	n/a	fixation
246814.23680982389	2750	n/a	-1	-1	2750	1075.76319018	stim	stop-signal	499	1361934	0.0-21.2-1.2	beast_fmri_test	328	1359380,/,1360060,/,1360740,/,1361418,/,1362098,/,1362778,/	t,t,t,t,t,t	<img class = center src='/static/experiments/beast_fmri_test/images/P.png'></img>	71,89	2750.0	test	<img class = center src='/static/experiments/beast_fmri_test/images/redP.png'></img>	go	-1.0	4.0	2.0	go	temp-non-target	P	71,Index Finger	89,Middle Finger	950.0	1300.0	1850.0	1450.0	0.0	n/a	n/a	n/a	go_stim
249564.23680982389	1075.7631901761067	n/a	-1	-1	2750	1075.76319018	stim	stop-signal	499	1361934	0.0-21.2-1.2	beast_fmri_test	328	1359380,/,1360060,/,1360740,/,1361418,/,1362098,/,1362778,/	t,t,t,t,t,t	<img class = center src='/static/experiments/beast_fmri_test/images/P.png'></img>	71,89	2750.0	test	<img class = center src='/static/experiments/beast_fmri_test/images/redP.png'></img>	go	-1.0	4.0	2.0	go	temp-non-target	P	71,Index Finger	89,Middle Finger	950.0	1300.0	1850.0	1450.0	0.0	n/a	n/a	n/a	ITI
252286	500	n/a	-1	-1	500	0.0	fixation	poldrack-single-stim	500	1363580	0.0-21.3-0.3	beast_fmri_test	328	1363457,/	t	<div class = centerbox2><div class = fixation>+</div></div>	none	500.0	test	n/a	n/a	n/a	n/a	n/a	n/a	n/a	n/a	n/a	n/a	n/a	n/a	n/a	n/a	n/a	n/a	n/a	n/a	fixation
252207.17720862874	2750	n/a	-1	-1	2750	80.8227913712	stim	stop-signal	501	1366332	0.0-21.3-1.3	beast_fmri_test	328	1364137,/,1364818,/,1365496,/,1366177,/	t,t,t,t	<img class = center src='/static/experiments/beast_fmri_test/images/T.png'></img>	71,89	2750.0	test	<img class = center src='/static/experiments/beast_fmri_test/images/redT.png'></img>	go	-1.0	4.0	3.0	go	temp-non-target	T	71,Index Finger	89,Middle Finger	950.0	1300.0	1850.0	1450.0	0.0	n/a	n/a	n/a	go_stim
254957.17720862874	80.822791371225961	n/a	-1	-1	2750	80.8227913712	stim	stop-signal	501	1366332	0.0-21.3-1.3	beast_fmri_test	328	1364137,/,1364818,/,1365496,/,1366177,/	t,t,t,t	<img class = center src='/static/experiments/beast_fmri_test/images/T.png'></img>	71,89	2750.0	test	<img class = center src='/static/experiments/beast_fmri_test/images/redT.png'></img>	go	-1.0	4.0	3.0	go	temp-non-target	T	71,Index Finger	89,Middle Finger	950.0	1300.0	1850.0	1450.0	0.0	n/a	n/a	n/a	ITI
255688	500	n/a	-1	-1	500	0.0	fixation	poldrack-single-stim	502	1366982	0.0-21.4-0.4	beast_fmri_test	328	1366856,/	t	<div class = centerbox2><div class = fixation>+</div></div>	none	500.0	test	n/a	n/a	n/a	n/a	n/a	n/a	n/a	n/a	n/a	n/a	n/a	n/a	n/a	n/a	n/a	n/a	n/a	n/a	fixation
253522.47847255226	2750	n/a	1051	89	2750	2167.52152745	stim	stop-signal	503	1369734	0.0-21.4-1.4	beast_fmri_test	328	1367536,/,1368215,/,1368894,/,1369574,/,1370255,/,1370934,/,1371613,/	t,t,t,t,t,t,t	<img class = center src='/static/experiments/beast_fmri_test/images/P.png'></img>	71,89	2750.0	test	<img class = center src='/static/experiments/beast_fmri_test/images/redP.png'></img>	go	1450.0	4.0	4.0	go	non-target	P	71,Index Finger	89,Middle Finger	950.0	1300.0	1850.0	1450.0	1.0	1300.0	1.0	n/a	go_stim
256272.47847255226	2167.5215274477687	n/a	1051	89	2750	2167.52152745	stim	stop-signal	503	1369734	0.0-21.4-1.4	beast_fmri_test	328	1367536,/,1368215,/,1368894,/,1369574,/,1370255,/,1370934,/,1371613,/	t,t,t,t,t,t,t	<img class = center src='/static/experiments/beast_fmri_test/images/P.png'></img>	71,89	2750.0	test	<img class = center src='/static/experiments/beast_fmri_test/images/redP.png'></img>	go	1450.0	4.0	4.0	go	non-target	P	71,Index Finger	89,Middle Finger	950.0	1300.0	1850.0	1450.0	1.0	1300.0	1.0	n/a	ITI
261180	500	n/a	-1	-1	500	0.0	fixation	poldrack-single-stim	504	1372474	0.0-21.5-0.5	beast_fmri_test	328	1372294,/	t	<div class = centerbox2><div class = fixation>+</div></div>	none	500.0	test	n/a	n/a	n/a	n/a	n/a	n/a	n/a	n/a	n/a	n/a	n/a	n/a	n/a	n/a	n/a	n/a	n/a	n/a	fixation
260755.07370625134	1300.0	n/a	840	89	2750	426.926293749	stim	stop-signal	505	1375226	0.0-21.5-1.5	beast_fmri_test	328	1372974,/,1373654,/,1374333,/,1375014,/	t,t,t,t	<img class = center src='/static/experiments/beast_fmri_test/images/B.png'></img>	71,89	2750.0	test	<img class = center src='/static/experiments/beast_fmri_test/images/redB.png'></img>	stop	1450.0	4.0	5.0	stop	non-target	B	71,Index Finger	89,Middle Finger	950.0	1300.0	1850.0	1450.0	0.0	1300.0	n/a	0.0	go_stim
262205.07370625134	1450.0	n/a	840	89	2750	426.926293749	stim	stop-signal	505	1375226	0.0-21.5-1.5	beast_fmri_test	328	1372974,/,1373654,/,1374333,/,1375014,/	t,t,t,t	<img class = center src='/static/experiments/beast_fmri_test/images/B.png'></img>	71,89	2750.0	test	<img class = center src='/static/experiments/beast_fmri_test/images/redB.png'></img>	stop	1450.0	4.0	5.0	stop	non-target	B	71,Index Finger	89,Middle Finger	950.0	1300.0	1850.0	1450.0	0.0	1300.0	n/a	0.0	stop_stim
263505.07370625134	426.92629374866783	n/a	840	89	2750	426.926293749	stim	stop-signal	505	1375226	0.0-21.5-1.5	beast_fmri_test	328	1372974,/,1373654,/,1374333,/,1375014,/	t,t,t,t	<img class = center src='/static/experiments/beast_fmri_test/images/B.png'></img>	71,89	2750.0	test	<img class = center src='/static/experiments/beast_fmri_test/images/redB.png'></img>	stop	1450.0	4.0	5.0	stop	non-target	B	71,Index Finger	89,Middle Finger	950.0	1300.0	1850.0	1450.0	0.0	1300.0	n/a	0.0	ITI
264937	500	n/a	-1	-1	500	0.0	fixation	poldrack-single-stim	506	1376231	0.0-21.6-0.6	beast_fmri_test	328	1375730,/	t	<div class = centerbox2><div class = fixation>+</div></div>	none	500.0	test	n/a	n/a	n/a	n/a	n/a	n/a	n/a	n/a	n/a	n/a	n/a	n/a	n/a	n/a	n/a	n/a	n/a	n/a	fixation
264552.65009931731	2750	n/a	1350	89	2750	387.349900683	stim	stop-signal	507	1378984	0.0-21.6-1.6	beast_fmri_test	328	1376373,/,1377053,/,1377733,/,1378412,/,1379092,/	t,t,t,t,t	<img class = center src='/static/experiments/beast_fmri_test/images/T.png'></img>	71,89	2750.0	test	<img class = center src='/static/experiments/beast_fmri_test/images/redT.png'></img>	go	1500.0	4.0	6.0	go	non-target	T	71,Index Finger	89,Middle Finger	950.0	1250.0	1850.0	1500.0	1.0	1250.0	1.0	n/a	go_stim
267302.65009931731	387.34990068260316	n/a	1350	89	2750	387.349900683	stim	stop-signal	507	1378984	0.0-21.6-1.6	beast_fmri_test	328	1376373,/,1377053,/,1377733,/,1378412,/,1379092,/	t,t,t,t,t	<img class = center src='/static/experiments/beast_fmri_test/images/T.png'></img>	71,89	2750.0	test	<img class = center src='/static/experiments/beast_fmri_test/images/redT.png'></img>	go	1500.0	4.0	6.0	go	non-target	T	71,Index Finger	89,Middle Finger	950.0	1250.0	1850.0	1500.0	1.0	1250.0	1.0	n/a	ITI
268645	500	n/a	-1	-1	500	0.0	fixation	poldrack-single-stim	508	1379939	0.0-21.7-0.7	beast_fmri_test	328	1379771,/	t	<div class = centerbox2><div class = fixation>+</div></div>	none	500.0	test	n/a	n/a	n/a	n/a	n/a	n/a	n/a	n/a	n/a	n/a	n/a	n/a	n/a	n/a	n/a	n/a	n/a	n/a	fixation
267261.99309722753	2750	n/a	2143	89	2750	1384.00690277	stim	stop-signal	509	1382690	0.0-21.7-1.7	beast_fmri_test	328	1380450,/,1381130,/,1381880,/,1382489,/,1383169,/,1383850,/	t,t,t,t,t,t	<img class = center src='/static/experiments/beast_fmri_test/images/P.png'></img>	71,89	2750.0	test	<img class = center src='/static/experiments/beast_fmri_test/images/redP.png'></img>	go	1500.0	4.0	7.0	go	non-target	P	71,Index Finger	89,Middle Finger	950.0	1250.0	1850.0	1500.0	1.0	1250.0	1.0	n/a	go_stim
270011.99309722753	1384.0069027725451	n/a	2143	89	2750	1384.00690277	stim	stop-signal	509	1382690	0.0-21.7-1.7	beast_fmri_test	328	1380450,/,1381130,/,1381880,/,1382489,/,1383169,/,1383850,/	t,t,t,t,t,t	<img class = center src='/static/experiments/beast_fmri_test/images/P.png'></img>	71,89	2750.0	test	<img class = center src='/static/experiments/beast_fmri_test/images/redP.png'></img>	go	1500.0	4.0	7.0	go	non-target	P	71,Index Finger	89,Middle Finger	950.0	1250.0	1850.0	1500.0	1.0	1250.0	1.0	n/a	ITI
273339	500	n/a	-1	-1	500	0.0	fixation	poldrack-single-stim	510	1384633	0.0-21.8-0.8	beast_fmri_test	328	1384530,/	t	<div class = centerbox2><div class = fixation>+</div></div>	none	500.0	test	n/a	n/a	n/a	n/a	n/a	n/a	n/a	n/a	n/a	n/a	n/a	n/a	n/a	n/a	n/a	n/a	n/a	n/a	fixation
273185.83484290214	2750	n/a	1576	89	2750	155.165157098	stim	stop-signal	511	1387385	0.0-21.8-1.8	beast_fmri_test	328	1385208,/,1385888,/,1386568,/,1387246,/	t,t,t,t	<img class = center src='/static/experiments/beast_fmri_test/images/P.png'></img>	71,89	2750.0	test	<img class = center src='/static/experiments/beast_fmri_test/images/redP.png'></img>	go	1800.0	4.0	8.0	go	target	P	71,Index Finger	89,Middle Finger	950.0	1250.0	1800.0	1500.0	0.0	950.0	0.0	n/a	go_stim
275935.83484290214	155.16515709775024	n/a	1576	89	2750	155.165157098	stim	stop-signal	511	1387385	0.0-21.8-1.8	beast_fmri_test	328	1385208,/,1385888,/,1386568,/,1387246,/	t,t,t,t	<img class = center src='/static/experiments/beast_fmri_test/images/P.png'></img>	71,89	2750.0	test	<img class = center src='/static/experiments/beast_fmri_test/images/redP.png'></img>	go	1800.0	4.0	8.0	go	target	P	71,Index Finger	89,Middle Finger	950.0	1250.0	1800.0	1500.0	0.0	950.0	0.0	n/a	ITI
276808	500	n/a	-1	-1	500	0.0	fixation	poldrack-single-stim	512	1388102	0.0-21.9-0.9	beast_fmri_test	328	1387928,/	t	<div class = centerbox2><div class = fixation>+</div></div>	none	500.0	test	n/a	n/a	n/a	n/a	n/a	n/a	n/a	n/a	n/a	n/a	n/a	n/a	n/a	n/a	n/a	n/a	n/a	n/a	fixation
276627.19768605451	1250.0	n/a	1472	89	2750	183.802313945	stim	stop-signal	513	1390855	0.0-21.9-1.9	beast_fmri_test	328	1388608,/,1389287,/,1389966,/,1390646,/	t,t,t,t	<img class = center src='/static/experiments/beast_fmri_test/images/D.png'></img>	71,89	2750.0	test	<img class = center src='/static/experiments/beast_fmri_test/images/redD.png'></img>	stop	1500.0	4.0	9.0	stop	non-target	D	71,Index Finger	89,Middle Finger	950.0	1250.0	1800.0	1500.0	0.0	1250.0	n/a	0.0	go_stim
278127.19768605451	1500.0	n/a	1472	89	2750	183.802313945	stim	stop-signal	513	1390855	0.0-21.9-1.9	beast_fmri_test	328	1388608,/,1389287,/,1389966,/,1390646,/	t,t,t,t	<img class = center src='/static/experiments/beast_fmri_test/images/D.png'></img>	71,89	2750.0	test	<img class = center src='/static/experiments/beast_fmri_test/images/redD.png'></img>	stop	1500.0	4.0	9.0	stop	non-target	D	71,Index Finger	89,Middle Finger	950.0	1250.0	1800.0	1500.0	0.0	1250.0	n/a	0.0	stop_stim
279377.19768605451	183.80231394545632	n/a	1472	89	2750	183.802313945	stim	stop-signal	513	1390855	0.0-21.9-1.9	beast_fmri_test	328	1388608,/,1389287,/,1389966,/,1390646,/	t,t,t,t	<img class = center src='/static/experiments/beast_fmri_test/images/D.png'></img>	71,89	2750.0	test	<img class = center src='/static/experiments/beast_fmri_test/images/redD.png'></img>	stop	1500.0	4.0	9.0	stop	non-target	D	71,Index Finger	89,Middle Finger	950.0	1250.0	1800.0	1500.0	0.0	1250.0	n/a	0.0	ITI
280301	500	n/a	-1	-1	500	0.0	fixation	poldrack-single-stim	514	1391595	0.0-21.10-0.10	beast_fmri_test	328	1391326,/	t	<div class = centerbox2><div class = fixation>+</div></div>	none	500.0	test	n/a	n/a	n/a	n/a	n/a	n/a	n/a	n/a	n/a	n/a	n/a	n/a	n/a	n/a	n/a	n/a	n/a	n/a	fixation
279934.60089388955	2750	n/a	2102	71	2750	368.39910611	stim	stop-signal	515	1394347	0.0-21.10-1.10	beast_fmri_test	328	1392006,/,1392685,/,1393365,/,1394044,/	t,t,t,t	<img class = center src='/static/experiments/beast_fmri_test/images/B.png'></img>	71,89	2750.0	test	<img class = center src='/static/experiments/beast_fmri_test/images/redB.png'></img>	go	1550.0	4.0	10.0	go	non-target	B	71,Index Finger	89,Middle Finger	950.0	1200.0	1800.0	1550.0	0.0	1200.0	0.0	n/a	go_stim
282684.60089388955	368.39910611033571	n/a	2102	71	2750	368.39910611	stim	stop-signal	515	1394347	0.0-21.10-1.10	beast_fmri_test	328	1392006,/,1392685,/,1393365,/,1394044,/	t,t,t,t	<img class = center src='/static/experiments/beast_fmri_test/images/B.png'></img>	71,89	2750.0	test	<img class = center src='/static/experiments/beast_fmri_test/images/redB.png'></img>	go	1550.0	4.0	10.0	go	non-target	B	71,Index Finger	89,Middle Finger	950.0	1200.0	1800.0	1550.0	0.0	1200.0	0.0	n/a	ITI
283985	500	n/a	-1	-1	500	0.0	fixation	poldrack-single-stim	516	1395279	0.0-21.11-0.11	beast_fmri_test	328	1394778,/	t	<div class = centerbox2><div class = fixation>+</div></div>	none	500.0	test	n/a	n/a	n/a	n/a	n/a	n/a	n/a	n/a	n/a	n/a	n/a	n/a	n/a	n/a	n/a	n/a	n/a	n/a	fixation
283952.04091991554	2750	n/a	1493	89	2750	34.9590800845	stim	stop-signal	517	1398031	0.0-21.11-1.11	beast_fmri_test	328	1395403,/,1396083,/,1396762,/,1397443,/	t,t,t,t	<img class = center src='/static/experiments/beast_fmri_test/images/P.png'></img>	71,89	2750.0	test	<img class = center src='/static/experiments/beast_fmri_test/images/redP.png'></img>	go	1800.0	4.0	11.0	go	target	P	71,Index Finger	89,Middle Finger	950.0	1200.0	1800.0	1550.0	0.0	950.0	0.0	n/a	go_stim
286702.04091991554	34.959080084502396	n/a	1493	89	2750	34.9590800845	stim	stop-signal	517	1398031	0.0-21.11-1.11	beast_fmri_test	328	1395403,/,1396083,/,1396762,/,1397443,/	t,t,t,t	<img class = center src='/static/experiments/beast_fmri_test/images/P.png'></img>	71,89	2750.0	test	<img class = center src='/static/experiments/beast_fmri_test/images/redP.png'></img>	go	1800.0	4.0	11.0	go	target	P	71,Index Finger	89,Middle Finger	950.0	1200.0	1800.0	1550.0	0.0	950.0	0.0	n/a	ITI
287335	500	n/a	-1	-1	500	0.0	fixation	poldrack-single-stim	518	1398629	0.0-21.12-0.12	beast_fmri_test	328	1398128,/	t	<div class = centerbox2><div class = fixation>+</div></div>	none	500.0	test	n/a	n/a	n/a	n/a	n/a	n/a	n/a	n/a	n/a	n/a	n/a	n/a	n/a	n/a	n/a	n/a	n/a	n/a	fixation
285235.87740868586	1200.0	n/a	-1	-1	2750	2101.12259131	stim	stop-signal	519	1401381	0.0-21.12-1.12	beast_fmri_test	328	1398801,/,1399481,/,1400160,/,1400841,/,1401519,/,1402199,/,1402879,/	t,t,t,t,t,t,t	<img class = center src='/static/experiments/beast_fmri_test/images/V.png'></img>	71,89	2750.0	test	<img class = center src='/static/experiments/beast_fmri_test/images/redV.png'></img>	stop	1550.0	4.0	12.0	stop	non-target	V	71,Index Finger	89,Middle Finger	950.0	1200.0	1800.0	1550.0	0.0	1200.0	n/a	1.0	go_stim
286785.87740868586	1550.0	n/a	-1	-1	2750	2101.12259131	stim	stop-signal	519	1401381	0.0-21.12-1.12	beast_fmri_test	328	1398801,/,1399481,/,1400160,/,1400841,/,1401519,/,1402199,/,1402879,/	t,t,t,t,t,t,t	<img class = center src='/static/experiments/beast_fmri_test/images/V.png'></img>	71,89	2750.0	test	<img class = center src='/static/experiments/beast_fmri_test/images/redV.png'></img>	stop	1550.0	4.0	12.0	stop	non-target	V	71,Index Finger	89,Middle Finger	950.0	1200.0	1800.0	1550.0	0.0	1200.0	n/a	1.0	stop_stim
287985.87740868586	2101.1225913141611	n/a	-1	-1	2750	2101.12259131	stim	stop-signal	519	1401381	0.0-21.12-1.12	beast_fmri_test	328	1398801,/,1399481,/,1400160,/,1400841,/,1401519,/,1402199,/,1402879,/	t,t,t,t,t,t,t	<img class = center src='/static/experiments/beast_fmri_test/images/V.png'></img>	71,89	2750.0	test	<img class = center src='/static/experiments/beast_fmri_test/images/redV.png'></img>	stop	1550.0	4.0	12.0	stop	non-target	V	71,Index Finger	89,Middle Finger	950.0	1200.0	1800.0	1550.0	0.0	1200.0	n/a	1.0	ITI
292753	500	n/a	-1	-1	500	0.0	fixation	poldrack-single-stim	520	1404047	0.0-21.13-0.13	beast_fmri_test	328	1403559,/	t	<div class = centerbox2><div class = fixation>+</div></div>	none	500.0	test	n/a	n/a	n/a	n/a	n/a	n/a	n/a	n/a	n/a	n/a	n/a	n/a	n/a	n/a	n/a	n/a	n/a	n/a	fixation
291965.47934462968	1250.0	n/a	1020	89	2750	789.52065537	stim	stop-signal	521	1406799	0.0-21.13-1.13	beast_fmri_test	328	1404239,/,1404918,/,1405598,/,1406278,/,1406957,/	t,t,t,t,t	<img class = center src='/static/experiments/beast_fmri_test/images/P.png'></img>	71,89	2750.0	test	<img class = center src='/static/experiments/beast_fmri_test/images/redP.png'></img>	stop	1500.0	4.0	13.0	stop	non-target	P	71,Index Finger	89,Middle Finger	950.0	1250.0	1800.0	1500.0	0.0	1250.0	n/a	0.0	go_stim
293465.47934462968	1500.0	n/a	1020	89	2750	789.52065537	stim	stop-signal	521	1406799	0.0-21.13-1.13	beast_fmri_test	328	1404239,/,1404918,/,1405598,/,1406278,/,1406957,/	t,t,t,t,t	<img class = center src='/static/experiments/beast_fmri_test/images/P.png'></img>	71,89	2750.0	test	<img class = center src='/static/experiments/beast_fmri_test/images/redP.png'></img>	stop	1500.0	4.0	13.0	stop	non-target	P	71,Index Finger	89,Middle Finger	950.0	1250.0	1800.0	1500.0	0.0	1250.0	n/a	0.0	stop_stim
294715.47934462968	789.52065537025203	n/a	1020	89	2750	789.52065537	stim	stop-signal	521	1406799	0.0-21.13-1.13	beast_fmri_test	328	1404239,/,1404918,/,1405598,/,1406278,/,1406957,/	t,t,t,t,t	<img class = center src='/static/experiments/beast_fmri_test/images/P.png'></img>	71,89	2750.0	test	<img class = center src='/static/experiments/beast_fmri_test/images/redP.png'></img>	stop	1500.0	4.0	13.0	stop	non-target	P	71,Index Finger	89,Middle Finger	950.0	1250.0	1800.0	1500.0	0.0	1250.0	n/a	0.0	ITI
296863	500	n/a	-1	-1	500	0.0	fixation	poldrack-single-stim	522	1408157	0.0-21.14-0.14	beast_fmri_test	328	1407656,/	t	<div class = centerbox2><div class = fixation>+</div></div>	none	500.0	test	n/a	n/a	n/a	n/a	n/a	n/a	n/a	n/a	n/a	n/a	n/a	n/a	n/a	n/a	n/a	n/a	n/a	n/a	fixation
294632.79514637543	2750	n/a	1153	89	2750	2233.20485362	stim	stop-signal	523	1410910	0.0-21.14-1.14	beast_fmri_test	328	1408317,/,1408998,/,1409677,/,1410357,/,1411036,/,1411717,/,1412396,/,1413075,/	t,t,t,t,t,t,t,t	<img class = center src='/static/experiments/beast_fmri_test/images/P.png'></img>	71,89	2750.0	test	<img class = center src='/static/experiments/beast_fmri_test/images/redP.png'></img>	go	1550.0	4.0	14.0	go	non-target	P	71,Index Finger	89,Middle Finger	950.0	1200.0	1800.0	1550.0	1.0	1200.0	1.0	n/a	go_stim
297382.79514637543	2233.2048536246052	n/a	1153	89	2750	2233.20485362	stim	stop-signal	523	1410910	0.0-21.14-1.14	beast_fmri_test	328	1408317,/,1408998,/,1409677,/,1410357,/,1411036,/,1411717,/,1412396,/,1413075,/	t,t,t,t,t,t,t,t	<img class = center src='/static/experiments/beast_fmri_test/images/P.png'></img>	71,89	2750.0	test	<img class = center src='/static/experiments/beast_fmri_test/images/redP.png'></img>	go	1550.0	4.0	14.0	go	non-target	P	71,Index Finger	89,Middle Finger	950.0	1200.0	1800.0	1550.0	1.0	1200.0	1.0	n/a	ITI
302413	500	n/a	-1	-1	500	0.0	fixation	poldrack-single-stim	524	1413707	0.0-21.15-0.15	beast_fmri_test	328	n/a	n/a	<div class = centerbox2><div class = fixation>+</div></div>	none	500.0	test	n/a	n/a	n/a	n/a	n/a	n/a	n/a	n/a	n/a	n/a	n/a	n/a	n/a	n/a	n/a	n/a	n/a	n/a	fixation
301944.64020646317	950.0	n/a	-1	-1	2750	470.359793537	stim	stop-signal	525	1416459	0.0-21.15-1.15	beast_fmri_test	328	1413756,/,1414434,/,1415114,/,1415795,/,1416474,/	t,t,t,t,t	<img class = center src='/static/experiments/beast_fmri_test/images/P.png'></img>	71,89	2750.0	test	<img class = center src='/static/experiments/beast_fmri_test/images/redP.png'></img>	stop	1800.0	4.0	15.0	stop	target	P	71,Index Finger	89,Middle Finger	950.0	1200.0	1800.0	1550.0	0.0	950.0	n/a	1.0	go_stim
303744.64020646317	1800.0	n/a	-1	-1	2750	470.359793537	stim	stop-signal	525	1416459	0.0-21.15-1.15	beast_fmri_test	328	1413756,/,1414434,/,1415114,/,1415795,/,1416474,/	t,t,t,t,t	<img class = center src='/static/experiments/beast_fmri_test/images/P.png'></img>	71,89	2750.0	test	<img class = center src='/static/experiments/beast_fmri_test/images/redP.png'></img>	stop	1800.0	4.0	15.0	stop	target	P	71,Index Finger	89,Middle Finger	950.0	1200.0	1800.0	1550.0	0.0	950.0	n/a	1.0	stop_stim
304694.64020646317	470.35979353686628	n/a	-1	-1	2750	470.359793537	stim	stop-signal	525	1416459	0.0-21.15-1.15	beast_fmri_test	328	1413756,/,1414434,/,1415114,/,1415795,/,1416474,/	t,t,t,t,t	<img class = center src='/static/experiments/beast_fmri_test/images/P.png'></img>	71,89	2750.0	test	<img class = center src='/static/experiments/beast_fmri_test/images/redP.png'></img>	stop	1800.0	4.0	15.0	stop	target	P	71,Index Finger	89,Middle Finger	950.0	1200.0	1800.0	1550.0	0.0	950.0	n/a	1.0	ITI
306205	500	n/a	-1	-1	500	0.0	fixation	poldrack-single-stim	526	1417499	0.0-21.16-0.16	beast_fmri_test	328	1417153,/	t	<div class = centerbox2><div class = fixation>+</div></div>	none	500.0	test	n/a	n/a	n/a	n/a	n/a	n/a	n/a	n/a	n/a	n/a	n/a	n/a	n/a	n/a	n/a	n/a	n/a	n/a	fixation
303715.59411030635	2750	n/a	-1	-1	2750	2492.40588969	stim	stop-signal	527	1420252	0.0-21.16-1.16	beast_fmri_test	328	1417833,/,1418512,/,1419193,/,1419873,/,1420552,/,1421231,/,1421912,/,1422591,/	t,t,t,t,t,t,t,t	<img class = center src='/static/experiments/beast_fmri_test/images/P.png'></img>	71,89	2750.0	test	<img class = center src='/static/experiments/beast_fmri_test/images/redP.png'></img>	go	1550.0	4.0	16.0	go	non-target	P	71,Index Finger	89,Middle Finger	1000.0	1200.0	1800.0	1550.0	0.0	1200.0	0.0	n/a	go_stim
306465.59411030635	2492.4058896935408	n/a	-1	-1	2750	2492.40588969	stim	stop-signal	527	1420252	0.0-21.16-1.16	beast_fmri_test	328	1417833,/,1418512,/,1419193,/,1419873,/,1420552,/,1421231,/,1421912,/,1422591,/	t,t,t,t,t,t,t,t	<img class = center src='/static/experiments/beast_fmri_test/images/P.png'></img>	71,89	2750.0	test	<img class = center src='/static/experiments/beast_fmri_test/images/redP.png'></img>	go	1550.0	4.0	16.0	go	non-target	P	71,Index Finger	89,Middle Finger	1000.0	1200.0	1800.0	1550.0	0.0	1200.0	0.0	n/a	ITI
312017	500	n/a	-1	-1	500	0.0	fixation	poldrack-single-stim	528	1423311	0.0-21.17-0.17	beast_fmri_test	328	1423271,/	t	<div class = centerbox2><div class = fixation>+</div></div>	none	500.0	test	n/a	n/a	n/a	n/a	n/a	n/a	n/a	n/a	n/a	n/a	n/a	n/a	n/a	n/a	n/a	n/a	n/a	n/a	fixation
311196.8310601369	1200.0	n/a	1197	89	2750	822.168939863	stim	stop-signal	529	1426063	0.0-21.17-1.17	beast_fmri_test	328	1423950,/,1424630,/,1425310,/,1425989,/,1426668,/	t,t,t,t,t	<img class = center src='/static/experiments/beast_fmri_test/images/D.png'></img>	71,89	2750.0	test	<img class = center src='/static/experiments/beast_fmri_test/images/redD.png'></img>	stop	1550.0	4.0	17.0	stop	non-target	D	71,Index Finger	89,Middle Finger	1000.0	1200.0	1800.0	1550.0	0.0	1200.0	n/a	0.0	go_stim
312746.8310601369	1550.0	n/a	1197	89	2750	822.168939863	stim	stop-signal	529	1426063	0.0-21.17-1.17	beast_fmri_test	328	1423950,/,1424630,/,1425310,/,1425989,/,1426668,/	t,t,t,t,t	<img class = center src='/static/experiments/beast_fmri_test/images/D.png'></img>	71,89	2750.0	test	<img class = center src='/static/experiments/beast_fmri_test/images/redD.png'></img>	stop	1550.0	4.0	17.0	stop	non-target	D	71,Index Finger	89,Middle Finger	1000.0	1200.0	1800.0	1550.0	0.0	1200.0	n/a	0.0	stop_stim
313946.8310601369	822.16893986309719	n/a	1197	89	2750	822.168939863	stim	stop-signal	529	1426063	0.0-21.17-1.17	beast_fmri_test	328	1423950,/,1424630,/,1425310,/,1425989,/,1426668,/	t,t,t,t,t	<img class = center src='/static/experiments/beast_fmri_test/images/D.png'></img>	71,89	2750.0	test	<img class = center src='/static/experiments/beast_fmri_test/images/redD.png'></img>	stop	1550.0	4.0	17.0	stop	non-target	D	71,Index Finger	89,Middle Finger	1000.0	1200.0	1800.0	1550.0	0.0	1200.0	n/a	0.0	ITI
316163	500	n/a	-1	-1	500	0.0	fixation	poldrack-single-stim	530	1427457	0.0-21.18-0.18	beast_fmri_test	328	1427349,/	t	<div class = centerbox2><div class = fixation>+</div></div>	none	500.0	test	n/a	n/a	n/a	n/a	n/a	n/a	n/a	n/a	n/a	n/a	n/a	n/a	n/a	n/a	n/a	n/a	n/a	n/a	fixation
313990.62886703969	2750	n/a	1362	89	2750	2173.37113296	stim	stop-signal	531	1430208	0.0-21.18-1.18	beast_fmri_test	328	1428028,/,1428708,/,1429386,/,1430068,/,1430747,/,1431426,/,1432106,/	t,t,t,t,t,t,t	<img class = center src='/static/experiments/beast_fmri_test/images/V.png'></img>	71,89	2750.0	test	<img class = center src='/static/experiments/beast_fmri_test/images/redV.png'></img>	go	1600.0	4.0	18.0	go	non-target	V	71,Index Finger	89,Middle Finger	1000.0	1150.0	1800.0	1600.0	1.0	1150.0	1.0	n/a	go_stim
316740.62886703969	2173.3711329603784	n/a	1362	89	2750	2173.37113296	stim	stop-signal	531	1430208	0.0-21.18-1.18	beast_fmri_test	328	1428028,/,1428708,/,1429386,/,1430068,/,1430747,/,1431426,/,1432106,/	t,t,t,t,t,t,t	<img class = center src='/static/experiments/beast_fmri_test/images/V.png'></img>	71,89	2750.0	test	<img class = center src='/static/experiments/beast_fmri_test/images/redV.png'></img>	go	1600.0	4.0	18.0	go	non-target	V	71,Index Finger	89,Middle Finger	1000.0	1150.0	1800.0	1600.0	1.0	1150.0	1.0	n/a	ITI
321653	500	n/a	-1	-1	500	0.0	fixation	poldrack-single-stim	532	1432947	0.0-21.19-0.19	beast_fmri_test	328	1432788,/	t	<div class = centerbox2><div class = fixation>+</div></div>	none	500.0	test	n/a	n/a	n/a	n/a	n/a	n/a	n/a	n/a	n/a	n/a	n/a	n/a	n/a	n/a	n/a	n/a	n/a	n/a	fixation
321342.39750237809	1000.0	n/a	672	71	2750	311.602497622	stim	stop-signal	533	1435698	0.0-21.19-1.19	beast_fmri_test	328	1433467,/,1434145,/,1434827,/,1435507,/	t,t,t,t	<img class = center src='/static/experiments/beast_fmri_test/images/P.png'></img>	71,89	2750.0	test	<img class = center src='/static/experiments/beast_fmri_test/images/redP.png'></img>	stop	1750.0	4.0	19.0	stop	target	P	71,Index Finger	89,Middle Finger	1000.0	1150.0	1750.0	1600.0	0.0	1000.0	n/a	0.0	go_stim
323092.39750237809	1750.0	n/a	672	71	2750	311.602497622	stim	stop-signal	533	1435698	0.0-21.19-1.19	beast_fmri_test	328	1433467,/,1434145,/,1434827,/,1435507,/	t,t,t,t	<img class = center src='/static/experiments/beast_fmri_test/images/P.png'></img>	71,89	2750.0	test	<img class = center src='/static/experiments/beast_fmri_test/images/redP.png'></img>	stop	1750.0	4.0	19.0	stop	target	P	71,Index Finger	89,Middle Finger	1000.0	1150.0	1750.0	1600.0	0.0	1000.0	n/a	0.0	stop_stim
324092.39750237809	311.6024976219212	n/a	672	71	2750	311.602497622	stim	stop-signal	533	1435698	0.0-21.19-1.19	beast_fmri_test	328	1433467,/,1434145,/,1434827,/,1435507,/	t,t,t,t	<img class = center src='/static/experiments/beast_fmri_test/images/P.png'></img>	71,89	2750.0	test	<img class = center src='/static/experiments/beast_fmri_test/images/redP.png'></img>	stop	1750.0	4.0	19.0	stop	target	P	71,Index Finger	89,Middle Finger	1000.0	1150.0	1750.0	1600.0	0.0	1000.0	n/a	0.0	ITI
325285	500	n/a	-1	-1	500	0.0	fixation	poldrack-single-stim	534	1436579	0.0-21.20-0.20	beast_fmri_test	328	1436186,/	t	<div class = centerbox2><div class = fixation>+</div></div>	none	500.0	test	n/a	n/a	n/a	n/a	n/a	n/a	n/a	n/a	n/a	n/a	n/a	n/a	n/a	n/a	n/a	n/a	n/a	n/a	fixation
