onset	duration	text	rt	key_press	block_duration	timing_post_trial	trial_id	trial_type	trial_index	time_elapsed	internal_node_id	exp_id	subject_id	trigger_times	triggers	stimulus	possible_responses	stim_duration	exp_stage	SS_stimulus	SS_trial_type	SS_duration	load	trial_num	stop_trial_type	adaptive_trial_type	stim	yes_response_key	no_response_key	SSD_target	SSD_non_target	SSTarget	SSNonTarget	go_acc	SS_delay	adaptive_acc	stop_acc	new_trial_type
test	10880	n/a	-1	-1	10880	0.0	practice-no-stop-feedback	poldrack-single-stim	198	607078	0.0-12.0	beast_fmri_test	328	596202,/,596881,/,597561,/,598241,/,598920,/,599600,/,600281,/,600959,/,601639,/,602318,/,602998,/,603678,/,604358,/,605038,/,605715,/,606396,/,607075,/	t,t,t,t,t,t,t,t,t,t,t,t,t,t,t,t,t	"<div class = ""centerbox""><p class = ""block-text"">Your delay is 3 trials.</p><p class = block-text>Please wait for the scanner to start the block</p></div>"	77	10880.0	n/a	n/a	n/a	n/a	n/a	n/a	n/a	n/a	n/a	n/a	n/a	n/a	n/a	n/a	n/a	n/a	n/a	n/a	n/a	start_functional_block
11380	500	n/a	-1	-1	500	0.0	fixation	poldrack-single-stim	199	607582	0.0-13.0-0.0	beast_fmri_test	328	n/a	n/a	<div class = centerbox2><div class = fixation>+</div></div>	none	500.0	test	n/a	n/a	n/a	n/a	n/a	n/a	n/a	n/a	n/a	n/a	n/a	n/a	n/a	n/a	n/a	n/a	n/a	n/a	fixation
8910.0485563036054	2750	n/a	-1	-1	2750	2471.9514437	stim	stop-signal	200	610334	0.0-13.0-1.0	beast_fmri_test	328	607755,/,608436,/,609115,/,609795,/,610475,/,611154,/,611833,/,612514,/	t,t,t,t,t,t,t,t	<img class = center src='/static/experiments/beast_fmri_test/images/T.png'></img>	71,89	2750.0	test	<img class = center src='/static/experiments/beast_fmri_test/images/redT.png'></img>	go	-1.0	3.0	0.0	go	temp-non-target	T	71,Index Finger	89,Middle Finger	700.0	800.0	2050.0	1900.0	0.0	n/a	n/a	n/a	go_stim
11660.048556303605	2471.9514436964332	n/a	-1	-1	2750	2471.9514437	stim	stop-signal	200	610334	0.0-13.0-1.0	beast_fmri_test	328	607755,/,608436,/,609115,/,609795,/,610475,/,611154,/,611833,/,612514,/	t,t,t,t,t,t,t,t	<img class = center src='/static/experiments/beast_fmri_test/images/T.png'></img>	71,89	2750.0	test	<img class = center src='/static/experiments/beast_fmri_test/images/redT.png'></img>	go	-1.0	3.0	0.0	go	temp-non-target	T	71,Index Finger	89,Middle Finger	700.0	800.0	2050.0	1900.0	0.0	n/a	n/a	n/a	ITI
17136	500	n/a	-1	-1	500	0.0	fixation	poldrack-single-stim	201	613338	0.0-13.1-0.1	beast_fmri_test	328	613194,/	t	<div class = centerbox2><div class = fixation>+</div></div>	none	500.0	test	n/a	n/a	n/a	n/a	n/a	n/a	n/a	n/a	n/a	n/a	n/a	n/a	n/a	n/a	n/a	n/a	n/a	n/a	fixation
17048.069025768666	2750	n/a	-1	-1	2750	88.9309742313	stim	stop-signal	202	616089	0.0-13.1-1.1	beast_fmri_test	328	613874,/,614552,/,615232,/,615912,/	t,t,t,t	<img class = center src='/static/experiments/beast_fmri_test/images/B.png'></img>	71,89	2750.0	test	<img class = center src='/static/experiments/beast_fmri_test/images/redB.png'></img>	go	-1.0	3.0	1.0	go	temp-non-target	B	71,Index Finger	89,Middle Finger	700.0	800.0	2050.0	1900.0	0.0	n/a	n/a	n/a	go_stim
19798.069025768666	88.930974231327127	n/a	-1	-1	2750	88.9309742313	stim	stop-signal	202	616089	0.0-13.1-1.1	beast_fmri_test	328	613874,/,614552,/,615232,/,615912,/	t,t,t,t	<img class = center src='/static/experiments/beast_fmri_test/images/B.png'></img>	71,89	2750.0	test	<img class = center src='/static/experiments/beast_fmri_test/images/redB.png'></img>	go	-1.0	3.0	1.0	go	temp-non-target	B	71,Index Finger	89,Middle Finger	700.0	800.0	2050.0	1900.0	0.0	n/a	n/a	n/a	ITI
20502	500	n/a	-1	-1	500	0.0	fixation	poldrack-single-stim	203	616704	0.0-13.2-0.2	beast_fmri_test	328	616590,/	t	<div class = centerbox2><div class = fixation>+</div></div>	none	500.0	test	n/a	n/a	n/a	n/a	n/a	n/a	n/a	n/a	n/a	n/a	n/a	n/a	n/a	n/a	n/a	n/a	n/a	n/a	fixation
19437.645818483434	2750	n/a	-1	-1	2750	1066.35418152	stim	stop-signal	204	619456	0.0-13.2-1.2	beast_fmri_test	328	617272,/,617950,/,618631,/,619311,/,619990,/	t,t,t,t,t	<img class = center src='/static/experiments/beast_fmri_test/images/B.png'></img>	71,89	2750.0	test	<img class = center src='/static/experiments/beast_fmri_test/images/redB.png'></img>	go	-1.0	3.0	2.0	go	temp-non-target	B	71,Index Finger	89,Middle Finger	700.0	800.0	2050.0	1900.0	0.0	n/a	n/a	n/a	go_stim
22187.645818483434	1066.3541815165154	n/a	-1	-1	2750	1066.35418152	stim	stop-signal	204	619456	0.0-13.2-1.2	beast_fmri_test	328	617272,/,617950,/,618631,/,619311,/,619990,/	t,t,t,t,t	<img class = center src='/static/experiments/beast_fmri_test/images/B.png'></img>	71,89	2750.0	test	<img class = center src='/static/experiments/beast_fmri_test/images/redB.png'></img>	go	-1.0	3.0	2.0	go	temp-non-target	B	71,Index Finger	89,Middle Finger	700.0	800.0	2050.0	1900.0	0.0	n/a	n/a	n/a	ITI
24852	500	n/a	-1	-1	500	0.0	fixation	poldrack-single-stim	205	621054	0.0-13.3-0.3	beast_fmri_test	328	620670,/	t	<div class = centerbox2><div class = fixation>+</div></div>	none	500.0	test	n/a	n/a	n/a	n/a	n/a	n/a	n/a	n/a	n/a	n/a	n/a	n/a	n/a	n/a	n/a	n/a	n/a	n/a	fixation
24619.169342087698	2750	n/a	923	89	2750	234.830657912	stim	stop-signal	206	623806	0.0-13.3-1.3	beast_fmri_test	328	621351,/,622029,/,622709,/,623390,/	t,t,t,t	<img class = center src='/static/experiments/beast_fmri_test/images/D.png'></img>	71,89	2750.0	test	<img class = center src='/static/experiments/beast_fmri_test/images/redD.png'></img>	go	1950.0	3.0	3.0	go	non-target	D	71,Index Finger	89,Middle Finger	700.0	800.0	2050.0	1950.0	1.0	800.0	1.0	n/a	go_stim
27369.169342087698	234.83065791225391	n/a	923	89	2750	234.830657912	stim	stop-signal	206	623806	0.0-13.3-1.3	beast_fmri_test	328	621351,/,622029,/,622709,/,623390,/	t,t,t,t	<img class = center src='/static/experiments/beast_fmri_test/images/D.png'></img>	71,89	2750.0	test	<img class = center src='/static/experiments/beast_fmri_test/images/redD.png'></img>	go	1950.0	3.0	3.0	go	non-target	D	71,Index Finger	89,Middle Finger	700.0	800.0	2050.0	1950.0	1.0	800.0	1.0	n/a	ITI
28369	500	n/a	-1	-1	500	0.0	fixation	poldrack-single-stim	207	624571	0.0-13.4-0.4	beast_fmri_test	328	624071,/	t	<div class = centerbox2><div class = fixation>+</div></div>	none	500.0	test	n/a	n/a	n/a	n/a	n/a	n/a	n/a	n/a	n/a	n/a	n/a	n/a	n/a	n/a	n/a	n/a	n/a	n/a	fixation
27082.767193585518	700.0	n/a	-1	-1	2750	1288.23280641	stim	stop-signal	208	627323	0.0-13.4-1.4	beast_fmri_test	328	624748,/,625429,/,626108,/,626788,/,627466,/,628147,/	t,t,t,t,t,t	<img class = center src='/static/experiments/beast_fmri_test/images/B.png'></img>	71,89	2750.0	test	<img class = center src='/static/experiments/beast_fmri_test/images/redB.png'></img>	stop	2050.0	3.0	4.0	stop	target	B	71,Index Finger	89,Middle Finger	700.0	800.0	2050.0	1950.0	0.0	700.0	n/a	1.0	go_stim
29132.767193585518	2050.0	n/a	-1	-1	2750	1288.23280641	stim	stop-signal	208	627323	0.0-13.4-1.4	beast_fmri_test	328	624748,/,625429,/,626108,/,626788,/,627466,/,628147,/	t,t,t,t,t,t	<img class = center src='/static/experiments/beast_fmri_test/images/B.png'></img>	71,89	2750.0	test	<img class = center src='/static/experiments/beast_fmri_test/images/redB.png'></img>	stop	2050.0	3.0	4.0	stop	target	B	71,Index Finger	89,Middle Finger	700.0	800.0	2050.0	1950.0	0.0	700.0	n/a	1.0	stop_stim
29832.767193585518	1288.2328064144415	n/a	-1	-1	2750	1288.23280641	stim	stop-signal	208	627323	0.0-13.4-1.4	beast_fmri_test	328	624748,/,625429,/,626108,/,626788,/,627466,/,628147,/	t,t,t,t,t,t	<img class = center src='/static/experiments/beast_fmri_test/images/B.png'></img>	71,89	2750.0	test	<img class = center src='/static/experiments/beast_fmri_test/images/redB.png'></img>	stop	2050.0	3.0	4.0	stop	target	B	71,Index Finger	89,Middle Finger	700.0	800.0	2050.0	1950.0	0.0	700.0	n/a	1.0	ITI
32942	500	n/a	-1	-1	500	0.0	fixation	poldrack-single-stim	209	629144	0.0-13.5-0.5	beast_fmri_test	328	628826,/	t	<div class = centerbox2><div class = fixation>+</div></div>	none	500.0	test	n/a	n/a	n/a	n/a	n/a	n/a	n/a	n/a	n/a	n/a	n/a	n/a	n/a	n/a	n/a	n/a	n/a	n/a	fixation
32319.883402665844	800.0	n/a	888	89	2750	622.116597334	stim	stop-signal	210	631894	0.0-13.5-1.5	beast_fmri_test	328	629505,/,630185,/,630866,/,631544,/,632224,/	t,t,t,t,t	<img class = center src='/static/experiments/beast_fmri_test/images/T.png'></img>	71,89	2750.0	test	<img class = center src='/static/experiments/beast_fmri_test/images/redT.png'></img>	stop	1950.0	3.0	5.0	stop	non-target	T	71,Index Finger	89,Middle Finger	750.0	800.0	2050.0	1950.0	0.0	800.0	n/a	0.0	go_stim
34269.883402665844	1950.0	n/a	888	89	2750	622.116597334	stim	stop-signal	210	631894	0.0-13.5-1.5	beast_fmri_test	328	629505,/,630185,/,630866,/,631544,/,632224,/	t,t,t,t,t	<img class = center src='/static/experiments/beast_fmri_test/images/T.png'></img>	71,89	2750.0	test	<img class = center src='/static/experiments/beast_fmri_test/images/redT.png'></img>	stop	1950.0	3.0	5.0	stop	non-target	T	71,Index Finger	89,Middle Finger	750.0	800.0	2050.0	1950.0	0.0	800.0	n/a	0.0	stop_stim
35069.883402665844	622.11659733419663	n/a	888	89	2750	622.116597334	stim	stop-signal	210	631894	0.0-13.5-1.5	beast_fmri_test	328	629505,/,630185,/,630866,/,631544,/,632224,/	t,t,t,t,t	<img class = center src='/static/experiments/beast_fmri_test/images/T.png'></img>	71,89	2750.0	test	<img class = center src='/static/experiments/beast_fmri_test/images/redT.png'></img>	stop	1950.0	3.0	5.0	stop	non-target	T	71,Index Finger	89,Middle Finger	750.0	800.0	2050.0	1950.0	0.0	800.0	n/a	0.0	ITI
36843	500	n/a	-1	-1	500	0.0	fixation	poldrack-single-stim	211	633045	0.0-13.6-0.6	beast_fmri_test	328	632909,/	t	<div class = centerbox2><div class = fixation>+</div></div>	none	500.0	test	n/a	n/a	n/a	n/a	n/a	n/a	n/a	n/a	n/a	n/a	n/a	n/a	n/a	n/a	n/a	n/a	n/a	n/a	fixation
36353.151955573703	2750	n/a	957	71	2750	492.848044426	stim	stop-signal	212	635798	0.0-13.6-1.6	beast_fmri_test	328	633584,/,634264,/,634943,/,635623,/	t,t,t,t	<img class = center src='/static/experiments/beast_fmri_test/images/D.png'></img>	71,89	2750.0	test	<img class = center src='/static/experiments/beast_fmri_test/images/redD.png'></img>	go	2000.0	3.0	6.0	go	target	D	71,Index Finger	89,Middle Finger	750.0	750.0	2000.0	1950.0	1.0	750.0	1.0	n/a	go_stim
39103.151955573703	492.84804442625847	n/a	957	71	2750	492.848044426	stim	stop-signal	212	635798	0.0-13.6-1.6	beast_fmri_test	328	633584,/,634264,/,634943,/,635623,/	t,t,t,t	<img class = center src='/static/experiments/beast_fmri_test/images/D.png'></img>	71,89	2750.0	test	<img class = center src='/static/experiments/beast_fmri_test/images/redD.png'></img>	go	2000.0	3.0	6.0	go	target	D	71,Index Finger	89,Middle Finger	750.0	750.0	2000.0	1950.0	1.0	750.0	1.0	n/a	ITI
40625	500	n/a	-1	-1	500	0.0	fixation	poldrack-single-stim	213	636827	0.0-13.7-0.7	beast_fmri_test	328	636326,/	t	<div class = centerbox2><div class = fixation>+</div></div>	none	500.0	test	n/a	n/a	n/a	n/a	n/a	n/a	n/a	n/a	n/a	n/a	n/a	n/a	n/a	n/a	n/a	n/a	n/a	n/a	fixation
40089.592945694225	750.0	n/a	-1	-1	2750	537.407054306	stim	stop-signal	214	639579	0.0-13.7-1.7	beast_fmri_test	328	636983,/,637661,/,638342,/,639020,/,639701,/	t,t,t,t,t	<img class = center src='/static/experiments/beast_fmri_test/images/T.png'></img>	71,89	2750.0	test	<img class = center src='/static/experiments/beast_fmri_test/images/redT.png'></img>	stop	2000.0	3.0	7.0	stop	non-target	T	71,Index Finger	89,Middle Finger	750.0	750.0	2000.0	2000.0	0.0	750.0	n/a	1.0	go_stim
42089.592945694225	2000.0	n/a	-1	-1	2750	537.407054306	stim	stop-signal	214	639579	0.0-13.7-1.7	beast_fmri_test	328	636983,/,637661,/,638342,/,639020,/,639701,/	t,t,t,t,t	<img class = center src='/static/experiments/beast_fmri_test/images/T.png'></img>	71,89	2750.0	test	<img class = center src='/static/experiments/beast_fmri_test/images/redT.png'></img>	stop	2000.0	3.0	7.0	stop	non-target	T	71,Index Finger	89,Middle Finger	750.0	750.0	2000.0	2000.0	0.0	750.0	n/a	1.0	stop_stim
42839.592945694225	537.40705430581181	n/a	-1	-1	2750	537.407054306	stim	stop-signal	214	639579	0.0-13.7-1.7	beast_fmri_test	328	636983,/,637661,/,638342,/,639020,/,639701,/	t,t,t,t,t	<img class = center src='/static/experiments/beast_fmri_test/images/T.png'></img>	71,89	2750.0	test	<img class = center src='/static/experiments/beast_fmri_test/images/redT.png'></img>	stop	2000.0	3.0	7.0	stop	non-target	T	71,Index Finger	89,Middle Finger	750.0	750.0	2000.0	2000.0	0.0	750.0	n/a	1.0	ITI
44448	500	n/a	-1	-1	500	0.0	fixation	poldrack-single-stim	215	640650	0.0-13.8-0.8	beast_fmri_test	328	640380,/	t	<div class = centerbox2><div class = fixation>+</div></div>	none	500.0	test	n/a	n/a	n/a	n/a	n/a	n/a	n/a	n/a	n/a	n/a	n/a	n/a	n/a	n/a	n/a	n/a	n/a	n/a	fixation
43163.032209044555	800.0	n/a	-1	-1	2750	1287.96779096	stim	stop-signal	216	643403	0.0-13.8-1.8	beast_fmri_test	328	641061,/,641740,/,642420,/,643099,/,643779,/,644459,/	t,t,t,t,t,t	<img class = center src='/static/experiments/beast_fmri_test/images/D.png'></img>	71,89	2750.0	test	<img class = center src='/static/experiments/beast_fmri_test/images/redD.png'></img>	stop	1950.0	3.0	8.0	stop	non-target	D	71,Index Finger	89,Middle Finger	750.0	800.0	2000.0	1950.0	0.0	800.0	n/a	1.0	go_stim
45113.032209044555	1950.0	n/a	-1	-1	2750	1287.96779096	stim	stop-signal	216	643403	0.0-13.8-1.8	beast_fmri_test	328	641061,/,641740,/,642420,/,643099,/,643779,/,644459,/	t,t,t,t,t,t	<img class = center src='/static/experiments/beast_fmri_test/images/D.png'></img>	71,89	2750.0	test	<img class = center src='/static/experiments/beast_fmri_test/images/redD.png'></img>	stop	1950.0	3.0	8.0	stop	non-target	D	71,Index Finger	89,Middle Finger	750.0	800.0	2000.0	1950.0	0.0	800.0	n/a	1.0	stop_stim
45913.032209044555	1287.9677909554521	n/a	-1	-1	2750	1287.96779096	stim	stop-signal	216	643403	0.0-13.8-1.8	beast_fmri_test	328	641061,/,641740,/,642420,/,643099,/,643779,/,644459,/	t,t,t,t,t,t	<img class = center src='/static/experiments/beast_fmri_test/images/D.png'></img>	71,89	2750.0	test	<img class = center src='/static/experiments/beast_fmri_test/images/redD.png'></img>	stop	1950.0	3.0	8.0	stop	non-target	D	71,Index Finger	89,Middle Finger	750.0	800.0	2000.0	1950.0	0.0	800.0	n/a	1.0	ITI
49018	500	n/a	-1	-1	500	0.0	fixation	poldrack-single-stim	217	645220	0.0-13.9-0.9	beast_fmri_test	328	645139,/	t	<div class = centerbox2><div class = fixation>+</div></div>	none	500.0	test	n/a	n/a	n/a	n/a	n/a	n/a	n/a	n/a	n/a	n/a	n/a	n/a	n/a	n/a	n/a	n/a	n/a	n/a	fixation
48376.243521723314	2750	n/a	1394	89	2750	642.756478277	stim	stop-signal	218	647971	0.0-13.9-1.9	beast_fmri_test	328	645818,/,646499,/,647177,/,647856,/,648537,/	t,t,t,t,t	<img class = center src='/static/experiments/beast_fmri_test/images/T.png'></img>	71,89	2750.0	test	<img class = center src='/static/experiments/beast_fmri_test/images/redT.png'></img>	go	1900.0	3.0	9.0	go	non-target	T	71,Index Finger	89,Middle Finger	750.0	850.0	2000.0	1900.0	1.0	850.0	1.0	n/a	go_stim
51126.243521723314	642.75647827670628	n/a	1394	89	2750	642.756478277	stim	stop-signal	218	647971	0.0-13.9-1.9	beast_fmri_test	328	645818,/,646499,/,647177,/,647856,/,648537,/	t,t,t,t,t	<img class = center src='/static/experiments/beast_fmri_test/images/T.png'></img>	71,89	2750.0	test	<img class = center src='/static/experiments/beast_fmri_test/images/redT.png'></img>	go	1900.0	3.0	9.0	go	non-target	T	71,Index Finger	89,Middle Finger	750.0	850.0	2000.0	1900.0	1.0	850.0	1.0	n/a	ITI
52946	500	n/a	-1	-1	500	0.0	fixation	poldrack-single-stim	219	649148	0.0-13.10-0.10	beast_fmri_test	328	n/a	n/a	<div class = centerbox2><div class = fixation>+</div></div>	none	500.0	test	n/a	n/a	n/a	n/a	n/a	n/a	n/a	n/a	n/a	n/a	n/a	n/a	n/a	n/a	n/a	n/a	n/a	n/a	fixation
52731.726773655042	2750	n/a	1389	89	2750	216.273226345	stim	stop-signal	220	651900	0.0-13.10-1.10	beast_fmri_test	328	649218,/,649898,/,650576,/,651256,/,651935,/	t,t,t,t,t	<img class = center src='/static/experiments/beast_fmri_test/images/B.png'></img>	71,89	2750.0	test	<img class = center src='/static/experiments/beast_fmri_test/images/redB.png'></img>	go	1900.0	3.0	10.0	go	non-target	B	71,Index Finger	89,Middle Finger	750.0	850.0	2000.0	1900.0	1.0	850.0	1.0	n/a	go_stim
55481.726773655042	216.27322634493211	n/a	1389	89	2750	216.273226345	stim	stop-signal	220	651900	0.0-13.10-1.10	beast_fmri_test	328	649218,/,649898,/,650576,/,651256,/,651935,/	t,t,t,t,t	<img class = center src='/static/experiments/beast_fmri_test/images/B.png'></img>	71,89	2750.0	test	<img class = center src='/static/experiments/beast_fmri_test/images/redB.png'></img>	go	1900.0	3.0	10.0	go	non-target	B	71,Index Finger	89,Middle Finger	750.0	850.0	2000.0	1900.0	1.0	850.0	1.0	n/a	ITI
56446	500	n/a	-1	-1	500	0.0	fixation	poldrack-single-stim	221	652648	0.0-13.11-0.11	beast_fmri_test	328	652616,/	t	<div class = centerbox2><div class = fixation>+</div></div>	none	500.0	test	n/a	n/a	n/a	n/a	n/a	n/a	n/a	n/a	n/a	n/a	n/a	n/a	n/a	n/a	n/a	n/a	n/a	n/a	fixation
56441.667998489924	2750	n/a	1423	89	2750	5.33200151003	stim	stop-signal	222	655399	0.0-13.11-1.11	beast_fmri_test	328	653295,/,653975,/,654655,/,655335,/	t,t,t,t	<img class = center src='/static/experiments/beast_fmri_test/images/P.png'></img>	71,89	2750.0	test	<img class = center src='/static/experiments/beast_fmri_test/images/redP.png'></img>	go	1900.0	3.0	11.0	go	non-target	P	71,Index Finger	89,Middle Finger	750.0	850.0	2000.0	1900.0	1.0	850.0	1.0	n/a	go_stim
59191.667998489924	5.3320015100330584	n/a	1423	89	2750	5.33200151003	stim	stop-signal	222	655399	0.0-13.11-1.11	beast_fmri_test	328	653295,/,653975,/,654655,/,655335,/	t,t,t,t	<img class = center src='/static/experiments/beast_fmri_test/images/P.png'></img>	71,89	2750.0	test	<img class = center src='/static/experiments/beast_fmri_test/images/redP.png'></img>	go	1900.0	3.0	11.0	go	non-target	P	71,Index Finger	89,Middle Finger	750.0	850.0	2000.0	1900.0	1.0	850.0	1.0	n/a	ITI
59735	500	n/a	-1	-1	500	0.0	fixation	poldrack-single-stim	223	655937	0.0-13.12-0.12	beast_fmri_test	328	n/a	n/a	<div class = centerbox2><div class = fixation>+</div></div>	none	500.0	test	n/a	n/a	n/a	n/a	n/a	n/a	n/a	n/a	n/a	n/a	n/a	n/a	n/a	n/a	n/a	n/a	n/a	n/a	fixation
59159.031843507197	2750	n/a	1337	89	2750	576.968156493	stim	stop-signal	224	658688	0.0-13.12-1.12	beast_fmri_test	328	656014,/,656694,/,657373,/,658051,/,658731,/	t,t,t,t,t	<img class = center src='/static/experiments/beast_fmri_test/images/D.png'></img>	71,89	2750.0	test	<img class = center src='/static/experiments/beast_fmri_test/images/redD.png'></img>	go	1900.0	3.0	12.0	go	non-target	D	71,Index Finger	89,Middle Finger	750.0	850.0	2000.0	1900.0	1.0	850.0	1.0	n/a	go_stim
61909.031843507197	576.96815649282371	n/a	1337	89	2750	576.968156493	stim	stop-signal	224	658688	0.0-13.12-1.12	beast_fmri_test	328	656014,/,656694,/,657373,/,658051,/,658731,/	t,t,t,t,t	<img class = center src='/static/experiments/beast_fmri_test/images/D.png'></img>	71,89	2750.0	test	<img class = center src='/static/experiments/beast_fmri_test/images/redD.png'></img>	go	1900.0	3.0	12.0	go	non-target	D	71,Index Finger	89,Middle Finger	750.0	850.0	2000.0	1900.0	1.0	850.0	1.0	n/a	ITI
63591	500	n/a	-1	-1	500	0.0	fixation	poldrack-single-stim	225	659793	0.0-13.13-0.13	beast_fmri_test	328	659413,/	t	<div class = centerbox2><div class = fixation>+</div></div>	none	500.0	test	n/a	n/a	n/a	n/a	n/a	n/a	n/a	n/a	n/a	n/a	n/a	n/a	n/a	n/a	n/a	n/a	n/a	n/a	fixation
62238.350341529003	2750	n/a	1215	89	2750	1355.64965847	stim	stop-signal	226	662546	0.0-13.13-1.13	beast_fmri_test	328	660091,/,660772,/,661451,/,662131,/,662810,/,663489,/	t,t,t,t,t,t	<img class = center src='/static/experiments/beast_fmri_test/images/D.png'></img>	71,89	2750.0	test	<img class = center src='/static/experiments/beast_fmri_test/images/redD.png'></img>	go	1900.0	3.0	13.0	go	non-target	D	71,Index Finger	89,Middle Finger	750.0	850.0	2000.0	1900.0	1.0	850.0	1.0	n/a	go_stim
64988.350341529003	1355.6496584709753	n/a	1215	89	2750	1355.64965847	stim	stop-signal	226	662546	0.0-13.13-1.13	beast_fmri_test	328	660091,/,660772,/,661451,/,662131,/,662810,/,663489,/	t,t,t,t,t,t	<img class = center src='/static/experiments/beast_fmri_test/images/D.png'></img>	71,89	2750.0	test	<img class = center src='/static/experiments/beast_fmri_test/images/redD.png'></img>	go	1900.0	3.0	13.0	go	non-target	D	71,Index Finger	89,Middle Finger	750.0	850.0	2000.0	1900.0	1.0	850.0	1.0	n/a	ITI
68229	500	n/a	-1	-1	500	0.0	fixation	poldrack-single-stim	227	664431	0.0-13.14-0.14	beast_fmri_test	328	664170,/	t	<div class = centerbox2><div class = fixation>+</div></div>	none	500.0	test	n/a	n/a	n/a	n/a	n/a	n/a	n/a	n/a	n/a	n/a	n/a	n/a	n/a	n/a	n/a	n/a	n/a	n/a	fixation
68214.13440063491	2750	n/a	682	89	2750	16.8655993651	stim	stop-signal	228	667183	0.0-13.14-1.14	beast_fmri_test	328	664850,/,665529,/,666208,/,666889,/	t,t,t,t	<img class = center src='/static/experiments/beast_fmri_test/images/V.png'></img>	71,89	2750.0	test	<img class = center src='/static/experiments/beast_fmri_test/images/redV.png'></img>	go	1900.0	3.0	14.0	go	non-target	V	71,Index Finger	89,Middle Finger	750.0	850.0	2000.0	1900.0	1.0	850.0	1.0	n/a	go_stim
70964.13440063491	16.865599365122502	n/a	682	89	2750	16.8655993651	stim	stop-signal	228	667183	0.0-13.14-1.14	beast_fmri_test	328	664850,/,665529,/,666208,/,666889,/	t,t,t,t	<img class = center src='/static/experiments/beast_fmri_test/images/V.png'></img>	71,89	2750.0	test	<img class = center src='/static/experiments/beast_fmri_test/images/redV.png'></img>	go	1900.0	3.0	14.0	go	non-target	V	71,Index Finger	89,Middle Finger	750.0	850.0	2000.0	1900.0	1.0	850.0	1.0	n/a	ITI
71531	500	n/a	-1	-1	500	0.0	fixation	poldrack-single-stim	229	667733	0.0-13.15-0.15	beast_fmri_test	328	667568,/	t	<div class = centerbox2><div class = fixation>+</div></div>	none	500.0	test	n/a	n/a	n/a	n/a	n/a	n/a	n/a	n/a	n/a	n/a	n/a	n/a	n/a	n/a	n/a	n/a	n/a	n/a	fixation
70146.860382916173	2750	n/a	1149	89	2750	1386.13961708	stim	stop-signal	230	670485	0.0-13.15-1.15	beast_fmri_test	328	668248,/,668927,/,669607,/,670287,/,670966,/,671645,/	t,t,t,t,t,t	<img class = center src='/static/experiments/beast_fmri_test/images/V.png'></img>	71,89	2750.0	test	<img class = center src='/static/experiments/beast_fmri_test/images/redV.png'></img>	go	1900.0	3.0	15.0	go	non-target	V	71,Index Finger	89,Middle Finger	750.0	850.0	2000.0	1900.0	1.0	850.0	1.0	n/a	go_stim
72896.860382916173	1386.1396170837882	n/a	1149	89	2750	1386.13961708	stim	stop-signal	230	670485	0.0-13.15-1.15	beast_fmri_test	328	668248,/,668927,/,669607,/,670287,/,670966,/,671645,/	t,t,t,t,t,t	<img class = center src='/static/experiments/beast_fmri_test/images/V.png'></img>	71,89	2750.0	test	<img class = center src='/static/experiments/beast_fmri_test/images/redV.png'></img>	go	1900.0	3.0	15.0	go	non-target	V	71,Index Finger	89,Middle Finger	750.0	850.0	2000.0	1900.0	1.0	850.0	1.0	n/a	ITI
76202	500	n/a	-1	-1	500	0.0	fixation	poldrack-single-stim	231	672404	0.0-13.16-0.16	beast_fmri_test	328	672326,/	t	<div class = centerbox2><div class = fixation>+</div></div>	none	500.0	test	n/a	n/a	n/a	n/a	n/a	n/a	n/a	n/a	n/a	n/a	n/a	n/a	n/a	n/a	n/a	n/a	n/a	n/a	fixation
76025.733913845615	2750	n/a	934	89	2750	179.266086154	stim	stop-signal	232	675157	0.0-13.16-1.16	beast_fmri_test	328	673006,/,673684,/,674364,/,675045,/	t,t,t,t	<img class = center src='/static/experiments/beast_fmri_test/images/T.png'></img>	71,89	2750.0	test	<img class = center src='/static/experiments/beast_fmri_test/images/redT.png'></img>	go	1900.0	3.0	16.0	go	non-target	T	71,Index Finger	89,Middle Finger	750.0	850.0	2000.0	1900.0	1.0	850.0	1.0	n/a	go_stim
78775.733913845615	179.26608615443519	n/a	934	89	2750	179.266086154	stim	stop-signal	232	675157	0.0-13.16-1.16	beast_fmri_test	328	673006,/,673684,/,674364,/,675045,/	t,t,t,t	<img class = center src='/static/experiments/beast_fmri_test/images/T.png'></img>	71,89	2750.0	test	<img class = center src='/static/experiments/beast_fmri_test/images/redT.png'></img>	go	1900.0	3.0	16.0	go	non-target	T	71,Index Finger	89,Middle Finger	750.0	850.0	2000.0	1900.0	1.0	850.0	1.0	n/a	ITI
79669	500	n/a	-1	-1	500	0.0	fixation	poldrack-single-stim	233	675871	0.0-13.17-0.17	beast_fmri_test	328	675724,/	t	<div class = centerbox2><div class = fixation>+</div></div>	none	500.0	test	n/a	n/a	n/a	n/a	n/a	n/a	n/a	n/a	n/a	n/a	n/a	n/a	n/a	n/a	n/a	n/a	n/a	n/a	fixation
79560.96951287461	750.0	n/a	-1	-1	2750	111.030487125	stim	stop-signal	234	678624	0.0-13.17-1.17	beast_fmri_test	328	676404,/,677085,/,677764,/,678442,/	t,t,t,t	<img class = center src='/static/experiments/beast_fmri_test/images/V.png'></img>	71,89	2750.0	test	<img class = center src='/static/experiments/beast_fmri_test/images/redV.png'></img>	stop	2000.0	3.0	17.0	stop	target	V	71,Index Finger	89,Middle Finger	750.0	850.0	2000.0	1900.0	0.0	750.0	n/a	1.0	go_stim
81560.96951287461	2000.0	n/a	-1	-1	2750	111.030487125	stim	stop-signal	234	678624	0.0-13.17-1.17	beast_fmri_test	328	676404,/,677085,/,677764,/,678442,/	t,t,t,t	<img class = center src='/static/experiments/beast_fmri_test/images/V.png'></img>	71,89	2750.0	test	<img class = center src='/static/experiments/beast_fmri_test/images/redV.png'></img>	stop	2000.0	3.0	17.0	stop	target	V	71,Index Finger	89,Middle Finger	750.0	850.0	2000.0	1900.0	0.0	750.0	n/a	1.0	stop_stim
82310.96951287461	111.0304871254172	n/a	-1	-1	2750	111.030487125	stim	stop-signal	234	678624	0.0-13.17-1.17	beast_fmri_test	328	676404,/,677085,/,677764,/,678442,/	t,t,t,t	<img class = center src='/static/experiments/beast_fmri_test/images/V.png'></img>	71,89	2750.0	test	<img class = center src='/static/experiments/beast_fmri_test/images/redV.png'></img>	stop	2000.0	3.0	17.0	stop	target	V	71,Index Finger	89,Middle Finger	750.0	850.0	2000.0	1900.0	0.0	750.0	n/a	1.0	ITI
83072	500	n/a	-1	-1	500	0.0	fixation	poldrack-single-stim	235	679274	0.0-13.18-0.18	beast_fmri_test	328	679124,/	t	<div class = centerbox2><div class = fixation>+</div></div>	none	500.0	test	n/a	n/a	n/a	n/a	n/a	n/a	n/a	n/a	n/a	n/a	n/a	n/a	n/a	n/a	n/a	n/a	n/a	n/a	fixation
81608.458730470738	2750	n/a	1110	71	2750	1464.54126953	stim	stop-signal	236	682025	0.0-13.18-1.18	beast_fmri_test	328	679804,/,680481,/,681162,/,681842,/,682522,/,683201,/	t,t,t,t,t,t	<img class = center src='/static/experiments/beast_fmri_test/images/V.png'></img>	71,89	2750.0	test	<img class = center src='/static/experiments/beast_fmri_test/images/redV.png'></img>	go	1950.0	3.0	18.0	go	target	V	71,Index Finger	89,Middle Finger	800.0	850.0	1950.0	1900.0	1.0	800.0	1.0	n/a	go_stim
84358.458730470738	1464.5412695292127	n/a	1110	71	2750	1464.54126953	stim	stop-signal	236	682025	0.0-13.18-1.18	beast_fmri_test	328	679804,/,680481,/,681162,/,681842,/,682522,/,683201,/	t,t,t,t,t,t	<img class = center src='/static/experiments/beast_fmri_test/images/V.png'></img>	71,89	2750.0	test	<img class = center src='/static/experiments/beast_fmri_test/images/redV.png'></img>	go	1950.0	3.0	18.0	go	target	V	71,Index Finger	89,Middle Finger	800.0	850.0	1950.0	1900.0	1.0	800.0	1.0	n/a	ITI
87820	500	n/a	-1	-1	500	0.0	fixation	poldrack-single-stim	237	684022	0.0-13.19-0.19	beast_fmri_test	328	683884,/	t	<div class = centerbox2><div class = fixation>+</div></div>	none	500.0	test	n/a	n/a	n/a	n/a	n/a	n/a	n/a	n/a	n/a	n/a	n/a	n/a	n/a	n/a	n/a	n/a	n/a	n/a	fixation
86447.071144858724	2750	n/a	951	71	2750	1373.92885514	stim	stop-signal	238	686773	0.0-13.19-1.19	beast_fmri_test	328	684560,/,685240,/,685920,/,686600,/,687279,/,687958,/	t,t,t,t,t,t	<img class = center src='/static/experiments/beast_fmri_test/images/T.png'></img>	71,89	2750.0	test	<img class = center src='/static/experiments/beast_fmri_test/images/redT.png'></img>	go	1950.0	3.0	19.0	go	target	T	71,Index Finger	89,Middle Finger	800.0	850.0	1950.0	1900.0	1.0	800.0	1.0	n/a	go_stim
89197.071144858724	1373.9288551412246	n/a	951	71	2750	1373.92885514	stim	stop-signal	238	686773	0.0-13.19-1.19	beast_fmri_test	328	684560,/,685240,/,685920,/,686600,/,687279,/,687958,/	t,t,t,t,t,t	<img class = center src='/static/experiments/beast_fmri_test/images/T.png'></img>	71,89	2750.0	test	<img class = center src='/static/experiments/beast_fmri_test/images/redT.png'></img>	go	1950.0	3.0	19.0	go	target	T	71,Index Finger	89,Middle Finger	800.0	850.0	1950.0	1900.0	1.0	800.0	1.0	n/a	ITI
92482	500	n/a	-1	-1	500	0.0	fixation	poldrack-single-stim	239	688684	0.0-13.20-0.20	beast_fmri_test	328	688639,/	t	<div class = centerbox2><div class = fixation>+</div></div>	none	500.0	test	n/a	n/a	n/a	n/a	n/a	n/a	n/a	n/a	n/a	n/a	n/a	n/a	n/a	n/a	n/a	n/a	n/a	n/a	fixation
92433.705591739155	2750	n/a	983	89	2750	49.2944082609	stim	stop-signal	240	691435	0.0-13.20-1.20	beast_fmri_test	328	689319,/,689997,/,690676,/,691358,/	t,t,t,t	<img class = center src='/static/experiments/beast_fmri_test/images/D.png'></img>	71,89	2750.0	test	<img class = center src='/static/experiments/beast_fmri_test/images/redD.png'></img>	go	1900.0	3.0	20.0	go	non-target	D	71,Index Finger	89,Middle Finger	800.0	850.0	1950.0	1900.0	1.0	850.0	1.0	n/a	go_stim
95183.705591739155	49.294408260874157	n/a	983	89	2750	49.2944082609	stim	stop-signal	240	691435	0.0-13.20-1.20	beast_fmri_test	328	689319,/,689997,/,690676,/,691358,/	t,t,t,t	<img class = center src='/static/experiments/beast_fmri_test/images/D.png'></img>	71,89	2750.0	test	<img class = center src='/static/experiments/beast_fmri_test/images/redD.png'></img>	go	1900.0	3.0	20.0	go	non-target	D	71,Index Finger	89,Middle Finger	800.0	850.0	1950.0	1900.0	1.0	850.0	1.0	n/a	ITI
95812	500	n/a	-1	-1	500	0.0	fixation	poldrack-single-stim	241	692014	0.0-13.21-0.21	beast_fmri_test	328	n/a	n/a	<div class = centerbox2><div class = fixation>+</div></div>	none	500.0	test	n/a	n/a	n/a	n/a	n/a	n/a	n/a	n/a	n/a	n/a	n/a	n/a	n/a	n/a	n/a	n/a	n/a	n/a	fixation
95258.959172757342	850.0	n/a	-1	-1	2750	554.040827243	stim	stop-signal	242	694765	0.0-13.21-1.21	beast_fmri_test	328	692038,/,692716,/,693396,/,694077,/,694756,/	t,t,t,t,t	<img class = center src='/static/experiments/beast_fmri_test/images/P.png'></img>	71,89	2750.0	test	<img class = center src='/static/experiments/beast_fmri_test/images/redP.png'></img>	stop	1900.0	3.0	21.0	stop	non-target	P	71,Index Finger	89,Middle Finger	800.0	850.0	1950.0	1900.0	0.0	850.0	n/a	1.0	go_stim
97158.959172757342	1900.0	n/a	-1	-1	2750	554.040827243	stim	stop-signal	242	694765	0.0-13.21-1.21	beast_fmri_test	328	692038,/,692716,/,693396,/,694077,/,694756,/	t,t,t,t,t	<img class = center src='/static/experiments/beast_fmri_test/images/P.png'></img>	71,89	2750.0	test	<img class = center src='/static/experiments/beast_fmri_test/images/redP.png'></img>	stop	1900.0	3.0	21.0	stop	non-target	P	71,Index Finger	89,Middle Finger	800.0	850.0	1950.0	1900.0	0.0	850.0	n/a	1.0	stop_stim
98008.959172757342	554.04082724261764	n/a	-1	-1	2750	554.040827243	stim	stop-signal	242	694765	0.0-13.21-1.21	beast_fmri_test	328	692038,/,692716,/,693396,/,694077,/,694756,/	t,t,t,t,t	<img class = center src='/static/experiments/beast_fmri_test/images/P.png'></img>	71,89	2750.0	test	<img class = center src='/static/experiments/beast_fmri_test/images/redP.png'></img>	stop	1900.0	3.0	21.0	stop	non-target	P	71,Index Finger	89,Middle Finger	800.0	850.0	1950.0	1900.0	0.0	850.0	n/a	1.0	ITI
99652	500	n/a	-1	-1	500	0.0	fixation	poldrack-single-stim	243	695854	0.0-13.22-0.22	beast_fmri_test	328	695435,/	t	<div class = centerbox2><div class = fixation>+</div></div>	none	500.0	test	n/a	n/a	n/a	n/a	n/a	n/a	n/a	n/a	n/a	n/a	n/a	n/a	n/a	n/a	n/a	n/a	n/a	n/a	fixation
99601.109256969881	2750	n/a	1882	89	2750	51.8907430301	stim	stop-signal	244	698605	0.0-13.22-1.22	beast_fmri_test	328	696116,/,696795,/,697475,/,698154,/	t,t,t,t	<img class = center src='/static/experiments/beast_fmri_test/images/P.png'></img>	71,89	2750.0	test	<img class = center src='/static/experiments/beast_fmri_test/images/redP.png'></img>	go	1850.0	3.0	22.0	go	non-target	P	71,Index Finger	89,Middle Finger	800.0	900.0	1950.0	1850.0	1.0	900.0	1.0	n/a	go_stim
102351.10925696988	51.890743030070311	n/a	1882	89	2750	51.8907430301	stim	stop-signal	244	698605	0.0-13.22-1.22	beast_fmri_test	328	696116,/,696795,/,697475,/,698154,/	t,t,t,t	<img class = center src='/static/experiments/beast_fmri_test/images/P.png'></img>	71,89	2750.0	test	<img class = center src='/static/experiments/beast_fmri_test/images/redP.png'></img>	go	1850.0	3.0	22.0	go	non-target	P	71,Index Finger	89,Middle Finger	800.0	900.0	1950.0	1850.0	1.0	900.0	1.0	n/a	ITI
102987	500	n/a	-1	-1	500	0.0	fixation	poldrack-single-stim	245	699189	0.0-13.23-0.23	beast_fmri_test	328	698834,/	t	<div class = centerbox2><div class = fixation>+</div></div>	none	500.0	test	n/a	n/a	n/a	n/a	n/a	n/a	n/a	n/a	n/a	n/a	n/a	n/a	n/a	n/a	n/a	n/a	n/a	n/a	fixation
101403.53464152862	2750	n/a	1260	89	2750	1583.46535847	stim	stop-signal	246	701939	0.0-13.23-1.23	beast_fmri_test	328	699512,/,700193,/,700876,/,701552,/,702232,/,702911,/	t,t,t,t,t,t	<img class = center src='/static/experiments/beast_fmri_test/images/V.png'></img>	71,89	2750.0	test	<img class = center src='/static/experiments/beast_fmri_test/images/redV.png'></img>	go	1850.0	3.0	23.0	go	non-target	V	71,Index Finger	89,Middle Finger	800.0	900.0	1950.0	1850.0	1.0	900.0	1.0	n/a	go_stim
104153.53464152862	1583.465358471426	n/a	1260	89	2750	1583.46535847	stim	stop-signal	246	701939	0.0-13.23-1.23	beast_fmri_test	328	699512,/,700193,/,700876,/,701552,/,702232,/,702911,/	t,t,t,t,t,t	<img class = center src='/static/experiments/beast_fmri_test/images/V.png'></img>	71,89	2750.0	test	<img class = center src='/static/experiments/beast_fmri_test/images/redV.png'></img>	go	1850.0	3.0	23.0	go	non-target	V	71,Index Finger	89,Middle Finger	800.0	900.0	1950.0	1850.0	1.0	900.0	1.0	n/a	ITI
107858	500	n/a	-1	-1	500	0.0	fixation	poldrack-single-stim	247	704060	0.0-13.24-0.24	beast_fmri_test	328	703591,/	t	<div class = centerbox2><div class = fixation>+</div></div>	none	500.0	test	n/a	n/a	n/a	n/a	n/a	n/a	n/a	n/a	n/a	n/a	n/a	n/a	n/a	n/a	n/a	n/a	n/a	n/a	fixation
107519.91662982339	2750	n/a	1131	89	2750	340.083370177	stim	stop-signal	248	706812	0.0-13.24-1.24	beast_fmri_test	328	704270,/,704952,/,705629,/,706311,/,706989,/	t,t,t,t,t	<img class = center src='/static/experiments/beast_fmri_test/images/B.png'></img>	71,89	2750.0	test	<img class = center src='/static/experiments/beast_fmri_test/images/redB.png'></img>	go	1850.0	3.0	24.0	go	non-target	B	71,Index Finger	89,Middle Finger	800.0	900.0	1950.0	1850.0	1.0	900.0	1.0	n/a	go_stim
110269.91662982339	340.08337017660955	n/a	1131	89	2750	340.083370177	stim	stop-signal	248	706812	0.0-13.24-1.24	beast_fmri_test	328	704270,/,704952,/,705629,/,706311,/,706989,/	t,t,t,t,t	<img class = center src='/static/experiments/beast_fmri_test/images/B.png'></img>	71,89	2750.0	test	<img class = center src='/static/experiments/beast_fmri_test/images/redB.png'></img>	go	1850.0	3.0	24.0	go	non-target	B	71,Index Finger	89,Middle Finger	800.0	900.0	1950.0	1850.0	1.0	900.0	1.0	n/a	ITI
111487	500	n/a	-1	-1	500	0.0	fixation	poldrack-single-stim	249	707689	0.0-13.25-0.25	beast_fmri_test	328	707671,/	t	<div class = centerbox2><div class = fixation>+</div></div>	none	500.0	test	n/a	n/a	n/a	n/a	n/a	n/a	n/a	n/a	n/a	n/a	n/a	n/a	n/a	n/a	n/a	n/a	n/a	n/a	fixation
110329.53863336262	900.0	n/a	-1	-1	2750	1158.46136664	stim	stop-signal	250	710440	0.0-13.25-1.25	beast_fmri_test	328	708349,/,709029,/,709709,/,710388,/,711068,/	t,t,t,t,t	<img class = center src='/static/experiments/beast_fmri_test/images/T.png'></img>	71,89	2750.0	test	<img class = center src='/static/experiments/beast_fmri_test/images/redT.png'></img>	stop	1850.0	3.0	25.0	stop	non-target	T	71,Index Finger	89,Middle Finger	800.0	900.0	1950.0	1850.0	0.0	900.0	n/a	1.0	go_stim
112179.53863336262	1850.0	n/a	-1	-1	2750	1158.46136664	stim	stop-signal	250	710440	0.0-13.25-1.25	beast_fmri_test	328	708349,/,709029,/,709709,/,710388,/,711068,/	t,t,t,t,t	<img class = center src='/static/experiments/beast_fmri_test/images/T.png'></img>	71,89	2750.0	test	<img class = center src='/static/experiments/beast_fmri_test/images/redT.png'></img>	stop	1850.0	3.0	25.0	stop	non-target	T	71,Index Finger	89,Middle Finger	800.0	900.0	1950.0	1850.0	0.0	900.0	n/a	1.0	stop_stim
113079.53863336262	1158.4613666373591	n/a	-1	-1	2750	1158.46136664	stim	stop-signal	250	710440	0.0-13.25-1.25	beast_fmri_test	328	708349,/,709029,/,709709,/,710388,/,711068,/	t,t,t,t,t	<img class = center src='/static/experiments/beast_fmri_test/images/T.png'></img>	71,89	2750.0	test	<img class = center src='/static/experiments/beast_fmri_test/images/redT.png'></img>	stop	1850.0	3.0	25.0	stop	non-target	T	71,Index Finger	89,Middle Finger	800.0	900.0	1950.0	1850.0	0.0	900.0	n/a	1.0	ITI
115932	500	n/a	-1	-1	500	0.0	fixation	poldrack-single-stim	251	712134	0.0-13.26-0.26	beast_fmri_test	328	711748,/	t	<div class = centerbox2><div class = fixation>+</div></div>	none	500.0	test	n/a	n/a	n/a	n/a	n/a	n/a	n/a	n/a	n/a	n/a	n/a	n/a	n/a	n/a	n/a	n/a	n/a	n/a	fixation
115098.51262304198	2750	n/a	1083	89	2750	835.487376958	stim	stop-signal	252	714886	0.0-13.26-1.26	beast_fmri_test	328	712428,/,713108,/,713786,/,714467,/,715147,/	t,t,t,t,t	<img class = center src='/static/experiments/beast_fmri_test/images/B.png'></img>	71,89	2750.0	test	<img class = center src='/static/experiments/beast_fmri_test/images/redB.png'></img>	go	1800.0	3.0	26.0	go	non-target	B	71,Index Finger	89,Middle Finger	800.0	950.0	1950.0	1800.0	1.0	950.0	1.0	n/a	go_stim
117848.51262304198	835.48737695798798	n/a	1083	89	2750	835.487376958	stim	stop-signal	252	714886	0.0-13.26-1.26	beast_fmri_test	328	712428,/,713108,/,713786,/,714467,/,715147,/	t,t,t,t,t	<img class = center src='/static/experiments/beast_fmri_test/images/B.png'></img>	71,89	2750.0	test	<img class = center src='/static/experiments/beast_fmri_test/images/redB.png'></img>	go	1800.0	3.0	26.0	go	non-target	B	71,Index Finger	89,Middle Finger	800.0	950.0	1950.0	1800.0	1.0	950.0	1.0	n/a	ITI
120054	500	n/a	-1	-1	500	0.0	fixation	poldrack-single-stim	253	716256	0.0-13.27-0.27	beast_fmri_test	328	715825,/	t	<div class = centerbox2><div class = fixation>+</div></div>	none	500.0	test	n/a	n/a	n/a	n/a	n/a	n/a	n/a	n/a	n/a	n/a	n/a	n/a	n/a	n/a	n/a	n/a	n/a	n/a	fixation
116521.03884065	2750	n/a	893	89	2750	3534.96115935	stim	stop-signal	254	719008	0.0-13.27-1.27	beast_fmri_test	328	716505,/,717185,/,717866,/,718544,/,719224,/,719904,/,720584,/,721264,/,721943,/	t,t,t,t,t,t,t,t,t	<img class = center src='/static/experiments/beast_fmri_test/images/B.png'></img>	71,89	2750.0	test	<img class = center src='/static/experiments/beast_fmri_test/images/redB.png'></img>	go	1950.0	3.0	27.0	go	target	B	71,Index Finger	89,Middle Finger	800.0	950.0	1950.0	1800.0	0.0	800.0	0.0	n/a	go_stim
119271.03884065	3534.9611593499658	n/a	893	89	2750	3534.96115935	stim	stop-signal	254	719008	0.0-13.27-1.27	beast_fmri_test	328	716505,/,717185,/,717866,/,718544,/,719224,/,719904,/,720584,/,721264,/,721943,/	t,t,t,t,t,t,t,t,t	<img class = center src='/static/experiments/beast_fmri_test/images/B.png'></img>	71,89	2750.0	test	<img class = center src='/static/experiments/beast_fmri_test/images/redB.png'></img>	go	1950.0	3.0	27.0	go	target	B	71,Index Finger	89,Middle Finger	800.0	950.0	1950.0	1800.0	0.0	800.0	0.0	n/a	ITI
126875	500	n/a	-1	-1	500	0.0	fixation	poldrack-single-stim	255	723077	0.0-13.28-0.28	beast_fmri_test	328	722621,/	t	<div class = centerbox2><div class = fixation>+</div></div>	none	500.0	test	n/a	n/a	n/a	n/a	n/a	n/a	n/a	n/a	n/a	n/a	n/a	n/a	n/a	n/a	n/a	n/a	n/a	n/a	fixation
126304.32929950894	950.0	n/a	831	89	2750	572.670700491	stim	stop-signal	256	725829	0.0-13.28-1.28	beast_fmri_test	328	723302,/,723981,/,724662,/,725342,/,726020,/	t,t,t,t,t	<img class = center src='/static/experiments/beast_fmri_test/images/B.png'></img>	71,89	2750.0	test	<img class = center src='/static/experiments/beast_fmri_test/images/redB.png'></img>	stop	1800.0	3.0	28.0	stop	non-target	B	71,Index Finger	89,Middle Finger	800.0	950.0	1950.0	1800.0	0.0	950.0	n/a	0.0	go_stim
128104.32929950894	1800.0	n/a	831	89	2750	572.670700491	stim	stop-signal	256	725829	0.0-13.28-1.28	beast_fmri_test	328	723302,/,723981,/,724662,/,725342,/,726020,/	t,t,t,t,t	<img class = center src='/static/experiments/beast_fmri_test/images/B.png'></img>	71,89	2750.0	test	<img class = center src='/static/experiments/beast_fmri_test/images/redB.png'></img>	stop	1800.0	3.0	28.0	stop	non-target	B	71,Index Finger	89,Middle Finger	800.0	950.0	1950.0	1800.0	0.0	950.0	n/a	0.0	stop_stim
129054.32929950894	572.67070049103131	n/a	831	89	2750	572.670700491	stim	stop-signal	256	725829	0.0-13.28-1.28	beast_fmri_test	328	723302,/,723981,/,724662,/,725342,/,726020,/	t,t,t,t,t	<img class = center src='/static/experiments/beast_fmri_test/images/B.png'></img>	71,89	2750.0	test	<img class = center src='/static/experiments/beast_fmri_test/images/redB.png'></img>	stop	1800.0	3.0	28.0	stop	non-target	B	71,Index Finger	89,Middle Finger	800.0	950.0	1950.0	1800.0	0.0	950.0	n/a	0.0	ITI
130735	500	n/a	-1	-1	500	0.0	fixation	poldrack-single-stim	257	726937	0.0-13.29-0.29	beast_fmri_test	328	726701,/	t	<div class = centerbox2><div class = fixation>+</div></div>	none	500.0	test	n/a	n/a	n/a	n/a	n/a	n/a	n/a	n/a	n/a	n/a	n/a	n/a	n/a	n/a	n/a	n/a	n/a	n/a	fixation
129401.01973060402	900.0	n/a	-1	-1	2750	1335.9802694	stim	stop-signal	258	729689	0.0-13.29-1.29	beast_fmri_test	328	727381,/,728060,/,728740,/,729420,/,730099,/,730779,/	t,t,t,t,t,t	<img class = center src='/static/experiments/beast_fmri_test/images/D.png'></img>	71,89	2750.0	test	<img class = center src='/static/experiments/beast_fmri_test/images/redD.png'></img>	stop	1850.0	3.0	29.0	stop	non-target	D	71,Index Finger	89,Middle Finger	800.0	900.0	1950.0	1850.0	0.0	900.0	n/a	1.0	go_stim
131251.01973060402	1850.0	n/a	-1	-1	2750	1335.9802694	stim	stop-signal	258	729689	0.0-13.29-1.29	beast_fmri_test	328	727381,/,728060,/,728740,/,729420,/,730099,/,730779,/	t,t,t,t,t,t	<img class = center src='/static/experiments/beast_fmri_test/images/D.png'></img>	71,89	2750.0	test	<img class = center src='/static/experiments/beast_fmri_test/images/redD.png'></img>	stop	1850.0	3.0	29.0	stop	non-target	D	71,Index Finger	89,Middle Finger	800.0	900.0	1950.0	1850.0	0.0	900.0	n/a	1.0	stop_stim
132151.01973060402	1335.9802693960276	n/a	-1	-1	2750	1335.9802694	stim	stop-signal	258	729689	0.0-13.29-1.29	beast_fmri_test	328	727381,/,728060,/,728740,/,729420,/,730099,/,730779,/	t,t,t,t,t,t	<img class = center src='/static/experiments/beast_fmri_test/images/D.png'></img>	71,89	2750.0	test	<img class = center src='/static/experiments/beast_fmri_test/images/redD.png'></img>	stop	1850.0	3.0	29.0	stop	non-target	D	71,Index Finger	89,Middle Finger	800.0	900.0	1950.0	1850.0	0.0	900.0	n/a	1.0	ITI
135359	500	n/a	-1	-1	500	0.0	fixation	poldrack-single-stim	259	731561	0.0-13.30-0.30	beast_fmri_test	328	731457,/	t	<div class = centerbox2><div class = fixation>+</div></div>	none	500.0	test	n/a	n/a	n/a	n/a	n/a	n/a	n/a	n/a	n/a	n/a	n/a	n/a	n/a	n/a	n/a	n/a	n/a	n/a	fixation
132691.24134462362	2750	n/a	1166	71	2750	2670.75865538	stim	stop-signal	260	734314	0.0-13.30-1.30	beast_fmri_test	328	732138,/,732817,/,733498,/,734177,/,734860,/,735537,/,736216,/,736896,/	t,t,t,t,t,t,t,t	<img class = center src='/static/experiments/beast_fmri_test/images/B.png'></img>	71,89	2750.0	test	<img class = center src='/static/experiments/beast_fmri_test/images/redB.png'></img>	go	1950.0	3.0	30.0	go	target	B	71,Index Finger	89,Middle Finger	800.0	950.0	1950.0	1850.0	1.0	800.0	1.0	n/a	go_stim
135441.24134462362	2670.7586553764049	n/a	1166	71	2750	2670.75865538	stim	stop-signal	260	734314	0.0-13.30-1.30	beast_fmri_test	328	732138,/,732817,/,733498,/,734177,/,734860,/,735537,/,736216,/,736896,/	t,t,t,t,t,t,t,t	<img class = center src='/static/experiments/beast_fmri_test/images/B.png'></img>	71,89	2750.0	test	<img class = center src='/static/experiments/beast_fmri_test/images/redB.png'></img>	go	1950.0	3.0	30.0	go	target	B	71,Index Finger	89,Middle Finger	800.0	950.0	1950.0	1850.0	1.0	800.0	1.0	n/a	ITI
141318	500	n/a	-1	-1	500	0.0	fixation	poldrack-single-stim	261	737520	0.0-13.31-0.31	beast_fmri_test	328	n/a	n/a	<div class = centerbox2><div class = fixation>+</div></div>	none	500.0	test	n/a	n/a	n/a	n/a	n/a	n/a	n/a	n/a	n/a	n/a	n/a	n/a	n/a	n/a	n/a	n/a	n/a	n/a	fixation
140995.98287393933	2750	n/a	1266	71	2750	324.017126061	stim	stop-signal	262	740272	0.0-13.31-1.31	beast_fmri_test	328	737575,/,738255,/,738935,/,739614,/,740295,/	t,t,t,t,t	<img class = center src='/static/experiments/beast_fmri_test/images/B.png'></img>	71,89	2750.0	test	<img class = center src='/static/experiments/beast_fmri_test/images/redB.png'></img>	go	1950.0	3.0	31.0	go	target	B	71,Index Finger	89,Middle Finger	800.0	950.0	1950.0	1850.0	1.0	800.0	1.0	n/a	go_stim
143745.98287393933	324.01712606063234	n/a	1266	71	2750	324.017126061	stim	stop-signal	262	740272	0.0-13.31-1.31	beast_fmri_test	328	737575,/,738255,/,738935,/,739614,/,740295,/	t,t,t,t,t	<img class = center src='/static/experiments/beast_fmri_test/images/B.png'></img>	71,89	2750.0	test	<img class = center src='/static/experiments/beast_fmri_test/images/redB.png'></img>	go	1950.0	3.0	31.0	go	target	B	71,Index Finger	89,Middle Finger	800.0	950.0	1950.0	1850.0	1.0	800.0	1.0	n/a	ITI
144930	500	n/a	-1	-1	500	0.0	fixation	poldrack-single-stim	263	741132	0.0-13.32-0.32	beast_fmri_test	328	740974,/	t	<div class = centerbox2><div class = fixation>+</div></div>	none	500.0	test	n/a	n/a	n/a	n/a	n/a	n/a	n/a	n/a	n/a	n/a	n/a	n/a	n/a	n/a	n/a	n/a	n/a	n/a	fixation
144897.02379294951	2750	n/a	1676	71	2750	34.9762070505	stim	stop-signal	264	743884	0.0-13.32-1.32	beast_fmri_test	328	741654,/,742333,/,743015,/,743692,/	t,t,t,t	<img class = center src='/static/experiments/beast_fmri_test/images/D.png'></img>	71,89	2750.0	test	<img class = center src='/static/experiments/beast_fmri_test/images/redD.png'></img>	go	1950.0	3.0	32.0	go	target	D	71,Index Finger	89,Middle Finger	800.0	950.0	1950.0	1850.0	1.0	800.0	1.0	n/a	go_stim
147647.02379294951	34.976207050533816	n/a	1676	71	2750	34.9762070505	stim	stop-signal	264	743884	0.0-13.32-1.32	beast_fmri_test	328	741654,/,742333,/,743015,/,743692,/	t,t,t,t	<img class = center src='/static/experiments/beast_fmri_test/images/D.png'></img>	71,89	2750.0	test	<img class = center src='/static/experiments/beast_fmri_test/images/redD.png'></img>	go	1950.0	3.0	32.0	go	target	D	71,Index Finger	89,Middle Finger	800.0	950.0	1950.0	1850.0	1.0	800.0	1.0	n/a	ITI
148251	500	n/a	-1	-1	500	0.0	fixation	poldrack-single-stim	265	744453	0.0-13.33-0.33	beast_fmri_test	328	744372,/	t	<div class = centerbox2><div class = fixation>+</div></div>	none	500.0	test	n/a	n/a	n/a	n/a	n/a	n/a	n/a	n/a	n/a	n/a	n/a	n/a	n/a	n/a	n/a	n/a	n/a	n/a	fixation
147553.98045188864	950.0	n/a	-1	-1	2750	699.019548111	stim	stop-signal	266	747205	0.0-13.33-1.33	beast_fmri_test	328	745052,/,745733,/,746412,/,747092,/,747771,/	t,t,t,t,t	<img class = center src='/static/experiments/beast_fmri_test/images/D.png'></img>	71,89	2750.0	test	<img class = center src='/static/experiments/beast_fmri_test/images/redD.png'></img>	stop	1800.0	3.0	33.0	stop	non-target	D	71,Index Finger	89,Middle Finger	800.0	950.0	1950.0	1800.0	0.0	950.0	n/a	1.0	go_stim
149353.98045188864	1800.0	n/a	-1	-1	2750	699.019548111	stim	stop-signal	266	747205	0.0-13.33-1.33	beast_fmri_test	328	745052,/,745733,/,746412,/,747092,/,747771,/	t,t,t,t,t	<img class = center src='/static/experiments/beast_fmri_test/images/D.png'></img>	71,89	2750.0	test	<img class = center src='/static/experiments/beast_fmri_test/images/redD.png'></img>	stop	1800.0	3.0	33.0	stop	non-target	D	71,Index Finger	89,Middle Finger	800.0	950.0	1950.0	1800.0	0.0	950.0	n/a	1.0	stop_stim
150303.98045188864	699.01954811133123	n/a	-1	-1	2750	699.019548111	stim	stop-signal	266	747205	0.0-13.33-1.33	beast_fmri_test	328	745052,/,745733,/,746412,/,747092,/,747771,/	t,t,t,t,t	<img class = center src='/static/experiments/beast_fmri_test/images/D.png'></img>	71,89	2750.0	test	<img class = center src='/static/experiments/beast_fmri_test/images/redD.png'></img>	stop	1800.0	3.0	33.0	stop	non-target	D	71,Index Finger	89,Middle Finger	800.0	950.0	1950.0	1800.0	0.0	950.0	n/a	1.0	ITI
152238	500	n/a	-1	-1	500	0.0	fixation	poldrack-single-stim	267	748440	0.0-13.34-0.34	beast_fmri_test	328	n/a	n/a	<div class = centerbox2><div class = fixation>+</div></div>	none	500.0	test	n/a	n/a	n/a	n/a	n/a	n/a	n/a	n/a	n/a	n/a	n/a	n/a	n/a	n/a	n/a	n/a	n/a	n/a	fixation
150957.15633604256	2750	n/a	1252	71	2750	1281.84366396	stim	stop-signal	268	751191	0.0-13.34-1.34	beast_fmri_test	328	748451,/,749131,/,749810,/,750489,/,751169,/,751851,/	t,t,t,t,t,t	<img class = center src='/static/experiments/beast_fmri_test/images/B.png'></img>	71,89	2750.0	test	<img class = center src='/static/experiments/beast_fmri_test/images/redB.png'></img>	go	1950.0	3.0	34.0	go	target	B	71,Index Finger	89,Middle Finger	800.0	1000.0	1950.0	1800.0	1.0	800.0	1.0	n/a	go_stim
153707.15633604256	1281.8436639574322	n/a	1252	71	2750	1281.84366396	stim	stop-signal	268	751191	0.0-13.34-1.34	beast_fmri_test	328	748451,/,749131,/,749810,/,750489,/,751169,/,751851,/	t,t,t,t,t,t	<img class = center src='/static/experiments/beast_fmri_test/images/B.png'></img>	71,89	2750.0	test	<img class = center src='/static/experiments/beast_fmri_test/images/redB.png'></img>	go	1950.0	3.0	34.0	go	target	B	71,Index Finger	89,Middle Finger	800.0	1000.0	1950.0	1800.0	1.0	800.0	1.0	n/a	ITI
156808	500	n/a	-1	-1	500	0.0	fixation	poldrack-single-stim	269	753010	0.0-13.35-0.35	beast_fmri_test	328	752529,/	t	<div class = centerbox2><div class = fixation>+</div></div>	none	500.0	test	n/a	n/a	n/a	n/a	n/a	n/a	n/a	n/a	n/a	n/a	n/a	n/a	n/a	n/a	n/a	n/a	n/a	n/a	fixation
155517.98480739375	2750	n/a	1031	89	2750	1292.01519261	stim	stop-signal	270	755762	0.0-13.35-1.35	beast_fmri_test	328	753208,/,753888,/,754567,/,755246,/,755926,/,756607,/	t,t,t,t,t,t	<img class = center src='/static/experiments/beast_fmri_test/images/P.png'></img>	71,89	2750.0	test	<img class = center src='/static/experiments/beast_fmri_test/images/redP.png'></img>	go	1750.0	3.0	35.0	go	non-target	P	71,Index Finger	89,Middle Finger	800.0	1000.0	1950.0	1750.0	1.0	1000.0	1.0	n/a	go_stim
158267.98480739375	1292.0151926062365	n/a	1031	89	2750	1292.01519261	stim	stop-signal	270	755762	0.0-13.35-1.35	beast_fmri_test	328	753208,/,753888,/,754567,/,755246,/,755926,/,756607,/	t,t,t,t,t,t	<img class = center src='/static/experiments/beast_fmri_test/images/P.png'></img>	71,89	2750.0	test	<img class = center src='/static/experiments/beast_fmri_test/images/redP.png'></img>	go	1750.0	3.0	35.0	go	non-target	P	71,Index Finger	89,Middle Finger	800.0	1000.0	1950.0	1750.0	1.0	1000.0	1.0	n/a	ITI
161388	500	n/a	-1	-1	500	0.0	fixation	poldrack-single-stim	271	757590	0.0-13.36-0.36	beast_fmri_test	328	757287,/	t	<div class = centerbox2><div class = fixation>+</div></div>	none	500.0	test	n/a	n/a	n/a	n/a	n/a	n/a	n/a	n/a	n/a	n/a	n/a	n/a	n/a	n/a	n/a	n/a	n/a	n/a	fixation
160677.8700834061	2750	n/a	1032	89	2750	713.129916594	stim	stop-signal	272	760343	0.0-13.36-1.36	beast_fmri_test	328	757965,/,758644,/,759326,/,760005,/,760683,/	t,t,t,t,t	<img class = center src='/static/experiments/beast_fmri_test/images/T.png'></img>	71,89	2750.0	test	<img class = center src='/static/experiments/beast_fmri_test/images/redT.png'></img>	go	1750.0	3.0	36.0	go	non-target	T	71,Index Finger	89,Middle Finger	800.0	1000.0	1950.0	1750.0	1.0	1000.0	1.0	n/a	go_stim
163427.8700834061	713.1299165938791	n/a	1032	89	2750	713.129916594	stim	stop-signal	272	760343	0.0-13.36-1.36	beast_fmri_test	328	757965,/,758644,/,759326,/,760005,/,760683,/	t,t,t,t,t	<img class = center src='/static/experiments/beast_fmri_test/images/T.png'></img>	71,89	2750.0	test	<img class = center src='/static/experiments/beast_fmri_test/images/redT.png'></img>	go	1750.0	3.0	36.0	go	non-target	T	71,Index Finger	89,Middle Finger	800.0	1000.0	1950.0	1750.0	1.0	1000.0	1.0	n/a	ITI
165391	500	n/a	-1	-1	500	0.0	fixation	poldrack-single-stim	273	761593	0.0-13.37-0.37	beast_fmri_test	328	761366,/	t	<div class = centerbox2><div class = fixation>+</div></div>	none	500.0	test	n/a	n/a	n/a	n/a	n/a	n/a	n/a	n/a	n/a	n/a	n/a	n/a	n/a	n/a	n/a	n/a	n/a	n/a	fixation
164609.26779753692	1000.0	n/a	1051	89	2750	784.732202463	stim	stop-signal	274	764346	0.0-13.37-1.37	beast_fmri_test	328	762045,/,762724,/,763405,/,764085,/,764764,/	t,t,t,t,t	<img class = center src='/static/experiments/beast_fmri_test/images/D.png'></img>	71,89	2750.0	test	<img class = center src='/static/experiments/beast_fmri_test/images/redD.png'></img>	stop	1750.0	3.0	37.0	stop	non-target	D	71,Index Finger	89,Middle Finger	800.0	1000.0	1950.0	1750.0	0.0	1000.0	n/a	0.0	go_stim
166359.26779753692	1750.0	n/a	1051	89	2750	784.732202463	stim	stop-signal	274	764346	0.0-13.37-1.37	beast_fmri_test	328	762045,/,762724,/,763405,/,764085,/,764764,/	t,t,t,t,t	<img class = center src='/static/experiments/beast_fmri_test/images/D.png'></img>	71,89	2750.0	test	<img class = center src='/static/experiments/beast_fmri_test/images/redD.png'></img>	stop	1750.0	3.0	37.0	stop	non-target	D	71,Index Finger	89,Middle Finger	800.0	1000.0	1950.0	1750.0	0.0	1000.0	n/a	0.0	stop_stim
167359.26779753692	784.73220246310132	n/a	1051	89	2750	784.732202463	stim	stop-signal	274	764346	0.0-13.37-1.37	beast_fmri_test	328	762045,/,762724,/,763405,/,764085,/,764764,/	t,t,t,t,t	<img class = center src='/static/experiments/beast_fmri_test/images/D.png'></img>	71,89	2750.0	test	<img class = center src='/static/experiments/beast_fmri_test/images/redD.png'></img>	stop	1750.0	3.0	37.0	stop	non-target	D	71,Index Finger	89,Middle Finger	800.0	1000.0	1950.0	1750.0	0.0	1000.0	n/a	0.0	ITI
169464	500	n/a	-1	-1	500	0.0	fixation	poldrack-single-stim	275	765666	0.0-13.38-0.38	beast_fmri_test	328	765442,/	t	<div class = centerbox2><div class = fixation>+</div></div>	none	500.0	test	n/a	n/a	n/a	n/a	n/a	n/a	n/a	n/a	n/a	n/a	n/a	n/a	n/a	n/a	n/a	n/a	n/a	n/a	fixation
169466.09344423516	2750	n/a	1138	89	2750	0.906555764834	stim	stop-signal	276	768419	0.0-13.38-1.38	beast_fmri_test	328	766122,/,766803,/,767481,/,768163,/	t,t,t,t	<img class = center src='/static/experiments/beast_fmri_test/images/T.png'></img>	71,89	2750.0	test	<img class = center src='/static/experiments/beast_fmri_test/images/redT.png'></img>	go	1800.0	3.0	38.0	go	non-target	T	71,Index Finger	89,Middle Finger	800.0	950.0	1950.0	1800.0	1.0	950.0	1.0	n/a	go_stim
172216.09344423516	0.90655576483372236	n/a	1138	89	2750	0.906555764834	stim	stop-signal	276	768419	0.0-13.38-1.38	beast_fmri_test	328	766122,/,766803,/,767481,/,768163,/	t,t,t,t	<img class = center src='/static/experiments/beast_fmri_test/images/T.png'></img>	71,89	2750.0	test	<img class = center src='/static/experiments/beast_fmri_test/images/redT.png'></img>	go	1800.0	3.0	38.0	go	non-target	T	71,Index Finger	89,Middle Finger	800.0	950.0	1950.0	1800.0	1.0	950.0	1.0	n/a	ITI
172760	500	n/a	-1	-1	500	0.0	fixation	poldrack-single-stim	277	768962	0.0-13.39-0.39	beast_fmri_test	328	768844,/	t	<div class = centerbox2><div class = fixation>+</div></div>	none	500.0	test	n/a	n/a	n/a	n/a	n/a	n/a	n/a	n/a	n/a	n/a	n/a	n/a	n/a	n/a	n/a	n/a	n/a	n/a	fixation
172108.32022656221	800.0	n/a	871	71	2750	653.679773438	stim	stop-signal	278	771714	0.0-13.39-1.39	beast_fmri_test	328	769521,/,770202,/,770880,/,771560,/,772240,/	t,t,t,t,t	<img class = center src='/static/experiments/beast_fmri_test/images/T.png'></img>	71,89	2750.0	test	<img class = center src='/static/experiments/beast_fmri_test/images/redT.png'></img>	stop	1950.0	3.0	39.0	stop	target	T	71,Index Finger	89,Middle Finger	800.0	950.0	1950.0	1800.0	0.0	800.0	n/a	0.0	go_stim
174058.32022656221	1950.0	n/a	871	71	2750	653.679773438	stim	stop-signal	278	771714	0.0-13.39-1.39	beast_fmri_test	328	769521,/,770202,/,770880,/,771560,/,772240,/	t,t,t,t,t	<img class = center src='/static/experiments/beast_fmri_test/images/T.png'></img>	71,89	2750.0	test	<img class = center src='/static/experiments/beast_fmri_test/images/redT.png'></img>	stop	1950.0	3.0	39.0	stop	target	T	71,Index Finger	89,Middle Finger	800.0	950.0	1950.0	1800.0	0.0	800.0	n/a	0.0	stop_stim
174858.32022656221	653.67977343774078	n/a	871	71	2750	653.679773438	stim	stop-signal	278	771714	0.0-13.39-1.39	beast_fmri_test	328	769521,/,770202,/,770880,/,771560,/,772240,/	t,t,t,t,t	<img class = center src='/static/experiments/beast_fmri_test/images/T.png'></img>	71,89	2750.0	test	<img class = center src='/static/experiments/beast_fmri_test/images/redT.png'></img>	stop	1950.0	3.0	39.0	stop	target	T	71,Index Finger	89,Middle Finger	800.0	950.0	1950.0	1800.0	0.0	800.0	n/a	0.0	ITI
176707	500	n/a	-1	-1	500	0.0	fixation	poldrack-single-stim	279	772909	0.0-13.40-0.40	beast_fmri_test	328	n/a	n/a	<div class = centerbox2><div class = fixation>+</div></div>	none	500.0	test	n/a	n/a	n/a	n/a	n/a	n/a	n/a	n/a	n/a	n/a	n/a	n/a	n/a	n/a	n/a	n/a	n/a	n/a	fixation
174830.51354467229	2750	n/a	1233	71	2750	1878.48645533	stim	stop-signal	280	775661	0.0-13.40-1.40	beast_fmri_test	328	772919,/,773600,/,774278,/,774958,/,775637,/,776318,/,776998,/	t,t,t,t,t,t,t	<img class = center src='/static/experiments/beast_fmri_test/images/D.png'></img>	71,89	2750.0	test	<img class = center src='/static/experiments/beast_fmri_test/images/redD.png'></img>	go	2000.0	3.0	40.0	go	target	D	71,Index Finger	89,Middle Finger	750.0	950.0	2000.0	1800.0	1.0	750.0	1.0	n/a	go_stim
177580.51354467229	1878.4864553277162	n/a	1233	71	2750	1878.48645533	stim	stop-signal	280	775661	0.0-13.40-1.40	beast_fmri_test	328	772919,/,773600,/,774278,/,774958,/,775637,/,776318,/,776998,/	t,t,t,t,t,t,t	<img class = center src='/static/experiments/beast_fmri_test/images/D.png'></img>	71,89	2750.0	test	<img class = center src='/static/experiments/beast_fmri_test/images/redD.png'></img>	go	2000.0	3.0	40.0	go	target	D	71,Index Finger	89,Middle Finger	750.0	950.0	2000.0	1800.0	1.0	750.0	1.0	n/a	ITI
181876	500	n/a	-1	-1	500	0.0	fixation	poldrack-single-stim	281	778078	0.0-13.41-0.41	beast_fmri_test	328	777677,/	t	<div class = centerbox2><div class = fixation>+</div></div>	none	500.0	test	n/a	n/a	n/a	n/a	n/a	n/a	n/a	n/a	n/a	n/a	n/a	n/a	n/a	n/a	n/a	n/a	n/a	n/a	fixation
176880.0	2750	n/a	938	89	2750	5000.0	stim	stop-signal	282	780832	0.0-13.41-1.41	beast_fmri_test	328	778365,/,779036,/,779716,/,780395,/,781076,/,781755,/,782435,/,783114,/,783794,/,784474,/,785154,/	t,t,t,t,t,t,t,t,t,t,t	<img class = center src='/static/experiments/beast_fmri_test/images/V.png'></img>	71,89	2750.0	test	<img class = center src='/static/experiments/beast_fmri_test/images/redV.png'></img>	go	1800.0	3.0	41.0	go	non-target	V	71,Index Finger	89,Middle Finger	750.0	950.0	2000.0	1800.0	1.0	950.0	1.0	n/a	go_stim
179630.0	5000.0	n/a	938	89	2750	5000.0	stim	stop-signal	282	780832	0.0-13.41-1.41	beast_fmri_test	328	778365,/,779036,/,779716,/,780395,/,781076,/,781755,/,782435,/,783114,/,783794,/,784474,/,785154,/	t,t,t,t,t,t,t,t,t,t,t	<img class = center src='/static/experiments/beast_fmri_test/images/V.png'></img>	71,89	2750.0	test	<img class = center src='/static/experiments/beast_fmri_test/images/redV.png'></img>	go	1800.0	3.0	41.0	go	non-target	V	71,Index Finger	89,Middle Finger	750.0	950.0	2000.0	1800.0	1.0	950.0	1.0	n/a	ITI
190163	500	n/a	-1	-1	500	0.0	fixation	poldrack-single-stim	283	786365	0.0-13.42-0.42	beast_fmri_test	328	785864,/	t	<div class = centerbox2><div class = fixation>+</div></div>	none	500.0	test	n/a	n/a	n/a	n/a	n/a	n/a	n/a	n/a	n/a	n/a	n/a	n/a	n/a	n/a	n/a	n/a	n/a	n/a	fixation
189657.51967171486	950.0	n/a	-1	-1	2750	507.480328285	stim	stop-signal	284	789117	0.0-13.42-1.42	beast_fmri_test	328	786512,/,787193,/,787872,/,788552,/,789232,/	t,t,t,t,t	<img class = center src='/static/experiments/beast_fmri_test/images/D.png'></img>	71,89	2750.0	test	<img class = center src='/static/experiments/beast_fmri_test/images/redD.png'></img>	stop	1800.0	3.0	42.0	stop	non-target	D	71,Index Finger	89,Middle Finger	750.0	950.0	2000.0	1800.0	0.0	950.0	n/a	1.0	go_stim
191457.51967171486	1800.0	n/a	-1	-1	2750	507.480328285	stim	stop-signal	284	789117	0.0-13.42-1.42	beast_fmri_test	328	786512,/,787193,/,787872,/,788552,/,789232,/	t,t,t,t,t	<img class = center src='/static/experiments/beast_fmri_test/images/D.png'></img>	71,89	2750.0	test	<img class = center src='/static/experiments/beast_fmri_test/images/redD.png'></img>	stop	1800.0	3.0	42.0	stop	non-target	D	71,Index Finger	89,Middle Finger	750.0	950.0	2000.0	1800.0	0.0	950.0	n/a	1.0	stop_stim
192407.51967171486	507.48032828519132	n/a	-1	-1	2750	507.480328285	stim	stop-signal	284	789117	0.0-13.42-1.42	beast_fmri_test	328	786512,/,787193,/,787872,/,788552,/,789232,/	t,t,t,t,t	<img class = center src='/static/experiments/beast_fmri_test/images/D.png'></img>	71,89	2750.0	test	<img class = center src='/static/experiments/beast_fmri_test/images/redD.png'></img>	stop	1800.0	3.0	42.0	stop	non-target	D	71,Index Finger	89,Middle Finger	750.0	950.0	2000.0	1800.0	0.0	950.0	n/a	1.0	ITI
193960	500	n/a	-1	-1	500	0.0	fixation	poldrack-single-stim	285	790162	0.0-13.43-0.43	beast_fmri_test	328	789913,/	t	<div class = centerbox2><div class = fixation>+</div></div>	none	500.0	test	n/a	n/a	n/a	n/a	n/a	n/a	n/a	n/a	n/a	n/a	n/a	n/a	n/a	n/a	n/a	n/a	n/a	n/a	fixation
192367.15898644435	750.0	n/a	-1	-1	2750	1595.84101356	stim	stop-signal	286	792915	0.0-13.43-1.43	beast_fmri_test	328	790591,/,791271,/,791951,/,792630,/,793310,/,793989,/	t,t,t,t,t,t	<img class = center src='/static/experiments/beast_fmri_test/images/D.png'></img>	71,89	2750.0	test	<img class = center src='/static/experiments/beast_fmri_test/images/redD.png'></img>	stop	2000.0	3.0	43.0	stop	target	D	71,Index Finger	89,Middle Finger	750.0	1000.0	2000.0	1800.0	0.0	750.0	n/a	1.0	go_stim
194367.15898644435	2000.0	n/a	-1	-1	2750	1595.84101356	stim	stop-signal	286	792915	0.0-13.43-1.43	beast_fmri_test	328	790591,/,791271,/,791951,/,792630,/,793310,/,793989,/	t,t,t,t,t,t	<img class = center src='/static/experiments/beast_fmri_test/images/D.png'></img>	71,89	2750.0	test	<img class = center src='/static/experiments/beast_fmri_test/images/redD.png'></img>	stop	2000.0	3.0	43.0	stop	target	D	71,Index Finger	89,Middle Finger	750.0	1000.0	2000.0	1800.0	0.0	750.0	n/a	1.0	stop_stim
195117.15898644435	1595.8410135556785	n/a	-1	-1	2750	1595.84101356	stim	stop-signal	286	792915	0.0-13.43-1.43	beast_fmri_test	328	790591,/,791271,/,791951,/,792630,/,793310,/,793989,/	t,t,t,t,t,t	<img class = center src='/static/experiments/beast_fmri_test/images/D.png'></img>	71,89	2750.0	test	<img class = center src='/static/experiments/beast_fmri_test/images/redD.png'></img>	stop	2000.0	3.0	43.0	stop	target	D	71,Index Finger	89,Middle Finger	750.0	1000.0	2000.0	1800.0	0.0	750.0	n/a	1.0	ITI
198846	500	n/a	-1	-1	500	0.0	fixation	poldrack-single-stim	287	795048	0.0-13.44-0.44	beast_fmri_test	328	794670,/	t	<div class = centerbox2><div class = fixation>+</div></div>	none	500.0	test	n/a	n/a	n/a	n/a	n/a	n/a	n/a	n/a	n/a	n/a	n/a	n/a	n/a	n/a	n/a	n/a	n/a	n/a	fixation
197816.20088214951	2750	n/a	1022	71	2750	1031.79911785	stim	stop-signal	288	797800	0.0-13.44-1.44	beast_fmri_test	328	795350,/,796029,/,796709,/,797389,/,798068,/,798747,/	t,t,t,t,t,t	<img class = center src='/static/experiments/beast_fmri_test/images/V.png'></img>	71,89	2750.0	test	<img class = center src='/static/experiments/beast_fmri_test/images/redV.png'></img>	go	1950.0	3.0	44.0	go	target	V	71,Index Finger	89,Middle Finger	800.0	1000.0	1950.0	1800.0	1.0	800.0	1.0	n/a	go_stim
200566.20088214951	1031.799117850476	n/a	1022	71	2750	1031.79911785	stim	stop-signal	288	797800	0.0-13.44-1.44	beast_fmri_test	328	795350,/,796029,/,796709,/,797389,/,798068,/,798747,/	t,t,t,t,t,t	<img class = center src='/static/experiments/beast_fmri_test/images/V.png'></img>	71,89	2750.0	test	<img class = center src='/static/experiments/beast_fmri_test/images/redV.png'></img>	go	1950.0	3.0	44.0	go	target	V	71,Index Finger	89,Middle Finger	800.0	1000.0	1950.0	1800.0	1.0	800.0	1.0	n/a	ITI
203168	500	n/a	-1	-1	500	0.0	fixation	poldrack-single-stim	289	799370	0.0-13.45-0.45	beast_fmri_test	328	n/a	n/a	<div class = centerbox2><div class = fixation>+</div></div>	none	500.0	test	n/a	n/a	n/a	n/a	n/a	n/a	n/a	n/a	n/a	n/a	n/a	n/a	n/a	n/a	n/a	n/a	n/a	n/a	fixation
200999.05439024477	800.0	n/a	-1	-1	2750	2170.94560976	stim	stop-signal	290	802122	0.0-13.45-1.45	beast_fmri_test	328	799426,/,800108,/,800787,/,801466,/,802145,/,802827,/,803505,/,804184,/	t,t,t,t,t,t,t,t	<img class = center src='/static/experiments/beast_fmri_test/images/D.png'></img>	71,89	2750.0	test	<img class = center src='/static/experiments/beast_fmri_test/images/redD.png'></img>	stop	1950.0	3.0	45.0	stop	target	D	71,Index Finger	89,Middle Finger	800.0	1000.0	1950.0	1800.0	0.0	800.0	n/a	1.0	go_stim
202949.05439024477	1950.0	n/a	-1	-1	2750	2170.94560976	stim	stop-signal	290	802122	0.0-13.45-1.45	beast_fmri_test	328	799426,/,800108,/,800787,/,801466,/,802145,/,802827,/,803505,/,804184,/	t,t,t,t,t,t,t,t	<img class = center src='/static/experiments/beast_fmri_test/images/D.png'></img>	71,89	2750.0	test	<img class = center src='/static/experiments/beast_fmri_test/images/redD.png'></img>	stop	1950.0	3.0	45.0	stop	target	D	71,Index Finger	89,Middle Finger	800.0	1000.0	1950.0	1800.0	0.0	800.0	n/a	1.0	stop_stim
203749.05439024477	2170.945609755197	n/a	-1	-1	2750	2170.94560976	stim	stop-signal	290	802122	0.0-13.45-1.45	beast_fmri_test	328	799426,/,800108,/,800787,/,801466,/,802145,/,802827,/,803505,/,804184,/	t,t,t,t,t,t,t,t	<img class = center src='/static/experiments/beast_fmri_test/images/D.png'></img>	71,89	2750.0	test	<img class = center src='/static/experiments/beast_fmri_test/images/redD.png'></img>	stop	1950.0	3.0	45.0	stop	target	D	71,Index Finger	89,Middle Finger	800.0	1000.0	1950.0	1800.0	0.0	800.0	n/a	1.0	ITI
208631	500	n/a	-1	-1	500	0.0	fixation	poldrack-single-stim	291	804833	0.0-13.46-0.46	beast_fmri_test	328	n/a	n/a	<div class = centerbox2><div class = fixation>+</div></div>	none	500.0	test	n/a	n/a	n/a	n/a	n/a	n/a	n/a	n/a	n/a	n/a	n/a	n/a	n/a	n/a	n/a	n/a	n/a	n/a	fixation
208330.27520952222	2750	n/a	924	89	2750	301.724790478	stim	stop-signal	292	807584	0.0-13.46-1.46	beast_fmri_test	328	804863,/,805545,/,806224,/,806903,/,807583,/	t,t,t,t,t	<img class = center src='/static/experiments/beast_fmri_test/images/P.png'></img>	71,89	2750.0	test	<img class = center src='/static/experiments/beast_fmri_test/images/redP.png'></img>	go	1750.0	3.0	46.0	go	non-target	P	71,Index Finger	89,Middle Finger	850.0	1000.0	1950.0	1750.0	1.0	1000.0	1.0	n/a	go_stim
211080.27520952222	301.72479047774789	n/a	924	89	2750	301.724790478	stim	stop-signal	292	807584	0.0-13.46-1.46	beast_fmri_test	328	804863,/,805545,/,806224,/,806903,/,807583,/	t,t,t,t,t	<img class = center src='/static/experiments/beast_fmri_test/images/P.png'></img>	71,89	2750.0	test	<img class = center src='/static/experiments/beast_fmri_test/images/redP.png'></img>	go	1750.0	3.0	46.0	go	non-target	P	71,Index Finger	89,Middle Finger	850.0	1000.0	1950.0	1750.0	1.0	1000.0	1.0	n/a	ITI
212225	500	n/a	-1	-1	500	0.0	fixation	poldrack-single-stim	293	808427	0.0-13.47-0.47	beast_fmri_test	328	808264,/	t	<div class = centerbox2><div class = fixation>+</div></div>	none	500.0	test	n/a	n/a	n/a	n/a	n/a	n/a	n/a	n/a	n/a	n/a	n/a	n/a	n/a	n/a	n/a	n/a	n/a	n/a	fixation
210698.89205702639	2750	n/a	1108	89	2750	1527.10794297	stim	stop-signal	294	811178	0.0-13.47-1.47	beast_fmri_test	328	808942,/,809622,/,810302,/,810982,/,811660,/,812341,/	t,t,t,t,t,t	<img class = center src='/static/experiments/beast_fmri_test/images/B.png'></img>	71,89	2750.0	test	<img class = center src='/static/experiments/beast_fmri_test/images/redB.png'></img>	go	1750.0	3.0	47.0	go	non-target	B	71,Index Finger	89,Middle Finger	850.0	1000.0	1950.0	1750.0	1.0	1000.0	1.0	n/a	go_stim
213448.89205702639	1527.1079429736442	n/a	1108	89	2750	1527.10794297	stim	stop-signal	294	811178	0.0-13.47-1.47	beast_fmri_test	328	808942,/,809622,/,810302,/,810982,/,811660,/,812341,/	t,t,t,t,t,t	<img class = center src='/static/experiments/beast_fmri_test/images/B.png'></img>	71,89	2750.0	test	<img class = center src='/static/experiments/beast_fmri_test/images/redB.png'></img>	go	1750.0	3.0	47.0	go	non-target	B	71,Index Finger	89,Middle Finger	850.0	1000.0	1950.0	1750.0	1.0	1000.0	1.0	n/a	ITI
231535	15000	n/a	-1	-1	15000	0.0	practice-no-stop-feedback	poldrack-single-stim	295	827737	0.0-14.0	beast_fmri_test	328	813021,/,813701,/,814380,/,815060,/,815740,/,816419,/,817098,/,817778,/,818458,/,819138,/,819819,/,820497,/,821177,/,821857,/,822537,/,823217,/,823897,/,824576,/,825256,/,825935,/,826615,/,827294,/	t,t,t,t,t,t,t,t,t,t,t,t,t,t,t,t,t,t,t,t,t,t	"<div class = ""centerbox""><p class = ""block-text"">Your delay is 4 trials.</p><p class = block-text>Please wait for the scanner to start the block</p></div>"	77	15000.0	n/a	n/a	n/a	n/a	n/a	n/a	n/a	n/a	n/a	n/a	n/a	n/a	n/a	n/a	n/a	n/a	n/a	n/a	n/a	practice-no-stop-feedback
232038	500	n/a	-1	-1	500	0.0	fixation	poldrack-single-stim	296	828240	0.0-15.0-0.0	beast_fmri_test	328	827975,/	t	<div class = centerbox2><div class = fixation>+</div></div>	none	500.0	test	n/a	n/a	n/a	n/a	n/a	n/a	n/a	n/a	n/a	n/a	n/a	n/a	n/a	n/a	n/a	n/a	n/a	n/a	fixation
231343.09995758301	temp_go_duration	n/a	-1	-1	2750	697.900042417	stim	stop-signal	297	830993	0.0-15.0-1.0	beast_fmri_test	328	828653,/,829334,/,830014,/,830693,/,831372,/	t,t,t,t,t	<img class = center src='/static/experiments/beast_fmri_test/images/D.png'></img>	71,89	2750.0	test	<img class = center src='/static/experiments/beast_fmri_test/images/redD.png'></img>	stop	-1.0	4.0	0.0	stop	temp-non-target	D	71,Index Finger	89,Middle Finger	850.0	1000.0	1950.0	1750.0	0.0	n/a	n/a	1.0	go_stim
temp-non-target	temp_stop_duration	n/a	-1	-1	2750	697.900042417	stim	stop-signal	297	830993	0.0-15.0-1.0	beast_fmri_test	328	828653,/,829334,/,830014,/,830693,/,831372,/	t,t,t,t,t	<img class = center src='/static/experiments/beast_fmri_test/images/D.png'></img>	71,89	2750.0	test	<img class = center src='/static/experiments/beast_fmri_test/images/redD.png'></img>	stop	-1.0	4.0	0.0	stop	temp-non-target	D	71,Index Finger	89,Middle Finger	850.0	1000.0	1950.0	1750.0	0.0	n/a	n/a	1.0	stop_stim
234093.09995758301	697.90004241695954	n/a	-1	-1	2750	697.900042417	stim	stop-signal	297	830993	0.0-15.0-1.0	beast_fmri_test	328	828653,/,829334,/,830014,/,830693,/,831372,/	t,t,t,t,t	<img class = center src='/static/experiments/beast_fmri_test/images/D.png'></img>	71,89	2750.0	test	<img class = center src='/static/experiments/beast_fmri_test/images/redD.png'></img>	stop	-1.0	4.0	0.0	stop	temp-non-target	D	71,Index Finger	89,Middle Finger	850.0	1000.0	1950.0	1750.0	0.0	n/a	n/a	1.0	ITI
236029	500	n/a	-1	-1	500	0.0	fixation	poldrack-single-stim	298	832231	0.0-15.1-0.1	beast_fmri_test	328	832052,/	t	<div class = centerbox2><div class = fixation>+</div></div>	none	500.0	test	n/a	n/a	n/a	n/a	n/a	n/a	n/a	n/a	n/a	n/a	n/a	n/a	n/a	n/a	n/a	n/a	n/a	n/a	fixation
235728.08518242906	2750	n/a	-1	-1	2750	302.914817571	stim	stop-signal	299	834983	0.0-15.1-1.1	beast_fmri_test	328	832732,/,833412,/,834092,/,834772,/	t,t,t,t	<img class = center src='/static/experiments/beast_fmri_test/images/T.png'></img>	71,89	2750.0	test	<img class = center src='/static/experiments/beast_fmri_test/images/redT.png'></img>	go	-1.0	4.0	1.0	go	temp-non-target	T	71,Index Finger	89,Middle Finger	850.0	1000.0	1950.0	1750.0	0.0	n/a	n/a	n/a	go_stim
238478.08518242906	302.91481757089952	n/a	-1	-1	2750	302.914817571	stim	stop-signal	299	834983	0.0-15.1-1.1	beast_fmri_test	328	832732,/,833412,/,834092,/,834772,/	t,t,t,t	<img class = center src='/static/experiments/beast_fmri_test/images/T.png'></img>	71,89	2750.0	test	<img class = center src='/static/experiments/beast_fmri_test/images/redT.png'></img>	go	-1.0	4.0	1.0	go	temp-non-target	T	71,Index Finger	89,Middle Finger	850.0	1000.0	1950.0	1750.0	0.0	n/a	n/a	n/a	ITI
239629	500	n/a	-1	-1	500	0.0	fixation	poldrack-single-stim	300	835831	0.0-15.2-0.2	beast_fmri_test	328	835451,/	t	<div class = centerbox2><div class = fixation>+</div></div>	none	500.0	test	n/a	n/a	n/a	n/a	n/a	n/a	n/a	n/a	n/a	n/a	n/a	n/a	n/a	n/a	n/a	n/a	n/a	n/a	fixation
238732.5471421309	2750	n/a	-1	-1	2750	899.452857869	stim	stop-signal	301	838584	0.0-15.2-1.2	beast_fmri_test	328	836130,/,836812,/,837489,/,838169,/,838849,/	t,t,t,t,t	<img class = center src='/static/experiments/beast_fmri_test/images/B.png'></img>	71,89	2750.0	test	<img class = center src='/static/experiments/beast_fmri_test/images/redB.png'></img>	go	-1.0	4.0	2.0	go	temp-non-target	B	71,Index Finger	89,Middle Finger	850.0	1000.0	1950.0	1750.0	0.0	n/a	n/a	n/a	go_stim
241482.5471421309	899.45285786910915	n/a	-1	-1	2750	899.452857869	stim	stop-signal	301	838584	0.0-15.2-1.2	beast_fmri_test	328	836130,/,836812,/,837489,/,838169,/,838849,/	t,t,t,t,t	<img class = center src='/static/experiments/beast_fmri_test/images/B.png'></img>	71,89	2750.0	test	<img class = center src='/static/experiments/beast_fmri_test/images/redB.png'></img>	go	-1.0	4.0	2.0	go	temp-non-target	B	71,Index Finger	89,Middle Finger	850.0	1000.0	1950.0	1750.0	0.0	n/a	n/a	n/a	ITI
243822	500	n/a	-1	-1	500	0.0	fixation	poldrack-single-stim	302	840024	0.0-15.3-0.3	beast_fmri_test	328	839528,/	t	<div class = centerbox2><div class = fixation>+</div></div>	none	500.0	test	n/a	n/a	n/a	n/a	n/a	n/a	n/a	n/a	n/a	n/a	n/a	n/a	n/a	n/a	n/a	n/a	n/a	n/a	fixation
243415.31754136132	2750	n/a	-1	-1	2750	409.682458639	stim	stop-signal	303	842777	0.0-15.3-1.3	beast_fmri_test	328	840207,/,840887,/,841567,/,842248,/,842926,/	t,t,t,t,t	<img class = center src='/static/experiments/beast_fmri_test/images/V.png'></img>	71,89	2750.0	test	<img class = center src='/static/experiments/beast_fmri_test/images/redV.png'></img>	go	-1.0	4.0	3.0	go	temp-non-target	V	71,Index Finger	89,Middle Finger	850.0	1000.0	1950.0	1750.0	0.0	n/a	n/a	n/a	go_stim
246165.31754136132	409.68245863864684	n/a	-1	-1	2750	409.682458639	stim	stop-signal	303	842777	0.0-15.3-1.3	beast_fmri_test	328	840207,/,840887,/,841567,/,842248,/,842926,/	t,t,t,t,t	<img class = center src='/static/experiments/beast_fmri_test/images/V.png'></img>	71,89	2750.0	test	<img class = center src='/static/experiments/beast_fmri_test/images/redV.png'></img>	go	-1.0	4.0	3.0	go	temp-non-target	V	71,Index Finger	89,Middle Finger	850.0	1000.0	1950.0	1750.0	0.0	n/a	n/a	n/a	ITI
247525	500	n/a	-1	-1	500	0.0	fixation	poldrack-single-stim	304	843727	0.0-15.4-0.4	beast_fmri_test	328	843606,/	t	<div class = centerbox2><div class = fixation>+</div></div>	none	500.0	test	n/a	n/a	n/a	n/a	n/a	n/a	n/a	n/a	n/a	n/a	n/a	n/a	n/a	n/a	n/a	n/a	n/a	n/a	fixation
247445.33825056825	1000.0	n/a	942	89	2750	80.6617494318	stim	stop-signal	305	846478	0.0-15.4-1.4	beast_fmri_test	328	844286,/,844965,/,845644,/,846324,/	t,t,t,t	<img class = center src='/static/experiments/beast_fmri_test/images/V.png'></img>	71,89	2750.0	test	<img class = center src='/static/experiments/beast_fmri_test/images/redV.png'></img>	stop	1750.0	4.0	4.0	stop	non-target	V	71,Index Finger	89,Middle Finger	850.0	1000.0	1950.0	1750.0	0.0	1000.0	n/a	0.0	go_stim
249195.33825056825	1750.0	n/a	942	89	2750	80.6617494318	stim	stop-signal	305	846478	0.0-15.4-1.4	beast_fmri_test	328	844286,/,844965,/,845644,/,846324,/	t,t,t,t	<img class = center src='/static/experiments/beast_fmri_test/images/V.png'></img>	71,89	2750.0	test	<img class = center src='/static/experiments/beast_fmri_test/images/redV.png'></img>	stop	1750.0	4.0	4.0	stop	non-target	V	71,Index Finger	89,Middle Finger	850.0	1000.0	1950.0	1750.0	0.0	1000.0	n/a	0.0	stop_stim
250195.33825056825	80.66174943178855	n/a	942	89	2750	80.6617494318	stim	stop-signal	305	846478	0.0-15.4-1.4	beast_fmri_test	328	844286,/,844965,/,845644,/,846324,/	t,t,t,t	<img class = center src='/static/experiments/beast_fmri_test/images/V.png'></img>	71,89	2750.0	test	<img class = center src='/static/experiments/beast_fmri_test/images/redV.png'></img>	stop	1750.0	4.0	4.0	stop	non-target	V	71,Index Finger	89,Middle Finger	850.0	1000.0	1950.0	1750.0	0.0	1000.0	n/a	0.0	ITI
250903	500	n/a	-1	-1	500	0.0	fixation	poldrack-single-stim	306	847105	0.0-15.5-0.5	beast_fmri_test	328	847005,/	t	<div class = centerbox2><div class = fixation>+</div></div>	none	500.0	test	n/a	n/a	n/a	n/a	n/a	n/a	n/a	n/a	n/a	n/a	n/a	n/a	n/a	n/a	n/a	n/a	n/a	n/a	fixation
250658.53395153198	2750	n/a	1710	71	2750	246.466048468	stim	stop-signal	307	849857	0.0-15.5-1.5	beast_fmri_test	328	847685,/,848363,/,849044,/,849724,/	t,t,t,t	<img class = center src='/static/experiments/beast_fmri_test/images/T.png'></img>	71,89	2750.0	test	<img class = center src='/static/experiments/beast_fmri_test/images/redT.png'></img>	go	1900.0	4.0	5.0	go	target	T	71,Index Finger	89,Middle Finger	850.0	950.0	1900.0	1750.0	1.0	850.0	1.0	n/a	go_stim
253408.53395153198	246.46604846798419	n/a	1710	71	2750	246.466048468	stim	stop-signal	307	849857	0.0-15.5-1.5	beast_fmri_test	328	847685,/,848363,/,849044,/,849724,/	t,t,t,t	<img class = center src='/static/experiments/beast_fmri_test/images/T.png'></img>	71,89	2750.0	test	<img class = center src='/static/experiments/beast_fmri_test/images/redT.png'></img>	go	1900.0	4.0	5.0	go	target	T	71,Index Finger	89,Middle Finger	850.0	950.0	1900.0	1750.0	1.0	850.0	1.0	n/a	ITI
254440	500	n/a	-1	-1	500	0.0	fixation	poldrack-single-stim	308	850642	0.0-15.6-0.6	beast_fmri_test	328	850404,/	t	<div class = centerbox2><div class = fixation>+</div></div>	none	500.0	test	n/a	n/a	n/a	n/a	n/a	n/a	n/a	n/a	n/a	n/a	n/a	n/a	n/a	n/a	n/a	n/a	n/a	n/a	fixation
254320.42030212679	2750	n/a	1364	71	2750	120.579697873	stim	stop-signal	309	853393	0.0-15.6-1.6	beast_fmri_test	328	851084,/,851763,/,852443,/,853123,/	t,t,t,t	<img class = center src='/static/experiments/beast_fmri_test/images/V.png'></img>	71,89	2750.0	test	<img class = center src='/static/experiments/beast_fmri_test/images/redV.png'></img>	go	1800.0	4.0	6.0	go	non-target	V	71,Index Finger	89,Middle Finger	850.0	950.0	1900.0	1800.0	0.0	950.0	0.0	n/a	go_stim
257070.42030212679	120.57969787317214	n/a	1364	71	2750	120.579697873	stim	stop-signal	309	853393	0.0-15.6-1.6	beast_fmri_test	328	851084,/,851763,/,852443,/,853123,/	t,t,t,t	<img class = center src='/static/experiments/beast_fmri_test/images/V.png'></img>	71,89	2750.0	test	<img class = center src='/static/experiments/beast_fmri_test/images/redV.png'></img>	go	1800.0	4.0	6.0	go	non-target	V	71,Index Finger	89,Middle Finger	850.0	950.0	1900.0	1800.0	0.0	950.0	0.0	n/a	ITI
257854	500	n/a	-1	-1	500	0.0	fixation	poldrack-single-stim	310	854056	0.0-15.7-0.7	beast_fmri_test	328	853803,/	t	<div class = centerbox2><div class = fixation>+</div></div>	none	500.0	test	n/a	n/a	n/a	n/a	n/a	n/a	n/a	n/a	n/a	n/a	n/a	n/a	n/a	n/a	n/a	n/a	n/a	n/a	fixation
257508.83621570154	2750	n/a	1703	89	2750	346.163784298	stim	stop-signal	311	856807	0.0-15.7-1.7	beast_fmri_test	328	854482,/,855161,/,855841,/,856521,/	t,t,t,t	<img class = center src='/static/experiments/beast_fmri_test/images/B.png'></img>	71,89	2750.0	test	<img class = center src='/static/experiments/beast_fmri_test/images/redB.png'></img>	go	1800.0	4.0	7.0	go	non-target	B	71,Index Finger	89,Middle Finger	850.0	950.0	1900.0	1800.0	1.0	950.0	1.0	n/a	go_stim
260258.83621570154	346.1637842984598	n/a	1703	89	2750	346.163784298	stim	stop-signal	311	856807	0.0-15.7-1.7	beast_fmri_test	328	854482,/,855161,/,855841,/,856521,/	t,t,t,t	<img class = center src='/static/experiments/beast_fmri_test/images/B.png'></img>	71,89	2750.0	test	<img class = center src='/static/experiments/beast_fmri_test/images/redB.png'></img>	go	1800.0	4.0	7.0	go	non-target	B	71,Index Finger	89,Middle Finger	850.0	950.0	1900.0	1800.0	1.0	950.0	1.0	n/a	ITI
261496	500	n/a	-1	-1	500	0.0	fixation	poldrack-single-stim	312	857698	0.0-15.8-0.8	beast_fmri_test	328	857201,/	t	<div class = centerbox2><div class = fixation>+</div></div>	none	500.0	test	n/a	n/a	n/a	n/a	n/a	n/a	n/a	n/a	n/a	n/a	n/a	n/a	n/a	n/a	n/a	n/a	n/a	n/a	fixation
260591.62600917579	2750	n/a	1664	89	2750	905.373990824	stim	stop-signal	313	860449	0.0-15.8-1.8	beast_fmri_test	328	857880,/,858560,/,859240,/,859919,/,860598,/,861277,/	t,t,t,t,t,t	<img class = center src='/static/experiments/beast_fmri_test/images/D.png'></img>	71,89	2750.0	test	<img class = center src='/static/experiments/beast_fmri_test/images/redD.png'></img>	go	1800.0	4.0	8.0	go	non-target	D	71,Index Finger	89,Middle Finger	850.0	950.0	1900.0	1800.0	1.0	950.0	1.0	n/a	go_stim
263341.62600917579	905.37399082424952	n/a	1664	89	2750	905.373990824	stim	stop-signal	313	860449	0.0-15.8-1.8	beast_fmri_test	328	857880,/,858560,/,859240,/,859919,/,860598,/,861277,/	t,t,t,t,t,t	<img class = center src='/static/experiments/beast_fmri_test/images/D.png'></img>	71,89	2750.0	test	<img class = center src='/static/experiments/beast_fmri_test/images/redD.png'></img>	go	1800.0	4.0	8.0	go	non-target	D	71,Index Finger	89,Middle Finger	850.0	950.0	1900.0	1800.0	1.0	950.0	1.0	n/a	ITI
265699	500	n/a	-1	-1	500	0.0	fixation	poldrack-single-stim	314	861901	0.0-15.9-0.9	beast_fmri_test	328	n/a	n/a	<div class = centerbox2><div class = fixation>+</div></div>	none	500.0	test	n/a	n/a	n/a	n/a	n/a	n/a	n/a	n/a	n/a	n/a	n/a	n/a	n/a	n/a	n/a	n/a	n/a	n/a	fixation
264201.59362487041	850.0	n/a	-1	-1	2750	1499.40637513	stim	stop-signal	315	864653	0.0-15.9-1.9	beast_fmri_test	328	861959,/,862639,/,863318,/,863997,/,864676,/,865356,/,866037,/	t,t,t,t,t,t,t	<img class = center src='/static/experiments/beast_fmri_test/images/T.png'></img>	71,89	2750.0	test	<img class = center src='/static/experiments/beast_fmri_test/images/redT.png'></img>	stop	1900.0	4.0	9.0	stop	target	T	71,Index Finger	89,Middle Finger	850.0	950.0	1900.0	1800.0	0.0	850.0	n/a	1.0	go_stim
266101.59362487041	1900.0	n/a	-1	-1	2750	1499.40637513	stim	stop-signal	315	864653	0.0-15.9-1.9	beast_fmri_test	328	861959,/,862639,/,863318,/,863997,/,864676,/,865356,/,866037,/	t,t,t,t,t,t,t	<img class = center src='/static/experiments/beast_fmri_test/images/T.png'></img>	71,89	2750.0	test	<img class = center src='/static/experiments/beast_fmri_test/images/redT.png'></img>	stop	1900.0	4.0	9.0	stop	target	T	71,Index Finger	89,Middle Finger	850.0	950.0	1900.0	1800.0	0.0	850.0	n/a	1.0	stop_stim
266951.59362487041	1499.4063751295712	n/a	-1	-1	2750	1499.40637513	stim	stop-signal	315	864653	0.0-15.9-1.9	beast_fmri_test	328	861959,/,862639,/,863318,/,863997,/,864676,/,865356,/,866037,/	t,t,t,t,t,t,t	<img class = center src='/static/experiments/beast_fmri_test/images/T.png'></img>	71,89	2750.0	test	<img class = center src='/static/experiments/beast_fmri_test/images/redT.png'></img>	stop	1900.0	4.0	9.0	stop	target	T	71,Index Finger	89,Middle Finger	850.0	950.0	1900.0	1800.0	0.0	850.0	n/a	1.0	ITI
270490	500	n/a	-1	-1	500	0.0	fixation	poldrack-single-stim	316	866692	0.0-15.10-0.10	beast_fmri_test	328	n/a	n/a	<div class = centerbox2><div class = fixation>+</div></div>	none	500.0	test	n/a	n/a	n/a	n/a	n/a	n/a	n/a	n/a	n/a	n/a	n/a	n/a	n/a	n/a	n/a	n/a	n/a	n/a	fixation
269487.44770274672	2750	n/a	1639	89	2750	1002.55229725	stim	stop-signal	317	869442	0.0-15.10-1.10	beast_fmri_test	328	866716,/,867395,/,868075,/,868754,/,869433,/,870115,/	t,t,t,t,t,t	<img class = center src='/static/experiments/beast_fmri_test/images/D.png'></img>	71,89	2750.0	test	<img class = center src='/static/experiments/beast_fmri_test/images/redD.png'></img>	go	1800.0	4.0	10.0	go	non-target	D	71,Index Finger	89,Middle Finger	900.0	950.0	1900.0	1800.0	1.0	950.0	1.0	n/a	go_stim
272237.44770274672	1002.5522972532524	n/a	1639	89	2750	1002.55229725	stim	stop-signal	317	869442	0.0-15.10-1.10	beast_fmri_test	328	866716,/,867395,/,868075,/,868754,/,869433,/,870115,/	t,t,t,t,t,t	<img class = center src='/static/experiments/beast_fmri_test/images/D.png'></img>	71,89	2750.0	test	<img class = center src='/static/experiments/beast_fmri_test/images/redD.png'></img>	go	1800.0	4.0	10.0	go	non-target	D	71,Index Finger	89,Middle Finger	900.0	950.0	1900.0	1800.0	1.0	950.0	1.0	n/a	ITI
274785	500	n/a	-1	-1	500	0.0	fixation	poldrack-single-stim	318	870987	0.0-15.11-0.11	beast_fmri_test	328	870793,/	t	<div class = centerbox2><div class = fixation>+</div></div>	none	500.0	test	n/a	n/a	n/a	n/a	n/a	n/a	n/a	n/a	n/a	n/a	n/a	n/a	n/a	n/a	n/a	n/a	n/a	n/a	fixation
274558.66614633228	2750	n/a	1937	89	2750	228.333853668	stim	stop-signal	319	873739	0.0-15.11-1.11	beast_fmri_test	328	871473,/,872153,/,872833,/,873512,/	t,t,t,t	<img class = center src='/static/experiments/beast_fmri_test/images/P.png'></img>	71,89	2750.0	test	<img class = center src='/static/experiments/beast_fmri_test/images/redP.png'></img>	go	1800.0	4.0	11.0	go	non-target	P	71,Index Finger	89,Middle Finger	900.0	950.0	1900.0	1800.0	1.0	950.0	1.0	n/a	go_stim
277308.66614633228	228.33385366777131	n/a	1937	89	2750	228.333853668	stim	stop-signal	319	873739	0.0-15.11-1.11	beast_fmri_test	328	871473,/,872153,/,872833,/,873512,/	t,t,t,t	<img class = center src='/static/experiments/beast_fmri_test/images/P.png'></img>	71,89	2750.0	test	<img class = center src='/static/experiments/beast_fmri_test/images/redP.png'></img>	go	1800.0	4.0	11.0	go	non-target	P	71,Index Finger	89,Middle Finger	900.0	950.0	1900.0	1800.0	1.0	950.0	1.0	n/a	ITI
278308	500	n/a	-1	-1	500	0.0	fixation	poldrack-single-stim	320	874510	0.0-15.12-0.12	beast_fmri_test	328	874191,/	t	<div class = centerbox2><div class = fixation>+</div></div>	none	500.0	test	n/a	n/a	n/a	n/a	n/a	n/a	n/a	n/a	n/a	n/a	n/a	n/a	n/a	n/a	n/a	n/a	n/a	n/a	fixation
277955.76887800056	950.0	n/a	-1	-1	2750	355.231121999	stim	stop-signal	321	877263	0.0-15.12-1.12	beast_fmri_test	328	874872,/,875552,/,876232,/,876911,/,877591,/	t,t,t,t,t	<img class = center src='/static/experiments/beast_fmri_test/images/V.png'></img>	71,89	2750.0	test	<img class = center src='/static/experiments/beast_fmri_test/images/redV.png'></img>	stop	1800.0	4.0	12.0	stop	non-target	V	71,Index Finger	89,Middle Finger	900.0	950.0	1900.0	1800.0	0.0	950.0	n/a	1.0	go_stim
279755.76887800056	1800.0	n/a	-1	-1	2750	355.231121999	stim	stop-signal	321	877263	0.0-15.12-1.12	beast_fmri_test	328	874872,/,875552,/,876232,/,876911,/,877591,/	t,t,t,t,t	<img class = center src='/static/experiments/beast_fmri_test/images/V.png'></img>	71,89	2750.0	test	<img class = center src='/static/experiments/beast_fmri_test/images/redV.png'></img>	stop	1800.0	4.0	12.0	stop	non-target	V	71,Index Finger	89,Middle Finger	900.0	950.0	1900.0	1800.0	0.0	950.0	n/a	1.0	stop_stim
280705.76887800056	355.23112199940965	n/a	-1	-1	2750	355.231121999	stim	stop-signal	321	877263	0.0-15.12-1.12	beast_fmri_test	328	874872,/,875552,/,876232,/,876911,/,877591,/	t,t,t,t,t	<img class = center src='/static/experiments/beast_fmri_test/images/V.png'></img>	71,89	2750.0	test	<img class = center src='/static/experiments/beast_fmri_test/images/redV.png'></img>	stop	1800.0	4.0	12.0	stop	non-target	V	71,Index Finger	89,Middle Finger	900.0	950.0	1900.0	1800.0	0.0	950.0	n/a	1.0	ITI
281958	500	n/a	-1	-1	500	0.0	fixation	poldrack-single-stim	322	878160	0.0-15.13-0.13	beast_fmri_test	328	n/a	n/a	<div class = centerbox2><div class = fixation>+</div></div>	none	500.0	test	n/a	n/a	n/a	n/a	n/a	n/a	n/a	n/a	n/a	n/a	n/a	n/a	n/a	n/a	n/a	n/a	n/a	n/a	fixation
281830.1829638643	1000.0	n/a	-1	-1	2750	129.817036136	stim	stop-signal	323	880912	0.0-15.13-1.13	beast_fmri_test	328	878270,/,878952,/,879631,/,880311,/,880988,/	t,t,t,t,t	<img class = center src='/static/experiments/beast_fmri_test/images/D.png'></img>	71,89	2750.0	test	<img class = center src='/static/experiments/beast_fmri_test/images/redD.png'></img>	stop	1750.0	4.0	13.0	stop	non-target	D	71,Index Finger	89,Middle Finger	900.0	1000.0	1900.0	1750.0	0.0	1000.0	n/a	1.0	go_stim
283580.1829638643	1750.0	n/a	-1	-1	2750	129.817036136	stim	stop-signal	323	880912	0.0-15.13-1.13	beast_fmri_test	328	878270,/,878952,/,879631,/,880311,/,880988,/	t,t,t,t,t	<img class = center src='/static/experiments/beast_fmri_test/images/D.png'></img>	71,89	2750.0	test	<img class = center src='/static/experiments/beast_fmri_test/images/redD.png'></img>	stop	1750.0	4.0	13.0	stop	non-target	D	71,Index Finger	89,Middle Finger	900.0	1000.0	1900.0	1750.0	0.0	1000.0	n/a	1.0	stop_stim
284580.1829638643	129.81703613569186	n/a	-1	-1	2750	129.817036136	stim	stop-signal	323	880912	0.0-15.13-1.13	beast_fmri_test	328	878270,/,878952,/,879631,/,880311,/,880988,/	t,t,t,t,t	<img class = center src='/static/experiments/beast_fmri_test/images/D.png'></img>	71,89	2750.0	test	<img class = center src='/static/experiments/beast_fmri_test/images/redD.png'></img>	stop	1750.0	4.0	13.0	stop	non-target	D	71,Index Finger	89,Middle Finger	900.0	1000.0	1900.0	1750.0	0.0	1000.0	n/a	1.0	ITI
285383	500	n/a	-1	-1	500	0.0	fixation	poldrack-single-stim	324	881585	0.0-15.14-0.14	beast_fmri_test	328	n/a	n/a	<div class = centerbox2><div class = fixation>+</div></div>	none	500.0	test	n/a	n/a	n/a	n/a	n/a	n/a	n/a	n/a	n/a	n/a	n/a	n/a	n/a	n/a	n/a	n/a	n/a	n/a	fixation
284681.44962763775	1050.0	n/a	-1	-1	2750	703.550372362	stim	stop-signal	325	884337	0.0-15.14-1.14	beast_fmri_test	328	881670,/,882349,/,883029,/,883709,/,884387,/	t,t,t,t,t	<img class = center src='/static/experiments/beast_fmri_test/images/B.png'></img>	71,89	2750.0	test	<img class = center src='/static/experiments/beast_fmri_test/images/redB.png'></img>	stop	1700.0	4.0	14.0	stop	non-target	B	71,Index Finger	89,Middle Finger	900.0	1050.0	1900.0	1700.0	0.0	1050.0	n/a	1.0	go_stim
286381.44962763775	1700.0	n/a	-1	-1	2750	703.550372362	stim	stop-signal	325	884337	0.0-15.14-1.14	beast_fmri_test	328	881670,/,882349,/,883029,/,883709,/,884387,/	t,t,t,t,t	<img class = center src='/static/experiments/beast_fmri_test/images/B.png'></img>	71,89	2750.0	test	<img class = center src='/static/experiments/beast_fmri_test/images/redB.png'></img>	stop	1700.0	4.0	14.0	stop	non-target	B	71,Index Finger	89,Middle Finger	900.0	1050.0	1900.0	1700.0	0.0	1050.0	n/a	1.0	stop_stim
287431.44962763775	703.55037236220858	n/a	-1	-1	2750	703.550372362	stim	stop-signal	325	884337	0.0-15.14-1.14	beast_fmri_test	328	881670,/,882349,/,883029,/,883709,/,884387,/	t,t,t,t,t	<img class = center src='/static/experiments/beast_fmri_test/images/B.png'></img>	71,89	2750.0	test	<img class = center src='/static/experiments/beast_fmri_test/images/redB.png'></img>	stop	1700.0	4.0	14.0	stop	non-target	B	71,Index Finger	89,Middle Finger	900.0	1050.0	1900.0	1700.0	0.0	1050.0	n/a	1.0	ITI
289383	500	n/a	-1	-1	500	0.0	fixation	poldrack-single-stim	326	885585	0.0-15.15-0.15	beast_fmri_test	328	885084,/	t	<div class = centerbox2><div class = fixation>+</div></div>	none	500.0	test	n/a	n/a	n/a	n/a	n/a	n/a	n/a	n/a	n/a	n/a	n/a	n/a	n/a	n/a	n/a	n/a	n/a	n/a	fixation
286226.90154365927	2750	n/a	1577	89	2750	3158.09845634	stim	stop-signal	327	888337	0.0-15.15-1.15	beast_fmri_test	328	885748,/,886427,/,887106,/,887785,/,888465,/,889146,/,889825,/,890505,/,891185,/	t,t,t,t,t,t,t,t,t	<img class = center src='/static/experiments/beast_fmri_test/images/V.png'></img>	71,89	2750.0	test	<img class = center src='/static/experiments/beast_fmri_test/images/redV.png'></img>	go	1650.0	4.0	15.0	go	non-target	V	71,Index Finger	89,Middle Finger	900.0	1100.0	1900.0	1650.0	1.0	1100.0	1.0	n/a	go_stim
288976.90154365927	3158.0984563406987	n/a	1577	89	2750	3158.09845634	stim	stop-signal	327	888337	0.0-15.15-1.15	beast_fmri_test	328	885748,/,886427,/,887106,/,887785,/,888465,/,889146,/,889825,/,890505,/,891185,/	t,t,t,t,t,t,t,t,t	<img class = center src='/static/experiments/beast_fmri_test/images/V.png'></img>	71,89	2750.0	test	<img class = center src='/static/experiments/beast_fmri_test/images/redV.png'></img>	go	1650.0	4.0	15.0	go	non-target	V	71,Index Finger	89,Middle Finger	900.0	1100.0	1900.0	1650.0	1.0	1100.0	1.0	n/a	ITI
295835	500	n/a	-1	-1	500	0.0	fixation	poldrack-single-stim	328	892037	0.0-15.16-0.16	beast_fmri_test	328	891864,/	t	<div class = centerbox2><div class = fixation>+</div></div>	none	500.0	test	n/a	n/a	n/a	n/a	n/a	n/a	n/a	n/a	n/a	n/a	n/a	n/a	n/a	n/a	n/a	n/a	n/a	n/a	fixation
290836.0	2750	n/a	1759	71	2750	5000.0	stim	stop-signal	329	894788	0.0-15.16-1.16	beast_fmri_test	328	892544,/,893225,/,893904,/,894583,/,895263,/,895943,/,896622,/,897302,/,897981,/,898661,/,899341,/	t,t,t,t,t,t,t,t,t,t,t	<img class = center src='/static/experiments/beast_fmri_test/images/D.png'></img>	71,89	2750.0	test	<img class = center src='/static/experiments/beast_fmri_test/images/redD.png'></img>	go	1650.0	4.0	16.0	go	non-target	D	71,Index Finger	89,Middle Finger	900.0	1100.0	1900.0	1650.0	0.0	1100.0	0.0	n/a	go_stim
293586.0	5000.0	n/a	1759	71	2750	5000.0	stim	stop-signal	329	894788	0.0-15.16-1.16	beast_fmri_test	328	892544,/,893225,/,893904,/,894583,/,895263,/,895943,/,896622,/,897302,/,897981,/,898661,/,899341,/	t,t,t,t,t,t,t,t,t,t,t	<img class = center src='/static/experiments/beast_fmri_test/images/D.png'></img>	71,89	2750.0	test	<img class = center src='/static/experiments/beast_fmri_test/images/redD.png'></img>	go	1650.0	4.0	16.0	go	non-target	D	71,Index Finger	89,Middle Finger	900.0	1100.0	1900.0	1650.0	0.0	1100.0	0.0	n/a	ITI
304129	500	n/a	-1	-1	500	0.0	fixation	poldrack-single-stim	330	900331	0.0-15.17-0.17	beast_fmri_test	328	900020,/	t	<div class = centerbox2><div class = fixation>+</div></div>	none	500.0	test	n/a	n/a	n/a	n/a	n/a	n/a	n/a	n/a	n/a	n/a	n/a	n/a	n/a	n/a	n/a	n/a	n/a	n/a	fixation
304029.95541996334	1100.0	n/a	-1	-1	2750	101.044580037	stim	stop-signal	331	903083	0.0-15.17-1.17	beast_fmri_test	328	900700,/,901380,/,902059,/,902738,/	t,t,t,t	<img class = center src='/static/experiments/beast_fmri_test/images/P.png'></img>	71,89	2750.0	test	<img class = center src='/static/experiments/beast_fmri_test/images/redP.png'></img>	stop	1650.0	4.0	17.0	stop	non-target	P	71,Index Finger	89,Middle Finger	900.0	1100.0	1900.0	1650.0	0.0	1100.0	n/a	1.0	go_stim
305679.95541996334	1650.0	n/a	-1	-1	2750	101.044580037	stim	stop-signal	331	903083	0.0-15.17-1.17	beast_fmri_test	328	900700,/,901380,/,902059,/,902738,/	t,t,t,t	<img class = center src='/static/experiments/beast_fmri_test/images/P.png'></img>	71,89	2750.0	test	<img class = center src='/static/experiments/beast_fmri_test/images/redP.png'></img>	stop	1650.0	4.0	17.0	stop	non-target	P	71,Index Finger	89,Middle Finger	900.0	1100.0	1900.0	1650.0	0.0	1100.0	n/a	1.0	stop_stim
306779.95541996334	101.04458003668819	n/a	-1	-1	2750	101.044580037	stim	stop-signal	331	903083	0.0-15.17-1.17	beast_fmri_test	328	900700,/,901380,/,902059,/,902738,/	t,t,t,t	<img class = center src='/static/experiments/beast_fmri_test/images/P.png'></img>	71,89	2750.0	test	<img class = center src='/static/experiments/beast_fmri_test/images/redP.png'></img>	stop	1650.0	4.0	17.0	stop	non-target	P	71,Index Finger	89,Middle Finger	900.0	1100.0	1900.0	1650.0	0.0	1100.0	n/a	1.0	ITI
307527	500	n/a	-1	-1	500	0.0	fixation	poldrack-single-stim	332	903729	0.0-15.18-0.18	beast_fmri_test	328	903418,/	t	<div class = centerbox2><div class = fixation>+</div></div>	none	500.0	test	n/a	n/a	n/a	n/a	n/a	n/a	n/a	n/a	n/a	n/a	n/a	n/a	n/a	n/a	n/a	n/a	n/a	n/a	fixation
305087.44613449369	2750	n/a	1858	89	2750	2441.55386551	stim	stop-signal	333	906481	0.0-15.18-1.18	beast_fmri_test	328	904098,/,904778,/,905457,/,906138,/,906817,/,907498,/,908175,/,908857,/	t,t,t,t,t,t,t,t	<img class = center src='/static/experiments/beast_fmri_test/images/T.png'></img>	71,89	2750.0	test	<img class = center src='/static/experiments/beast_fmri_test/images/redT.png'></img>	go	1600.0	4.0	18.0	go	non-target	T	71,Index Finger	89,Middle Finger	900.0	1150.0	1900.0	1600.0	1.0	1150.0	1.0	n/a	go_stim
307837.44613449369	2441.5538655063365	n/a	1858	89	2750	2441.55386551	stim	stop-signal	333	906481	0.0-15.18-1.18	beast_fmri_test	328	904098,/,904778,/,905457,/,906138,/,906817,/,907498,/,908175,/,908857,/	t,t,t,t,t,t,t,t	<img class = center src='/static/experiments/beast_fmri_test/images/T.png'></img>	71,89	2750.0	test	<img class = center src='/static/experiments/beast_fmri_test/images/redT.png'></img>	go	1600.0	4.0	18.0	go	non-target	T	71,Index Finger	89,Middle Finger	900.0	1150.0	1900.0	1600.0	1.0	1150.0	1.0	n/a	ITI
313264	500	n/a	-1	-1	500	0.0	fixation	poldrack-single-stim	334	909466	0.0-15.19-0.19	beast_fmri_test	328	n/a	n/a	<div class = centerbox2><div class = fixation>+</div></div>	none	500.0	test	n/a	n/a	n/a	n/a	n/a	n/a	n/a	n/a	n/a	n/a	n/a	n/a	n/a	n/a	n/a	n/a	n/a	n/a	fixation
312522.39096036763	2750	n/a	1492	89	2750	743.609039632	stim	stop-signal	335	912218	0.0-15.19-1.19	beast_fmri_test	328	909537,/,910217,/,910895,/,911575,/,912254,/,912935,/	t,t,t,t,t,t	<img class = center src='/static/experiments/beast_fmri_test/images/T.png'></img>	71,89	2750.0	test	<img class = center src='/static/experiments/beast_fmri_test/images/redT.png'></img>	go	1600.0	4.0	19.0	go	non-target	T	71,Index Finger	89,Middle Finger	900.0	1150.0	1900.0	1600.0	1.0	1150.0	1.0	n/a	go_stim
315272.39096036763	743.60903963242106	n/a	1492	89	2750	743.609039632	stim	stop-signal	335	912218	0.0-15.19-1.19	beast_fmri_test	328	909537,/,910217,/,910895,/,911575,/,912254,/,912935,/	t,t,t,t,t,t	<img class = center src='/static/experiments/beast_fmri_test/images/T.png'></img>	71,89	2750.0	test	<img class = center src='/static/experiments/beast_fmri_test/images/redT.png'></img>	go	1600.0	4.0	19.0	go	non-target	T	71,Index Finger	89,Middle Finger	900.0	1150.0	1900.0	1600.0	1.0	1150.0	1.0	n/a	ITI
317302	500	n/a	-1	-1	500	0.0	fixation	poldrack-single-stim	336	913504	0.0-15.20-0.20	beast_fmri_test	328	n/a	n/a	<div class = centerbox2><div class = fixation>+</div></div>	none	500.0	test	n/a	n/a	n/a	n/a	n/a	n/a	n/a	n/a	n/a	n/a	n/a	n/a	n/a	n/a	n/a	n/a	n/a	n/a	fixation
315830.67353888613	2750	n/a	1165	89	2750	1474.32646111	stim	stop-signal	337	916257	0.0-15.20-1.20	beast_fmri_test	328	913614,/,914294,/,914974,/,915653,/,916333,/,917013,/,917692,/	t,t,t,t,t,t,t	<img class = center src='/static/experiments/beast_fmri_test/images/T.png'></img>	71,89	2750.0	test	<img class = center src='/static/experiments/beast_fmri_test/images/redT.png'></img>	go	1600.0	4.0	20.0	go	non-target	T	71,Index Finger	89,Middle Finger	900.0	1150.0	1900.0	1600.0	1.0	1150.0	1.0	n/a	go_stim
318580.67353888613	1474.3264611139168	n/a	1165	89	2750	1474.32646111	stim	stop-signal	337	916257	0.0-15.20-1.20	beast_fmri_test	328	913614,/,914294,/,914974,/,915653,/,916333,/,917013,/,917692,/	t,t,t,t,t,t,t	<img class = center src='/static/experiments/beast_fmri_test/images/T.png'></img>	71,89	2750.0	test	<img class = center src='/static/experiments/beast_fmri_test/images/redT.png'></img>	go	1600.0	4.0	20.0	go	non-target	T	71,Index Finger	89,Middle Finger	900.0	1150.0	1900.0	1600.0	1.0	1150.0	1.0	n/a	ITI
322077	500	n/a	-1	-1	500	0.0	fixation	poldrack-single-stim	338	918279	0.0-15.21-0.21	beast_fmri_test	328	n/a	n/a	<div class = centerbox2><div class = fixation>+</div></div>	none	500.0	test	n/a	n/a	n/a	n/a	n/a	n/a	n/a	n/a	n/a	n/a	n/a	n/a	n/a	n/a	n/a	n/a	n/a	n/a	fixation
321621.60812016542	900.0	n/a	1009	89	2750	456.391879835	stim	stop-signal	339	921030	0.0-15.21-1.21	beast_fmri_test	328	918371,/,919052,/,919732,/,920411,/,921089,/	t,t,t,t,t	<img class = center src='/static/experiments/beast_fmri_test/images/P.png'></img>	71,89	2750.0	test	<img class = center src='/static/experiments/beast_fmri_test/images/redP.png'></img>	stop	1850.0	4.0	21.0	stop	target	P	71,Index Finger	89,Middle Finger	900.0	1150.0	1850.0	1600.0	0.0	900.0	n/a	0.0	go_stim
323471.60812016542	1850.0	n/a	1009	89	2750	456.391879835	stim	stop-signal	339	921030	0.0-15.21-1.21	beast_fmri_test	328	918371,/,919052,/,919732,/,920411,/,921089,/	t,t,t,t,t	<img class = center src='/static/experiments/beast_fmri_test/images/P.png'></img>	71,89	2750.0	test	<img class = center src='/static/experiments/beast_fmri_test/images/redP.png'></img>	stop	1850.0	4.0	21.0	stop	target	P	71,Index Finger	89,Middle Finger	900.0	1150.0	1850.0	1600.0	0.0	900.0	n/a	0.0	stop_stim
