onset	duration	text	rt	key_press	block_duration	timing_post_trial	trial_id	trial_type	trial_index	time_elapsed	internal_node_id	exp_id	subject_id	trigger_times	triggers	stimulus	possible_responses	stim_duration	exp_stage	SS_stimulus	SS_trial_type	SS_duration	load	trial_num	stop_trial_type	adaptive_trial_type	stim	yes_response_key	no_response_key	SSD_target	SSD_non_target	SSTarget	SSNonTarget	go_acc	SS_delay	adaptive_acc	stop_acc	new_trial_type
test	10880.0	n/a	-1	-1	10880	0.0	practice-no-stop-feedback	poldrack-single-stim	6	96153	0.0-6.0	beast_fmri_test	328	85276,/,85954,/,86635,/,87314,/,87994,/,88674,/,89353,/,90033,/,90712,/,91392,/,92072,/,92752,/,93430,/,94111,/,94790,/,95469,/,96149,/	t,t,t,t,t,t,t,t,t,t,t,t,t,t,t,t,t	"<div class = ""centerbox""><p class = ""block-text"">Your delay is 2 trials.</p><p class = block-text>Please wait for the scanner to start the block</p></div>"	77	10880.0	n/a	n/a	n/a	n/a	n/a	n/a	n/a	n/a	n/a	n/a	n/a	n/a	n/a	n/a	n/a	n/a	n/a	n/a	n/a	start_functional_block
11380	500.0	n/a	-1	-1	500	0.0	fixation	poldrack-single-stim	7	96656	0.0-7.0-0.0	beast_fmri_test	328	n/a	n/a	<div class = centerbox2><div class = fixation>+</div></div>	none	500.0	test	n/a	n/a	n/a	n/a	n/a	n/a	n/a	n/a	n/a	n/a	n/a	n/a	n/a	n/a	n/a	n/a	n/a	n/a	fixation
11256.356971787187	2750.0	n/a	-1	-1	2750	127.643028213	stim	stop-signal	8	99410	0.0-7.0-1.0	beast_fmri_test	328	96830,/,97509,/,98189,/,98867,/	t,t,t,t	<img class = center src='/static/experiments/beast_fmri_test/images/T.png'></img>	71,89	2750.0	test	<img class = center src='/static/experiments/beast_fmri_test/images/redT.png'></img>	go	-1.0	2.0	0.0	go	temp-non-target	T	71,Index Finger	89,Middle Finger	500.0	500.0	0.0	0.0	0.0	n/a	n/a	n/a	go_stim
14006.356971787187	127.643028213	n/a	-1	-1	2750	127.643028213	stim	stop-signal	8	99410	0.0-7.0-1.0	beast_fmri_test	328	96830,/,97509,/,98189,/,98867,/	t,t,t,t	<img class = center src='/static/experiments/beast_fmri_test/images/T.png'></img>	71,89	2750.0	test	<img class = center src='/static/experiments/beast_fmri_test/images/redT.png'></img>	go	-1.0	2.0	0.0	go	temp-non-target	T	71,Index Finger	89,Middle Finger	500.0	500.0	0.0	0.0	0.0	n/a	n/a	n/a	ITI
14771	500.0	n/a	-1	-1	500	0.0	fixation	poldrack-single-stim	9	100047	0.0-7.1-0.1	beast_fmri_test	328	99548,/	t	<div class = centerbox2><div class = fixation>+</div></div>	none	500.0	test	n/a	n/a	n/a	n/a	n/a	n/a	n/a	n/a	n/a	n/a	n/a	n/a	n/a	n/a	n/a	n/a	n/a	n/a	fixation
14563.562148735582	2750.0	n/a	-1	-1	2750	210.437851264	stim	stop-signal	10	102800	0.0-7.1-1.1	beast_fmri_test	328	100228,/,100908,/,101588,/,102267,/,102947,/	t,t,t,t,t	<img class = center src='/static/experiments/beast_fmri_test/images/D.png'></img>	71,89	2750.0	test	<img class = center src='/static/experiments/beast_fmri_test/images/redD.png'></img>	go	-1.0	2.0	1.0	go	temp-non-target	D	71,Index Finger	89,Middle Finger	500.0	500.0	0.0	0.0	0.0	n/a	n/a	n/a	go_stim
17313.562148735582	210.437851264	n/a	-1	-1	2750	210.437851264	stim	stop-signal	10	102800	0.0-7.1-1.1	beast_fmri_test	328	100228,/,100908,/,101588,/,102267,/,102947,/	t,t,t,t,t	<img class = center src='/static/experiments/beast_fmri_test/images/D.png'></img>	71,89	2750.0	test	<img class = center src='/static/experiments/beast_fmri_test/images/redD.png'></img>	go	-1.0	2.0	1.0	go	temp-non-target	D	71,Index Finger	89,Middle Finger	500.0	500.0	0.0	0.0	0.0	n/a	n/a	n/a	ITI
18242	500.0	n/a	-1	-1	500	0.0	fixation	poldrack-single-stim	11	103518	0.0-7.2-0.2	beast_fmri_test	328	n/a	n/a	<div class = centerbox2><div class = fixation>+</div></div>	none	500.0	test	n/a	n/a	n/a	n/a	n/a	n/a	n/a	n/a	n/a	n/a	n/a	n/a	n/a	n/a	n/a	n/a	n/a	n/a	fixation
17787.718241476716	2750.0	n/a	1572	89	2750	458.281758523	stim	stop-signal	12	106272	0.0-7.2-1.2	beast_fmri_test	328	103625,/,104305,/,104985,/,105664,/,106345,/	t,t,t,t,t	<img class = center src='/static/experiments/beast_fmri_test/images/V.png'></img>	71,89	2750.0	test	<img class = center src='/static/experiments/beast_fmri_test/images/redV.png'></img>	go	2250.0	2.0	2.0	go	non-target	V	71,Index Finger	89,Middle Finger	500.0	500.0	0.0	2250.0	1.0	500.0	1.0	n/a	go_stim
20537.718241476716	458.281758523	n/a	1572	89	2750	458.281758523	stim	stop-signal	12	106272	0.0-7.2-1.2	beast_fmri_test	328	103625,/,104305,/,104985,/,105664,/,106345,/	t,t,t,t,t	<img class = center src='/static/experiments/beast_fmri_test/images/V.png'></img>	71,89	2750.0	test	<img class = center src='/static/experiments/beast_fmri_test/images/redV.png'></img>	go	2250.0	2.0	2.0	go	non-target	V	71,Index Finger	89,Middle Finger	500.0	500.0	0.0	2250.0	1.0	500.0	1.0	n/a	ITI
21961	500.0	n/a	-1	-1	500	0.0	fixation	poldrack-single-stim	13	107237	0.0-7.3-0.3	beast_fmri_test	328	107025,/	t	<div class = centerbox2><div class = fixation>+</div></div>	none	500.0	test	n/a	n/a	n/a	n/a	n/a	n/a	n/a	n/a	n/a	n/a	n/a	n/a	n/a	n/a	n/a	n/a	n/a	n/a	fixation
21232.272372531821	500.0	n/a	-1	-1	2750	729.727627468	stim	stop-signal	14	109988	0.0-7.3-1.3	beast_fmri_test	328	107704,/,108384,/,109063,/,109743,/,110423,/	t,t,t,t,t	<img class = center src='/static/experiments/beast_fmri_test/images/D.png'></img>	71,89	2750.0	test	<img class = center src='/static/experiments/beast_fmri_test/images/redD.png'></img>	stop	2250.0	2.0	3.0	stop	target	D	71,Index Finger	89,Middle Finger	500.0	500.0	2250.0	2250.0	0.0	500.0	n/a	1.0	go_stim
23482.272372531821	2250.0	n/a	-1	-1	2750	729.727627468	stim	stop-signal	14	109988	0.0-7.3-1.3	beast_fmri_test	328	107704,/,108384,/,109063,/,109743,/,110423,/	t,t,t,t,t	<img class = center src='/static/experiments/beast_fmri_test/images/D.png'></img>	71,89	2750.0	test	<img class = center src='/static/experiments/beast_fmri_test/images/redD.png'></img>	stop	2250.0	2.0	3.0	stop	target	D	71,Index Finger	89,Middle Finger	500.0	500.0	2250.0	2250.0	0.0	500.0	n/a	1.0	stop_stim
23982.272372531821	729.727627468	n/a	-1	-1	2750	729.727627468	stim	stop-signal	14	109988	0.0-7.3-1.3	beast_fmri_test	328	107704,/,108384,/,109063,/,109743,/,110423,/	t,t,t,t,t	<img class = center src='/static/experiments/beast_fmri_test/images/D.png'></img>	71,89	2750.0	test	<img class = center src='/static/experiments/beast_fmri_test/images/redD.png'></img>	stop	2250.0	2.0	3.0	stop	target	D	71,Index Finger	89,Middle Finger	500.0	500.0	2250.0	2250.0	0.0	500.0	n/a	1.0	ITI
25949	500.0	n/a	-1	-1	500	0.0	fixation	poldrack-single-stim	15	111225	0.0-7.4-0.4	beast_fmri_test	328	111102,/	t	<div class = centerbox2><div class = fixation>+</div></div>	none	500.0	test	n/a	n/a	n/a	n/a	n/a	n/a	n/a	n/a	n/a	n/a	n/a	n/a	n/a	n/a	n/a	n/a	n/a	n/a	fixation
24188.020440267181	2750.0	n/a	1576	89	2750	1762.97955973	stim	stop-signal	16	113977	0.0-7.4-1.4	beast_fmri_test	328	111781,/,112462,/,113142,/,113822,/,114501,/,115181,/	t,t,t,t,t,t	<img class = center src='/static/experiments/beast_fmri_test/images/T.png'></img>	71,89	2750.0	test	<img class = center src='/static/experiments/beast_fmri_test/images/redT.png'></img>	go	2250.0	2.0	4.0	go	non-target	T	71,Index Finger	89,Middle Finger	550.0	500.0	2250.0	2250.0	1.0	500.0	1.0	n/a	go_stim
26938.020440267181	1762.97955973	n/a	1576	89	2750	1762.97955973	stim	stop-signal	16	113977	0.0-7.4-1.4	beast_fmri_test	328	111781,/,112462,/,113142,/,113822,/,114501,/,115181,/	t,t,t,t,t,t	<img class = center src='/static/experiments/beast_fmri_test/images/T.png'></img>	71,89	2750.0	test	<img class = center src='/static/experiments/beast_fmri_test/images/redT.png'></img>	go	2250.0	2.0	4.0	go	non-target	T	71,Index Finger	89,Middle Finger	550.0	500.0	2250.0	2250.0	1.0	500.0	1.0	n/a	ITI
30971	500.0	n/a	-1	-1	500	0.0	fixation	poldrack-single-stim	17	116247	0.0-7.5-0.5	beast_fmri_test	328	115861,/	t	<div class = centerbox2><div class = fixation>+</div></div>	none	500.0	test	n/a	n/a	n/a	n/a	n/a	n/a	n/a	n/a	n/a	n/a	n/a	n/a	n/a	n/a	n/a	n/a	n/a	n/a	fixation
29373.853650966645	2750.0	n/a	1045	89	2750	1599.14634903	stim	stop-signal	18	118999	0.0-7.5-1.5	beast_fmri_test	328	116541,/,117220,/,117900,/,118579,/,119260,/,119939,/	t,t,t,t,t,t	<img class = center src='/static/experiments/beast_fmri_test/images/P.png'></img>	71,89	2750.0	test	<img class = center src='/static/experiments/beast_fmri_test/images/redP.png'></img>	go	2250.0	2.0	5.0	go	non-target	P	71,Index Finger	89,Middle Finger	550.0	500.0	2250.0	2250.0	1.0	500.0	1.0	n/a	go_stim
32123.853650966645	1599.14634903	n/a	1045	89	2750	1599.14634903	stim	stop-signal	18	118999	0.0-7.5-1.5	beast_fmri_test	328	116541,/,117220,/,117900,/,118579,/,119260,/,119939,/	t,t,t,t,t,t	<img class = center src='/static/experiments/beast_fmri_test/images/P.png'></img>	71,89	2750.0	test	<img class = center src='/static/experiments/beast_fmri_test/images/redP.png'></img>	go	2250.0	2.0	5.0	go	non-target	P	71,Index Finger	89,Middle Finger	550.0	500.0	2250.0	2250.0	1.0	500.0	1.0	n/a	ITI
35830	500.0	n/a	-1	-1	500	0.0	fixation	poldrack-single-stim	19	121106	0.0-7.6-0.6	beast_fmri_test	328	120621,/	t	<div class = centerbox2><div class = fixation>+</div></div>	none	500.0	test	n/a	n/a	n/a	n/a	n/a	n/a	n/a	n/a	n/a	n/a	n/a	n/a	n/a	n/a	n/a	n/a	n/a	n/a	fixation
33875.680535869324	2750.0	n/a	1287	89	2750	1956.31946413	stim	stop-signal	20	123858	0.0-7.6-1.6	beast_fmri_test	328	121298,/,121978,/,122657,/,123337,/,124017,/,124697,/,125376,/	t,t,t,t,t,t,t	<img class = center src='/static/experiments/beast_fmri_test/images/V.png'></img>	71,89	2750.0	test	<img class = center src='/static/experiments/beast_fmri_test/images/redV.png'></img>	go	2250.0	2.0	6.0	go	non-target	V	71,Index Finger	89,Middle Finger	550.0	500.0	2250.0	2250.0	1.0	500.0	1.0	n/a	go_stim
36625.680535869324	1956.31946413	n/a	1287	89	2750	1956.31946413	stim	stop-signal	20	123858	0.0-7.6-1.6	beast_fmri_test	328	121298,/,121978,/,122657,/,123337,/,124017,/,124697,/,125376,/	t,t,t,t,t,t,t	<img class = center src='/static/experiments/beast_fmri_test/images/V.png'></img>	71,89	2750.0	test	<img class = center src='/static/experiments/beast_fmri_test/images/redV.png'></img>	go	2250.0	2.0	6.0	go	non-target	V	71,Index Finger	89,Middle Finger	550.0	500.0	2250.0	2250.0	1.0	500.0	1.0	n/a	ITI
41046	500.0	n/a	-1	-1	500	0.0	fixation	poldrack-single-stim	21	126322	0.0-7.7-0.7	beast_fmri_test	328	126056,/	t	<div class = centerbox2><div class = fixation>+</div></div>	none	500.0	test	n/a	n/a	n/a	n/a	n/a	n/a	n/a	n/a	n/a	n/a	n/a	n/a	n/a	n/a	n/a	n/a	n/a	n/a	fixation
37061.444120910033	2750.0	n/a	852	71	2750	3984.55587909	stim	stop-signal	22	129072	0.0-7.7-1.7	beast_fmri_test	328	126736,/,127414,/,128094,/,128775,/,129455,/,130133,/,130814,/,131493,/,132173,/,132851,/	t,t,t,t,t,t,t,t,t,t	<img class = center src='/static/experiments/beast_fmri_test/images/P.png'></img>	71,89	2750.0	test	<img class = center src='/static/experiments/beast_fmri_test/images/redP.png'></img>	go	2200.0	2.0	7.0	go	target	P	71,Index Finger	89,Middle Finger	550.0	500.0	2200.0	2250.0	1.0	550.0	1.0	n/a	go_stim
39811.444120910033	3984.55587909	n/a	852	71	2750	3984.55587909	stim	stop-signal	22	129072	0.0-7.7-1.7	beast_fmri_test	328	126736,/,127414,/,128094,/,128775,/,129455,/,130133,/,130814,/,131493,/,132173,/,132851,/	t,t,t,t,t,t,t,t,t,t	<img class = center src='/static/experiments/beast_fmri_test/images/P.png'></img>	71,89	2750.0	test	<img class = center src='/static/experiments/beast_fmri_test/images/redP.png'></img>	go	2200.0	2.0	7.0	go	target	P	71,Index Finger	89,Middle Finger	550.0	500.0	2200.0	2250.0	1.0	550.0	1.0	n/a	ITI
48287	500.0	n/a	-1	-1	500	0.0	fixation	poldrack-single-stim	23	133563	0.0-7.8-0.8	beast_fmri_test	328	133533,/	t	<div class = centerbox2><div class = fixation>+</div></div>	none	500.0	test	n/a	n/a	n/a	n/a	n/a	n/a	n/a	n/a	n/a	n/a	n/a	n/a	n/a	n/a	n/a	n/a	n/a	n/a	fixation
48078.388346032909	2750.0	n/a	1108	89	2750	210.611653967	stim	stop-signal	24	136315	0.0-7.8-1.8	beast_fmri_test	328	134211,/,134892,/,135570,/,136251,/	t,t,t,t	<img class = center src='/static/experiments/beast_fmri_test/images/D.png'></img>	71,89	2750.0	test	<img class = center src='/static/experiments/beast_fmri_test/images/redD.png'></img>	go	2250.0	2.0	8.0	go	non-target	D	71,Index Finger	89,Middle Finger	550.0	500.0	2200.0	2250.0	1.0	500.0	1.0	n/a	go_stim
50828.388346032909	210.611653967	n/a	1108	89	2750	210.611653967	stim	stop-signal	24	136315	0.0-7.8-1.8	beast_fmri_test	328	134211,/,134892,/,135570,/,136251,/	t,t,t,t	<img class = center src='/static/experiments/beast_fmri_test/images/D.png'></img>	71,89	2750.0	test	<img class = center src='/static/experiments/beast_fmri_test/images/redD.png'></img>	go	2250.0	2.0	8.0	go	non-target	D	71,Index Finger	89,Middle Finger	550.0	500.0	2200.0	2250.0	1.0	500.0	1.0	n/a	ITI
51760	500.0	n/a	-1	-1	500	0.0	fixation	poldrack-single-stim	25	137036	0.0-7.9-0.9	beast_fmri_test	328	136930,/	t	<div class = centerbox2><div class = fixation>+</div></div>	none	500.0	test	n/a	n/a	n/a	n/a	n/a	n/a	n/a	n/a	n/a	n/a	n/a	n/a	n/a	n/a	n/a	n/a	n/a	n/a	fixation
51465.012208996894	2750.0	n/a	1199	71	2750	296.987791003	stim	stop-signal	26	139788	0.0-7.9-1.9	beast_fmri_test	328	137610,/,138289,/,138970,/,139649,/	t,t,t,t	<img class = center src='/static/experiments/beast_fmri_test/images/P.png'></img>	71,89	2750.0	test	<img class = center src='/static/experiments/beast_fmri_test/images/redP.png'></img>	go	2200.0	2.0	9.0	go	target	P	71,Index Finger	89,Middle Finger	550.0	500.0	2200.0	2250.0	1.0	550.0	1.0	n/a	go_stim
54215.012208996894	296.987791003	n/a	1199	71	2750	296.987791003	stim	stop-signal	26	139788	0.0-7.9-1.9	beast_fmri_test	328	137610,/,138289,/,138970,/,139649,/	t,t,t,t	<img class = center src='/static/experiments/beast_fmri_test/images/P.png'></img>	71,89	2750.0	test	<img class = center src='/static/experiments/beast_fmri_test/images/redP.png'></img>	go	2200.0	2.0	9.0	go	target	P	71,Index Finger	89,Middle Finger	550.0	500.0	2200.0	2250.0	1.0	550.0	1.0	n/a	ITI
55317	500.0	n/a	-1	-1	500	0.0	fixation	poldrack-single-stim	27	140593	0.0-7.10-0.10	beast_fmri_test	328	140329,/	t	<div class = centerbox2><div class = fixation>+</div></div>	none	500.0	test	n/a	n/a	n/a	n/a	n/a	n/a	n/a	n/a	n/a	n/a	n/a	n/a	n/a	n/a	n/a	n/a	n/a	n/a	fixation
55134.155741913797	2750.0	n/a	1431	89	2750	184.844258086	stim	stop-signal	28	143345	0.0-7.10-1.10	beast_fmri_test	328	141009,/,141688,/,142369,/,143048,/	t,t,t,t	<img class = center src='/static/experiments/beast_fmri_test/images/V.png'></img>	71,89	2750.0	test	<img class = center src='/static/experiments/beast_fmri_test/images/redV.png'></img>	go	2250.0	2.0	10.0	go	non-target	V	71,Index Finger	89,Middle Finger	550.0	500.0	2200.0	2250.0	1.0	500.0	1.0	n/a	go_stim
57884.155741913797	184.844258086	n/a	1431	89	2750	184.844258086	stim	stop-signal	28	143345	0.0-7.10-1.10	beast_fmri_test	328	141009,/,141688,/,142369,/,143048,/	t,t,t,t	<img class = center src='/static/experiments/beast_fmri_test/images/V.png'></img>	71,89	2750.0	test	<img class = center src='/static/experiments/beast_fmri_test/images/redV.png'></img>	go	2250.0	2.0	10.0	go	non-target	V	71,Index Finger	89,Middle Finger	550.0	500.0	2200.0	2250.0	1.0	500.0	1.0	n/a	ITI
58763	500.0	n/a	-1	-1	500	0.0	fixation	poldrack-single-stim	29	144039	0.0-7.11-0.11	beast_fmri_test	328	143729,/	t	<div class = centerbox2><div class = fixation>+</div></div>	none	500.0	test	n/a	n/a	n/a	n/a	n/a	n/a	n/a	n/a	n/a	n/a	n/a	n/a	n/a	n/a	n/a	n/a	n/a	n/a	fixation
58449.62264586339	2750.0	n/a	958	89	2750	315.377354137	stim	stop-signal	30	146791	0.0-7.11-1.11	beast_fmri_test	328	144408,/,145088,/,145766,/,146447,/	t,t,t,t	<img class = center src='/static/experiments/beast_fmri_test/images/T.png'></img>	71,89	2750.0	test	<img class = center src='/static/experiments/beast_fmri_test/images/redT.png'></img>	go	2250.0	2.0	11.0	go	non-target	T	71,Index Finger	89,Middle Finger	550.0	500.0	2200.0	2250.0	1.0	500.0	1.0	n/a	go_stim
61199.62264586339	315.377354137	n/a	958	89	2750	315.377354137	stim	stop-signal	30	146791	0.0-7.11-1.11	beast_fmri_test	328	144408,/,145088,/,145766,/,146447,/	t,t,t,t	<img class = center src='/static/experiments/beast_fmri_test/images/T.png'></img>	71,89	2750.0	test	<img class = center src='/static/experiments/beast_fmri_test/images/redT.png'></img>	go	2250.0	2.0	11.0	go	non-target	T	71,Index Finger	89,Middle Finger	550.0	500.0	2200.0	2250.0	1.0	500.0	1.0	n/a	ITI
62341	500.0	n/a	-1	-1	500	0.0	fixation	poldrack-single-stim	31	147617	0.0-7.12-0.12	beast_fmri_test	328	147125,/	t	<div class = centerbox2><div class = fixation>+</div></div>	none	500.0	test	n/a	n/a	n/a	n/a	n/a	n/a	n/a	n/a	n/a	n/a	n/a	n/a	n/a	n/a	n/a	n/a	n/a	n/a	fixation
61379.655609464709	2750.0	n/a	1862	89	2750	963.344390535	stim	stop-signal	32	150369	0.0-7.12-1.12	beast_fmri_test	328	147806,/,148486,/,149166,/,149845,/,150524,/,151203,/	t,t,t,t,t,t	<img class = center src='/static/experiments/beast_fmri_test/images/T.png'></img>	71,89	2750.0	test	<img class = center src='/static/experiments/beast_fmri_test/images/redT.png'></img>	go	2250.0	2.0	12.0	go	non-target	T	71,Index Finger	89,Middle Finger	550.0	500.0	2200.0	2250.0	1.0	500.0	1.0	n/a	go_stim
64129.655609464709	963.344390535	n/a	1862	89	2750	963.344390535	stim	stop-signal	32	150369	0.0-7.12-1.12	beast_fmri_test	328	147806,/,148486,/,149166,/,149845,/,150524,/,151203,/	t,t,t,t,t,t	<img class = center src='/static/experiments/beast_fmri_test/images/T.png'></img>	71,89	2750.0	test	<img class = center src='/static/experiments/beast_fmri_test/images/redT.png'></img>	go	2250.0	2.0	12.0	go	non-target	T	71,Index Finger	89,Middle Finger	550.0	500.0	2200.0	2250.0	1.0	500.0	1.0	n/a	ITI
66563	500.0	n/a	-1	-1	500	0.0	fixation	poldrack-single-stim	33	151839	0.0-7.13-0.13	beast_fmri_test	328	n/a	n/a	<div class = centerbox2><div class = fixation>+</div></div>	none	500.0	test	n/a	n/a	n/a	n/a	n/a	n/a	n/a	n/a	n/a	n/a	n/a	n/a	n/a	n/a	n/a	n/a	n/a	n/a	fixation
65101.212607816909	2750.0	n/a	1395	89	2750	1463.78739218	stim	stop-signal	34	154591	0.0-7.13-1.13	beast_fmri_test	328	151882,/,152564,/,153243,/,153923,/,154605,/,155281,/,155960,/	t,t,t,t,t,t,t	<img class = center src='/static/experiments/beast_fmri_test/images/V.png'></img>	71,89	2750.0	test	<img class = center src='/static/experiments/beast_fmri_test/images/redV.png'></img>	go	2250.0	2.0	13.0	go	non-target	V	71,Index Finger	89,Middle Finger	550.0	500.0	2200.0	2250.0	1.0	500.0	1.0	n/a	go_stim
67851.212607816909	1463.78739218	n/a	1395	89	2750	1463.78739218	stim	stop-signal	34	154591	0.0-7.13-1.13	beast_fmri_test	328	151882,/,152564,/,153243,/,153923,/,154605,/,155281,/,155960,/	t,t,t,t,t,t,t	<img class = center src='/static/experiments/beast_fmri_test/images/V.png'></img>	71,89	2750.0	test	<img class = center src='/static/experiments/beast_fmri_test/images/redV.png'></img>	go	2250.0	2.0	13.0	go	non-target	V	71,Index Finger	89,Middle Finger	550.0	500.0	2200.0	2250.0	1.0	500.0	1.0	n/a	ITI
71284	500.0	n/a	-1	-1	500	0.0	fixation	poldrack-single-stim	35	156560	0.0-7.14-0.14	beast_fmri_test	328	n/a	n/a	<div class = centerbox2><div class = fixation>+</div></div>	none	500.0	test	n/a	n/a	n/a	n/a	n/a	n/a	n/a	n/a	n/a	n/a	n/a	n/a	n/a	n/a	n/a	n/a	n/a	n/a	fixation
69244.552791244641	2750.0	n/a	1182	89	2750	2041.44720876	stim	stop-signal	36	159312	0.0-7.14-1.14	beast_fmri_test	328	156642,/,157320,/,158000,/,158681,/,159363,/,160038,/,160718,/	t,t,t,t,t,t,t	<img class = center src='/static/experiments/beast_fmri_test/images/V.png'></img>	71,89	2750.0	test	<img class = center src='/static/experiments/beast_fmri_test/images/redV.png'></img>	go	2250.0	2.0	14.0	go	non-target	V	71,Index Finger	89,Middle Finger	550.0	500.0	2200.0	2250.0	1.0	500.0	1.0	n/a	go_stim
71994.552791244641	2041.44720876	n/a	1182	89	2750	2041.44720876	stim	stop-signal	36	159312	0.0-7.14-1.14	beast_fmri_test	328	156642,/,157320,/,158000,/,158681,/,159363,/,160038,/,160718,/	t,t,t,t,t,t,t	<img class = center src='/static/experiments/beast_fmri_test/images/V.png'></img>	71,89	2750.0	test	<img class = center src='/static/experiments/beast_fmri_test/images/redV.png'></img>	go	2250.0	2.0	14.0	go	non-target	V	71,Index Finger	89,Middle Finger	550.0	500.0	2200.0	2250.0	1.0	500.0	1.0	n/a	ITI
76587	500.0	n/a	-1	-1	500	0.0	fixation	poldrack-single-stim	37	161863	0.0-7.15-0.15	beast_fmri_test	328	161398,/	t	<div class = centerbox2><div class = fixation>+</div></div>	none	500.0	test	n/a	n/a	n/a	n/a	n/a	n/a	n/a	n/a	n/a	n/a	n/a	n/a	n/a	n/a	n/a	n/a	n/a	n/a	fixation
74005.019537831249	550.0	n/a	696	71	2750	2583.98046217	stim	stop-signal	38	164615	0.0-7.15-1.15	beast_fmri_test	328	162079,/,162759,/,163438,/,164118,/,164797,/,165476,/,166157,/,166835,/	t,t,t,t,t,t,t,t	<img class = center src='/static/experiments/beast_fmri_test/images/V.png'></img>	71,89	2750.0	test	<img class = center src='/static/experiments/beast_fmri_test/images/redV.png'></img>	stop	2200.0	2.0	15.0	stop	target	V	71,Index Finger	89,Middle Finger	550.0	500.0	2200.0	2250.0	0.0	550.0	n/a	0.0	go_stim
76205.019537831249	2200.0	n/a	696	71	2750	2583.98046217	stim	stop-signal	38	164615	0.0-7.15-1.15	beast_fmri_test	328	162079,/,162759,/,163438,/,164118,/,164797,/,165476,/,166157,/,166835,/	t,t,t,t,t,t,t,t	<img class = center src='/static/experiments/beast_fmri_test/images/V.png'></img>	71,89	2750.0	test	<img class = center src='/static/experiments/beast_fmri_test/images/redV.png'></img>	stop	2200.0	2.0	15.0	stop	target	V	71,Index Finger	89,Middle Finger	550.0	500.0	2200.0	2250.0	0.0	550.0	n/a	0.0	stop_stim
76755.019537831249	2583.98046217	n/a	696	71	2750	2583.98046217	stim	stop-signal	38	164615	0.0-7.15-1.15	beast_fmri_test	328	162079,/,162759,/,163438,/,164118,/,164797,/,165476,/,166157,/,166835,/	t,t,t,t,t,t,t,t	<img class = center src='/static/experiments/beast_fmri_test/images/V.png'></img>	71,89	2750.0	test	<img class = center src='/static/experiments/beast_fmri_test/images/redV.png'></img>	stop	2200.0	2.0	15.0	stop	target	V	71,Index Finger	89,Middle Finger	550.0	500.0	2200.0	2250.0	0.0	550.0	n/a	0.0	ITI
82431	500.0	n/a	-1	-1	500	0.0	fixation	poldrack-single-stim	39	167707	0.0-7.16-0.16	beast_fmri_test	328	167517,/	t	<div class = centerbox2><div class = fixation>+</div></div>	none	500.0	test	n/a	n/a	n/a	n/a	n/a	n/a	n/a	n/a	n/a	n/a	n/a	n/a	n/a	n/a	n/a	n/a	n/a	n/a	fixation
79720.611694517575	2750.0	n/a	1111	89	2750	2712.38830548	stim	stop-signal	40	170459	0.0-7.16-1.16	beast_fmri_test	328	168196,/,168875,/,169555,/,170235,/,170914,/,171595,/,172274,/,172955,/	t,t,t,t,t,t,t,t	<img class = center src='/static/experiments/beast_fmri_test/images/B.png'></img>	71,89	2750.0	test	<img class = center src='/static/experiments/beast_fmri_test/images/redB.png'></img>	go	2250.0	2.0	16.0	go	non-target	B	71,Index Finger	89,Middle Finger	500.0	500.0	2200.0	2250.0	1.0	500.0	1.0	n/a	go_stim
82470.611694517575	2712.38830548	n/a	1111	89	2750	2712.38830548	stim	stop-signal	40	170459	0.0-7.16-1.16	beast_fmri_test	328	168196,/,168875,/,169555,/,170235,/,170914,/,171595,/,172274,/,172955,/	t,t,t,t,t,t,t,t	<img class = center src='/static/experiments/beast_fmri_test/images/B.png'></img>	71,89	2750.0	test	<img class = center src='/static/experiments/beast_fmri_test/images/redB.png'></img>	go	2250.0	2.0	16.0	go	non-target	B	71,Index Finger	89,Middle Finger	500.0	500.0	2200.0	2250.0	1.0	500.0	1.0	n/a	ITI
88403	500.0	n/a	-1	-1	500	0.0	fixation	poldrack-single-stim	41	173679	0.0-7.17-0.17	beast_fmri_test	328	173634,/	t	<div class = centerbox2><div class = fixation>+</div></div>	none	500.0	test	n/a	n/a	n/a	n/a	n/a	n/a	n/a	n/a	n/a	n/a	n/a	n/a	n/a	n/a	n/a	n/a	n/a	n/a	fixation
88367.670889011613	500.0	n/a	-1	-1	2750	37.3291109884	stim	stop-signal	42	176431	0.0-7.17-1.17	beast_fmri_test	328	174314,/,174992,/,175672,/,176352,/	t,t,t,t	<img class = center src='/static/experiments/beast_fmri_test/images/V.png'></img>	71,89	2750.0	test	<img class = center src='/static/experiments/beast_fmri_test/images/redV.png'></img>	stop	2250.0	2.0	17.0	stop	target	V	71,Index Finger	89,Middle Finger	500.0	500.0	2250.0	2250.0	0.0	500.0	n/a	1.0	go_stim
90617.670889011613	2250.0	n/a	-1	-1	2750	37.3291109884	stim	stop-signal	42	176431	0.0-7.17-1.17	beast_fmri_test	328	174314,/,174992,/,175672,/,176352,/	t,t,t,t	<img class = center src='/static/experiments/beast_fmri_test/images/V.png'></img>	71,89	2750.0	test	<img class = center src='/static/experiments/beast_fmri_test/images/redV.png'></img>	stop	2250.0	2.0	17.0	stop	target	V	71,Index Finger	89,Middle Finger	500.0	500.0	2250.0	2250.0	0.0	500.0	n/a	1.0	stop_stim
91117.670889011613	37.3291109884	n/a	-1	-1	2750	37.3291109884	stim	stop-signal	42	176431	0.0-7.17-1.17	beast_fmri_test	328	174314,/,174992,/,175672,/,176352,/	t,t,t,t	<img class = center src='/static/experiments/beast_fmri_test/images/V.png'></img>	71,89	2750.0	test	<img class = center src='/static/experiments/beast_fmri_test/images/redV.png'></img>	stop	2250.0	2.0	17.0	stop	target	V	71,Index Finger	89,Middle Finger	500.0	500.0	2250.0	2250.0	0.0	500.0	n/a	1.0	ITI
91703	500.0	n/a	-1	-1	500	0.0	fixation	poldrack-single-stim	43	176979	0.0-7.18-0.18	beast_fmri_test	328	n/a	n/a	<div class = centerbox2><div class = fixation>+</div></div>	none	500.0	test	n/a	n/a	n/a	n/a	n/a	n/a	n/a	n/a	n/a	n/a	n/a	n/a	n/a	n/a	n/a	n/a	n/a	n/a	fixation
91026.223406464007	500.0	n/a	-1	-1	2750	679.776593536	stim	stop-signal	44	179732	0.0-7.18-1.18	beast_fmri_test	328	177033,/,177712,/,178392,/,179070,/,179755,/	t,t,t,t,t	<img class = center src='/static/experiments/beast_fmri_test/images/T.png'></img>	71,89	2750.0	test	<img class = center src='/static/experiments/beast_fmri_test/images/redT.png'></img>	stop	2250.0	2.0	18.0	stop	non-target	T	71,Index Finger	89,Middle Finger	550.0	500.0	2250.0	2250.0	0.0	500.0	n/a	1.0	go_stim
93276.223406464007	2250.0	n/a	-1	-1	2750	679.776593536	stim	stop-signal	44	179732	0.0-7.18-1.18	beast_fmri_test	328	177033,/,177712,/,178392,/,179070,/,179755,/	t,t,t,t,t	<img class = center src='/static/experiments/beast_fmri_test/images/T.png'></img>	71,89	2750.0	test	<img class = center src='/static/experiments/beast_fmri_test/images/redT.png'></img>	stop	2250.0	2.0	18.0	stop	non-target	T	71,Index Finger	89,Middle Finger	550.0	500.0	2250.0	2250.0	0.0	500.0	n/a	1.0	stop_stim
93776.223406464007	679.776593536	n/a	-1	-1	2750	679.776593536	stim	stop-signal	44	179732	0.0-7.18-1.18	beast_fmri_test	328	177033,/,177712,/,178392,/,179070,/,179755,/	t,t,t,t,t	<img class = center src='/static/experiments/beast_fmri_test/images/T.png'></img>	71,89	2750.0	test	<img class = center src='/static/experiments/beast_fmri_test/images/redT.png'></img>	stop	2250.0	2.0	18.0	stop	non-target	T	71,Index Finger	89,Middle Finger	550.0	500.0	2250.0	2250.0	0.0	500.0	n/a	1.0	ITI
95648	500.0	n/a	-1	-1	500	0.0	fixation	poldrack-single-stim	45	180924	0.0-7.19-0.19	beast_fmri_test	328	180430,/	t	<div class = centerbox2><div class = fixation>+</div></div>	none	500.0	test	n/a	n/a	n/a	n/a	n/a	n/a	n/a	n/a	n/a	n/a	n/a	n/a	n/a	n/a	n/a	n/a	n/a	n/a	fixation
94640.292459196935	2750.0	n/a	820	89	2750	1008.7075408	stim	stop-signal	46	183675	0.0-7.19-1.19	beast_fmri_test	328	181110,/,181790,/,182469,/,183149,/,183829,/,184508,/	t,t,t,t,t,t	<img class = center src='/static/experiments/beast_fmri_test/images/D.png'></img>	71,89	2750.0	test	<img class = center src='/static/experiments/beast_fmri_test/images/redD.png'></img>	go	2200.0	2.0	19.0	go	non-target	D	71,Index Finger	89,Middle Finger	550.0	550.0	2250.0	2200.0	1.0	550.0	1.0	n/a	go_stim
97390.292459196935	1008.7075408	n/a	820	89	2750	1008.7075408	stim	stop-signal	46	183675	0.0-7.19-1.19	beast_fmri_test	328	181110,/,181790,/,182469,/,183149,/,183829,/,184508,/	t,t,t,t,t,t	<img class = center src='/static/experiments/beast_fmri_test/images/D.png'></img>	71,89	2750.0	test	<img class = center src='/static/experiments/beast_fmri_test/images/redD.png'></img>	go	2200.0	2.0	19.0	go	non-target	D	71,Index Finger	89,Middle Finger	550.0	550.0	2250.0	2200.0	1.0	550.0	1.0	n/a	ITI
99920	500.0	n/a	-1	-1	500	0.0	fixation	poldrack-single-stim	47	185196	0.0-7.20-0.20	beast_fmri_test	328	185189,/	t	<div class = centerbox2><div class = fixation>+</div></div>	none	500.0	test	n/a	n/a	n/a	n/a	n/a	n/a	n/a	n/a	n/a	n/a	n/a	n/a	n/a	n/a	n/a	n/a	n/a	n/a	fixation
98941.000347968569	2750.0	n/a	742	71	2750	978.999652031	stim	stop-signal	48	187946	0.0-7.20-1.20	beast_fmri_test	328	185867,/,186547,/,187228,/,187907,/,188586,/	t,t,t,t,t	<img class = center src='/static/experiments/beast_fmri_test/images/T.png'></img>	71,89	2750.0	test	<img class = center src='/static/experiments/beast_fmri_test/images/redT.png'></img>	go	2200.0	2.0	20.0	go	target	T	71,Index Finger	89,Middle Finger	550.0	550.0	2200.0	2200.0	1.0	550.0	1.0	n/a	go_stim
101691.00034796857	978.999652031	n/a	742	71	2750	978.999652031	stim	stop-signal	48	187946	0.0-7.20-1.20	beast_fmri_test	328	185867,/,186547,/,187228,/,187907,/,188586,/	t,t,t,t,t	<img class = center src='/static/experiments/beast_fmri_test/images/T.png'></img>	71,89	2750.0	test	<img class = center src='/static/experiments/beast_fmri_test/images/redT.png'></img>	go	2200.0	2.0	20.0	go	target	T	71,Index Finger	89,Middle Finger	550.0	550.0	2200.0	2200.0	1.0	550.0	1.0	n/a	ITI
104163	500.0	n/a	-1	-1	500	0.0	fixation	poldrack-single-stim	49	189439	0.0-7.21-0.21	beast_fmri_test	328	189266,/	t	<div class = centerbox2><div class = fixation>+</div></div>	none	500.0	test	n/a	n/a	n/a	n/a	n/a	n/a	n/a	n/a	n/a	n/a	n/a	n/a	n/a	n/a	n/a	n/a	n/a	n/a	fixation
103979.26598099212	550.0	n/a	-1	-1	2750	185.734019008	stim	stop-signal	50	192191	0.0-7.21-1.21	beast_fmri_test	328	189947,/,190626,/,191306,/,191985,/	t,t,t,t	<img class = center src='/static/experiments/beast_fmri_test/images/P.png'></img>	71,89	2750.0	test	<img class = center src='/static/experiments/beast_fmri_test/images/redP.png'></img>	stop	2200.0	2.0	21.0	stop	non-target	P	71,Index Finger	89,Middle Finger	550.0	550.0	2200.0	2200.0	0.0	550.0	n/a	1.0	go_stim
106179.26598099212	2200.0	n/a	-1	-1	2750	185.734019008	stim	stop-signal	50	192191	0.0-7.21-1.21	beast_fmri_test	328	189947,/,190626,/,191306,/,191985,/	t,t,t,t	<img class = center src='/static/experiments/beast_fmri_test/images/P.png'></img>	71,89	2750.0	test	<img class = center src='/static/experiments/beast_fmri_test/images/redP.png'></img>	stop	2200.0	2.0	21.0	stop	non-target	P	71,Index Finger	89,Middle Finger	550.0	550.0	2200.0	2200.0	0.0	550.0	n/a	1.0	stop_stim
106729.26598099212	185.734019008	n/a	-1	-1	2750	185.734019008	stim	stop-signal	50	192191	0.0-7.21-1.21	beast_fmri_test	328	189947,/,190626,/,191306,/,191985,/	t,t,t,t	<img class = center src='/static/experiments/beast_fmri_test/images/P.png'></img>	71,89	2750.0	test	<img class = center src='/static/experiments/beast_fmri_test/images/redP.png'></img>	stop	2200.0	2.0	21.0	stop	non-target	P	71,Index Finger	89,Middle Finger	550.0	550.0	2200.0	2200.0	0.0	550.0	n/a	1.0	ITI
107612	500.0	n/a	-1	-1	500	0.0	fixation	poldrack-single-stim	51	192888	0.0-7.22-0.22	beast_fmri_test	328	192664,/	t	<div class = centerbox2><div class = fixation>+</div></div>	none	500.0	test	n/a	n/a	n/a	n/a	n/a	n/a	n/a	n/a	n/a	n/a	n/a	n/a	n/a	n/a	n/a	n/a	n/a	n/a	fixation
107541.40561441873	600.0	n/a	-1	-1	2750	72.5943855813	stim	stop-signal	52	195640	0.0-7.22-1.22	beast_fmri_test	328	193345,/,194024,/,194704,/,195384,/	t,t,t,t	<img class = center src='/static/experiments/beast_fmri_test/images/B.png'></img>	71,89	2750.0	test	<img class = center src='/static/experiments/beast_fmri_test/images/redB.png'></img>	stop	2150.0	2.0	22.0	stop	non-target	B	71,Index Finger	89,Middle Finger	550.0	600.0	2200.0	2150.0	0.0	600.0	n/a	1.0	go_stim
109691.40561441873	2150.0	n/a	-1	-1	2750	72.5943855813	stim	stop-signal	52	195640	0.0-7.22-1.22	beast_fmri_test	328	193345,/,194024,/,194704,/,195384,/	t,t,t,t	<img class = center src='/static/experiments/beast_fmri_test/images/B.png'></img>	71,89	2750.0	test	<img class = center src='/static/experiments/beast_fmri_test/images/redB.png'></img>	stop	2150.0	2.0	22.0	stop	non-target	B	71,Index Finger	89,Middle Finger	550.0	600.0	2200.0	2150.0	0.0	600.0	n/a	1.0	stop_stim
110291.40561441873	72.5943855813	n/a	-1	-1	2750	72.5943855813	stim	stop-signal	52	195640	0.0-7.22-1.22	beast_fmri_test	328	193345,/,194024,/,194704,/,195384,/	t,t,t,t	<img class = center src='/static/experiments/beast_fmri_test/images/B.png'></img>	71,89	2750.0	test	<img class = center src='/static/experiments/beast_fmri_test/images/redB.png'></img>	stop	2150.0	2.0	22.0	stop	non-target	B	71,Index Finger	89,Middle Finger	550.0	600.0	2200.0	2150.0	0.0	600.0	n/a	1.0	ITI
110949	500.0	n/a	-1	-1	500	0.0	fixation	poldrack-single-stim	53	196225	0.0-7.23-0.23	beast_fmri_test	328	196064,/	t	<div class = centerbox2><div class = fixation>+</div></div>	none	500.0	test	n/a	n/a	n/a	n/a	n/a	n/a	n/a	n/a	n/a	n/a	n/a	n/a	n/a	n/a	n/a	n/a	n/a	n/a	fixation
110664.38835490809	2750.0	n/a	1155	71	2750	286.611645092	stim	stop-signal	54	198977	0.0-7.23-1.23	beast_fmri_test	328	196743,/,197422,/,198103,/,198780,/	t,t,t,t	<img class = center src='/static/experiments/beast_fmri_test/images/P.png'></img>	71,89	2750.0	test	<img class = center src='/static/experiments/beast_fmri_test/images/redP.png'></img>	go	2200.0	2.0	23.0	go	target	P	71,Index Finger	89,Middle Finger	550.0	650.0	2200.0	2150.0	1.0	550.0	1.0	n/a	go_stim
113414.38835490809	286.611645092	n/a	1155	71	2750	286.611645092	stim	stop-signal	54	198977	0.0-7.23-1.23	beast_fmri_test	328	196743,/,197422,/,198103,/,198780,/	t,t,t,t	<img class = center src='/static/experiments/beast_fmri_test/images/P.png'></img>	71,89	2750.0	test	<img class = center src='/static/experiments/beast_fmri_test/images/redP.png'></img>	go	2200.0	2.0	23.0	go	target	P	71,Index Finger	89,Middle Finger	550.0	650.0	2200.0	2150.0	1.0	550.0	1.0	n/a	ITI
114500	500.0	n/a	-1	-1	500	0.0	fixation	poldrack-single-stim	55	199776	0.0-7.24-0.24	beast_fmri_test	328	199460,/	t	<div class = centerbox2><div class = fixation>+</div></div>	none	500.0	test	n/a	n/a	n/a	n/a	n/a	n/a	n/a	n/a	n/a	n/a	n/a	n/a	n/a	n/a	n/a	n/a	n/a	n/a	fixation
111720.42157786028	2750.0	n/a	1225	71	2750	2782.57842214	stim	stop-signal	56	202529	0.0-7.24-1.24	beast_fmri_test	328	200141,/,200820,/,201502,/,202180,/,202861,/,203541,/,204220,/,204900,/	t,t,t,t,t,t,t,t	<img class = center src='/static/experiments/beast_fmri_test/images/B.png'></img>	71,89	2750.0	test	<img class = center src='/static/experiments/beast_fmri_test/images/redB.png'></img>	go	2200.0	2.0	24.0	go	target	B	71,Index Finger	89,Middle Finger	550.0	650.0	2200.0	2150.0	1.0	550.0	1.0	n/a	go_stim
114470.42157786028	2782.57842214	n/a	1225	71	2750	2782.57842214	stim	stop-signal	56	202529	0.0-7.24-1.24	beast_fmri_test	328	200141,/,200820,/,201502,/,202180,/,202861,/,203541,/,204220,/,204900,/	t,t,t,t,t,t,t,t	<img class = center src='/static/experiments/beast_fmri_test/images/B.png'></img>	71,89	2750.0	test	<img class = center src='/static/experiments/beast_fmri_test/images/redB.png'></img>	go	2200.0	2.0	24.0	go	target	B	71,Index Finger	89,Middle Finger	550.0	650.0	2200.0	2150.0	1.0	550.0	1.0	n/a	ITI
120545	500.0	n/a	-1	-1	500	0.0	fixation	poldrack-single-stim	57	205821	0.0-7.25-0.25	beast_fmri_test	328	205580,/	t	<div class = centerbox2><div class = fixation>+</div></div>	none	500.0	test	n/a	n/a	n/a	n/a	n/a	n/a	n/a	n/a	n/a	n/a	n/a	n/a	n/a	n/a	n/a	n/a	n/a	n/a	fixation
119921.87316829074	2750.0	n/a	1263	89	2750	624.126831709	stim	stop-signal	58	208572	0.0-7.25-1.25	beast_fmri_test	328	206259,/,206937,/,207618,/,208298,/,208978,/	t,t,t,t,t	<img class = center src='/static/experiments/beast_fmri_test/images/B.png'></img>	71,89	2750.0	test	<img class = center src='/static/experiments/beast_fmri_test/images/redB.png'></img>	go	2100.0	2.0	25.0	go	non-target	B	71,Index Finger	89,Middle Finger	550.0	650.0	2200.0	2100.0	1.0	650.0	1.0	n/a	go_stim
122671.87316829074	624.126831709	n/a	1263	89	2750	624.126831709	stim	stop-signal	58	208572	0.0-7.25-1.25	beast_fmri_test	328	206259,/,206937,/,207618,/,208298,/,208978,/	t,t,t,t,t	<img class = center src='/static/experiments/beast_fmri_test/images/B.png'></img>	71,89	2750.0	test	<img class = center src='/static/experiments/beast_fmri_test/images/redB.png'></img>	go	2100.0	2.0	25.0	go	non-target	B	71,Index Finger	89,Middle Finger	550.0	650.0	2200.0	2100.0	1.0	650.0	1.0	n/a	ITI
124434	500.0	n/a	-1	-1	500	0.0	fixation	poldrack-single-stim	59	209710	0.0-7.26-0.26	beast_fmri_test	328	209657,/	t	<div class = centerbox2><div class = fixation>+</div></div>	none	500.0	test	n/a	n/a	n/a	n/a	n/a	n/a	n/a	n/a	n/a	n/a	n/a	n/a	n/a	n/a	n/a	n/a	n/a	n/a	fixation
122953.35170614606	650.0	n/a	-1	-1	2750	1482.64829385	stim	stop-signal	60	212462	0.0-7.26-1.26	beast_fmri_test	328	210337,/,211017,/,211695,/,212376,/,213056,/,213735,/	t,t,t,t,t,t	<img class = center src='/static/experiments/beast_fmri_test/images/D.png'></img>	71,89	2750.0	test	<img class = center src='/static/experiments/beast_fmri_test/images/redD.png'></img>	stop	2100.0	2.0	26.0	stop	non-target	D	71,Index Finger	89,Middle Finger	550.0	650.0	2200.0	2100.0	0.0	650.0	n/a	1.0	go_stim
125053.35170614606	2100.0	n/a	-1	-1	2750	1482.64829385	stim	stop-signal	60	212462	0.0-7.26-1.26	beast_fmri_test	328	210337,/,211017,/,211695,/,212376,/,213056,/,213735,/	t,t,t,t,t,t	<img class = center src='/static/experiments/beast_fmri_test/images/D.png'></img>	71,89	2750.0	test	<img class = center src='/static/experiments/beast_fmri_test/images/redD.png'></img>	stop	2100.0	2.0	26.0	stop	non-target	D	71,Index Finger	89,Middle Finger	550.0	650.0	2200.0	2100.0	0.0	650.0	n/a	1.0	stop_stim
125703.35170614606	1482.64829385	n/a	-1	-1	2750	1482.64829385	stim	stop-signal	60	212462	0.0-7.26-1.26	beast_fmri_test	328	210337,/,211017,/,211695,/,212376,/,213056,/,213735,/	t,t,t,t,t,t	<img class = center src='/static/experiments/beast_fmri_test/images/D.png'></img>	71,89	2750.0	test	<img class = center src='/static/experiments/beast_fmri_test/images/redD.png'></img>	stop	2100.0	2.0	26.0	stop	non-target	D	71,Index Finger	89,Middle Finger	550.0	650.0	2200.0	2100.0	0.0	650.0	n/a	1.0	ITI
129182	500.0	n/a	-1	-1	500	0.0	fixation	poldrack-single-stim	61	214458	0.0-7.27-0.27	beast_fmri_test	328	214414,/	t	<div class = centerbox2><div class = fixation>+</div></div>	none	500.0	test	n/a	n/a	n/a	n/a	n/a	n/a	n/a	n/a	n/a	n/a	n/a	n/a	n/a	n/a	n/a	n/a	n/a	n/a	fixation
128537.64193601761	550.0	n/a	-1	-1	2750	646.358063982	stim	stop-signal	62	217210	0.0-7.27-1.27	beast_fmri_test	328	215094,/,215774,/,216453,/,217132,/,217812,/	t,t,t,t,t	<img class = center src='/static/experiments/beast_fmri_test/images/B.png'></img>	71,89	2750.0	test	<img class = center src='/static/experiments/beast_fmri_test/images/redB.png'></img>	stop	2200.0	2.0	27.0	stop	target	B	71,Index Finger	89,Middle Finger	550.0	700.0	2200.0	2100.0	0.0	550.0	n/a	1.0	go_stim
130737.64193601761	2200.0	n/a	-1	-1	2750	646.358063982	stim	stop-signal	62	217210	0.0-7.27-1.27	beast_fmri_test	328	215094,/,215774,/,216453,/,217132,/,217812,/	t,t,t,t,t	<img class = center src='/static/experiments/beast_fmri_test/images/B.png'></img>	71,89	2750.0	test	<img class = center src='/static/experiments/beast_fmri_test/images/redB.png'></img>	stop	2200.0	2.0	27.0	stop	target	B	71,Index Finger	89,Middle Finger	550.0	700.0	2200.0	2100.0	0.0	550.0	n/a	1.0	stop_stim
131287.64193601761	646.358063982	n/a	-1	-1	2750	646.358063982	stim	stop-signal	62	217210	0.0-7.27-1.27	beast_fmri_test	328	215094,/,215774,/,216453,/,217132,/,217812,/	t,t,t,t,t	<img class = center src='/static/experiments/beast_fmri_test/images/B.png'></img>	71,89	2750.0	test	<img class = center src='/static/experiments/beast_fmri_test/images/redB.png'></img>	stop	2200.0	2.0	27.0	stop	target	B	71,Index Finger	89,Middle Finger	550.0	700.0	2200.0	2100.0	0.0	550.0	n/a	1.0	ITI
133096	500.0	n/a	-1	-1	500	0.0	fixation	poldrack-single-stim	63	218372	0.0-7.28-0.28	beast_fmri_test	328	n/a	n/a	<div class = centerbox2><div class = fixation>+</div></div>	none	500.0	test	n/a	n/a	n/a	n/a	n/a	n/a	n/a	n/a	n/a	n/a	n/a	n/a	n/a	n/a	n/a	n/a	n/a	n/a	fixation
129790.14725006398	2750.0	n/a	1044	89	2750	3306.85274994	stim	stop-signal	64	221123	0.0-7.28-1.28	beast_fmri_test	328	218494,/,219173,/,219852,/,220532,/,221211,/,221891,/,222570,/,223251,/,223930,/	t,t,t,t,t,t,t,t,t	<img class = center src='/static/experiments/beast_fmri_test/images/P.png'></img>	71,89	2750.0	test	<img class = center src='/static/experiments/beast_fmri_test/images/redP.png'></img>	go	2050.0	2.0	28.0	go	non-target	P	71,Index Finger	89,Middle Finger	600.0	700.0	2200.0	2050.0	1.0	700.0	1.0	n/a	go_stim
132540.14725006398	3306.85274994	n/a	1044	89	2750	3306.85274994	stim	stop-signal	64	221123	0.0-7.28-1.28	beast_fmri_test	328	218494,/,219173,/,219852,/,220532,/,221211,/,221891,/,222570,/,223251,/,223930,/	t,t,t,t,t,t,t,t,t	<img class = center src='/static/experiments/beast_fmri_test/images/P.png'></img>	71,89	2750.0	test	<img class = center src='/static/experiments/beast_fmri_test/images/redP.png'></img>	go	2050.0	2.0	28.0	go	non-target	P	71,Index Finger	89,Middle Finger	600.0	700.0	2200.0	2050.0	1.0	700.0	1.0	n/a	ITI
139664	500.0	n/a	-1	-1	500	0.0	fixation	poldrack-single-stim	65	224940	0.0-7.29-0.29	beast_fmri_test	328	224611,/	t	<div class = centerbox2><div class = fixation>+</div></div>	none	500.0	test	n/a	n/a	n/a	n/a	n/a	n/a	n/a	n/a	n/a	n/a	n/a	n/a	n/a	n/a	n/a	n/a	n/a	n/a	fixation
138924.18299097195	600.0	n/a	782	71	2750	741.817009028	stim	stop-signal	66	227692	0.0-7.29-1.29	beast_fmri_test	328	225290,/,225968,/,226650,/,227328,/,228008,/	t,t,t,t,t	<img class = center src='/static/experiments/beast_fmri_test/images/B.png'></img>	71,89	2750.0	test	<img class = center src='/static/experiments/beast_fmri_test/images/redB.png'></img>	stop	2150.0	2.0	29.0	stop	target	B	71,Index Finger	89,Middle Finger	600.0	700.0	2150.0	2050.0	0.0	600.0	n/a	0.0	go_stim
141074.18299097195	2150.0	n/a	782	71	2750	741.817009028	stim	stop-signal	66	227692	0.0-7.29-1.29	beast_fmri_test	328	225290,/,225968,/,226650,/,227328,/,228008,/	t,t,t,t,t	<img class = center src='/static/experiments/beast_fmri_test/images/B.png'></img>	71,89	2750.0	test	<img class = center src='/static/experiments/beast_fmri_test/images/redB.png'></img>	stop	2150.0	2.0	29.0	stop	target	B	71,Index Finger	89,Middle Finger	600.0	700.0	2150.0	2050.0	0.0	600.0	n/a	0.0	stop_stim
141674.18299097195	741.817009028	n/a	782	71	2750	741.817009028	stim	stop-signal	66	227692	0.0-7.29-1.29	beast_fmri_test	328	225290,/,225968,/,226650,/,227328,/,228008,/	t,t,t,t,t	<img class = center src='/static/experiments/beast_fmri_test/images/B.png'></img>	71,89	2750.0	test	<img class = center src='/static/experiments/beast_fmri_test/images/redB.png'></img>	stop	2150.0	2.0	29.0	stop	target	B	71,Index Finger	89,Middle Finger	600.0	700.0	2150.0	2050.0	0.0	600.0	n/a	0.0	ITI
143671	500.0	n/a	-1	-1	500	0.0	fixation	poldrack-single-stim	67	228947	0.0-7.30-0.30	beast_fmri_test	328	228689,/	t	<div class = centerbox2><div class = fixation>+</div></div>	none	500.0	test	n/a	n/a	n/a	n/a	n/a	n/a	n/a	n/a	n/a	n/a	n/a	n/a	n/a	n/a	n/a	n/a	n/a	n/a	fixation
143249.14030373972	2750.0	n/a	2163	89	2750	423.85969626	stim	stop-signal	68	231699	0.0-7.30-1.30	beast_fmri_test	328	229368,/,230047,/,230727,/,231407,/,232087,/	t,t,t,t,t	<img class = center src='/static/experiments/beast_fmri_test/images/P.png'></img>	71,89	2750.0	test	<img class = center src='/static/experiments/beast_fmri_test/images/redP.png'></img>	go	2200.0	2.0	30.0	go	target	P	71,Index Finger	89,Middle Finger	550.0	700.0	2200.0	2050.0	0.0	550.0	0.0	n/a	go_stim
145999.14030373972	423.85969626	n/a	2163	89	2750	423.85969626	stim	stop-signal	68	231699	0.0-7.30-1.30	beast_fmri_test	328	229368,/,230047,/,230727,/,231407,/,232087,/	t,t,t,t,t	<img class = center src='/static/experiments/beast_fmri_test/images/P.png'></img>	71,89	2750.0	test	<img class = center src='/static/experiments/beast_fmri_test/images/redP.png'></img>	go	2200.0	2.0	30.0	go	target	P	71,Index Finger	89,Middle Finger	550.0	700.0	2200.0	2050.0	0.0	550.0	0.0	n/a	ITI
147363	500.0	n/a	-1	-1	500	0.0	fixation	poldrack-single-stim	69	232639	0.0-7.31-0.31	beast_fmri_test	328	n/a	n/a	<div class = centerbox2><div class = fixation>+</div></div>	none	500.0	test	n/a	n/a	n/a	n/a	n/a	n/a	n/a	n/a	n/a	n/a	n/a	n/a	n/a	n/a	n/a	n/a	n/a	n/a	fixation
144959.07537851619	2750.0	n/a	2300	71	2750	2404.92462148	stim	stop-signal	70	235390	0.0-7.31-1.31	beast_fmri_test	328	232767,/,233446,/,234127,/,234805,/,235484,/,236165,/,236843,/,237525,/	t,t,t,t,t,t,t,t	<img class = center src='/static/experiments/beast_fmri_test/images/P.png'></img>	71,89	2750.0	test	<img class = center src='/static/experiments/beast_fmri_test/images/redP.png'></img>	go	2050.0	2.0	31.0	go	non-target	P	71,Index Finger	89,Middle Finger	550.0	700.0	2200.0	2050.0	0.0	700.0	0.0	n/a	go_stim
147709.07537851619	2404.92462148	n/a	2300	71	2750	2404.92462148	stim	stop-signal	70	235390	0.0-7.31-1.31	beast_fmri_test	328	232767,/,233446,/,234127,/,234805,/,235484,/,236165,/,236843,/,237525,/	t,t,t,t,t,t,t,t	<img class = center src='/static/experiments/beast_fmri_test/images/P.png'></img>	71,89	2750.0	test	<img class = center src='/static/experiments/beast_fmri_test/images/redP.png'></img>	go	2050.0	2.0	31.0	go	non-target	P	71,Index Finger	89,Middle Finger	550.0	700.0	2200.0	2050.0	0.0	700.0	0.0	n/a	ITI
153031	500.0	n/a	-1	-1	500	0.0	fixation	poldrack-single-stim	71	238307	0.0-7.32-0.32	beast_fmri_test	328	238204,/	t	<div class = centerbox2><div class = fixation>+</div></div>	none	500.0	test	n/a	n/a	n/a	n/a	n/a	n/a	n/a	n/a	n/a	n/a	n/a	n/a	n/a	n/a	n/a	n/a	n/a	n/a	fixation
151745.72562707553	700.0	n/a	-1	-1	2750	1286.27437292	stim	stop-signal	72	241058	0.0-7.32-1.32	beast_fmri_test	328	238884,/,239564,/,240243,/,240923,/,241601,/,242283,/	t,t,t,t,t,t	<img class = center src='/static/experiments/beast_fmri_test/images/B.png'></img>	71,89	2750.0	test	<img class = center src='/static/experiments/beast_fmri_test/images/redB.png'></img>	stop	2050.0	2.0	32.0	stop	non-target	B	71,Index Finger	89,Middle Finger	550.0	700.0	2200.0	2050.0	0.0	700.0	n/a	1.0	go_stim
153795.72562707553	2050.0	n/a	-1	-1	2750	1286.27437292	stim	stop-signal	72	241058	0.0-7.32-1.32	beast_fmri_test	328	238884,/,239564,/,240243,/,240923,/,241601,/,242283,/	t,t,t,t,t,t	<img class = center src='/static/experiments/beast_fmri_test/images/B.png'></img>	71,89	2750.0	test	<img class = center src='/static/experiments/beast_fmri_test/images/redB.png'></img>	stop	2050.0	2.0	32.0	stop	non-target	B	71,Index Finger	89,Middle Finger	550.0	700.0	2200.0	2050.0	0.0	700.0	n/a	1.0	stop_stim
154495.72562707553	1286.27437292	n/a	-1	-1	2750	1286.27437292	stim	stop-signal	72	241058	0.0-7.32-1.32	beast_fmri_test	328	238884,/,239564,/,240243,/,240923,/,241601,/,242283,/	t,t,t,t,t,t	<img class = center src='/static/experiments/beast_fmri_test/images/B.png'></img>	71,89	2750.0	test	<img class = center src='/static/experiments/beast_fmri_test/images/redB.png'></img>	stop	2050.0	2.0	32.0	stop	non-target	B	71,Index Finger	89,Middle Finger	550.0	700.0	2200.0	2050.0	0.0	700.0	n/a	1.0	ITI
157587	500.0	n/a	-1	-1	500	0.0	fixation	poldrack-single-stim	73	242863	0.0-7.33-0.33	beast_fmri_test	328	n/a	n/a	<div class = centerbox2><div class = fixation>+</div></div>	none	500.0	test	n/a	n/a	n/a	n/a	n/a	n/a	n/a	n/a	n/a	n/a	n/a	n/a	n/a	n/a	n/a	n/a	n/a	n/a	fixation
154847.14116895455	2750.0	n/a	1544	89	2750	2741.85883105	stim	stop-signal	74	245615	0.0-7.33-1.33	beast_fmri_test	328	242962,/,243640,/,244321,/,245000,/,245680,/,246359,/,247039,/,247719,/	t,t,t,t,t,t,t,t	<img class = center src='/static/experiments/beast_fmri_test/images/B.png'></img>	71,89	2750.0	test	<img class = center src='/static/experiments/beast_fmri_test/images/redB.png'></img>	go	2000.0	2.0	33.0	go	non-target	B	71,Index Finger	89,Middle Finger	550.0	750.0	2200.0	2000.0	1.0	750.0	1.0	n/a	go_stim
157597.14116895455	2741.85883105	n/a	1544	89	2750	2741.85883105	stim	stop-signal	74	245615	0.0-7.33-1.33	beast_fmri_test	328	242962,/,243640,/,244321,/,245000,/,245680,/,246359,/,247039,/,247719,/	t,t,t,t,t,t,t,t	<img class = center src='/static/experiments/beast_fmri_test/images/B.png'></img>	71,89	2750.0	test	<img class = center src='/static/experiments/beast_fmri_test/images/redB.png'></img>	go	2000.0	2.0	33.0	go	non-target	B	71,Index Finger	89,Middle Finger	550.0	750.0	2200.0	2000.0	1.0	750.0	1.0	n/a	ITI
163592	500.0	n/a	-1	-1	500	0.0	fixation	poldrack-single-stim	75	248868	0.0-7.34-0.34	beast_fmri_test	328	248398,/	t	<div class = centerbox2><div class = fixation>+</div></div>	none	500.0	test	n/a	n/a	n/a	n/a	n/a	n/a	n/a	n/a	n/a	n/a	n/a	n/a	n/a	n/a	n/a	n/a	n/a	n/a	fixation
159837.40442496224	2750.0	n/a	760	71	2750	3756.59557504	stim	stop-signal	76	251620	0.0-7.34-1.34	beast_fmri_test	328	249078,/,249757,/,250438,/,251118,/,251797,/,252477,/,253157,/,253835,/,254516,/,255197,/	t,t,t,t,t,t,t,t,t,t	<img class = center src='/static/experiments/beast_fmri_test/images/B.png'></img>	71,89	2750.0	test	<img class = center src='/static/experiments/beast_fmri_test/images/redB.png'></img>	go	2200.0	2.0	34.0	go	target	B	71,Index Finger	89,Middle Finger	550.0	750.0	2200.0	2000.0	1.0	550.0	1.0	n/a	go_stim
162587.40442496224	3756.59557504	n/a	760	71	2750	3756.59557504	stim	stop-signal	76	251620	0.0-7.34-1.34	beast_fmri_test	328	249078,/,249757,/,250438,/,251118,/,251797,/,252477,/,253157,/,253835,/,254516,/,255197,/	t,t,t,t,t,t,t,t,t,t	<img class = center src='/static/experiments/beast_fmri_test/images/B.png'></img>	71,89	2750.0	test	<img class = center src='/static/experiments/beast_fmri_test/images/redB.png'></img>	go	2200.0	2.0	34.0	go	target	B	71,Index Finger	89,Middle Finger	550.0	750.0	2200.0	2000.0	1.0	550.0	1.0	n/a	ITI
170615	500.0	n/a	-1	-1	500	0.0	fixation	poldrack-single-stim	77	255891	0.0-7.35-0.35	beast_fmri_test	328	255876,/	t	<div class = centerbox2><div class = fixation>+</div></div>	none	500.0	test	n/a	n/a	n/a	n/a	n/a	n/a	n/a	n/a	n/a	n/a	n/a	n/a	n/a	n/a	n/a	n/a	n/a	n/a	fixation
169106.18052256445	2750.0	n/a	1351	71	2750	1512.81947744	stim	stop-signal	78	258645	0.0-7.35-1.35	beast_fmri_test	328	256557,/,257235,/,257914,/,258595,/,259274,/,259955,/	t,t,t,t,t,t	<img class = center src='/static/experiments/beast_fmri_test/images/B.png'></img>	71,89	2750.0	test	<img class = center src='/static/experiments/beast_fmri_test/images/redB.png'></img>	go	2200.0	2.0	35.0	go	target	B	71,Index Finger	89,Middle Finger	550.0	750.0	2200.0	2000.0	1.0	550.0	1.0	n/a	go_stim
171856.18052256445	1512.81947744	n/a	1351	71	2750	1512.81947744	stim	stop-signal	78	258645	0.0-7.35-1.35	beast_fmri_test	328	256557,/,257235,/,257914,/,258595,/,259274,/,259955,/	t,t,t,t,t,t	<img class = center src='/static/experiments/beast_fmri_test/images/B.png'></img>	71,89	2750.0	test	<img class = center src='/static/experiments/beast_fmri_test/images/redB.png'></img>	go	2200.0	2.0	35.0	go	target	B	71,Index Finger	89,Middle Finger	550.0	750.0	2200.0	2000.0	1.0	550.0	1.0	n/a	ITI
175394	500.0	n/a	-1	-1	500	0.0	fixation	poldrack-single-stim	79	260670	0.0-7.36-0.36	beast_fmri_test	328	260634,/	t	<div class = centerbox2><div class = fixation>+</div></div>	none	500.0	test	n/a	n/a	n/a	n/a	n/a	n/a	n/a	n/a	n/a	n/a	n/a	n/a	n/a	n/a	n/a	n/a	n/a	n/a	fixation
175231.60844958003	2750.0	n/a	993	89	2750	165.39155042	stim	stop-signal	80	263423	0.0-7.36-1.36	beast_fmri_test	328	261314,/,261993,/,262672,/,263352,/	t,t,t,t	<img class = center src='/static/experiments/beast_fmri_test/images/V.png'></img>	71,89	2750.0	test	<img class = center src='/static/experiments/beast_fmri_test/images/redV.png'></img>	go	2000.0	2.0	36.0	go	non-target	V	71,Index Finger	89,Middle Finger	550.0	750.0	2200.0	2000.0	1.0	750.0	1.0	n/a	go_stim
177981.60844958003	165.39155042	n/a	993	89	2750	165.39155042	stim	stop-signal	80	263423	0.0-7.36-1.36	beast_fmri_test	328	261314,/,261993,/,262672,/,263352,/	t,t,t,t	<img class = center src='/static/experiments/beast_fmri_test/images/V.png'></img>	71,89	2750.0	test	<img class = center src='/static/experiments/beast_fmri_test/images/redV.png'></img>	go	2000.0	2.0	36.0	go	non-target	V	71,Index Finger	89,Middle Finger	550.0	750.0	2200.0	2000.0	1.0	750.0	1.0	n/a	ITI
178827	500.0	n/a	-1	-1	500	0.0	fixation	poldrack-single-stim	81	264103	0.0-7.37-0.37	beast_fmri_test	328	264032,/	t	<div class = centerbox2><div class = fixation>+</div></div>	none	500.0	test	n/a	n/a	n/a	n/a	n/a	n/a	n/a	n/a	n/a	n/a	n/a	n/a	n/a	n/a	n/a	n/a	n/a	n/a	fixation
178085.84236847062	2750.0	n/a	1544	71	2750	742.157631529	stim	stop-signal	82	266854	0.0-7.37-1.37	beast_fmri_test	328	264711,/,265392,/,266071,/,266751,/,267430,/	t,t,t,t,t	<img class = center src='/static/experiments/beast_fmri_test/images/B.png'></img>	71,89	2750.0	test	<img class = center src='/static/experiments/beast_fmri_test/images/redB.png'></img>	go	2200.0	2.0	37.0	go	target	B	71,Index Finger	89,Middle Finger	550.0	750.0	2200.0	2000.0	1.0	550.0	1.0	n/a	go_stim
180835.84236847062	742.157631529	n/a	1544	71	2750	742.157631529	stim	stop-signal	82	266854	0.0-7.37-1.37	beast_fmri_test	328	264711,/,265392,/,266071,/,266751,/,267430,/	t,t,t,t,t	<img class = center src='/static/experiments/beast_fmri_test/images/B.png'></img>	71,89	2750.0	test	<img class = center src='/static/experiments/beast_fmri_test/images/redB.png'></img>	go	2200.0	2.0	37.0	go	target	B	71,Index Finger	89,Middle Finger	550.0	750.0	2200.0	2000.0	1.0	550.0	1.0	n/a	ITI
182835	500.0	n/a	-1	-1	500	0.0	fixation	poldrack-single-stim	83	268111	0.0-7.38-0.38	beast_fmri_test	328	268109,/	t	<div class = centerbox2><div class = fixation>+</div></div>	none	500.0	test	n/a	n/a	n/a	n/a	n/a	n/a	n/a	n/a	n/a	n/a	n/a	n/a	n/a	n/a	n/a	n/a	n/a	n/a	fixation
182445.59019959084	2750.0	n/a	1611	71	2750	391.409800409	stim	stop-signal	84	270863	0.0-7.38-1.38	beast_fmri_test	328	268790,/,269469,/,270149,/,270829,/	t,t,t,t	<img class = center src='/static/experiments/beast_fmri_test/images/B.png'></img>	71,89	2750.0	test	<img class = center src='/static/experiments/beast_fmri_test/images/redB.png'></img>	go	2000.0	2.0	38.0	go	non-target	B	71,Index Finger	89,Middle Finger	550.0	750.0	2200.0	2000.0	0.0	750.0	0.0	n/a	go_stim
185195.59019959084	391.409800409	n/a	1611	71	2750	391.409800409	stim	stop-signal	84	270863	0.0-7.38-1.38	beast_fmri_test	328	268790,/,269469,/,270149,/,270829,/	t,t,t,t	<img class = center src='/static/experiments/beast_fmri_test/images/B.png'></img>	71,89	2750.0	test	<img class = center src='/static/experiments/beast_fmri_test/images/redB.png'></img>	go	2000.0	2.0	38.0	go	non-target	B	71,Index Finger	89,Middle Finger	550.0	750.0	2200.0	2000.0	0.0	750.0	0.0	n/a	ITI
186498	500.0	n/a	-1	-1	500	0.0	fixation	poldrack-single-stim	85	271774	0.0-7.39-0.39	beast_fmri_test	328	271508,/	t	<div class = centerbox2><div class = fixation>+</div></div>	none	500.0	test	n/a	n/a	n/a	n/a	n/a	n/a	n/a	n/a	n/a	n/a	n/a	n/a	n/a	n/a	n/a	n/a	n/a	n/a	fixation
185442.28313168604	2750.0	n/a	1363	89	2750	1056.71686831	stim	stop-signal	86	274525	0.0-7.39-1.39	beast_fmri_test	328	272189,/,272868,/,273547,/,274227,/,274907,/	t,t,t,t,t	<img class = center src='/static/experiments/beast_fmri_test/images/B.png'></img>	71,89	2750.0	test	<img class = center src='/static/experiments/beast_fmri_test/images/redB.png'></img>	go	2200.0	2.0	39.0	go	target	B	71,Index Finger	89,Middle Finger	550.0	750.0	2200.0	2000.0	0.0	550.0	0.0	n/a	go_stim
188192.28313168604	1056.71686831	n/a	1363	89	2750	1056.71686831	stim	stop-signal	86	274525	0.0-7.39-1.39	beast_fmri_test	328	272189,/,272868,/,273547,/,274227,/,274907,/	t,t,t,t,t	<img class = center src='/static/experiments/beast_fmri_test/images/B.png'></img>	71,89	2750.0	test	<img class = center src='/static/experiments/beast_fmri_test/images/redB.png'></img>	go	2200.0	2.0	39.0	go	target	B	71,Index Finger	89,Middle Finger	550.0	750.0	2200.0	2000.0	0.0	550.0	0.0	n/a	ITI
190822	500.0	n/a	-1	-1	500	0.0	fixation	poldrack-single-stim	87	276098	0.0-7.40-0.40	beast_fmri_test	328	275597,/	t	<div class = centerbox2><div class = fixation>+</div></div>	none	500.0	test	n/a	n/a	n/a	n/a	n/a	n/a	n/a	n/a	n/a	n/a	n/a	n/a	n/a	n/a	n/a	n/a	n/a	n/a	fixation
190460.84918787342	750.0	n/a	1685	89	2750	363.150812127	stim	stop-signal	88	278850	0.0-7.40-1.40	beast_fmri_test	328	276267,/,276946,/,277625,/,278305,/,278984,/	t,t,t,t,t	<img class = center src='/static/experiments/beast_fmri_test/images/T.png'></img>	71,89	2750.0	test	<img class = center src='/static/experiments/beast_fmri_test/images/redT.png'></img>	stop	2000.0	2.0	40.0	stop	non-target	T	71,Index Finger	89,Middle Finger	550.0	750.0	2200.0	2000.0	0.0	750.0	n/a	0.0	go_stim
192460.84918787342	2000.0	n/a	1685	89	2750	363.150812127	stim	stop-signal	88	278850	0.0-7.40-1.40	beast_fmri_test	328	276267,/,276946,/,277625,/,278305,/,278984,/	t,t,t,t,t	<img class = center src='/static/experiments/beast_fmri_test/images/T.png'></img>	71,89	2750.0	test	<img class = center src='/static/experiments/beast_fmri_test/images/redT.png'></img>	stop	2000.0	2.0	40.0	stop	non-target	T	71,Index Finger	89,Middle Finger	550.0	750.0	2200.0	2000.0	0.0	750.0	n/a	0.0	stop_stim
193210.84918787342	363.150812127	n/a	1685	89	2750	363.150812127	stim	stop-signal	88	278850	0.0-7.40-1.40	beast_fmri_test	328	276267,/,276946,/,277625,/,278305,/,278984,/	t,t,t,t,t	<img class = center src='/static/experiments/beast_fmri_test/images/T.png'></img>	71,89	2750.0	test	<img class = center src='/static/experiments/beast_fmri_test/images/redT.png'></img>	stop	2000.0	2.0	40.0	stop	non-target	T	71,Index Finger	89,Middle Finger	550.0	750.0	2200.0	2000.0	0.0	750.0	n/a	0.0	ITI
194457	500.0	n/a	-1	-1	500	0.0	fixation	poldrack-single-stim	89	279733	0.0-7.41-0.41	beast_fmri_test	328	279664,/	t	<div class = centerbox2><div class = fixation>+</div></div>	none	500.0	test	n/a	n/a	n/a	n/a	n/a	n/a	n/a	n/a	n/a	n/a	n/a	n/a	n/a	n/a	n/a	n/a	n/a	n/a	fixation
191023.61806766893	2750.0	n/a	1957	89	2750	3435.38193233	stim	stop-signal	90	282485	0.0-7.41-1.41	beast_fmri_test	328	280344,/,281024,/,281702,/,282382,/,283062,/,283742,/,284422,/,285101,/,285781,/	t,t,t,t,t,t,t,t,t	<img class = center src='/static/experiments/beast_fmri_test/images/V.png'></img>	71,89	2750.0	test	<img class = center src='/static/experiments/beast_fmri_test/images/redV.png'></img>	go	2050.0	2.0	41.0	go	non-target	V	71,Index Finger	89,Middle Finger	550.0	700.0	2200.0	2050.0	1.0	700.0	1.0	n/a	go_stim
193773.61806766893	3435.38193233	n/a	1957	89	2750	3435.38193233	stim	stop-signal	90	282485	0.0-7.41-1.41	beast_fmri_test	328	280344,/,281024,/,281702,/,282382,/,283062,/,283742,/,284422,/,285101,/,285781,/	t,t,t,t,t,t,t,t,t	<img class = center src='/static/experiments/beast_fmri_test/images/V.png'></img>	71,89	2750.0	test	<img class = center src='/static/experiments/beast_fmri_test/images/redV.png'></img>	go	2050.0	2.0	41.0	go	non-target	V	71,Index Finger	89,Middle Finger	550.0	700.0	2200.0	2050.0	1.0	700.0	1.0	n/a	ITI
201161	500.0	n/a	-1	-1	500	0.0	fixation	poldrack-single-stim	91	286437	0.0-7.42-0.42	beast_fmri_test	328	n/a	n/a	<div class = centerbox2><div class = fixation>+</div></div>	none	500.0	test	n/a	n/a	n/a	n/a	n/a	n/a	n/a	n/a	n/a	n/a	n/a	n/a	n/a	n/a	n/a	n/a	n/a	n/a	fixation
200263.93641525169	700.0	n/a	821	89	2750	898.063584748	stim	stop-signal	92	289188	0.0-7.42-1.42	beast_fmri_test	328	286461,/,287141,/,287822,/,288501,/,289181,/,289860,/	t,t,t,t,t,t	<img class = center src='/static/experiments/beast_fmri_test/images/B.png'></img>	71,89	2750.0	test	<img class = center src='/static/experiments/beast_fmri_test/images/redB.png'></img>	stop	2050.0	2.0	42.0	stop	non-target	B	71,Index Finger	89,Middle Finger	550.0	700.0	2200.0	2050.0	0.0	700.0	n/a	0.0	go_stim
202313.93641525169	2050.0	n/a	821	89	2750	898.063584748	stim	stop-signal	92	289188	0.0-7.42-1.42	beast_fmri_test	328	286461,/,287141,/,287822,/,288501,/,289181,/,289860,/	t,t,t,t,t,t	<img class = center src='/static/experiments/beast_fmri_test/images/B.png'></img>	71,89	2750.0	test	<img class = center src='/static/experiments/beast_fmri_test/images/redB.png'></img>	stop	2050.0	2.0	42.0	stop	non-target	B	71,Index Finger	89,Middle Finger	550.0	700.0	2200.0	2050.0	0.0	700.0	n/a	0.0	stop_stim
203013.93641525169	898.063584748	n/a	821	89	2750	898.063584748	stim	stop-signal	92	289188	0.0-7.42-1.42	beast_fmri_test	328	286461,/,287141,/,287822,/,288501,/,289181,/,289860,/	t,t,t,t,t,t	<img class = center src='/static/experiments/beast_fmri_test/images/B.png'></img>	71,89	2750.0	test	<img class = center src='/static/experiments/beast_fmri_test/images/redB.png'></img>	stop	2050.0	2.0	42.0	stop	non-target	B	71,Index Finger	89,Middle Finger	550.0	700.0	2200.0	2050.0	0.0	700.0	n/a	0.0	ITI
205325	500.0	n/a	-1	-1	500	0.0	fixation	poldrack-single-stim	93	290601	0.0-7.43-0.43	beast_fmri_test	328	290544,/	t	<div class = centerbox2><div class = fixation>+</div></div>	none	500.0	test	n/a	n/a	n/a	n/a	n/a	n/a	n/a	n/a	n/a	n/a	n/a	n/a	n/a	n/a	n/a	n/a	n/a	n/a	fixation
204096.39806183131	650.0	n/a	-1	-1	2750	1230.60193817	stim	stop-signal	94	293353	0.0-7.43-1.43	beast_fmri_test	328	291220,/,291898,/,292579,/,293257,/,293939,/	t,t,t,t,t	<img class = center src='/static/experiments/beast_fmri_test/images/P.png'></img>	71,89	2750.0	test	<img class = center src='/static/experiments/beast_fmri_test/images/redP.png'></img>	stop	2100.0	2.0	43.0	stop	non-target	P	71,Index Finger	89,Middle Finger	550.0	650.0	2200.0	2100.0	0.0	650.0	n/a	1.0	go_stim
206196.39806183131	2100.0	n/a	-1	-1	2750	1230.60193817	stim	stop-signal	94	293353	0.0-7.43-1.43	beast_fmri_test	328	291220,/,291898,/,292579,/,293257,/,293939,/	t,t,t,t,t	<img class = center src='/static/experiments/beast_fmri_test/images/P.png'></img>	71,89	2750.0	test	<img class = center src='/static/experiments/beast_fmri_test/images/redP.png'></img>	stop	2100.0	2.0	43.0	stop	non-target	P	71,Index Finger	89,Middle Finger	550.0	650.0	2200.0	2100.0	0.0	650.0	n/a	1.0	stop_stim
206846.39806183131	1230.60193817	n/a	-1	-1	2750	1230.60193817	stim	stop-signal	94	293353	0.0-7.43-1.43	beast_fmri_test	328	291220,/,291898,/,292579,/,293257,/,293939,/	t,t,t,t,t	<img class = center src='/static/experiments/beast_fmri_test/images/P.png'></img>	71,89	2750.0	test	<img class = center src='/static/experiments/beast_fmri_test/images/redP.png'></img>	stop	2100.0	2.0	43.0	stop	non-target	P	71,Index Finger	89,Middle Finger	550.0	650.0	2200.0	2100.0	0.0	650.0	n/a	1.0	ITI
209825	500.0	n/a	-1	-1	500	0.0	fixation	poldrack-single-stim	95	295101	0.0-7.44-0.44	beast_fmri_test	328	294617,/	t	<div class = centerbox2><div class = fixation>+</div></div>	none	500.0	test	n/a	n/a	n/a	n/a	n/a	n/a	n/a	n/a	n/a	n/a	n/a	n/a	n/a	n/a	n/a	n/a	n/a	n/a	fixation
207528.92566336074	700.0	n/a	-1	-1	2750	2297.07433664	stim	stop-signal	96	297852	0.0-7.44-1.44	beast_fmri_test	328	295297,/,295977,/,296657,/,297337,/,298016,/,298695,/,299376,/,300055,/	t,t,t,t,t,t,t,t	<img class = center src='/static/experiments/beast_fmri_test/images/T.png'></img>	71,89	2750.0	test	<img class = center src='/static/experiments/beast_fmri_test/images/redT.png'></img>	stop	2050.0	2.0	44.0	stop	non-target	T	71,Index Finger	89,Middle Finger	550.0	700.0	2200.0	2050.0	0.0	700.0	n/a	1.0	go_stim
209578.92566336074	2050.0	n/a	-1	-1	2750	2297.07433664	stim	stop-signal	96	297852	0.0-7.44-1.44	beast_fmri_test	328	295297,/,295977,/,296657,/,297337,/,298016,/,298695,/,299376,/,300055,/	t,t,t,t,t,t,t,t	<img class = center src='/static/experiments/beast_fmri_test/images/T.png'></img>	71,89	2750.0	test	<img class = center src='/static/experiments/beast_fmri_test/images/redT.png'></img>	stop	2050.0	2.0	44.0	stop	non-target	T	71,Index Finger	89,Middle Finger	550.0	700.0	2200.0	2050.0	0.0	700.0	n/a	1.0	stop_stim
210278.92566336074	2297.07433664	n/a	-1	-1	2750	2297.07433664	stim	stop-signal	96	297852	0.0-7.44-1.44	beast_fmri_test	328	295297,/,295977,/,296657,/,297337,/,298016,/,298695,/,299376,/,300055,/	t,t,t,t,t,t,t,t	<img class = center src='/static/experiments/beast_fmri_test/images/T.png'></img>	71,89	2750.0	test	<img class = center src='/static/experiments/beast_fmri_test/images/redT.png'></img>	stop	2050.0	2.0	44.0	stop	non-target	T	71,Index Finger	89,Middle Finger	550.0	700.0	2200.0	2050.0	0.0	700.0	n/a	1.0	ITI
215390	500.0	n/a	-1	-1	500	0.0	fixation	poldrack-single-stim	97	300666	0.0-7.45-0.45	beast_fmri_test	328	n/a	n/a	<div class = centerbox2><div class = fixation>+</div></div>	none	500.0	test	n/a	n/a	n/a	n/a	n/a	n/a	n/a	n/a	n/a	n/a	n/a	n/a	n/a	n/a	n/a	n/a	n/a	n/a	fixation
214644.50877076155	2750.0	n/a	1104	89	2750	747.491229238	stim	stop-signal	98	303418	0.0-7.45-1.45	beast_fmri_test	328	300734,/,301414,/,302093,/,302774,/,303452,/,304134,/	t,t,t,t,t,t	<img class = center src='/static/experiments/beast_fmri_test/images/V.png'></img>	71,89	2750.0	test	<img class = center src='/static/experiments/beast_fmri_test/images/redV.png'></img>	go	2000.0	2.0	45.0	go	non-target	V	71,Index Finger	89,Middle Finger	550.0	750.0	2200.0	2000.0	1.0	750.0	1.0	n/a	go_stim
217394.50877076155	747.491229238	n/a	1104	89	2750	747.491229238	stim	stop-signal	98	303418	0.0-7.45-1.45	beast_fmri_test	328	300734,/,301414,/,302093,/,302774,/,303452,/,304134,/	t,t,t,t,t,t	<img class = center src='/static/experiments/beast_fmri_test/images/V.png'></img>	71,89	2750.0	test	<img class = center src='/static/experiments/beast_fmri_test/images/redV.png'></img>	go	2000.0	2.0	45.0	go	non-target	V	71,Index Finger	89,Middle Finger	550.0	750.0	2200.0	2000.0	1.0	750.0	1.0	n/a	ITI
219408	500.0	n/a	-1	-1	500	0.0	fixation	poldrack-single-stim	99	304684	0.0-7.46-0.46	beast_fmri_test	328	n/a	n/a	<div class = centerbox2><div class = fixation>+</div></div>	none	500.0	test	n/a	n/a	n/a	n/a	n/a	n/a	n/a	n/a	n/a	n/a	n/a	n/a	n/a	n/a	n/a	n/a	n/a	n/a	fixation
217679.16427758278	750.0	n/a	-1	-1	2750	1730.83572242	stim	stop-signal	100	307436	0.0-7.46-1.46	beast_fmri_test	328	304813,/,305492,/,306171,/,306852,/,307531,/,308212,/,308891,/	t,t,t,t,t,t,t	<img class = center src='/static/experiments/beast_fmri_test/images/D.png'></img>	71,89	2750.0	test	<img class = center src='/static/experiments/beast_fmri_test/images/redD.png'></img>	stop	2000.0	2.0	46.0	stop	non-target	D	71,Index Finger	89,Middle Finger	550.0	750.0	2200.0	2000.0	0.0	750.0	n/a	1.0	go_stim
219679.16427758278	2000.0	n/a	-1	-1	2750	1730.83572242	stim	stop-signal	100	307436	0.0-7.46-1.46	beast_fmri_test	328	304813,/,305492,/,306171,/,306852,/,307531,/,308212,/,308891,/	t,t,t,t,t,t,t	<img class = center src='/static/experiments/beast_fmri_test/images/D.png'></img>	71,89	2750.0	test	<img class = center src='/static/experiments/beast_fmri_test/images/redD.png'></img>	stop	2000.0	2.0	46.0	stop	non-target	D	71,Index Finger	89,Middle Finger	550.0	750.0	2200.0	2000.0	0.0	750.0	n/a	1.0	stop_stim
220429.16427758278	1730.83572242	n/a	-1	-1	2750	1730.83572242	stim	stop-signal	100	307436	0.0-7.46-1.46	beast_fmri_test	328	304813,/,305492,/,306171,/,306852,/,307531,/,308212,/,308891,/	t,t,t,t,t,t,t	<img class = center src='/static/experiments/beast_fmri_test/images/D.png'></img>	71,89	2750.0	test	<img class = center src='/static/experiments/beast_fmri_test/images/redD.png'></img>	stop	2000.0	2.0	46.0	stop	non-target	D	71,Index Finger	89,Middle Finger	550.0	750.0	2200.0	2000.0	0.0	750.0	n/a	1.0	ITI
238902	15000.0	n/a	-1	-1	15000	0.0	practice-no-stop-feedback	poldrack-single-stim	101	324178	0.0-8.0	beast_fmri_test	328	309571,/,310251,/,310930,/,311610,/,312288,/,312969,/,313649,/,314328,/,315008,/,315688,/,316369,/,317047,/,317728,/,318406,/,319087,/,319765,/,320446,/,321126,/,321806,/,322485,/,323164,/,323845,/	t,t,t,t,t,t,t,t,t,t,t,t,t,t,t,t,t,t,t,t,t,t	"<div class = ""centerbox""><p class = ""block-text"">Your delay is 2 trials.</p><p class = block-text>Please wait for the scanner to start the block</p></div>"	77	15000.0	n/a	n/a	n/a	n/a	n/a	n/a	n/a	n/a	n/a	n/a	n/a	n/a	n/a	n/a	n/a	n/a	n/a	n/a	n/a	practice-no-stop-feedback
239405	500.0	n/a	-1	-1	500	0.0	fixation	poldrack-single-stim	102	324681	0.0-9.0-0.0	beast_fmri_test	328	324523,/	t	<div class = centerbox2><div class = fixation>+</div></div>	none	500.0	test	n/a	n/a	n/a	n/a	n/a	n/a	n/a	n/a	n/a	n/a	n/a	n/a	n/a	n/a	n/a	n/a	n/a	n/a	fixation
238647.57497523719	2750.0	n/a	-1	-1	2750	760.425024763	stim	stop-signal	103	327434	0.0-9.0-1.0	beast_fmri_test	328	325204,/,325884,/,326564,/,327243,/,327922,/	t,t,t,t,t	<img class = center src='/static/experiments/beast_fmri_test/images/T.png'></img>	71,89	2750.0	test	<img class = center src='/static/experiments/beast_fmri_test/images/redT.png'></img>	go	-1.0	2.0	0.0	go	temp-non-target	T	71,Index Finger	89,Middle Finger	550.0	800.0	2200.0	2000.0	0.0	n/a	n/a	n/a	go_stim
241397.57497523719	760.425024763	n/a	-1	-1	2750	760.425024763	stim	stop-signal	103	327434	0.0-9.0-1.0	beast_fmri_test	328	325204,/,325884,/,326564,/,327243,/,327922,/	t,t,t,t,t	<img class = center src='/static/experiments/beast_fmri_test/images/T.png'></img>	71,89	2750.0	test	<img class = center src='/static/experiments/beast_fmri_test/images/redT.png'></img>	go	-1.0	2.0	0.0	go	temp-non-target	T	71,Index Finger	89,Middle Finger	550.0	800.0	2200.0	2000.0	0.0	n/a	n/a	n/a	ITI
243437	500.0	n/a	-1	-1	500	0.0	fixation	poldrack-single-stim	104	328713	0.0-9.1-0.1	beast_fmri_test	328	328603,/	t	<div class = centerbox2><div class = fixation>+</div></div>	none	500.0	test	n/a	n/a	n/a	n/a	n/a	n/a	n/a	n/a	n/a	n/a	n/a	n/a	n/a	n/a	n/a	n/a	n/a	n/a	fixation
243383.37573438638	2750.0	n/a	-1	-1	2750	54.6242656136	stim	stop-signal	105	331464	0.0-9.1-1.1	beast_fmri_test	328	329282,/,329960,/,330641,/,331321,/	t,t,t,t	<img class = center src='/static/experiments/beast_fmri_test/images/T.png'></img>	71,89	2750.0	test	<img class = center src='/static/experiments/beast_fmri_test/images/redT.png'></img>	go	-1.0	2.0	1.0	go	temp-non-target	T	71,Index Finger	89,Middle Finger	550.0	800.0	2200.0	2000.0	0.0	n/a	n/a	n/a	go_stim
246133.37573438638	54.6242656136	n/a	-1	-1	2750	54.6242656136	stim	stop-signal	105	331464	0.0-9.1-1.1	beast_fmri_test	328	329282,/,329960,/,330641,/,331321,/	t,t,t,t	<img class = center src='/static/experiments/beast_fmri_test/images/T.png'></img>	71,89	2750.0	test	<img class = center src='/static/experiments/beast_fmri_test/images/redT.png'></img>	go	-1.0	2.0	1.0	go	temp-non-target	T	71,Index Finger	89,Middle Finger	550.0	800.0	2200.0	2000.0	0.0	n/a	n/a	n/a	ITI
246760	500.0	n/a	-1	-1	500	0.0	fixation	poldrack-single-stim	106	332036	0.0-9.2-0.2	beast_fmri_test	328	332000,/	t	<div class = centerbox2><div class = fixation>+</div></div>	none	500.0	test	n/a	n/a	n/a	n/a	n/a	n/a	n/a	n/a	n/a	n/a	n/a	n/a	n/a	n/a	n/a	n/a	n/a	n/a	fixation
245629.25678422686	800.0	n/a	-1	-1	2750	1131.74321577	stim	stop-signal	107	334787	0.0-9.2-1.2	beast_fmri_test	328	332679,/,333358,/,334041,/,334719,/,335397,/	t,t,t,t,t	<img class = center src='/static/experiments/beast_fmri_test/images/P.png'></img>	71,89	2750.0	test	<img class = center src='/static/experiments/beast_fmri_test/images/redP.png'></img>	stop	1950.0	2.0	2.0	stop	non-target	P	71,Index Finger	89,Middle Finger	550.0	800.0	2200.0	1950.0	0.0	800.0	n/a	1.0	go_stim
247579.25678422686	1950.0	n/a	-1	-1	2750	1131.74321577	stim	stop-signal	107	334787	0.0-9.2-1.2	beast_fmri_test	328	332679,/,333358,/,334041,/,334719,/,335397,/	t,t,t,t,t	<img class = center src='/static/experiments/beast_fmri_test/images/P.png'></img>	71,89	2750.0	test	<img class = center src='/static/experiments/beast_fmri_test/images/redP.png'></img>	stop	1950.0	2.0	2.0	stop	non-target	P	71,Index Finger	89,Middle Finger	550.0	800.0	2200.0	1950.0	0.0	800.0	n/a	1.0	stop_stim
248379.25678422686	1131.74321577	n/a	-1	-1	2750	1131.74321577	stim	stop-signal	107	334787	0.0-9.2-1.2	beast_fmri_test	328	332679,/,333358,/,334041,/,334719,/,335397,/	t,t,t,t,t	<img class = center src='/static/experiments/beast_fmri_test/images/P.png'></img>	71,89	2750.0	test	<img class = center src='/static/experiments/beast_fmri_test/images/redP.png'></img>	stop	1950.0	2.0	2.0	stop	non-target	P	71,Index Finger	89,Middle Finger	550.0	800.0	2200.0	1950.0	0.0	800.0	n/a	1.0	ITI
251163	500.0	n/a	-1	-1	500	0.0	fixation	poldrack-single-stim	108	336439	0.0-9.3-0.3	beast_fmri_test	328	336077,/	t	<div class = centerbox2><div class = fixation>+</div></div>	none	500.0	test	n/a	n/a	n/a	n/a	n/a	n/a	n/a	n/a	n/a	n/a	n/a	n/a	n/a	n/a	n/a	n/a	n/a	n/a	fixation
250750.21210975666	2750.0	n/a	943	89	2750	413.787890243	stim	stop-signal	109	339190	0.0-9.3-1.3	beast_fmri_test	328	336757,/,337436,/,338116,/,338796,/,339475,/	t,t,t,t,t	<img class = center src='/static/experiments/beast_fmri_test/images/D.png'></img>	71,89	2750.0	test	<img class = center src='/static/experiments/beast_fmri_test/images/redD.png'></img>	go	1900.0	2.0	3.0	go	non-target	D	71,Index Finger	89,Middle Finger	550.0	850.0	2200.0	1900.0	1.0	850.0	1.0	n/a	go_stim
253500.21210975666	413.787890243	n/a	943	89	2750	413.787890243	stim	stop-signal	109	339190	0.0-9.3-1.3	beast_fmri_test	328	336757,/,337436,/,338116,/,338796,/,339475,/	t,t,t,t,t	<img class = center src='/static/experiments/beast_fmri_test/images/D.png'></img>	71,89	2750.0	test	<img class = center src='/static/experiments/beast_fmri_test/images/redD.png'></img>	go	1900.0	2.0	3.0	go	non-target	D	71,Index Finger	89,Middle Finger	550.0	850.0	2200.0	1900.0	1.0	850.0	1.0	n/a	ITI
254846	500.0	n/a	-1	-1	500	0.0	fixation	poldrack-single-stim	110	340122	0.0-9.4-0.4	beast_fmri_test	328	n/a	n/a	<div class = centerbox2><div class = fixation>+</div></div>	none	500.0	test	n/a	n/a	n/a	n/a	n/a	n/a	n/a	n/a	n/a	n/a	n/a	n/a	n/a	n/a	n/a	n/a	n/a	n/a	fixation
253012.65539341746	2750.0	n/a	1582	89	2750	1835.34460658	stim	stop-signal	111	342874	0.0-9.4-1.4	beast_fmri_test	328	340162,/,340835,/,341515,/,342196,/,342876,/,343555,/,344234,/	t,t,t,t,t,t,t	<img class = center src='/static/experiments/beast_fmri_test/images/D.png'></img>	71,89	2750.0	test	<img class = center src='/static/experiments/beast_fmri_test/images/redD.png'></img>	go	1900.0	2.0	4.0	go	non-target	D	71,Index Finger	89,Middle Finger	550.0	850.0	2200.0	1900.0	1.0	850.0	1.0	n/a	go_stim
255762.65539341746	1835.34460658	n/a	1582	89	2750	1835.34460658	stim	stop-signal	111	342874	0.0-9.4-1.4	beast_fmri_test	328	340162,/,340835,/,341515,/,342196,/,342876,/,343555,/,344234,/	t,t,t,t,t,t,t	<img class = center src='/static/experiments/beast_fmri_test/images/D.png'></img>	71,89	2750.0	test	<img class = center src='/static/experiments/beast_fmri_test/images/redD.png'></img>	go	1900.0	2.0	4.0	go	non-target	D	71,Index Finger	89,Middle Finger	550.0	850.0	2200.0	1900.0	1.0	850.0	1.0	n/a	ITI
259954	500.0	n/a	-1	-1	500	0.0	fixation	poldrack-single-stim	112	345230	0.0-9.5-0.5	beast_fmri_test	328	344914,/	t	<div class = centerbox2><div class = fixation>+</div></div>	none	500.0	test	n/a	n/a	n/a	n/a	n/a	n/a	n/a	n/a	n/a	n/a	n/a	n/a	n/a	n/a	n/a	n/a	n/a	n/a	fixation
258893.30798050226	850.0	n/a	917	89	2750	1061.6920195	stim	stop-signal	113	347981	0.0-9.5-1.5	beast_fmri_test	328	345594,/,346274,/,346953,/,347632,/,348313,/,348991,/	t,t,t,t,t,t	<img class = center src='/static/experiments/beast_fmri_test/images/P.png'></img>	71,89	2750.0	test	<img class = center src='/static/experiments/beast_fmri_test/images/redP.png'></img>	stop	1900.0	2.0	5.0	stop	non-target	P	71,Index Finger	89,Middle Finger	550.0	850.0	2200.0	1900.0	0.0	850.0	n/a	0.0	go_stim
260793.30798050226	1900.0	n/a	917	89	2750	1061.6920195	stim	stop-signal	113	347981	0.0-9.5-1.5	beast_fmri_test	328	345594,/,346274,/,346953,/,347632,/,348313,/,348991,/	t,t,t,t,t,t	<img class = center src='/static/experiments/beast_fmri_test/images/P.png'></img>	71,89	2750.0	test	<img class = center src='/static/experiments/beast_fmri_test/images/redP.png'></img>	stop	1900.0	2.0	5.0	stop	non-target	P	71,Index Finger	89,Middle Finger	550.0	850.0	2200.0	1900.0	0.0	850.0	n/a	0.0	stop_stim
261643.30798050226	1061.6920195	n/a	917	89	2750	1061.6920195	stim	stop-signal	113	347981	0.0-9.5-1.5	beast_fmri_test	328	345594,/,346274,/,346953,/,347632,/,348313,/,348991,/	t,t,t,t,t,t	<img class = center src='/static/experiments/beast_fmri_test/images/P.png'></img>	71,89	2750.0	test	<img class = center src='/static/experiments/beast_fmri_test/images/redP.png'></img>	stop	1900.0	2.0	5.0	stop	non-target	P	71,Index Finger	89,Middle Finger	550.0	850.0	2200.0	1900.0	0.0	850.0	n/a	0.0	ITI
264281	500.0	n/a	-1	-1	500	0.0	fixation	poldrack-single-stim	114	349557	0.0-9.6-0.6	beast_fmri_test	328	n/a	n/a	<div class = centerbox2><div class = fixation>+</div></div>	none	500.0	test	n/a	n/a	n/a	n/a	n/a	n/a	n/a	n/a	n/a	n/a	n/a	n/a	n/a	n/a	n/a	n/a	n/a	n/a	fixation
264231.46051248902	2750.0	n/a	1357	89	2750	51.539487511	stim	stop-signal	115	352309	0.0-9.6-1.6	beast_fmri_test	328	349673,/,350351,/,351031,/,351711,/	t,t,t,t	<img class = center src='/static/experiments/beast_fmri_test/images/B.png'></img>	71,89	2750.0	test	<img class = center src='/static/experiments/beast_fmri_test/images/redB.png'></img>	go	1950.0	2.0	6.0	go	non-target	B	71,Index Finger	89,Middle Finger	550.0	800.0	2200.0	1950.0	1.0	800.0	1.0	n/a	go_stim
266981.46051248902	51.539487511	n/a	1357	89	2750	51.539487511	stim	stop-signal	115	352309	0.0-9.6-1.6	beast_fmri_test	328	349673,/,350351,/,351031,/,351711,/	t,t,t,t	<img class = center src='/static/experiments/beast_fmri_test/images/B.png'></img>	71,89	2750.0	test	<img class = center src='/static/experiments/beast_fmri_test/images/redB.png'></img>	go	1950.0	2.0	6.0	go	non-target	B	71,Index Finger	89,Middle Finger	550.0	800.0	2200.0	1950.0	1.0	800.0	1.0	n/a	ITI
267600	500.0	n/a	-1	-1	500	0.0	fixation	poldrack-single-stim	116	352876	0.0-9.7-0.7	beast_fmri_test	328	352394,/	t	<div class = centerbox2><div class = fixation>+</div></div>	none	500.0	test	n/a	n/a	n/a	n/a	n/a	n/a	n/a	n/a	n/a	n/a	n/a	n/a	n/a	n/a	n/a	n/a	n/a	n/a	fixation
266427.73760101601	2750.0	n/a	1178	71	2750	1173.26239898	stim	stop-signal	117	355627	0.0-9.7-1.7	beast_fmri_test	328	353070,/,353752,/,354430,/,355110,/,355790,/,356470,/	t,t,t,t,t,t	<img class = center src='/static/experiments/beast_fmri_test/images/P.png'></img>	71,89	2750.0	test	<img class = center src='/static/experiments/beast_fmri_test/images/redP.png'></img>	go	2200.0	2.0	7.0	go	target	P	71,Index Finger	89,Middle Finger	550.0	800.0	2200.0	1950.0	1.0	550.0	1.0	n/a	go_stim
269177.73760101601	1173.26239898	n/a	1178	71	2750	1173.26239898	stim	stop-signal	117	355627	0.0-9.7-1.7	beast_fmri_test	328	353070,/,353752,/,354430,/,355110,/,355790,/,356470,/	t,t,t,t,t,t	<img class = center src='/static/experiments/beast_fmri_test/images/P.png'></img>	71,89	2750.0	test	<img class = center src='/static/experiments/beast_fmri_test/images/redP.png'></img>	go	2200.0	2.0	7.0	go	target	P	71,Index Finger	89,Middle Finger	550.0	800.0	2200.0	1950.0	1.0	550.0	1.0	n/a	ITI
272047	500.0	n/a	-1	-1	500	0.0	fixation	poldrack-single-stim	118	357323	0.0-9.8-0.8	beast_fmri_test	328	357149,/	t	<div class = centerbox2><div class = fixation>+</div></div>	none	500.0	test	n/a	n/a	n/a	n/a	n/a	n/a	n/a	n/a	n/a	n/a	n/a	n/a	n/a	n/a	n/a	n/a	n/a	n/a	fixation
271897.40244433924	2750.0	n/a	945	89	2750	152.597555661	stim	stop-signal	119	360076	0.0-9.8-1.8	beast_fmri_test	328	357828,/,358508,/,359187,/,359867,/	t,t,t,t	<img class = center src='/static/experiments/beast_fmri_test/images/V.png'></img>	71,89	2750.0	test	<img class = center src='/static/experiments/beast_fmri_test/images/redV.png'></img>	go	1950.0	2.0	8.0	go	non-target	V	71,Index Finger	89,Middle Finger	550.0	800.0	2200.0	1950.0	1.0	800.0	1.0	n/a	go_stim
274647.40244433924	152.597555661	n/a	945	89	2750	152.597555661	stim	stop-signal	119	360076	0.0-9.8-1.8	beast_fmri_test	328	357828,/,358508,/,359187,/,359867,/	t,t,t,t	<img class = center src='/static/experiments/beast_fmri_test/images/V.png'></img>	71,89	2750.0	test	<img class = center src='/static/experiments/beast_fmri_test/images/redV.png'></img>	go	1950.0	2.0	8.0	go	non-target	V	71,Index Finger	89,Middle Finger	550.0	800.0	2200.0	1950.0	1.0	800.0	1.0	n/a	ITI
275473	500.0	n/a	-1	-1	500	0.0	fixation	poldrack-single-stim	120	360749	0.0-9.9-0.9	beast_fmri_test	328	360548,/	t	<div class = centerbox2><div class = fixation>+</div></div>	none	500.0	test	n/a	n/a	n/a	n/a	n/a	n/a	n/a	n/a	n/a	n/a	n/a	n/a	n/a	n/a	n/a	n/a	n/a	n/a	fixation
274828.03592807567	2750.0	n/a	1002	89	2750	646.964071924	stim	stop-signal	121	363501	0.0-9.9-1.9	beast_fmri_test	328	361227,/,361905,/,362586,/,363265,/,363946,/	t,t,t,t,t	<img class = center src='/static/experiments/beast_fmri_test/images/D.png'></img>	71,89	2750.0	test	<img class = center src='/static/experiments/beast_fmri_test/images/redD.png'></img>	go	1950.0	2.0	9.0	go	non-target	D	71,Index Finger	89,Middle Finger	550.0	800.0	2200.0	1950.0	1.0	800.0	1.0	n/a	go_stim
277578.03592807567	646.964071924	n/a	1002	89	2750	646.964071924	stim	stop-signal	121	363501	0.0-9.9-1.9	beast_fmri_test	328	361227,/,361905,/,362586,/,363265,/,363946,/	t,t,t,t,t	<img class = center src='/static/experiments/beast_fmri_test/images/D.png'></img>	71,89	2750.0	test	<img class = center src='/static/experiments/beast_fmri_test/images/redD.png'></img>	go	1950.0	2.0	9.0	go	non-target	D	71,Index Finger	89,Middle Finger	550.0	800.0	2200.0	1950.0	1.0	800.0	1.0	n/a	ITI
279393	500.0	n/a	-1	-1	500	0.0	fixation	poldrack-single-stim	122	364669	0.0-9.10-0.10	beast_fmri_test	328	364625,/	t	<div class = centerbox2><div class = fixation>+</div></div>	none	500.0	test	n/a	n/a	n/a	n/a	n/a	n/a	n/a	n/a	n/a	n/a	n/a	n/a	n/a	n/a	n/a	n/a	n/a	n/a	fixation
279140.73635396862	800.0	n/a	894	89	2750	255.263646031	stim	stop-signal	123	367422	0.0-9.10-1.10	beast_fmri_test	328	365305,/,365984,/,366664,/,367344,/	t,t,t,t	<img class = center src='/static/experiments/beast_fmri_test/images/T.png'></img>	71,89	2750.0	test	<img class = center src='/static/experiments/beast_fmri_test/images/redT.png'></img>	stop	1950.0	2.0	10.0	stop	non-target	T	71,Index Finger	89,Middle Finger	550.0	800.0	2200.0	1950.0	0.0	800.0	n/a	0.0	go_stim
281090.73635396862	1950.0	n/a	894	89	2750	255.263646031	stim	stop-signal	123	367422	0.0-9.10-1.10	beast_fmri_test	328	365305,/,365984,/,366664,/,367344,/	t,t,t,t	<img class = center src='/static/experiments/beast_fmri_test/images/T.png'></img>	71,89	2750.0	test	<img class = center src='/static/experiments/beast_fmri_test/images/redT.png'></img>	stop	1950.0	2.0	10.0	stop	non-target	T	71,Index Finger	89,Middle Finger	550.0	800.0	2200.0	1950.0	0.0	800.0	n/a	0.0	stop_stim
281890.73635396862	255.263646031	n/a	894	89	2750	255.263646031	stim	stop-signal	123	367422	0.0-9.10-1.10	beast_fmri_test	328	365305,/,365984,/,366664,/,367344,/	t,t,t,t	<img class = center src='/static/experiments/beast_fmri_test/images/T.png'></img>	71,89	2750.0	test	<img class = center src='/static/experiments/beast_fmri_test/images/redT.png'></img>	stop	1950.0	2.0	10.0	stop	non-target	T	71,Index Finger	89,Middle Finger	550.0	800.0	2200.0	1950.0	0.0	800.0	n/a	0.0	ITI
282924	500.0	n/a	-1	-1	500	0.0	fixation	poldrack-single-stim	124	368200	0.0-9.11-0.11	beast_fmri_test	328	368023,/	t	<div class = centerbox2><div class = fixation>+</div></div>	none	500.0	test	n/a	n/a	n/a	n/a	n/a	n/a	n/a	n/a	n/a	n/a	n/a	n/a	n/a	n/a	n/a	n/a	n/a	n/a	fixation
282838.88774180203	2750.0	n/a	1454	71	2750	87.112258198	stim	stop-signal	125	370952	0.0-9.11-1.11	beast_fmri_test	328	368703,/,369383,/,370063,/,370742,/	t,t,t,t	<img class = center src='/static/experiments/beast_fmri_test/images/D.png'></img>	71,89	2750.0	test	<img class = center src='/static/experiments/beast_fmri_test/images/redD.png'></img>	go	2200.0	2.0	11.0	go	target	D	71,Index Finger	89,Middle Finger	550.0	750.0	2200.0	1950.0	1.0	550.0	1.0	n/a	go_stim
285588.88774180203	87.112258198	n/a	1454	71	2750	87.112258198	stim	stop-signal	125	370952	0.0-9.11-1.11	beast_fmri_test	328	368703,/,369383,/,370063,/,370742,/	t,t,t,t	<img class = center src='/static/experiments/beast_fmri_test/images/D.png'></img>	71,89	2750.0	test	<img class = center src='/static/experiments/beast_fmri_test/images/redD.png'></img>	go	2200.0	2.0	11.0	go	target	D	71,Index Finger	89,Middle Finger	550.0	750.0	2200.0	1950.0	1.0	550.0	1.0	n/a	ITI
286285	500.0	n/a	-1	-1	500	0.0	fixation	poldrack-single-stim	126	371561	0.0-9.12-0.12	beast_fmri_test	328	371422,/	t	<div class = centerbox2><div class = fixation>+</div></div>	none	500.0	test	n/a	n/a	n/a	n/a	n/a	n/a	n/a	n/a	n/a	n/a	n/a	n/a	n/a	n/a	n/a	n/a	n/a	n/a	fixation
286158.05305798881	2750.0	n/a	1373	71	2750	128.946942011	stim	stop-signal	127	374313	0.0-9.12-1.12	beast_fmri_test	328	372102,/,372782,/,373462,/,374142,/	t,t,t,t	<img class = center src='/static/experiments/beast_fmri_test/images/T.png'></img>	71,89	2750.0	test	<img class = center src='/static/experiments/beast_fmri_test/images/redT.png'></img>	go	2200.0	2.0	12.0	go	target	T	71,Index Finger	89,Middle Finger	550.0	750.0	2200.0	1950.0	1.0	550.0	1.0	n/a	go_stim
288908.05305798881	128.946942011	n/a	1373	71	2750	128.946942011	stim	stop-signal	127	374313	0.0-9.12-1.12	beast_fmri_test	328	372102,/,372782,/,373462,/,374142,/	t,t,t,t	<img class = center src='/static/experiments/beast_fmri_test/images/T.png'></img>	71,89	2750.0	test	<img class = center src='/static/experiments/beast_fmri_test/images/redT.png'></img>	go	2200.0	2.0	12.0	go	target	T	71,Index Finger	89,Middle Finger	550.0	750.0	2200.0	1950.0	1.0	550.0	1.0	n/a	ITI
289683	500.0	n/a	-1	-1	500	0.0	fixation	poldrack-single-stim	128	374959	0.0-9.13-0.13	beast_fmri_test	328	374821,/	t	<div class = centerbox2><div class = fixation>+</div></div>	none	500.0	test	n/a	n/a	n/a	n/a	n/a	n/a	n/a	n/a	n/a	n/a	n/a	n/a	n/a	n/a	n/a	n/a	n/a	n/a	fixation
289532.45485534245	550.0	n/a	-1	-1	2750	153.545144658	stim	stop-signal	129	377712	0.0-9.13-1.13	beast_fmri_test	328	375501,/,376179,/,376859,/,377540,/	t,t,t,t	<img class = center src='/static/experiments/beast_fmri_test/images/D.png'></img>	71,89	2750.0	test	<img class = center src='/static/experiments/beast_fmri_test/images/redD.png'></img>	stop	2200.0	2.0	13.0	stop	target	D	71,Index Finger	89,Middle Finger	550.0	750.0	2200.0	1950.0	0.0	550.0	n/a	1.0	go_stim
291732.45485534245	2200.0	n/a	-1	-1	2750	153.545144658	stim	stop-signal	129	377712	0.0-9.13-1.13	beast_fmri_test	328	375501,/,376179,/,376859,/,377540,/	t,t,t,t	<img class = center src='/static/experiments/beast_fmri_test/images/D.png'></img>	71,89	2750.0	test	<img class = center src='/static/experiments/beast_fmri_test/images/redD.png'></img>	stop	2200.0	2.0	13.0	stop	target	D	71,Index Finger	89,Middle Finger	550.0	750.0	2200.0	1950.0	0.0	550.0	n/a	1.0	stop_stim
292282.45485534245	153.545144658	n/a	-1	-1	2750	153.545144658	stim	stop-signal	129	377712	0.0-9.13-1.13	beast_fmri_test	328	375501,/,376179,/,376859,/,377540,/	t,t,t,t	<img class = center src='/static/experiments/beast_fmri_test/images/D.png'></img>	71,89	2750.0	test	<img class = center src='/static/experiments/beast_fmri_test/images/redD.png'></img>	stop	2200.0	2.0	13.0	stop	target	D	71,Index Finger	89,Middle Finger	550.0	750.0	2200.0	1950.0	0.0	550.0	n/a	1.0	ITI
293107	500.0	n/a	-1	-1	500	0.0	fixation	poldrack-single-stim	130	378383	0.0-9.14-0.14	beast_fmri_test	328	378220,/	t	<div class = centerbox2><div class = fixation>+</div></div>	none	500.0	test	n/a	n/a	n/a	n/a	n/a	n/a	n/a	n/a	n/a	n/a	n/a	n/a	n/a	n/a	n/a	n/a	n/a	n/a	fixation
292730.63665329444	600.0	n/a	-1	-1	2750	378.363346706	stim	stop-signal	131	381135	0.0-9.14-1.14	beast_fmri_test	328	378899,/,379579,/,380259,/,380937,/	t,t,t,t	<img class = center src='/static/experiments/beast_fmri_test/images/T.png'></img>	71,89	2750.0	test	<img class = center src='/static/experiments/beast_fmri_test/images/redT.png'></img>	stop	2150.0	2.0	14.0	stop	target	T	71,Index Finger	89,Middle Finger	600.0	750.0	2150.0	1950.0	0.0	600.0	n/a	1.0	go_stim
294880.63665329444	2150.0	n/a	-1	-1	2750	378.363346706	stim	stop-signal	131	381135	0.0-9.14-1.14	beast_fmri_test	328	378899,/,379579,/,380259,/,380937,/	t,t,t,t	<img class = center src='/static/experiments/beast_fmri_test/images/T.png'></img>	71,89	2750.0	test	<img class = center src='/static/experiments/beast_fmri_test/images/redT.png'></img>	stop	2150.0	2.0	14.0	stop	target	T	71,Index Finger	89,Middle Finger	600.0	750.0	2150.0	1950.0	0.0	600.0	n/a	1.0	stop_stim
295480.63665329444	378.363346706	n/a	-1	-1	2750	378.363346706	stim	stop-signal	131	381135	0.0-9.14-1.14	beast_fmri_test	328	378899,/,379579,/,380259,/,380937,/	t,t,t,t	<img class = center src='/static/experiments/beast_fmri_test/images/T.png'></img>	71,89	2750.0	test	<img class = center src='/static/experiments/beast_fmri_test/images/redT.png'></img>	stop	2150.0	2.0	14.0	stop	target	T	71,Index Finger	89,Middle Finger	600.0	750.0	2150.0	1950.0	0.0	600.0	n/a	1.0	ITI
296762	500.0	n/a	-1	-1	500	0.0	fixation	poldrack-single-stim	132	382038	0.0-9.15-0.15	beast_fmri_test	328	381618,/	t	<div class = centerbox2><div class = fixation>+</div></div>	none	500.0	test	n/a	n/a	n/a	n/a	n/a	n/a	n/a	n/a	n/a	n/a	n/a	n/a	n/a	n/a	n/a	n/a	n/a	n/a	fixation
296009.70943175227	2750.0	n/a	1584	89	2750	754.290568248	stim	stop-signal	133	384790	0.0-9.15-1.15	beast_fmri_test	328	382298,/,382978,/,383656,/,384337,/,385015,/	t,t,t,t,t	<img class = center src='/static/experiments/beast_fmri_test/images/T.png'></img>	71,89	2750.0	test	<img class = center src='/static/experiments/beast_fmri_test/images/redT.png'></img>	go	2000.0	2.0	15.0	go	non-target	T	71,Index Finger	89,Middle Finger	650.0	750.0	2150.0	2000.0	1.0	750.0	1.0	n/a	go_stim
298759.70943175227	754.290568248	n/a	1584	89	2750	754.290568248	stim	stop-signal	133	384790	0.0-9.15-1.15	beast_fmri_test	328	382298,/,382978,/,383656,/,384337,/,385015,/	t,t,t,t,t	<img class = center src='/static/experiments/beast_fmri_test/images/T.png'></img>	71,89	2750.0	test	<img class = center src='/static/experiments/beast_fmri_test/images/redT.png'></img>	go	2000.0	2.0	15.0	go	non-target	T	71,Index Finger	89,Middle Finger	650.0	750.0	2150.0	2000.0	1.0	750.0	1.0	n/a	ITI
300790	500.0	n/a	-1	-1	500	0.0	fixation	poldrack-single-stim	134	386066	0.0-9.16-0.16	beast_fmri_test	328	385696,/	t	<div class = centerbox2><div class = fixation>+</div></div>	none	500.0	test	n/a	n/a	n/a	n/a	n/a	n/a	n/a	n/a	n/a	n/a	n/a	n/a	n/a	n/a	n/a	n/a	n/a	n/a	fixation
299310.51749707502	650.0	n/a	971	71	2750	1481.48250292	stim	stop-signal	135	388818	0.0-9.16-1.16	beast_fmri_test	328	386374,/,387053,/,387734,/,388415,/,389094,/,389772,/	t,t,t,t,t,t	<img class = center src='/static/experiments/beast_fmri_test/images/T.png'></img>	71,89	2750.0	test	<img class = center src='/static/experiments/beast_fmri_test/images/redT.png'></img>	stop	2100.0	2.0	16.0	stop	target	T	71,Index Finger	89,Middle Finger	650.0	750.0	2100.0	2000.0	0.0	650.0	n/a	0.0	go_stim
301410.51749707502	2100.0	n/a	971	71	2750	1481.48250292	stim	stop-signal	135	388818	0.0-9.16-1.16	beast_fmri_test	328	386374,/,387053,/,387734,/,388415,/,389094,/,389772,/	t,t,t,t,t,t	<img class = center src='/static/experiments/beast_fmri_test/images/T.png'></img>	71,89	2750.0	test	<img class = center src='/static/experiments/beast_fmri_test/images/redT.png'></img>	stop	2100.0	2.0	16.0	stop	target	T	71,Index Finger	89,Middle Finger	650.0	750.0	2100.0	2000.0	0.0	650.0	n/a	0.0	stop_stim
302060.51749707502	1481.48250292	n/a	971	71	2750	1481.48250292	stim	stop-signal	135	388818	0.0-9.16-1.16	beast_fmri_test	328	386374,/,387053,/,387734,/,388415,/,389094,/,389772,/	t,t,t,t,t,t	<img class = center src='/static/experiments/beast_fmri_test/images/T.png'></img>	71,89	2750.0	test	<img class = center src='/static/experiments/beast_fmri_test/images/redT.png'></img>	stop	2100.0	2.0	16.0	stop	target	T	71,Index Finger	89,Middle Finger	650.0	750.0	2100.0	2000.0	0.0	650.0	n/a	0.0	ITI
305546	500.0	n/a	-1	-1	500	0.0	fixation	poldrack-single-stim	136	390822	0.0-9.17-0.17	beast_fmri_test	328	390453,/	t	<div class = centerbox2><div class = fixation>+</div></div>	none	500.0	test	n/a	n/a	n/a	n/a	n/a	n/a	n/a	n/a	n/a	n/a	n/a	n/a	n/a	n/a	n/a	n/a	n/a	n/a	fixation
305342.80874192138	2750.0	n/a	1247	89	2750	205.191258079	stim	stop-signal	137	393574	0.0-9.17-1.17	beast_fmri_test	328	391133,/,391813,/,392491,/,393172,/	t,t,t,t	<img class = center src='/static/experiments/beast_fmri_test/images/V.png'></img>	71,89	2750.0	test	<img class = center src='/static/experiments/beast_fmri_test/images/redV.png'></img>	go	2000.0	2.0	17.0	go	non-target	V	71,Index Finger	89,Middle Finger	600.0	750.0	2100.0	2000.0	1.0	750.0	1.0	n/a	go_stim
308092.80874192138	205.191258079	n/a	1247	89	2750	205.191258079	stim	stop-signal	137	393574	0.0-9.17-1.17	beast_fmri_test	328	391133,/,391813,/,392491,/,393172,/	t,t,t,t	<img class = center src='/static/experiments/beast_fmri_test/images/V.png'></img>	71,89	2750.0	test	<img class = center src='/static/experiments/beast_fmri_test/images/redV.png'></img>	go	2000.0	2.0	17.0	go	non-target	V	71,Index Finger	89,Middle Finger	600.0	750.0	2100.0	2000.0	1.0	750.0	1.0	n/a	ITI
309029	500.0	n/a	-1	-1	500	0.0	fixation	poldrack-single-stim	138	394305	0.0-9.18-0.18	beast_fmri_test	328	393850,/	t	<div class = centerbox2><div class = fixation>+</div></div>	none	500.0	test	n/a	n/a	n/a	n/a	n/a	n/a	n/a	n/a	n/a	n/a	n/a	n/a	n/a	n/a	n/a	n/a	n/a	n/a	fixation
308477.6290187086	2750.0	n/a	1128	89	2750	552.370981291	stim	stop-signal	139	397056	0.0-9.18-1.18	beast_fmri_test	328	394532,/,395210,/,395890,/,396571,/,397249,/	t,t,t,t,t	<img class = center src='/static/experiments/beast_fmri_test/images/D.png'></img>	71,89	2750.0	test	<img class = center src='/static/experiments/beast_fmri_test/images/redD.png'></img>	go	2000.0	2.0	18.0	go	non-target	D	71,Index Finger	89,Middle Finger	600.0	750.0	2100.0	2000.0	1.0	750.0	1.0	n/a	go_stim
311227.6290187086	552.370981291	n/a	1128	89	2750	552.370981291	stim	stop-signal	139	397056	0.0-9.18-1.18	beast_fmri_test	328	394532,/,395210,/,395890,/,396571,/,397249,/	t,t,t,t,t	<img class = center src='/static/experiments/beast_fmri_test/images/D.png'></img>	71,89	2750.0	test	<img class = center src='/static/experiments/beast_fmri_test/images/redD.png'></img>	go	2000.0	2.0	18.0	go	non-target	D	71,Index Finger	89,Middle Finger	600.0	750.0	2100.0	2000.0	1.0	750.0	1.0	n/a	ITI
312856	500.0	n/a	-1	-1	500	0.0	fixation	poldrack-single-stim	140	398132	0.0-9.19-0.19	beast_fmri_test	328	397929,/	t	<div class = centerbox2><div class = fixation>+</div></div>	none	500.0	test	n/a	n/a	n/a	n/a	n/a	n/a	n/a	n/a	n/a	n/a	n/a	n/a	n/a	n/a	n/a	n/a	n/a	n/a	fixation
312513.40502210532	2750.0	n/a	934	89	2750	343.594977895	stim	stop-signal	141	400883	0.0-9.19-1.19	beast_fmri_test	328	398608,/,399289,/,399968,/,400649,/	t,t,t,t	<img class = center src='/static/experiments/beast_fmri_test/images/P.png'></img>	71,89	2750.0	test	<img class = center src='/static/experiments/beast_fmri_test/images/redP.png'></img>	go	2000.0	2.0	19.0	go	non-target	P	71,Index Finger	89,Middle Finger	600.0	750.0	2100.0	2000.0	1.0	750.0	1.0	n/a	go_stim
315263.40502210532	343.594977895	n/a	934	89	2750	343.594977895	stim	stop-signal	141	400883	0.0-9.19-1.19	beast_fmri_test	328	398608,/,399289,/,399968,/,400649,/	t,t,t,t	<img class = center src='/static/experiments/beast_fmri_test/images/P.png'></img>	71,89	2750.0	test	<img class = center src='/static/experiments/beast_fmri_test/images/redP.png'></img>	go	2000.0	2.0	19.0	go	non-target	P	71,Index Finger	89,Middle Finger	600.0	750.0	2100.0	2000.0	1.0	750.0	1.0	n/a	ITI
316473	500.0	n/a	-1	-1	500	0.0	fixation	poldrack-single-stim	142	401749	0.0-9.20-0.20	beast_fmri_test	328	401329,/	t	<div class = centerbox2><div class = fixation>+</div></div>	none	500.0	test	n/a	n/a	n/a	n/a	n/a	n/a	n/a	n/a	n/a	n/a	n/a	n/a	n/a	n/a	n/a	n/a	n/a	n/a	fixation
315918.47566004528	2750.0	n/a	1168	89	2750	556.524339955	stim	stop-signal	143	404501	0.0-9.20-1.20	beast_fmri_test	328	402008,/,402688,/,403368,/,404047,/,404727,/	t,t,t,t,t	<img class = center src='/static/experiments/beast_fmri_test/images/V.png'></img>	71,89	2750.0	test	<img class = center src='/static/experiments/beast_fmri_test/images/redV.png'></img>	go	2000.0	2.0	20.0	go	non-target	V	71,Index Finger	89,Middle Finger	600.0	750.0	2100.0	2000.0	1.0	750.0	1.0	n/a	go_stim
318668.47566004528	556.524339955	n/a	1168	89	2750	556.524339955	stim	stop-signal	143	404501	0.0-9.20-1.20	beast_fmri_test	328	402008,/,402688,/,403368,/,404047,/,404727,/	t,t,t,t,t	<img class = center src='/static/experiments/beast_fmri_test/images/V.png'></img>	71,89	2750.0	test	<img class = center src='/static/experiments/beast_fmri_test/images/redV.png'></img>	go	2000.0	2.0	20.0	go	non-target	V	71,Index Finger	89,Middle Finger	600.0	750.0	2100.0	2000.0	1.0	750.0	1.0	n/a	ITI
320306	500.0	n/a	-1	-1	500	0.0	fixation	poldrack-single-stim	144	405582	0.0-9.21-0.21	beast_fmri_test	328	405407,/	t	<div class = centerbox2><div class = fixation>+</div></div>	none	500.0	test	n/a	n/a	n/a	n/a	n/a	n/a	n/a	n/a	n/a	n/a	n/a	n/a	n/a	n/a	n/a	n/a	n/a	n/a	fixation
317539.88082874788	750.0	n/a	808	89	2750	2767.11917125	stim	stop-signal	145	408333	0.0-9.21-1.21	beast_fmri_test	328	406086,/,406766,/,407446,/,408125,/,408805,/,409485,/,410165,/,410843,/	t,t,t,t,t,t,t,t	<img class = center src='/static/experiments/beast_fmri_test/images/B.png'></img>	71,89	2750.0	test	<img class = center src='/static/experiments/beast_fmri_test/images/redB.png'></img>	stop	2000.0	2.0	21.0	stop	non-target	B	71,Index Finger	89,Middle Finger	600.0	750.0	2100.0	2000.0	0.0	750.0	n/a	0.0	go_stim
319539.88082874788	2000.0	n/a	808	89	2750	2767.11917125	stim	stop-signal	145	408333	0.0-9.21-1.21	beast_fmri_test	328	406086,/,406766,/,407446,/,408125,/,408805,/,409485,/,410165,/,410843,/	t,t,t,t,t,t,t,t	<img class = center src='/static/experiments/beast_fmri_test/images/B.png'></img>	71,89	2750.0	test	<img class = center src='/static/experiments/beast_fmri_test/images/redB.png'></img>	stop	2000.0	2.0	21.0	stop	non-target	B	71,Index Finger	89,Middle Finger	600.0	750.0	2100.0	2000.0	0.0	750.0	n/a	0.0	stop_stim
320289.88082874788	2767.11917125	n/a	808	89	2750	2767.11917125	stim	stop-signal	145	408333	0.0-9.21-1.21	beast_fmri_test	328	406086,/,406766,/,407446,/,408125,/,408805,/,409485,/,410165,/,410843,/	t,t,t,t,t,t,t,t	<img class = center src='/static/experiments/beast_fmri_test/images/B.png'></img>	71,89	2750.0	test	<img class = center src='/static/experiments/beast_fmri_test/images/redB.png'></img>	stop	2000.0	2.0	21.0	stop	non-target	B	71,Index Finger	89,Middle Finger	600.0	750.0	2100.0	2000.0	0.0	750.0	n/a	0.0	ITI
326346	500.0	n/a	-1	-1	500	0.0	fixation	poldrack-single-stim	146	411622	0.0-9.22-0.22	beast_fmri_test	328	411524,/	t	<div class = centerbox2><div class = fixation>+</div></div>	none	500.0	test	n/a	n/a	n/a	n/a	n/a	n/a	n/a	n/a	n/a	n/a	n/a	n/a	n/a	n/a	n/a	n/a	n/a	n/a	fixation
326058.75412653445	2750.0	n/a	778	89	2750	289.245873466	stim	stop-signal	147	414374	0.0-9.22-1.22	beast_fmri_test	328	412204,/,412883,/,413563,/,414242,/	t,t,t,t	<img class = center src='/static/experiments/beast_fmri_test/images/T.png'></img>	71,89	2750.0	test	<img class = center src='/static/experiments/beast_fmri_test/images/redT.png'></img>	go	2050.0	2.0	22.0	go	non-target	T	71,Index Finger	89,Middle Finger	600.0	700.0	2100.0	2050.0	1.0	700.0	1.0	n/a	go_stim
328808.75412653445	289.245873466	n/a	778	89	2750	289.245873466	stim	stop-signal	147	414374	0.0-9.22-1.22	beast_fmri_test	328	412204,/,412883,/,413563,/,414242,/	t,t,t,t	<img class = center src='/static/experiments/beast_fmri_test/images/T.png'></img>	71,89	2750.0	test	<img class = center src='/static/experiments/beast_fmri_test/images/redT.png'></img>	go	2050.0	2.0	22.0	go	non-target	T	71,Index Finger	89,Middle Finger	600.0	700.0	2100.0	2050.0	1.0	700.0	1.0	n/a	ITI
329909	500.0	n/a	-1	-1	500	0.0	fixation	poldrack-single-stim	148	415185	0.0-9.23-0.23	beast_fmri_test	328	414923,/	t	<div class = centerbox2><div class = fixation>+</div></div>	none	500.0	test	n/a	n/a	n/a	n/a	n/a	n/a	n/a	n/a	n/a	n/a	n/a	n/a	n/a	n/a	n/a	n/a	n/a	n/a	fixation
328883.60042110673	2750.0	n/a	1221	71	2750	1027.39957889	stim	stop-signal	149	417937	0.0-9.23-1.23	beast_fmri_test	328	415600,/,416282,/,416961,/,417640,/,418319,/	t,t,t,t,t	<img class = center src='/static/experiments/beast_fmri_test/images/B.png'></img>	71,89	2750.0	test	<img class = center src='/static/experiments/beast_fmri_test/images/redB.png'></img>	go	2150.0	2.0	23.0	go	target	B	71,Index Finger	89,Middle Finger	600.0	700.0	2150.0	2050.0	1.0	600.0	1.0	n/a	go_stim
