onset	duration	text	rt	key_press	block_duration	timing_post_trial	trial_id	trial_type	trial_index	time_elapsed	internal_node_id	exp_id	subject_id	trigger_times	triggers	stimulus	possible_responses	stim_duration	exp_stage	SS_stimulus	SS_trial_type	SS_duration	load	trial_num	stop_trial_type	adaptive_trial_type	stim	yes_response_key	no_response_key	SSD_target	SSD_non_target	SSTarget	SSNonTarget	go_acc	SS_delay	adaptive_acc	stop_acc	new_trial_type
test	103445	"<div class = ""centerbox""><p class = ""center-block-text"">Great job!  Please keep your head still while the machine finishes scanning.</p></div>"	103445	77	103445	1000.0	start_test_text	poldrack-text	195	558163	0.0-7.0	beast_fmri_test	303	8.40855	t	n/a	n/a	n/a	n/a	n/a	n/a	n/a	n/a	n/a	n/a	n/a	n/a	n/a	n/a	n/a	n/a	n/a	n/a	n/a	n/a	n/a	n/a	start_functional_block
66494.0	11842	"<div class = ""centerbox""><p class = ""center-block-text"">Your delay is 2 trials.</p><p class = center-block-text>Please wait for the scanner to start the block</p></div>"	11842	84	11842	1000.0	start_test_text	poldrack-text	196	571007	0.0-8.0	beast_fmri_test	303	9.516783333333333,9.5281	t,t	n/a	n/a	n/a	n/a	n/a	n/a	n/a	n/a	n/a	n/a	n/a	n/a	n/a	n/a	n/a	n/a	n/a	n/a	n/a	n/a	n/a	n/a	start_test_text
67999.0	500	n/a	-1	-1	500	0.0	fixation	poldrack-single-stim	197	572512	0.0-9.0-0.0	beast_fmri_test	303	9.539416666666666	t	<div class = centerbox><div class = fixation>+</div></div>	none	500.0	test	n/a	n/a	n/a	n/a	n/a	n/a	n/a	n/a	n/a	n/a	n/a	n/a	n/a	n/a	n/a	n/a	n/a	n/a	fixation
67902.564681930467	2750	n/a	970	89	2750	98.4353180696	stim	stop-signal	198	575264	0.0-9.0-1.0	beast_fmri_test	303	9.55075,9.562066666666666,9.5734,9.584733333333334	t,t,t,t	<img class = center src='/static/experiments/beast_fmri_test/images/P.png'></img>	71,89	2750.0	test	<img class = center src='/static/experiments/beast_fmri_test/images/redP.png'></img>	go	-1.0	2.0	0.0	go	temp-non-target	P	71,Green Button	89,Yellow Button	1000.0	1300.0	1750.0	1450.0	0.0	n/a	n/a	n/a	go_stim
70652.564681930467	98.435318069552636	n/a	970	89	2750	98.4353180696	stim	stop-signal	198	575264	0.0-9.0-1.0	beast_fmri_test	303	9.55075,9.562066666666666,9.5734,9.584733333333334	t,t,t,t	<img class = center src='/static/experiments/beast_fmri_test/images/P.png'></img>	71,89	2750.0	test	<img class = center src='/static/experiments/beast_fmri_test/images/redP.png'></img>	go	-1.0	2.0	0.0	go	temp-non-target	P	71,Green Button	89,Yellow Button	1000.0	1300.0	1750.0	1450.0	0.0	n/a	n/a	n/a	ITI
71372.0	500	n/a	-1	-1	500	0.0	fixation	poldrack-single-stim	199	575885	0.0-9.1-0.1	beast_fmri_test	303	9.596066666666667	t	<div class = centerbox><div class = fixation>+</div></div>	none	500.0	test	n/a	n/a	n/a	n/a	n/a	n/a	n/a	n/a	n/a	n/a	n/a	n/a	n/a	n/a	n/a	n/a	n/a	n/a	fixation
70005.325785189169	2750	n/a	1036	89	2750	1367.67421481	stim	stop-signal	200	578636	0.0-9.1-1.1	beast_fmri_test	303	9.6074,9.618733333333333,9.63005,9.641366666666666,9.6527,9.664033333333334	t,t,t,t,t,t	<img class = center src='/static/experiments/beast_fmri_test/images/B.png'></img>	71,89	2750.0	test	<img class = center src='/static/experiments/beast_fmri_test/images/redB.png'></img>	go	-1.0	2.0	1.0	go	temp-non-target	B	71,Green Button	89,Yellow Button	1000.0	1300.0	1750.0	1450.0	0.0	n/a	n/a	n/a	go_stim
72755.325785189169	1367.6742148108433	n/a	1036	89	2750	1367.67421481	stim	stop-signal	200	578636	0.0-9.1-1.1	beast_fmri_test	303	9.6074,9.618733333333333,9.63005,9.641366666666666,9.6527,9.664033333333334	t,t,t,t,t,t	<img class = center src='/static/experiments/beast_fmri_test/images/B.png'></img>	71,89	2750.0	test	<img class = center src='/static/experiments/beast_fmri_test/images/redB.png'></img>	go	-1.0	2.0	1.0	go	temp-non-target	B	71,Green Button	89,Yellow Button	1000.0	1300.0	1750.0	1450.0	0.0	n/a	n/a	n/a	ITI
76009.0	500	n/a	-1	-1	500	0.0	fixation	poldrack-single-stim	201	580522	0.0-9.2-0.2	beast_fmri_test	303	9.67535	t	<div class = centerbox><div class = fixation>+</div></div>	none	500.0	test	n/a	n/a	n/a	n/a	n/a	n/a	n/a	n/a	n/a	n/a	n/a	n/a	n/a	n/a	n/a	n/a	n/a	n/a	fixation
74463.498774878564	2750	n/a	994	89	2750	1547.50122512	stim	stop-signal	202	583274	0.0-9.2-1.2	beast_fmri_test	303	9.6867,9.698016666666666,9.70935,9.720666666666666,9.732016666666667,9.743333333333334	t,t,t,t,t,t	<img class = center src='/static/experiments/beast_fmri_test/images/D.png'></img>	71,89	2750.0	test	<img class = center src='/static/experiments/beast_fmri_test/images/redD.png'></img>	go	1450.0	2.0	2.0	go	non-target	D	71,Green Button	89,Yellow Button	1000.0	1300.0	1750.0	1450.0	1.0	1300.0	1.0	n/a	go_stim
77213.498774878564	1547.5012251214155	n/a	994	89	2750	1547.50122512	stim	stop-signal	202	583274	0.0-9.2-1.2	beast_fmri_test	303	9.6867,9.698016666666666,9.70935,9.720666666666666,9.732016666666667,9.743333333333334	t,t,t,t,t,t	<img class = center src='/static/experiments/beast_fmri_test/images/D.png'></img>	71,89	2750.0	test	<img class = center src='/static/experiments/beast_fmri_test/images/redD.png'></img>	go	1450.0	2.0	2.0	go	non-target	D	71,Green Button	89,Yellow Button	1000.0	1300.0	1750.0	1450.0	1.0	1300.0	1.0	n/a	ITI
80828.0	500	n/a	-1	-1	500	0.0	fixation	poldrack-single-stim	203	585341	0.0-9.3-0.3	beast_fmri_test	303	9.754666666666667	t	<div class = centerbox><div class = fixation>+</div></div>	none	500.0	test	n/a	n/a	n/a	n/a	n/a	n/a	n/a	n/a	n/a	n/a	n/a	n/a	n/a	n/a	n/a	n/a	n/a	n/a	fixation
79490.73052739806	2750	n/a	1143	71	2750	1339.2694726	stim	stop-signal	204	588093	0.0-9.3-1.3	beast_fmri_test	303	9.766,9.777316666666668,9.78865,9.799983333333333,9.811316666666666,9.822616666666667	t,t,t,t,t,t	<img class = center src='/static/experiments/beast_fmri_test/images/B.png'></img>	71,89	2750.0	test	<img class = center src='/static/experiments/beast_fmri_test/images/redB.png'></img>	go	1750.0	2.0	3.0	go	target	B	71,Green Button	89,Yellow Button	1000.0	1300.0	1750.0	1450.0	1.0	1000.0	1.0	n/a	go_stim
82240.73052739806	1339.2694726019035	n/a	1143	71	2750	1339.2694726	stim	stop-signal	204	588093	0.0-9.3-1.3	beast_fmri_test	303	9.766,9.777316666666668,9.78865,9.799983333333333,9.811316666666666,9.822616666666667	t,t,t,t,t,t	<img class = center src='/static/experiments/beast_fmri_test/images/B.png'></img>	71,89	2750.0	test	<img class = center src='/static/experiments/beast_fmri_test/images/redB.png'></img>	go	1750.0	2.0	3.0	go	target	B	71,Green Button	89,Yellow Button	1000.0	1300.0	1750.0	1450.0	1.0	1000.0	1.0	n/a	ITI
85439.0	500	n/a	-1	-1	500	0.0	fixation	poldrack-single-stim	205	589952	0.0-9.4-0.4	beast_fmri_test	303	n/a	n/a	<div class = centerbox><div class = fixation>+</div></div>	none	500.0	test	n/a	n/a	n/a	n/a	n/a	n/a	n/a	n/a	n/a	n/a	n/a	n/a	n/a	n/a	n/a	n/a	n/a	n/a	fixation
81980.372292232467	2750	n/a	1400	89	2750	3459.62770777	stim	stop-signal	206	592703	0.0-9.4-1.4	beast_fmri_test	303	9.83395,9.845283333333333,9.856616666666667,9.867933333333333,9.87925,9.8906,9.901916666666667,9.91325,9.924583333333333,9.9359	t,t,t,t,t,t,t,t,t,t	<img class = center src='/static/experiments/beast_fmri_test/images/T.png'></img>	71,89	2750.0	test	<img class = center src='/static/experiments/beast_fmri_test/images/redT.png'></img>	go	1450.0	2.0	4.0	go	non-target	T	71,Green Button	89,Yellow Button	1000.0	1300.0	1750.0	1450.0	1.0	1300.0	1.0	n/a	go_stim
84730.372292232467	3459.6277077675823	n/a	1400	89	2750	3459.62770777	stim	stop-signal	206	592703	0.0-9.4-1.4	beast_fmri_test	303	9.83395,9.845283333333333,9.856616666666667,9.867933333333333,9.87925,9.8906,9.901916666666667,9.91325,9.924583333333333,9.9359	t,t,t,t,t,t,t,t,t,t	<img class = center src='/static/experiments/beast_fmri_test/images/T.png'></img>	71,89	2750.0	test	<img class = center src='/static/experiments/beast_fmri_test/images/redT.png'></img>	go	1450.0	2.0	4.0	go	non-target	T	71,Green Button	89,Yellow Button	1000.0	1300.0	1750.0	1450.0	1.0	1300.0	1.0	n/a	ITI
92172.0	500	n/a	-1	-1	500	0.0	fixation	poldrack-single-stim	207	596685	0.0-9.5-0.5	beast_fmri_test	303	n/a	n/a	<div class = centerbox><div class = fixation>+</div></div>	none	500.0	test	n/a	n/a	n/a	n/a	n/a	n/a	n/a	n/a	n/a	n/a	n/a	n/a	n/a	n/a	n/a	n/a	n/a	n/a	fixation
92102.34641315788	2750	n/a	1390	89	2750	71.6535868421	stim	stop-signal	208	599437	0.0-9.5-1.5	beast_fmri_test	303	9.947233333333333,9.958566666666666,9.969883333333334,9.981216666666667	t,t,t,t	<img class = center src='/static/experiments/beast_fmri_test/images/V.png'></img>	71,89	2750.0	test	<img class = center src='/static/experiments/beast_fmri_test/images/redV.png'></img>	go	1450.0	2.0	5.0	go	non-target	V	71,Green Button	89,Yellow Button	1000.0	1300.0	1750.0	1450.0	1.0	1300.0	1.0	n/a	go_stim
94852.34641315788	71.653586842135653	n/a	1390	89	2750	71.6535868421	stim	stop-signal	208	599437	0.0-9.5-1.5	beast_fmri_test	303	9.947233333333333,9.958566666666666,9.969883333333334,9.981216666666667	t,t,t,t	<img class = center src='/static/experiments/beast_fmri_test/images/V.png'></img>	71,89	2750.0	test	<img class = center src='/static/experiments/beast_fmri_test/images/redV.png'></img>	go	1450.0	2.0	5.0	go	non-target	V	71,Green Button	89,Yellow Button	1000.0	1300.0	1750.0	1450.0	1.0	1300.0	1.0	n/a	ITI
95519.0	500	n/a	-1	-1	500	0.0	fixation	poldrack-single-stim	209	600032	0.0-9.6-0.6	beast_fmri_test	303	9.99255	t	<div class = centerbox><div class = fixation>+</div></div>	none	500.0	test	n/a	n/a	n/a	n/a	n/a	n/a	n/a	n/a	n/a	n/a	n/a	n/a	n/a	n/a	n/a	n/a	n/a	n/a	fixation
94615.145403360482	1000.0	n/a	-1	-1	2750	905.854596639	stim	stop-signal	210	602784	0.0-9.6-1.6	beast_fmri_test	303	10.003866666666667,10.0152,10.026516666666666,10.03785,10.0492,10.060516666666667	t,t,t,t,t,t	<img class = center src='/static/experiments/beast_fmri_test/images/T.png'></img>	71,89	2750.0	test	<img class = center src='/static/experiments/beast_fmri_test/images/redT.png'></img>	stop	1750.0	2.0	6.0	stop	target	T	71,Green Button	89,Yellow Button	1000.0	1300.0	1750.0	1450.0	0.0	1000.0	0.0	1.0	go_stim
96365.145403360482	1750.0	n/a	-1	-1	2750	905.854596639	stim	stop-signal	210	602784	0.0-9.6-1.6	beast_fmri_test	303	10.003866666666667,10.0152,10.026516666666666,10.03785,10.0492,10.060516666666667	t,t,t,t,t,t	<img class = center src='/static/experiments/beast_fmri_test/images/T.png'></img>	71,89	2750.0	test	<img class = center src='/static/experiments/beast_fmri_test/images/redT.png'></img>	stop	1750.0	2.0	6.0	stop	target	T	71,Green Button	89,Yellow Button	1000.0	1300.0	1750.0	1450.0	0.0	1000.0	0.0	1.0	stop_stim
97365.145403360482	905.85459663948666	n/a	-1	-1	2750	905.854596639	stim	stop-signal	210	602784	0.0-9.6-1.6	beast_fmri_test	303	10.003866666666667,10.0152,10.026516666666666,10.03785,10.0492,10.060516666666667	t,t,t,t,t,t	<img class = center src='/static/experiments/beast_fmri_test/images/T.png'></img>	71,89	2750.0	test	<img class = center src='/static/experiments/beast_fmri_test/images/redT.png'></img>	stop	1750.0	2.0	6.0	stop	target	T	71,Green Button	89,Yellow Button	1000.0	1300.0	1750.0	1450.0	0.0	1000.0	0.0	1.0	ITI
99698.0	500	n/a	-1	-1	500	0.0	fixation	poldrack-single-stim	211	604211	0.0-9.7-0.7	beast_fmri_test	303	n/a	n/a	<div class = centerbox><div class = fixation>+</div></div>	none	500.0	test	n/a	n/a	n/a	n/a	n/a	n/a	n/a	n/a	n/a	n/a	n/a	n/a	n/a	n/a	n/a	n/a	n/a	n/a	fixation
99689.424725869671	1300.0	n/a	1233	89	2750	11.5752741303	stim	stop-signal	212	606964	0.0-9.7-1.7	beast_fmri_test	303	10.07185,10.083183333333332,10.094483333333333,10.105816666666666	t,t,t,t	<img class = center src='/static/experiments/beast_fmri_test/images/B.png'></img>	71,89	2750.0	test	<img class = center src='/static/experiments/beast_fmri_test/images/redB.png'></img>	stop	1450.0	2.0	7.0	stop	non-target	B	71,Green Button	89,Yellow Button	1050.0	1300.0	1750.0	1450.0	0.0	1300.0	1.0	0.0	go_stim
101139.42472586967	1450.0	n/a	1233	89	2750	11.5752741303	stim	stop-signal	212	606964	0.0-9.7-1.7	beast_fmri_test	303	10.07185,10.083183333333332,10.094483333333333,10.105816666666666	t,t,t,t	<img class = center src='/static/experiments/beast_fmri_test/images/B.png'></img>	71,89	2750.0	test	<img class = center src='/static/experiments/beast_fmri_test/images/redB.png'></img>	stop	1450.0	2.0	7.0	stop	non-target	B	71,Green Button	89,Yellow Button	1050.0	1300.0	1750.0	1450.0	0.0	1300.0	1.0	0.0	stop_stim
102439.42472586967	11.575274130283999	n/a	1233	89	2750	11.5752741303	stim	stop-signal	212	606964	0.0-9.7-1.7	beast_fmri_test	303	10.07185,10.083183333333332,10.094483333333333,10.105816666666666	t,t,t,t	<img class = center src='/static/experiments/beast_fmri_test/images/B.png'></img>	71,89	2750.0	test	<img class = center src='/static/experiments/beast_fmri_test/images/redB.png'></img>	stop	1450.0	2.0	7.0	stop	non-target	B	71,Green Button	89,Yellow Button	1050.0	1300.0	1750.0	1450.0	0.0	1300.0	1.0	0.0	ITI
102980.0	500	n/a	-1	-1	500	0.0	fixation	poldrack-single-stim	213	607493	0.0-9.8-0.8	beast_fmri_test	303	10.11715	t	<div class = centerbox><div class = fixation>+</div></div>	none	500.0	test	n/a	n/a	n/a	n/a	n/a	n/a	n/a	n/a	n/a	n/a	n/a	n/a	n/a	n/a	n/a	n/a	n/a	n/a	fixation
102303.38370793615	1050.0	n/a	-1	-1	2750	676.616292064	stim	stop-signal	214	610243	0.0-9.8-1.8	beast_fmri_test	303	10.128483333333334,10.1398,10.15115,10.162466666666667,10.1738	t,t,t,t,t	<img class = center src='/static/experiments/beast_fmri_test/images/T.png'></img>	71,89	2750.0	test	<img class = center src='/static/experiments/beast_fmri_test/images/redT.png'></img>	stop	1700.0	2.0	8.0	stop	target	T	71,Green Button	89,Yellow Button	1050.0	1250.0	1700.0	1450.0	0.0	1050.0	0.0	1.0	go_stim
104003.38370793615	1700.0	n/a	-1	-1	2750	676.616292064	stim	stop-signal	214	610243	0.0-9.8-1.8	beast_fmri_test	303	10.128483333333334,10.1398,10.15115,10.162466666666667,10.1738	t,t,t,t,t	<img class = center src='/static/experiments/beast_fmri_test/images/T.png'></img>	71,89	2750.0	test	<img class = center src='/static/experiments/beast_fmri_test/images/redT.png'></img>	stop	1700.0	2.0	8.0	stop	target	T	71,Green Button	89,Yellow Button	1050.0	1250.0	1700.0	1450.0	0.0	1050.0	0.0	1.0	stop_stim
105053.38370793615	676.61629206381849	n/a	-1	-1	2750	676.616292064	stim	stop-signal	214	610243	0.0-9.8-1.8	beast_fmri_test	303	10.128483333333334,10.1398,10.15115,10.162466666666667,10.1738	t,t,t,t,t	<img class = center src='/static/experiments/beast_fmri_test/images/T.png'></img>	71,89	2750.0	test	<img class = center src='/static/experiments/beast_fmri_test/images/redT.png'></img>	stop	1700.0	2.0	8.0	stop	target	T	71,Green Button	89,Yellow Button	1050.0	1250.0	1700.0	1450.0	0.0	1050.0	0.0	1.0	ITI
106931.0	500	n/a	-1	-1	500	0.0	fixation	poldrack-single-stim	215	611444	0.0-9.9-0.9	beast_fmri_test	303	10.185133333333333	t	<div class = centerbox><div class = fixation>+</div></div>	none	500.0	test	n/a	n/a	n/a	n/a	n/a	n/a	n/a	n/a	n/a	n/a	n/a	n/a	n/a	n/a	n/a	n/a	n/a	n/a	fixation
106208.94883685606	2750	n/a	1288	71	2750	723.051163144	stim	stop-signal	216	614195	0.0-9.9-1.9	beast_fmri_test	303	10.196466666666666,10.207783333333333,10.219116666666666,10.23045,10.241766666666667	t,t,t,t,t	<img class = center src='/static/experiments/beast_fmri_test/images/B.png'></img>	71,89	2750.0	test	<img class = center src='/static/experiments/beast_fmri_test/images/redB.png'></img>	go	1650.0	2.0	9.0	go	target	B	71,Green Button	89,Yellow Button	1100.0	1250.0	1650.0	1450.0	1.0	1100.0	1.0	n/a	go_stim
108958.94883685606	723.05116314395218	n/a	1288	71	2750	723.051163144	stim	stop-signal	216	614195	0.0-9.9-1.9	beast_fmri_test	303	10.196466666666666,10.207783333333333,10.219116666666666,10.23045,10.241766666666667	t,t,t,t,t	<img class = center src='/static/experiments/beast_fmri_test/images/B.png'></img>	71,89	2750.0	test	<img class = center src='/static/experiments/beast_fmri_test/images/redB.png'></img>	go	1650.0	2.0	9.0	go	target	B	71,Green Button	89,Yellow Button	1100.0	1250.0	1650.0	1450.0	1.0	1100.0	1.0	n/a	ITI
110930.0	500	n/a	-1	-1	500	0.0	fixation	poldrack-single-stim	217	615443	0.0-9.10-0.10	beast_fmri_test	303	10.253083333333333	t	<div class = centerbox><div class = fixation>+</div></div>	none	500.0	test	n/a	n/a	n/a	n/a	n/a	n/a	n/a	n/a	n/a	n/a	n/a	n/a	n/a	n/a	n/a	n/a	n/a	n/a	fixation
109658.88521258382	2750	n/a	1379	89	2750	1273.11478742	stim	stop-signal	218	618195	0.0-9.10-1.10	beast_fmri_test	303	10.264433333333333,10.275766666666666,10.287083333333333,10.298416666666666,10.30975,10.32105	t,t,t,t,t,t	<img class = center src='/static/experiments/beast_fmri_test/images/D.png'></img>	71,89	2750.0	test	<img class = center src='/static/experiments/beast_fmri_test/images/redD.png'></img>	go	1500.0	2.0	10.0	go	non-target	D	71,Green Button	89,Yellow Button	1100.0	1250.0	1650.0	1500.0	1.0	1250.0	1.0	n/a	go_stim
112408.88521258382	1273.1147874161913	n/a	1379	89	2750	1273.11478742	stim	stop-signal	218	618195	0.0-9.10-1.10	beast_fmri_test	303	10.264433333333333,10.275766666666666,10.287083333333333,10.298416666666666,10.30975,10.32105	t,t,t,t,t,t	<img class = center src='/static/experiments/beast_fmri_test/images/D.png'></img>	71,89	2750.0	test	<img class = center src='/static/experiments/beast_fmri_test/images/redD.png'></img>	go	1500.0	2.0	10.0	go	non-target	D	71,Green Button	89,Yellow Button	1100.0	1250.0	1650.0	1500.0	1.0	1250.0	1.0	n/a	ITI
115480.0	500	n/a	-1	-1	500	0.0	fixation	poldrack-single-stim	219	619993	0.0-9.11-0.11	beast_fmri_test	303	10.332383333333333	t	<div class = centerbox><div class = fixation>+</div></div>	none	500.0	test	n/a	n/a	n/a	n/a	n/a	n/a	n/a	n/a	n/a	n/a	n/a	n/a	n/a	n/a	n/a	n/a	n/a	n/a	fixation
114333.37337559485	2750	n/a	1924	71	2750	1148.62662441	stim	stop-signal	220	622745	0.0-9.11-1.11	beast_fmri_test	303	10.343716666666667,10.35505,10.366366666666666,10.3777,10.389033333333334	t,t,t,t,t	<img class = center src='/static/experiments/beast_fmri_test/images/T.png'></img>	71,89	2750.0	test	<img class = center src='/static/experiments/beast_fmri_test/images/redT.png'></img>	go	1500.0	2.0	11.0	go	non-target	T	71,Green Button	89,Yellow Button	1100.0	1250.0	1650.0	1500.0	0.0	1250.0	0.0	n/a	go_stim
117083.37337559485	1148.6266244051685	n/a	1924	71	2750	1148.62662441	stim	stop-signal	220	622745	0.0-9.11-1.11	beast_fmri_test	303	10.343716666666667,10.35505,10.366366666666666,10.3777,10.389033333333334	t,t,t,t,t	<img class = center src='/static/experiments/beast_fmri_test/images/T.png'></img>	71,89	2750.0	test	<img class = center src='/static/experiments/beast_fmri_test/images/redT.png'></img>	go	1500.0	2.0	11.0	go	non-target	T	71,Green Button	89,Yellow Button	1100.0	1250.0	1650.0	1500.0	0.0	1250.0	0.0	n/a	ITI
119904.0	500	n/a	-1	-1	500	0.0	fixation	poldrack-single-stim	221	624417	0.0-9.12-0.12	beast_fmri_test	303	10.400366666666667	t	<div class = centerbox><div class = fixation>+</div></div>	none	500.0	test	n/a	n/a	n/a	n/a	n/a	n/a	n/a	n/a	n/a	n/a	n/a	n/a	n/a	n/a	n/a	n/a	n/a	n/a	fixation
119700.81490569853	2750	n/a	1652	71	2750	204.185094302	stim	stop-signal	222	627168	0.0-9.12-1.12	beast_fmri_test	303	10.411683333333333,10.423016666666667,10.43435,10.445666666666666	t,t,t,t	<img class = center src='/static/experiments/beast_fmri_test/images/D.png'></img>	71,89	2750.0	test	<img class = center src='/static/experiments/beast_fmri_test/images/redD.png'></img>	go	1650.0	2.0	12.0	go	target	D	71,Green Button	89,Yellow Button	1100.0	1250.0	1650.0	1500.0	1.0	1100.0	1.0	n/a	go_stim
122450.81490569853	204.18509430152062	n/a	1652	71	2750	204.185094302	stim	stop-signal	222	627168	0.0-9.12-1.12	beast_fmri_test	303	10.411683333333333,10.423016666666667,10.43435,10.445666666666666	t,t,t,t	<img class = center src='/static/experiments/beast_fmri_test/images/D.png'></img>	71,89	2750.0	test	<img class = center src='/static/experiments/beast_fmri_test/images/redD.png'></img>	go	1650.0	2.0	12.0	go	target	D	71,Green Button	89,Yellow Button	1100.0	1250.0	1650.0	1500.0	1.0	1100.0	1.0	n/a	ITI
123383.0	500	n/a	-1	-1	500	0.0	fixation	poldrack-single-stim	223	627896	0.0-9.13-0.13	beast_fmri_test	303	10.457	t	<div class = centerbox><div class = fixation>+</div></div>	none	500.0	test	n/a	n/a	n/a	n/a	n/a	n/a	n/a	n/a	n/a	n/a	n/a	n/a	n/a	n/a	n/a	n/a	n/a	n/a	fixation
120902.95096707891	2750	n/a	2000	71	2750	2482.04903292	stim	stop-signal	224	630648	0.0-9.13-1.13	beast_fmri_test	303	10.468333333333334,10.47965,10.490983333333334,10.5023,10.513633333333333,10.524966666666666,10.536283333333333,10.547616666666666	t,t,t,t,t,t,t,t	<img class = center src='/static/experiments/beast_fmri_test/images/T.png'></img>	71,89	2750.0	test	<img class = center src='/static/experiments/beast_fmri_test/images/redT.png'></img>	go	1650.0	2.0	13.0	go	target	T	71,Green Button	89,Yellow Button	1100.0	1250.0	1650.0	1500.0	1.0	1100.0	1.0	n/a	go_stim
123652.95096707891	2482.0490329210434	n/a	2000	71	2750	2482.04903292	stim	stop-signal	224	630648	0.0-9.13-1.13	beast_fmri_test	303	10.468333333333334,10.47965,10.490983333333334,10.5023,10.513633333333333,10.524966666666666,10.536283333333333,10.547616666666666	t,t,t,t,t,t,t,t	<img class = center src='/static/experiments/beast_fmri_test/images/T.png'></img>	71,89	2750.0	test	<img class = center src='/static/experiments/beast_fmri_test/images/redT.png'></img>	go	1650.0	2.0	13.0	go	target	T	71,Green Button	89,Yellow Button	1100.0	1250.0	1650.0	1500.0	1.0	1100.0	1.0	n/a	ITI
129141.0	500	n/a	-1	-1	500	0.0	fixation	poldrack-single-stim	225	633654	0.0-9.14-0.14	beast_fmri_test	303	10.55895	t	<div class = centerbox><div class = fixation>+</div></div>	none	500.0	test	n/a	n/a	n/a	n/a	n/a	n/a	n/a	n/a	n/a	n/a	n/a	n/a	n/a	n/a	n/a	n/a	n/a	n/a	fixation
128867.69663183799	1100.0	n/a	-1	-1	2750	275.303368162	stim	stop-signal	226	636406	0.0-9.14-1.14	beast_fmri_test	303	10.570266666666667,10.5816,10.592933333333333,10.604266666666666	t,t,t,t	<img class = center src='/static/experiments/beast_fmri_test/images/D.png'></img>	71,89	2750.0	test	<img class = center src='/static/experiments/beast_fmri_test/images/redD.png'></img>	stop	1650.0	2.0	14.0	stop	target	D	71,Green Button	89,Yellow Button	1100.0	1250.0	1650.0	1500.0	0.0	1100.0	0.0	1.0	go_stim
130517.69663183799	1650.0	n/a	-1	-1	2750	275.303368162	stim	stop-signal	226	636406	0.0-9.14-1.14	beast_fmri_test	303	10.570266666666667,10.5816,10.592933333333333,10.604266666666666	t,t,t,t	<img class = center src='/static/experiments/beast_fmri_test/images/D.png'></img>	71,89	2750.0	test	<img class = center src='/static/experiments/beast_fmri_test/images/redD.png'></img>	stop	1650.0	2.0	14.0	stop	target	D	71,Green Button	89,Yellow Button	1100.0	1250.0	1650.0	1500.0	0.0	1100.0	0.0	1.0	stop_stim
131617.69663183799	275.30336816201145	n/a	-1	-1	2750	275.303368162	stim	stop-signal	226	636406	0.0-9.14-1.14	beast_fmri_test	303	10.570266666666667,10.5816,10.592933333333333,10.604266666666666	t,t,t,t	<img class = center src='/static/experiments/beast_fmri_test/images/D.png'></img>	71,89	2750.0	test	<img class = center src='/static/experiments/beast_fmri_test/images/redD.png'></img>	stop	1650.0	2.0	14.0	stop	target	D	71,Green Button	89,Yellow Button	1100.0	1250.0	1650.0	1500.0	0.0	1100.0	0.0	1.0	ITI
132692.0	500	n/a	-1	-1	500	0.0	fixation	poldrack-single-stim	227	637205	0.0-9.15-0.15	beast_fmri_test	303	10.615583333333333	t	<div class = centerbox><div class = fixation>+</div></div>	none	500.0	test	n/a	n/a	n/a	n/a	n/a	n/a	n/a	n/a	n/a	n/a	n/a	n/a	n/a	n/a	n/a	n/a	n/a	n/a	fixation
130817.18991487403	2750	n/a	1605	89	2750	1877.81008513	stim	stop-signal	228	639958	0.0-9.15-1.15	beast_fmri_test	303	10.626916666666666,10.63825,10.649583333333334,10.6609,10.672233333333333,10.68355,10.694883333333333	t,t,t,t,t,t,t	<img class = center src='/static/experiments/beast_fmri_test/images/V.png'></img>	71,89	2750.0	test	<img class = center src='/static/experiments/beast_fmri_test/images/redV.png'></img>	go	1500.0	2.0	15.0	go	non-target	V	71,Green Button	89,Yellow Button	1150.0	1250.0	1650.0	1500.0	1.0	1250.0	1.0	n/a	go_stim
133567.18991487403	1877.8100851259255	n/a	1605	89	2750	1877.81008513	stim	stop-signal	228	639958	0.0-9.15-1.15	beast_fmri_test	303	10.626916666666666,10.63825,10.649583333333334,10.6609,10.672233333333333,10.68355,10.694883333333333	t,t,t,t,t,t,t	<img class = center src='/static/experiments/beast_fmri_test/images/V.png'></img>	71,89	2750.0	test	<img class = center src='/static/experiments/beast_fmri_test/images/redV.png'></img>	go	1500.0	2.0	15.0	go	non-target	V	71,Green Button	89,Yellow Button	1150.0	1250.0	1650.0	1500.0	1.0	1250.0	1.0	n/a	ITI
137847.0	500	n/a	-1	-1	500	0.0	fixation	poldrack-single-stim	229	642360	0.0-9.16-0.16	beast_fmri_test	303	n/a	n/a	<div class = centerbox><div class = fixation>+</div></div>	none	500.0	test	n/a	n/a	n/a	n/a	n/a	n/a	n/a	n/a	n/a	n/a	n/a	n/a	n/a	n/a	n/a	n/a	n/a	n/a	fixation
137453.61053932237	2750	n/a	1657	89	2750	394.389460678	stim	stop-signal	230	645111	0.0-9.16-1.16	beast_fmri_test	303	10.706216666666666,10.71755,10.728883333333334,10.740183333333333,10.751533333333333	t,t,t,t,t	<img class = center src='/static/experiments/beast_fmri_test/images/T.png'></img>	71,89	2750.0	test	<img class = center src='/static/experiments/beast_fmri_test/images/redT.png'></img>	go	1500.0	2.0	16.0	go	non-target	T	71,Green Button	89,Yellow Button	1150.0	1250.0	1650.0	1500.0	1.0	1250.0	1.0	n/a	go_stim
140203.61053932237	394.38946067768126	n/a	1657	89	2750	394.389460678	stim	stop-signal	230	645111	0.0-9.16-1.16	beast_fmri_test	303	10.706216666666666,10.71755,10.728883333333334,10.740183333333333,10.751533333333333	t,t,t,t,t	<img class = center src='/static/experiments/beast_fmri_test/images/T.png'></img>	71,89	2750.0	test	<img class = center src='/static/experiments/beast_fmri_test/images/redT.png'></img>	go	1500.0	2.0	16.0	go	non-target	T	71,Green Button	89,Yellow Button	1150.0	1250.0	1650.0	1500.0	1.0	1250.0	1.0	n/a	ITI
141518.0	500	n/a	-1	-1	500	0.0	fixation	poldrack-single-stim	231	646031	0.0-9.17-0.17	beast_fmri_test	303	10.762866666666667	t	<div class = centerbox><div class = fixation>+</div></div>	none	500.0	test	n/a	n/a	n/a	n/a	n/a	n/a	n/a	n/a	n/a	n/a	n/a	n/a	n/a	n/a	n/a	n/a	n/a	n/a	fixation
141441.08196468267	2750	n/a	1520	71	2750	78.9180353173	stim	stop-signal	232	648783	0.0-9.17-1.17	beast_fmri_test	303	10.7742,10.7855,10.79685,10.808166666666667	t,t,t,t	<img class = center src='/static/experiments/beast_fmri_test/images/V.png'></img>	71,89	2750.0	test	<img class = center src='/static/experiments/beast_fmri_test/images/redV.png'></img>	go	1600.0	2.0	17.0	go	target	V	71,Green Button	89,Yellow Button	1150.0	1250.0	1600.0	1500.0	1.0	1150.0	1.0	n/a	go_stim
144191.08196468267	78.918035317330293	n/a	1520	71	2750	78.9180353173	stim	stop-signal	232	648783	0.0-9.17-1.17	beast_fmri_test	303	10.7742,10.7855,10.79685,10.808166666666667	t,t,t,t	<img class = center src='/static/experiments/beast_fmri_test/images/V.png'></img>	71,89	2750.0	test	<img class = center src='/static/experiments/beast_fmri_test/images/redV.png'></img>	go	1600.0	2.0	17.0	go	target	V	71,Green Button	89,Yellow Button	1150.0	1250.0	1600.0	1500.0	1.0	1150.0	1.0	n/a	ITI
144874.0	500	n/a	-1	-1	500	0.0	fixation	poldrack-single-stim	233	649387	0.0-9.18-0.18	beast_fmri_test	303	10.8195	t	<div class = centerbox><div class = fixation>+</div></div>	none	500.0	test	n/a	n/a	n/a	n/a	n/a	n/a	n/a	n/a	n/a	n/a	n/a	n/a	n/a	n/a	n/a	n/a	n/a	n/a	fixation
143239.99600649846	2750	n/a	1543	89	2750	1636.0039935	stim	stop-signal	234	652139	0.0-9.18-1.18	beast_fmri_test	303	10.830833333333333,10.842166666666667,10.853483333333333,10.8648,10.876133333333334,10.88745	t,t,t,t,t,t	<img class = center src='/static/experiments/beast_fmri_test/images/V.png'></img>	71,89	2750.0	test	<img class = center src='/static/experiments/beast_fmri_test/images/redV.png'></img>	go	1500.0	2.0	18.0	go	non-target	V	71,Green Button	89,Yellow Button	1150.0	1250.0	1600.0	1500.0	1.0	1250.0	1.0	n/a	go_stim
145989.99600649846	1636.0039935015063	n/a	1543	89	2750	1636.0039935	stim	stop-signal	234	652139	0.0-9.18-1.18	beast_fmri_test	303	10.830833333333333,10.842166666666667,10.853483333333333,10.8648,10.876133333333334,10.88745	t,t,t,t,t,t	<img class = center src='/static/experiments/beast_fmri_test/images/V.png'></img>	71,89	2750.0	test	<img class = center src='/static/experiments/beast_fmri_test/images/redV.png'></img>	go	1500.0	2.0	18.0	go	non-target	V	71,Green Button	89,Yellow Button	1150.0	1250.0	1600.0	1500.0	1.0	1250.0	1.0	n/a	ITI
149787.0	500	n/a	-1	-1	500	0.0	fixation	poldrack-single-stim	235	654300	0.0-9.19-0.19	beast_fmri_test	303	10.8988	t	<div class = centerbox><div class = fixation>+</div></div>	none	500.0	test	n/a	n/a	n/a	n/a	n/a	n/a	n/a	n/a	n/a	n/a	n/a	n/a	n/a	n/a	n/a	n/a	n/a	n/a	fixation
149512.48146588239	2750	n/a	2042	71	2750	276.518534118	stim	stop-signal	236	657052	0.0-9.19-1.19	beast_fmri_test	303	10.910133333333333,10.92145,10.932783333333333,10.9441,10.955433333333334	t,t,t,t,t	<img class = center src='/static/experiments/beast_fmri_test/images/T.png'></img>	71,89	2750.0	test	<img class = center src='/static/experiments/beast_fmri_test/images/redT.png'></img>	go	1500.0	2.0	19.0	go	non-target	T	71,Green Button	89,Yellow Button	1150.0	1250.0	1600.0	1500.0	0.0	1250.0	0.0	n/a	go_stim
152262.48146588239	276.51853411766581	n/a	2042	71	2750	276.518534118	stim	stop-signal	236	657052	0.0-9.19-1.19	beast_fmri_test	303	10.910133333333333,10.92145,10.932783333333333,10.9441,10.955433333333334	t,t,t,t,t	<img class = center src='/static/experiments/beast_fmri_test/images/T.png'></img>	71,89	2750.0	test	<img class = center src='/static/experiments/beast_fmri_test/images/redT.png'></img>	go	1500.0	2.0	19.0	go	non-target	T	71,Green Button	89,Yellow Button	1150.0	1250.0	1600.0	1500.0	0.0	1250.0	0.0	n/a	ITI
153339.0	500	n/a	-1	-1	500	0.0	fixation	poldrack-single-stim	237	657852	0.0-9.20-0.20	beast_fmri_test	303	n/a	n/a	<div class = centerbox><div class = fixation>+</div></div>	none	500.0	test	n/a	n/a	n/a	n/a	n/a	n/a	n/a	n/a	n/a	n/a	n/a	n/a	n/a	n/a	n/a	n/a	n/a	n/a	fixation
152505.08135240874	2750	n/a	1533	89	2750	835.918647591	stim	stop-signal	238	660604	0.0-9.20-1.20	beast_fmri_test	303	10.96675,10.978083333333334,10.989416666666667,11.00075,11.0121,11.0234	t,t,t,t,t,t	<img class = center src='/static/experiments/beast_fmri_test/images/P.png'></img>	71,89	2750.0	test	<img class = center src='/static/experiments/beast_fmri_test/images/redP.png'></img>	go	1500.0	2.0	20.0	go	non-target	P	71,Green Button	89,Yellow Button	1150.0	1250.0	1600.0	1500.0	1.0	1250.0	1.0	n/a	go_stim
155255.08135240874	835.91864759122768	n/a	1533	89	2750	835.918647591	stim	stop-signal	238	660604	0.0-9.20-1.20	beast_fmri_test	303	10.96675,10.978083333333334,10.989416666666667,11.00075,11.0121,11.0234	t,t,t,t,t,t	<img class = center src='/static/experiments/beast_fmri_test/images/P.png'></img>	71,89	2750.0	test	<img class = center src='/static/experiments/beast_fmri_test/images/redP.png'></img>	go	1500.0	2.0	20.0	go	non-target	P	71,Green Button	89,Yellow Button	1150.0	1250.0	1600.0	1500.0	1.0	1250.0	1.0	n/a	ITI
157453.0	500	n/a	-1	-1	500	0.0	fixation	poldrack-single-stim	239	661966	0.0-9.21-0.21	beast_fmri_test	303	n/a	n/a	<div class = centerbox><div class = fixation>+</div></div>	none	500.0	test	n/a	n/a	n/a	n/a	n/a	n/a	n/a	n/a	n/a	n/a	n/a	n/a	n/a	n/a	n/a	n/a	n/a	n/a	fixation
157329.52217085403	2750	n/a	1332	89	2750	124.477829146	stim	stop-signal	240	664717	0.0-9.21-1.21	beast_fmri_test	303	11.034733333333334,11.04605,11.057383333333334,11.0687,11.080033333333333	t,t,t,t,t	<img class = center src='/static/experiments/beast_fmri_test/images/B.png'></img>	71,89	2750.0	test	<img class = center src='/static/experiments/beast_fmri_test/images/redB.png'></img>	go	1500.0	2.0	21.0	go	non-target	B	71,Green Button	89,Yellow Button	1150.0	1250.0	1600.0	1500.0	1.0	1250.0	1.0	n/a	go_stim
160079.52217085403	124.47782914595008	n/a	1332	89	2750	124.477829146	stim	stop-signal	240	664717	0.0-9.21-1.21	beast_fmri_test	303	11.034733333333334,11.04605,11.057383333333334,11.0687,11.080033333333333	t,t,t,t,t	<img class = center src='/static/experiments/beast_fmri_test/images/B.png'></img>	71,89	2750.0	test	<img class = center src='/static/experiments/beast_fmri_test/images/redB.png'></img>	go	1500.0	2.0	21.0	go	non-target	B	71,Green Button	89,Yellow Button	1150.0	1250.0	1600.0	1500.0	1.0	1250.0	1.0	n/a	ITI
160851.0	500	n/a	-1	-1	500	0.0	fixation	poldrack-single-stim	241	665364	0.0-9.22-0.22	beast_fmri_test	303	n/a	n/a	<div class = centerbox><div class = fixation>+</div></div>	none	500.0	test	n/a	n/a	n/a	n/a	n/a	n/a	n/a	n/a	n/a	n/a	n/a	n/a	n/a	n/a	n/a	n/a	n/a	n/a	fixation
160395.92841338273	2750	n/a	1853	89	2750	457.071586617	stim	stop-signal	242	668116	0.0-9.22-1.22	beast_fmri_test	303	11.091366666666667,11.102683333333333,11.114033333333333,11.12535,11.136683333333334	t,t,t,t,t	<img class = center src='/static/experiments/beast_fmri_test/images/B.png'></img>	71,89	2750.0	test	<img class = center src='/static/experiments/beast_fmri_test/images/redB.png'></img>	go	1500.0	2.0	22.0	go	non-target	B	71,Green Button	89,Yellow Button	1150.0	1250.0	1600.0	1500.0	1.0	1250.0	1.0	n/a	go_stim
163145.92841338273	457.0715866172917	n/a	1853	89	2750	457.071586617	stim	stop-signal	242	668116	0.0-9.22-1.22	beast_fmri_test	303	11.091366666666667,11.102683333333333,11.114033333333333,11.12535,11.136683333333334	t,t,t,t,t	<img class = center src='/static/experiments/beast_fmri_test/images/B.png'></img>	71,89	2750.0	test	<img class = center src='/static/experiments/beast_fmri_test/images/redB.png'></img>	go	1500.0	2.0	22.0	go	non-target	B	71,Green Button	89,Yellow Button	1150.0	1250.0	1600.0	1500.0	1.0	1250.0	1.0	n/a	ITI
164586.0	500	n/a	-1	-1	500	0.0	fixation	poldrack-single-stim	243	669099	0.0-9.23-0.23	beast_fmri_test	303	11.148	t	<div class = centerbox><div class = fixation>+</div></div>	none	500.0	test	n/a	n/a	n/a	n/a	n/a	n/a	n/a	n/a	n/a	n/a	n/a	n/a	n/a	n/a	n/a	n/a	n/a	n/a	fixation
164060.49693553045	1150.0	n/a	-1	-1	2750	527.50306447	stim	stop-signal	244	671851	0.0-9.23-1.23	beast_fmri_test	303	11.15935,11.170683333333333,11.182,11.193333333333333,11.20465	t,t,t,t,t	<img class = center src='/static/experiments/beast_fmri_test/images/B.png'></img>	71,89	2750.0	test	<img class = center src='/static/experiments/beast_fmri_test/images/redB.png'></img>	stop	1600.0	2.0	23.0	stop	target	B	71,Green Button	89,Yellow Button	1150.0	1250.0	1600.0	1500.0	0.0	1150.0	0.0	1.0	go_stim
165660.49693553045	1600.0	n/a	-1	-1	2750	527.50306447	stim	stop-signal	244	671851	0.0-9.23-1.23	beast_fmri_test	303	11.15935,11.170683333333333,11.182,11.193333333333333,11.20465	t,t,t,t,t	<img class = center src='/static/experiments/beast_fmri_test/images/B.png'></img>	71,89	2750.0	test	<img class = center src='/static/experiments/beast_fmri_test/images/redB.png'></img>	stop	1600.0	2.0	23.0	stop	target	B	71,Green Button	89,Yellow Button	1150.0	1250.0	1600.0	1500.0	0.0	1150.0	0.0	1.0	stop_stim
166810.49693553045	527.5030644695521	n/a	-1	-1	2750	527.50306447	stim	stop-signal	244	671851	0.0-9.23-1.23	beast_fmri_test	303	11.15935,11.170683333333333,11.182,11.193333333333333,11.20465	t,t,t,t,t	<img class = center src='/static/experiments/beast_fmri_test/images/B.png'></img>	71,89	2750.0	test	<img class = center src='/static/experiments/beast_fmri_test/images/redB.png'></img>	stop	1600.0	2.0	23.0	stop	target	B	71,Green Button	89,Yellow Button	1150.0	1250.0	1600.0	1500.0	0.0	1150.0	0.0	1.0	ITI
168389.0	500	n/a	-1	-1	500	0.0	fixation	poldrack-single-stim	245	672902	0.0-9.24-0.24	beast_fmri_test	303	n/a	n/a	<div class = centerbox><div class = fixation>+</div></div>	none	500.0	test	n/a	n/a	n/a	n/a	n/a	n/a	n/a	n/a	n/a	n/a	n/a	n/a	n/a	n/a	n/a	n/a	n/a	n/a	fixation
168209.12671130174	1250.0	n/a	-1	-1	2750	181.873288698	stim	stop-signal	246	675654	0.0-9.24-1.24	beast_fmri_test	303	11.215983333333334,11.227316666666667,11.238633333333333,11.249966666666667,11.261283333333333	t,t,t,t,t	<img class = center src='/static/experiments/beast_fmri_test/images/P.png'></img>	71,89	2750.0	test	<img class = center src='/static/experiments/beast_fmri_test/images/redP.png'></img>	stop	1500.0	2.0	24.0	stop	non-target	P	71,Green Button	89,Yellow Button	1200.0	1250.0	1600.0	1500.0	0.0	1250.0	0.0	1.0	go_stim
169709.12671130174	1500.0	n/a	-1	-1	2750	181.873288698	stim	stop-signal	246	675654	0.0-9.24-1.24	beast_fmri_test	303	11.215983333333334,11.227316666666667,11.238633333333333,11.249966666666667,11.261283333333333	t,t,t,t,t	<img class = center src='/static/experiments/beast_fmri_test/images/P.png'></img>	71,89	2750.0	test	<img class = center src='/static/experiments/beast_fmri_test/images/redP.png'></img>	stop	1500.0	2.0	24.0	stop	non-target	P	71,Green Button	89,Yellow Button	1200.0	1250.0	1600.0	1500.0	0.0	1250.0	0.0	1.0	stop_stim
170959.12671130174	181.87328869823742	n/a	-1	-1	2750	181.873288698	stim	stop-signal	246	675654	0.0-9.24-1.24	beast_fmri_test	303	11.215983333333334,11.227316666666667,11.238633333333333,11.249966666666667,11.261283333333333	t,t,t,t,t	<img class = center src='/static/experiments/beast_fmri_test/images/P.png'></img>	71,89	2750.0	test	<img class = center src='/static/experiments/beast_fmri_test/images/redP.png'></img>	stop	1500.0	2.0	24.0	stop	non-target	P	71,Green Button	89,Yellow Button	1200.0	1250.0	1600.0	1500.0	0.0	1250.0	0.0	1.0	ITI
171846.0	500	n/a	-1	-1	500	0.0	fixation	poldrack-single-stim	247	676359	0.0-9.25-0.25	beast_fmri_test	303	11.272616666666666	t	<div class = centerbox><div class = fixation>+</div></div>	none	500.0	test	n/a	n/a	n/a	n/a	n/a	n/a	n/a	n/a	n/a	n/a	n/a	n/a	n/a	n/a	n/a	n/a	n/a	n/a	fixation
171271.07908110518	2750	n/a	2095	71	2750	576.920918895	stim	stop-signal	248	679111	0.0-9.25-1.25	beast_fmri_test	303	11.283933333333334,11.295283333333334,11.306583333333334,11.317933333333333	t,t,t,t	<img class = center src='/static/experiments/beast_fmri_test/images/B.png'></img>	71,89	2750.0	test	<img class = center src='/static/experiments/beast_fmri_test/images/redB.png'></img>	go	1550.0	2.0	25.0	go	target	B	71,Green Button	89,Yellow Button	1200.0	1300.0	1550.0	1500.0	1.0	1200.0	1.0	n/a	go_stim
174021.07908110518	576.9209188948081	n/a	2095	71	2750	576.920918895	stim	stop-signal	248	679111	0.0-9.25-1.25	beast_fmri_test	303	11.283933333333334,11.295283333333334,11.306583333333334,11.317933333333333	t,t,t,t	<img class = center src='/static/experiments/beast_fmri_test/images/B.png'></img>	71,89	2750.0	test	<img class = center src='/static/experiments/beast_fmri_test/images/redB.png'></img>	go	1550.0	2.0	25.0	go	target	B	71,Green Button	89,Yellow Button	1200.0	1300.0	1550.0	1500.0	1.0	1200.0	1.0	n/a	ITI
175701.0	500	n/a	-1	-1	500	0.0	fixation	poldrack-single-stim	249	680214	0.0-9.26-0.26	beast_fmri_test	303	11.32925	t	<div class = centerbox><div class = fixation>+</div></div>	none	500.0	test	n/a	n/a	n/a	n/a	n/a	n/a	n/a	n/a	n/a	n/a	n/a	n/a	n/a	n/a	n/a	n/a	n/a	n/a	fixation
175599.30683851358	1300.0	n/a	-1	-1	2750	103.693161486	stim	stop-signal	250	682966	0.0-9.26-1.26	beast_fmri_test	303	11.3406,11.351916666666666,11.36325,11.374566666666666	t,t,t,t	<img class = center src='/static/experiments/beast_fmri_test/images/D.png'></img>	71,89	2750.0	test	<img class = center src='/static/experiments/beast_fmri_test/images/redD.png'></img>	stop	1450.0	2.0	26.0	stop	non-target	D	71,Green Button	89,Yellow Button	1200.0	1300.0	1550.0	1450.0	0.0	1300.0	0.0	1.0	go_stim
177049.30683851358	1450.0	n/a	-1	-1	2750	103.693161486	stim	stop-signal	250	682966	0.0-9.26-1.26	beast_fmri_test	303	11.3406,11.351916666666666,11.36325,11.374566666666666	t,t,t,t	<img class = center src='/static/experiments/beast_fmri_test/images/D.png'></img>	71,89	2750.0	test	<img class = center src='/static/experiments/beast_fmri_test/images/redD.png'></img>	stop	1450.0	2.0	26.0	stop	non-target	D	71,Green Button	89,Yellow Button	1200.0	1300.0	1550.0	1450.0	0.0	1300.0	0.0	1.0	stop_stim
178349.30683851358	103.69316148645572	n/a	-1	-1	2750	103.693161486	stim	stop-signal	250	682966	0.0-9.26-1.26	beast_fmri_test	303	11.3406,11.351916666666666,11.36325,11.374566666666666	t,t,t,t	<img class = center src='/static/experiments/beast_fmri_test/images/D.png'></img>	71,89	2750.0	test	<img class = center src='/static/experiments/beast_fmri_test/images/redD.png'></img>	stop	1450.0	2.0	26.0	stop	non-target	D	71,Green Button	89,Yellow Button	1200.0	1300.0	1550.0	1450.0	0.0	1300.0	0.0	1.0	ITI
179082.0	500	n/a	-1	-1	500	0.0	fixation	poldrack-single-stim	251	683595	0.0-9.27-0.27	beast_fmri_test	303	11.3859	t	<div class = centerbox><div class = fixation>+</div></div>	none	500.0	test	n/a	n/a	n/a	n/a	n/a	n/a	n/a	n/a	n/a	n/a	n/a	n/a	n/a	n/a	n/a	n/a	n/a	n/a	fixation
178574.87407701253	1350.0	n/a	-1	-1	2750	508.125922987	stim	stop-signal	252	686346	0.0-9.27-1.27	beast_fmri_test	303	11.397233333333334,11.40855,11.419883333333333,11.431216666666666,11.442533333333333	t,t,t,t,t	<img class = center src='/static/experiments/beast_fmri_test/images/V.png'></img>	71,89	2750.0	test	<img class = center src='/static/experiments/beast_fmri_test/images/redV.png'></img>	stop	1400.0	2.0	27.0	stop	non-target	V	71,Green Button	89,Yellow Button	1200.0	1350.0	1550.0	1400.0	0.0	1350.0	0.0	1.0	go_stim
179974.87407701253	1400.0	n/a	-1	-1	2750	508.125922987	stim	stop-signal	252	686346	0.0-9.27-1.27	beast_fmri_test	303	11.397233333333334,11.40855,11.419883333333333,11.431216666666666,11.442533333333333	t,t,t,t,t	<img class = center src='/static/experiments/beast_fmri_test/images/V.png'></img>	71,89	2750.0	test	<img class = center src='/static/experiments/beast_fmri_test/images/redV.png'></img>	stop	1400.0	2.0	27.0	stop	non-target	V	71,Green Button	89,Yellow Button	1200.0	1350.0	1550.0	1400.0	0.0	1350.0	0.0	1.0	stop_stim
181324.87407701253	508.12592298746011	n/a	-1	-1	2750	508.125922987	stim	stop-signal	252	686346	0.0-9.27-1.27	beast_fmri_test	303	11.397233333333334,11.40855,11.419883333333333,11.431216666666666,11.442533333333333	t,t,t,t,t	<img class = center src='/static/experiments/beast_fmri_test/images/V.png'></img>	71,89	2750.0	test	<img class = center src='/static/experiments/beast_fmri_test/images/redV.png'></img>	stop	1400.0	2.0	27.0	stop	non-target	V	71,Green Button	89,Yellow Button	1200.0	1350.0	1550.0	1400.0	0.0	1350.0	0.0	1.0	ITI
182867.0	500	n/a	-1	-1	500	0.0	fixation	poldrack-single-stim	253	687380	0.0-9.28-0.28	beast_fmri_test	303	11.45385	t	<div class = centerbox><div class = fixation>+</div></div>	none	500.0	test	n/a	n/a	n/a	n/a	n/a	n/a	n/a	n/a	n/a	n/a	n/a	n/a	n/a	n/a	n/a	n/a	n/a	n/a	fixation
181452.67915765208	2750	n/a	1683	71	2750	1416.32084235	stim	stop-signal	254	690132	0.0-9.28-1.28	beast_fmri_test	303	11.465166666666667,11.476516666666667,11.48785,11.499183333333333,11.5105,11.521833333333333	t,t,t,t,t,t	<img class = center src='/static/experiments/beast_fmri_test/images/D.png'></img>	71,89	2750.0	test	<img class = center src='/static/experiments/beast_fmri_test/images/redD.png'></img>	go	1550.0	2.0	28.0	go	target	D	71,Green Button	89,Yellow Button	1200.0	1400.0	1550.0	1400.0	1.0	1200.0	1.0	n/a	go_stim
184202.67915765208	1416.3208423479746	n/a	1683	71	2750	1416.32084235	stim	stop-signal	254	690132	0.0-9.28-1.28	beast_fmri_test	303	11.465166666666667,11.476516666666667,11.48785,11.499183333333333,11.5105,11.521833333333333	t,t,t,t,t,t	<img class = center src='/static/experiments/beast_fmri_test/images/D.png'></img>	71,89	2750.0	test	<img class = center src='/static/experiments/beast_fmri_test/images/redD.png'></img>	go	1550.0	2.0	28.0	go	target	D	71,Green Button	89,Yellow Button	1200.0	1400.0	1550.0	1400.0	1.0	1200.0	1.0	n/a	ITI
187561.0	500	n/a	-1	-1	500	0.0	fixation	poldrack-single-stim	255	692074	0.0-9.29-0.29	beast_fmri_test	303	11.533166666666666	t	<div class = centerbox><div class = fixation>+</div></div>	none	500.0	test	n/a	n/a	n/a	n/a	n/a	n/a	n/a	n/a	n/a	n/a	n/a	n/a	n/a	n/a	n/a	n/a	n/a	n/a	fixation
187481.99042653188	2750	n/a	1535	89	2750	81.0095734681	stim	stop-signal	256	694826	0.0-9.29-1.29	beast_fmri_test	303	11.544483333333334,11.555816666666667,11.567166666666667,11.578483333333333	t,t,t,t	<img class = center src='/static/experiments/beast_fmri_test/images/P.png'></img>	71,89	2750.0	test	<img class = center src='/static/experiments/beast_fmri_test/images/redP.png'></img>	go	1350.0	2.0	29.0	go	non-target	P	71,Green Button	89,Yellow Button	1200.0	1400.0	1550.0	1350.0	1.0	1400.0	1.0	n/a	go_stim
190231.99042653188	81.009573468147266	n/a	1535	89	2750	81.0095734681	stim	stop-signal	256	694826	0.0-9.29-1.29	beast_fmri_test	303	11.544483333333334,11.555816666666667,11.567166666666667,11.578483333333333	t,t,t,t	<img class = center src='/static/experiments/beast_fmri_test/images/P.png'></img>	71,89	2750.0	test	<img class = center src='/static/experiments/beast_fmri_test/images/redP.png'></img>	go	1350.0	2.0	29.0	go	non-target	P	71,Green Button	89,Yellow Button	1200.0	1400.0	1550.0	1350.0	1.0	1400.0	1.0	n/a	ITI
190920.0	500	n/a	-1	-1	500	0.0	fixation	poldrack-single-stim	257	695433	0.0-9.30-0.30	beast_fmri_test	303	11.589816666666668	t	<div class = centerbox><div class = fixation>+</div></div>	none	500.0	test	n/a	n/a	n/a	n/a	n/a	n/a	n/a	n/a	n/a	n/a	n/a	n/a	n/a	n/a	n/a	n/a	n/a	n/a	fixation
190365.08954115212	1400.0	n/a	-1	-1	2750	555.910458848	stim	stop-signal	258	698184	0.0-9.30-1.30	beast_fmri_test	303	11.60115,11.612483333333333,11.623816666666666,11.635133333333334	t,t,t,t	<img class = center src='/static/experiments/beast_fmri_test/images/V.png'></img>	71,89	2750.0	test	<img class = center src='/static/experiments/beast_fmri_test/images/redV.png'></img>	stop	1350.0	2.0	30.0	stop	non-target	V	71,Green Button	89,Yellow Button	1200.0	1400.0	1550.0	1350.0	0.0	1400.0	0.0	1.0	go_stim
191715.08954115212	1350.0	n/a	-1	-1	2750	555.910458848	stim	stop-signal	258	698184	0.0-9.30-1.30	beast_fmri_test	303	11.60115,11.612483333333333,11.623816666666666,11.635133333333334	t,t,t,t	<img class = center src='/static/experiments/beast_fmri_test/images/V.png'></img>	71,89	2750.0	test	<img class = center src='/static/experiments/beast_fmri_test/images/redV.png'></img>	stop	1350.0	2.0	30.0	stop	non-target	V	71,Green Button	89,Yellow Button	1200.0	1400.0	1550.0	1350.0	0.0	1400.0	0.0	1.0	stop_stim
193115.08954115212	555.9104588478973	n/a	-1	-1	2750	555.910458848	stim	stop-signal	258	698184	0.0-9.30-1.30	beast_fmri_test	303	11.60115,11.612483333333333,11.623816666666666,11.635133333333334	t,t,t,t	<img class = center src='/static/experiments/beast_fmri_test/images/V.png'></img>	71,89	2750.0	test	<img class = center src='/static/experiments/beast_fmri_test/images/redV.png'></img>	stop	1350.0	2.0	30.0	stop	non-target	V	71,Green Button	89,Yellow Button	1200.0	1400.0	1550.0	1350.0	0.0	1400.0	0.0	1.0	ITI
194754.0	500	n/a	-1	-1	500	0.0	fixation	poldrack-single-stim	259	699267	0.0-9.31-0.31	beast_fmri_test	303	11.646433333333333	t	<div class = centerbox><div class = fixation>+</div></div>	none	500.0	test	n/a	n/a	n/a	n/a	n/a	n/a	n/a	n/a	n/a	n/a	n/a	n/a	n/a	n/a	n/a	n/a	n/a	n/a	fixation
194184.59205939458	1450.0	n/a	1656	89	2750	570.407940605	stim	stop-signal	260	702018	0.0-9.31-1.31	beast_fmri_test	303	11.657783333333333,11.6691,11.680416666666666,11.691766666666666,11.703066666666667	t,t,t,t,t	<img class = center src='/static/experiments/beast_fmri_test/images/T.png'></img>	71,89	2750.0	test	<img class = center src='/static/experiments/beast_fmri_test/images/redT.png'></img>	stop	1300.0	2.0	31.0	stop	non-target	T	71,Green Button	89,Yellow Button	1200.0	1450.0	1550.0	1300.0	0.0	1450.0	1.0	0.0	go_stim
195484.59205939458	1300.0	n/a	1656	89	2750	570.407940605	stim	stop-signal	260	702018	0.0-9.31-1.31	beast_fmri_test	303	11.657783333333333,11.6691,11.680416666666666,11.691766666666666,11.703066666666667	t,t,t,t,t	<img class = center src='/static/experiments/beast_fmri_test/images/T.png'></img>	71,89	2750.0	test	<img class = center src='/static/experiments/beast_fmri_test/images/redT.png'></img>	stop	1300.0	2.0	31.0	stop	non-target	T	71,Green Button	89,Yellow Button	1200.0	1450.0	1550.0	1300.0	0.0	1450.0	1.0	0.0	stop_stim
196934.59205939458	570.40794060541964	n/a	1656	89	2750	570.407940605	stim	stop-signal	260	702018	0.0-9.31-1.31	beast_fmri_test	303	11.657783333333333,11.6691,11.680416666666666,11.691766666666666,11.703066666666667	t,t,t,t,t	<img class = center src='/static/experiments/beast_fmri_test/images/T.png'></img>	71,89	2750.0	test	<img class = center src='/static/experiments/beast_fmri_test/images/redT.png'></img>	stop	1300.0	2.0	31.0	stop	non-target	T	71,Green Button	89,Yellow Button	1200.0	1450.0	1550.0	1300.0	0.0	1450.0	1.0	0.0	ITI
198601.0	500	n/a	-1	-1	500	0.0	fixation	poldrack-single-stim	261	703114	0.0-9.32-0.32	beast_fmri_test	303	11.714433333333334	t	<div class = centerbox><div class = fixation>+</div></div>	none	500.0	test	n/a	n/a	n/a	n/a	n/a	n/a	n/a	n/a	n/a	n/a	n/a	n/a	n/a	n/a	n/a	n/a	n/a	n/a	fixation
197435.31120692333	2750	n/a	-1	-1	2750	1167.68879308	stim	stop-signal	262	705866	0.0-9.32-1.32	beast_fmri_test	303	11.72575,11.737083333333333,11.7484,11.759733333333333,11.771066666666666,11.7824	t,t,t,t,t,t	<img class = center src='/static/experiments/beast_fmri_test/images/V.png'></img>	71,89	2750.0	test	<img class = center src='/static/experiments/beast_fmri_test/images/redV.png'></img>	go	1550.0	2.0	32.0	go	target	V	71,Green Button	89,Yellow Button	1200.0	1400.0	1550.0	1300.0	0.0	1200.0	0.0	n/a	go_stim
200185.31120692333	1167.688793076614	n/a	-1	-1	2750	1167.68879308	stim	stop-signal	262	705866	0.0-9.32-1.32	beast_fmri_test	303	11.72575,11.737083333333333,11.7484,11.759733333333333,11.771066666666666,11.7824	t,t,t,t,t,t	<img class = center src='/static/experiments/beast_fmri_test/images/V.png'></img>	71,89	2750.0	test	<img class = center src='/static/experiments/beast_fmri_test/images/redV.png'></img>	go	1550.0	2.0	32.0	go	target	V	71,Green Button	89,Yellow Button	1200.0	1400.0	1550.0	1300.0	0.0	1200.0	0.0	n/a	ITI
203046.0	500	n/a	-1	-1	500	0.0	fixation	poldrack-single-stim	263	707559	0.0-9.33-0.33	beast_fmri_test	303	n/a	n/a	<div class = centerbox><div class = fixation>+</div></div>	none	500.0	test	n/a	n/a	n/a	n/a	n/a	n/a	n/a	n/a	n/a	n/a	n/a	n/a	n/a	n/a	n/a	n/a	n/a	n/a	fixation
202562.74898660835	2750	n/a	1754	89	2750	485.251013392	stim	stop-signal	264	710311	0.0-9.33-1.33	beast_fmri_test	303	11.7937,11.80505,11.816383333333333,11.827683333333333,11.839	t,t,t,t,t	<img class = center src='/static/experiments/beast_fmri_test/images/V.png'></img>	71,89	2750.0	test	<img class = center src='/static/experiments/beast_fmri_test/images/redV.png'></img>	go	1350.0	2.0	33.0	go	non-target	V	71,Green Button	89,Yellow Button	1200.0	1400.0	1550.0	1350.0	1.0	1400.0	1.0	n/a	go_stim
205312.74898660835	485.25101339165803	n/a	1754	89	2750	485.251013392	stim	stop-signal	264	710311	0.0-9.33-1.33	beast_fmri_test	303	11.7937,11.80505,11.816383333333333,11.827683333333333,11.839	t,t,t,t,t	<img class = center src='/static/experiments/beast_fmri_test/images/V.png'></img>	71,89	2750.0	test	<img class = center src='/static/experiments/beast_fmri_test/images/redV.png'></img>	go	1350.0	2.0	33.0	go	non-target	V	71,Green Button	89,Yellow Button	1200.0	1400.0	1550.0	1350.0	1.0	1400.0	1.0	n/a	ITI
206811.0	500	n/a	-1	-1	500	0.0	fixation	poldrack-single-stim	265	711324	0.0-9.34-0.34	beast_fmri_test	303	11.850366666666666	t	<div class = centerbox><div class = fixation>+</div></div>	none	500.0	test	n/a	n/a	n/a	n/a	n/a	n/a	n/a	n/a	n/a	n/a	n/a	n/a	n/a	n/a	n/a	n/a	n/a	n/a	fixation
205826.28989435371	2750	n/a	2086	89	2750	985.710105646	stim	stop-signal	266	714075	0.0-9.34-1.34	beast_fmri_test	303	11.861683333333334,11.873016666666667,11.884333333333334,11.895666666666667,11.906983333333333	t,t,t,t,t	<img class = center src='/static/experiments/beast_fmri_test/images/D.png'></img>	71,89	2750.0	test	<img class = center src='/static/experiments/beast_fmri_test/images/redD.png'></img>	go	1350.0	2.0	34.0	go	non-target	D	71,Green Button	89,Yellow Button	1200.0	1400.0	1550.0	1350.0	1.0	1400.0	1.0	n/a	go_stim
208576.28989435371	985.71010564627727	n/a	2086	89	2750	985.710105646	stim	stop-signal	266	714075	0.0-9.34-1.34	beast_fmri_test	303	11.861683333333334,11.873016666666667,11.884333333333334,11.895666666666667,11.906983333333333	t,t,t,t,t	<img class = center src='/static/experiments/beast_fmri_test/images/D.png'></img>	71,89	2750.0	test	<img class = center src='/static/experiments/beast_fmri_test/images/redD.png'></img>	go	1350.0	2.0	34.0	go	non-target	D	71,Green Button	89,Yellow Button	1200.0	1400.0	1550.0	1350.0	1.0	1400.0	1.0	n/a	ITI
211075.0	500	n/a	-1	-1	500	0.0	fixation	poldrack-single-stim	267	715588	0.0-9.35-0.35	beast_fmri_test	303	11.9183	t	<div class = centerbox><div class = fixation>+</div></div>	none	500.0	test	n/a	n/a	n/a	n/a	n/a	n/a	n/a	n/a	n/a	n/a	n/a	n/a	n/a	n/a	n/a	n/a	n/a	n/a	fixation
209830.14213852177	1400.0	n/a	-1	-1	2750	1245.85786148	stim	stop-signal	268	718339	0.0-9.35-1.35	beast_fmri_test	303	11.92965,11.940983333333334,11.952316666666666,11.963633333333334,11.974966666666667,11.986283333333333	t,t,t,t,t,t	<img class = center src='/static/experiments/beast_fmri_test/images/D.png'></img>	71,89	2750.0	test	<img class = center src='/static/experiments/beast_fmri_test/images/redD.png'></img>	stop	1350.0	2.0	35.0	stop	non-target	D	71,Green Button	89,Yellow Button	1200.0	1400.0	1550.0	1350.0	0.0	1400.0	0.0	1.0	go_stim
211180.14213852177	1350.0	n/a	-1	-1	2750	1245.85786148	stim	stop-signal	268	718339	0.0-9.35-1.35	beast_fmri_test	303	11.92965,11.940983333333334,11.952316666666666,11.963633333333334,11.974966666666667,11.986283333333333	t,t,t,t,t,t	<img class = center src='/static/experiments/beast_fmri_test/images/D.png'></img>	71,89	2750.0	test	<img class = center src='/static/experiments/beast_fmri_test/images/redD.png'></img>	stop	1350.0	2.0	35.0	stop	non-target	D	71,Green Button	89,Yellow Button	1200.0	1400.0	1550.0	1350.0	0.0	1400.0	0.0	1.0	stop_stim
212580.14213852177	1245.8578614782714	n/a	-1	-1	2750	1245.85786148	stim	stop-signal	268	718339	0.0-9.35-1.35	beast_fmri_test	303	11.92965,11.940983333333334,11.952316666666666,11.963633333333334,11.974966666666667,11.986283333333333	t,t,t,t,t,t	<img class = center src='/static/experiments/beast_fmri_test/images/D.png'></img>	71,89	2750.0	test	<img class = center src='/static/experiments/beast_fmri_test/images/redD.png'></img>	stop	1350.0	2.0	35.0	stop	non-target	D	71,Green Button	89,Yellow Button	1200.0	1400.0	1550.0	1350.0	0.0	1400.0	0.0	1.0	ITI
215598.0	500	n/a	-1	-1	500	0.0	fixation	poldrack-single-stim	269	720111	0.0-9.36-0.36	beast_fmri_test	303	11.997616666666667	t	<div class = centerbox><div class = fixation>+</div></div>	none	500.0	test	n/a	n/a	n/a	n/a	n/a	n/a	n/a	n/a	n/a	n/a	n/a	n/a	n/a	n/a	n/a	n/a	n/a	n/a	fixation
213595.1228228953	2750	n/a	1897	71	2750	2005.8771771	stim	stop-signal	270	722864	0.0-9.36-1.36	beast_fmri_test	303	12.00895,12.020266666666666,12.0316,12.042916666666667,12.054266666666667,12.0656,12.076933333333333	t,t,t,t,t,t,t	<img class = center src='/static/experiments/beast_fmri_test/images/D.png'></img>	71,89	2750.0	test	<img class = center src='/static/experiments/beast_fmri_test/images/redD.png'></img>	go	1550.0	2.0	36.0	go	target	D	71,Green Button	89,Yellow Button	1200.0	1450.0	1550.0	1350.0	1.0	1200.0	1.0	n/a	go_stim
216345.1228228953	2005.8771771047063	n/a	1897	71	2750	2005.8771771	stim	stop-signal	270	722864	0.0-9.36-1.36	beast_fmri_test	303	12.00895,12.020266666666666,12.0316,12.042916666666667,12.054266666666667,12.0656,12.076933333333333	t,t,t,t,t,t,t	<img class = center src='/static/experiments/beast_fmri_test/images/D.png'></img>	71,89	2750.0	test	<img class = center src='/static/experiments/beast_fmri_test/images/redD.png'></img>	go	1550.0	2.0	36.0	go	target	D	71,Green Button	89,Yellow Button	1200.0	1450.0	1550.0	1350.0	1.0	1200.0	1.0	n/a	ITI
220882.0	500	n/a	-1	-1	500	0.0	fixation	poldrack-single-stim	271	725395	0.0-9.37-0.37	beast_fmri_test	303	12.08825	t	<div class = centerbox><div class = fixation>+</div></div>	none	500.0	test	n/a	n/a	n/a	n/a	n/a	n/a	n/a	n/a	n/a	n/a	n/a	n/a	n/a	n/a	n/a	n/a	n/a	n/a	fixation
220395.85023637058	2750	n/a	1683	89	2750	487.149763629	stim	stop-signal	272	728146	0.0-9.37-1.37	beast_fmri_test	303	12.099583333333333,12.1109,12.122233333333334,12.133566666666667	t,t,t,t	<img class = center src='/static/experiments/beast_fmri_test/images/V.png'></img>	71,89	2750.0	test	<img class = center src='/static/experiments/beast_fmri_test/images/redV.png'></img>	go	1300.0	2.0	37.0	go	non-target	V	71,Green Button	89,Yellow Button	1200.0	1450.0	1550.0	1300.0	1.0	1450.0	1.0	n/a	go_stim
223145.85023637058	487.1497636294622	n/a	1683	89	2750	487.149763629	stim	stop-signal	272	728146	0.0-9.37-1.37	beast_fmri_test	303	12.099583333333333,12.1109,12.122233333333334,12.133566666666667	t,t,t,t	<img class = center src='/static/experiments/beast_fmri_test/images/V.png'></img>	71,89	2750.0	test	<img class = center src='/static/experiments/beast_fmri_test/images/redV.png'></img>	go	1300.0	2.0	37.0	go	non-target	V	71,Green Button	89,Yellow Button	1200.0	1450.0	1550.0	1300.0	1.0	1450.0	1.0	n/a	ITI
224649.0	500	n/a	-1	-1	500	0.0	fixation	poldrack-single-stim	273	729162	0.0-9.38-0.38	beast_fmri_test	303	12.144866666666667	t	<div class = centerbox><div class = fixation>+</div></div>	none	500.0	test	n/a	n/a	n/a	n/a	n/a	n/a	n/a	n/a	n/a	n/a	n/a	n/a	n/a	n/a	n/a	n/a	n/a	n/a	fixation
223080.97727012786	2750	n/a	1843	71	2750	1571.02272987	stim	stop-signal	274	731915	0.0-9.38-1.38	beast_fmri_test	303	12.156216666666667,12.16755,12.178883333333333,12.1902,12.201516666666667,12.21285,12.224183333333333	t,t,t,t,t,t,t	<img class = center src='/static/experiments/beast_fmri_test/images/D.png'></img>	71,89	2750.0	test	<img class = center src='/static/experiments/beast_fmri_test/images/redD.png'></img>	go	1550.0	2.0	38.0	go	target	D	71,Green Button	89,Yellow Button	1200.0	1450.0	1550.0	1300.0	1.0	1200.0	1.0	n/a	go_stim
225830.97727012786	1571.0227298721384	n/a	1843	71	2750	1571.02272987	stim	stop-signal	274	731915	0.0-9.38-1.38	beast_fmri_test	303	12.156216666666667,12.16755,12.178883333333333,12.1902,12.201516666666667,12.21285,12.224183333333333	t,t,t,t,t,t,t	<img class = center src='/static/experiments/beast_fmri_test/images/D.png'></img>	71,89	2750.0	test	<img class = center src='/static/experiments/beast_fmri_test/images/redD.png'></img>	go	1550.0	2.0	38.0	go	target	D	71,Green Button	89,Yellow Button	1200.0	1450.0	1550.0	1300.0	1.0	1200.0	1.0	n/a	ITI
229501.0	500	n/a	-1	-1	500	0.0	fixation	poldrack-single-stim	275	734014	0.0-9.39-0.39	beast_fmri_test	303	n/a	n/a	<div class = centerbox><div class = fixation>+</div></div>	none	500.0	test	n/a	n/a	n/a	n/a	n/a	n/a	n/a	n/a	n/a	n/a	n/a	n/a	n/a	n/a	n/a	n/a	n/a	n/a	fixation
228365.7608561354	2750	n/a	1711	89	2750	1137.23914386	stim	stop-signal	276	736766	0.0-9.39-1.39	beast_fmri_test	303	12.235516666666667,12.24685,12.258166666666666,12.2695,12.280816666666666,12.29215	t,t,t,t,t,t	<img class = center src='/static/experiments/beast_fmri_test/images/P.png'></img>	71,89	2750.0	test	<img class = center src='/static/experiments/beast_fmri_test/images/redP.png'></img>	go	1300.0	2.0	39.0	go	non-target	P	71,Green Button	89,Yellow Button	1200.0	1450.0	1550.0	1300.0	1.0	1450.0	1.0	n/a	go_stim
231115.7608561354	1137.2391438646068	n/a	1711	89	2750	1137.23914386	stim	stop-signal	276	736766	0.0-9.39-1.39	beast_fmri_test	303	12.235516666666667,12.24685,12.258166666666666,12.2695,12.280816666666666,12.29215	t,t,t,t,t,t	<img class = center src='/static/experiments/beast_fmri_test/images/P.png'></img>	71,89	2750.0	test	<img class = center src='/static/experiments/beast_fmri_test/images/redP.png'></img>	go	1300.0	2.0	39.0	go	non-target	P	71,Green Button	89,Yellow Button	1200.0	1450.0	1550.0	1300.0	1.0	1450.0	1.0	n/a	ITI
233916.0	500	n/a	-1	-1	500	0.0	fixation	poldrack-single-stim	277	738429	0.0-9.40-0.40	beast_fmri_test	303	12.303466666666667	t	<div class = centerbox><div class = fixation>+</div></div>	none	500.0	test	n/a	n/a	n/a	n/a	n/a	n/a	n/a	n/a	n/a	n/a	n/a	n/a	n/a	n/a	n/a	n/a	n/a	n/a	fixation
233824.84398249479	2750	n/a	1714	89	2750	93.1560175053	stim	stop-signal	278	741181	0.0-9.40-1.40	beast_fmri_test	303	12.3148,12.326133333333333,12.33745,12.348783333333333	t,t,t,t	<img class = center src='/static/experiments/beast_fmri_test/images/P.png'></img>	71,89	2750.0	test	<img class = center src='/static/experiments/beast_fmri_test/images/redP.png'></img>	go	1300.0	2.0	40.0	go	non-target	P	71,Green Button	89,Yellow Button	1200.0	1450.0	1550.0	1300.0	1.0	1450.0	1.0	n/a	go_stim
236574.84398249479	93.15601750525164	n/a	1714	89	2750	93.1560175053	stim	stop-signal	278	741181	0.0-9.40-1.40	beast_fmri_test	303	12.3148,12.326133333333333,12.33745,12.348783333333333	t,t,t,t	<img class = center src='/static/experiments/beast_fmri_test/images/P.png'></img>	71,89	2750.0	test	<img class = center src='/static/experiments/beast_fmri_test/images/redP.png'></img>	go	1300.0	2.0	40.0	go	non-target	P	71,Green Button	89,Yellow Button	1200.0	1450.0	1550.0	1300.0	1.0	1450.0	1.0	n/a	ITI
237290.0	500	n/a	-1	-1	500	0.0	fixation	poldrack-single-stim	279	741803	0.0-9.41-0.41	beast_fmri_test	303	12.360133333333334	t	<div class = centerbox><div class = fixation>+</div></div>	none	500.0	test	n/a	n/a	n/a	n/a	n/a	n/a	n/a	n/a	n/a	n/a	n/a	n/a	n/a	n/a	n/a	n/a	n/a	n/a	fixation
236919.90948460519	1450.0	n/a	-1	-1	2750	371.090515395	stim	stop-signal	280	744554	0.0-9.41-1.41	beast_fmri_test	303	12.37145,12.382766666666667,12.3941,12.405433333333333	t,t,t,t	<img class = center src='/static/experiments/beast_fmri_test/images/D.png'></img>	71,89	2750.0	test	<img class = center src='/static/experiments/beast_fmri_test/images/redD.png'></img>	stop	1300.0	2.0	41.0	stop	non-target	D	71,Green Button	89,Yellow Button	1200.0	1450.0	1550.0	1300.0	0.0	1450.0	0.0	1.0	go_stim
238219.90948460519	1300.0	n/a	-1	-1	2750	371.090515395	stim	stop-signal	280	744554	0.0-9.41-1.41	beast_fmri_test	303	12.37145,12.382766666666667,12.3941,12.405433333333333	t,t,t,t	<img class = center src='/static/experiments/beast_fmri_test/images/D.png'></img>	71,89	2750.0	test	<img class = center src='/static/experiments/beast_fmri_test/images/redD.png'></img>	stop	1300.0	2.0	41.0	stop	non-target	D	71,Green Button	89,Yellow Button	1200.0	1450.0	1550.0	1300.0	0.0	1450.0	0.0	1.0	stop_stim
239669.90948460519	371.09051539480851	n/a	-1	-1	2750	371.090515395	stim	stop-signal	280	744554	0.0-9.41-1.41	beast_fmri_test	303	12.37145,12.382766666666667,12.3941,12.405433333333333	t,t,t,t	<img class = center src='/static/experiments/beast_fmri_test/images/D.png'></img>	71,89	2750.0	test	<img class = center src='/static/experiments/beast_fmri_test/images/redD.png'></img>	stop	1300.0	2.0	41.0	stop	non-target	D	71,Green Button	89,Yellow Button	1200.0	1450.0	1550.0	1300.0	0.0	1450.0	0.0	1.0	ITI
240941.0	500	n/a	-1	-1	500	0.0	fixation	poldrack-single-stim	281	745454	0.0-9.42-0.42	beast_fmri_test	303	12.416766666666666	t	<div class = centerbox><div class = fixation>+</div></div>	none	500.0	test	n/a	n/a	n/a	n/a	n/a	n/a	n/a	n/a	n/a	n/a	n/a	n/a	n/a	n/a	n/a	n/a	n/a	n/a	fixation
238830.86402942275	1500.0	n/a	-1	-1	2750	2112.13597058	stim	stop-signal	282	748206	0.0-9.42-1.42	beast_fmri_test	303	12.428083333333333,12.439416666666666,12.45075,12.462066666666667,12.473383333333333,12.484733333333333,12.49605	t,t,t,t,t,t,t	<img class = center src='/static/experiments/beast_fmri_test/images/D.png'></img>	71,89	2750.0	test	<img class = center src='/static/experiments/beast_fmri_test/images/redD.png'></img>	stop	1250.0	2.0	42.0	stop	non-target	D	71,Green Button	89,Yellow Button	1200.0	1500.0	1550.0	1250.0	0.0	1500.0	0.0	1.0	go_stim
240080.86402942275	1250.0	n/a	-1	-1	2750	2112.13597058	stim	stop-signal	282	748206	0.0-9.42-1.42	beast_fmri_test	303	12.428083333333333,12.439416666666666,12.45075,12.462066666666667,12.473383333333333,12.484733333333333,12.49605	t,t,t,t,t,t,t	<img class = center src='/static/experiments/beast_fmri_test/images/D.png'></img>	71,89	2750.0	test	<img class = center src='/static/experiments/beast_fmri_test/images/redD.png'></img>	stop	1250.0	2.0	42.0	stop	non-target	D	71,Green Button	89,Yellow Button	1200.0	1500.0	1550.0	1250.0	0.0	1500.0	0.0	1.0	stop_stim
241580.86402942275	2112.1359705772456	n/a	-1	-1	2750	2112.13597058	stim	stop-signal	282	748206	0.0-9.42-1.42	beast_fmri_test	303	12.428083333333333,12.439416666666666,12.45075,12.462066666666667,12.473383333333333,12.484733333333333,12.49605	t,t,t,t,t,t,t	<img class = center src='/static/experiments/beast_fmri_test/images/D.png'></img>	71,89	2750.0	test	<img class = center src='/static/experiments/beast_fmri_test/images/redD.png'></img>	stop	1250.0	2.0	42.0	stop	non-target	D	71,Green Button	89,Yellow Button	1200.0	1500.0	1550.0	1250.0	0.0	1500.0	0.0	1.0	ITI
246332.0	500	n/a	-1	-1	500	0.0	fixation	poldrack-single-stim	283	750845	0.0-9.43-0.43	beast_fmri_test	303	12.507383333333333	t	<div class = centerbox><div class = fixation>+</div></div>	none	500.0	test	n/a	n/a	n/a	n/a	n/a	n/a	n/a	n/a	n/a	n/a	n/a	n/a	n/a	n/a	n/a	n/a	n/a	n/a	fixation
245517.28470024455	2750	n/a	1869	89	2750	816.715299755	stim	stop-signal	284	753597	0.0-9.43-1.43	beast_fmri_test	303	12.5187,12.53005,12.541366666666667,12.5527,12.564016666666667	t,t,t,t,t	<img class = center src='/static/experiments/beast_fmri_test/images/P.png'></img>	71,89	2750.0	test	<img class = center src='/static/experiments/beast_fmri_test/images/redP.png'></img>	go	1250.0	2.0	43.0	go	non-target	P	71,Green Button	89,Yellow Button	1200.0	1500.0	1550.0	1250.0	1.0	1500.0	1.0	n/a	go_stim
248267.28470024455	816.71529975541978	n/a	1869	89	2750	816.715299755	stim	stop-signal	284	753597	0.0-9.43-1.43	beast_fmri_test	303	12.5187,12.53005,12.541366666666667,12.5527,12.564016666666667	t,t,t,t,t	<img class = center src='/static/experiments/beast_fmri_test/images/P.png'></img>	71,89	2750.0	test	<img class = center src='/static/experiments/beast_fmri_test/images/redP.png'></img>	go	1250.0	2.0	43.0	go	non-target	P	71,Green Button	89,Yellow Button	1200.0	1500.0	1550.0	1250.0	1.0	1500.0	1.0	n/a	ITI
250429.0	500	n/a	-1	-1	500	0.0	fixation	poldrack-single-stim	285	754942	0.0-9.44-0.44	beast_fmri_test	303	12.57535	t	<div class = centerbox><div class = fixation>+</div></div>	none	500.0	test	n/a	n/a	n/a	n/a	n/a	n/a	n/a	n/a	n/a	n/a	n/a	n/a	n/a	n/a	n/a	n/a	n/a	n/a	fixation
249977.06078596355	1500.0	n/a	1966	89	2750	453.939214036	stim	stop-signal	286	757694	0.0-9.44-1.44	beast_fmri_test	303	12.5867,12.598016666666666,12.609333333333334,12.620666666666667,12.632	t,t,t,t,t	<img class = center src='/static/experiments/beast_fmri_test/images/P.png'></img>	71,89	2750.0	test	<img class = center src='/static/experiments/beast_fmri_test/images/redP.png'></img>	stop	1250.0	2.0	44.0	stop	non-target	P	71,Green Button	89,Yellow Button	1200.0	1500.0	1550.0	1250.0	0.0	1500.0	1.0	0.0	go_stim
251227.06078596355	1250.0	n/a	1966	89	2750	453.939214036	stim	stop-signal	286	757694	0.0-9.44-1.44	beast_fmri_test	303	12.5867,12.598016666666666,12.609333333333334,12.620666666666667,12.632	t,t,t,t,t	<img class = center src='/static/experiments/beast_fmri_test/images/P.png'></img>	71,89	2750.0	test	<img class = center src='/static/experiments/beast_fmri_test/images/redP.png'></img>	stop	1250.0	2.0	44.0	stop	non-target	P	71,Green Button	89,Yellow Button	1200.0	1500.0	1550.0	1250.0	0.0	1500.0	1.0	0.0	stop_stim
252727.06078596355	453.93921403648176	n/a	1966	89	2750	453.939214036	stim	stop-signal	286	757694	0.0-9.44-1.44	beast_fmri_test	303	12.5867,12.598016666666666,12.609333333333334,12.620666666666667,12.632	t,t,t,t,t	<img class = center src='/static/experiments/beast_fmri_test/images/P.png'></img>	71,89	2750.0	test	<img class = center src='/static/experiments/beast_fmri_test/images/redP.png'></img>	stop	1250.0	2.0	44.0	stop	non-target	P	71,Green Button	89,Yellow Button	1200.0	1500.0	1550.0	1250.0	0.0	1500.0	1.0	0.0	ITI
254163.0	500	n/a	-1	-1	500	0.0	fixation	poldrack-single-stim	287	758676	0.0-9.45-0.45	beast_fmri_test	303	12.643333333333333	t	<div class = centerbox><div class = fixation>+</div></div>	none	500.0	test	n/a	n/a	n/a	n/a	n/a	n/a	n/a	n/a	n/a	n/a	n/a	n/a	n/a	n/a	n/a	n/a	n/a	n/a	fixation
252496.73686116596	1200.0	n/a	-1	-1	2750	1668.26313883	stim	stop-signal	288	761428	0.0-9.45-1.45	beast_fmri_test	303	12.65465,12.665983333333333,12.677316666666666,12.688616666666666,12.699966666666667,12.7113	t,t,t,t,t,t	<img class = center src='/static/experiments/beast_fmri_test/images/P.png'></img>	71,89	2750.0	test	<img class = center src='/static/experiments/beast_fmri_test/images/redP.png'></img>	stop	1550.0	2.0	45.0	stop	target	P	71,Green Button	89,Yellow Button	1200.0	1450.0	1550.0	1250.0	0.0	1200.0	0.0	1.0	go_stim
254046.73686116596	1550.0	n/a	-1	-1	2750	1668.26313883	stim	stop-signal	288	761428	0.0-9.45-1.45	beast_fmri_test	303	12.65465,12.665983333333333,12.677316666666666,12.688616666666666,12.699966666666667,12.7113	t,t,t,t,t,t	<img class = center src='/static/experiments/beast_fmri_test/images/P.png'></img>	71,89	2750.0	test	<img class = center src='/static/experiments/beast_fmri_test/images/redP.png'></img>	stop	1550.0	2.0	45.0	stop	target	P	71,Green Button	89,Yellow Button	1200.0	1450.0	1550.0	1250.0	0.0	1200.0	0.0	1.0	stop_stim
255246.73686116596	1668.263138834064	n/a	-1	-1	2750	1668.26313883	stim	stop-signal	288	761428	0.0-9.45-1.45	beast_fmri_test	303	12.65465,12.665983333333333,12.677316666666666,12.688616666666666,12.699966666666667,12.7113	t,t,t,t,t,t	<img class = center src='/static/experiments/beast_fmri_test/images/P.png'></img>	71,89	2750.0	test	<img class = center src='/static/experiments/beast_fmri_test/images/redP.png'></img>	stop	1550.0	2.0	45.0	stop	target	P	71,Green Button	89,Yellow Button	1200.0	1450.0	1550.0	1250.0	0.0	1200.0	0.0	1.0	ITI
259111.0	500	n/a	-1	-1	500	0.0	fixation	poldrack-single-stim	289	763624	0.0-9.46-0.46	beast_fmri_test	303	12.722616666666667	t	<div class = centerbox><div class = fixation>+</div></div>	none	500.0	test	n/a	n/a	n/a	n/a	n/a	n/a	n/a	n/a	n/a	n/a	n/a	n/a	n/a	n/a	n/a	n/a	n/a	n/a	fixation
255010.01866306062	2750	n/a	2267	89	2750	4102.98133694	stim	stop-signal	290	766376	0.0-9.46-1.46	beast_fmri_test	303	12.73395,12.745266666666666,12.7566,12.767933333333334,12.77925,12.790583333333334,12.801916666666667,12.813233333333333,12.824566666666666,12.8359	t,t,t,t,t,t,t,t,t,t	<img class = center src='/static/experiments/beast_fmri_test/images/D.png'></img>	71,89	2750.0	test	<img class = center src='/static/experiments/beast_fmri_test/images/redD.png'></img>	go	1300.0	2.0	46.0	go	non-target	D	71,Green Button	89,Yellow Button	1250.0	1450.0	1550.0	1300.0	1.0	1450.0	1.0	n/a	go_stim
257760.01866306062	4102.9813369394124	n/a	2267	89	2750	4102.98133694	stim	stop-signal	290	766376	0.0-9.46-1.46	beast_fmri_test	303	12.73395,12.745266666666666,12.7566,12.767933333333334,12.77925,12.790583333333334,12.801916666666667,12.813233333333333,12.824566666666666,12.8359	t,t,t,t,t,t,t,t,t,t	<img class = center src='/static/experiments/beast_fmri_test/images/D.png'></img>	71,89	2750.0	test	<img class = center src='/static/experiments/beast_fmri_test/images/redD.png'></img>	go	1300.0	2.0	46.0	go	non-target	D	71,Green Button	89,Yellow Button	1250.0	1450.0	1550.0	1300.0	1.0	1450.0	1.0	n/a	ITI
280986.0	15000	n/a	-1	-1	15000	0.0	practice-no-stop-feedback	poldrack-single-stim	291	785499	0.0-10.0	beast_fmri_test	303	12.847216666666666,12.85855,12.869883333333334,12.881216666666667,12.892533333333333,12.90385,12.9152,12.926516666666666,12.937833333333334,12.949183333333334,12.960483333333332,12.971833333333333,12.98315,12.994483333333333,13.005816666666666,13.017166666666666,13.028466666666667,13.039816666666667,13.051133333333333,13.06245,13.073783333333333,13.085116666666666	t,t,t,t,t,t,t,t,t,t,t,t,t,t,t,t,t,t,t,t,t,t	"<div class = ""centerbox""><p class = ""center-block-text"">Your delay is 2 trials.</p><p class = center-block-text>Please wait for the scanner to start the block</p></div>"	77	15000.0	n/a	n/a	n/a	n/a	n/a	n/a	n/a	n/a	n/a	n/a	n/a	n/a	n/a	n/a	n/a	n/a	n/a	n/a	n/a	practice-no-stop-feedback
281489.0	500	n/a	-1	-1	500	0.0	fixation	poldrack-single-stim	292	786002	0.0-11.0-0.0	beast_fmri_test	303	13.09645	t	<div class = centerbox><div class = fixation>+</div></div>	none	500.0	test	n/a	n/a	n/a	n/a	n/a	n/a	n/a	n/a	n/a	n/a	n/a	n/a	n/a	n/a	n/a	n/a	n/a	n/a	fixation
280250.19379150087	temp_go_duration	n/a	943	89	2750	1239.8062085	stim	stop-signal	293	788753	0.0-11.0-1.0	beast_fmri_test	303	13.107783333333334,13.1191,13.130433333333333,13.141733333333333,13.153083333333333,13.164416666666666	t,t,t,t,t,t	<img class = center src='/static/experiments/beast_fmri_test/images/D.png'></img>	71,89	2750.0	test	<img class = center src='/static/experiments/beast_fmri_test/images/redD.png'></img>	stop	-1.0	2.0	0.0	stop	temp-non-target	D	71,Green Button	89,Yellow Button	1250.0	1450.0	1550.0	1300.0	0.0	n/a	n/a	0.0	go_stim
temp-non-target	temp_stop_duration	n/a	943	89	2750	1239.8062085	stim	stop-signal	293	788753	0.0-11.0-1.0	beast_fmri_test	303	13.107783333333334,13.1191,13.130433333333333,13.141733333333333,13.153083333333333,13.164416666666666	t,t,t,t,t,t	<img class = center src='/static/experiments/beast_fmri_test/images/D.png'></img>	71,89	2750.0	test	<img class = center src='/static/experiments/beast_fmri_test/images/redD.png'></img>	stop	-1.0	2.0	0.0	stop	temp-non-target	D	71,Green Button	89,Yellow Button	1250.0	1450.0	1550.0	1300.0	0.0	n/a	n/a	0.0	stop_stim
283000.19379150087	1239.8062084991639	n/a	943	89	2750	1239.8062085	stim	stop-signal	293	788753	0.0-11.0-1.0	beast_fmri_test	303	13.107783333333334,13.1191,13.130433333333333,13.141733333333333,13.153083333333333,13.164416666666666	t,t,t,t,t,t	<img class = center src='/static/experiments/beast_fmri_test/images/D.png'></img>	71,89	2750.0	test	<img class = center src='/static/experiments/beast_fmri_test/images/redD.png'></img>	stop	-1.0	2.0	0.0	stop	temp-non-target	D	71,Green Button	89,Yellow Button	1250.0	1450.0	1550.0	1300.0	0.0	n/a	n/a	0.0	ITI
286009.0	500	n/a	-1	-1	500	0.0	fixation	poldrack-single-stim	294	790522	0.0-11.1-0.1	beast_fmri_test	303	n/a	n/a	<div class = centerbox><div class = fixation>+</div></div>	none	500.0	test	n/a	n/a	n/a	n/a	n/a	n/a	n/a	n/a	n/a	n/a	n/a	n/a	n/a	n/a	n/a	n/a	n/a	n/a	fixation
282735.14234368841	2750	n/a	781	89	2750	3274.85765631	stim	stop-signal	295	793273	0.0-11.1-1.1	beast_fmri_test	303	13.175766666666666,13.187066666666666,13.1984,13.209716666666667,13.22105,13.232383333333333,13.243683333333333,13.255033333333333,13.26635	t,t,t,t,t,t,t,t,t	<img class = center src='/static/experiments/beast_fmri_test/images/T.png'></img>	71,89	2750.0	test	<img class = center src='/static/experiments/beast_fmri_test/images/redT.png'></img>	go	-1.0	2.0	1.0	go	temp-non-target	T	71,Green Button	89,Yellow Button	1250.0	1450.0	1550.0	1300.0	0.0	n/a	n/a	n/a	go_stim
285485.14234368841	3274.8576563116053	n/a	781	89	2750	3274.85765631	stim	stop-signal	295	793273	0.0-11.1-1.1	beast_fmri_test	303	13.175766666666666,13.187066666666666,13.1984,13.209716666666667,13.22105,13.232383333333333,13.243683333333333,13.255033333333333,13.26635	t,t,t,t,t,t,t,t,t	<img class = center src='/static/experiments/beast_fmri_test/images/T.png'></img>	71,89	2750.0	test	<img class = center src='/static/experiments/beast_fmri_test/images/redT.png'></img>	go	-1.0	2.0	1.0	go	temp-non-target	T	71,Green Button	89,Yellow Button	1250.0	1450.0	1550.0	1300.0	0.0	n/a	n/a	n/a	ITI
292563.0	500	n/a	-1	-1	500	0.0	fixation	poldrack-single-stim	296	797076	0.0-11.2-0.2	beast_fmri_test	303	13.277683333333334	t	<div class = centerbox><div class = fixation>+</div></div>	none	500.0	test	n/a	n/a	n/a	n/a	n/a	n/a	n/a	n/a	n/a	n/a	n/a	n/a	n/a	n/a	n/a	n/a	n/a	n/a	fixation
292422.42349178577	2750	n/a	1537	71	2750	141.576508214	stim	stop-signal	297	799827	0.0-11.2-1.2	beast_fmri_test	303	13.289016666666667,13.30035,13.311666666666667,13.323	t,t,t,t	<img class = center src='/static/experiments/beast_fmri_test/images/D.png'></img>	71,89	2750.0	test	<img class = center src='/static/experiments/beast_fmri_test/images/redD.png'></img>	go	1500.0	2.0	2.0	go	target	D	71,Green Button	89,Yellow Button	1250.0	1450.0	1500.0	1300.0	1.0	1250.0	1.0	n/a	go_stim
295172.42349178577	141.5765082142519	n/a	1537	71	2750	141.576508214	stim	stop-signal	297	799827	0.0-11.2-1.2	beast_fmri_test	303	13.289016666666667,13.30035,13.311666666666667,13.323	t,t,t,t	<img class = center src='/static/experiments/beast_fmri_test/images/D.png'></img>	71,89	2750.0	test	<img class = center src='/static/experiments/beast_fmri_test/images/redD.png'></img>	go	1500.0	2.0	2.0	go	target	D	71,Green Button	89,Yellow Button	1250.0	1450.0	1500.0	1300.0	1.0	1250.0	1.0	n/a	ITI
295986.0	500	n/a	-1	-1	500	0.0	fixation	poldrack-single-stim	298	800499	0.0-11.3-0.3	beast_fmri_test	303	13.334333333333333	t	<div class = centerbox><div class = fixation>+</div></div>	none	500.0	test	n/a	n/a	n/a	n/a	n/a	n/a	n/a	n/a	n/a	n/a	n/a	n/a	n/a	n/a	n/a	n/a	n/a	n/a	fixation
294740.93785646046	2750	n/a	1386	89	2750	1247.06214354	stim	stop-signal	299	803251	0.0-11.3-1.3	beast_fmri_test	303	13.345666666666666,13.356983333333334,13.368316666666667,13.379633333333333,13.390966666666667,13.402266666666666	t,t,t,t,t,t	<img class = center src='/static/experiments/beast_fmri_test/images/B.png'></img>	71,89	2750.0	test	<img class = center src='/static/experiments/beast_fmri_test/images/redB.png'></img>	go	1300.0	2.0	3.0	go	non-target	B	71,Green Button	89,Yellow Button	1250.0	1450.0	1500.0	1300.0	1.0	1450.0	1.0	n/a	go_stim
297490.93785646046	1247.0621435394939	n/a	1386	89	2750	1247.06214354	stim	stop-signal	299	803251	0.0-11.3-1.3	beast_fmri_test	303	13.345666666666666,13.356983333333334,13.368316666666667,13.379633333333333,13.390966666666667,13.402266666666666	t,t,t,t,t,t	<img class = center src='/static/experiments/beast_fmri_test/images/B.png'></img>	71,89	2750.0	test	<img class = center src='/static/experiments/beast_fmri_test/images/redB.png'></img>	go	1300.0	2.0	3.0	go	non-target	B	71,Green Button	89,Yellow Button	1250.0	1450.0	1500.0	1300.0	1.0	1450.0	1.0	n/a	ITI
300515.0	500	n/a	-1	-1	500	0.0	fixation	poldrack-single-stim	300	805028	0.0-11.4-0.4	beast_fmri_test	303	13.413616666666666	t	<div class = centerbox><div class = fixation>+</div></div>	none	500.0	test	n/a	n/a	n/a	n/a	n/a	n/a	n/a	n/a	n/a	n/a	n/a	n/a	n/a	n/a	n/a	n/a	n/a	n/a	fixation
299583.71965007647	2750	n/a	1280	89	2750	931.280349924	stim	stop-signal	301	807778	0.0-11.4-1.4	beast_fmri_test	303	13.42495,13.436283333333334,13.447616666666667,13.458933333333333,13.470266666666667	t,t,t,t,t	<img class = center src='/static/experiments/beast_fmri_test/images/V.png'></img>	71,89	2750.0	test	<img class = center src='/static/experiments/beast_fmri_test/images/redV.png'></img>	go	1300.0	2.0	4.0	go	non-target	V	71,Green Button	89,Yellow Button	1250.0	1450.0	1500.0	1300.0	1.0	1450.0	1.0	n/a	go_stim
302333.71965007647	931.28034992353764	n/a	1280	89	2750	931.280349924	stim	stop-signal	301	807778	0.0-11.4-1.4	beast_fmri_test	303	13.42495,13.436283333333334,13.447616666666667,13.458933333333333,13.470266666666667	t,t,t,t,t	<img class = center src='/static/experiments/beast_fmri_test/images/V.png'></img>	71,89	2750.0	test	<img class = center src='/static/experiments/beast_fmri_test/images/redV.png'></img>	go	1300.0	2.0	4.0	go	non-target	V	71,Green Button	89,Yellow Button	1250.0	1450.0	1500.0	1300.0	1.0	1450.0	1.0	n/a	ITI
304725.0	500	n/a	-1	-1	500	0.0	fixation	poldrack-single-stim	302	809238	0.0-11.5-0.5	beast_fmri_test	303	13.481616666666667	t	<div class = centerbox><div class = fixation>+</div></div>	none	500.0	test	n/a	n/a	n/a	n/a	n/a	n/a	n/a	n/a	n/a	n/a	n/a	n/a	n/a	n/a	n/a	n/a	n/a	n/a	fixation
304158.53692257858	1450.0	n/a	-1	-1	2750	567.463077421	stim	stop-signal	303	811989	0.0-11.5-1.5	beast_fmri_test	303	13.492916666666666,13.50425,13.5156,13.526916666666667,13.538233333333332	t,t,t,t,t	<img class = center src='/static/experiments/beast_fmri_test/images/V.png'></img>	71,89	2750.0	test	<img class = center src='/static/experiments/beast_fmri_test/images/redV.png'></img>	stop	1300.0	2.0	5.0	stop	non-target	V	71,Green Button	89,Yellow Button	1250.0	1450.0	1500.0	1300.0	0.0	1450.0	0.0	1.0	go_stim
305458.53692257858	1300.0	n/a	-1	-1	2750	567.463077421	stim	stop-signal	303	811989	0.0-11.5-1.5	beast_fmri_test	303	13.492916666666666,13.50425,13.5156,13.526916666666667,13.538233333333332	t,t,t,t,t	<img class = center src='/static/experiments/beast_fmri_test/images/V.png'></img>	71,89	2750.0	test	<img class = center src='/static/experiments/beast_fmri_test/images/redV.png'></img>	stop	1300.0	2.0	5.0	stop	non-target	V	71,Green Button	89,Yellow Button	1250.0	1450.0	1500.0	1300.0	0.0	1450.0	0.0	1.0	stop_stim
306908.53692257858	567.46307742140061	n/a	-1	-1	2750	567.463077421	stim	stop-signal	303	811989	0.0-11.5-1.5	beast_fmri_test	303	13.492916666666666,13.50425,13.5156,13.526916666666667,13.538233333333332	t,t,t,t,t	<img class = center src='/static/experiments/beast_fmri_test/images/V.png'></img>	71,89	2750.0	test	<img class = center src='/static/experiments/beast_fmri_test/images/redV.png'></img>	stop	1300.0	2.0	5.0	stop	non-target	V	71,Green Button	89,Yellow Button	1250.0	1450.0	1500.0	1300.0	0.0	1450.0	0.0	1.0	ITI
308574.0	500	n/a	-1	-1	500	0.0	fixation	poldrack-single-stim	304	813087	0.0-11.6-0.6	beast_fmri_test	303	13.549583333333333	t	<div class = centerbox><div class = fixation>+</div></div>	none	500.0	test	n/a	n/a	n/a	n/a	n/a	n/a	n/a	n/a	n/a	n/a	n/a	n/a	n/a	n/a	n/a	n/a	n/a	n/a	fixation
307942.72074411204	2750	n/a	1437	89	2750	632.279255888	stim	stop-signal	305	815838	0.0-11.6-1.6	beast_fmri_test	303	13.560883333333333,13.572233333333333,13.58355,13.594866666666666,13.606216666666667	t,t,t,t,t	<img class = center src='/static/experiments/beast_fmri_test/images/D.png'></img>	71,89	2750.0	test	<img class = center src='/static/experiments/beast_fmri_test/images/redD.png'></img>	go	1250.0	2.0	6.0	go	non-target	D	71,Green Button	89,Yellow Button	1250.0	1500.0	1500.0	1250.0	1.0	1500.0	1.0	n/a	go_stim
310692.72074411204	632.27925588791095	n/a	1437	89	2750	632.279255888	stim	stop-signal	305	815838	0.0-11.6-1.6	beast_fmri_test	303	13.560883333333333,13.572233333333333,13.58355,13.594866666666666,13.606216666666667	t,t,t,t,t	<img class = center src='/static/experiments/beast_fmri_test/images/D.png'></img>	71,89	2750.0	test	<img class = center src='/static/experiments/beast_fmri_test/images/redD.png'></img>	go	1250.0	2.0	6.0	go	non-target	D	71,Green Button	89,Yellow Button	1250.0	1500.0	1500.0	1250.0	1.0	1500.0	1.0	n/a	ITI
312491.0	500	n/a	-1	-1	500	0.0	fixation	poldrack-single-stim	306	817004	0.0-11.7-0.7	beast_fmri_test	303	n/a	n/a	<div class = centerbox><div class = fixation>+</div></div>	none	500.0	test	n/a	n/a	n/a	n/a	n/a	n/a	n/a	n/a	n/a	n/a	n/a	n/a	n/a	n/a	n/a	n/a	n/a	n/a	fixation
312218.18946146849	2750	n/a	2129	71	2750	274.810538531	stim	stop-signal	307	819756	0.0-11.7-1.7	beast_fmri_test	303	13.617516666666667,13.628866666666667,13.640183333333333,13.651533333333333,13.662833333333333	t,t,t,t,t	<img class = center src='/static/experiments/beast_fmri_test/images/V.png'></img>	71,89	2750.0	test	<img class = center src='/static/experiments/beast_fmri_test/images/redV.png'></img>	go	1500.0	2.0	7.0	go	target	V	71,Green Button	89,Yellow Button	1250.0	1500.0	1500.0	1250.0	1.0	1250.0	1.0	n/a	go_stim
314968.18946146849	274.81053853149012	n/a	2129	71	2750	274.810538531	stim	stop-signal	307	819756	0.0-11.7-1.7	beast_fmri_test	303	13.617516666666667,13.628866666666667,13.640183333333333,13.651533333333333,13.662833333333333	t,t,t,t,t	<img class = center src='/static/experiments/beast_fmri_test/images/V.png'></img>	71,89	2750.0	test	<img class = center src='/static/experiments/beast_fmri_test/images/redV.png'></img>	go	1500.0	2.0	7.0	go	target	V	71,Green Button	89,Yellow Button	1250.0	1500.0	1500.0	1250.0	1.0	1250.0	1.0	n/a	ITI
316047.0	500	n/a	-1	-1	500	0.0	fixation	poldrack-single-stim	308	820560	0.0-11.8-0.8	beast_fmri_test	303	13.674183333333334	t	<div class = centerbox><div class = fixation>+</div></div>	none	500.0	test	n/a	n/a	n/a	n/a	n/a	n/a	n/a	n/a	n/a	n/a	n/a	n/a	n/a	n/a	n/a	n/a	n/a	n/a	fixation
315571.77323138178	1500.0	n/a	1373	89	2750	477.226768618	stim	stop-signal	309	823312	0.0-11.8-1.8	beast_fmri_test	303	13.6855,13.696833333333334,13.708166666666667,13.719483333333333	t,t,t,t	<img class = center src='/static/experiments/beast_fmri_test/images/B.png'></img>	71,89	2750.0	test	<img class = center src='/static/experiments/beast_fmri_test/images/redB.png'></img>	stop	1250.0	2.0	8.0	stop	non-target	B	71,Green Button	89,Yellow Button	1250.0	1500.0	1500.0	1250.0	0.0	1500.0	1.0	0.0	go_stim
316821.77323138178	1250.0	n/a	1373	89	2750	477.226768618	stim	stop-signal	309	823312	0.0-11.8-1.8	beast_fmri_test	303	13.6855,13.696833333333334,13.708166666666667,13.719483333333333	t,t,t,t	<img class = center src='/static/experiments/beast_fmri_test/images/B.png'></img>	71,89	2750.0	test	<img class = center src='/static/experiments/beast_fmri_test/images/redB.png'></img>	stop	1250.0	2.0	8.0	stop	non-target	B	71,Green Button	89,Yellow Button	1250.0	1500.0	1500.0	1250.0	0.0	1500.0	1.0	0.0	stop_stim
318321.77323138178	477.22676861826585	n/a	1373	89	2750	477.226768618	stim	stop-signal	309	823312	0.0-11.8-1.8	beast_fmri_test	303	13.6855,13.696833333333334,13.708166666666667,13.719483333333333	t,t,t,t	<img class = center src='/static/experiments/beast_fmri_test/images/B.png'></img>	71,89	2750.0	test	<img class = center src='/static/experiments/beast_fmri_test/images/redB.png'></img>	stop	1250.0	2.0	8.0	stop	non-target	B	71,Green Button	89,Yellow Button	1250.0	1500.0	1500.0	1250.0	0.0	1500.0	1.0	0.0	ITI
319807.0	500	n/a	-1	-1	500	0.0	fixation	poldrack-single-stim	310	824320	0.0-11.9-0.9	beast_fmri_test	303	13.7308	t	<div class = centerbox><div class = fixation>+</div></div>	none	500.0	test	n/a	n/a	n/a	n/a	n/a	n/a	n/a	n/a	n/a	n/a	n/a	n/a	n/a	n/a	n/a	n/a	n/a	n/a	fixation
317305.47684057604	2750	n/a	2245	89	2750	2502.52315942	stim	stop-signal	311	827071	0.0-11.9-1.9	beast_fmri_test	303	13.74215,13.753466666666666,13.7648,13.77615,13.78745,13.798766666666667,13.810116666666667,13.821433333333333	t,t,t,t,t,t,t,t	<img class = center src='/static/experiments/beast_fmri_test/images/B.png'></img>	71,89	2750.0	test	<img class = center src='/static/experiments/beast_fmri_test/images/redB.png'></img>	go	1300.0	2.0	9.0	go	non-target	B	71,Green Button	89,Yellow Button	1250.0	1450.0	1500.0	1300.0	1.0	1450.0	1.0	n/a	go_stim
320055.47684057604	2502.5231594240022	n/a	2245	89	2750	2502.52315942	stim	stop-signal	311	827071	0.0-11.9-1.9	beast_fmri_test	303	13.74215,13.753466666666666,13.7648,13.77615,13.78745,13.798766666666667,13.810116666666667,13.821433333333333	t,t,t,t,t,t,t,t	<img class = center src='/static/experiments/beast_fmri_test/images/B.png'></img>	71,89	2750.0	test	<img class = center src='/static/experiments/beast_fmri_test/images/redB.png'></img>	go	1300.0	2.0	9.0	go	non-target	B	71,Green Button	89,Yellow Button	1250.0	1450.0	1500.0	1300.0	1.0	1450.0	1.0	n/a	ITI
325591.0	500	n/a	-1	-1	500	0.0	fixation	poldrack-single-stim	312	830104	0.0-11.10-0.10	beast_fmri_test	303	13.832766666666666	t	<div class = centerbox><div class = fixation>+</div></div>	none	500.0	test	n/a	n/a	n/a	n/a	n/a	n/a	n/a	n/a	n/a	n/a	n/a	n/a	n/a	n/a	n/a	n/a	n/a	n/a	fixation
324591.87480360293	2750	n/a	1680	89	2750	1000.1251964	stim	stop-signal	313	832855	0.0-11.10-1.10	beast_fmri_test	303	13.8441,13.855416666666667,13.86675,13.878066666666667,13.889416666666667	t,t,t,t,t	<img class = center src='/static/experiments/beast_fmri_test/images/P.png'></img>	71,89	2750.0	test	<img class = center src='/static/experiments/beast_fmri_test/images/redP.png'></img>	go	1300.0	2.0	10.0	go	non-target	P	71,Green Button	89,Yellow Button	1250.0	1450.0	1500.0	1300.0	1.0	1450.0	1.0	n/a	go_stim
327341.87480360293	1000.1251963970736	n/a	1680	89	2750	1000.1251964	stim	stop-signal	313	832855	0.0-11.10-1.10	beast_fmri_test	303	13.8441,13.855416666666667,13.86675,13.878066666666667,13.889416666666667	t,t,t,t,t	<img class = center src='/static/experiments/beast_fmri_test/images/P.png'></img>	71,89	2750.0	test	<img class = center src='/static/experiments/beast_fmri_test/images/redP.png'></img>	go	1300.0	2.0	10.0	go	non-target	P	71,Green Button	89,Yellow Button	1250.0	1450.0	1500.0	1300.0	1.0	1450.0	1.0	n/a	ITI
329872.0	500	n/a	-1	-1	500	0.0	fixation	poldrack-single-stim	314	834385	0.0-11.11-0.11	beast_fmri_test	303	13.900733333333333	t	<div class = centerbox><div class = fixation>+</div></div>	none	500.0	test	n/a	n/a	n/a	n/a	n/a	n/a	n/a	n/a	n/a	n/a	n/a	n/a	n/a	n/a	n/a	n/a	n/a	n/a	fixation
328233.83592521294	2750	n/a	-1	-1	2750	1640.16407479	stim	stop-signal	315	837137	0.0-11.11-1.11	beast_fmri_test	303	13.912066666666666,13.923383333333334,13.934716666666667,13.946066666666667,13.957366666666667,13.968716666666667	t,t,t,t,t,t	<img class = center src='/static/experiments/beast_fmri_test/images/P.png'></img>	71,89	2750.0	test	<img class = center src='/static/experiments/beast_fmri_test/images/redP.png'></img>	go	1300.0	2.0	11.0	go	non-target	P	71,Green Button	89,Yellow Button	1250.0	1450.0	1500.0	1300.0	0.0	1450.0	0.0	n/a	go_stim
330983.83592521294	1640.164074787062	n/a	-1	-1	2750	1640.16407479	stim	stop-signal	315	837137	0.0-11.11-1.11	beast_fmri_test	303	13.912066666666666,13.923383333333334,13.934716666666667,13.946066666666667,13.957366666666667,13.968716666666667	t,t,t,t,t,t	<img class = center src='/static/experiments/beast_fmri_test/images/P.png'></img>	71,89	2750.0	test	<img class = center src='/static/experiments/beast_fmri_test/images/redP.png'></img>	go	1300.0	2.0	11.0	go	non-target	P	71,Green Button	89,Yellow Button	1250.0	1450.0	1500.0	1300.0	0.0	1450.0	0.0	n/a	ITI
334798.0	500	n/a	-1	-1	500	0.0	fixation	poldrack-single-stim	316	839311	0.0-11.12-0.12	beast_fmri_test	303	13.98015	t	<div class = centerbox><div class = fixation>+</div></div>	none	500.0	test	n/a	n/a	n/a	n/a	n/a	n/a	n/a	n/a	n/a	n/a	n/a	n/a	n/a	n/a	n/a	n/a	n/a	n/a	fixation
334477.84288684151	2750	n/a	1955	71	2750	322.157113159	stim	stop-signal	317	842063	0.0-11.12-1.12	beast_fmri_test	303	13.991366666666666,14.0027,14.014016666666667,14.02535,14.03665	t,t,t,t,t	<img class = center src='/static/experiments/beast_fmri_test/images/P.png'></img>	71,89	2750.0	test	<img class = center src='/static/experiments/beast_fmri_test/images/redP.png'></img>	go	1500.0	2.0	12.0	go	target	P	71,Green Button	89,Yellow Button	1250.0	1450.0	1500.0	1300.0	1.0	1250.0	1.0	n/a	go_stim
337227.84288684151	322.15711315850615	n/a	1955	71	2750	322.157113159	stim	stop-signal	317	842063	0.0-11.12-1.12	beast_fmri_test	303	13.991366666666666,14.0027,14.014016666666667,14.02535,14.03665	t,t,t,t,t	<img class = center src='/static/experiments/beast_fmri_test/images/P.png'></img>	71,89	2750.0	test	<img class = center src='/static/experiments/beast_fmri_test/images/redP.png'></img>	go	1500.0	2.0	12.0	go	target	P	71,Green Button	89,Yellow Button	1250.0	1450.0	1500.0	1300.0	1.0	1250.0	1.0	n/a	ITI
338403.0	500	n/a	-1	-1	500	0.0	fixation	poldrack-single-stim	318	842916	0.0-11.13-0.13	beast_fmri_test	303	14.048016666666667	t	<div class = centerbox><div class = fixation>+</div></div>	none	500.0	test	n/a	n/a	n/a	n/a	n/a	n/a	n/a	n/a	n/a	n/a	n/a	n/a	n/a	n/a	n/a	n/a	n/a	n/a	fixation
336066.22191857942	2750	n/a	1869	89	2750	2338.77808142	stim	stop-signal	319	845668	0.0-11.13-1.13	beast_fmri_test	303	14.059333333333333,14.070666666666666,14.082,14.093316666666666,14.104633333333334,14.115983333333334,14.1273	t,t,t,t,t,t,t	<img class = center src='/static/experiments/beast_fmri_test/images/D.png'></img>	71,89	2750.0	test	<img class = center src='/static/experiments/beast_fmri_test/images/redD.png'></img>	go	1300.0	2.0	13.0	go	non-target	D	71,Green Button	89,Yellow Button	1250.0	1450.0	1500.0	1300.0	1.0	1450.0	1.0	n/a	go_stim
338816.22191857942	2338.7780814205303	n/a	1869	89	2750	2338.77808142	stim	stop-signal	319	845668	0.0-11.13-1.13	beast_fmri_test	303	14.059333333333333,14.070666666666666,14.082,14.093316666666666,14.104633333333334,14.115983333333334,14.1273	t,t,t,t,t,t,t	<img class = center src='/static/experiments/beast_fmri_test/images/D.png'></img>	71,89	2750.0	test	<img class = center src='/static/experiments/beast_fmri_test/images/redD.png'></img>	go	1300.0	2.0	13.0	go	non-target	D	71,Green Button	89,Yellow Button	1250.0	1450.0	1500.0	1300.0	1.0	1450.0	1.0	n/a	ITI
344024.0	500	n/a	-1	-1	500	0.0	fixation	poldrack-single-stim	320	848537	0.0-11.14-0.14	beast_fmri_test	303	14.138633333333333	t	<div class = centerbox><div class = fixation>+</div></div>	none	500.0	test	n/a	n/a	n/a	n/a	n/a	n/a	n/a	n/a	n/a	n/a	n/a	n/a	n/a	n/a	n/a	n/a	n/a	n/a	fixation
343790.19901670248	2750	n/a	1817	71	2750	234.800983298	stim	stop-signal	321	851288	0.0-11.14-1.14	beast_fmri_test	303	14.14995,14.161266666666666,14.1726,14.183933333333334	t,t,t,t	<img class = center src='/static/experiments/beast_fmri_test/images/P.png'></img>	71,89	2750.0	test	<img class = center src='/static/experiments/beast_fmri_test/images/redP.png'></img>	go	1500.0	2.0	14.0	go	target	P	71,Green Button	89,Yellow Button	1250.0	1450.0	1500.0	1300.0	1.0	1250.0	1.0	n/a	go_stim
346540.19901670248	234.80098329752343	n/a	1817	71	2750	234.800983298	stim	stop-signal	321	851288	0.0-11.14-1.14	beast_fmri_test	303	14.14995,14.161266666666666,14.1726,14.183933333333334	t,t,t,t	<img class = center src='/static/experiments/beast_fmri_test/images/P.png'></img>	71,89	2750.0	test	<img class = center src='/static/experiments/beast_fmri_test/images/redP.png'></img>	go	1500.0	2.0	14.0	go	target	P	71,Green Button	89,Yellow Button	1250.0	1450.0	1500.0	1300.0	1.0	1250.0	1.0	n/a	ITI
347541.0	500	n/a	-1	-1	500	0.0	fixation	poldrack-single-stim	322	852054	0.0-11.15-0.15	beast_fmri_test	303	14.195266666666667	t	<div class = centerbox><div class = fixation>+</div></div>	none	500.0	test	n/a	n/a	n/a	n/a	n/a	n/a	n/a	n/a	n/a	n/a	n/a	n/a	n/a	n/a	n/a	n/a	n/a	n/a	fixation
345834.98933904362	1450.0	n/a	-1	-1	2750	1707.01066096	stim	stop-signal	323	854805	0.0-11.15-1.15	beast_fmri_test	303	14.2066,14.217933333333333,14.22925,14.240583333333333,14.2519,14.263233333333334,14.27455	t,t,t,t,t,t,t	<img class = center src='/static/experiments/beast_fmri_test/images/V.png'></img>	71,89	2750.0	test	<img class = center src='/static/experiments/beast_fmri_test/images/redV.png'></img>	stop	1300.0	2.0	15.0	stop	non-target	V	71,Green Button	89,Yellow Button	1250.0	1450.0	1500.0	1300.0	0.0	1450.0	0.0	1.0	go_stim
347134.98933904362	1300.0	n/a	-1	-1	2750	1707.01066096	stim	stop-signal	323	854805	0.0-11.15-1.15	beast_fmri_test	303	14.2066,14.217933333333333,14.22925,14.240583333333333,14.2519,14.263233333333334,14.27455	t,t,t,t,t,t,t	<img class = center src='/static/experiments/beast_fmri_test/images/V.png'></img>	71,89	2750.0	test	<img class = center src='/static/experiments/beast_fmri_test/images/redV.png'></img>	stop	1300.0	2.0	15.0	stop	non-target	V	71,Green Button	89,Yellow Button	1250.0	1450.0	1500.0	1300.0	0.0	1450.0	0.0	1.0	stop_stim
348584.98933904362	1707.0106609564316	n/a	-1	-1	2750	1707.01066096	stim	stop-signal	323	854805	0.0-11.15-1.15	beast_fmri_test	303	14.2066,14.217933333333333,14.22925,14.240583333333333,14.2519,14.263233333333334,14.27455	t,t,t,t,t,t,t	<img class = center src='/static/experiments/beast_fmri_test/images/V.png'></img>	71,89	2750.0	test	<img class = center src='/static/experiments/beast_fmri_test/images/redV.png'></img>	stop	1300.0	2.0	15.0	stop	non-target	V	71,Green Button	89,Yellow Button	1250.0	1450.0	1500.0	1300.0	0.0	1450.0	0.0	1.0	ITI
352528.0	500	n/a	-1	-1	500	0.0	fixation	poldrack-single-stim	324	857041	0.0-11.16-0.16	beast_fmri_test	303	n/a	n/a	<div class = centerbox><div class = fixation>+</div></div>	none	500.0	test	n/a	n/a	n/a	n/a	n/a	n/a	n/a	n/a	n/a	n/a	n/a	n/a	n/a	n/a	n/a	n/a	n/a	n/a	fixation
351771.02421605075	1500.0	n/a	1671	89	2750	758.975783949	stim	stop-signal	325	859793	0.0-11.16-1.16	beast_fmri_test	303	14.285866666666667,14.297216666666667,14.30855,14.319866666666666,14.3312,14.342516666666667	t,t,t,t,t,t	<img class = center src='/static/experiments/beast_fmri_test/images/V.png'></img>	71,89	2750.0	test	<img class = center src='/static/experiments/beast_fmri_test/images/redV.png'></img>	stop	1250.0	2.0	16.0	stop	non-target	V	71,Green Button	89,Yellow Button	1250.0	1500.0	1500.0	1250.0	0.0	1500.0	1.0	0.0	go_stim
353021.02421605075	1250.0	n/a	1671	89	2750	758.975783949	stim	stop-signal	325	859793	0.0-11.16-1.16	beast_fmri_test	303	14.285866666666667,14.297216666666667,14.30855,14.319866666666666,14.3312,14.342516666666667	t,t,t,t,t,t	<img class = center src='/static/experiments/beast_fmri_test/images/V.png'></img>	71,89	2750.0	test	<img class = center src='/static/experiments/beast_fmri_test/images/redV.png'></img>	stop	1250.0	2.0	16.0	stop	non-target	V	71,Green Button	89,Yellow Button	1250.0	1500.0	1500.0	1250.0	0.0	1500.0	1.0	0.0	stop_stim
354521.02421605075	758.97578394920322	n/a	1671	89	2750	758.975783949	stim	stop-signal	325	859793	0.0-11.16-1.16	beast_fmri_test	303	14.285866666666667,14.297216666666667,14.30855,14.319866666666666,14.3312,14.342516666666667	t,t,t,t,t,t	<img class = center src='/static/experiments/beast_fmri_test/images/V.png'></img>	71,89	2750.0	test	<img class = center src='/static/experiments/beast_fmri_test/images/redV.png'></img>	stop	1250.0	2.0	16.0	stop	non-target	V	71,Green Button	89,Yellow Button	1250.0	1500.0	1500.0	1250.0	0.0	1500.0	1.0	0.0	ITI
356569.0	500	n/a	-1	-1	500	0.0	fixation	poldrack-single-stim	326	861082	0.0-11.17-0.17	beast_fmri_test	303	n/a	n/a	<div class = centerbox><div class = fixation>+</div></div>	none	500.0	test	n/a	n/a	n/a	n/a	n/a	n/a	n/a	n/a	n/a	n/a	n/a	n/a	n/a	n/a	n/a	n/a	n/a	n/a	fixation
354798.12617347692	2750	n/a	1942	89	2750	1772.87382652	stim	stop-signal	327	863834	0.0-11.17-1.17	beast_fmri_test	303	14.35385,14.365183333333333,14.376516666666667,14.387833333333333,14.399166666666666,14.410483333333334,14.421833333333334	t,t,t,t,t,t,t	<img class = center src='/static/experiments/beast_fmri_test/images/B.png'></img>	71,89	2750.0	test	<img class = center src='/static/experiments/beast_fmri_test/images/redB.png'></img>	go	1300.0	2.0	17.0	go	non-target	B	71,Green Button	89,Yellow Button	1250.0	1450.0	1500.0	1300.0	1.0	1450.0	1.0	n/a	go_stim
357548.12617347692	1772.8738265230268	n/a	1942	89	2750	1772.87382652	stim	stop-signal	327	863834	0.0-11.17-1.17	beast_fmri_test	303	14.35385,14.365183333333333,14.376516666666667,14.387833333333333,14.399166666666666,14.410483333333334,14.421833333333334	t,t,t,t,t,t,t	<img class = center src='/static/experiments/beast_fmri_test/images/B.png'></img>	71,89	2750.0	test	<img class = center src='/static/experiments/beast_fmri_test/images/redB.png'></img>	go	1300.0	2.0	17.0	go	non-target	B	71,Green Button	89,Yellow Button	1250.0	1450.0	1500.0	1300.0	1.0	1450.0	1.0	n/a	ITI
361625.0	500	n/a	-1	-1	500	0.0	fixation	poldrack-single-stim	328	866138	0.0-11.18-0.18	beast_fmri_test	303	14.43315	t	<div class = centerbox><div class = fixation>+</div></div>	none	500.0	test	n/a	n/a	n/a	n/a	n/a	n/a	n/a	n/a	n/a	n/a	n/a	n/a	n/a	n/a	n/a	n/a	n/a	n/a	fixation
360451.69056338957	2750	n/a	1623	89	2750	1175.30943661	stim	stop-signal	329	868890	0.0-11.18-1.18	beast_fmri_test	303	14.444483333333332,14.455816666666667,14.46715,14.478466666666666,14.489783333333333	t,t,t,t,t	<img class = center src='/static/experiments/beast_fmri_test/images/D.png'></img>	71,89	2750.0	test	<img class = center src='/static/experiments/beast_fmri_test/images/redD.png'></img>	go	1300.0	2.0	18.0	go	non-target	D	71,Green Button	89,Yellow Button	1250.0	1450.0	1500.0	1300.0	1.0	1450.0	1.0	n/a	go_stim
363201.69056338957	1175.3094366104624	n/a	1623	89	2750	1175.30943661	stim	stop-signal	329	868890	0.0-11.18-1.18	beast_fmri_test	303	14.444483333333332,14.455816666666667,14.46715,14.478466666666666,14.489783333333333	t,t,t,t,t	<img class = center src='/static/experiments/beast_fmri_test/images/D.png'></img>	71,89	2750.0	test	<img class = center src='/static/experiments/beast_fmri_test/images/redD.png'></img>	go	1300.0	2.0	18.0	go	non-target	D	71,Green Button	89,Yellow Button	1250.0	1450.0	1500.0	1300.0	1.0	1450.0	1.0	n/a	ITI
