onset	duration	text	rt	key_press	block_duration	timing_post_trial	trial_id	trial_type	trial_index	time_elapsed	internal_node_id	exp_id	subject_id	trigger_times	triggers	stimulus	possible_responses	stim_duration	exp_stage	SS_stimulus	SS_trial_type	SS_duration	load	trial_num	stop_trial_type	adaptive_trial_type	stim	yes_response_key	no_response_key	SSD_target	SSD_non_target	SSTarget	SSNonTarget	go_acc	SS_delay	adaptive_acc	stop_acc	new_trial_type
test	94904	"<div class = ""centerbox""><p class = ""center-block-text"">Great job!  Please keep your head still while the machine finishes scanning.</p></div>"	94904	77	94904	1000.0	start_test_text	poldrack-text	386	1090138	0.0-12.0	beast_fmri_test	303	16.596816666666665,16.60815,16.61945,16.630816666666668,16.642133333333334,16.653466666666667,16.664783333333332,16.6761,16.687433333333335,16.698783333333335,16.7101,16.721433333333334,16.73275,16.744083333333332,16.755416666666665,17.264466666666667,17.295516666666668,17.31305,17.3136,17.318033333333332,17.394666666666666	t,t,t,t,t,t,t,t,t,t,t,t,t,t,t,t,t,t,t,t,t	n/a	n/a	n/a	n/a	n/a	n/a	n/a	n/a	n/a	n/a	n/a	n/a	n/a	n/a	n/a	n/a	n/a	n/a	n/a	n/a	n/a	n/a	start_functional_block
113023.00000000012	17691	"<div class = ""centerbox""><p class = ""center-block-text"">Your delay is 1 trials.</p><p class = center-block-text>Please wait for the scanner to start the block</p></div>"	17691	84	17691	1000.0	start_test_text	poldrack-text	387	1108832	0.0-13.0	beast_fmri_test	303	18.480533333333334,18.491883333333334	t,t	n/a	n/a	n/a	n/a	n/a	n/a	n/a	n/a	n/a	n/a	n/a	n/a	n/a	n/a	n/a	n/a	n/a	n/a	n/a	n/a	n/a	n/a	start_test_text
114527.00000000012	500	n/a	-1	-1	500	0.0	fixation	poldrack-single-stim	388	1110336	0.0-14.0-0.0	beast_fmri_test	303	18.503183333333332	t	<div class = centerbox><div class = fixation>+</div></div>	none	500.0	test	n/a	n/a	n/a	n/a	n/a	n/a	n/a	n/a	n/a	n/a	n/a	n/a	n/a	n/a	n/a	n/a	n/a	n/a	fixation
114322.29245283629	temp_go_duration	n/a	1241	89	2750	206.707547164	stim	stop-signal	389	1113088	0.0-14.0-1.0	beast_fmri_test	303	18.514516666666665,18.52585,18.537166666666668,18.5485	t,t,t,t	<img class = center src='/static/experiments/beast_fmri_test/images/B.png'></img>	71,89	2750.0	test	<img class = center src='/static/experiments/beast_fmri_test/images/redB.png'></img>	stop	-1.0	1.0	0.0	stop	temp-non-target	B	71,Green Button	89,Yellow Button	1300.0	1350.0	1400.0	1400.0	0.0	n/a	n/a	0.0	go_stim
temp-non-target	temp_stop_duration	n/a	1241	89	2750	206.707547164	stim	stop-signal	389	1113088	0.0-14.0-1.0	beast_fmri_test	303	18.514516666666665,18.52585,18.537166666666668,18.5485	t,t,t,t	<img class = center src='/static/experiments/beast_fmri_test/images/B.png'></img>	71,89	2750.0	test	<img class = center src='/static/experiments/beast_fmri_test/images/redB.png'></img>	stop	-1.0	1.0	0.0	stop	temp-non-target	B	71,Green Button	89,Yellow Button	1300.0	1350.0	1400.0	1400.0	0.0	n/a	n/a	0.0	stop_stim
117072.29245283629	206.70754716389163	n/a	1241	89	2750	206.707547164	stim	stop-signal	389	1113088	0.0-14.0-1.0	beast_fmri_test	303	18.514516666666665,18.52585,18.537166666666668,18.5485	t,t,t,t	<img class = center src='/static/experiments/beast_fmri_test/images/B.png'></img>	71,89	2750.0	test	<img class = center src='/static/experiments/beast_fmri_test/images/redB.png'></img>	stop	-1.0	1.0	0.0	stop	temp-non-target	B	71,Green Button	89,Yellow Button	1300.0	1350.0	1400.0	1400.0	0.0	n/a	n/a	0.0	ITI
118022.00000000012	500	n/a	-1	-1	500	0.0	fixation	poldrack-single-stim	390	1113831	0.0-14.1-0.1	beast_fmri_test	303	18.559833333333334	t	<div class = centerbox><div class = fixation>+</div></div>	none	500.0	test	n/a	n/a	n/a	n/a	n/a	n/a	n/a	n/a	n/a	n/a	n/a	n/a	n/a	n/a	n/a	n/a	n/a	n/a	fixation
116917.11882973521	1350.0	n/a	1178	89	2750	1106.88117026	stim	stop-signal	391	1116583	0.0-14.1-1.1	beast_fmri_test	303	18.57115,18.582483333333332,18.593816666666665,18.605133333333335,18.61645,18.627783333333333	t,t,t,t,t,t	<img class = center src='/static/experiments/beast_fmri_test/images/P.png'></img>	71,89	2750.0	test	<img class = center src='/static/experiments/beast_fmri_test/images/redP.png'></img>	stop	1400.0	1.0	1.0	stop	non-target	P	71,Green Button	89,Yellow Button	1300.0	1350.0	1400.0	1400.0	0.0	1350.0	1.0	0.0	go_stim
118317.11882973521	1400.0	n/a	1178	89	2750	1106.88117026	stim	stop-signal	391	1116583	0.0-14.1-1.1	beast_fmri_test	303	18.57115,18.582483333333332,18.593816666666665,18.605133333333335,18.61645,18.627783333333333	t,t,t,t,t,t	<img class = center src='/static/experiments/beast_fmri_test/images/P.png'></img>	71,89	2750.0	test	<img class = center src='/static/experiments/beast_fmri_test/images/redP.png'></img>	stop	1400.0	1.0	1.0	stop	non-target	P	71,Green Button	89,Yellow Button	1300.0	1350.0	1400.0	1400.0	0.0	1350.0	1.0	0.0	stop_stim
119667.11882973521	1106.8811702648939	n/a	1178	89	2750	1106.88117026	stim	stop-signal	391	1116583	0.0-14.1-1.1	beast_fmri_test	303	18.57115,18.582483333333332,18.593816666666665,18.605133333333335,18.61645,18.627783333333333	t,t,t,t,t,t	<img class = center src='/static/experiments/beast_fmri_test/images/P.png'></img>	71,89	2750.0	test	<img class = center src='/static/experiments/beast_fmri_test/images/redP.png'></img>	stop	1400.0	1.0	1.0	stop	non-target	P	71,Green Button	89,Yellow Button	1300.0	1350.0	1400.0	1400.0	0.0	1350.0	1.0	0.0	ITI
122414.00000000012	500	n/a	-1	-1	500	0.0	fixation	poldrack-single-stim	392	1118223	0.0-14.2-0.2	beast_fmri_test	303	n/a	n/a	<div class = centerbox><div class = fixation>+</div></div>	none	500.0	test	n/a	n/a	n/a	n/a	n/a	n/a	n/a	n/a	n/a	n/a	n/a	n/a	n/a	n/a	n/a	n/a	n/a	n/a	fixation
122120.79581081297	2750	n/a	1394	89	2750	297.204189187	stim	stop-signal	393	1120977	0.0-14.2-1.2	beast_fmri_test	303	18.639116666666666,18.65045,18.661783333333332,18.6731,18.684416666666667	t,t,t,t,t	<img class = center src='/static/experiments/beast_fmri_test/images/T.png'></img>	71,89	2750.0	test	<img class = center src='/static/experiments/beast_fmri_test/images/redT.png'></img>	go	1450.0	1.0	2.0	go	non-target	T	71,Green Button	89,Yellow Button	1300.0	1300.0	1400.0	1450.0	1.0	1300.0	1.0	n/a	go_stim
124870.79581081297	297.20418918703899	n/a	1394	89	2750	297.204189187	stim	stop-signal	393	1120977	0.0-14.2-1.2	beast_fmri_test	303	18.639116666666666,18.65045,18.661783333333332,18.6731,18.684416666666667	t,t,t,t,t	<img class = center src='/static/experiments/beast_fmri_test/images/T.png'></img>	71,89	2750.0	test	<img class = center src='/static/experiments/beast_fmri_test/images/redT.png'></img>	go	1450.0	1.0	2.0	go	non-target	T	71,Green Button	89,Yellow Button	1300.0	1300.0	1400.0	1450.0	1.0	1300.0	1.0	n/a	ITI
126003.00000000012	500	n/a	-1	-1	500	0.0	fixation	poldrack-single-stim	394	1121812	0.0-14.3-0.3	beast_fmri_test	303	18.695766666666668	t	<div class = centerbox><div class = fixation>+</div></div>	none	500.0	test	n/a	n/a	n/a	n/a	n/a	n/a	n/a	n/a	n/a	n/a	n/a	n/a	n/a	n/a	n/a	n/a	n/a	n/a	fixation
125106.881843774	2750	n/a	1342	71	2750	898.118156226	stim	stop-signal	395	1124564	0.0-14.3-1.3	beast_fmri_test	303	18.7071,18.718433333333333,18.729766666666666,18.741083333333332,18.752416666666665	t,t,t,t,t	<img class = center src='/static/experiments/beast_fmri_test/images/T.png'></img>	71,89	2750.0	test	<img class = center src='/static/experiments/beast_fmri_test/images/redT.png'></img>	go	1450.0	1.0	3.0	go	target	T	71,Green Button	89,Yellow Button	1300.0	1300.0	1450.0	1450.0	1.0	1300.0	1.0	n/a	go_stim
127856.881843774	898.11815622613358	n/a	1342	71	2750	898.118156226	stim	stop-signal	395	1124564	0.0-14.3-1.3	beast_fmri_test	303	18.7071,18.718433333333333,18.729766666666666,18.741083333333332,18.752416666666665	t,t,t,t,t	<img class = center src='/static/experiments/beast_fmri_test/images/T.png'></img>	71,89	2750.0	test	<img class = center src='/static/experiments/beast_fmri_test/images/redT.png'></img>	go	1450.0	1.0	3.0	go	target	T	71,Green Button	89,Yellow Button	1300.0	1300.0	1450.0	1450.0	1.0	1300.0	1.0	n/a	ITI
130190.00000000012	500	n/a	-1	-1	500	0.0	fixation	poldrack-single-stim	396	1125999	0.0-14.4-0.4	beast_fmri_test	303	18.763733333333334	t	<div class = centerbox><div class = fixation>+</div></div>	none	500.0	test	n/a	n/a	n/a	n/a	n/a	n/a	n/a	n/a	n/a	n/a	n/a	n/a	n/a	n/a	n/a	n/a	n/a	n/a	fixation
130022.09511451947	2750	n/a	1557	89	2750	170.904885481	stim	stop-signal	397	1128752	0.0-14.4-1.4	beast_fmri_test	303	18.775066666666667,18.7864,18.797716666666666,18.80905	t,t,t,t	<img class = center src='/static/experiments/beast_fmri_test/images/D.png'></img>	71,89	2750.0	test	<img class = center src='/static/experiments/beast_fmri_test/images/redD.png'></img>	go	1450.0	1.0	4.0	go	non-target	D	71,Green Button	89,Yellow Button	1300.0	1300.0	1450.0	1450.0	1.0	1300.0	1.0	n/a	go_stim
132772.09511451947	170.904885480677	n/a	1557	89	2750	170.904885481	stim	stop-signal	397	1128752	0.0-14.4-1.4	beast_fmri_test	303	18.775066666666667,18.7864,18.797716666666666,18.80905	t,t,t,t	<img class = center src='/static/experiments/beast_fmri_test/images/D.png'></img>	71,89	2750.0	test	<img class = center src='/static/experiments/beast_fmri_test/images/redD.png'></img>	go	1450.0	1.0	4.0	go	non-target	D	71,Green Button	89,Yellow Button	1300.0	1300.0	1450.0	1450.0	1.0	1300.0	1.0	n/a	ITI
133652.00000000012	500	n/a	-1	-1	500	0.0	fixation	poldrack-single-stim	398	1129461	0.0-14.5-0.5	beast_fmri_test	303	18.820383333333332	t	<div class = centerbox><div class = fixation>+</div></div>	none	500.0	test	n/a	n/a	n/a	n/a	n/a	n/a	n/a	n/a	n/a	n/a	n/a	n/a	n/a	n/a	n/a	n/a	n/a	n/a	fixation
128654.00000000012	1300.0	n/a	-1	-1	2750	5000.0	stim	stop-signal	399	1132213	0.0-14.5-1.5	beast_fmri_test	303	18.8317,18.84305,18.85435,18.8657,18.877016666666666,18.88835,18.89966666666667,18.911,18.922316666666667,18.93365,18.944983333333333	t,t,t,t,t,t,t,t,t,t,t	<img class = center src='/static/experiments/beast_fmri_test/images/B.png'></img>	71,89	2750.0	test	<img class = center src='/static/experiments/beast_fmri_test/images/redB.png'></img>	stop	1450.0	1.0	5.0	stop	non-target	B	71,Green Button	89,Yellow Button	1300.0	1300.0	1450.0	1450.0	0.0	1300.0	0.0	1.0	go_stim
130104.00000000012	1450.0	n/a	-1	-1	2750	5000.0	stim	stop-signal	399	1132213	0.0-14.5-1.5	beast_fmri_test	303	18.8317,18.84305,18.85435,18.8657,18.877016666666666,18.88835,18.89966666666667,18.911,18.922316666666667,18.93365,18.944983333333333	t,t,t,t,t,t,t,t,t,t,t	<img class = center src='/static/experiments/beast_fmri_test/images/B.png'></img>	71,89	2750.0	test	<img class = center src='/static/experiments/beast_fmri_test/images/redB.png'></img>	stop	1450.0	1.0	5.0	stop	non-target	B	71,Green Button	89,Yellow Button	1300.0	1300.0	1450.0	1450.0	0.0	1300.0	0.0	1.0	stop_stim
131404.00000000012	5000.0	n/a	-1	-1	2750	5000.0	stim	stop-signal	399	1132213	0.0-14.5-1.5	beast_fmri_test	303	18.8317,18.84305,18.85435,18.8657,18.877016666666666,18.88835,18.89966666666667,18.911,18.922316666666667,18.93365,18.944983333333333	t,t,t,t,t,t,t,t,t,t,t	<img class = center src='/static/experiments/beast_fmri_test/images/B.png'></img>	71,89	2750.0	test	<img class = center src='/static/experiments/beast_fmri_test/images/redB.png'></img>	stop	1450.0	1.0	5.0	stop	non-target	B	71,Green Button	89,Yellow Button	1300.0	1300.0	1450.0	1450.0	0.0	1300.0	0.0	1.0	ITI
141942.00000000012	500	n/a	-1	-1	500	0.0	fixation	poldrack-single-stim	400	1137751	0.0-14.6-0.6	beast_fmri_test	303	18.956333333333333	t	<div class = centerbox><div class = fixation>+</div></div>	none	500.0	test	n/a	n/a	n/a	n/a	n/a	n/a	n/a	n/a	n/a	n/a	n/a	n/a	n/a	n/a	n/a	n/a	n/a	n/a	fixation
141786.38732373447	1350.0	n/a	1515	89	2750	157.612676266	stim	stop-signal	401	1140503	0.0-14.6-1.6	beast_fmri_test	303	18.96765,18.978983333333332,18.9903,19.001616666666667	t,t,t,t	<img class = center src='/static/experiments/beast_fmri_test/images/V.png'></img>	71,89	2750.0	test	<img class = center src='/static/experiments/beast_fmri_test/images/redV.png'></img>	stop	1400.0	1.0	6.0	stop	non-target	V	71,Green Button	89,Yellow Button	1300.0	1350.0	1450.0	1400.0	0.0	1350.0	1.0	0.0	go_stim
143186.38732373447	1400.0	n/a	1515	89	2750	157.612676266	stim	stop-signal	401	1140503	0.0-14.6-1.6	beast_fmri_test	303	18.96765,18.978983333333332,18.9903,19.001616666666667	t,t,t,t	<img class = center src='/static/experiments/beast_fmri_test/images/V.png'></img>	71,89	2750.0	test	<img class = center src='/static/experiments/beast_fmri_test/images/redV.png'></img>	stop	1400.0	1.0	6.0	stop	non-target	V	71,Green Button	89,Yellow Button	1300.0	1350.0	1450.0	1400.0	0.0	1350.0	1.0	0.0	stop_stim
144536.38732373447	157.61267626575557	n/a	1515	89	2750	157.612676266	stim	stop-signal	401	1140503	0.0-14.6-1.6	beast_fmri_test	303	18.96765,18.978983333333332,18.9903,19.001616666666667	t,t,t,t	<img class = center src='/static/experiments/beast_fmri_test/images/V.png'></img>	71,89	2750.0	test	<img class = center src='/static/experiments/beast_fmri_test/images/redV.png'></img>	stop	1400.0	1.0	6.0	stop	non-target	V	71,Green Button	89,Yellow Button	1300.0	1350.0	1450.0	1400.0	0.0	1350.0	1.0	0.0	ITI
145388.00000000012	500	n/a	-1	-1	500	0.0	fixation	poldrack-single-stim	402	1141197	0.0-14.7-0.7	beast_fmri_test	303	19.012933333333333	t	<div class = centerbox><div class = fixation>+</div></div>	none	500.0	test	n/a	n/a	n/a	n/a	n/a	n/a	n/a	n/a	n/a	n/a	n/a	n/a	n/a	n/a	n/a	n/a	n/a	n/a	fixation
144935.99650558957	2750	n/a	2184	89	2750	454.00349441	stim	stop-signal	403	1143949	0.0-14.7-1.7	beast_fmri_test	303	19.024283333333333,19.0356,19.04695,19.05825,19.069583333333334	t,t,t,t,t	<img class = center src='/static/experiments/beast_fmri_test/images/B.png'></img>	71,89	2750.0	test	<img class = center src='/static/experiments/beast_fmri_test/images/redB.png'></img>	go	1450.0	1.0	7.0	go	non-target	B	71,Green Button	89,Yellow Button	1300.0	1300.0	1450.0	1450.0	1.0	1300.0	1.0	n/a	go_stim
147685.99650558957	454.00349441048775	n/a	2184	89	2750	454.00349441	stim	stop-signal	403	1143949	0.0-14.7-1.7	beast_fmri_test	303	19.024283333333333,19.0356,19.04695,19.05825,19.069583333333334	t,t,t,t,t	<img class = center src='/static/experiments/beast_fmri_test/images/B.png'></img>	71,89	2750.0	test	<img class = center src='/static/experiments/beast_fmri_test/images/redB.png'></img>	go	1450.0	1.0	7.0	go	non-target	B	71,Green Button	89,Yellow Button	1300.0	1300.0	1450.0	1450.0	1.0	1300.0	1.0	n/a	ITI
149131.00000000012	500	n/a	-1	-1	500	0.0	fixation	poldrack-single-stim	404	1144940	0.0-14.8-0.8	beast_fmri_test	303	19.080916666666667	t	<div class = centerbox><div class = fixation>+</div></div>	none	500.0	test	n/a	n/a	n/a	n/a	n/a	n/a	n/a	n/a	n/a	n/a	n/a	n/a	n/a	n/a	n/a	n/a	n/a	n/a	fixation
149103.52102745476	1300.0	n/a	-1	-1	2750	29.4789725454	stim	stop-signal	405	1147692	0.0-14.8-1.8	beast_fmri_test	303	19.09225,19.103583333333333,19.114916666666666,19.126216666666668	t,t,t,t	<img class = center src='/static/experiments/beast_fmri_test/images/T.png'></img>	71,89	2750.0	test	<img class = center src='/static/experiments/beast_fmri_test/images/redT.png'></img>	stop	1450.0	1.0	8.0	stop	non-target	T	71,Green Button	89,Yellow Button	1300.0	1300.0	1450.0	1450.0	0.0	1300.0	0.0	1.0	go_stim
150553.52102745476	1450.0	n/a	-1	-1	2750	29.4789725454	stim	stop-signal	405	1147692	0.0-14.8-1.8	beast_fmri_test	303	19.09225,19.103583333333333,19.114916666666666,19.126216666666668	t,t,t,t	<img class = center src='/static/experiments/beast_fmri_test/images/T.png'></img>	71,89	2750.0	test	<img class = center src='/static/experiments/beast_fmri_test/images/redT.png'></img>	stop	1450.0	1.0	8.0	stop	non-target	T	71,Green Button	89,Yellow Button	1300.0	1300.0	1450.0	1450.0	0.0	1300.0	0.0	1.0	stop_stim
151853.52102745476	29.478972545398989	n/a	-1	-1	2750	29.4789725454	stim	stop-signal	405	1147692	0.0-14.8-1.8	beast_fmri_test	303	19.09225,19.103583333333333,19.114916666666666,19.126216666666668	t,t,t,t	<img class = center src='/static/experiments/beast_fmri_test/images/T.png'></img>	71,89	2750.0	test	<img class = center src='/static/experiments/beast_fmri_test/images/redT.png'></img>	stop	1450.0	1.0	8.0	stop	non-target	T	71,Green Button	89,Yellow Button	1300.0	1300.0	1450.0	1450.0	0.0	1300.0	0.0	1.0	ITI
152445.00000000012	500	n/a	-1	-1	500	0.0	fixation	poldrack-single-stim	406	1148254	0.0-14.9-0.9	beast_fmri_test	303	19.137566666666668	t	<div class = centerbox><div class = fixation>+</div></div>	none	500.0	test	n/a	n/a	n/a	n/a	n/a	n/a	n/a	n/a	n/a	n/a	n/a	n/a	n/a	n/a	n/a	n/a	n/a	n/a	fixation
151365.95535612141	2750	n/a	1366	71	2750	1081.04464388	stim	stop-signal	407	1151006	0.0-14.9-1.9	beast_fmri_test	303	19.148883333333334,19.160233333333334,19.171533333333333,19.182866666666666,19.194216666666666	t,t,t,t,t	<img class = center src='/static/experiments/beast_fmri_test/images/T.png'></img>	71,89	2750.0	test	<img class = center src='/static/experiments/beast_fmri_test/images/redT.png'></img>	go	1450.0	1.0	9.0	go	target	T	71,Green Button	89,Yellow Button	1300.0	1350.0	1450.0	1450.0	1.0	1300.0	1.0	n/a	go_stim
154115.95535612141	1081.0446438786987	n/a	1366	71	2750	1081.04464388	stim	stop-signal	407	1151006	0.0-14.9-1.9	beast_fmri_test	303	19.148883333333334,19.160233333333334,19.171533333333333,19.182866666666666,19.194216666666666	t,t,t,t,t	<img class = center src='/static/experiments/beast_fmri_test/images/T.png'></img>	71,89	2750.0	test	<img class = center src='/static/experiments/beast_fmri_test/images/redT.png'></img>	go	1450.0	1.0	9.0	go	target	T	71,Green Button	89,Yellow Button	1300.0	1350.0	1450.0	1450.0	1.0	1300.0	1.0	n/a	ITI
156818.00000000012	500	n/a	-1	-1	500	0.0	fixation	poldrack-single-stim	408	1152627	0.0-14.10-0.10	beast_fmri_test	303	19.20553333333333	t	<div class = centerbox><div class = fixation>+</div></div>	none	500.0	test	n/a	n/a	n/a	n/a	n/a	n/a	n/a	n/a	n/a	n/a	n/a	n/a	n/a	n/a	n/a	n/a	n/a	n/a	fixation
156528.05842328293	1350.0	n/a	-1	-1	2750	290.941576717	stim	stop-signal	409	1155378	0.0-14.10-1.10	beast_fmri_test	303	19.216866666666668,19.228183333333334,19.239516666666667,19.25085	t,t,t,t	<img class = center src='/static/experiments/beast_fmri_test/images/B.png'></img>	71,89	2750.0	test	<img class = center src='/static/experiments/beast_fmri_test/images/redB.png'></img>	stop	1400.0	1.0	10.0	stop	non-target	B	71,Green Button	89,Yellow Button	1300.0	1350.0	1450.0	1400.0	0.0	1350.0	0.0	1.0	go_stim
157928.05842328293	1400.0	n/a	-1	-1	2750	290.941576717	stim	stop-signal	409	1155378	0.0-14.10-1.10	beast_fmri_test	303	19.216866666666668,19.228183333333334,19.239516666666667,19.25085	t,t,t,t	<img class = center src='/static/experiments/beast_fmri_test/images/B.png'></img>	71,89	2750.0	test	<img class = center src='/static/experiments/beast_fmri_test/images/redB.png'></img>	stop	1400.0	1.0	10.0	stop	non-target	B	71,Green Button	89,Yellow Button	1300.0	1350.0	1450.0	1400.0	0.0	1350.0	0.0	1.0	stop_stim
159278.05842328293	290.94157671715345	n/a	-1	-1	2750	290.941576717	stim	stop-signal	409	1155378	0.0-14.10-1.10	beast_fmri_test	303	19.216866666666668,19.228183333333334,19.239516666666667,19.25085	t,t,t,t	<img class = center src='/static/experiments/beast_fmri_test/images/B.png'></img>	71,89	2750.0	test	<img class = center src='/static/experiments/beast_fmri_test/images/redB.png'></img>	stop	1400.0	1.0	10.0	stop	non-target	B	71,Green Button	89,Yellow Button	1300.0	1350.0	1450.0	1400.0	0.0	1350.0	0.0	1.0	ITI
160400.00000000012	500	n/a	-1	-1	500	0.0	fixation	poldrack-single-stim	410	1156209	0.0-14.11-0.11	beast_fmri_test	303	19.262166666666666	t	<div class = centerbox><div class = fixation>+</div></div>	none	500.0	test	n/a	n/a	n/a	n/a	n/a	n/a	n/a	n/a	n/a	n/a	n/a	n/a	n/a	n/a	n/a	n/a	n/a	n/a	fixation
159390.88181498961	2750	n/a	1581	89	2750	1011.11818501	stim	stop-signal	411	1158961	0.0-14.11-1.11	beast_fmri_test	303	19.273516666666666,19.284833333333335,19.29615,19.3075,19.318816666666667,19.33015	t,t,t,t,t,t	<img class = center src='/static/experiments/beast_fmri_test/images/T.png'></img>	71,89	2750.0	test	<img class = center src='/static/experiments/beast_fmri_test/images/redT.png'></img>	go	1350.0	1.0	11.0	go	non-target	T	71,Green Button	89,Yellow Button	1300.0	1400.0	1450.0	1350.0	1.0	1400.0	1.0	n/a	go_stim
162140.88181498961	1011.1181850104688	n/a	1581	89	2750	1011.11818501	stim	stop-signal	411	1158961	0.0-14.11-1.11	beast_fmri_test	303	19.273516666666666,19.284833333333335,19.29615,19.3075,19.318816666666667,19.33015	t,t,t,t,t,t	<img class = center src='/static/experiments/beast_fmri_test/images/T.png'></img>	71,89	2750.0	test	<img class = center src='/static/experiments/beast_fmri_test/images/redT.png'></img>	go	1350.0	1.0	11.0	go	non-target	T	71,Green Button	89,Yellow Button	1300.0	1400.0	1450.0	1350.0	1.0	1400.0	1.0	n/a	ITI
164702.00000000012	500	n/a	-1	-1	500	0.0	fixation	poldrack-single-stim	412	1160511	0.0-14.12-0.12	beast_fmri_test	303	19.341466666666665	t	<div class = centerbox><div class = fixation>+</div></div>	none	500.0	test	n/a	n/a	n/a	n/a	n/a	n/a	n/a	n/a	n/a	n/a	n/a	n/a	n/a	n/a	n/a	n/a	n/a	n/a	fixation
161624.50342450093	1400.0	n/a	1346	89	2750	3079.4965755	stim	stop-signal	413	1163263	0.0-14.12-1.12	beast_fmri_test	303	19.3528,19.364133333333335,19.375466666666668,19.386783333333334,19.398116666666667,19.40945,19.420766666666665,19.4321	t,t,t,t,t,t,t,t	<img class = center src='/static/experiments/beast_fmri_test/images/D.png'></img>	71,89	2750.0	test	<img class = center src='/static/experiments/beast_fmri_test/images/redD.png'></img>	stop	1350.0	1.0	12.0	stop	non-target	D	71,Green Button	89,Yellow Button	1300.0	1400.0	1450.0	1350.0	0.0	1400.0	1.0	0.0	go_stim
162974.50342450093	1350.0	n/a	1346	89	2750	3079.4965755	stim	stop-signal	413	1163263	0.0-14.12-1.12	beast_fmri_test	303	19.3528,19.364133333333335,19.375466666666668,19.386783333333334,19.398116666666667,19.40945,19.420766666666665,19.4321	t,t,t,t,t,t,t,t	<img class = center src='/static/experiments/beast_fmri_test/images/D.png'></img>	71,89	2750.0	test	<img class = center src='/static/experiments/beast_fmri_test/images/redD.png'></img>	stop	1350.0	1.0	12.0	stop	non-target	D	71,Green Button	89,Yellow Button	1300.0	1400.0	1450.0	1350.0	0.0	1400.0	1.0	0.0	stop_stim
164374.50342450093	3079.4965754991358	n/a	1346	89	2750	3079.4965755	stim	stop-signal	413	1163263	0.0-14.12-1.12	beast_fmri_test	303	19.3528,19.364133333333335,19.375466666666668,19.386783333333334,19.398116666666667,19.40945,19.420766666666665,19.4321	t,t,t,t,t,t,t,t	<img class = center src='/static/experiments/beast_fmri_test/images/D.png'></img>	71,89	2750.0	test	<img class = center src='/static/experiments/beast_fmri_test/images/redD.png'></img>	stop	1350.0	1.0	12.0	stop	non-target	D	71,Green Button	89,Yellow Button	1300.0	1400.0	1450.0	1350.0	0.0	1400.0	1.0	0.0	ITI
171070.00000000012	500	n/a	-1	-1	500	0.0	fixation	poldrack-single-stim	414	1166879	0.0-14.13-0.13	beast_fmri_test	303	19.443433333333335	t	<div class = centerbox><div class = fixation>+</div></div>	none	500.0	test	n/a	n/a	n/a	n/a	n/a	n/a	n/a	n/a	n/a	n/a	n/a	n/a	n/a	n/a	n/a	n/a	n/a	n/a	fixation
168274.80577255867	2750	n/a	1530	71	2750	2798.19422744	stim	stop-signal	415	1169632	0.0-14.13-1.13	beast_fmri_test	303	19.454766666666668,19.466083333333334,19.477416666666667,19.488733333333332,19.500066666666665,19.5114,19.522716666666668,19.53405	t,t,t,t,t,t,t,t	<img class = center src='/static/experiments/beast_fmri_test/images/D.png'></img>	71,89	2750.0	test	<img class = center src='/static/experiments/beast_fmri_test/images/redD.png'></img>	go	1450.0	1.0	13.0	go	target	D	71,Green Button	89,Yellow Button	1300.0	1350.0	1450.0	1350.0	1.0	1300.0	1.0	n/a	go_stim
171024.80577255867	2798.1942274414441	n/a	1530	71	2750	2798.19422744	stim	stop-signal	415	1169632	0.0-14.13-1.13	beast_fmri_test	303	19.454766666666668,19.466083333333334,19.477416666666667,19.488733333333332,19.500066666666665,19.5114,19.522716666666668,19.53405	t,t,t,t,t,t,t,t	<img class = center src='/static/experiments/beast_fmri_test/images/D.png'></img>	71,89	2750.0	test	<img class = center src='/static/experiments/beast_fmri_test/images/redD.png'></img>	go	1450.0	1.0	13.0	go	target	D	71,Green Button	89,Yellow Button	1300.0	1350.0	1450.0	1350.0	1.0	1300.0	1.0	n/a	ITI
177161.00000000012	500	n/a	-1	-1	500	0.0	fixation	poldrack-single-stim	416	1172970	0.0-14.14-0.14	beast_fmri_test	303	19.545383333333334	t	<div class = centerbox><div class = fixation>+</div></div>	none	500.0	test	n/a	n/a	n/a	n/a	n/a	n/a	n/a	n/a	n/a	n/a	n/a	n/a	n/a	n/a	n/a	n/a	n/a	n/a	fixation
175872.17462133488	2750	n/a	1801	71	2750	1288.82537867	stim	stop-signal	417	1175720	0.0-14.14-1.14	beast_fmri_test	303	19.5567,19.568033333333332,19.579366666666665,19.590683333333335,19.602016666666668,19.61335	t,t,t,t,t,t	<img class = center src='/static/experiments/beast_fmri_test/images/D.png'></img>	71,89	2750.0	test	<img class = center src='/static/experiments/beast_fmri_test/images/redD.png'></img>	go	1450.0	1.0	14.0	go	target	D	71,Green Button	89,Yellow Button	1300.0	1350.0	1450.0	1350.0	1.0	1300.0	1.0	n/a	go_stim
178622.17462133488	1288.8253786653474	n/a	1801	71	2750	1288.82537867	stim	stop-signal	417	1175720	0.0-14.14-1.14	beast_fmri_test	303	19.5567,19.568033333333332,19.579366666666665,19.590683333333335,19.602016666666668,19.61335	t,t,t,t,t,t	<img class = center src='/static/experiments/beast_fmri_test/images/D.png'></img>	71,89	2750.0	test	<img class = center src='/static/experiments/beast_fmri_test/images/redD.png'></img>	go	1450.0	1.0	14.0	go	target	D	71,Green Button	89,Yellow Button	1300.0	1350.0	1450.0	1350.0	1.0	1300.0	1.0	n/a	ITI
181741.00000000012	500	n/a	-1	-1	500	0.0	fixation	poldrack-single-stim	418	1177550	0.0-14.15-0.15	beast_fmri_test	303	19.624666666666666	t	<div class = centerbox><div class = fixation>+</div></div>	none	500.0	test	n/a	n/a	n/a	n/a	n/a	n/a	n/a	n/a	n/a	n/a	n/a	n/a	n/a	n/a	n/a	n/a	n/a	n/a	fixation
181533.71553741826	2750	n/a	1541	89	2750	209.284462582	stim	stop-signal	419	1180302	0.0-14.15-1.15	beast_fmri_test	303	19.636016666666666,19.647333333333332,19.658666666666665,19.67	t,t,t,t	<img class = center src='/static/experiments/beast_fmri_test/images/V.png'></img>	71,89	2750.0	test	<img class = center src='/static/experiments/beast_fmri_test/images/redV.png'></img>	go	1400.0	1.0	15.0	go	non-target	V	71,Green Button	89,Yellow Button	1300.0	1350.0	1450.0	1400.0	1.0	1350.0	1.0	n/a	go_stim
184283.71553741826	209.28446258183567	n/a	1541	89	2750	209.284462582	stim	stop-signal	419	1180302	0.0-14.15-1.15	beast_fmri_test	303	19.636016666666666,19.647333333333332,19.658666666666665,19.67	t,t,t,t	<img class = center src='/static/experiments/beast_fmri_test/images/V.png'></img>	71,89	2750.0	test	<img class = center src='/static/experiments/beast_fmri_test/images/redV.png'></img>	go	1400.0	1.0	15.0	go	non-target	V	71,Green Button	89,Yellow Button	1300.0	1350.0	1450.0	1400.0	1.0	1350.0	1.0	n/a	ITI
185243.00000000012	500	n/a	-1	-1	500	0.0	fixation	poldrack-single-stim	420	1181052	0.0-14.16-0.16	beast_fmri_test	303	19.681333333333335	t	<div class = centerbox><div class = fixation>+</div></div>	none	500.0	test	n/a	n/a	n/a	n/a	n/a	n/a	n/a	n/a	n/a	n/a	n/a	n/a	n/a	n/a	n/a	n/a	n/a	n/a	fixation
183966.73642243596	2750	n/a	1630	89	2750	1278.26357756	stim	stop-signal	421	1183804	0.0-14.16-1.16	beast_fmri_test	303	19.69265,19.703983333333333,19.715316666666666,19.72665,19.737966666666665,19.7493	t,t,t,t,t,t	<img class = center src='/static/experiments/beast_fmri_test/images/D.png'></img>	71,89	2750.0	test	<img class = center src='/static/experiments/beast_fmri_test/images/redD.png'></img>	go	1400.0	1.0	16.0	go	non-target	D	71,Green Button	89,Yellow Button	1300.0	1350.0	1450.0	1400.0	1.0	1350.0	1.0	n/a	go_stim
186716.73642243596	1278.2635775641404	n/a	1630	89	2750	1278.26357756	stim	stop-signal	421	1183804	0.0-14.16-1.16	beast_fmri_test	303	19.69265,19.703983333333333,19.715316666666666,19.72665,19.737966666666665,19.7493	t,t,t,t,t,t	<img class = center src='/static/experiments/beast_fmri_test/images/D.png'></img>	71,89	2750.0	test	<img class = center src='/static/experiments/beast_fmri_test/images/redD.png'></img>	go	1400.0	1.0	16.0	go	non-target	D	71,Green Button	89,Yellow Button	1300.0	1350.0	1450.0	1400.0	1.0	1350.0	1.0	n/a	ITI
189812.00000000012	500	n/a	-1	-1	500	0.0	fixation	poldrack-single-stim	422	1185621	0.0-14.17-0.17	beast_fmri_test	303	n/a	n/a	<div class = centerbox><div class = fixation>+</div></div>	none	500.0	test	n/a	n/a	n/a	n/a	n/a	n/a	n/a	n/a	n/a	n/a	n/a	n/a	n/a	n/a	n/a	n/a	n/a	n/a	fixation
189775.49350940029	2750	n/a	1676	89	2750	37.5064905998	stim	stop-signal	423	1188372	0.0-14.17-1.17	beast_fmri_test	303	19.760616666666667,19.77195,19.78325,19.7946,19.805933333333332	t,t,t,t,t	<img class = center src='/static/experiments/beast_fmri_test/images/V.png'></img>	71,89	2750.0	test	<img class = center src='/static/experiments/beast_fmri_test/images/redV.png'></img>	go	1400.0	1.0	17.0	go	non-target	V	71,Green Button	89,Yellow Button	1300.0	1350.0	1450.0	1400.0	1.0	1350.0	1.0	n/a	go_stim
192525.49350940029	37.506490599801481	n/a	1676	89	2750	37.5064905998	stim	stop-signal	423	1188372	0.0-14.17-1.17	beast_fmri_test	303	19.760616666666667,19.77195,19.78325,19.7946,19.805933333333332	t,t,t,t,t	<img class = center src='/static/experiments/beast_fmri_test/images/V.png'></img>	71,89	2750.0	test	<img class = center src='/static/experiments/beast_fmri_test/images/redV.png'></img>	go	1400.0	1.0	17.0	go	non-target	V	71,Green Button	89,Yellow Button	1300.0	1350.0	1450.0	1400.0	1.0	1350.0	1.0	n/a	ITI
193145.00000000012	500	n/a	-1	-1	500	0.0	fixation	poldrack-single-stim	424	1188954	0.0-14.18-0.18	beast_fmri_test	303	n/a	n/a	<div class = centerbox><div class = fixation>+</div></div>	none	500.0	test	n/a	n/a	n/a	n/a	n/a	n/a	n/a	n/a	n/a	n/a	n/a	n/a	n/a	n/a	n/a	n/a	n/a	n/a	fixation
192141.97967637039	1300.0	n/a	1473	71	2750	1004.02032363	stim	stop-signal	425	1191705	0.0-14.18-1.18	beast_fmri_test	303	19.81725,19.8286,19.839916666666667,19.851216666666666,19.86255,19.8739	t,t,t,t,t,t	<img class = center src='/static/experiments/beast_fmri_test/images/V.png'></img>	71,89	2750.0	test	<img class = center src='/static/experiments/beast_fmri_test/images/redV.png'></img>	stop	1450.0	1.0	18.0	stop	target	V	71,Green Button	89,Yellow Button	1300.0	1350.0	1450.0	1400.0	0.0	1300.0	1.0	0.0	go_stim
193591.97967637039	1450.0	n/a	1473	71	2750	1004.02032363	stim	stop-signal	425	1191705	0.0-14.18-1.18	beast_fmri_test	303	19.81725,19.8286,19.839916666666667,19.851216666666666,19.86255,19.8739	t,t,t,t,t,t	<img class = center src='/static/experiments/beast_fmri_test/images/V.png'></img>	71,89	2750.0	test	<img class = center src='/static/experiments/beast_fmri_test/images/redV.png'></img>	stop	1450.0	1.0	18.0	stop	target	V	71,Green Button	89,Yellow Button	1300.0	1350.0	1450.0	1400.0	0.0	1300.0	1.0	0.0	stop_stim
194891.97967637039	1004.0203236297084	n/a	1473	71	2750	1004.02032363	stim	stop-signal	425	1191705	0.0-14.18-1.18	beast_fmri_test	303	19.81725,19.8286,19.839916666666667,19.851216666666666,19.86255,19.8739	t,t,t,t,t,t	<img class = center src='/static/experiments/beast_fmri_test/images/V.png'></img>	71,89	2750.0	test	<img class = center src='/static/experiments/beast_fmri_test/images/redV.png'></img>	stop	1450.0	1.0	18.0	stop	target	V	71,Green Button	89,Yellow Button	1300.0	1350.0	1450.0	1400.0	0.0	1300.0	1.0	0.0	ITI
197441.00000000012	500	n/a	-1	-1	500	0.0	fixation	poldrack-single-stim	426	1193250	0.0-14.19-0.19	beast_fmri_test	303	19.885233333333332	t	<div class = centerbox><div class = fixation>+</div></div>	none	500.0	test	n/a	n/a	n/a	n/a	n/a	n/a	n/a	n/a	n/a	n/a	n/a	n/a	n/a	n/a	n/a	n/a	n/a	n/a	fixation
196392.0078848371	2750	n/a	1729	71	2750	1050.99211516	stim	stop-signal	427	1196002	0.0-14.19-1.19	beast_fmri_test	303	19.89655,19.907883333333334,19.919216666666667,19.930533333333333,19.941866666666666	t,t,t,t,t	<img class = center src='/static/experiments/beast_fmri_test/images/V.png'></img>	71,89	2750.0	test	<img class = center src='/static/experiments/beast_fmri_test/images/redV.png'></img>	go	1500.0	1.0	19.0	go	target	V	71,Green Button	89,Yellow Button	1250.0	1350.0	1500.0	1400.0	1.0	1250.0	1.0	n/a	go_stim
199142.0078848371	1050.9921151630706	n/a	1729	71	2750	1050.99211516	stim	stop-signal	427	1196002	0.0-14.19-1.19	beast_fmri_test	303	19.89655,19.907883333333334,19.919216666666667,19.930533333333333,19.941866666666666	t,t,t,t,t	<img class = center src='/static/experiments/beast_fmri_test/images/V.png'></img>	71,89	2750.0	test	<img class = center src='/static/experiments/beast_fmri_test/images/redV.png'></img>	go	1500.0	1.0	19.0	go	target	V	71,Green Button	89,Yellow Button	1250.0	1350.0	1500.0	1400.0	1.0	1250.0	1.0	n/a	ITI
201787.00000000012	500	n/a	-1	-1	500	0.0	fixation	poldrack-single-stim	428	1197596	0.0-14.20-0.20	beast_fmri_test	303	19.9532	t	<div class = centerbox><div class = fixation>+</div></div>	none	500.0	test	n/a	n/a	n/a	n/a	n/a	n/a	n/a	n/a	n/a	n/a	n/a	n/a	n/a	n/a	n/a	n/a	n/a	n/a	fixation
199526.01111717557	2750	n/a	2048	89	2750	2263.98888282	stim	stop-signal	429	1200349	0.0-14.20-1.20	beast_fmri_test	303	19.96451666666667,19.97585,19.987183333333334,19.9985,20.009833333333333,20.02115,20.03248333333333	t,t,t,t,t,t,t	<img class = center src='/static/experiments/beast_fmri_test/images/P.png'></img>	71,89	2750.0	test	<img class = center src='/static/experiments/beast_fmri_test/images/redP.png'></img>	go	1400.0	1.0	20.0	go	non-target	P	71,Green Button	89,Yellow Button	1250.0	1350.0	1500.0	1400.0	1.0	1350.0	1.0	n/a	go_stim
202276.01111717557	2263.9888828244784	n/a	2048	89	2750	2263.98888282	stim	stop-signal	429	1200349	0.0-14.20-1.20	beast_fmri_test	303	19.96451666666667,19.97585,19.987183333333334,19.9985,20.009833333333333,20.02115,20.03248333333333	t,t,t,t,t,t,t	<img class = center src='/static/experiments/beast_fmri_test/images/P.png'></img>	71,89	2750.0	test	<img class = center src='/static/experiments/beast_fmri_test/images/redP.png'></img>	go	1400.0	1.0	20.0	go	non-target	P	71,Green Button	89,Yellow Button	1250.0	1350.0	1500.0	1400.0	1.0	1350.0	1.0	n/a	ITI
207343.00000000012	500	n/a	-1	-1	500	0.0	fixation	poldrack-single-stim	430	1203152	0.0-14.21-0.21	beast_fmri_test	303	20.044166666666666	t	<div class = centerbox><div class = fixation>+</div></div>	none	500.0	test	n/a	n/a	n/a	n/a	n/a	n/a	n/a	n/a	n/a	n/a	n/a	n/a	n/a	n/a	n/a	n/a	n/a	n/a	fixation
206572.52055374987	2750	n/a	1870	89	2750	771.47944625	stim	stop-signal	431	1205903	0.0-14.21-1.21	beast_fmri_test	303	20.055133333333334,20.066466666666667,20.0778,20.089133333333333,20.100466666666666	t,t,t,t,t	<img class = center src='/static/experiments/beast_fmri_test/images/V.png'></img>	71,89	2750.0	test	<img class = center src='/static/experiments/beast_fmri_test/images/redV.png'></img>	go	1400.0	1.0	21.0	go	non-target	V	71,Green Button	89,Yellow Button	1250.0	1350.0	1500.0	1400.0	1.0	1350.0	1.0	n/a	go_stim
209322.52055374987	771.47944625026662	n/a	1870	89	2750	771.47944625	stim	stop-signal	431	1205903	0.0-14.21-1.21	beast_fmri_test	303	20.055133333333334,20.066466666666667,20.0778,20.089133333333333,20.100466666666666	t,t,t,t,t	<img class = center src='/static/experiments/beast_fmri_test/images/V.png'></img>	71,89	2750.0	test	<img class = center src='/static/experiments/beast_fmri_test/images/redV.png'></img>	go	1400.0	1.0	21.0	go	non-target	V	71,Green Button	89,Yellow Button	1250.0	1350.0	1500.0	1400.0	1.0	1350.0	1.0	n/a	ITI
211408.00000000012	500	n/a	-1	-1	500	0.0	fixation	poldrack-single-stim	432	1207217	0.0-14.22-0.22	beast_fmri_test	303	20.111933333333333	t	<div class = centerbox><div class = fixation>+</div></div>	none	500.0	test	n/a	n/a	n/a	n/a	n/a	n/a	n/a	n/a	n/a	n/a	n/a	n/a	n/a	n/a	n/a	n/a	n/a	n/a	fixation
211373.74741483002	1250.0	n/a	-1	-1	2750	37.25258517	stim	stop-signal	433	1209970	0.0-14.22-1.22	beast_fmri_test	303	20.123116666666668,20.13446666666667,20.145766666666667,20.157083333333333	t,t,t,t	<img class = center src='/static/experiments/beast_fmri_test/images/V.png'></img>	71,89	2750.0	test	<img class = center src='/static/experiments/beast_fmri_test/images/redV.png'></img>	stop	1500.0	1.0	22.0	stop	target	V	71,Green Button	89,Yellow Button	1250.0	1350.0	1500.0	1400.0	0.0	1250.0	0.0	1.0	go_stim
212873.74741483002	1500.0	n/a	-1	-1	2750	37.25258517	stim	stop-signal	433	1209970	0.0-14.22-1.22	beast_fmri_test	303	20.123116666666668,20.13446666666667,20.145766666666667,20.157083333333333	t,t,t,t	<img class = center src='/static/experiments/beast_fmri_test/images/V.png'></img>	71,89	2750.0	test	<img class = center src='/static/experiments/beast_fmri_test/images/redV.png'></img>	stop	1500.0	1.0	22.0	stop	target	V	71,Green Button	89,Yellow Button	1250.0	1350.0	1500.0	1400.0	0.0	1250.0	0.0	1.0	stop_stim
214123.74741483002	37.252585169983185	n/a	-1	-1	2750	37.25258517	stim	stop-signal	433	1209970	0.0-14.22-1.22	beast_fmri_test	303	20.123116666666668,20.13446666666667,20.145766666666667,20.157083333333333	t,t,t,t	<img class = center src='/static/experiments/beast_fmri_test/images/V.png'></img>	71,89	2750.0	test	<img class = center src='/static/experiments/beast_fmri_test/images/redV.png'></img>	stop	1500.0	1.0	22.0	stop	target	V	71,Green Button	89,Yellow Button	1250.0	1350.0	1500.0	1400.0	0.0	1250.0	0.0	1.0	ITI
214745.00000000012	500	n/a	-1	-1	500	0.0	fixation	poldrack-single-stim	434	1210554	0.0-14.23-0.23	beast_fmri_test	303	20.168416666666666	t	<div class = centerbox><div class = fixation>+</div></div>	none	500.0	test	n/a	n/a	n/a	n/a	n/a	n/a	n/a	n/a	n/a	n/a	n/a	n/a	n/a	n/a	n/a	n/a	n/a	n/a	fixation
214352.80322621448	2750	n/a	1261	71	2750	394.196773786	stim	stop-signal	435	1213306	0.0-14.23-1.23	beast_fmri_test	303	20.179766666666666,20.1911,20.202416666666668,20.21375,20.225066666666667	t,t,t,t,t	<img class = center src='/static/experiments/beast_fmri_test/images/V.png'></img>	71,89	2750.0	test	<img class = center src='/static/experiments/beast_fmri_test/images/redV.png'></img>	go	1450.0	1.0	23.0	go	target	V	71,Green Button	89,Yellow Button	1300.0	1350.0	1450.0	1400.0	1.0	1300.0	1.0	n/a	go_stim
217102.80322621448	394.19677378573198	n/a	1261	71	2750	394.196773786	stim	stop-signal	435	1213306	0.0-14.23-1.23	beast_fmri_test	303	20.179766666666666,20.1911,20.202416666666668,20.21375,20.225066666666667	t,t,t,t,t	<img class = center src='/static/experiments/beast_fmri_test/images/V.png'></img>	71,89	2750.0	test	<img class = center src='/static/experiments/beast_fmri_test/images/redV.png'></img>	go	1450.0	1.0	23.0	go	target	V	71,Green Button	89,Yellow Button	1300.0	1350.0	1450.0	1400.0	1.0	1300.0	1.0	n/a	ITI
218436.00000000012	500	n/a	-1	-1	500	0.0	fixation	poldrack-single-stim	436	1214245	0.0-14.24-0.24	beast_fmri_test	303	20.2364	t	<div class = centerbox><div class = fixation>+</div></div>	none	500.0	test	n/a	n/a	n/a	n/a	n/a	n/a	n/a	n/a	n/a	n/a	n/a	n/a	n/a	n/a	n/a	n/a	n/a	n/a	fixation
217105.35862721235	2750	n/a	1909	71	2750	1331.64137279	stim	stop-signal	437	1216996	0.0-14.24-1.24	beast_fmri_test	303	20.247716666666665,20.25905,20.270383333333335,20.281716666666668,20.293033333333334,20.304366666666667	t,t,t,t,t,t	<img class = center src='/static/experiments/beast_fmri_test/images/V.png'></img>	71,89	2750.0	test	<img class = center src='/static/experiments/beast_fmri_test/images/redV.png'></img>	go	1450.0	1.0	24.0	go	target	V	71,Green Button	89,Yellow Button	1300.0	1350.0	1450.0	1400.0	1.0	1300.0	1.0	n/a	go_stim
219855.35862721235	1331.6413727878426	n/a	1909	71	2750	1331.64137279	stim	stop-signal	437	1216996	0.0-14.24-1.24	beast_fmri_test	303	20.247716666666665,20.25905,20.270383333333335,20.281716666666668,20.293033333333334,20.304366666666667	t,t,t,t,t,t	<img class = center src='/static/experiments/beast_fmri_test/images/V.png'></img>	71,89	2750.0	test	<img class = center src='/static/experiments/beast_fmri_test/images/redV.png'></img>	go	1450.0	1.0	24.0	go	target	V	71,Green Button	89,Yellow Button	1300.0	1350.0	1450.0	1400.0	1.0	1300.0	1.0	n/a	ITI
223065.00000000012	500	n/a	-1	-1	500	0.0	fixation	poldrack-single-stim	438	1218874	0.0-14.25-0.25	beast_fmri_test	303	n/a	n/a	<div class = centerbox><div class = fixation>+</div></div>	none	500.0	test	n/a	n/a	n/a	n/a	n/a	n/a	n/a	n/a	n/a	n/a	n/a	n/a	n/a	n/a	n/a	n/a	n/a	n/a	fixation
222834.04106296215	2750	n/a	1727	71	2750	232.958937038	stim	stop-signal	439	1221626	0.0-14.25-1.25	beast_fmri_test	303	20.315716666666667,20.327016666666665,20.33835,20.349683333333335,20.360983333333333	t,t,t,t,t	<img class = center src='/static/experiments/beast_fmri_test/images/V.png'></img>	71,89	2750.0	test	<img class = center src='/static/experiments/beast_fmri_test/images/redV.png'></img>	go	1450.0	1.0	25.0	go	target	V	71,Green Button	89,Yellow Button	1300.0	1350.0	1450.0	1400.0	1.0	1300.0	1.0	n/a	go_stim
225584.04106296215	232.9589370380634	n/a	1727	71	2750	232.958937038	stim	stop-signal	439	1221626	0.0-14.25-1.25	beast_fmri_test	303	20.315716666666667,20.327016666666665,20.33835,20.349683333333335,20.360983333333333	t,t,t,t,t	<img class = center src='/static/experiments/beast_fmri_test/images/V.png'></img>	71,89	2750.0	test	<img class = center src='/static/experiments/beast_fmri_test/images/redV.png'></img>	go	1450.0	1.0	25.0	go	target	V	71,Green Button	89,Yellow Button	1300.0	1350.0	1450.0	1400.0	1.0	1300.0	1.0	n/a	ITI
226597.00000000012	500	n/a	-1	-1	500	0.0	fixation	poldrack-single-stim	440	1222406	0.0-14.26-0.26	beast_fmri_test	303	20.37235	t	<div class = centerbox><div class = fixation>+</div></div>	none	500.0	test	n/a	n/a	n/a	n/a	n/a	n/a	n/a	n/a	n/a	n/a	n/a	n/a	n/a	n/a	n/a	n/a	n/a	n/a	fixation
226563.39523512346	2750	n/a	2004	89	2750	34.6047648767	stim	stop-signal	441	1225157	0.0-14.26-1.26	beast_fmri_test	303	20.383666666666667,20.395,20.406333333333333,20.417633333333335	t,t,t,t	<img class = center src='/static/experiments/beast_fmri_test/images/B.png'></img>	71,89	2750.0	test	<img class = center src='/static/experiments/beast_fmri_test/images/redB.png'></img>	go	1400.0	1.0	26.0	go	non-target	B	71,Green Button	89,Yellow Button	1300.0	1350.0	1450.0	1400.0	1.0	1350.0	1.0	n/a	go_stim
229313.39523512346	34.604764876747154	n/a	2004	89	2750	34.6047648767	stim	stop-signal	441	1225157	0.0-14.26-1.26	beast_fmri_test	303	20.383666666666667,20.395,20.406333333333333,20.417633333333335	t,t,t,t	<img class = center src='/static/experiments/beast_fmri_test/images/B.png'></img>	71,89	2750.0	test	<img class = center src='/static/experiments/beast_fmri_test/images/redB.png'></img>	go	1400.0	1.0	26.0	go	non-target	B	71,Green Button	89,Yellow Button	1300.0	1350.0	1450.0	1400.0	1.0	1350.0	1.0	n/a	ITI
229923.00000000012	500	n/a	-1	-1	500	0.0	fixation	poldrack-single-stim	442	1225732	0.0-14.27-0.27	beast_fmri_test	303	n/a	n/a	<div class = centerbox><div class = fixation>+</div></div>	none	500.0	test	n/a	n/a	n/a	n/a	n/a	n/a	n/a	n/a	n/a	n/a	n/a	n/a	n/a	n/a	n/a	n/a	n/a	n/a	fixation
228806.7481570422	2750	n/a	1726	89	2750	1118.25184296	stim	stop-signal	443	1228484	0.0-14.27-1.27	beast_fmri_test	303	20.428966666666668,20.440316666666668,20.451616666666666,20.462966666666667,20.4743,20.485616666666665	t,t,t,t,t,t	<img class = center src='/static/experiments/beast_fmri_test/images/V.png'></img>	71,89	2750.0	test	<img class = center src='/static/experiments/beast_fmri_test/images/redV.png'></img>	go	1400.0	1.0	27.0	go	non-target	V	71,Green Button	89,Yellow Button	1300.0	1350.0	1450.0	1400.0	1.0	1350.0	1.0	n/a	go_stim
231556.7481570422	1118.2518429579052	n/a	1726	89	2750	1118.25184296	stim	stop-signal	443	1228484	0.0-14.27-1.27	beast_fmri_test	303	20.428966666666668,20.440316666666668,20.451616666666666,20.462966666666667,20.4743,20.485616666666665	t,t,t,t,t,t	<img class = center src='/static/experiments/beast_fmri_test/images/V.png'></img>	71,89	2750.0	test	<img class = center src='/static/experiments/beast_fmri_test/images/redV.png'></img>	go	1400.0	1.0	27.0	go	non-target	V	71,Green Button	89,Yellow Button	1300.0	1350.0	1450.0	1400.0	1.0	1350.0	1.0	n/a	ITI
234338.00000000012	500	n/a	-1	-1	500	0.0	fixation	poldrack-single-stim	444	1230147	0.0-14.28-0.28	beast_fmri_test	303	20.49695	t	<div class = centerbox><div class = fixation>+</div></div>	none	500.0	test	n/a	n/a	n/a	n/a	n/a	n/a	n/a	n/a	n/a	n/a	n/a	n/a	n/a	n/a	n/a	n/a	n/a	n/a	fixation
232702.04383320746	2750	n/a	1881	71	2750	1637.95616679	stim	stop-signal	445	1232899	0.0-14.28-1.28	beast_fmri_test	303	20.508283333333335,20.5196,20.530933333333333,20.542266666666666,20.553583333333332,20.5649	t,t,t,t,t,t	<img class = center src='/static/experiments/beast_fmri_test/images/V.png'></img>	71,89	2750.0	test	<img class = center src='/static/experiments/beast_fmri_test/images/redV.png'></img>	go	1450.0	1.0	28.0	go	target	V	71,Green Button	89,Yellow Button	1300.0	1350.0	1450.0	1400.0	1.0	1300.0	1.0	n/a	go_stim
235452.04383320746	1637.9561667927196	n/a	1881	71	2750	1637.95616679	stim	stop-signal	445	1232899	0.0-14.28-1.28	beast_fmri_test	303	20.508283333333335,20.5196,20.530933333333333,20.542266666666666,20.553583333333332,20.5649	t,t,t,t,t,t	<img class = center src='/static/experiments/beast_fmri_test/images/V.png'></img>	71,89	2750.0	test	<img class = center src='/static/experiments/beast_fmri_test/images/redV.png'></img>	go	1450.0	1.0	28.0	go	target	V	71,Green Button	89,Yellow Button	1300.0	1350.0	1450.0	1400.0	1.0	1300.0	1.0	n/a	ITI
239270.00000000012	500	n/a	-1	-1	500	0.0	fixation	poldrack-single-stim	446	1235079	0.0-14.29-0.29	beast_fmri_test	303	20.5763	t	<div class = centerbox><div class = fixation>+</div></div>	none	500.0	test	n/a	n/a	n/a	n/a	n/a	n/a	n/a	n/a	n/a	n/a	n/a	n/a	n/a	n/a	n/a	n/a	n/a	n/a	fixation
238493.16170008911	2750	n/a	1884	89	2750	779.838299911	stim	stop-signal	447	1237832	0.0-14.29-1.29	beast_fmri_test	303	20.587566666666667,20.598916666666668,20.610233333333333,20.621566666666666,20.632883333333332	t,t,t,t,t	<img class = center src='/static/experiments/beast_fmri_test/images/T.png'></img>	71,89	2750.0	test	<img class = center src='/static/experiments/beast_fmri_test/images/redT.png'></img>	go	1400.0	1.0	29.0	go	non-target	T	71,Green Button	89,Yellow Button	1300.0	1350.0	1450.0	1400.0	1.0	1350.0	1.0	n/a	go_stim
241243.16170008911	779.83829991109701	n/a	1884	89	2750	779.838299911	stim	stop-signal	447	1237832	0.0-14.29-1.29	beast_fmri_test	303	20.587566666666667,20.598916666666668,20.610233333333333,20.621566666666666,20.632883333333332	t,t,t,t,t	<img class = center src='/static/experiments/beast_fmri_test/images/T.png'></img>	71,89	2750.0	test	<img class = center src='/static/experiments/beast_fmri_test/images/redT.png'></img>	go	1400.0	1.0	29.0	go	non-target	T	71,Green Button	89,Yellow Button	1300.0	1350.0	1450.0	1400.0	1.0	1350.0	1.0	n/a	ITI
243345.00000000012	500	n/a	-1	-1	500	0.0	fixation	poldrack-single-stim	448	1239154	0.0-14.30-0.30	beast_fmri_test	303	20.6442	t	<div class = centerbox><div class = fixation>+</div></div>	none	500.0	test	n/a	n/a	n/a	n/a	n/a	n/a	n/a	n/a	n/a	n/a	n/a	n/a	n/a	n/a	n/a	n/a	n/a	n/a	fixation
241470.45093139529	2750	n/a	2101	89	2750	1875.5490686	stim	stop-signal	449	1241905	0.0-14.30-1.30	beast_fmri_test	303	20.65555,20.66685,20.6782,20.689533333333333,20.700833333333332,20.712183333333332,20.723516666666665	t,t,t,t,t,t,t	<img class = center src='/static/experiments/beast_fmri_test/images/D.png'></img>	71,89	2750.0	test	<img class = center src='/static/experiments/beast_fmri_test/images/redD.png'></img>	go	1400.0	1.0	30.0	go	non-target	D	71,Green Button	89,Yellow Button	1300.0	1350.0	1450.0	1400.0	1.0	1350.0	1.0	n/a	go_stim
244220.45093139529	1875.5490686048674	n/a	2101	89	2750	1875.5490686	stim	stop-signal	449	1241905	0.0-14.30-1.30	beast_fmri_test	303	20.65555,20.66685,20.6782,20.689533333333333,20.700833333333332,20.712183333333332,20.723516666666665	t,t,t,t,t,t,t	<img class = center src='/static/experiments/beast_fmri_test/images/D.png'></img>	71,89	2750.0	test	<img class = center src='/static/experiments/beast_fmri_test/images/redD.png'></img>	go	1400.0	1.0	30.0	go	non-target	D	71,Green Button	89,Yellow Button	1300.0	1350.0	1450.0	1400.0	1.0	1350.0	1.0	n/a	ITI
248514.00000000012	500	n/a	-1	-1	500	0.0	fixation	poldrack-single-stim	450	1244323	0.0-14.31-0.31	beast_fmri_test	303	20.73485	t	<div class = centerbox><div class = fixation>+</div></div>	none	500.0	test	n/a	n/a	n/a	n/a	n/a	n/a	n/a	n/a	n/a	n/a	n/a	n/a	n/a	n/a	n/a	n/a	n/a	n/a	fixation
248362.55405309924	2750	n/a	1615	89	2750	153.445946901	stim	stop-signal	451	1247075	0.0-14.31-1.31	beast_fmri_test	303	20.746183333333335,20.7575,20.768833333333333,20.780166666666666	t,t,t,t	<img class = center src='/static/experiments/beast_fmri_test/images/T.png'></img>	71,89	2750.0	test	<img class = center src='/static/experiments/beast_fmri_test/images/redT.png'></img>	go	1400.0	1.0	31.0	go	non-target	T	71,Green Button	89,Yellow Button	1300.0	1350.0	1450.0	1400.0	1.0	1350.0	1.0	n/a	go_stim
251112.55405309924	153.44594690080018	n/a	1615	89	2750	153.445946901	stim	stop-signal	451	1247075	0.0-14.31-1.31	beast_fmri_test	303	20.746183333333335,20.7575,20.768833333333333,20.780166666666666	t,t,t,t	<img class = center src='/static/experiments/beast_fmri_test/images/T.png'></img>	71,89	2750.0	test	<img class = center src='/static/experiments/beast_fmri_test/images/redT.png'></img>	go	1400.0	1.0	31.0	go	non-target	T	71,Green Button	89,Yellow Button	1300.0	1350.0	1450.0	1400.0	1.0	1350.0	1.0	n/a	ITI
251962.00000000012	500	n/a	-1	-1	500	0.0	fixation	poldrack-single-stim	452	1247771	0.0-14.32-0.32	beast_fmri_test	303	20.791483333333332	t	<div class = centerbox><div class = fixation>+</div></div>	none	500.0	test	n/a	n/a	n/a	n/a	n/a	n/a	n/a	n/a	n/a	n/a	n/a	n/a	n/a	n/a	n/a	n/a	n/a	n/a	fixation
250289.6283259656	2750	n/a	1389	71	2750	1673.37167403	stim	stop-signal	453	1250522	0.0-14.32-1.32	beast_fmri_test	303	20.802816666666665,20.814133333333334,20.825466666666667,20.836783333333333,20.848133333333333,20.85945	t,t,t,t,t,t	<img class = center src='/static/experiments/beast_fmri_test/images/T.png'></img>	71,89	2750.0	test	<img class = center src='/static/experiments/beast_fmri_test/images/redT.png'></img>	go	1450.0	1.0	32.0	go	target	T	71,Green Button	89,Yellow Button	1300.0	1350.0	1450.0	1400.0	1.0	1300.0	1.0	n/a	go_stim
253039.6283259656	1673.3716740346031	n/a	1389	71	2750	1673.37167403	stim	stop-signal	453	1250522	0.0-14.32-1.32	beast_fmri_test	303	20.802816666666665,20.814133333333334,20.825466666666667,20.836783333333333,20.848133333333333,20.85945	t,t,t,t,t,t	<img class = center src='/static/experiments/beast_fmri_test/images/T.png'></img>	71,89	2750.0	test	<img class = center src='/static/experiments/beast_fmri_test/images/redT.png'></img>	go	1450.0	1.0	32.0	go	target	T	71,Green Button	89,Yellow Button	1300.0	1350.0	1450.0	1400.0	1.0	1300.0	1.0	n/a	ITI
256932.00000000012	500	n/a	-1	-1	500	0.0	fixation	poldrack-single-stim	454	1252741	0.0-14.33-0.33	beast_fmri_test	303	20.87075	t	<div class = centerbox><div class = fixation>+</div></div>	none	500.0	test	n/a	n/a	n/a	n/a	n/a	n/a	n/a	n/a	n/a	n/a	n/a	n/a	n/a	n/a	n/a	n/a	n/a	n/a	fixation
256778.75149476004	2750	n/a	1384	89	2750	155.24850524	stim	stop-signal	455	1255493	0.0-14.33-1.33	beast_fmri_test	303	20.882083333333334,20.893416666666667,20.904766666666667,20.916083333333333,20.9274	t,t,t,t,t	<img class = center src='/static/experiments/beast_fmri_test/images/V.png'></img>	71,89	2750.0	test	<img class = center src='/static/experiments/beast_fmri_test/images/redV.png'></img>	go	1400.0	1.0	33.0	go	non-target	V	71,Green Button	89,Yellow Button	1300.0	1350.0	1450.0	1400.0	1.0	1350.0	1.0	n/a	go_stim
259528.75149476004	155.2485052400697	n/a	1384	89	2750	155.24850524	stim	stop-signal	455	1255493	0.0-14.33-1.33	beast_fmri_test	303	20.882083333333334,20.893416666666667,20.904766666666667,20.916083333333333,20.9274	t,t,t,t,t	<img class = center src='/static/experiments/beast_fmri_test/images/V.png'></img>	71,89	2750.0	test	<img class = center src='/static/experiments/beast_fmri_test/images/redV.png'></img>	go	1400.0	1.0	33.0	go	non-target	V	71,Green Button	89,Yellow Button	1300.0	1350.0	1450.0	1400.0	1.0	1350.0	1.0	n/a	ITI
260381.00000000012	500	n/a	-1	-1	500	0.0	fixation	poldrack-single-stim	456	1256190	0.0-14.34-0.34	beast_fmri_test	303	n/a	n/a	<div class = centerbox><div class = fixation>+</div></div>	none	500.0	test	n/a	n/a	n/a	n/a	n/a	n/a	n/a	n/a	n/a	n/a	n/a	n/a	n/a	n/a	n/a	n/a	n/a	n/a	fixation
259144.20731829118	2750	n/a	1701	89	2750	1238.79268171	stim	stop-signal	457	1258942	0.0-14.34-1.34	beast_fmri_test	303	20.93875,20.950066666666668,20.9614,20.972716666666667,20.98405,20.995383333333333	t,t,t,t,t,t	<img class = center src='/static/experiments/beast_fmri_test/images/T.png'></img>	71,89	2750.0	test	<img class = center src='/static/experiments/beast_fmri_test/images/redT.png'></img>	go	1400.0	1.0	34.0	go	non-target	T	71,Green Button	89,Yellow Button	1300.0	1350.0	1450.0	1400.0	1.0	1350.0	1.0	n/a	go_stim
261894.20731829118	1238.7926817089294	n/a	1701	89	2750	1238.79268171	stim	stop-signal	457	1258942	0.0-14.34-1.34	beast_fmri_test	303	20.93875,20.950066666666668,20.9614,20.972716666666667,20.98405,20.995383333333333	t,t,t,t,t,t	<img class = center src='/static/experiments/beast_fmri_test/images/T.png'></img>	71,89	2750.0	test	<img class = center src='/static/experiments/beast_fmri_test/images/redT.png'></img>	go	1400.0	1.0	34.0	go	non-target	T	71,Green Button	89,Yellow Button	1300.0	1350.0	1450.0	1400.0	1.0	1350.0	1.0	n/a	ITI
264916.00000000012	500	n/a	-1	-1	500	0.0	fixation	poldrack-single-stim	458	1260725	0.0-14.35-0.35	beast_fmri_test	303	21.0067	t	<div class = centerbox><div class = fixation>+</div></div>	none	500.0	test	n/a	n/a	n/a	n/a	n/a	n/a	n/a	n/a	n/a	n/a	n/a	n/a	n/a	n/a	n/a	n/a	n/a	n/a	fixation
264201.73513968138	2750	n/a	1586	89	2750	716.264860319	stim	stop-signal	459	1263477	0.0-14.35-1.35	beast_fmri_test	303	21.018016666666668,21.029366666666668,21.040683333333334,21.052016666666667,21.06335	t,t,t,t,t	<img class = center src='/static/experiments/beast_fmri_test/images/V.png'></img>	71,89	2750.0	test	<img class = center src='/static/experiments/beast_fmri_test/images/redV.png'></img>	go	1400.0	1.0	35.0	go	non-target	V	71,Green Button	89,Yellow Button	1300.0	1350.0	1450.0	1400.0	1.0	1350.0	1.0	n/a	go_stim
266951.73513968138	716.2648603186841	n/a	1586	89	2750	716.264860319	stim	stop-signal	459	1263477	0.0-14.35-1.35	beast_fmri_test	303	21.018016666666668,21.029366666666668,21.040683333333334,21.052016666666667,21.06335	t,t,t,t,t	<img class = center src='/static/experiments/beast_fmri_test/images/V.png'></img>	71,89	2750.0	test	<img class = center src='/static/experiments/beast_fmri_test/images/redV.png'></img>	go	1400.0	1.0	35.0	go	non-target	V	71,Green Button	89,Yellow Button	1300.0	1350.0	1450.0	1400.0	1.0	1350.0	1.0	n/a	ITI
268932.00000000012	500	n/a	-1	-1	500	0.0	fixation	poldrack-single-stim	460	1264741	0.0-14.36-0.36	beast_fmri_test	303	21.074683333333333	t	<div class = centerbox><div class = fixation>+</div></div>	none	500.0	test	n/a	n/a	n/a	n/a	n/a	n/a	n/a	n/a	n/a	n/a	n/a	n/a	n/a	n/a	n/a	n/a	n/a	n/a	fixation
267037.46167920821	1300.0	n/a	-1	-1	2750	1895.53832079	stim	stop-signal	461	1267492	0.0-14.36-1.36	beast_fmri_test	303	21.086016666666666,21.09735,21.10868333333333,21.12,21.131316666666667,21.14265,21.153983333333333	t,t,t,t,t,t,t	<img class = center src='/static/experiments/beast_fmri_test/images/V.png'></img>	71,89	2750.0	test	<img class = center src='/static/experiments/beast_fmri_test/images/redV.png'></img>	stop	1450.0	1.0	36.0	stop	target	V	71,Green Button	89,Yellow Button	1300.0	1350.0	1450.0	1400.0	0.0	1300.0	0.0	1.0	go_stim
268487.46167920821	1450.0	n/a	-1	-1	2750	1895.53832079	stim	stop-signal	461	1267492	0.0-14.36-1.36	beast_fmri_test	303	21.086016666666666,21.09735,21.10868333333333,21.12,21.131316666666667,21.14265,21.153983333333333	t,t,t,t,t,t,t	<img class = center src='/static/experiments/beast_fmri_test/images/V.png'></img>	71,89	2750.0	test	<img class = center src='/static/experiments/beast_fmri_test/images/redV.png'></img>	stop	1450.0	1.0	36.0	stop	target	V	71,Green Button	89,Yellow Button	1300.0	1350.0	1450.0	1400.0	0.0	1300.0	0.0	1.0	stop_stim
269787.46167920821	1895.5383207920133	n/a	-1	-1	2750	1895.53832079	stim	stop-signal	461	1267492	0.0-14.36-1.36	beast_fmri_test	303	21.086016666666666,21.09735,21.10868333333333,21.12,21.131316666666667,21.14265,21.153983333333333	t,t,t,t,t,t,t	<img class = center src='/static/experiments/beast_fmri_test/images/V.png'></img>	71,89	2750.0	test	<img class = center src='/static/experiments/beast_fmri_test/images/redV.png'></img>	stop	1450.0	1.0	36.0	stop	target	V	71,Green Button	89,Yellow Button	1300.0	1350.0	1450.0	1400.0	0.0	1300.0	0.0	1.0	ITI
274123.00000000012	500	n/a	-1	-1	500	0.0	fixation	poldrack-single-stim	462	1269932	0.0-14.37-0.37	beast_fmri_test	303	21.165316666666666	t	<div class = centerbox><div class = fixation>+</div></div>	none	500.0	test	n/a	n/a	n/a	n/a	n/a	n/a	n/a	n/a	n/a	n/a	n/a	n/a	n/a	n/a	n/a	n/a	n/a	n/a	fixation
273460.92879004974	1350.0	n/a	1493	89	2750	664.07120995	stim	stop-signal	463	1272684	0.0-14.37-1.37	beast_fmri_test	303	21.17665,21.187966666666668,21.199283333333334,21.210633333333334,21.22195	t,t,t,t,t	<img class = center src='/static/experiments/beast_fmri_test/images/T.png'></img>	71,89	2750.0	test	<img class = center src='/static/experiments/beast_fmri_test/images/redT.png'></img>	stop	1400.0	1.0	37.0	stop	non-target	T	71,Green Button	89,Yellow Button	1350.0	1350.0	1450.0	1400.0	0.0	1350.0	1.0	0.0	go_stim
274860.92879004974	1400.0	n/a	1493	89	2750	664.07120995	stim	stop-signal	463	1272684	0.0-14.37-1.37	beast_fmri_test	303	21.17665,21.187966666666668,21.199283333333334,21.210633333333334,21.22195	t,t,t,t,t	<img class = center src='/static/experiments/beast_fmri_test/images/T.png'></img>	71,89	2750.0	test	<img class = center src='/static/experiments/beast_fmri_test/images/redT.png'></img>	stop	1400.0	1.0	37.0	stop	non-target	T	71,Green Button	89,Yellow Button	1350.0	1350.0	1450.0	1400.0	0.0	1350.0	1.0	0.0	stop_stim
276210.92879004974	664.07120995044363	n/a	1493	89	2750	664.07120995	stim	stop-signal	463	1272684	0.0-14.37-1.37	beast_fmri_test	303	21.17665,21.187966666666668,21.199283333333334,21.210633333333334,21.22195	t,t,t,t,t	<img class = center src='/static/experiments/beast_fmri_test/images/T.png'></img>	71,89	2750.0	test	<img class = center src='/static/experiments/beast_fmri_test/images/redT.png'></img>	stop	1400.0	1.0	37.0	stop	non-target	T	71,Green Button	89,Yellow Button	1350.0	1350.0	1450.0	1400.0	0.0	1350.0	1.0	0.0	ITI
278086.00000000012	500	n/a	-1	-1	500	0.0	fixation	poldrack-single-stim	464	1273895	0.0-14.38-0.38	beast_fmri_test	303	n/a	n/a	<div class = centerbox><div class = fixation>+</div></div>	none	500.0	test	n/a	n/a	n/a	n/a	n/a	n/a	n/a	n/a	n/a	n/a	n/a	n/a	n/a	n/a	n/a	n/a	n/a	n/a	fixation
278027.34912314254	1350.0	n/a	-1	-1	2750	60.6508768575	stim	stop-signal	465	1276647	0.0-14.38-1.38	beast_fmri_test	303	21.233283333333333,21.244616666666666,21.255916666666668,21.26725	t,t,t,t	<img class = center src='/static/experiments/beast_fmri_test/images/T.png'></img>	71,89	2750.0	test	<img class = center src='/static/experiments/beast_fmri_test/images/redT.png'></img>	stop	1400.0	1.0	38.0	stop	target	T	71,Green Button	89,Yellow Button	1350.0	1300.0	1400.0	1400.0	0.0	1350.0	0.0	1.0	go_stim
279427.34912314254	1400.0	n/a	-1	-1	2750	60.6508768575	stim	stop-signal	465	1276647	0.0-14.38-1.38	beast_fmri_test	303	21.233283333333333,21.244616666666666,21.255916666666668,21.26725	t,t,t,t	<img class = center src='/static/experiments/beast_fmri_test/images/T.png'></img>	71,89	2750.0	test	<img class = center src='/static/experiments/beast_fmri_test/images/redT.png'></img>	stop	1400.0	1.0	38.0	stop	target	T	71,Green Button	89,Yellow Button	1350.0	1300.0	1400.0	1400.0	0.0	1350.0	0.0	1.0	stop_stim
280777.34912314254	60.650876857517673	n/a	-1	-1	2750	60.6508768575	stim	stop-signal	465	1276647	0.0-14.38-1.38	beast_fmri_test	303	21.233283333333333,21.244616666666666,21.255916666666668,21.26725	t,t,t,t	<img class = center src='/static/experiments/beast_fmri_test/images/T.png'></img>	71,89	2750.0	test	<img class = center src='/static/experiments/beast_fmri_test/images/redT.png'></img>	stop	1400.0	1.0	38.0	stop	target	T	71,Green Button	89,Yellow Button	1350.0	1300.0	1400.0	1400.0	0.0	1350.0	0.0	1.0	ITI
281448.00000000012	500	n/a	-1	-1	500	0.0	fixation	poldrack-single-stim	466	1277257	0.0-14.39-0.39	beast_fmri_test	303	21.279283333333332	t	<div class = centerbox><div class = fixation>+</div></div>	none	500.0	test	n/a	n/a	n/a	n/a	n/a	n/a	n/a	n/a	n/a	n/a	n/a	n/a	n/a	n/a	n/a	n/a	n/a	n/a	fixation
280862.56734739442	1300.0	n/a	-1	-1	2750	587.432652606	stim	stop-signal	467	1280009	0.0-14.39-1.39	beast_fmri_test	303	21.2899,21.30125,21.312583333333333,21.3239,21.335233333333335	t,t,t,t,t	<img class = center src='/static/experiments/beast_fmri_test/images/P.png'></img>	71,89	2750.0	test	<img class = center src='/static/experiments/beast_fmri_test/images/redP.png'></img>	stop	1450.0	1.0	39.0	stop	non-target	P	71,Green Button	89,Yellow Button	1400.0	1300.0	1400.0	1450.0	0.0	1300.0	0.0	1.0	go_stim
282312.56734739442	1450.0	n/a	-1	-1	2750	587.432652606	stim	stop-signal	467	1280009	0.0-14.39-1.39	beast_fmri_test	303	21.2899,21.30125,21.312583333333333,21.3239,21.335233333333335	t,t,t,t,t	<img class = center src='/static/experiments/beast_fmri_test/images/P.png'></img>	71,89	2750.0	test	<img class = center src='/static/experiments/beast_fmri_test/images/redP.png'></img>	stop	1450.0	1.0	39.0	stop	non-target	P	71,Green Button	89,Yellow Button	1400.0	1300.0	1400.0	1450.0	0.0	1300.0	0.0	1.0	stop_stim
283612.56734739442	587.43265260570467	n/a	-1	-1	2750	587.432652606	stim	stop-signal	467	1280009	0.0-14.39-1.39	beast_fmri_test	303	21.2899,21.30125,21.312583333333333,21.3239,21.335233333333335	t,t,t,t,t	<img class = center src='/static/experiments/beast_fmri_test/images/P.png'></img>	71,89	2750.0	test	<img class = center src='/static/experiments/beast_fmri_test/images/redP.png'></img>	stop	1450.0	1.0	39.0	stop	non-target	P	71,Green Button	89,Yellow Button	1400.0	1300.0	1400.0	1450.0	0.0	1300.0	0.0	1.0	ITI
285335.00000000012	500	n/a	-1	-1	500	0.0	fixation	poldrack-single-stim	468	1281144	0.0-14.40-0.40	beast_fmri_test	303	21.346566666666668	t	<div class = centerbox><div class = fixation>+</div></div>	none	500.0	test	n/a	n/a	n/a	n/a	n/a	n/a	n/a	n/a	n/a	n/a	n/a	n/a	n/a	n/a	n/a	n/a	n/a	n/a	fixation
283318.26995363913	1350.0	n/a	-1	-1	2750	2018.73004636	stim	stop-signal	469	1283896	0.0-14.40-1.40	beast_fmri_test	303	21.357883333333334,21.369216666666667,21.38055,21.391883333333332,21.4032,21.414533333333335,21.42585	t,t,t,t,t,t,t	<img class = center src='/static/experiments/beast_fmri_test/images/D.png'></img>	71,89	2750.0	test	<img class = center src='/static/experiments/beast_fmri_test/images/redD.png'></img>	stop	1400.0	1.0	40.0	stop	non-target	D	71,Green Button	89,Yellow Button	1400.0	1350.0	1400.0	1400.0	0.0	1350.0	0.0	1.0	go_stim
284718.26995363913	1400.0	n/a	-1	-1	2750	2018.73004636	stim	stop-signal	469	1283896	0.0-14.40-1.40	beast_fmri_test	303	21.357883333333334,21.369216666666667,21.38055,21.391883333333332,21.4032,21.414533333333335,21.42585	t,t,t,t,t,t,t	<img class = center src='/static/experiments/beast_fmri_test/images/D.png'></img>	71,89	2750.0	test	<img class = center src='/static/experiments/beast_fmri_test/images/redD.png'></img>	stop	1400.0	1.0	40.0	stop	non-target	D	71,Green Button	89,Yellow Button	1400.0	1350.0	1400.0	1400.0	0.0	1350.0	0.0	1.0	stop_stim
286068.26995363913	2018.730046361097	n/a	-1	-1	2750	2018.73004636	stim	stop-signal	469	1283896	0.0-14.40-1.40	beast_fmri_test	303	21.357883333333334,21.369216666666667,21.38055,21.391883333333332,21.4032,21.414533333333335,21.42585	t,t,t,t,t,t,t	<img class = center src='/static/experiments/beast_fmri_test/images/D.png'></img>	71,89	2750.0	test	<img class = center src='/static/experiments/beast_fmri_test/images/redD.png'></img>	stop	1400.0	1.0	40.0	stop	non-target	D	71,Green Button	89,Yellow Button	1400.0	1350.0	1400.0	1400.0	0.0	1350.0	0.0	1.0	ITI
290651.00000000012	500	n/a	-1	-1	500	0.0	fixation	poldrack-single-stim	470	1286460	0.0-14.41-0.41	beast_fmri_test	303	21.437183333333333	t	<div class = centerbox><div class = fixation>+</div></div>	none	500.0	test	n/a	n/a	n/a	n/a	n/a	n/a	n/a	n/a	n/a	n/a	n/a	n/a	n/a	n/a	n/a	n/a	n/a	n/a	fixation
290143.87008195056	2750	n/a	2037	89	2750	509.12991805	stim	stop-signal	471	1289212	0.0-14.41-1.41	beast_fmri_test	303	21.448516666666666,21.459833333333332,21.471166666666665,21.4825,21.493833333333335	t,t,t,t,t	<img class = center src='/static/experiments/beast_fmri_test/images/B.png'></img>	71,89	2750.0	test	<img class = center src='/static/experiments/beast_fmri_test/images/redB.png'></img>	go	1350.0	1.0	41.0	go	non-target	B	71,Green Button	89,Yellow Button	1400.0	1400.0	1400.0	1350.0	1.0	1400.0	1.0	n/a	go_stim
292893.87008195056	509.129918049639	n/a	2037	89	2750	509.12991805	stim	stop-signal	471	1289212	0.0-14.41-1.41	beast_fmri_test	303	21.448516666666666,21.459833333333332,21.471166666666665,21.4825,21.493833333333335	t,t,t,t,t	<img class = center src='/static/experiments/beast_fmri_test/images/B.png'></img>	71,89	2750.0	test	<img class = center src='/static/experiments/beast_fmri_test/images/redB.png'></img>	go	1350.0	1.0	41.0	go	non-target	B	71,Green Button	89,Yellow Button	1400.0	1400.0	1400.0	1350.0	1.0	1400.0	1.0	n/a	ITI
294451.00000000012	500	n/a	-1	-1	500	0.0	fixation	poldrack-single-stim	472	1290260	0.0-14.42-0.42	beast_fmri_test	303	n/a	n/a	<div class = centerbox><div class = fixation>+</div></div>	none	500.0	test	n/a	n/a	n/a	n/a	n/a	n/a	n/a	n/a	n/a	n/a	n/a	n/a	n/a	n/a	n/a	n/a	n/a	n/a	fixation
294133.06646811718	2750	n/a	2032	89	2750	319.933531883	stim	stop-signal	473	1293012	0.0-14.42-1.42	beast_fmri_test	303	21.50515,21.5165,21.527816666666666,21.539133333333332,21.550466666666665	t,t,t,t,t	<img class = center src='/static/experiments/beast_fmri_test/images/D.png'></img>	71,89	2750.0	test	<img class = center src='/static/experiments/beast_fmri_test/images/redD.png'></img>	go	1350.0	1.0	42.0	go	non-target	D	71,Green Button	89,Yellow Button	1400.0	1400.0	1400.0	1350.0	1.0	1400.0	1.0	n/a	go_stim
296883.06646811718	319.93353188301683	n/a	2032	89	2750	319.933531883	stim	stop-signal	473	1293012	0.0-14.42-1.42	beast_fmri_test	303	21.50515,21.5165,21.527816666666666,21.539133333333332,21.550466666666665	t,t,t,t,t	<img class = center src='/static/experiments/beast_fmri_test/images/D.png'></img>	71,89	2750.0	test	<img class = center src='/static/experiments/beast_fmri_test/images/redD.png'></img>	go	1350.0	1.0	42.0	go	non-target	D	71,Green Button	89,Yellow Button	1400.0	1400.0	1400.0	1350.0	1.0	1400.0	1.0	n/a	ITI
298066.00000000012	500	n/a	-1	-1	500	0.0	fixation	poldrack-single-stim	474	1293875	0.0-14.43-0.43	beast_fmri_test	303	21.561816666666665	t	<div class = centerbox><div class = fixation>+</div></div>	none	500.0	test	n/a	n/a	n/a	n/a	n/a	n/a	n/a	n/a	n/a	n/a	n/a	n/a	n/a	n/a	n/a	n/a	n/a	n/a	fixation
297244.61118906538	1400.0	n/a	-1	-1	2750	823.388810935	stim	stop-signal	475	1296627	0.0-14.43-1.43	beast_fmri_test	303	21.573133333333335,21.58445,21.595783333333333,21.607116666666666,21.61845	t,t,t,t,t	<img class = center src='/static/experiments/beast_fmri_test/images/D.png'></img>	71,89	2750.0	test	<img class = center src='/static/experiments/beast_fmri_test/images/redD.png'></img>	stop	1350.0	1.0	43.0	stop	target	D	71,Green Button	89,Yellow Button	1400.0	1400.0	1350.0	1350.0	0.0	1400.0	0.0	1.0	go_stim
298594.61118906538	1350.0	n/a	-1	-1	2750	823.388810935	stim	stop-signal	475	1296627	0.0-14.43-1.43	beast_fmri_test	303	21.573133333333335,21.58445,21.595783333333333,21.607116666666666,21.61845	t,t,t,t,t	<img class = center src='/static/experiments/beast_fmri_test/images/D.png'></img>	71,89	2750.0	test	<img class = center src='/static/experiments/beast_fmri_test/images/redD.png'></img>	stop	1350.0	1.0	43.0	stop	target	D	71,Green Button	89,Yellow Button	1400.0	1400.0	1350.0	1350.0	0.0	1400.0	0.0	1.0	stop_stim
299994.61118906538	823.38881093463749	n/a	-1	-1	2750	823.388810935	stim	stop-signal	475	1296627	0.0-14.43-1.43	beast_fmri_test	303	21.573133333333335,21.58445,21.595783333333333,21.607116666666666,21.61845	t,t,t,t,t	<img class = center src='/static/experiments/beast_fmri_test/images/D.png'></img>	71,89	2750.0	test	<img class = center src='/static/experiments/beast_fmri_test/images/redD.png'></img>	stop	1350.0	1.0	43.0	stop	target	D	71,Green Button	89,Yellow Button	1400.0	1400.0	1350.0	1350.0	0.0	1400.0	0.0	1.0	ITI
302185.00000000012	500	n/a	-1	-1	500	0.0	fixation	poldrack-single-stim	476	1297994	0.0-14.44-0.44	beast_fmri_test	303	21.629783333333332	t	<div class = centerbox><div class = fixation>+</div></div>	none	500.0	test	n/a	n/a	n/a	n/a	n/a	n/a	n/a	n/a	n/a	n/a	n/a	n/a	n/a	n/a	n/a	n/a	n/a	n/a	fixation
297220.81867917313	2750	n/a	2302	89	2750	4967.18132083	stim	stop-signal	477	1300747	0.0-14.44-1.44	beast_fmri_test	303	21.6411,21.652416666666667,21.66375,21.67505,21.686416666666666,21.697733333333332,21.709066666666665,21.7204,21.731716666666667,21.743033333333333,21.754366666666666	t,t,t,t,t,t,t,t,t,t,t	<img class = center src='/static/experiments/beast_fmri_test/images/P.png'></img>	71,89	2750.0	test	<img class = center src='/static/experiments/beast_fmri_test/images/redP.png'></img>	go	1350.0	1.0	44.0	go	non-target	P	71,Green Button	89,Yellow Button	1450.0	1400.0	1350.0	1350.0	1.0	1400.0	1.0	n/a	go_stim
299970.81867917313	4967.1813208270505	n/a	2302	89	2750	4967.18132083	stim	stop-signal	477	1300747	0.0-14.44-1.44	beast_fmri_test	303	21.6411,21.652416666666667,21.66375,21.67505,21.686416666666666,21.697733333333332,21.709066666666665,21.7204,21.731716666666667,21.743033333333333,21.754366666666666	t,t,t,t,t,t,t,t,t,t,t	<img class = center src='/static/experiments/beast_fmri_test/images/P.png'></img>	71,89	2750.0	test	<img class = center src='/static/experiments/beast_fmri_test/images/redP.png'></img>	go	1350.0	1.0	44.0	go	non-target	P	71,Green Button	89,Yellow Button	1450.0	1400.0	1350.0	1350.0	1.0	1400.0	1.0	n/a	ITI
310447.00000000012	500	n/a	-1	-1	500	0.0	fixation	poldrack-single-stim	478	1306256	0.0-14.45-0.45	beast_fmri_test	303	21.7657	t	<div class = centerbox><div class = fixation>+</div></div>	none	500.0	test	n/a	n/a	n/a	n/a	n/a	n/a	n/a	n/a	n/a	n/a	n/a	n/a	n/a	n/a	n/a	n/a	n/a	n/a	fixation
309816.01882574067	1400.0	n/a	1191	89	2750	630.981174259	stim	stop-signal	479	1309006	0.0-14.45-1.45	beast_fmri_test	303	21.77705,21.788333333333334,21.799683333333334,21.811016666666667,21.822333333333333	t,t,t,t,t	<img class = center src='/static/experiments/beast_fmri_test/images/B.png'></img>	71,89	2750.0	test	<img class = center src='/static/experiments/beast_fmri_test/images/redB.png'></img>	stop	1350.0	1.0	45.0	stop	non-target	B	71,Green Button	89,Yellow Button	1450.0	1400.0	1350.0	1350.0	0.0	1400.0	1.0	0.0	go_stim
311166.01882574067	1350.0	n/a	1191	89	2750	630.981174259	stim	stop-signal	479	1309006	0.0-14.45-1.45	beast_fmri_test	303	21.77705,21.788333333333334,21.799683333333334,21.811016666666667,21.822333333333333	t,t,t,t,t	<img class = center src='/static/experiments/beast_fmri_test/images/B.png'></img>	71,89	2750.0	test	<img class = center src='/static/experiments/beast_fmri_test/images/redB.png'></img>	stop	1350.0	1.0	45.0	stop	non-target	B	71,Green Button	89,Yellow Button	1450.0	1400.0	1350.0	1350.0	0.0	1400.0	1.0	0.0	stop_stim
312566.01882574067	630.98117425941257	n/a	1191	89	2750	630.981174259	stim	stop-signal	479	1309006	0.0-14.45-1.45	beast_fmri_test	303	21.77705,21.788333333333334,21.799683333333334,21.811016666666667,21.822333333333333	t,t,t,t,t	<img class = center src='/static/experiments/beast_fmri_test/images/B.png'></img>	71,89	2750.0	test	<img class = center src='/static/experiments/beast_fmri_test/images/redB.png'></img>	stop	1350.0	1.0	45.0	stop	non-target	B	71,Green Button	89,Yellow Button	1450.0	1400.0	1350.0	1350.0	0.0	1400.0	1.0	0.0	ITI
328868.00000000012	15000	n/a	-1	-1	15000	0.0	practice-no-stop-feedback	poldrack-single-stim	480	1324677	0.0-15.0	beast_fmri_test	303	21.833666666666666,21.845,21.856333333333332,21.86766666666667,21.878983333333334,21.890316666666667,21.901633333333333,21.912983333333333,21.9243,21.935616666666668,21.94695,21.958283333333334,21.969616666666667,21.980933333333333,21.992266666666666,22.003583333333335,22.014916666666668,22.02625,22.037583333333334,22.048916666666667,22.06025,22.071566666666666	t,t,t,t,t,t,t,t,t,t,t,t,t,t,t,t,t,t,t,t,t,t	"<div class = ""centerbox""><p class = ""center-block-text"">Your delay is 2 trials.</p><p class = center-block-text>Please wait for the scanner to start the block</p></div>"	77	15000.0	n/a	n/a	n/a	n/a	n/a	n/a	n/a	n/a	n/a	n/a	n/a	n/a	n/a	n/a	n/a	n/a	n/a	n/a	n/a	practice-no-stop-feedback
329371.00000000012	500	n/a	-1	-1	500	0.0	fixation	poldrack-single-stim	481	1325180	0.0-16.0-0.0	beast_fmri_test	303	22.082883333333335	t	<div class = centerbox><div class = fixation>+</div></div>	none	500.0	test	n/a	n/a	n/a	n/a	n/a	n/a	n/a	n/a	n/a	n/a	n/a	n/a	n/a	n/a	n/a	n/a	n/a	n/a	fixation
328696.57756637956	2750	n/a	1104	89	2750	676.422433621	stim	stop-signal	482	1327932	0.0-16.0-1.0	beast_fmri_test	303	22.09423333333333,22.10555,22.116866666666667,22.1282,22.139533333333333	t,t,t,t,t	<img class = center src='/static/experiments/beast_fmri_test/images/P.png'></img>	71,89	2750.0	test	<img class = center src='/static/experiments/beast_fmri_test/images/redP.png'></img>	go	-1.0	2.0	0.0	go	temp-non-target	P	71,Green Button	89,Yellow Button	1450.0	1350.0	1350.0	1350.0	0.0	n/a	n/a	n/a	go_stim
331446.57756637956	676.4224336205707	n/a	1104	89	2750	676.422433621	stim	stop-signal	482	1327932	0.0-16.0-1.0	beast_fmri_test	303	22.09423333333333,22.10555,22.116866666666667,22.1282,22.139533333333333	t,t,t,t,t	<img class = center src='/static/experiments/beast_fmri_test/images/P.png'></img>	71,89	2750.0	test	<img class = center src='/static/experiments/beast_fmri_test/images/redP.png'></img>	go	-1.0	2.0	0.0	go	temp-non-target	P	71,Green Button	89,Yellow Button	1450.0	1350.0	1350.0	1350.0	0.0	n/a	n/a	n/a	ITI
333340.00000000012	500	n/a	-1	-1	500	0.0	fixation	poldrack-single-stim	483	1329149	0.0-16.1-0.1	beast_fmri_test	303	22.150866666666666	t	<div class = centerbox><div class = fixation>+</div></div>	none	500.0	test	n/a	n/a	n/a	n/a	n/a	n/a	n/a	n/a	n/a	n/a	n/a	n/a	n/a	n/a	n/a	n/a	n/a	n/a	fixation
332446.86035083898	2750	n/a	1297	89	2750	895.139649161	stim	stop-signal	484	1331901	0.0-16.1-1.1	beast_fmri_test	303	22.1622,22.173516666666668,22.184833333333334,22.196166666666667,22.2075	t,t,t,t,t	<img class = center src='/static/experiments/beast_fmri_test/images/V.png'></img>	71,89	2750.0	test	<img class = center src='/static/experiments/beast_fmri_test/images/redV.png'></img>	go	-1.0	2.0	1.0	go	temp-non-target	V	71,Green Button	89,Yellow Button	1450.0	1350.0	1350.0	1350.0	0.0	n/a	n/a	n/a	go_stim
335196.86035083898	895.13964916105579	n/a	1297	89	2750	895.139649161	stim	stop-signal	484	1331901	0.0-16.1-1.1	beast_fmri_test	303	22.1622,22.173516666666668,22.184833333333334,22.196166666666667,22.2075	t,t,t,t,t	<img class = center src='/static/experiments/beast_fmri_test/images/V.png'></img>	71,89	2750.0	test	<img class = center src='/static/experiments/beast_fmri_test/images/redV.png'></img>	go	-1.0	2.0	1.0	go	temp-non-target	V	71,Green Button	89,Yellow Button	1450.0	1350.0	1350.0	1350.0	0.0	n/a	n/a	n/a	ITI
337533.00000000012	500	n/a	-1	-1	500	0.0	fixation	poldrack-single-stim	485	1333342	0.0-16.2-0.2	beast_fmri_test	303	22.218816666666665	t	<div class = centerbox><div class = fixation>+</div></div>	none	500.0	test	n/a	n/a	n/a	n/a	n/a	n/a	n/a	n/a	n/a	n/a	n/a	n/a	n/a	n/a	n/a	n/a	n/a	n/a	fixation
335090.51271984715	2750	n/a	1502	89	2750	2444.48728015	stim	stop-signal	486	1336094	0.0-16.2-1.2	beast_fmri_test	303	22.23015,22.2415,22.252816666666668,22.264133333333334,22.275466666666667,22.286783333333332,22.298116666666665	t,t,t,t,t,t,t	<img class = center src='/static/experiments/beast_fmri_test/images/D.png'></img>	71,89	2750.0	test	<img class = center src='/static/experiments/beast_fmri_test/images/redD.png'></img>	go	1400.0	2.0	2.0	go	non-target	D	71,Green Button	89,Yellow Button	1450.0	1350.0	1350.0	1400.0	1.0	1350.0	1.0	n/a	go_stim
337840.51271984715	2444.4872801530605	n/a	1502	89	2750	2444.48728015	stim	stop-signal	486	1336094	0.0-16.2-1.2	beast_fmri_test	303	22.23015,22.2415,22.252816666666668,22.264133333333334,22.275466666666667,22.286783333333332,22.298116666666665	t,t,t,t,t,t,t	<img class = center src='/static/experiments/beast_fmri_test/images/D.png'></img>	71,89	2750.0	test	<img class = center src='/static/experiments/beast_fmri_test/images/redD.png'></img>	go	1400.0	2.0	2.0	go	non-target	D	71,Green Button	89,Yellow Button	1450.0	1350.0	1350.0	1400.0	1.0	1350.0	1.0	n/a	ITI
343272.00000000012	500	n/a	-1	-1	500	0.0	fixation	poldrack-single-stim	487	1339081	0.0-16.3-0.3	beast_fmri_test	303	22.309666666666665	t	<div class = centerbox><div class = fixation>+</div></div>	none	500.0	test	n/a	n/a	n/a	n/a	n/a	n/a	n/a	n/a	n/a	n/a	n/a	n/a	n/a	n/a	n/a	n/a	n/a	n/a	fixation
343092.69372488221	1350.0	n/a	-1	-1	2750	182.306275118	stim	stop-signal	488	1341834	0.0-16.3-1.3	beast_fmri_test	303	22.320783333333335,22.332116666666668,22.343433333333333,22.354766666666666,22.3661	t,t,t,t,t	<img class = center src='/static/experiments/beast_fmri_test/images/D.png'></img>	71,89	2750.0	test	<img class = center src='/static/experiments/beast_fmri_test/images/redD.png'></img>	stop	1400.0	2.0	3.0	stop	non-target	D	71,Green Button	89,Yellow Button	1450.0	1350.0	1350.0	1400.0	0.0	1350.0	0.0	1.0	go_stim
344492.69372488221	1400.0	n/a	-1	-1	2750	182.306275118	stim	stop-signal	488	1341834	0.0-16.3-1.3	beast_fmri_test	303	22.320783333333335,22.332116666666668,22.343433333333333,22.354766666666666,22.3661	t,t,t,t,t	<img class = center src='/static/experiments/beast_fmri_test/images/D.png'></img>	71,89	2750.0	test	<img class = center src='/static/experiments/beast_fmri_test/images/redD.png'></img>	stop	1400.0	2.0	3.0	stop	non-target	D	71,Green Button	89,Yellow Button	1450.0	1350.0	1350.0	1400.0	0.0	1350.0	0.0	1.0	stop_stim
345842.69372488221	182.30627511798997	n/a	-1	-1	2750	182.306275118	stim	stop-signal	488	1341834	0.0-16.3-1.3	beast_fmri_test	303	22.320783333333335,22.332116666666668,22.343433333333333,22.354766666666666,22.3661	t,t,t,t,t	<img class = center src='/static/experiments/beast_fmri_test/images/D.png'></img>	71,89	2750.0	test	<img class = center src='/static/experiments/beast_fmri_test/images/redD.png'></img>	stop	1400.0	2.0	3.0	stop	non-target	D	71,Green Button	89,Yellow Button	1450.0	1350.0	1350.0	1400.0	0.0	1350.0	0.0	1.0	ITI
346754.00000000012	500	n/a	-1	-1	500	0.0	fixation	poldrack-single-stim	489	1342563	0.0-16.4-0.4	beast_fmri_test	303	n/a	n/a	<div class = centerbox><div class = fixation>+</div></div>	none	500.0	test	n/a	n/a	n/a	n/a	n/a	n/a	n/a	n/a	n/a	n/a	n/a	n/a	n/a	n/a	n/a	n/a	n/a	n/a	fixation
345496.9211224328	2750	n/a	1560	71	2750	1258.07887757	stim	stop-signal	490	1345314	0.0-16.4-1.4	beast_fmri_test	303	22.37745,22.38875,22.400083333333335,22.411416666666668,22.422733333333333,22.434066666666666	t,t,t,t,t,t	<img class = center src='/static/experiments/beast_fmri_test/images/D.png'></img>	71,89	2750.0	test	<img class = center src='/static/experiments/beast_fmri_test/images/redD.png'></img>	go	1300.0	2.0	4.0	go	target	D	71,Green Button	89,Yellow Button	1450.0	1400.0	1300.0	1400.0	1.0	1450.0	1.0	n/a	go_stim
348246.9211224328	1258.0788775673061	n/a	1560	71	2750	1258.07887757	stim	stop-signal	490	1345314	0.0-16.4-1.4	beast_fmri_test	303	22.37745,22.38875,22.400083333333335,22.411416666666668,22.422733333333333,22.434066666666666	t,t,t,t,t,t	<img class = center src='/static/experiments/beast_fmri_test/images/D.png'></img>	71,89	2750.0	test	<img class = center src='/static/experiments/beast_fmri_test/images/redD.png'></img>	go	1300.0	2.0	4.0	go	target	D	71,Green Button	89,Yellow Button	1450.0	1400.0	1300.0	1400.0	1.0	1450.0	1.0	n/a	ITI
351311.00000000012	500	n/a	-1	-1	500	0.0	fixation	poldrack-single-stim	491	1347120	0.0-16.5-0.5	beast_fmri_test	303	22.4454	t	<div class = centerbox><div class = fixation>+</div></div>	none	500.0	test	n/a	n/a	n/a	n/a	n/a	n/a	n/a	n/a	n/a	n/a	n/a	n/a	n/a	n/a	n/a	n/a	n/a	n/a	fixation
350818.84028505266	2750	n/a	1338	89	2750	493.159714947	stim	stop-signal	492	1349871	0.0-16.5-1.5	beast_fmri_test	303	22.456716666666665,22.468033333333334,22.479366666666667,22.490716666666668,22.502033333333333	t,t,t,t,t	<img class = center src='/static/experiments/beast_fmri_test/images/T.png'></img>	71,89	2750.0	test	<img class = center src='/static/experiments/beast_fmri_test/images/redT.png'></img>	go	1350.0	2.0	5.0	go	non-target	T	71,Green Button	89,Yellow Button	1450.0	1400.0	1300.0	1350.0	1.0	1400.0	1.0	n/a	go_stim
353568.84028505266	493.15971494746077	n/a	1338	89	2750	493.159714947	stim	stop-signal	492	1349871	0.0-16.5-1.5	beast_fmri_test	303	22.456716666666665,22.468033333333334,22.479366666666667,22.490716666666668,22.502033333333333	t,t,t,t,t	<img class = center src='/static/experiments/beast_fmri_test/images/T.png'></img>	71,89	2750.0	test	<img class = center src='/static/experiments/beast_fmri_test/images/redT.png'></img>	go	1350.0	2.0	5.0	go	non-target	T	71,Green Button	89,Yellow Button	1450.0	1400.0	1300.0	1350.0	1.0	1400.0	1.0	n/a	ITI
355103.00000000012	500	n/a	-1	-1	500	0.0	fixation	poldrack-single-stim	493	1350912	0.0-16.6-0.6	beast_fmri_test	303	22.513366666666666	t	<div class = centerbox><div class = fixation>+</div></div>	none	500.0	test	n/a	n/a	n/a	n/a	n/a	n/a	n/a	n/a	n/a	n/a	n/a	n/a	n/a	n/a	n/a	n/a	n/a	n/a	fixation
354835.68045109499	2750	n/a	1352	71	2750	269.319548905	stim	stop-signal	494	1353664	0.0-16.6-1.6	beast_fmri_test	303	22.5247,22.536033333333332,22.54735,22.558683333333335	t,t,t,t	<img class = center src='/static/experiments/beast_fmri_test/images/D.png'></img>	71,89	2750.0	test	<img class = center src='/static/experiments/beast_fmri_test/images/redD.png'></img>	go	1300.0	2.0	6.0	go	target	D	71,Green Button	89,Yellow Button	1450.0	1400.0	1300.0	1350.0	1.0	1450.0	1.0	n/a	go_stim
357585.68045109499	269.31954890511986	n/a	1352	71	2750	269.319548905	stim	stop-signal	494	1353664	0.0-16.6-1.6	beast_fmri_test	303	22.5247,22.536033333333332,22.54735,22.558683333333335	t,t,t,t	<img class = center src='/static/experiments/beast_fmri_test/images/D.png'></img>	71,89	2750.0	test	<img class = center src='/static/experiments/beast_fmri_test/images/redD.png'></img>	go	1300.0	2.0	6.0	go	target	D	71,Green Button	89,Yellow Button	1450.0	1400.0	1300.0	1350.0	1.0	1450.0	1.0	n/a	ITI
358669.00000000012	500	n/a	-1	-1	500	0.0	fixation	poldrack-single-stim	495	1354478	0.0-16.7-0.7	beast_fmri_test	303	22.570016666666668	t	<div class = centerbox><div class = fixation>+</div></div>	none	500.0	test	n/a	n/a	n/a	n/a	n/a	n/a	n/a	n/a	n/a	n/a	n/a	n/a	n/a	n/a	n/a	n/a	n/a	n/a	fixation
357846.73162854637	1400.0	n/a	1296	89	2750	823.268371454	stim	stop-signal	496	1357229	0.0-16.7-1.7	beast_fmri_test	303	22.58135,22.592666666666666,22.603983333333332,22.615316666666665,22.626666666666665	t,t,t,t,t	<img class = center src='/static/experiments/beast_fmri_test/images/P.png'></img>	71,89	2750.0	test	<img class = center src='/static/experiments/beast_fmri_test/images/redP.png'></img>	stop	1350.0	2.0	7.0	stop	non-target	P	71,Green Button	89,Yellow Button	1450.0	1400.0	1300.0	1350.0	0.0	1400.0	1.0	0.0	go_stim
359196.73162854637	1350.0	n/a	1296	89	2750	823.268371454	stim	stop-signal	496	1357229	0.0-16.7-1.7	beast_fmri_test	303	22.58135,22.592666666666666,22.603983333333332,22.615316666666665,22.626666666666665	t,t,t,t,t	<img class = center src='/static/experiments/beast_fmri_test/images/P.png'></img>	71,89	2750.0	test	<img class = center src='/static/experiments/beast_fmri_test/images/redP.png'></img>	stop	1350.0	2.0	7.0	stop	non-target	P	71,Green Button	89,Yellow Button	1450.0	1400.0	1300.0	1350.0	0.0	1400.0	1.0	0.0	stop_stim
360596.73162854637	823.26837145374327	n/a	1296	89	2750	823.268371454	stim	stop-signal	496	1357229	0.0-16.7-1.7	beast_fmri_test	303	22.58135,22.592666666666666,22.603983333333332,22.615316666666665,22.626666666666665	t,t,t,t,t	<img class = center src='/static/experiments/beast_fmri_test/images/P.png'></img>	71,89	2750.0	test	<img class = center src='/static/experiments/beast_fmri_test/images/redP.png'></img>	stop	1350.0	2.0	7.0	stop	non-target	P	71,Green Button	89,Yellow Button	1450.0	1400.0	1300.0	1350.0	0.0	1400.0	1.0	0.0	ITI
362792.00000000012	500	n/a	-1	-1	500	0.0	fixation	poldrack-single-stim	497	1358601	0.0-16.8-0.8	beast_fmri_test	303	22.637966666666667	t	<div class = centerbox><div class = fixation>+</div></div>	none	500.0	test	n/a	n/a	n/a	n/a	n/a	n/a	n/a	n/a	n/a	n/a	n/a	n/a	n/a	n/a	n/a	n/a	n/a	n/a	fixation
362592.76468556293	1450.0	n/a	-1	-1	2750	201.235314437	stim	stop-signal	498	1361353	0.0-16.8-1.8	beast_fmri_test	303	22.6493,22.660633333333333,22.671966666666666,22.683283333333332	t,t,t,t	<img class = center src='/static/experiments/beast_fmri_test/images/D.png'></img>	71,89	2750.0	test	<img class = center src='/static/experiments/beast_fmri_test/images/redD.png'></img>	stop	1300.0	2.0	8.0	stop	target	D	71,Green Button	89,Yellow Button	1450.0	1350.0	1300.0	1350.0	0.0	1450.0	0.0	1.0	go_stim
363892.76468556293	1300.0	n/a	-1	-1	2750	201.235314437	stim	stop-signal	498	1361353	0.0-16.8-1.8	beast_fmri_test	303	22.6493,22.660633333333333,22.671966666666666,22.683283333333332	t,t,t,t	<img class = center src='/static/experiments/beast_fmri_test/images/D.png'></img>	71,89	2750.0	test	<img class = center src='/static/experiments/beast_fmri_test/images/redD.png'></img>	stop	1300.0	2.0	8.0	stop	target	D	71,Green Button	89,Yellow Button	1450.0	1350.0	1300.0	1350.0	0.0	1450.0	0.0	1.0	stop_stim
365342.76468556293	201.23531443728228	n/a	-1	-1	2750	201.235314437	stim	stop-signal	498	1361353	0.0-16.8-1.8	beast_fmri_test	303	22.6493,22.660633333333333,22.671966666666666,22.683283333333332	t,t,t,t	<img class = center src='/static/experiments/beast_fmri_test/images/D.png'></img>	71,89	2750.0	test	<img class = center src='/static/experiments/beast_fmri_test/images/redD.png'></img>	stop	1300.0	2.0	8.0	stop	target	D	71,Green Button	89,Yellow Button	1450.0	1350.0	1300.0	1350.0	0.0	1450.0	0.0	1.0	ITI
366290.00000000012	500	n/a	-1	-1	500	0.0	fixation	poldrack-single-stim	499	1362099	0.0-16.9-0.9	beast_fmri_test	303	22.6946	t	<div class = centerbox><div class = fixation>+</div></div>	none	500.0	test	n/a	n/a	n/a	n/a	n/a	n/a	n/a	n/a	n/a	n/a	n/a	n/a	n/a	n/a	n/a	n/a	n/a	n/a	fixation
365755.58452219458	2750	n/a	1491	71	2750	535.415477806	stim	stop-signal	500	1364850	0.0-16.9-1.9	beast_fmri_test	303	22.70595,22.717283333333334,22.7286,22.739933333333333,22.75125	t,t,t,t,t	<img class = center src='/static/experiments/beast_fmri_test/images/P.png'></img>	71,89	2750.0	test	<img class = center src='/static/experiments/beast_fmri_test/images/redP.png'></img>	go	1250.0	2.0	9.0	go	target	P	71,Green Button	89,Yellow Button	1500.0	1350.0	1250.0	1350.0	1.0	1500.0	1.0	n/a	go_stim
368505.58452219458	535.41547780559642	n/a	1491	71	2750	535.415477806	stim	stop-signal	500	1364850	0.0-16.9-1.9	beast_fmri_test	303	22.70595,22.717283333333334,22.7286,22.739933333333333,22.75125	t,t,t,t,t	<img class = center src='/static/experiments/beast_fmri_test/images/P.png'></img>	71,89	2750.0	test	<img class = center src='/static/experiments/beast_fmri_test/images/redP.png'></img>	go	1250.0	2.0	9.0	go	target	P	71,Green Button	89,Yellow Button	1500.0	1350.0	1250.0	1350.0	1.0	1500.0	1.0	n/a	ITI
370128.00000000012	500	n/a	-1	-1	500	0.0	fixation	poldrack-single-stim	501	1365937	0.0-16.10-0.10	beast_fmri_test	303	22.7626	t	<div class = centerbox><div class = fixation>+</div></div>	none	500.0	test	n/a	n/a	n/a	n/a	n/a	n/a	n/a	n/a	n/a	n/a	n/a	n/a	n/a	n/a	n/a	n/a	n/a	n/a	fixation
369331.49408233433	2750	n/a	2013	89	2750	799.505917666	stim	stop-signal	502	1368690	0.0-16.10-1.10	beast_fmri_test	303	22.77391666666667,22.78525,22.796583333333334,22.8079,22.819216666666666	t,t,t,t,t	<img class = center src='/static/experiments/beast_fmri_test/images/T.png'></img>	71,89	2750.0	test	<img class = center src='/static/experiments/beast_fmri_test/images/redT.png'></img>	go	1400.0	2.0	10.0	go	non-target	T	71,Green Button	89,Yellow Button	1500.0	1350.0	1250.0	1400.0	1.0	1350.0	1.0	n/a	go_stim
372081.49408233433	799.50591766572222	n/a	2013	89	2750	799.505917666	stim	stop-signal	502	1368690	0.0-16.10-1.10	beast_fmri_test	303	22.77391666666667,22.78525,22.796583333333334,22.8079,22.819216666666666	t,t,t,t,t	<img class = center src='/static/experiments/beast_fmri_test/images/T.png'></img>	71,89	2750.0	test	<img class = center src='/static/experiments/beast_fmri_test/images/redT.png'></img>	go	1400.0	2.0	10.0	go	non-target	T	71,Green Button	89,Yellow Button	1500.0	1350.0	1250.0	1400.0	1.0	1350.0	1.0	n/a	ITI
374226.00000000012	500	n/a	-1	-1	500	0.0	fixation	poldrack-single-stim	503	1370035	0.0-16.11-0.11	beast_fmri_test	303	22.83053333333333	t	<div class = centerbox><div class = fixation>+</div></div>	none	500.0	test	n/a	n/a	n/a	n/a	n/a	n/a	n/a	n/a	n/a	n/a	n/a	n/a	n/a	n/a	n/a	n/a	n/a	n/a	fixation
372957.47263752145	2750	n/a	1954	71	2750	1270.52736248	stim	stop-signal	504	1372787	0.0-16.11-1.11	beast_fmri_test	303	22.84188333333333,22.85321666666667,22.864533333333334,22.87585,22.887183333333333,22.898516666666666	t,t,t,t,t,t	<img class = center src='/static/experiments/beast_fmri_test/images/P.png'></img>	71,89	2750.0	test	<img class = center src='/static/experiments/beast_fmri_test/images/redP.png'></img>	go	1250.0	2.0	11.0	go	target	P	71,Green Button	89,Yellow Button	1500.0	1350.0	1250.0	1400.0	1.0	1500.0	1.0	n/a	go_stim
375707.47263752145	1270.5273624787376	n/a	1954	71	2750	1270.52736248	stim	stop-signal	504	1372787	0.0-16.11-1.11	beast_fmri_test	303	22.84188333333333,22.85321666666667,22.864533333333334,22.87585,22.887183333333333,22.898516666666666	t,t,t,t,t,t	<img class = center src='/static/experiments/beast_fmri_test/images/P.png'></img>	71,89	2750.0	test	<img class = center src='/static/experiments/beast_fmri_test/images/redP.png'></img>	go	1250.0	2.0	11.0	go	target	P	71,Green Button	89,Yellow Button	1500.0	1350.0	1250.0	1400.0	1.0	1500.0	1.0	n/a	ITI
378797.00000000012	500	n/a	-1	-1	500	0.0	fixation	poldrack-single-stim	505	1374606	0.0-16.12-0.12	beast_fmri_test	303	22.909833333333335	t	<div class = centerbox><div class = fixation>+</div></div>	none	500.0	test	n/a	n/a	n/a	n/a	n/a	n/a	n/a	n/a	n/a	n/a	n/a	n/a	n/a	n/a	n/a	n/a	n/a	n/a	fixation
376044.35993987985	2750	n/a	1621	89	2750	2754.64006012	stim	stop-signal	506	1377358	0.0-16.12-1.12	beast_fmri_test	303	22.921166666666668,22.9325,22.943833333333334,22.95515,22.966483333333333,22.977833333333333,22.98915,23.00048333333333	t,t,t,t,t,t,t,t	<img class = center src='/static/experiments/beast_fmri_test/images/B.png'></img>	71,89	2750.0	test	<img class = center src='/static/experiments/beast_fmri_test/images/redB.png'></img>	go	1400.0	2.0	12.0	go	non-target	B	71,Green Button	89,Yellow Button	1500.0	1350.0	1250.0	1400.0	1.0	1350.0	1.0	n/a	go_stim
378794.35993987985	2754.6400601203341	n/a	1621	89	2750	2754.64006012	stim	stop-signal	506	1377358	0.0-16.12-1.12	beast_fmri_test	303	22.921166666666668,22.9325,22.943833333333334,22.95515,22.966483333333333,22.977833333333333,22.98915,23.00048333333333	t,t,t,t,t,t,t,t	<img class = center src='/static/experiments/beast_fmri_test/images/B.png'></img>	71,89	2750.0	test	<img class = center src='/static/experiments/beast_fmri_test/images/redB.png'></img>	go	1400.0	2.0	12.0	go	non-target	B	71,Green Button	89,Yellow Button	1500.0	1350.0	1250.0	1400.0	1.0	1350.0	1.0	n/a	ITI
384849.00000000012	500	n/a	-1	-1	500	0.0	fixation	poldrack-single-stim	507	1380658	0.0-16.13-0.13	beast_fmri_test	303	n/a	n/a	<div class = centerbox><div class = fixation>+</div></div>	none	500.0	test	n/a	n/a	n/a	n/a	n/a	n/a	n/a	n/a	n/a	n/a	n/a	n/a	n/a	n/a	n/a	n/a	n/a	n/a	fixation
383509.33431490033	2750	n/a	1743	89	2750	1341.6656851	stim	stop-signal	508	1383410	0.0-16.13-1.13	beast_fmri_test	303	23.0118,23.023133333333334,23.034466666666667,23.0458,23.0571,23.06845	t,t,t,t,t,t	<img class = center src='/static/experiments/beast_fmri_test/images/T.png'></img>	71,89	2750.0	test	<img class = center src='/static/experiments/beast_fmri_test/images/redT.png'></img>	go	1400.0	2.0	13.0	go	non-target	T	71,Green Button	89,Yellow Button	1500.0	1350.0	1250.0	1400.0	1.0	1350.0	1.0	n/a	go_stim
386259.33431490033	1341.6656850997595	n/a	1743	89	2750	1341.6656851	stim	stop-signal	508	1383410	0.0-16.13-1.13	beast_fmri_test	303	23.0118,23.023133333333334,23.034466666666667,23.0458,23.0571,23.06845	t,t,t,t,t,t	<img class = center src='/static/experiments/beast_fmri_test/images/T.png'></img>	71,89	2750.0	test	<img class = center src='/static/experiments/beast_fmri_test/images/redT.png'></img>	go	1400.0	2.0	13.0	go	non-target	T	71,Green Button	89,Yellow Button	1500.0	1350.0	1250.0	1400.0	1.0	1350.0	1.0	n/a	ITI
389489.00000000012	500	n/a	-1	-1	500	0.0	fixation	poldrack-single-stim	509	1385298	0.0-16.14-0.14	beast_fmri_test	303	23.07995	t	<div class = centerbox><div class = fixation>+</div></div>	none	500.0	test	n/a	n/a	n/a	n/a	n/a	n/a	n/a	n/a	n/a	n/a	n/a	n/a	n/a	n/a	n/a	n/a	n/a	n/a	fixation
388358.90296131268	1350.0	n/a	-1	-1	2750	1131.09703869	stim	stop-signal	510	1388049	0.0-16.14-1.14	beast_fmri_test	303	23.091116666666668,23.102433333333334,23.113766666666667,23.125083333333333,23.1364,23.147733333333335	t,t,t,t,t,t	<img class = center src='/static/experiments/beast_fmri_test/images/P.png'></img>	71,89	2750.0	test	<img class = center src='/static/experiments/beast_fmri_test/images/redP.png'></img>	stop	1400.0	2.0	14.0	stop	non-target	P	71,Green Button	89,Yellow Button	1500.0	1350.0	1250.0	1400.0	0.0	1350.0	0.0	1.0	go_stim
389758.90296131268	1400.0	n/a	-1	-1	2750	1131.09703869	stim	stop-signal	510	1388049	0.0-16.14-1.14	beast_fmri_test	303	23.091116666666668,23.102433333333334,23.113766666666667,23.125083333333333,23.1364,23.147733333333335	t,t,t,t,t,t	<img class = center src='/static/experiments/beast_fmri_test/images/P.png'></img>	71,89	2750.0	test	<img class = center src='/static/experiments/beast_fmri_test/images/redP.png'></img>	stop	1400.0	2.0	14.0	stop	non-target	P	71,Green Button	89,Yellow Button	1500.0	1350.0	1250.0	1400.0	0.0	1350.0	0.0	1.0	stop_stim
391108.90296131268	1131.0970386874387	n/a	-1	-1	2750	1131.09703869	stim	stop-signal	510	1388049	0.0-16.14-1.14	beast_fmri_test	303	23.091116666666668,23.102433333333334,23.113766666666667,23.125083333333333,23.1364,23.147733333333335	t,t,t,t,t,t	<img class = center src='/static/experiments/beast_fmri_test/images/P.png'></img>	71,89	2750.0	test	<img class = center src='/static/experiments/beast_fmri_test/images/redP.png'></img>	stop	1400.0	2.0	14.0	stop	non-target	P	71,Green Button	89,Yellow Button	1500.0	1350.0	1250.0	1400.0	0.0	1350.0	0.0	1.0	ITI
393917.00000000012	500	n/a	-1	-1	500	0.0	fixation	poldrack-single-stim	511	1389726	0.0-16.15-0.15	beast_fmri_test	303	23.159066666666668	t	<div class = centerbox><div class = fixation>+</div></div>	none	500.0	test	n/a	n/a	n/a	n/a	n/a	n/a	n/a	n/a	n/a	n/a	n/a	n/a	n/a	n/a	n/a	n/a	n/a	n/a	fixation
393769.66757257038	2750	n/a	1607	89	2750	149.33242743	stim	stop-signal	512	1392478	0.0-16.15-1.15	beast_fmri_test	303	23.1704,23.181716666666667,23.19305,23.204366666666665	t,t,t,t	<img class = center src='/static/experiments/beast_fmri_test/images/V.png'></img>	71,89	2750.0	test	<img class = center src='/static/experiments/beast_fmri_test/images/redV.png'></img>	go	1350.0	2.0	15.0	go	non-target	V	71,Green Button	89,Yellow Button	1500.0	1400.0	1250.0	1350.0	1.0	1400.0	1.0	n/a	go_stim
396519.66757257038	149.33242742967198	n/a	1607	89	2750	149.33242743	stim	stop-signal	512	1392478	0.0-16.15-1.15	beast_fmri_test	303	23.1704,23.181716666666667,23.19305,23.204366666666665	t,t,t,t	<img class = center src='/static/experiments/beast_fmri_test/images/V.png'></img>	71,89	2750.0	test	<img class = center src='/static/experiments/beast_fmri_test/images/redV.png'></img>	go	1350.0	2.0	15.0	go	non-target	V	71,Green Button	89,Yellow Button	1500.0	1400.0	1250.0	1350.0	1.0	1400.0	1.0	n/a	ITI
397367.00000000012	500	n/a	-1	-1	500	0.0	fixation	poldrack-single-stim	513	1393176	0.0-16.16-0.16	beast_fmri_test	303	23.215716666666665	t	<div class = centerbox><div class = fixation>+</div></div>	none	500.0	test	n/a	n/a	n/a	n/a	n/a	n/a	n/a	n/a	n/a	n/a	n/a	n/a	n/a	n/a	n/a	n/a	n/a	n/a	fixation
395937.83935605304	2750	n/a	2005	89	2750	1431.16064395	stim	stop-signal	514	1395928	0.0-16.16-1.16	beast_fmri_test	303	23.227033333333335,23.238366666666668,23.2497,23.261016666666666,23.27235,23.283666666666665	t,t,t,t,t,t	<img class = center src='/static/experiments/beast_fmri_test/images/D.png'></img>	71,89	2750.0	test	<img class = center src='/static/experiments/beast_fmri_test/images/redD.png'></img>	go	1350.0	2.0	16.0	go	non-target	D	71,Green Button	89,Yellow Button	1500.0	1400.0	1250.0	1350.0	1.0	1400.0	1.0	n/a	go_stim
398687.83935605304	1431.1606439471286	n/a	2005	89	2750	1431.16064395	stim	stop-signal	514	1395928	0.0-16.16-1.16	beast_fmri_test	303	23.227033333333335,23.238366666666668,23.2497,23.261016666666666,23.27235,23.283666666666665	t,t,t,t,t,t	<img class = center src='/static/experiments/beast_fmri_test/images/D.png'></img>	71,89	2750.0	test	<img class = center src='/static/experiments/beast_fmri_test/images/redD.png'></img>	go	1350.0	2.0	16.0	go	non-target	D	71,Green Button	89,Yellow Button	1500.0	1400.0	1250.0	1350.0	1.0	1400.0	1.0	n/a	ITI
402103.00000000012	500	n/a	-1	-1	500	0.0	fixation	poldrack-single-stim	515	1397912	0.0-16.17-0.17	beast_fmri_test	303	23.295016666666665	t	<div class = centerbox><div class = fixation>+</div></div>	none	500.0	test	n/a	n/a	n/a	n/a	n/a	n/a	n/a	n/a	n/a	n/a	n/a	n/a	n/a	n/a	n/a	n/a	n/a	n/a	fixation
401889.44812751201	1400.0	n/a	-1	-1	2750	216.551872488	stim	stop-signal	516	1400665	0.0-16.17-1.17	beast_fmri_test	303	23.306333333333335,23.31765,23.328983333333333,23.340316666666666	t,t,t,t	<img class = center src='/static/experiments/beast_fmri_test/images/T.png'></img>	71,89	2750.0	test	<img class = center src='/static/experiments/beast_fmri_test/images/redT.png'></img>	stop	1350.0	2.0	17.0	stop	non-target	T	71,Green Button	89,Yellow Button	1500.0	1400.0	1250.0	1350.0	0.0	1400.0	0.0	1.0	go_stim
403239.44812751201	1350.0	n/a	-1	-1	2750	216.551872488	stim	stop-signal	516	1400665	0.0-16.17-1.17	beast_fmri_test	303	23.306333333333335,23.31765,23.328983333333333,23.340316666666666	t,t,t,t	<img class = center src='/static/experiments/beast_fmri_test/images/T.png'></img>	71,89	2750.0	test	<img class = center src='/static/experiments/beast_fmri_test/images/redT.png'></img>	stop	1350.0	2.0	17.0	stop	non-target	T	71,Green Button	89,Yellow Button	1500.0	1400.0	1250.0	1350.0	0.0	1400.0	0.0	1.0	stop_stim
404639.44812751201	216.55187248816875	n/a	-1	-1	2750	216.551872488	stim	stop-signal	516	1400665	0.0-16.17-1.17	beast_fmri_test	303	23.306333333333335,23.31765,23.328983333333333,23.340316666666666	t,t,t,t	<img class = center src='/static/experiments/beast_fmri_test/images/T.png'></img>	71,89	2750.0	test	<img class = center src='/static/experiments/beast_fmri_test/images/redT.png'></img>	stop	1350.0	2.0	17.0	stop	non-target	T	71,Green Button	89,Yellow Button	1500.0	1400.0	1250.0	1350.0	0.0	1400.0	0.0	1.0	ITI
405621.00000000012	500	n/a	-1	-1	500	0.0	fixation	poldrack-single-stim	517	1401430	0.0-16.18-0.18	beast_fmri_test	303	23.35165	t	<div class = centerbox><div class = fixation>+</div></div>	none	500.0	test	n/a	n/a	n/a	n/a	n/a	n/a	n/a	n/a	n/a	n/a	n/a	n/a	n/a	n/a	n/a	n/a	n/a	n/a	fixation
