onset	duration	text	rt	key_press	block_duration	timing_post_trial	trial_id	trial_type	trial_index	time_elapsed	internal_node_id	exp_id	subject_id	trigger_times	triggers	stimulus	possible_responses	stim_duration	exp_stage	SS_stimulus	SS_trial_type	SS_duration	load	trial_num	stop_trial_type	adaptive_trial_type	stim	yes_response_key	no_response_key	SSD_target	SSD_non_target	SSTarget	SSNonTarget	go_acc	SS_delay	adaptive_acc	stop_acc	new_trial_type
test	8762.0	"<div class = ""centerbox""><p class = ""center-block-text"">Your delay is 2 trials.</p><p class = center-block-text>Please wait for the scanner to start the block</p></div>"	8762	84	8762	1000.0	start_test_text	poldrack-text	3	21258	0.0-3.0	beast_fmri_test	303	0.3543	t	n/a	n/a	n/a	n/a	n/a	n/a	n/a	n/a	n/a	n/a	n/a	n/a	n/a	n/a	n/a	n/a	n/a	n/a	n/a	n/a	n/a	n/a	start_functional_block
1506.0	500.0	n/a	-1	-1	500	0.0	fixation	poldrack-single-stim	4	22764	0.0-4.0-0.0	beast_fmri_test	303	n/a	n/a	<div class = centerbox><div class = fixation>+</div></div>	none	500.0	test	n/a	n/a	n/a	n/a	n/a	n/a	n/a	n/a	n/a	n/a	n/a	n/a	n/a	n/a	n/a	n/a	n/a	n/a	fixation
-1280.0599432510135	2750.0	n/a	901	89	2750	2792.05994325	stim	stop-signal	5	25520	0.0-4.0-1.0	beast_fmri_test	303	0.4449166666666667	t	<img class = center src='/static/experiments/beast_fmri_test/images/T.png'></img>	71,89	2750.0	test	<img class = center src='/static/experiments/beast_fmri_test/images/redT.png'></img>	go	-1.0	2.0	0.0	go	temp-non-target	T	71,Green Button	89,Yellow Button	500.0	500.0	0.0	0.0	0.0	n/a	n/a	n/a	go_stim
1469.9400567489865	2792.05994325	n/a	901	89	2750	2792.05994325	stim	stop-signal	5	25520	0.0-4.0-1.0	beast_fmri_test	303	0.4449166666666667	t	<img class = center src='/static/experiments/beast_fmri_test/images/T.png'></img>	71,89	2750.0	test	<img class = center src='/static/experiments/beast_fmri_test/images/redT.png'></img>	go	-1.0	2.0	0.0	go	temp-non-target	T	71,Green Button	89,Yellow Button	500.0	500.0	0.0	0.0	0.0	n/a	n/a	n/a	ITI
7563.0	500.0	n/a	-1	-1	500	0.0	fixation	poldrack-single-stim	6	28821	0.0-4.1-0.1	beast_fmri_test	303	n/a	n/a	<div class = centerbox><div class = fixation>+</div></div>	none	500.0	test	n/a	n/a	n/a	n/a	n/a	n/a	n/a	n/a	n/a	n/a	n/a	n/a	n/a	n/a	n/a	n/a	n/a	n/a	fixation
4691.55105675491	2750.0	n/a	814	89	2750	2874.44894325	stim	stop-signal	7	31574	0.0-4.1-1.1	beast_fmri_test	303	n/a	n/a	<img class = center src='/static/experiments/beast_fmri_test/images/D.png'></img>	71,89	2750.0	test	<img class = center src='/static/experiments/beast_fmri_test/images/redD.png'></img>	go	-1.0	2.0	1.0	go	temp-non-target	D	71,Green Button	89,Yellow Button	500.0	500.0	0.0	0.0	0.0	n/a	n/a	n/a	go_stim
7441.55105675491	2874.44894325	n/a	814	89	2750	2874.44894325	stim	stop-signal	7	31574	0.0-4.1-1.1	beast_fmri_test	303	n/a	n/a	<img class = center src='/static/experiments/beast_fmri_test/images/D.png'></img>	71,89	2750.0	test	<img class = center src='/static/experiments/beast_fmri_test/images/redD.png'></img>	go	-1.0	2.0	1.0	go	temp-non-target	D	71,Green Button	89,Yellow Button	500.0	500.0	0.0	0.0	0.0	n/a	n/a	n/a	ITI
13695.0	500.0	n/a	-1	-1	500	0.0	fixation	poldrack-single-stim	8	34953	0.0-4.2-0.2	beast_fmri_test	303	n/a	n/a	<div class = centerbox><div class = fixation>+</div></div>	none	500.0	test	n/a	n/a	n/a	n/a	n/a	n/a	n/a	n/a	n/a	n/a	n/a	n/a	n/a	n/a	n/a	n/a	n/a	n/a	fixation
13392.862508609338	2750.0	n/a	1119	71	2750	304.137491391	stim	stop-signal	9	37705	0.0-4.2-1.2	beast_fmri_test	303	n/a	n/a	<img class = center src='/static/experiments/beast_fmri_test/images/T.png'></img>	71,89	2750.0	test	<img class = center src='/static/experiments/beast_fmri_test/images/redT.png'></img>	go	2250.0	2.0	2.0	go	target	T	71,Green Button	89,Yellow Button	500.0	500.0	2250.0	0.0	1.0	500.0	1.0	n/a	go_stim
16142.862508609338	304.137491391	n/a	1119	71	2750	304.137491391	stim	stop-signal	9	37705	0.0-4.2-1.2	beast_fmri_test	303	n/a	n/a	<img class = center src='/static/experiments/beast_fmri_test/images/T.png'></img>	71,89	2750.0	test	<img class = center src='/static/experiments/beast_fmri_test/images/redT.png'></img>	go	2250.0	2.0	2.0	go	target	T	71,Green Button	89,Yellow Button	500.0	500.0	2250.0	0.0	1.0	500.0	1.0	n/a	ITI
17259.0	500.0	n/a	-1	-1	500	0.0	fixation	poldrack-single-stim	10	38517	0.0-4.3-0.3	beast_fmri_test	303	n/a	n/a	<div class = centerbox><div class = fixation>+</div></div>	none	500.0	test	n/a	n/a	n/a	n/a	n/a	n/a	n/a	n/a	n/a	n/a	n/a	n/a	n/a	n/a	n/a	n/a	n/a	n/a	fixation
15945.886446402314	2750.0	n/a	1117	89	2750	1316.1135536	stim	stop-signal	11	41270	0.0-4.3-1.3	beast_fmri_test	303	n/a	n/a	<img class = center src='/static/experiments/beast_fmri_test/images/B.png'></img>	71,89	2750.0	test	<img class = center src='/static/experiments/beast_fmri_test/images/redB.png'></img>	go	2250.0	2.0	3.0	go	non-target	B	71,Green Button	89,Yellow Button	500.0	500.0	2250.0	2250.0	1.0	500.0	1.0	n/a	go_stim
18695.886446402314	1316.1135536	n/a	1117	89	2750	1316.1135536	stim	stop-signal	11	41270	0.0-4.3-1.3	beast_fmri_test	303	n/a	n/a	<img class = center src='/static/experiments/beast_fmri_test/images/B.png'></img>	71,89	2750.0	test	<img class = center src='/static/experiments/beast_fmri_test/images/redB.png'></img>	go	2250.0	2.0	3.0	go	non-target	B	71,Green Button	89,Yellow Button	500.0	500.0	2250.0	2250.0	1.0	500.0	1.0	n/a	ITI
21833.0	500.0	n/a	-1	-1	500	0.0	fixation	poldrack-single-stim	12	43091	0.0-4.4-0.4	beast_fmri_test	303	n/a	n/a	<div class = centerbox><div class = fixation>+</div></div>	none	500.0	test	n/a	n/a	n/a	n/a	n/a	n/a	n/a	n/a	n/a	n/a	n/a	n/a	n/a	n/a	n/a	n/a	n/a	n/a	fixation
20748.949889333846	2750.0	n/a	1368	89	2750	1086.05011067	stim	stop-signal	13	45843	0.0-4.4-1.4	beast_fmri_test	303	0.7281166666666666	t	<img class = center src='/static/experiments/beast_fmri_test/images/D.png'></img>	71,89	2750.0	test	<img class = center src='/static/experiments/beast_fmri_test/images/redD.png'></img>	go	2250.0	2.0	4.0	go	non-target	D	71,Green Button	89,Yellow Button	500.0	500.0	2250.0	2250.0	1.0	500.0	1.0	n/a	go_stim
23498.949889333846	1086.05011067	n/a	1368	89	2750	1086.05011067	stim	stop-signal	13	45843	0.0-4.4-1.4	beast_fmri_test	303	0.7281166666666666	t	<img class = center src='/static/experiments/beast_fmri_test/images/D.png'></img>	71,89	2750.0	test	<img class = center src='/static/experiments/beast_fmri_test/images/redD.png'></img>	go	2250.0	2.0	4.0	go	non-target	D	71,Green Button	89,Yellow Button	500.0	500.0	2250.0	2250.0	1.0	500.0	1.0	n/a	ITI
26177.0	500.0	n/a	-1	-1	500	0.0	fixation	poldrack-single-stim	14	47435	0.0-4.5-0.5	beast_fmri_test	303	n/a	n/a	<div class = centerbox><div class = fixation>+</div></div>	none	500.0	test	n/a	n/a	n/a	n/a	n/a	n/a	n/a	n/a	n/a	n/a	n/a	n/a	n/a	n/a	n/a	n/a	n/a	n/a	fixation
26106.854270655851	500.0	n/a	-1	-1	2750	72.1457293441	stim	stop-signal	15	50187	0.0-4.5-1.5	beast_fmri_test	303	n/a	n/a	<img class = center src='/static/experiments/beast_fmri_test/images/B.png'></img>	71,89	2750.0	test	<img class = center src='/static/experiments/beast_fmri_test/images/redB.png'></img>	stop	2250.0	2.0	5.0	stop	target	B	71,Green Button	89,Yellow Button	500.0	500.0	2250.0	2250.0	0.0	500.0	0.0	1.0	go_stim
28356.854270655851	2250.0	n/a	-1	-1	2750	72.1457293441	stim	stop-signal	15	50187	0.0-4.5-1.5	beast_fmri_test	303	n/a	n/a	<img class = center src='/static/experiments/beast_fmri_test/images/B.png'></img>	71,89	2750.0	test	<img class = center src='/static/experiments/beast_fmri_test/images/redB.png'></img>	stop	2250.0	2.0	5.0	stop	target	B	71,Green Button	89,Yellow Button	500.0	500.0	2250.0	2250.0	0.0	500.0	0.0	1.0	stop_stim
28856.854270655851	72.1457293441	n/a	-1	-1	2750	72.1457293441	stim	stop-signal	15	50187	0.0-4.5-1.5	beast_fmri_test	303	n/a	n/a	<img class = center src='/static/experiments/beast_fmri_test/images/B.png'></img>	71,89	2750.0	test	<img class = center src='/static/experiments/beast_fmri_test/images/redB.png'></img>	stop	2250.0	2.0	5.0	stop	target	B	71,Green Button	89,Yellow Button	500.0	500.0	2250.0	2250.0	0.0	500.0	0.0	1.0	ITI
29508.0	500.0	n/a	-1	-1	500	0.0	fixation	poldrack-single-stim	16	50766	0.0-4.6-0.6	beast_fmri_test	303	n/a	n/a	<div class = centerbox><div class = fixation>+</div></div>	none	500.0	test	n/a	n/a	n/a	n/a	n/a	n/a	n/a	n/a	n/a	n/a	n/a	n/a	n/a	n/a	n/a	n/a	n/a	n/a	fixation
25228.100572735369	550.0	n/a	-1	-1	2750	4281.89942726	stim	stop-signal	17	53518	0.0-4.6-1.6	beast_fmri_test	303	n/a	n/a	<img class = center src='/static/experiments/beast_fmri_test/images/D.png'></img>	71,89	2750.0	test	<img class = center src='/static/experiments/beast_fmri_test/images/redD.png'></img>	stop	2200.0	2.0	6.0	stop	target	D	71,Green Button	89,Yellow Button	550.0	500.0	2200.0	2250.0	0.0	550.0	0.0	1.0	go_stim
27428.100572735369	2200.0	n/a	-1	-1	2750	4281.89942726	stim	stop-signal	17	53518	0.0-4.6-1.6	beast_fmri_test	303	n/a	n/a	<img class = center src='/static/experiments/beast_fmri_test/images/D.png'></img>	71,89	2750.0	test	<img class = center src='/static/experiments/beast_fmri_test/images/redD.png'></img>	stop	2200.0	2.0	6.0	stop	target	D	71,Green Button	89,Yellow Button	550.0	500.0	2200.0	2250.0	0.0	550.0	0.0	1.0	stop_stim
27978.100572735369	4281.89942726	n/a	-1	-1	2750	4281.89942726	stim	stop-signal	17	53518	0.0-4.6-1.6	beast_fmri_test	303	n/a	n/a	<img class = center src='/static/experiments/beast_fmri_test/images/D.png'></img>	71,89	2750.0	test	<img class = center src='/static/experiments/beast_fmri_test/images/redD.png'></img>	stop	2200.0	2.0	6.0	stop	target	D	71,Green Button	89,Yellow Button	550.0	500.0	2200.0	2250.0	0.0	550.0	0.0	1.0	ITI
37045.0	500.0	n/a	-1	-1	500	0.0	fixation	poldrack-single-stim	18	58303	0.0-4.7-0.7	beast_fmri_test	303	n/a	n/a	<div class = centerbox><div class = fixation>+</div></div>	none	500.0	test	n/a	n/a	n/a	n/a	n/a	n/a	n/a	n/a	n/a	n/a	n/a	n/a	n/a	n/a	n/a	n/a	n/a	n/a	fixation
36487.988679401285	2750.0	n/a	1488	89	2750	559.011320599	stim	stop-signal	19	61055	0.0-4.7-1.7	beast_fmri_test	303	n/a	n/a	<img class = center src='/static/experiments/beast_fmri_test/images/P.png'></img>	71,89	2750.0	test	<img class = center src='/static/experiments/beast_fmri_test/images/redP.png'></img>	go	2250.0	2.0	7.0	go	non-target	P	71,Green Button	89,Yellow Button	600.0	500.0	2200.0	2250.0	1.0	500.0	1.0	n/a	go_stim
39237.988679401285	559.011320599	n/a	1488	89	2750	559.011320599	stim	stop-signal	19	61055	0.0-4.7-1.7	beast_fmri_test	303	n/a	n/a	<img class = center src='/static/experiments/beast_fmri_test/images/P.png'></img>	71,89	2750.0	test	<img class = center src='/static/experiments/beast_fmri_test/images/redP.png'></img>	go	2250.0	2.0	7.0	go	non-target	P	71,Green Button	89,Yellow Button	600.0	500.0	2200.0	2250.0	1.0	500.0	1.0	n/a	ITI
40863.0	500.0	n/a	-1	-1	500	0.0	fixation	poldrack-single-stim	20	62121	0.0-4.8-0.8	beast_fmri_test	303	n/a	n/a	<div class = centerbox><div class = fixation>+</div></div>	none	500.0	test	n/a	n/a	n/a	n/a	n/a	n/a	n/a	n/a	n/a	n/a	n/a	n/a	n/a	n/a	n/a	n/a	n/a	n/a	fixation
39923.608446003454	2750.0	n/a	1661	89	2750	940.391553997	stim	stop-signal	21	64872	0.0-4.8-1.8	beast_fmri_test	303	n/a	n/a	<img class = center src='/static/experiments/beast_fmri_test/images/V.png'></img>	71,89	2750.0	test	<img class = center src='/static/experiments/beast_fmri_test/images/redV.png'></img>	go	2250.0	2.0	8.0	go	non-target	V	71,Green Button	89,Yellow Button	600.0	500.0	2200.0	2250.0	1.0	500.0	1.0	n/a	go_stim
42673.608446003454	940.391553997	n/a	1661	89	2750	940.391553997	stim	stop-signal	21	64872	0.0-4.8-1.8	beast_fmri_test	303	n/a	n/a	<img class = center src='/static/experiments/beast_fmri_test/images/V.png'></img>	71,89	2750.0	test	<img class = center src='/static/experiments/beast_fmri_test/images/redV.png'></img>	go	2250.0	2.0	8.0	go	non-target	V	71,Green Button	89,Yellow Button	600.0	500.0	2200.0	2250.0	1.0	500.0	1.0	n/a	ITI
45062.0	500.0	n/a	-1	-1	500	0.0	fixation	poldrack-single-stim	22	66320	0.0-4.9-0.9	beast_fmri_test	303	n/a	n/a	<div class = centerbox><div class = fixation>+</div></div>	none	500.0	test	n/a	n/a	n/a	n/a	n/a	n/a	n/a	n/a	n/a	n/a	n/a	n/a	n/a	n/a	n/a	n/a	n/a	n/a	fixation
44317.368773663911	2750.0	n/a	1388	71	2750	744.631226336	stim	stop-signal	23	69070	0.0-4.9-1.9	beast_fmri_test	303	n/a	n/a	<img class = center src='/static/experiments/beast_fmri_test/images/P.png'></img>	71,89	2750.0	test	<img class = center src='/static/experiments/beast_fmri_test/images/redP.png'></img>	go	2150.0	2.0	9.0	go	target	P	71,Green Button	89,Yellow Button	600.0	500.0	2150.0	2250.0	1.0	600.0	1.0	n/a	go_stim
47067.368773663911	744.631226336	n/a	1388	71	2750	744.631226336	stim	stop-signal	23	69070	0.0-4.9-1.9	beast_fmri_test	303	n/a	n/a	<img class = center src='/static/experiments/beast_fmri_test/images/P.png'></img>	71,89	2750.0	test	<img class = center src='/static/experiments/beast_fmri_test/images/redP.png'></img>	go	2150.0	2.0	9.0	go	target	P	71,Green Button	89,Yellow Button	600.0	500.0	2150.0	2250.0	1.0	600.0	1.0	n/a	ITI
49065.0	500.0	n/a	-1	-1	500	0.0	fixation	poldrack-single-stim	24	70323	0.0-4.10-0.10	beast_fmri_test	303	n/a	n/a	<div class = centerbox><div class = fixation>+</div></div>	none	500.0	test	n/a	n/a	n/a	n/a	n/a	n/a	n/a	n/a	n/a	n/a	n/a	n/a	n/a	n/a	n/a	n/a	n/a	n/a	fixation
47441.648323419417	2750.0	n/a	1237	89	2750	1623.35167658	stim	stop-signal	25	73073	0.0-4.10-1.10	beast_fmri_test	303	n/a	n/a	<img class = center src='/static/experiments/beast_fmri_test/images/T.png'></img>	71,89	2750.0	test	<img class = center src='/static/experiments/beast_fmri_test/images/redT.png'></img>	go	2250.0	2.0	10.0	go	non-target	T	71,Green Button	89,Yellow Button	600.0	500.0	2150.0	2250.0	1.0	500.0	1.0	n/a	go_stim
50191.648323419417	1623.35167658	n/a	1237	89	2750	1623.35167658	stim	stop-signal	25	73073	0.0-4.10-1.10	beast_fmri_test	303	n/a	n/a	<img class = center src='/static/experiments/beast_fmri_test/images/T.png'></img>	71,89	2750.0	test	<img class = center src='/static/experiments/beast_fmri_test/images/redT.png'></img>	go	2250.0	2.0	10.0	go	non-target	T	71,Green Button	89,Yellow Button	600.0	500.0	2150.0	2250.0	1.0	500.0	1.0	n/a	ITI
53944.0	500.0	n/a	-1	-1	500	0.0	fixation	poldrack-single-stim	26	75202	0.0-4.11-0.11	beast_fmri_test	303	n/a	n/a	<div class = centerbox><div class = fixation>+</div></div>	none	500.0	test	n/a	n/a	n/a	n/a	n/a	n/a	n/a	n/a	n/a	n/a	n/a	n/a	n/a	n/a	n/a	n/a	n/a	n/a	fixation
52736.38405363253	600.0	n/a	-1	-1	2750	1210.61594637	stim	stop-signal	27	77955	0.0-4.11-1.11	beast_fmri_test	303	n/a	n/a	<img class = center src='/static/experiments/beast_fmri_test/images/P.png'></img>	71,89	2750.0	test	<img class = center src='/static/experiments/beast_fmri_test/images/redP.png'></img>	stop	2150.0	2.0	11.0	stop	target	P	71,Green Button	89,Yellow Button	600.0	500.0	2150.0	2250.0	0.0	600.0	0.0	1.0	go_stim
54886.38405363253	2150.0	n/a	-1	-1	2750	1210.61594637	stim	stop-signal	27	77955	0.0-4.11-1.11	beast_fmri_test	303	n/a	n/a	<img class = center src='/static/experiments/beast_fmri_test/images/P.png'></img>	71,89	2750.0	test	<img class = center src='/static/experiments/beast_fmri_test/images/redP.png'></img>	stop	2150.0	2.0	11.0	stop	target	P	71,Green Button	89,Yellow Button	600.0	500.0	2150.0	2250.0	0.0	600.0	0.0	1.0	stop_stim
55486.38405363253	1210.61594637	n/a	-1	-1	2750	1210.61594637	stim	stop-signal	27	77955	0.0-4.11-1.11	beast_fmri_test	303	n/a	n/a	<img class = center src='/static/experiments/beast_fmri_test/images/P.png'></img>	71,89	2750.0	test	<img class = center src='/static/experiments/beast_fmri_test/images/redP.png'></img>	stop	2150.0	2.0	11.0	stop	target	P	71,Green Button	89,Yellow Button	600.0	500.0	2150.0	2250.0	0.0	600.0	0.0	1.0	ITI
58414.0	500.0	n/a	-1	-1	500	0.0	fixation	poldrack-single-stim	28	79672	0.0-4.12-0.12	beast_fmri_test	303	n/a	n/a	<div class = centerbox><div class = fixation>+</div></div>	none	500.0	test	n/a	n/a	n/a	n/a	n/a	n/a	n/a	n/a	n/a	n/a	n/a	n/a	n/a	n/a	n/a	n/a	n/a	n/a	fixation
55743.875561422523	650.0	n/a	-1	-1	2750	2672.12443858	stim	stop-signal	29	82424	0.0-4.12-1.12	beast_fmri_test	303	n/a	n/a	<img class = center src='/static/experiments/beast_fmri_test/images/T.png'></img>	71,89	2750.0	test	<img class = center src='/static/experiments/beast_fmri_test/images/redT.png'></img>	stop	2100.0	2.0	12.0	stop	target	T	71,Green Button	89,Yellow Button	650.0	500.0	2100.0	2250.0	0.0	650.0	0.0	1.0	go_stim
57843.875561422523	2100.0	n/a	-1	-1	2750	2672.12443858	stim	stop-signal	29	82424	0.0-4.12-1.12	beast_fmri_test	303	n/a	n/a	<img class = center src='/static/experiments/beast_fmri_test/images/T.png'></img>	71,89	2750.0	test	<img class = center src='/static/experiments/beast_fmri_test/images/redT.png'></img>	stop	2100.0	2.0	12.0	stop	target	T	71,Green Button	89,Yellow Button	650.0	500.0	2100.0	2250.0	0.0	650.0	0.0	1.0	stop_stim
58493.875561422523	2672.12443858	n/a	-1	-1	2750	2672.12443858	stim	stop-signal	29	82424	0.0-4.12-1.12	beast_fmri_test	303	n/a	n/a	<img class = center src='/static/experiments/beast_fmri_test/images/T.png'></img>	71,89	2750.0	test	<img class = center src='/static/experiments/beast_fmri_test/images/redT.png'></img>	stop	2100.0	2.0	12.0	stop	target	T	71,Green Button	89,Yellow Button	650.0	500.0	2100.0	2250.0	0.0	650.0	0.0	1.0	ITI
64342.0	500.0	n/a	-1	-1	500	0.0	fixation	poldrack-single-stim	30	85600	0.0-4.13-0.13	beast_fmri_test	303	n/a	n/a	<div class = centerbox><div class = fixation>+</div></div>	none	500.0	test	n/a	n/a	n/a	n/a	n/a	n/a	n/a	n/a	n/a	n/a	n/a	n/a	n/a	n/a	n/a	n/a	n/a	n/a	fixation
64027.331307761167	500.0	n/a	-1	-1	2750	317.668692239	stim	stop-signal	31	88353	0.0-4.13-1.13	beast_fmri_test	303	n/a	n/a	<img class = center src='/static/experiments/beast_fmri_test/images/V.png'></img>	71,89	2750.0	test	<img class = center src='/static/experiments/beast_fmri_test/images/redV.png'></img>	stop	2250.0	2.0	13.0	stop	non-target	V	71,Green Button	89,Yellow Button	700.0	500.0	2100.0	2250.0	0.0	500.0	0.0	1.0	go_stim
66277.331307761167	2250.0	n/a	-1	-1	2750	317.668692239	stim	stop-signal	31	88353	0.0-4.13-1.13	beast_fmri_test	303	n/a	n/a	<img class = center src='/static/experiments/beast_fmri_test/images/V.png'></img>	71,89	2750.0	test	<img class = center src='/static/experiments/beast_fmri_test/images/redV.png'></img>	stop	2250.0	2.0	13.0	stop	non-target	V	71,Green Button	89,Yellow Button	700.0	500.0	2100.0	2250.0	0.0	500.0	0.0	1.0	stop_stim
66777.331307761167	317.668692239	n/a	-1	-1	2750	317.668692239	stim	stop-signal	31	88353	0.0-4.13-1.13	beast_fmri_test	303	n/a	n/a	<img class = center src='/static/experiments/beast_fmri_test/images/V.png'></img>	71,89	2750.0	test	<img class = center src='/static/experiments/beast_fmri_test/images/redV.png'></img>	stop	2250.0	2.0	13.0	stop	non-target	V	71,Green Button	89,Yellow Button	700.0	500.0	2100.0	2250.0	0.0	500.0	0.0	1.0	ITI
67921.0	500.0	n/a	-1	-1	500	0.0	fixation	poldrack-single-stim	32	89179	0.0-4.14-0.14	beast_fmri_test	303	n/a	n/a	<div class = centerbox><div class = fixation>+</div></div>	none	500.0	test	n/a	n/a	n/a	n/a	n/a	n/a	n/a	n/a	n/a	n/a	n/a	n/a	n/a	n/a	n/a	n/a	n/a	n/a	fixation
65732.395909937695	550.0	n/a	-1	-1	2750	2188.60409006	stim	stop-signal	33	91929	0.0-4.14-1.14	beast_fmri_test	303	n/a	n/a	<img class = center src='/static/experiments/beast_fmri_test/images/V.png'></img>	71,89	2750.0	test	<img class = center src='/static/experiments/beast_fmri_test/images/redV.png'></img>	stop	2200.0	2.0	14.0	stop	non-target	V	71,Green Button	89,Yellow Button	700.0	550.0	2100.0	2200.0	0.0	550.0	0.0	1.0	go_stim
67932.395909937695	2200.0	n/a	-1	-1	2750	2188.60409006	stim	stop-signal	33	91929	0.0-4.14-1.14	beast_fmri_test	303	n/a	n/a	<img class = center src='/static/experiments/beast_fmri_test/images/V.png'></img>	71,89	2750.0	test	<img class = center src='/static/experiments/beast_fmri_test/images/redV.png'></img>	stop	2200.0	2.0	14.0	stop	non-target	V	71,Green Button	89,Yellow Button	700.0	550.0	2100.0	2200.0	0.0	550.0	0.0	1.0	stop_stim
68482.395909937695	2188.60409006	n/a	-1	-1	2750	2188.60409006	stim	stop-signal	33	91929	0.0-4.14-1.14	beast_fmri_test	303	n/a	n/a	<img class = center src='/static/experiments/beast_fmri_test/images/V.png'></img>	71,89	2750.0	test	<img class = center src='/static/experiments/beast_fmri_test/images/redV.png'></img>	stop	2200.0	2.0	14.0	stop	non-target	V	71,Green Button	89,Yellow Button	700.0	550.0	2100.0	2200.0	0.0	550.0	0.0	1.0	ITI
73363.0	500.0	n/a	-1	-1	500	0.0	fixation	poldrack-single-stim	34	94621	0.0-4.15-0.15	beast_fmri_test	303	n/a	n/a	<div class = centerbox><div class = fixation>+</div></div>	none	500.0	test	n/a	n/a	n/a	n/a	n/a	n/a	n/a	n/a	n/a	n/a	n/a	n/a	n/a	n/a	n/a	n/a	n/a	n/a	fixation
72268.747564323246	600.0	n/a	-1	-1	2750	1095.25243568	stim	stop-signal	35	97372	0.0-4.15-1.15	beast_fmri_test	303	n/a	n/a	<img class = center src='/static/experiments/beast_fmri_test/images/T.png'></img>	71,89	2750.0	test	<img class = center src='/static/experiments/beast_fmri_test/images/redT.png'></img>	stop	2150.0	2.0	15.0	stop	non-target	T	71,Green Button	89,Yellow Button	700.0	600.0	2100.0	2150.0	0.0	600.0	0.0	1.0	go_stim
74418.747564323246	2150.0	n/a	-1	-1	2750	1095.25243568	stim	stop-signal	35	97372	0.0-4.15-1.15	beast_fmri_test	303	n/a	n/a	<img class = center src='/static/experiments/beast_fmri_test/images/T.png'></img>	71,89	2750.0	test	<img class = center src='/static/experiments/beast_fmri_test/images/redT.png'></img>	stop	2150.0	2.0	15.0	stop	non-target	T	71,Green Button	89,Yellow Button	700.0	600.0	2100.0	2150.0	0.0	600.0	0.0	1.0	stop_stim
75018.747564323246	1095.25243568	n/a	-1	-1	2750	1095.25243568	stim	stop-signal	35	97372	0.0-4.15-1.15	beast_fmri_test	303	n/a	n/a	<img class = center src='/static/experiments/beast_fmri_test/images/T.png'></img>	71,89	2750.0	test	<img class = center src='/static/experiments/beast_fmri_test/images/redT.png'></img>	stop	2150.0	2.0	15.0	stop	non-target	T	71,Green Button	89,Yellow Button	700.0	600.0	2100.0	2150.0	0.0	600.0	0.0	1.0	ITI
77722.0	500.0	n/a	-1	-1	500	0.0	fixation	poldrack-single-stim	36	98980	0.0-4.16-0.16	beast_fmri_test	303	n/a	n/a	<div class = centerbox><div class = fixation>+</div></div>	none	500.0	test	n/a	n/a	n/a	n/a	n/a	n/a	n/a	n/a	n/a	n/a	n/a	n/a	n/a	n/a	n/a	n/a	n/a	n/a	fixation
76170.999563190533	650.0	n/a	-1	-1	2750	1553.00043681	stim	stop-signal	37	101732	0.0-4.16-1.16	beast_fmri_test	303	n/a	n/a	<img class = center src='/static/experiments/beast_fmri_test/images/P.png'></img>	71,89	2750.0	test	<img class = center src='/static/experiments/beast_fmri_test/images/redP.png'></img>	stop	2100.0	2.0	16.0	stop	non-target	P	71,Green Button	89,Yellow Button	700.0	650.0	2100.0	2100.0	0.0	650.0	0.0	1.0	go_stim
78270.999563190533	2100.0	n/a	-1	-1	2750	1553.00043681	stim	stop-signal	37	101732	0.0-4.16-1.16	beast_fmri_test	303	n/a	n/a	<img class = center src='/static/experiments/beast_fmri_test/images/P.png'></img>	71,89	2750.0	test	<img class = center src='/static/experiments/beast_fmri_test/images/redP.png'></img>	stop	2100.0	2.0	16.0	stop	non-target	P	71,Green Button	89,Yellow Button	700.0	650.0	2100.0	2100.0	0.0	650.0	0.0	1.0	stop_stim
78920.999563190533	1553.00043681	n/a	-1	-1	2750	1553.00043681	stim	stop-signal	37	101732	0.0-4.16-1.16	beast_fmri_test	303	n/a	n/a	<img class = center src='/static/experiments/beast_fmri_test/images/P.png'></img>	71,89	2750.0	test	<img class = center src='/static/experiments/beast_fmri_test/images/redP.png'></img>	stop	2100.0	2.0	16.0	stop	non-target	P	71,Green Button	89,Yellow Button	700.0	650.0	2100.0	2100.0	0.0	650.0	0.0	1.0	ITI
82534.0	500.0	n/a	-1	-1	500	0.0	fixation	poldrack-single-stim	38	103792	0.0-4.17-0.17	beast_fmri_test	303	n/a	n/a	<div class = centerbox><div class = fixation>+</div></div>	none	500.0	test	n/a	n/a	n/a	n/a	n/a	n/a	n/a	n/a	n/a	n/a	n/a	n/a	n/a	n/a	n/a	n/a	n/a	n/a	fixation
81514.799040046157	2750.0	n/a	1193	71	2750	1020.20095995	stim	stop-signal	39	106543	0.0-4.17-1.17	beast_fmri_test	303	1.7589666666666666	t	<img class = center src='/static/experiments/beast_fmri_test/images/T.png'></img>	71,89	2750.0	test	<img class = center src='/static/experiments/beast_fmri_test/images/redT.png'></img>	go	2050.0	2.0	17.0	go	target	T	71,Green Button	89,Yellow Button	700.0	700.0	2050.0	2100.0	1.0	700.0	1.0	n/a	go_stim
84264.799040046157	1020.20095995	n/a	1193	71	2750	1020.20095995	stim	stop-signal	39	106543	0.0-4.17-1.17	beast_fmri_test	303	1.7589666666666666	t	<img class = center src='/static/experiments/beast_fmri_test/images/T.png'></img>	71,89	2750.0	test	<img class = center src='/static/experiments/beast_fmri_test/images/redT.png'></img>	go	2050.0	2.0	17.0	go	target	T	71,Green Button	89,Yellow Button	700.0	700.0	2050.0	2100.0	1.0	700.0	1.0	n/a	ITI
86814.0	500.0	n/a	-1	-1	500	0.0	fixation	poldrack-single-stim	40	108072	0.0-4.18-0.18	beast_fmri_test	303	n/a	n/a	<div class = centerbox><div class = fixation>+</div></div>	none	500.0	test	n/a	n/a	n/a	n/a	n/a	n/a	n/a	n/a	n/a	n/a	n/a	n/a	n/a	n/a	n/a	n/a	n/a	n/a	fixation
86414.831326475309	2750.0	n/a	1543	89	2750	400.168673525	stim	stop-signal	41	110823	0.0-4.18-1.18	beast_fmri_test	303	n/a	n/a	<img class = center src='/static/experiments/beast_fmri_test/images/D.png'></img>	71,89	2750.0	test	<img class = center src='/static/experiments/beast_fmri_test/images/redD.png'></img>	go	2050.0	2.0	18.0	go	non-target	D	71,Green Button	89,Yellow Button	700.0	700.0	2050.0	2050.0	1.0	700.0	1.0	n/a	go_stim
89164.831326475309	400.168673525	n/a	1543	89	2750	400.168673525	stim	stop-signal	41	110823	0.0-4.18-1.18	beast_fmri_test	303	n/a	n/a	<img class = center src='/static/experiments/beast_fmri_test/images/D.png'></img>	71,89	2750.0	test	<img class = center src='/static/experiments/beast_fmri_test/images/redD.png'></img>	go	2050.0	2.0	18.0	go	non-target	D	71,Green Button	89,Yellow Button	700.0	700.0	2050.0	2050.0	1.0	700.0	1.0	n/a	ITI
90474.0	500.0	n/a	-1	-1	500	0.0	fixation	poldrack-single-stim	42	111732	0.0-4.19-0.19	beast_fmri_test	303	n/a	n/a	<div class = centerbox><div class = fixation>+</div></div>	none	500.0	test	n/a	n/a	n/a	n/a	n/a	n/a	n/a	n/a	n/a	n/a	n/a	n/a	n/a	n/a	n/a	n/a	n/a	n/a	fixation
88682.054711141915	2750.0	n/a	1528	89	2750	1792.94528886	stim	stop-signal	43	114483	0.0-4.19-1.19	beast_fmri_test	303	1.9175833333333334	t	<img class = center src='/static/experiments/beast_fmri_test/images/B.png'></img>	71,89	2750.0	test	<img class = center src='/static/experiments/beast_fmri_test/images/redB.png'></img>	go	2050.0	2.0	19.0	go	non-target	B	71,Green Button	89,Yellow Button	700.0	700.0	2050.0	2050.0	1.0	700.0	1.0	n/a	go_stim
91432.054711141915	1792.94528886	n/a	1528	89	2750	1792.94528886	stim	stop-signal	43	114483	0.0-4.19-1.19	beast_fmri_test	303	1.9175833333333334	t	<img class = center src='/static/experiments/beast_fmri_test/images/B.png'></img>	71,89	2750.0	test	<img class = center src='/static/experiments/beast_fmri_test/images/redB.png'></img>	go	2050.0	2.0	19.0	go	non-target	B	71,Green Button	89,Yellow Button	700.0	700.0	2050.0	2050.0	1.0	700.0	1.0	n/a	ITI
95524.0	500.0	n/a	-1	-1	500	0.0	fixation	poldrack-single-stim	44	116782	0.0-4.20-0.20	beast_fmri_test	303	n/a	n/a	<div class = centerbox><div class = fixation>+</div></div>	none	500.0	test	n/a	n/a	n/a	n/a	n/a	n/a	n/a	n/a	n/a	n/a	n/a	n/a	n/a	n/a	n/a	n/a	n/a	n/a	fixation
93750.614384634668	700.0	n/a	-1	-1	2750	1776.38561537	stim	stop-signal	45	119535	0.0-4.20-1.20	beast_fmri_test	303	n/a	n/a	<img class = center src='/static/experiments/beast_fmri_test/images/T.png'></img>	71,89	2750.0	test	<img class = center src='/static/experiments/beast_fmri_test/images/redT.png'></img>	stop	2050.0	2.0	20.0	stop	non-target	T	71,Green Button	89,Yellow Button	700.0	700.0	2050.0	2050.0	0.0	700.0	0.0	1.0	go_stim
95800.614384634668	2050.0	n/a	-1	-1	2750	1776.38561537	stim	stop-signal	45	119535	0.0-4.20-1.20	beast_fmri_test	303	n/a	n/a	<img class = center src='/static/experiments/beast_fmri_test/images/T.png'></img>	71,89	2750.0	test	<img class = center src='/static/experiments/beast_fmri_test/images/redT.png'></img>	stop	2050.0	2.0	20.0	stop	non-target	T	71,Green Button	89,Yellow Button	700.0	700.0	2050.0	2050.0	0.0	700.0	0.0	1.0	stop_stim
96500.614384634668	1776.38561537	n/a	-1	-1	2750	1776.38561537	stim	stop-signal	45	119535	0.0-4.20-1.20	beast_fmri_test	303	n/a	n/a	<img class = center src='/static/experiments/beast_fmri_test/images/T.png'></img>	71,89	2750.0	test	<img class = center src='/static/experiments/beast_fmri_test/images/redT.png'></img>	stop	2050.0	2.0	20.0	stop	non-target	T	71,Green Button	89,Yellow Button	700.0	700.0	2050.0	2050.0	0.0	700.0	0.0	1.0	ITI
100564.0	500.0	n/a	-1	-1	500	0.0	fixation	poldrack-single-stim	46	121822	0.0-4.21-0.21	beast_fmri_test	303	n/a	n/a	<div class = centerbox><div class = fixation>+</div></div>	none	500.0	test	n/a	n/a	n/a	n/a	n/a	n/a	n/a	n/a	n/a	n/a	n/a	n/a	n/a	n/a	n/a	n/a	n/a	n/a	fixation
99724.430440493583	2750.0	n/a	1237	71	2750	842.569559506	stim	stop-signal	47	124575	0.0-4.21-1.21	beast_fmri_test	303	n/a	n/a	<img class = center src='/static/experiments/beast_fmri_test/images/B.png'></img>	71,89	2750.0	test	<img class = center src='/static/experiments/beast_fmri_test/images/redB.png'></img>	go	2050.0	2.0	21.0	go	target	B	71,Green Button	89,Yellow Button	700.0	750.0	2050.0	2050.0	1.0	700.0	1.0	n/a	go_stim
102474.43044049358	842.569559506	n/a	1237	71	2750	842.569559506	stim	stop-signal	47	124575	0.0-4.21-1.21	beast_fmri_test	303	n/a	n/a	<img class = center src='/static/experiments/beast_fmri_test/images/B.png'></img>	71,89	2750.0	test	<img class = center src='/static/experiments/beast_fmri_test/images/redB.png'></img>	go	2050.0	2.0	21.0	go	target	B	71,Green Button	89,Yellow Button	700.0	750.0	2050.0	2050.0	1.0	700.0	1.0	n/a	ITI
104668.0	500.0	n/a	-1	-1	500	0.0	fixation	poldrack-single-stim	48	125926	0.0-4.22-0.22	beast_fmri_test	303	n/a	n/a	<div class = centerbox><div class = fixation>+</div></div>	none	500.0	test	n/a	n/a	n/a	n/a	n/a	n/a	n/a	n/a	n/a	n/a	n/a	n/a	n/a	n/a	n/a	n/a	n/a	n/a	fixation
104480.29007663143	750.0	n/a	-1	-1	2750	188.709923369	stim	stop-signal	49	128677	0.0-4.22-1.22	beast_fmri_test	303	n/a	n/a	<img class = center src='/static/experiments/beast_fmri_test/images/B.png'></img>	71,89	2750.0	test	<img class = center src='/static/experiments/beast_fmri_test/images/redB.png'></img>	stop	2000.0	2.0	22.0	stop	non-target	B	71,Green Button	89,Yellow Button	700.0	750.0	2050.0	2000.0	0.0	750.0	0.0	1.0	go_stim
106480.29007663143	2000.0	n/a	-1	-1	2750	188.709923369	stim	stop-signal	49	128677	0.0-4.22-1.22	beast_fmri_test	303	n/a	n/a	<img class = center src='/static/experiments/beast_fmri_test/images/B.png'></img>	71,89	2750.0	test	<img class = center src='/static/experiments/beast_fmri_test/images/redB.png'></img>	stop	2000.0	2.0	22.0	stop	non-target	B	71,Green Button	89,Yellow Button	700.0	750.0	2050.0	2000.0	0.0	750.0	0.0	1.0	stop_stim
107230.29007663143	188.709923369	n/a	-1	-1	2750	188.709923369	stim	stop-signal	49	128677	0.0-4.22-1.22	beast_fmri_test	303	n/a	n/a	<img class = center src='/static/experiments/beast_fmri_test/images/B.png'></img>	71,89	2750.0	test	<img class = center src='/static/experiments/beast_fmri_test/images/redB.png'></img>	stop	2000.0	2.0	22.0	stop	non-target	B	71,Green Button	89,Yellow Button	700.0	750.0	2050.0	2000.0	0.0	750.0	0.0	1.0	ITI
108116.0	500.0	n/a	-1	-1	500	0.0	fixation	poldrack-single-stim	50	129374	0.0-4.23-0.23	beast_fmri_test	303	n/a	n/a	<div class = centerbox><div class = fixation>+</div></div>	none	500.0	test	n/a	n/a	n/a	n/a	n/a	n/a	n/a	n/a	n/a	n/a	n/a	n/a	n/a	n/a	n/a	n/a	n/a	n/a	fixation
107408.77652583999	2750.0	n/a	1173	89	2750	710.22347416	stim	stop-signal	51	132127	0.0-4.23-1.23	beast_fmri_test	303	2.1781333333333333	t	<img class = center src='/static/experiments/beast_fmri_test/images/D.png'></img>	71,89	2750.0	test	<img class = center src='/static/experiments/beast_fmri_test/images/redD.png'></img>	go	1950.0	2.0	23.0	go	non-target	D	71,Green Button	89,Yellow Button	700.0	800.0	2050.0	1950.0	1.0	800.0	1.0	n/a	go_stim
110158.77652583999	710.22347416	n/a	1173	89	2750	710.22347416	stim	stop-signal	51	132127	0.0-4.23-1.23	beast_fmri_test	303	2.1781333333333333	t	<img class = center src='/static/experiments/beast_fmri_test/images/D.png'></img>	71,89	2750.0	test	<img class = center src='/static/experiments/beast_fmri_test/images/redD.png'></img>	go	1950.0	2.0	23.0	go	non-target	D	71,Green Button	89,Yellow Button	700.0	800.0	2050.0	1950.0	1.0	800.0	1.0	n/a	ITI
112087.0	500.0	n/a	-1	-1	500	0.0	fixation	poldrack-single-stim	52	133345	0.0-4.24-0.24	beast_fmri_test	303	n/a	n/a	<div class = centerbox><div class = fixation>+</div></div>	none	500.0	test	n/a	n/a	n/a	n/a	n/a	n/a	n/a	n/a	n/a	n/a	n/a	n/a	n/a	n/a	n/a	n/a	n/a	n/a	fixation
110743.34501033221	800.0	n/a	-1	-1	2750	1346.65498967	stim	stop-signal	53	136098	0.0-4.24-1.24	beast_fmri_test	303	n/a	n/a	<img class = center src='/static/experiments/beast_fmri_test/images/D.png'></img>	71,89	2750.0	test	<img class = center src='/static/experiments/beast_fmri_test/images/redD.png'></img>	stop	1950.0	2.0	24.0	stop	non-target	D	71,Green Button	89,Yellow Button	700.0	800.0	2050.0	1950.0	0.0	800.0	0.0	1.0	go_stim
112693.34501033221	1950.0	n/a	-1	-1	2750	1346.65498967	stim	stop-signal	53	136098	0.0-4.24-1.24	beast_fmri_test	303	n/a	n/a	<img class = center src='/static/experiments/beast_fmri_test/images/D.png'></img>	71,89	2750.0	test	<img class = center src='/static/experiments/beast_fmri_test/images/redD.png'></img>	stop	1950.0	2.0	24.0	stop	non-target	D	71,Green Button	89,Yellow Button	700.0	800.0	2050.0	1950.0	0.0	800.0	0.0	1.0	stop_stim
113493.34501033221	1346.65498967	n/a	-1	-1	2750	1346.65498967	stim	stop-signal	53	136098	0.0-4.24-1.24	beast_fmri_test	303	n/a	n/a	<img class = center src='/static/experiments/beast_fmri_test/images/D.png'></img>	71,89	2750.0	test	<img class = center src='/static/experiments/beast_fmri_test/images/redD.png'></img>	stop	1950.0	2.0	24.0	stop	non-target	D	71,Green Button	89,Yellow Button	700.0	800.0	2050.0	1950.0	0.0	800.0	0.0	1.0	ITI
116694.0	500.0	n/a	-1	-1	500	0.0	fixation	poldrack-single-stim	54	137952	0.0-4.25-0.25	beast_fmri_test	303	n/a	n/a	<div class = centerbox><div class = fixation>+</div></div>	none	500.0	test	n/a	n/a	n/a	n/a	n/a	n/a	n/a	n/a	n/a	n/a	n/a	n/a	n/a	n/a	n/a	n/a	n/a	n/a	fixation
116661.63154157661	2750.0	n/a	1388	89	2750	33.3684584234	stim	stop-signal	55	140703	0.0-4.25-1.25	beast_fmri_test	303	n/a	n/a	<img class = center src='/static/experiments/beast_fmri_test/images/B.png'></img>	71,89	2750.0	test	<img class = center src='/static/experiments/beast_fmri_test/images/redB.png'></img>	go	1900.0	2.0	25.0	go	non-target	B	71,Green Button	89,Yellow Button	700.0	850.0	2050.0	1900.0	1.0	850.0	1.0	n/a	go_stim
119411.63154157661	33.3684584234	n/a	1388	89	2750	33.3684584234	stim	stop-signal	55	140703	0.0-4.25-1.25	beast_fmri_test	303	n/a	n/a	<img class = center src='/static/experiments/beast_fmri_test/images/B.png'></img>	71,89	2750.0	test	<img class = center src='/static/experiments/beast_fmri_test/images/redB.png'></img>	go	1900.0	2.0	25.0	go	non-target	B	71,Green Button	89,Yellow Button	700.0	850.0	2050.0	1900.0	1.0	850.0	1.0	n/a	ITI
119988.0	500.0	n/a	-1	-1	500	0.0	fixation	poldrack-single-stim	56	141246	0.0-4.26-0.26	beast_fmri_test	303	n/a	n/a	<div class = centerbox><div class = fixation>+</div></div>	none	500.0	test	n/a	n/a	n/a	n/a	n/a	n/a	n/a	n/a	n/a	n/a	n/a	n/a	n/a	n/a	n/a	n/a	n/a	n/a	fixation
119906.24522063023	2750.0	n/a	1180	89	2750	83.7547793698	stim	stop-signal	57	143998	0.0-4.26-1.26	beast_fmri_test	303	2.3706833333333335,2.3820166666666664	t,t	<img class = center src='/static/experiments/beast_fmri_test/images/T.png'></img>	71,89	2750.0	test	<img class = center src='/static/experiments/beast_fmri_test/images/redT.png'></img>	go	1900.0	2.0	26.0	go	non-target	T	71,Green Button	89,Yellow Button	700.0	850.0	2050.0	1900.0	1.0	850.0	1.0	n/a	go_stim
122656.24522063023	83.7547793698	n/a	1180	89	2750	83.7547793698	stim	stop-signal	57	143998	0.0-4.26-1.26	beast_fmri_test	303	2.3706833333333335,2.3820166666666664	t,t	<img class = center src='/static/experiments/beast_fmri_test/images/T.png'></img>	71,89	2750.0	test	<img class = center src='/static/experiments/beast_fmri_test/images/redT.png'></img>	go	1900.0	2.0	26.0	go	non-target	T	71,Green Button	89,Yellow Button	700.0	850.0	2050.0	1900.0	1.0	850.0	1.0	n/a	ITI
123333.0	500.0	n/a	-1	-1	500	0.0	fixation	poldrack-single-stim	58	144591	0.0-4.27-0.27	beast_fmri_test	303	n/a	n/a	<div class = centerbox><div class = fixation>+</div></div>	none	500.0	test	n/a	n/a	n/a	n/a	n/a	n/a	n/a	n/a	n/a	n/a	n/a	n/a	n/a	n/a	n/a	n/a	n/a	n/a	fixation
122675.04458536871	850.0	n/a	-1	-1	2750	659.955414631	stim	stop-signal	59	147343	0.0-4.27-1.27	beast_fmri_test	303	n/a	n/a	<img class = center src='/static/experiments/beast_fmri_test/images/D.png'></img>	71,89	2750.0	test	<img class = center src='/static/experiments/beast_fmri_test/images/redD.png'></img>	stop	1900.0	2.0	27.0	stop	non-target	D	71,Green Button	89,Yellow Button	700.0	850.0	2050.0	1900.0	0.0	850.0	0.0	1.0	go_stim
124575.04458536871	1900.0	n/a	-1	-1	2750	659.955414631	stim	stop-signal	59	147343	0.0-4.27-1.27	beast_fmri_test	303	n/a	n/a	<img class = center src='/static/experiments/beast_fmri_test/images/D.png'></img>	71,89	2750.0	test	<img class = center src='/static/experiments/beast_fmri_test/images/redD.png'></img>	stop	1900.0	2.0	27.0	stop	non-target	D	71,Green Button	89,Yellow Button	700.0	850.0	2050.0	1900.0	0.0	850.0	0.0	1.0	stop_stim
125425.04458536871	659.955414631	n/a	-1	-1	2750	659.955414631	stim	stop-signal	59	147343	0.0-4.27-1.27	beast_fmri_test	303	n/a	n/a	<img class = center src='/static/experiments/beast_fmri_test/images/D.png'></img>	71,89	2750.0	test	<img class = center src='/static/experiments/beast_fmri_test/images/redD.png'></img>	stop	1900.0	2.0	27.0	stop	non-target	D	71,Green Button	89,Yellow Button	700.0	850.0	2050.0	1900.0	0.0	850.0	0.0	1.0	ITI
127254.0	500.0	n/a	-1	-1	500	0.0	fixation	poldrack-single-stim	60	148512	0.0-4.28-0.28	beast_fmri_test	303	n/a	n/a	<div class = centerbox><div class = fixation>+</div></div>	none	500.0	test	n/a	n/a	n/a	n/a	n/a	n/a	n/a	n/a	n/a	n/a	n/a	n/a	n/a	n/a	n/a	n/a	n/a	n/a	fixation
122889.35859225559	2750.0	n/a	1625	89	2750	4366.64140774	stim	stop-signal	61	151264	0.0-4.28-1.28	beast_fmri_test	303	2.563266666666667,2.585933333333333	t,t	<img class = center src='/static/experiments/beast_fmri_test/images/P.png'></img>	71,89	2750.0	test	<img class = center src='/static/experiments/beast_fmri_test/images/redP.png'></img>	go	1850.0	2.0	28.0	go	non-target	P	71,Green Button	89,Yellow Button	700.0	900.0	2050.0	1850.0	1.0	900.0	1.0	n/a	go_stim
125639.35859225559	4366.64140774	n/a	1625	89	2750	4366.64140774	stim	stop-signal	61	151264	0.0-4.28-1.28	beast_fmri_test	303	2.563266666666667,2.585933333333333	t,t	<img class = center src='/static/experiments/beast_fmri_test/images/P.png'></img>	71,89	2750.0	test	<img class = center src='/static/experiments/beast_fmri_test/images/redP.png'></img>	go	1850.0	2.0	28.0	go	non-target	P	71,Green Button	89,Yellow Button	700.0	900.0	2050.0	1850.0	1.0	900.0	1.0	n/a	ITI
134880.0	500.0	n/a	-1	-1	500	0.0	fixation	poldrack-single-stim	62	156138	0.0-4.29-0.29	beast_fmri_test	303	2.59725	t	<div class = centerbox><div class = fixation>+</div></div>	none	500.0	test	n/a	n/a	n/a	n/a	n/a	n/a	n/a	n/a	n/a	n/a	n/a	n/a	n/a	n/a	n/a	n/a	n/a	n/a	fixation
134449.08843849442	2750.0	n/a	1387	71	2750	431.911561506	stim	stop-signal	63	158889	0.0-4.29-1.29	beast_fmri_test	303	2.6085833333333333	t	<img class = center src='/static/experiments/beast_fmri_test/images/D.png'></img>	71,89	2750.0	test	<img class = center src='/static/experiments/beast_fmri_test/images/redD.png'></img>	go	2050.0	2.0	29.0	go	target	D	71,Green Button	89,Yellow Button	700.0	900.0	2050.0	1850.0	1.0	700.0	1.0	n/a	go_stim
137199.08843849442	431.911561506	n/a	1387	71	2750	431.911561506	stim	stop-signal	63	158889	0.0-4.29-1.29	beast_fmri_test	303	2.6085833333333333	t	<img class = center src='/static/experiments/beast_fmri_test/images/D.png'></img>	71,89	2750.0	test	<img class = center src='/static/experiments/beast_fmri_test/images/redD.png'></img>	go	2050.0	2.0	29.0	go	target	D	71,Green Button	89,Yellow Button	700.0	900.0	2050.0	1850.0	1.0	700.0	1.0	n/a	ITI
138574.0	500.0	n/a	-1	-1	500	0.0	fixation	poldrack-single-stim	64	159832	0.0-4.30-0.30	beast_fmri_test	303	n/a	n/a	<div class = centerbox><div class = fixation>+</div></div>	none	500.0	test	n/a	n/a	n/a	n/a	n/a	n/a	n/a	n/a	n/a	n/a	n/a	n/a	n/a	n/a	n/a	n/a	n/a	n/a	fixation
137675.59337069184	900.0	n/a	-1	-1	2750	900.406629308	stim	stop-signal	65	162584	0.0-4.30-1.30	beast_fmri_test	303	n/a	n/a	<img class = center src='/static/experiments/beast_fmri_test/images/D.png'></img>	71,89	2750.0	test	<img class = center src='/static/experiments/beast_fmri_test/images/redD.png'></img>	stop	1850.0	2.0	30.0	stop	non-target	D	71,Green Button	89,Yellow Button	700.0	900.0	2050.0	1850.0	0.0	900.0	0.0	1.0	go_stim
139525.59337069184	1850.0	n/a	-1	-1	2750	900.406629308	stim	stop-signal	65	162584	0.0-4.30-1.30	beast_fmri_test	303	n/a	n/a	<img class = center src='/static/experiments/beast_fmri_test/images/D.png'></img>	71,89	2750.0	test	<img class = center src='/static/experiments/beast_fmri_test/images/redD.png'></img>	stop	1850.0	2.0	30.0	stop	non-target	D	71,Green Button	89,Yellow Button	700.0	900.0	2050.0	1850.0	0.0	900.0	0.0	1.0	stop_stim
140425.59337069184	900.406629308	n/a	-1	-1	2750	900.406629308	stim	stop-signal	65	162584	0.0-4.30-1.30	beast_fmri_test	303	n/a	n/a	<img class = center src='/static/experiments/beast_fmri_test/images/D.png'></img>	71,89	2750.0	test	<img class = center src='/static/experiments/beast_fmri_test/images/redD.png'></img>	stop	1850.0	2.0	30.0	stop	non-target	D	71,Green Button	89,Yellow Button	700.0	900.0	2050.0	1850.0	0.0	900.0	0.0	1.0	ITI
142736.0	500.0	n/a	-1	-1	500	0.0	fixation	poldrack-single-stim	66	163994	0.0-4.31-0.31	beast_fmri_test	303	n/a	n/a	<div class = centerbox><div class = fixation>+</div></div>	none	500.0	test	n/a	n/a	n/a	n/a	n/a	n/a	n/a	n/a	n/a	n/a	n/a	n/a	n/a	n/a	n/a	n/a	n/a	n/a	fixation
142025.35447270796	700.0	n/a	-1	-1	2750	712.645527292	stim	stop-signal	67	166746	0.0-4.31-1.31	beast_fmri_test	303	2.7671833333333336	t	<img class = center src='/static/experiments/beast_fmri_test/images/D.png'></img>	71,89	2750.0	test	<img class = center src='/static/experiments/beast_fmri_test/images/redD.png'></img>	stop	2050.0	2.0	31.0	stop	target	D	71,Green Button	89,Yellow Button	700.0	950.0	2050.0	1850.0	0.0	700.0	0.0	1.0	go_stim
144075.35447270796	2050.0	n/a	-1	-1	2750	712.645527292	stim	stop-signal	67	166746	0.0-4.31-1.31	beast_fmri_test	303	2.7671833333333336	t	<img class = center src='/static/experiments/beast_fmri_test/images/D.png'></img>	71,89	2750.0	test	<img class = center src='/static/experiments/beast_fmri_test/images/redD.png'></img>	stop	2050.0	2.0	31.0	stop	target	D	71,Green Button	89,Yellow Button	700.0	950.0	2050.0	1850.0	0.0	700.0	0.0	1.0	stop_stim
144775.35447270796	712.645527292	n/a	-1	-1	2750	712.645527292	stim	stop-signal	67	166746	0.0-4.31-1.31	beast_fmri_test	303	2.7671833333333336	t	<img class = center src='/static/experiments/beast_fmri_test/images/D.png'></img>	71,89	2750.0	test	<img class = center src='/static/experiments/beast_fmri_test/images/redD.png'></img>	stop	2050.0	2.0	31.0	stop	target	D	71,Green Button	89,Yellow Button	700.0	950.0	2050.0	1850.0	0.0	700.0	0.0	1.0	ITI
146712.0	500.0	n/a	-1	-1	500	0.0	fixation	poldrack-single-stim	68	167970	0.0-4.32-0.32	beast_fmri_test	303	n/a	n/a	<div class = centerbox><div class = fixation>+</div></div>	none	500.0	test	n/a	n/a	n/a	n/a	n/a	n/a	n/a	n/a	n/a	n/a	n/a	n/a	n/a	n/a	n/a	n/a	n/a	n/a	fixation
144686.75121475942	2750.0	n/a	1432	89	2750	2027.24878524	stim	stop-signal	69	170722	0.0-4.32-1.32	beast_fmri_test	303	n/a	n/a	<img class = center src='/static/experiments/beast_fmri_test/images/V.png'></img>	71,89	2750.0	test	<img class = center src='/static/experiments/beast_fmri_test/images/redV.png'></img>	go	1800.0	2.0	32.0	go	non-target	V	71,Green Button	89,Yellow Button	750.0	950.0	2050.0	1800.0	1.0	950.0	1.0	n/a	go_stim
147436.75121475942	2027.24878524	n/a	1432	89	2750	2027.24878524	stim	stop-signal	69	170722	0.0-4.32-1.32	beast_fmri_test	303	n/a	n/a	<img class = center src='/static/experiments/beast_fmri_test/images/V.png'></img>	71,89	2750.0	test	<img class = center src='/static/experiments/beast_fmri_test/images/redV.png'></img>	go	1800.0	2.0	32.0	go	non-target	V	71,Green Button	89,Yellow Button	750.0	950.0	2050.0	1800.0	1.0	950.0	1.0	n/a	ITI
152001.0	500.0	n/a	-1	-1	500	0.0	fixation	poldrack-single-stim	70	173259	0.0-4.33-0.33	beast_fmri_test	303	n/a	n/a	<div class = centerbox><div class = fixation>+</div></div>	none	500.0	test	n/a	n/a	n/a	n/a	n/a	n/a	n/a	n/a	n/a	n/a	n/a	n/a	n/a	n/a	n/a	n/a	n/a	n/a	fixation
151501.12172615743	2750.0	n/a	1311	89	2750	499.878273843	stim	stop-signal	71	176009	0.0-4.33-1.33	beast_fmri_test	303	2.9370833333333333	t	<img class = center src='/static/experiments/beast_fmri_test/images/B.png'></img>	71,89	2750.0	test	<img class = center src='/static/experiments/beast_fmri_test/images/redB.png'></img>	go	1800.0	2.0	33.0	go	non-target	B	71,Green Button	89,Yellow Button	750.0	950.0	2050.0	1800.0	1.0	950.0	1.0	n/a	go_stim
154251.12172615743	499.878273843	n/a	1311	89	2750	499.878273843	stim	stop-signal	71	176009	0.0-4.33-1.33	beast_fmri_test	303	2.9370833333333333	t	<img class = center src='/static/experiments/beast_fmri_test/images/B.png'></img>	71,89	2750.0	test	<img class = center src='/static/experiments/beast_fmri_test/images/redB.png'></img>	go	1800.0	2.0	33.0	go	non-target	B	71,Green Button	89,Yellow Button	750.0	950.0	2050.0	1800.0	1.0	950.0	1.0	n/a	ITI
155764.0	500.0	n/a	-1	-1	500	0.0	fixation	poldrack-single-stim	72	177022	0.0-4.34-0.34	beast_fmri_test	303	2.9484166666666667	t	<div class = centerbox><div class = fixation>+</div></div>	none	500.0	test	n/a	n/a	n/a	n/a	n/a	n/a	n/a	n/a	n/a	n/a	n/a	n/a	n/a	n/a	n/a	n/a	n/a	n/a	fixation
153691.75310633876	2750.0	n/a	1251	71	2750	2282.24689366	stim	stop-signal	73	179982	0.0-4.34-1.34	beast_fmri_test	303	2.960566666666667	t	<img class = center src='/static/experiments/beast_fmri_test/images/V.png'></img>	71,89	2750.0	test	<img class = center src='/static/experiments/beast_fmri_test/images/redV.png'></img>	go	2000.0	2.0	34.0	go	target	V	71,Green Button	89,Yellow Button	750.0	950.0	2000.0	1800.0	1.0	750.0	1.0	n/a	go_stim
156441.75310633876	2282.24689366	n/a	1251	71	2750	2282.24689366	stim	stop-signal	73	179982	0.0-4.34-1.34	beast_fmri_test	303	2.960566666666667	t	<img class = center src='/static/experiments/beast_fmri_test/images/V.png'></img>	71,89	2750.0	test	<img class = center src='/static/experiments/beast_fmri_test/images/redV.png'></img>	go	2000.0	2.0	34.0	go	target	V	71,Green Button	89,Yellow Button	750.0	950.0	2000.0	1800.0	1.0	750.0	1.0	n/a	ITI
161517.0	500.0	n/a	-1	-1	500	0.0	fixation	poldrack-single-stim	74	182775	0.0-4.35-0.35	beast_fmri_test	303	n/a	n/a	<div class = centerbox><div class = fixation>+</div></div>	none	500.0	test	n/a	n/a	n/a	n/a	n/a	n/a	n/a	n/a	n/a	n/a	n/a	n/a	n/a	n/a	n/a	n/a	n/a	n/a	fixation
161279.02657074825	2750.0	n/a	1495	89	2750	240.973429252	stim	stop-signal	75	185528	0.0-4.35-1.35	beast_fmri_test	303	n/a	n/a	<img class = center src='/static/experiments/beast_fmri_test/images/P.png'></img>	71,89	2750.0	test	<img class = center src='/static/experiments/beast_fmri_test/images/redP.png'></img>	go	1800.0	2.0	35.0	go	non-target	P	71,Green Button	89,Yellow Button	750.0	950.0	2000.0	1800.0	1.0	950.0	1.0	n/a	go_stim
164029.02657074825	240.973429252	n/a	1495	89	2750	240.973429252	stim	stop-signal	75	185528	0.0-4.35-1.35	beast_fmri_test	303	n/a	n/a	<img class = center src='/static/experiments/beast_fmri_test/images/P.png'></img>	71,89	2750.0	test	<img class = center src='/static/experiments/beast_fmri_test/images/redP.png'></img>	go	1800.0	2.0	35.0	go	non-target	P	71,Green Button	89,Yellow Button	750.0	950.0	2000.0	1800.0	1.0	950.0	1.0	n/a	ITI
165018.0	500.0	n/a	-1	-1	500	0.0	fixation	poldrack-single-stim	76	186276	0.0-4.36-0.36	beast_fmri_test	303	n/a	n/a	<div class = centerbox><div class = fixation>+</div></div>	none	500.0	test	n/a	n/a	n/a	n/a	n/a	n/a	n/a	n/a	n/a	n/a	n/a	n/a	n/a	n/a	n/a	n/a	n/a	n/a	fixation
164777.15693126657	950.0	n/a	-1	-1	2750	241.843068733	stim	stop-signal	77	189027	0.0-4.36-1.36	beast_fmri_test	303	n/a	n/a	<img class = center src='/static/experiments/beast_fmri_test/images/P.png'></img>	71,89	2750.0	test	<img class = center src='/static/experiments/beast_fmri_test/images/redP.png'></img>	stop	1800.0	2.0	36.0	stop	non-target	P	71,Green Button	89,Yellow Button	750.0	950.0	2000.0	1800.0	0.0	950.0	0.0	1.0	go_stim
166577.15693126657	1800.0	n/a	-1	-1	2750	241.843068733	stim	stop-signal	77	189027	0.0-4.36-1.36	beast_fmri_test	303	n/a	n/a	<img class = center src='/static/experiments/beast_fmri_test/images/P.png'></img>	71,89	2750.0	test	<img class = center src='/static/experiments/beast_fmri_test/images/redP.png'></img>	stop	1800.0	2.0	36.0	stop	non-target	P	71,Green Button	89,Yellow Button	750.0	950.0	2000.0	1800.0	0.0	950.0	0.0	1.0	stop_stim
167527.15693126657	241.843068733	n/a	-1	-1	2750	241.843068733	stim	stop-signal	77	189027	0.0-4.36-1.36	beast_fmri_test	303	n/a	n/a	<img class = center src='/static/experiments/beast_fmri_test/images/P.png'></img>	71,89	2750.0	test	<img class = center src='/static/experiments/beast_fmri_test/images/redP.png'></img>	stop	1800.0	2.0	36.0	stop	non-target	P	71,Green Button	89,Yellow Button	750.0	950.0	2000.0	1800.0	0.0	950.0	0.0	1.0	ITI
168522.0	500.0	n/a	-1	-1	500	0.0	fixation	poldrack-single-stim	78	189780	0.0-4.37-0.37	beast_fmri_test	303	n/a	n/a	<div class = centerbox><div class = fixation>+</div></div>	none	500.0	test	n/a	n/a	n/a	n/a	n/a	n/a	n/a	n/a	n/a	n/a	n/a	n/a	n/a	n/a	n/a	n/a	n/a	n/a	fixation
168392.14611553203	2750.0	n/a	1521	89	2750	131.853884468	stim	stop-signal	79	192532	0.0-4.37-1.37	beast_fmri_test	303	3.16365	t	<img class = center src='/static/experiments/beast_fmri_test/images/B.png'></img>	71,89	2750.0	test	<img class = center src='/static/experiments/beast_fmri_test/images/redB.png'></img>	go	1750.0	2.0	37.0	go	non-target	B	71,Green Button	89,Yellow Button	750.0	1000.0	2000.0	1750.0	1.0	1000.0	1.0	n/a	go_stim
171142.14611553203	131.853884468	n/a	1521	89	2750	131.853884468	stim	stop-signal	79	192532	0.0-4.37-1.37	beast_fmri_test	303	3.16365	t	<img class = center src='/static/experiments/beast_fmri_test/images/B.png'></img>	71,89	2750.0	test	<img class = center src='/static/experiments/beast_fmri_test/images/redB.png'></img>	go	1750.0	2.0	37.0	go	non-target	B	71,Green Button	89,Yellow Button	750.0	1000.0	2000.0	1750.0	1.0	1000.0	1.0	n/a	ITI
171918.0	500.0	n/a	-1	-1	500	0.0	fixation	poldrack-single-stim	80	193176	0.0-4.38-0.38	beast_fmri_test	303	n/a	n/a	<div class = centerbox><div class = fixation>+</div></div>	none	500.0	test	n/a	n/a	n/a	n/a	n/a	n/a	n/a	n/a	n/a	n/a	n/a	n/a	n/a	n/a	n/a	n/a	n/a	n/a	fixation
171218.0270722156	2750.0	n/a	1721	89	2750	704.972927784	stim	stop-signal	81	195931	0.0-4.38-1.38	beast_fmri_test	303	n/a	n/a	<img class = center src='/static/experiments/beast_fmri_test/images/V.png'></img>	71,89	2750.0	test	<img class = center src='/static/experiments/beast_fmri_test/images/redV.png'></img>	go	1750.0	2.0	38.0	go	non-target	V	71,Green Button	89,Yellow Button	750.0	1000.0	2000.0	1750.0	1.0	1000.0	1.0	n/a	go_stim
173968.0270722156	704.972927784	n/a	1721	89	2750	704.972927784	stim	stop-signal	81	195931	0.0-4.38-1.38	beast_fmri_test	303	n/a	n/a	<img class = center src='/static/experiments/beast_fmri_test/images/V.png'></img>	71,89	2750.0	test	<img class = center src='/static/experiments/beast_fmri_test/images/redV.png'></img>	go	1750.0	2.0	38.0	go	non-target	V	71,Green Button	89,Yellow Button	750.0	1000.0	2000.0	1750.0	1.0	1000.0	1.0	n/a	ITI
175888.0	500.0	n/a	-1	-1	500	0.0	fixation	poldrack-single-stim	82	197146	0.0-4.39-0.39	beast_fmri_test	303	n/a	n/a	<div class = centerbox><div class = fixation>+</div></div>	none	500.0	test	n/a	n/a	n/a	n/a	n/a	n/a	n/a	n/a	n/a	n/a	n/a	n/a	n/a	n/a	n/a	n/a	n/a	n/a	fixation
175323.09818326539	2750.0	n/a	1475	89	2750	566.901816735	stim	stop-signal	83	199898	0.0-4.39-1.39	beast_fmri_test	303	3.3222666666666667	t	<img class = center src='/static/experiments/beast_fmri_test/images/P.png'></img>	71,89	2750.0	test	<img class = center src='/static/experiments/beast_fmri_test/images/redP.png'></img>	go	1750.0	2.0	39.0	go	non-target	P	71,Green Button	89,Yellow Button	750.0	1000.0	2000.0	1750.0	1.0	1000.0	1.0	n/a	go_stim
178073.09818326539	566.901816735	n/a	1475	89	2750	566.901816735	stim	stop-signal	83	199898	0.0-4.39-1.39	beast_fmri_test	303	3.3222666666666667	t	<img class = center src='/static/experiments/beast_fmri_test/images/P.png'></img>	71,89	2750.0	test	<img class = center src='/static/experiments/beast_fmri_test/images/redP.png'></img>	go	1750.0	2.0	39.0	go	non-target	P	71,Green Button	89,Yellow Button	750.0	1000.0	2000.0	1750.0	1.0	1000.0	1.0	n/a	ITI
179719.0	500.0	n/a	-1	-1	500	0.0	fixation	poldrack-single-stim	84	200977	0.0-4.40-0.40	beast_fmri_test	303	n/a	n/a	<div class = centerbox><div class = fixation>+</div></div>	none	500.0	test	n/a	n/a	n/a	n/a	n/a	n/a	n/a	n/a	n/a	n/a	n/a	n/a	n/a	n/a	n/a	n/a	n/a	n/a	fixation
179716.48276453759	2750.0	n/a	1243	71	2750	3.5172354624	stim	stop-signal	85	203728	0.0-4.40-1.40	beast_fmri_test	303	n/a	n/a	<img class = center src='/static/experiments/beast_fmri_test/images/V.png'></img>	71,89	2750.0	test	<img class = center src='/static/experiments/beast_fmri_test/images/redV.png'></img>	go	2000.0	2.0	40.0	go	target	V	71,Green Button	89,Yellow Button	750.0	1000.0	2000.0	1750.0	1.0	750.0	1.0	n/a	go_stim
182466.48276453759	3.5172354624	n/a	1243	71	2750	3.5172354624	stim	stop-signal	85	203728	0.0-4.40-1.40	beast_fmri_test	303	n/a	n/a	<img class = center src='/static/experiments/beast_fmri_test/images/V.png'></img>	71,89	2750.0	test	<img class = center src='/static/experiments/beast_fmri_test/images/redV.png'></img>	go	2000.0	2.0	40.0	go	target	V	71,Green Button	89,Yellow Button	750.0	1000.0	2000.0	1750.0	1.0	750.0	1.0	n/a	ITI
182987.0	500.0	n/a	-1	-1	500	0.0	fixation	poldrack-single-stim	86	204245	0.0-4.41-0.41	beast_fmri_test	303	n/a	n/a	<div class = centerbox><div class = fixation>+</div></div>	none	500.0	test	n/a	n/a	n/a	n/a	n/a	n/a	n/a	n/a	n/a	n/a	n/a	n/a	n/a	n/a	n/a	n/a	n/a	n/a	fixation
181033.92049437205	2750.0	n/a	1757	89	2750	1955.07950563	stim	stop-signal	87	206997	0.0-4.41-1.41	beast_fmri_test	303	n/a	n/a	<img class = center src='/static/experiments/beast_fmri_test/images/B.png'></img>	71,89	2750.0	test	<img class = center src='/static/experiments/beast_fmri_test/images/redB.png'></img>	go	1750.0	2.0	41.0	go	non-target	B	71,Green Button	89,Yellow Button	750.0	1000.0	2000.0	1750.0	1.0	1000.0	1.0	n/a	go_stim
183783.92049437205	1955.07950563	n/a	1757	89	2750	1955.07950563	stim	stop-signal	87	206997	0.0-4.41-1.41	beast_fmri_test	303	n/a	n/a	<img class = center src='/static/experiments/beast_fmri_test/images/B.png'></img>	71,89	2750.0	test	<img class = center src='/static/experiments/beast_fmri_test/images/redB.png'></img>	go	1750.0	2.0	41.0	go	non-target	B	71,Green Button	89,Yellow Button	750.0	1000.0	2000.0	1750.0	1.0	1000.0	1.0	n/a	ITI
188206.0	500.0	n/a	-1	-1	500	0.0	fixation	poldrack-single-stim	88	209464	0.0-4.42-0.42	beast_fmri_test	303	n/a	n/a	<div class = centerbox><div class = fixation>+</div></div>	none	500.0	test	n/a	n/a	n/a	n/a	n/a	n/a	n/a	n/a	n/a	n/a	n/a	n/a	n/a	n/a	n/a	n/a	n/a	n/a	fixation
186255.81623888254	2750.0	n/a	1247	71	2750	1952.18376112	stim	stop-signal	89	212216	0.0-4.42-1.42	beast_fmri_test	303	n/a	n/a	<img class = center src='/static/experiments/beast_fmri_test/images/V.png'></img>	71,89	2750.0	test	<img class = center src='/static/experiments/beast_fmri_test/images/redV.png'></img>	go	2000.0	2.0	42.0	go	target	V	71,Green Button	89,Yellow Button	750.0	1000.0	2000.0	1750.0	1.0	750.0	1.0	n/a	go_stim
189005.81623888254	1952.18376112	n/a	1247	71	2750	1952.18376112	stim	stop-signal	89	212216	0.0-4.42-1.42	beast_fmri_test	303	n/a	n/a	<img class = center src='/static/experiments/beast_fmri_test/images/V.png'></img>	71,89	2750.0	test	<img class = center src='/static/experiments/beast_fmri_test/images/redV.png'></img>	go	2000.0	2.0	42.0	go	target	V	71,Green Button	89,Yellow Button	750.0	1000.0	2000.0	1750.0	1.0	750.0	1.0	n/a	ITI
193422.0	500.0	n/a	-1	-1	500	0.0	fixation	poldrack-single-stim	90	214680	0.0-4.43-0.43	beast_fmri_test	303	n/a	n/a	<div class = centerbox><div class = fixation>+</div></div>	none	500.0	test	n/a	n/a	n/a	n/a	n/a	n/a	n/a	n/a	n/a	n/a	n/a	n/a	n/a	n/a	n/a	n/a	n/a	n/a	fixation
192609.3490293861	2750.0	n/a	1500	71	2750	814.650970614	stim	stop-signal	91	217432	0.0-4.43-1.43	beast_fmri_test	303	n/a	n/a	<img class = center src='/static/experiments/beast_fmri_test/images/B.png'></img>	71,89	2750.0	test	<img class = center src='/static/experiments/beast_fmri_test/images/redB.png'></img>	go	2000.0	2.0	43.0	go	target	B	71,Green Button	89,Yellow Button	750.0	1000.0	2000.0	1750.0	1.0	750.0	1.0	n/a	go_stim
195359.3490293861	814.650970614	n/a	1500	71	2750	814.650970614	stim	stop-signal	91	217432	0.0-4.43-1.43	beast_fmri_test	303	n/a	n/a	<img class = center src='/static/experiments/beast_fmri_test/images/B.png'></img>	71,89	2750.0	test	<img class = center src='/static/experiments/beast_fmri_test/images/redB.png'></img>	go	2000.0	2.0	43.0	go	target	B	71,Green Button	89,Yellow Button	750.0	1000.0	2000.0	1750.0	1.0	750.0	1.0	n/a	ITI
197503.0	500.0	n/a	-1	-1	500	0.0	fixation	poldrack-single-stim	92	218761	0.0-4.44-0.44	beast_fmri_test	303	n/a	n/a	<div class = centerbox><div class = fixation>+</div></div>	none	500.0	test	n/a	n/a	n/a	n/a	n/a	n/a	n/a	n/a	n/a	n/a	n/a	n/a	n/a	n/a	n/a	n/a	n/a	n/a	fixation
197326.89365880381	2750.0	n/a	1271	89	2750	176.106341196	stim	stop-signal	93	221511	0.0-4.44-1.44	beast_fmri_test	303	3.6621	t	<img class = center src='/static/experiments/beast_fmri_test/images/D.png'></img>	71,89	2750.0	test	<img class = center src='/static/experiments/beast_fmri_test/images/redD.png'></img>	go	1750.0	2.0	44.0	go	non-target	D	71,Green Button	89,Yellow Button	750.0	1000.0	2000.0	1750.0	1.0	1000.0	1.0	n/a	go_stim
200076.89365880381	176.106341196	n/a	1271	89	2750	176.106341196	stim	stop-signal	93	221511	0.0-4.44-1.44	beast_fmri_test	303	3.6621	t	<img class = center src='/static/experiments/beast_fmri_test/images/D.png'></img>	71,89	2750.0	test	<img class = center src='/static/experiments/beast_fmri_test/images/redD.png'></img>	go	1750.0	2.0	44.0	go	non-target	D	71,Green Button	89,Yellow Button	750.0	1000.0	2000.0	1750.0	1.0	1000.0	1.0	n/a	ITI
200943.0	500.0	n/a	-1	-1	500	0.0	fixation	poldrack-single-stim	94	222201	0.0-4.45-0.45	beast_fmri_test	303	n/a	n/a	<div class = centerbox><div class = fixation>+</div></div>	none	500.0	test	n/a	n/a	n/a	n/a	n/a	n/a	n/a	n/a	n/a	n/a	n/a	n/a	n/a	n/a	n/a	n/a	n/a	n/a	fixation
199736.1457246496	2750.0	n/a	1382	89	2750	1207.85427535	stim	stop-signal	95	224952	0.0-4.45-1.45	beast_fmri_test	303	n/a	n/a	<img class = center src='/static/experiments/beast_fmri_test/images/T.png'></img>	71,89	2750.0	test	<img class = center src='/static/experiments/beast_fmri_test/images/redT.png'></img>	go	1750.0	2.0	45.0	go	non-target	T	71,Green Button	89,Yellow Button	750.0	1000.0	2000.0	1750.0	1.0	1000.0	1.0	n/a	go_stim
202486.1457246496	1207.85427535	n/a	1382	89	2750	1207.85427535	stim	stop-signal	95	224952	0.0-4.45-1.45	beast_fmri_test	303	n/a	n/a	<img class = center src='/static/experiments/beast_fmri_test/images/T.png'></img>	71,89	2750.0	test	<img class = center src='/static/experiments/beast_fmri_test/images/redT.png'></img>	go	1750.0	2.0	45.0	go	non-target	T	71,Green Button	89,Yellow Button	750.0	1000.0	2000.0	1750.0	1.0	1000.0	1.0	n/a	ITI
205413.0	500.0	n/a	-1	-1	500	0.0	fixation	poldrack-single-stim	96	226671	0.0-4.46-0.46	beast_fmri_test	303	n/a	n/a	<div class = centerbox><div class = fixation>+</div></div>	none	500.0	test	n/a	n/a	n/a	n/a	n/a	n/a	n/a	n/a	n/a	n/a	n/a	n/a	n/a	n/a	n/a	n/a	n/a	n/a	fixation
201555.71447176367	2750.0	n/a	1294	71	2750	3859.28552824	stim	stop-signal	97	229423	0.0-4.46-1.46	beast_fmri_test	303	n/a	n/a	<img class = center src='/static/experiments/beast_fmri_test/images/D.png'></img>	71,89	2750.0	test	<img class = center src='/static/experiments/beast_fmri_test/images/redD.png'></img>	go	2000.0	2.0	46.0	go	target	D	71,Green Button	89,Yellow Button	750.0	1000.0	2000.0	1750.0	1.0	750.0	1.0	n/a	go_stim
204305.71447176367	3859.28552824	n/a	1294	71	2750	3859.28552824	stim	stop-signal	97	229423	0.0-4.46-1.46	beast_fmri_test	303	n/a	n/a	<img class = center src='/static/experiments/beast_fmri_test/images/D.png'></img>	71,89	2750.0	test	<img class = center src='/static/experiments/beast_fmri_test/images/redD.png'></img>	go	2000.0	2.0	46.0	go	target	D	71,Green Button	89,Yellow Button	750.0	1000.0	2000.0	1750.0	1.0	750.0	1.0	n/a	ITI
227036.0	15000.0	n/a	-1	-1	15000	0.0	practice-no-stop-feedback	poldrack-single-stim	98	248294	0.0-5.0	beast_fmri_test	303	n/a	n/a	"<div class = ""centerbox""><p class = ""center-block-text"">Your delay is 3 trials.</p><p class = center-block-text>Please wait for the scanner to start the block</p></div>"	77	15000.0	n/a	n/a	n/a	n/a	n/a	n/a	n/a	n/a	n/a	n/a	n/a	n/a	n/a	n/a	n/a	n/a	n/a	n/a	n/a	practice-no-stop-feedback
227538.0	500.0	n/a	-1	-1	500	0.0	fixation	poldrack-single-stim	99	248796	0.0-6.0-0.0	beast_fmri_test	303	n/a	n/a	<div class = centerbox><div class = fixation>+</div></div>	none	500.0	test	n/a	n/a	n/a	n/a	n/a	n/a	n/a	n/a	n/a	n/a	n/a	n/a	n/a	n/a	n/a	n/a	n/a	n/a	fixation
227419.65607932134	2750.0	n/a	981	89	2750	121.343920679	stim	stop-signal	100	251549	0.0-6.0-1.0	beast_fmri_test	303	4.16055,4.171866666666666	t,t	<img class = center src='/static/experiments/beast_fmri_test/images/V.png'></img>	71,89	2750.0	test	<img class = center src='/static/experiments/beast_fmri_test/images/redV.png'></img>	go	-1.0	3.0	0.0	go	temp-non-target	V	71,Green Button	89,Yellow Button	750.0	1000.0	2000.0	1750.0	0.0	n/a	n/a	n/a	go_stim
230169.65607932134	121.343920679	n/a	981	89	2750	121.343920679	stim	stop-signal	100	251549	0.0-6.0-1.0	beast_fmri_test	303	4.16055,4.171866666666666	t,t	<img class = center src='/static/experiments/beast_fmri_test/images/V.png'></img>	71,89	2750.0	test	<img class = center src='/static/experiments/beast_fmri_test/images/redV.png'></img>	go	-1.0	3.0	0.0	go	temp-non-target	V	71,Green Button	89,Yellow Button	750.0	1000.0	2000.0	1750.0	0.0	n/a	n/a	n/a	ITI
230926.0	500.0	n/a	-1	-1	500	0.0	fixation	poldrack-single-stim	101	252184	0.0-6.1-0.1	beast_fmri_test	303	n/a	n/a	<div class = centerbox><div class = fixation>+</div></div>	none	500.0	test	n/a	n/a	n/a	n/a	n/a	n/a	n/a	n/a	n/a	n/a	n/a	n/a	n/a	n/a	n/a	n/a	n/a	n/a	fixation
228293.77147262875	2750.0	n/a	1034	89	2750	2634.22852737	stim	stop-signal	102	254936	0.0-6.1-1.1	beast_fmri_test	303	n/a	n/a	<img class = center src='/static/experiments/beast_fmri_test/images/V.png'></img>	71,89	2750.0	test	<img class = center src='/static/experiments/beast_fmri_test/images/redV.png'></img>	go	-1.0	3.0	1.0	go	temp-non-target	V	71,Green Button	89,Yellow Button	750.0	1000.0	2000.0	1750.0	0.0	n/a	n/a	n/a	go_stim
231043.77147262875	2634.22852737	n/a	1034	89	2750	2634.22852737	stim	stop-signal	102	254936	0.0-6.1-1.1	beast_fmri_test	303	n/a	n/a	<img class = center src='/static/experiments/beast_fmri_test/images/V.png'></img>	71,89	2750.0	test	<img class = center src='/static/experiments/beast_fmri_test/images/redV.png'></img>	go	-1.0	3.0	1.0	go	temp-non-target	V	71,Green Button	89,Yellow Button	750.0	1000.0	2000.0	1750.0	0.0	n/a	n/a	n/a	ITI
236824.0	500.0	n/a	-1	-1	500	0.0	fixation	poldrack-single-stim	103	258082	0.0-6.2-0.2	beast_fmri_test	303	n/a	n/a	<div class = centerbox><div class = fixation>+</div></div>	none	500.0	test	n/a	n/a	n/a	n/a	n/a	n/a	n/a	n/a	n/a	n/a	n/a	n/a	n/a	n/a	n/a	n/a	n/a	n/a	fixation
236624.6535680443	2750.0	n/a	1455	89	2750	201.346431956	stim	stop-signal	104	260834	0.0-6.2-1.2	beast_fmri_test	303	n/a	n/a	<img class = center src='/static/experiments/beast_fmri_test/images/P.png'></img>	71,89	2750.0	test	<img class = center src='/static/experiments/beast_fmri_test/images/redP.png'></img>	go	-1.0	3.0	2.0	go	temp-non-target	P	71,Green Button	89,Yellow Button	750.0	1000.0	2000.0	1750.0	0.0	n/a	n/a	n/a	go_stim
239374.6535680443	201.346431956	n/a	1455	89	2750	201.346431956	stim	stop-signal	104	260834	0.0-6.2-1.2	beast_fmri_test	303	n/a	n/a	<img class = center src='/static/experiments/beast_fmri_test/images/P.png'></img>	71,89	2750.0	test	<img class = center src='/static/experiments/beast_fmri_test/images/redP.png'></img>	go	-1.0	3.0	2.0	go	temp-non-target	P	71,Green Button	89,Yellow Button	750.0	1000.0	2000.0	1750.0	0.0	n/a	n/a	n/a	ITI
240292.0	500.0	n/a	-1	-1	500	0.0	fixation	poldrack-single-stim	105	261550	0.0-6.3-0.3	beast_fmri_test	303	n/a	n/a	<div class = centerbox><div class = fixation>+</div></div>	none	500.0	test	n/a	n/a	n/a	n/a	n/a	n/a	n/a	n/a	n/a	n/a	n/a	n/a	n/a	n/a	n/a	n/a	n/a	n/a	fixation
239602.09753996012	2750.0	n/a	1690	89	2750	690.90246004	stim	stop-signal	106	264301	0.0-6.3-1.3	beast_fmri_test	303	n/a	n/a	<img class = center src='/static/experiments/beast_fmri_test/images/B.png'></img>	71,89	2750.0	test	<img class = center src='/static/experiments/beast_fmri_test/images/redB.png'></img>	go	1750.0	3.0	3.0	go	non-target	B	71,Green Button	89,Yellow Button	750.0	1000.0	2000.0	1750.0	1.0	1000.0	1.0	n/a	go_stim
242352.09753996012	690.90246004	n/a	1690	89	2750	690.90246004	stim	stop-signal	106	264301	0.0-6.3-1.3	beast_fmri_test	303	n/a	n/a	<img class = center src='/static/experiments/beast_fmri_test/images/B.png'></img>	71,89	2750.0	test	<img class = center src='/static/experiments/beast_fmri_test/images/redB.png'></img>	go	1750.0	3.0	3.0	go	non-target	B	71,Green Button	89,Yellow Button	750.0	1000.0	2000.0	1750.0	1.0	1000.0	1.0	n/a	ITI
244248.0	500.0	n/a	-1	-1	500	0.0	fixation	poldrack-single-stim	107	265506	0.0-6.4-0.4	beast_fmri_test	303	n/a	n/a	<div class = centerbox><div class = fixation>+</div></div>	none	500.0	test	n/a	n/a	n/a	n/a	n/a	n/a	n/a	n/a	n/a	n/a	n/a	n/a	n/a	n/a	n/a	n/a	n/a	n/a	fixation
242449.90267538058	2750.0	n/a	1393	89	2750	1801.09732462	stim	stop-signal	108	268259	0.0-6.4-1.4	beast_fmri_test	303	4.500383333333334	t	<img class = center src='/static/experiments/beast_fmri_test/images/D.png'></img>	71,89	2750.0	test	<img class = center src='/static/experiments/beast_fmri_test/images/redD.png'></img>	go	1750.0	3.0	4.0	go	non-target	D	71,Green Button	89,Yellow Button	750.0	1000.0	2000.0	1750.0	1.0	1000.0	1.0	n/a	go_stim
245199.90267538058	1801.09732462	n/a	1393	89	2750	1801.09732462	stim	stop-signal	108	268259	0.0-6.4-1.4	beast_fmri_test	303	4.500383333333334	t	<img class = center src='/static/experiments/beast_fmri_test/images/D.png'></img>	71,89	2750.0	test	<img class = center src='/static/experiments/beast_fmri_test/images/redD.png'></img>	go	1750.0	3.0	4.0	go	non-target	D	71,Green Button	89,Yellow Button	750.0	1000.0	2000.0	1750.0	1.0	1000.0	1.0	n/a	ITI
249316.0	500.0	n/a	-1	-1	500	0.0	fixation	poldrack-single-stim	109	270574	0.0-6.5-0.5	beast_fmri_test	303	n/a	n/a	<div class = centerbox><div class = fixation>+</div></div>	none	500.0	test	n/a	n/a	n/a	n/a	n/a	n/a	n/a	n/a	n/a	n/a	n/a	n/a	n/a	n/a	n/a	n/a	n/a	n/a	fixation
247170.10851237521	2750.0	n/a	1285	71	2750	2146.89148762	stim	stop-signal	110	273325	0.0-6.5-1.5	beast_fmri_test	303	n/a	n/a	<img class = center src='/static/experiments/beast_fmri_test/images/P.png'></img>	71,89	2750.0	test	<img class = center src='/static/experiments/beast_fmri_test/images/redP.png'></img>	go	2000.0	3.0	5.0	go	target	P	71,Green Button	89,Yellow Button	750.0	1000.0	2000.0	1750.0	1.0	750.0	1.0	n/a	go_stim
249920.10851237521	2146.89148762	n/a	1285	71	2750	2146.89148762	stim	stop-signal	110	273325	0.0-6.5-1.5	beast_fmri_test	303	n/a	n/a	<img class = center src='/static/experiments/beast_fmri_test/images/P.png'></img>	71,89	2750.0	test	<img class = center src='/static/experiments/beast_fmri_test/images/redP.png'></img>	go	2000.0	3.0	5.0	go	target	P	71,Green Button	89,Yellow Button	750.0	1000.0	2000.0	1750.0	1.0	750.0	1.0	n/a	ITI
254729.0	500.0	n/a	-1	-1	500	0.0	fixation	poldrack-single-stim	111	275987	0.0-6.6-0.6	beast_fmri_test	303	n/a	n/a	<div class = centerbox><div class = fixation>+</div></div>	none	500.0	test	n/a	n/a	n/a	n/a	n/a	n/a	n/a	n/a	n/a	n/a	n/a	n/a	n/a	n/a	n/a	n/a	n/a	n/a	fixation
253018.95518992271	1000.0	n/a	-1	-1	2750	1710.04481008	stim	stop-signal	112	278737	0.0-6.6-1.6	beast_fmri_test	303	n/a	n/a	<img class = center src='/static/experiments/beast_fmri_test/images/T.png'></img>	71,89	2750.0	test	<img class = center src='/static/experiments/beast_fmri_test/images/redT.png'></img>	stop	1750.0	3.0	6.0	stop	non-target	T	71,Green Button	89,Yellow Button	750.0	1000.0	2000.0	1750.0	0.0	1000.0	0.0	1.0	go_stim
254768.95518992271	1750.0	n/a	-1	-1	2750	1710.04481008	stim	stop-signal	112	278737	0.0-6.6-1.6	beast_fmri_test	303	n/a	n/a	<img class = center src='/static/experiments/beast_fmri_test/images/T.png'></img>	71,89	2750.0	test	<img class = center src='/static/experiments/beast_fmri_test/images/redT.png'></img>	stop	1750.0	3.0	6.0	stop	non-target	T	71,Green Button	89,Yellow Button	750.0	1000.0	2000.0	1750.0	0.0	1000.0	0.0	1.0	stop_stim
255768.95518992271	1710.04481008	n/a	-1	-1	2750	1710.04481008	stim	stop-signal	112	278737	0.0-6.6-1.6	beast_fmri_test	303	n/a	n/a	<img class = center src='/static/experiments/beast_fmri_test/images/T.png'></img>	71,89	2750.0	test	<img class = center src='/static/experiments/beast_fmri_test/images/redT.png'></img>	stop	1750.0	3.0	6.0	stop	non-target	T	71,Green Button	89,Yellow Button	750.0	1000.0	2000.0	1750.0	0.0	1000.0	0.0	1.0	ITI
259703.0	500.0	n/a	-1	-1	500	0.0	fixation	poldrack-single-stim	113	280961	0.0-6.7-0.7	beast_fmri_test	303	n/a	n/a	<div class = centerbox><div class = fixation>+</div></div>	none	500.0	test	n/a	n/a	n/a	n/a	n/a	n/a	n/a	n/a	n/a	n/a	n/a	n/a	n/a	n/a	n/a	n/a	n/a	n/a	fixation
259624.35025792127	2750.0	n/a	1249	89	2750	80.6497420787	stim	stop-signal	114	283713	0.0-6.7-1.7	beast_fmri_test	303	n/a	n/a	<img class = center src='/static/experiments/beast_fmri_test/images/V.png'></img>	71,89	2750.0	test	<img class = center src='/static/experiments/beast_fmri_test/images/redV.png'></img>	go	1700.0	3.0	7.0	go	non-target	V	71,Green Button	89,Yellow Button	750.0	1050.0	2000.0	1700.0	1.0	1050.0	1.0	n/a	go_stim
262374.35025792127	80.6497420787	n/a	1249	89	2750	80.6497420787	stim	stop-signal	114	283713	0.0-6.7-1.7	beast_fmri_test	303	n/a	n/a	<img class = center src='/static/experiments/beast_fmri_test/images/V.png'></img>	71,89	2750.0	test	<img class = center src='/static/experiments/beast_fmri_test/images/redV.png'></img>	go	1700.0	3.0	7.0	go	non-target	V	71,Green Button	89,Yellow Button	750.0	1050.0	2000.0	1700.0	1.0	1050.0	1.0	n/a	ITI
263048.0	500.0	n/a	-1	-1	500	0.0	fixation	poldrack-single-stim	115	284306	0.0-6.8-0.8	beast_fmri_test	303	n/a	n/a	<div class = centerbox><div class = fixation>+</div></div>	none	500.0	test	n/a	n/a	n/a	n/a	n/a	n/a	n/a	n/a	n/a	n/a	n/a	n/a	n/a	n/a	n/a	n/a	n/a	n/a	fixation
262683.77891026129	2750.0	n/a	1508	89	2750	366.221089739	stim	stop-signal	116	287058	0.0-6.8-1.8	beast_fmri_test	303	n/a	n/a	<img class = center src='/static/experiments/beast_fmri_test/images/D.png'></img>	71,89	2750.0	test	<img class = center src='/static/experiments/beast_fmri_test/images/redD.png'></img>	go	1700.0	3.0	8.0	go	non-target	D	71,Green Button	89,Yellow Button	750.0	1050.0	2000.0	1700.0	1.0	1050.0	1.0	n/a	go_stim
265433.77891026129	366.221089739	n/a	1508	89	2750	366.221089739	stim	stop-signal	116	287058	0.0-6.8-1.8	beast_fmri_test	303	n/a	n/a	<img class = center src='/static/experiments/beast_fmri_test/images/D.png'></img>	71,89	2750.0	test	<img class = center src='/static/experiments/beast_fmri_test/images/redD.png'></img>	go	1700.0	3.0	8.0	go	non-target	D	71,Green Button	89,Yellow Button	750.0	1050.0	2000.0	1700.0	1.0	1050.0	1.0	n/a	ITI
266680.0	500.0	n/a	-1	-1	500	0.0	fixation	poldrack-single-stim	117	287938	0.0-6.9-0.9	beast_fmri_test	303	n/a	n/a	<div class = centerbox><div class = fixation>+</div></div>	none	500.0	test	n/a	n/a	n/a	n/a	n/a	n/a	n/a	n/a	n/a	n/a	n/a	n/a	n/a	n/a	n/a	n/a	n/a	n/a	fixation
263633.47415451141	2750.0	n/a	1412	71	2750	3048.52584549	stim	stop-signal	118	290690	0.0-6.9-1.9	beast_fmri_test	303	4.80625	t	<img class = center src='/static/experiments/beast_fmri_test/images/T.png'></img>	71,89	2750.0	test	<img class = center src='/static/experiments/beast_fmri_test/images/redT.png'></img>	go	2000.0	3.0	9.0	go	target	T	71,Green Button	89,Yellow Button	750.0	1050.0	2000.0	1700.0	1.0	750.0	1.0	n/a	go_stim
266383.47415451141	3048.52584549	n/a	1412	71	2750	3048.52584549	stim	stop-signal	118	290690	0.0-6.9-1.9	beast_fmri_test	303	4.80625	t	<img class = center src='/static/experiments/beast_fmri_test/images/T.png'></img>	71,89	2750.0	test	<img class = center src='/static/experiments/beast_fmri_test/images/redT.png'></img>	go	2000.0	3.0	9.0	go	target	T	71,Green Button	89,Yellow Button	750.0	1050.0	2000.0	1700.0	1.0	750.0	1.0	n/a	ITI
272994.0	500.0	n/a	-1	-1	500	0.0	fixation	poldrack-single-stim	119	294252	0.0-6.10-0.10	beast_fmri_test	303	n/a	n/a	<div class = centerbox><div class = fixation>+</div></div>	none	500.0	test	n/a	n/a	n/a	n/a	n/a	n/a	n/a	n/a	n/a	n/a	n/a	n/a	n/a	n/a	n/a	n/a	n/a	n/a	fixation
272635.00427644898	2750.0	n/a	1273	89	2750	360.995723551	stim	stop-signal	120	297004	0.0-6.10-1.10	beast_fmri_test	303	n/a	n/a	<img class = center src='/static/experiments/beast_fmri_test/images/D.png'></img>	71,89	2750.0	test	<img class = center src='/static/experiments/beast_fmri_test/images/redD.png'></img>	go	1700.0	3.0	10.0	go	non-target	D	71,Green Button	89,Yellow Button	750.0	1050.0	2000.0	1700.0	1.0	1050.0	1.0	n/a	go_stim
275385.00427644898	360.995723551	n/a	1273	89	2750	360.995723551	stim	stop-signal	120	297004	0.0-6.10-1.10	beast_fmri_test	303	n/a	n/a	<img class = center src='/static/experiments/beast_fmri_test/images/D.png'></img>	71,89	2750.0	test	<img class = center src='/static/experiments/beast_fmri_test/images/redD.png'></img>	go	1700.0	3.0	10.0	go	non-target	D	71,Green Button	89,Yellow Button	750.0	1050.0	2000.0	1700.0	1.0	1050.0	1.0	n/a	ITI
276620.0	500.0	n/a	-1	-1	500	0.0	fixation	poldrack-single-stim	121	297878	0.0-6.11-0.11	beast_fmri_test	303	n/a	n/a	<div class = centerbox><div class = fixation>+</div></div>	none	500.0	test	n/a	n/a	n/a	n/a	n/a	n/a	n/a	n/a	n/a	n/a	n/a	n/a	n/a	n/a	n/a	n/a	n/a	n/a	fixation
275582.98501916596	2750.0	n/a	1368	89	2750	1038.01498083	stim	stop-signal	122	300629	0.0-6.11-1.11	beast_fmri_test	303	n/a	n/a	<img class = center src='/static/experiments/beast_fmri_test/images/B.png'></img>	71,89	2750.0	test	<img class = center src='/static/experiments/beast_fmri_test/images/redB.png'></img>	go	1700.0	3.0	11.0	go	non-target	B	71,Green Button	89,Yellow Button	750.0	1050.0	2000.0	1700.0	1.0	1050.0	1.0	n/a	go_stim
278332.98501916596	1038.01498083	n/a	1368	89	2750	1038.01498083	stim	stop-signal	122	300629	0.0-6.11-1.11	beast_fmri_test	303	n/a	n/a	<img class = center src='/static/experiments/beast_fmri_test/images/B.png'></img>	71,89	2750.0	test	<img class = center src='/static/experiments/beast_fmri_test/images/redB.png'></img>	go	1700.0	3.0	11.0	go	non-target	B	71,Green Button	89,Yellow Button	750.0	1050.0	2000.0	1700.0	1.0	1050.0	1.0	n/a	ITI
280926.0	500.0	n/a	-1	-1	500	0.0	fixation	poldrack-single-stim	123	302184	0.0-6.12-0.12	beast_fmri_test	303	n/a	n/a	<div class = centerbox><div class = fixation>+</div></div>	none	500.0	test	n/a	n/a	n/a	n/a	n/a	n/a	n/a	n/a	n/a	n/a	n/a	n/a	n/a	n/a	n/a	n/a	n/a	n/a	fixation
280910.7644021844	2750.0	n/a	1488	89	2750	15.2355978156	stim	stop-signal	124	304934	0.0-6.12-1.12	beast_fmri_test	303	n/a	n/a	<img class = center src='/static/experiments/beast_fmri_test/images/B.png'></img>	71,89	2750.0	test	<img class = center src='/static/experiments/beast_fmri_test/images/redB.png'></img>	go	1700.0	3.0	12.0	go	non-target	B	71,Green Button	89,Yellow Button	750.0	1050.0	2000.0	1700.0	1.0	1050.0	1.0	n/a	go_stim
283660.7644021844	15.2355978156	n/a	1488	89	2750	15.2355978156	stim	stop-signal	124	304934	0.0-6.12-1.12	beast_fmri_test	303	n/a	n/a	<img class = center src='/static/experiments/beast_fmri_test/images/B.png'></img>	71,89	2750.0	test	<img class = center src='/static/experiments/beast_fmri_test/images/redB.png'></img>	go	1700.0	3.0	12.0	go	non-target	B	71,Green Button	89,Yellow Button	750.0	1050.0	2000.0	1700.0	1.0	1050.0	1.0	n/a	ITI
284204.0	500.0	n/a	-1	-1	500	0.0	fixation	poldrack-single-stim	125	305462	0.0-6.13-0.13	beast_fmri_test	303	n/a	n/a	<div class = centerbox><div class = fixation>+</div></div>	none	500.0	test	n/a	n/a	n/a	n/a	n/a	n/a	n/a	n/a	n/a	n/a	n/a	n/a	n/a	n/a	n/a	n/a	n/a	n/a	fixation
281502.98217204941	1050.0	n/a	-1	-1	2750	2703.01782795	stim	stop-signal	126	308214	0.0-6.13-1.13	beast_fmri_test	303	5.13475	t	<img class = center src='/static/experiments/beast_fmri_test/images/B.png'></img>	71,89	2750.0	test	<img class = center src='/static/experiments/beast_fmri_test/images/redB.png'></img>	stop	1700.0	3.0	13.0	stop	non-target	B	71,Green Button	89,Yellow Button	750.0	1050.0	2000.0	1700.0	0.0	1050.0	0.0	1.0	go_stim
283202.98217204941	1700.0	n/a	-1	-1	2750	2703.01782795	stim	stop-signal	126	308214	0.0-6.13-1.13	beast_fmri_test	303	5.13475	t	<img class = center src='/static/experiments/beast_fmri_test/images/B.png'></img>	71,89	2750.0	test	<img class = center src='/static/experiments/beast_fmri_test/images/redB.png'></img>	stop	1700.0	3.0	13.0	stop	non-target	B	71,Green Button	89,Yellow Button	750.0	1050.0	2000.0	1700.0	0.0	1050.0	0.0	1.0	stop_stim
284252.98217204941	2703.01782795	n/a	-1	-1	2750	2703.01782795	stim	stop-signal	126	308214	0.0-6.13-1.13	beast_fmri_test	303	5.13475	t	<img class = center src='/static/experiments/beast_fmri_test/images/B.png'></img>	71,89	2750.0	test	<img class = center src='/static/experiments/beast_fmri_test/images/redB.png'></img>	stop	1700.0	3.0	13.0	stop	non-target	B	71,Green Button	89,Yellow Button	750.0	1050.0	2000.0	1700.0	0.0	1050.0	0.0	1.0	ITI
290175.0	500.0	n/a	-1	-1	500	0.0	fixation	poldrack-single-stim	127	311433	0.0-6.14-0.14	beast_fmri_test	303	n/a	n/a	<div class = centerbox><div class = fixation>+</div></div>	none	500.0	test	n/a	n/a	n/a	n/a	n/a	n/a	n/a	n/a	n/a	n/a	n/a	n/a	n/a	n/a	n/a	n/a	n/a	n/a	fixation
288450.88093138812	750.0	n/a	-1	-1	2750	1726.11906861	stim	stop-signal	128	314185	0.0-6.14-1.14	beast_fmri_test	303	n/a	n/a	<img class = center src='/static/experiments/beast_fmri_test/images/B.png'></img>	71,89	2750.0	test	<img class = center src='/static/experiments/beast_fmri_test/images/redB.png'></img>	stop	2000.0	3.0	14.0	stop	target	B	71,Green Button	89,Yellow Button	750.0	1100.0	2000.0	1700.0	0.0	750.0	0.0	1.0	go_stim
290450.88093138812	2000.0	n/a	-1	-1	2750	1726.11906861	stim	stop-signal	128	314185	0.0-6.14-1.14	beast_fmri_test	303	n/a	n/a	<img class = center src='/static/experiments/beast_fmri_test/images/B.png'></img>	71,89	2750.0	test	<img class = center src='/static/experiments/beast_fmri_test/images/redB.png'></img>	stop	2000.0	3.0	14.0	stop	target	B	71,Green Button	89,Yellow Button	750.0	1100.0	2000.0	1700.0	0.0	750.0	0.0	1.0	stop_stim
291200.88093138812	1726.11906861	n/a	-1	-1	2750	1726.11906861	stim	stop-signal	128	314185	0.0-6.14-1.14	beast_fmri_test	303	n/a	n/a	<img class = center src='/static/experiments/beast_fmri_test/images/B.png'></img>	71,89	2750.0	test	<img class = center src='/static/experiments/beast_fmri_test/images/redB.png'></img>	stop	2000.0	3.0	14.0	stop	target	B	71,Green Button	89,Yellow Button	750.0	1100.0	2000.0	1700.0	0.0	750.0	0.0	1.0	ITI
295167.0	500.0	n/a	-1	-1	500	0.0	fixation	poldrack-single-stim	129	316425	0.0-6.15-0.15	beast_fmri_test	303	n/a	n/a	<div class = centerbox><div class = fixation>+</div></div>	none	500.0	test	n/a	n/a	n/a	n/a	n/a	n/a	n/a	n/a	n/a	n/a	n/a	n/a	n/a	n/a	n/a	n/a	n/a	n/a	fixation
292741.89128423546	2750.0	n/a	1303	71	2750	2428.10871576	stim	stop-signal	130	319178	0.0-6.15-1.15	beast_fmri_test	303	n/a	n/a	<img class = center src='/static/experiments/beast_fmri_test/images/T.png'></img>	71,89	2750.0	test	<img class = center src='/static/experiments/beast_fmri_test/images/redT.png'></img>	go	1650.0	3.0	15.0	go	non-target	T	71,Green Button	89,Yellow Button	800.0	1100.0	2000.0	1650.0	0.0	1100.0	0.0	n/a	go_stim
295491.89128423546	2428.10871576	n/a	1303	71	2750	2428.10871576	stim	stop-signal	130	319178	0.0-6.15-1.15	beast_fmri_test	303	n/a	n/a	<img class = center src='/static/experiments/beast_fmri_test/images/T.png'></img>	71,89	2750.0	test	<img class = center src='/static/experiments/beast_fmri_test/images/redT.png'></img>	go	1650.0	3.0	15.0	go	non-target	T	71,Green Button	89,Yellow Button	800.0	1100.0	2000.0	1650.0	0.0	1100.0	0.0	n/a	ITI
300867.0	500.0	n/a	-1	-1	500	0.0	fixation	poldrack-single-stim	131	322125	0.0-6.16-0.16	beast_fmri_test	303	n/a	n/a	<div class = centerbox><div class = fixation>+</div></div>	none	500.0	test	n/a	n/a	n/a	n/a	n/a	n/a	n/a	n/a	n/a	n/a	n/a	n/a	n/a	n/a	n/a	n/a	n/a	n/a	fixation
299853.23522589763	800.0	n/a	-1	-1	2750	1016.7647741	stim	stop-signal	132	324878	0.0-6.16-1.16	beast_fmri_test	303	5.417933333333333	t	<img class = center src='/static/experiments/beast_fmri_test/images/B.png'></img>	71,89	2750.0	test	<img class = center src='/static/experiments/beast_fmri_test/images/redB.png'></img>	stop	1950.0	3.0	16.0	stop	target	B	71,Green Button	89,Yellow Button	800.0	1100.0	1950.0	1650.0	0.0	800.0	0.0	1.0	go_stim
301803.23522589763	1950.0	n/a	-1	-1	2750	1016.7647741	stim	stop-signal	132	324878	0.0-6.16-1.16	beast_fmri_test	303	5.417933333333333	t	<img class = center src='/static/experiments/beast_fmri_test/images/B.png'></img>	71,89	2750.0	test	<img class = center src='/static/experiments/beast_fmri_test/images/redB.png'></img>	stop	1950.0	3.0	16.0	stop	target	B	71,Green Button	89,Yellow Button	800.0	1100.0	1950.0	1650.0	0.0	800.0	0.0	1.0	stop_stim
302603.23522589763	1016.7647741	n/a	-1	-1	2750	1016.7647741	stim	stop-signal	132	324878	0.0-6.16-1.16	beast_fmri_test	303	5.417933333333333	t	<img class = center src='/static/experiments/beast_fmri_test/images/B.png'></img>	71,89	2750.0	test	<img class = center src='/static/experiments/beast_fmri_test/images/redB.png'></img>	stop	1950.0	3.0	16.0	stop	target	B	71,Green Button	89,Yellow Button	800.0	1100.0	1950.0	1650.0	0.0	800.0	0.0	1.0	ITI
305152.0	500.0	n/a	-1	-1	500	0.0	fixation	poldrack-single-stim	133	326410	0.0-6.17-0.17	beast_fmri_test	303	n/a	n/a	<div class = centerbox><div class = fixation>+</div></div>	none	500.0	test	n/a	n/a	n/a	n/a	n/a	n/a	n/a	n/a	n/a	n/a	n/a	n/a	n/a	n/a	n/a	n/a	n/a	n/a	fixation
303250.50387942797	2750.0	n/a	1291	89	2750	1904.49612057	stim	stop-signal	134	329163	0.0-6.17-1.17	beast_fmri_test	303	n/a	n/a	<img class = center src='/static/experiments/beast_fmri_test/images/D.png'></img>	71,89	2750.0	test	<img class = center src='/static/experiments/beast_fmri_test/images/redD.png'></img>	go	1650.0	3.0	17.0	go	non-target	D	71,Green Button	89,Yellow Button	850.0	1100.0	1950.0	1650.0	1.0	1100.0	1.0	n/a	go_stim
306000.50387942797	1904.49612057	n/a	1291	89	2750	1904.49612057	stim	stop-signal	134	329163	0.0-6.17-1.17	beast_fmri_test	303	n/a	n/a	<img class = center src='/static/experiments/beast_fmri_test/images/D.png'></img>	71,89	2750.0	test	<img class = center src='/static/experiments/beast_fmri_test/images/redD.png'></img>	go	1650.0	3.0	17.0	go	non-target	D	71,Green Button	89,Yellow Button	850.0	1100.0	1950.0	1650.0	1.0	1100.0	1.0	n/a	ITI
310325.0	500.0	n/a	-1	-1	500	0.0	fixation	poldrack-single-stim	135	331583	0.0-6.18-0.18	beast_fmri_test	303	n/a	n/a	<div class = centerbox><div class = fixation>+</div></div>	none	500.0	test	n/a	n/a	n/a	n/a	n/a	n/a	n/a	n/a	n/a	n/a	n/a	n/a	n/a	n/a	n/a	n/a	n/a	n/a	fixation
309986.18788054551	2750.0	n/a	1395	89	2750	339.812119454	stim	stop-signal	136	334334	0.0-6.18-1.18	beast_fmri_test	303	n/a	n/a	<img class = center src='/static/experiments/beast_fmri_test/images/T.png'></img>	71,89	2750.0	test	<img class = center src='/static/experiments/beast_fmri_test/images/redT.png'></img>	go	1900.0	3.0	18.0	go	target	T	71,Green Button	89,Yellow Button	850.0	1100.0	1900.0	1650.0	0.0	850.0	0.0	n/a	go_stim
312736.18788054551	339.812119454	n/a	1395	89	2750	339.812119454	stim	stop-signal	136	334334	0.0-6.18-1.18	beast_fmri_test	303	n/a	n/a	<img class = center src='/static/experiments/beast_fmri_test/images/T.png'></img>	71,89	2750.0	test	<img class = center src='/static/experiments/beast_fmri_test/images/redT.png'></img>	go	1900.0	3.0	18.0	go	target	T	71,Green Button	89,Yellow Button	850.0	1100.0	1900.0	1650.0	0.0	850.0	0.0	n/a	ITI
313933.0	500.0	n/a	-1	-1	500	0.0	fixation	poldrack-single-stim	137	335191	0.0-6.19-0.19	beast_fmri_test	303	n/a	n/a	<div class = centerbox><div class = fixation>+</div></div>	none	500.0	test	n/a	n/a	n/a	n/a	n/a	n/a	n/a	n/a	n/a	n/a	n/a	n/a	n/a	n/a	n/a	n/a	n/a	n/a	fixation
313081.58728969144	2750.0	n/a	1674	89	2750	852.412710309	stim	stop-signal	138	337942	0.0-6.19-1.19	beast_fmri_test	303	n/a	n/a	<img class = center src='/static/experiments/beast_fmri_test/images/T.png'></img>	71,89	2750.0	test	<img class = center src='/static/experiments/beast_fmri_test/images/redT.png'></img>	go	1650.0	3.0	19.0	go	non-target	T	71,Green Button	89,Yellow Button	850.0	1100.0	1900.0	1650.0	1.0	1100.0	1.0	n/a	go_stim
315831.58728969144	852.412710309	n/a	1674	89	2750	852.412710309	stim	stop-signal	138	337942	0.0-6.19-1.19	beast_fmri_test	303	n/a	n/a	<img class = center src='/static/experiments/beast_fmri_test/images/T.png'></img>	71,89	2750.0	test	<img class = center src='/static/experiments/beast_fmri_test/images/redT.png'></img>	go	1650.0	3.0	19.0	go	non-target	T	71,Green Button	89,Yellow Button	850.0	1100.0	1900.0	1650.0	1.0	1100.0	1.0	n/a	ITI
318053.0	500.0	n/a	-1	-1	500	0.0	fixation	poldrack-single-stim	139	339311	0.0-6.20-0.20	beast_fmri_test	303	n/a	n/a	<div class = centerbox><div class = fixation>+</div></div>	none	500.0	test	n/a	n/a	n/a	n/a	n/a	n/a	n/a	n/a	n/a	n/a	n/a	n/a	n/a	n/a	n/a	n/a	n/a	n/a	fixation
317060.56405768526	2750.0	n/a	1560	89	2750	994.435942315	stim	stop-signal	140	342063	0.0-6.20-1.20	beast_fmri_test	303	5.712466666666667	t	<img class = center src='/static/experiments/beast_fmri_test/images/B.png'></img>	71,89	2750.0	test	<img class = center src='/static/experiments/beast_fmri_test/images/redB.png'></img>	go	1650.0	3.0	20.0	go	non-target	B	71,Green Button	89,Yellow Button	850.0	1100.0	1900.0	1650.0	1.0	1100.0	1.0	n/a	go_stim
319810.56405768526	994.435942315	n/a	1560	89	2750	994.435942315	stim	stop-signal	140	342063	0.0-6.20-1.20	beast_fmri_test	303	5.712466666666667	t	<img class = center src='/static/experiments/beast_fmri_test/images/B.png'></img>	71,89	2750.0	test	<img class = center src='/static/experiments/beast_fmri_test/images/redB.png'></img>	go	1650.0	3.0	20.0	go	non-target	B	71,Green Button	89,Yellow Button	850.0	1100.0	1900.0	1650.0	1.0	1100.0	1.0	n/a	ITI
322315.0	500.0	n/a	-1	-1	500	0.0	fixation	poldrack-single-stim	141	343573	0.0-6.21-0.21	beast_fmri_test	303	n/a	n/a	<div class = centerbox><div class = fixation>+</div></div>	none	500.0	test	n/a	n/a	n/a	n/a	n/a	n/a	n/a	n/a	n/a	n/a	n/a	n/a	n/a	n/a	n/a	n/a	n/a	n/a	fixation
321524.17047292762	2750.0	n/a	1353	89	2750	793.829527072	stim	stop-signal	142	346326	0.0-6.21-1.21	beast_fmri_test	303	n/a	n/a	<img class = center src='/static/experiments/beast_fmri_test/images/V.png'></img>	71,89	2750.0	test	<img class = center src='/static/experiments/beast_fmri_test/images/redV.png'></img>	go	1650.0	3.0	21.0	go	non-target	V	71,Green Button	89,Yellow Button	850.0	1100.0	1900.0	1650.0	1.0	1100.0	1.0	n/a	go_stim
324274.17047292762	793.829527072	n/a	1353	89	2750	793.829527072	stim	stop-signal	142	346326	0.0-6.21-1.21	beast_fmri_test	303	n/a	n/a	<img class = center src='/static/experiments/beast_fmri_test/images/V.png'></img>	71,89	2750.0	test	<img class = center src='/static/experiments/beast_fmri_test/images/redV.png'></img>	go	1650.0	3.0	21.0	go	non-target	V	71,Green Button	89,Yellow Button	850.0	1100.0	1900.0	1650.0	1.0	1100.0	1.0	n/a	ITI
326379.0	500.0	n/a	-1	-1	500	0.0	fixation	poldrack-single-stim	143	347637	0.0-6.22-0.22	beast_fmri_test	303	n/a	n/a	<div class = centerbox><div class = fixation>+</div></div>	none	500.0	test	n/a	n/a	n/a	n/a	n/a	n/a	n/a	n/a	n/a	n/a	n/a	n/a	n/a	n/a	n/a	n/a	n/a	n/a	fixation
326052.30876329227	1100.0	n/a	-1	-1	2750	328.691236708	stim	stop-signal	144	350389	0.0-6.22-1.22	beast_fmri_test	303	n/a	n/a	<img class = center src='/static/experiments/beast_fmri_test/images/B.png'></img>	71,89	2750.0	test	<img class = center src='/static/experiments/beast_fmri_test/images/redB.png'></img>	stop	1650.0	3.0	22.0	stop	non-target	B	71,Green Button	89,Yellow Button	850.0	1100.0	1900.0	1650.0	0.0	1100.0	0.0	1.0	go_stim
327702.30876329227	1650.0	n/a	-1	-1	2750	328.691236708	stim	stop-signal	144	350389	0.0-6.22-1.22	beast_fmri_test	303	n/a	n/a	<img class = center src='/static/experiments/beast_fmri_test/images/B.png'></img>	71,89	2750.0	test	<img class = center src='/static/experiments/beast_fmri_test/images/redB.png'></img>	stop	1650.0	3.0	22.0	stop	non-target	B	71,Green Button	89,Yellow Button	850.0	1100.0	1900.0	1650.0	0.0	1100.0	0.0	1.0	stop_stim
328802.30876329227	328.691236708	n/a	-1	-1	2750	328.691236708	stim	stop-signal	144	350389	0.0-6.22-1.22	beast_fmri_test	303	n/a	n/a	<img class = center src='/static/experiments/beast_fmri_test/images/B.png'></img>	71,89	2750.0	test	<img class = center src='/static/experiments/beast_fmri_test/images/redB.png'></img>	stop	1650.0	3.0	22.0	stop	non-target	B	71,Green Button	89,Yellow Button	850.0	1100.0	1900.0	1650.0	0.0	1100.0	0.0	1.0	ITI
329977.0	500.0	n/a	-1	-1	500	0.0	fixation	poldrack-single-stim	145	351235	0.0-6.23-0.23	beast_fmri_test	303	n/a	n/a	<div class = centerbox><div class = fixation>+</div></div>	none	500.0	test	n/a	n/a	n/a	n/a	n/a	n/a	n/a	n/a	n/a	n/a	n/a	n/a	n/a	n/a	n/a	n/a	n/a	n/a	fixation
329544.01472375111	1150.0	n/a	-1	-1	2750	434.985276249	stim	stop-signal	146	353987	0.0-6.23-1.23	beast_fmri_test	303	n/a	n/a	<img class = center src='/static/experiments/beast_fmri_test/images/D.png'></img>	71,89	2750.0	test	<img class = center src='/static/experiments/beast_fmri_test/images/redD.png'></img>	stop	1600.0	3.0	23.0	stop	non-target	D	71,Green Button	89,Yellow Button	850.0	1150.0	1900.0	1600.0	0.0	1150.0	0.0	1.0	go_stim
331144.01472375111	1600.0	n/a	-1	-1	2750	434.985276249	stim	stop-signal	146	353987	0.0-6.23-1.23	beast_fmri_test	303	n/a	n/a	<img class = center src='/static/experiments/beast_fmri_test/images/D.png'></img>	71,89	2750.0	test	<img class = center src='/static/experiments/beast_fmri_test/images/redD.png'></img>	stop	1600.0	3.0	23.0	stop	non-target	D	71,Green Button	89,Yellow Button	850.0	1150.0	1900.0	1600.0	0.0	1150.0	0.0	1.0	stop_stim
332294.01472375111	434.985276249	n/a	-1	-1	2750	434.985276249	stim	stop-signal	146	353987	0.0-6.23-1.23	beast_fmri_test	303	n/a	n/a	<img class = center src='/static/experiments/beast_fmri_test/images/D.png'></img>	71,89	2750.0	test	<img class = center src='/static/experiments/beast_fmri_test/images/redD.png'></img>	stop	1600.0	3.0	23.0	stop	non-target	D	71,Green Button	89,Yellow Button	850.0	1150.0	1900.0	1600.0	0.0	1150.0	0.0	1.0	ITI
333682.0	500.0	n/a	-1	-1	500	0.0	fixation	poldrack-single-stim	147	354940	0.0-6.24-0.24	beast_fmri_test	303	n/a	n/a	<div class = centerbox><div class = fixation>+</div></div>	none	500.0	test	n/a	n/a	n/a	n/a	n/a	n/a	n/a	n/a	n/a	n/a	n/a	n/a	n/a	n/a	n/a	n/a	n/a	n/a	fixation
332880.45337372989	2750.0	n/a	1182	89	2750	803.54662627	stim	stop-signal	148	357692	0.0-6.24-1.24	beast_fmri_test	303	n/a	n/a	<img class = center src='/static/experiments/beast_fmri_test/images/P.png'></img>	71,89	2750.0	test	<img class = center src='/static/experiments/beast_fmri_test/images/redP.png'></img>	go	1550.0	3.0	24.0	go	non-target	P	71,Green Button	89,Yellow Button	850.0	1200.0	1900.0	1550.0	1.0	1200.0	1.0	n/a	go_stim
335630.45337372989	803.54662627	n/a	1182	89	2750	803.54662627	stim	stop-signal	148	357692	0.0-6.24-1.24	beast_fmri_test	303	n/a	n/a	<img class = center src='/static/experiments/beast_fmri_test/images/P.png'></img>	71,89	2750.0	test	<img class = center src='/static/experiments/beast_fmri_test/images/redP.png'></img>	go	1550.0	3.0	24.0	go	non-target	P	71,Green Button	89,Yellow Button	850.0	1200.0	1900.0	1550.0	1.0	1200.0	1.0	n/a	ITI
337755.0	500.0	n/a	-1	-1	500	0.0	fixation	poldrack-single-stim	149	359013	0.0-6.25-0.25	beast_fmri_test	303	n/a	n/a	<div class = centerbox><div class = fixation>+</div></div>	none	500.0	test	n/a	n/a	n/a	n/a	n/a	n/a	n/a	n/a	n/a	n/a	n/a	n/a	n/a	n/a	n/a	n/a	n/a	n/a	fixation
336149.13101162406	2750.0	n/a	1929	89	2750	1606.86898838	stim	stop-signal	150	361764	0.0-6.25-1.25	beast_fmri_test	303	6.018316666666666	t	<img class = center src='/static/experiments/beast_fmri_test/images/T.png'></img>	71,89	2750.0	test	<img class = center src='/static/experiments/beast_fmri_test/images/redT.png'></img>	go	1550.0	3.0	25.0	go	non-target	T	71,Green Button	89,Yellow Button	850.0	1200.0	1900.0	1550.0	1.0	1200.0	1.0	n/a	go_stim
338899.13101162406	1606.86898838	n/a	1929	89	2750	1606.86898838	stim	stop-signal	150	361764	0.0-6.25-1.25	beast_fmri_test	303	6.018316666666666	t	<img class = center src='/static/experiments/beast_fmri_test/images/T.png'></img>	71,89	2750.0	test	<img class = center src='/static/experiments/beast_fmri_test/images/redT.png'></img>	go	1550.0	3.0	25.0	go	non-target	T	71,Green Button	89,Yellow Button	850.0	1200.0	1900.0	1550.0	1.0	1200.0	1.0	n/a	ITI
342630.0	500.0	n/a	-1	-1	500	0.0	fixation	poldrack-single-stim	151	363888	0.0-6.26-0.26	beast_fmri_test	303	n/a	n/a	<div class = centerbox><div class = fixation>+</div></div>	none	500.0	test	n/a	n/a	n/a	n/a	n/a	n/a	n/a	n/a	n/a	n/a	n/a	n/a	n/a	n/a	n/a	n/a	n/a	n/a	fixation
341922.79328928201	1200.0	n/a	-1	-1	2750	710.206710718	stim	stop-signal	152	366641	0.0-6.26-1.26	beast_fmri_test	303	n/a	n/a	<img class = center src='/static/experiments/beast_fmri_test/images/P.png'></img>	71,89	2750.0	test	<img class = center src='/static/experiments/beast_fmri_test/images/redP.png'></img>	stop	1550.0	3.0	26.0	stop	non-target	P	71,Green Button	89,Yellow Button	850.0	1200.0	1900.0	1550.0	0.0	1200.0	0.0	1.0	go_stim
343472.79328928201	1550.0	n/a	-1	-1	2750	710.206710718	stim	stop-signal	152	366641	0.0-6.26-1.26	beast_fmri_test	303	n/a	n/a	<img class = center src='/static/experiments/beast_fmri_test/images/P.png'></img>	71,89	2750.0	test	<img class = center src='/static/experiments/beast_fmri_test/images/redP.png'></img>	stop	1550.0	3.0	26.0	stop	non-target	P	71,Green Button	89,Yellow Button	850.0	1200.0	1900.0	1550.0	0.0	1200.0	0.0	1.0	stop_stim
344672.79328928201	710.206710718	n/a	-1	-1	2750	710.206710718	stim	stop-signal	152	366641	0.0-6.26-1.26	beast_fmri_test	303	n/a	n/a	<img class = center src='/static/experiments/beast_fmri_test/images/P.png'></img>	71,89	2750.0	test	<img class = center src='/static/experiments/beast_fmri_test/images/redP.png'></img>	stop	1550.0	3.0	26.0	stop	non-target	P	71,Green Button	89,Yellow Button	850.0	1200.0	1900.0	1550.0	0.0	1200.0	0.0	1.0	ITI
346613.0	500.0	n/a	-1	-1	500	0.0	fixation	poldrack-single-stim	153	367871	0.0-6.27-0.27	beast_fmri_test	303	n/a	n/a	<div class = centerbox><div class = fixation>+</div></div>	none	500.0	test	n/a	n/a	n/a	n/a	n/a	n/a	n/a	n/a	n/a	n/a	n/a	n/a	n/a	n/a	n/a	n/a	n/a	n/a	fixation
345583.01687775151	2750.0	n/a	1236	71	2750	1031.98312225	stim	stop-signal	154	370623	0.0-6.27-1.27	beast_fmri_test	303	n/a	n/a	<img class = center src='/static/experiments/beast_fmri_test/images/P.png'></img>	71,89	2750.0	test	<img class = center src='/static/experiments/beast_fmri_test/images/redP.png'></img>	go	1900.0	3.0	27.0	go	target	P	71,Green Button	89,Yellow Button	850.0	1250.0	1900.0	1550.0	1.0	850.0	1.0	n/a	go_stim
348333.01687775151	1031.98312225	n/a	1236	71	2750	1031.98312225	stim	stop-signal	154	370623	0.0-6.27-1.27	beast_fmri_test	303	n/a	n/a	<img class = center src='/static/experiments/beast_fmri_test/images/P.png'></img>	71,89	2750.0	test	<img class = center src='/static/experiments/beast_fmri_test/images/redP.png'></img>	go	1900.0	3.0	27.0	go	target	P	71,Green Button	89,Yellow Button	850.0	1250.0	1900.0	1550.0	1.0	850.0	1.0	n/a	ITI
350916.0	500.0	n/a	-1	-1	500	0.0	fixation	poldrack-single-stim	155	372174	0.0-6.28-0.28	beast_fmri_test	303	n/a	n/a	<div class = centerbox><div class = fixation>+</div></div>	none	500.0	test	n/a	n/a	n/a	n/a	n/a	n/a	n/a	n/a	n/a	n/a	n/a	n/a	n/a	n/a	n/a	n/a	n/a	n/a	fixation
348543.46090369218	2750.0	n/a	2484	89	2750	2374.53909631	stim	stop-signal	156	374926	0.0-6.28-1.28	beast_fmri_test	303	6.2449	t	<img class = center src='/static/experiments/beast_fmri_test/images/T.png'></img>	71,89	2750.0	test	<img class = center src='/static/experiments/beast_fmri_test/images/redT.png'></img>	go	1900.0	3.0	28.0	go	target	T	71,Green Button	89,Yellow Button	850.0	1250.0	1900.0	1550.0	0.0	850.0	0.0	n/a	go_stim
351293.46090369218	2374.53909631	n/a	2484	89	2750	2374.53909631	stim	stop-signal	156	374926	0.0-6.28-1.28	beast_fmri_test	303	6.2449	t	<img class = center src='/static/experiments/beast_fmri_test/images/T.png'></img>	71,89	2750.0	test	<img class = center src='/static/experiments/beast_fmri_test/images/redT.png'></img>	go	1900.0	3.0	28.0	go	target	T	71,Green Button	89,Yellow Button	850.0	1250.0	1900.0	1550.0	0.0	850.0	0.0	n/a	ITI
356561.0	500.0	n/a	-1	-1	500	0.0	fixation	poldrack-single-stim	157	377819	0.0-6.29-0.29	beast_fmri_test	303	n/a	n/a	<div class = centerbox><div class = fixation>+</div></div>	none	500.0	test	n/a	n/a	n/a	n/a	n/a	n/a	n/a	n/a	n/a	n/a	n/a	n/a	n/a	n/a	n/a	n/a	n/a	n/a	fixation
353829.00533413887	1250.0	n/a	-1	-1	2750	2732.99466586	stim	stop-signal	158	380570	0.0-6.29-1.29	beast_fmri_test	303	n/a	n/a	<img class = center src='/static/experiments/beast_fmri_test/images/V.png'></img>	71,89	2750.0	test	<img class = center src='/static/experiments/beast_fmri_test/images/redV.png'></img>	stop	1500.0	3.0	29.0	stop	non-target	V	71,Green Button	89,Yellow Button	850.0	1250.0	1900.0	1500.0	0.0	1250.0	0.0	1.0	go_stim
355329.00533413887	1500.0	n/a	-1	-1	2750	2732.99466586	stim	stop-signal	158	380570	0.0-6.29-1.29	beast_fmri_test	303	n/a	n/a	<img class = center src='/static/experiments/beast_fmri_test/images/V.png'></img>	71,89	2750.0	test	<img class = center src='/static/experiments/beast_fmri_test/images/redV.png'></img>	stop	1500.0	3.0	29.0	stop	non-target	V	71,Green Button	89,Yellow Button	850.0	1250.0	1900.0	1500.0	0.0	1250.0	0.0	1.0	stop_stim
356579.00533413887	2732.99466586	n/a	-1	-1	2750	2732.99466586	stim	stop-signal	158	380570	0.0-6.29-1.29	beast_fmri_test	303	n/a	n/a	<img class = center src='/static/experiments/beast_fmri_test/images/V.png'></img>	71,89	2750.0	test	<img class = center src='/static/experiments/beast_fmri_test/images/redV.png'></img>	stop	1500.0	3.0	29.0	stop	non-target	V	71,Green Button	89,Yellow Button	850.0	1250.0	1900.0	1500.0	0.0	1250.0	0.0	1.0	ITI
362561.0	500.0	n/a	-1	-1	500	0.0	fixation	poldrack-single-stim	159	383819	0.0-6.30-0.30	beast_fmri_test	303	n/a	n/a	<div class = centerbox><div class = fixation>+</div></div>	none	500.0	test	n/a	n/a	n/a	n/a	n/a	n/a	n/a	n/a	n/a	n/a	n/a	n/a	n/a	n/a	n/a	n/a	n/a	n/a	fixation
361852.3646601314	1300.0	n/a	-1	-1	2750	708.635339869	stim	stop-signal	160	386569	0.0-6.30-1.30	beast_fmri_test	303	n/a	n/a	<img class = center src='/static/experiments/beast_fmri_test/images/T.png'></img>	71,89	2750.0	test	<img class = center src='/static/experiments/beast_fmri_test/images/redT.png'></img>	stop	1450.0	3.0	30.0	stop	non-target	T	71,Green Button	89,Yellow Button	850.0	1300.0	1900.0	1450.0	0.0	1300.0	0.0	1.0	go_stim
