onset	duration	text	rt	key_press	block_duration	timing_post_trial	trial_id	trial_type	trial_index	time_elapsed	internal_node_id	exp_id	subject_id	trigger_times	triggers	stimulus	possible_responses	stim_duration	exp_stage	SS_stimulus	SS_trial_type	SS_duration	load	trial_num	stop_trial_type	adaptive_trial_type	stim	yes_response_key	no_response_key	SSD_target	SSD_non_target	SSTarget	SSNonTarget	go_acc	SS_delay	adaptive_acc	stop_acc	new_trial_type
test	110031.0	"<div class = ""centerbox""><p class = ""center-block-text"">Great job!  Please keep your head still while the machine finishes scanning.</p></div>"	110031	77	110031	1000.0	start_test_text	poldrack-text	575	1638661	0.0-17.0	beast_fmri_test	303	25.48135,25.49266666666667,25.504,25.515333333333334,25.526666666666667,25.538,25.5493,25.56063333333333,25.57196666666667,25.5833,25.59465,25.605966666666667,25.617283333333333,25.628616666666666,25.63993333333333,25.651266666666668,25.662583333333334,25.673916666666667,25.68525,25.696566666666666,25.7079,25.71923333333333,25.73055,25.741883333333334,25.753216666666667,25.76455,25.7759,25.7872,25.798533333333335,25.80985,25.8212,25.832516666666667,26.881166666666665,26.912233333333333,26.929433333333332,26.930016666666667,26.934466666666665,27.011283333333335,27.24191666666667,27.253233333333334,27.264566666666667,27.275916666666667,27.287233333333333,27.298566666666666,27.30988333333333,27.3212	t,t,t,t,t,t,t,t,t,t,t,t,t,t,t,t,t,t,t,t,t,t,t,t,t,t,t,t,t,t,t,t,t,t,t,t,t,t,t,t,t,t,t,t,t,t	n/a	n/a	n/a	n/a	n/a	n/a	n/a	n/a	n/a	n/a	n/a	n/a	n/a	n/a	n/a	n/a	n/a	n/a	n/a	n/a	n/a	n/a	start_functional_block
111072.0	291.0	"<div class = ""centerbox""><p class = ""center-block-text"">Your delay is 2 trials.</p><p class = center-block-text>Please wait for the scanner to start the block</p></div>"	291	84	291	1000.0	start_test_text	poldrack-text	576	1639953	0.0-18.0	beast_fmri_test	303	27.33255,27.343866666666667	t,t	n/a	n/a	n/a	n/a	n/a	n/a	n/a	n/a	n/a	n/a	n/a	n/a	n/a	n/a	n/a	n/a	n/a	n/a	n/a	n/a	n/a	n/a	start_test_text
112576.0	500.0	n/a	-1	-1	500	0.0	fixation	poldrack-single-stim	577	1641457	0.0-19.0-0.0	beast_fmri_test	303	27.355216666666667	t	<div class = centerbox><div class = fixation>+</div></div>	none	500.0	test	n/a	n/a	n/a	n/a	n/a	n/a	n/a	n/a	n/a	n/a	n/a	n/a	n/a	n/a	n/a	n/a	n/a	n/a	fixation
111482.42894811276	2750.0	n/a	1020	89	2750	1095.57105189	stim	stop-signal	578	1644209	0.0-19.0-1.0	beast_fmri_test	303	27.366533333333333,27.37785,27.38918333333333,27.4005,27.411833333333334	t,t,t,t,t	<img class = center src='/static/experiments/beast_fmri_test/images/V.png'></img>	71,89	2750.0	test	<img class = center src='/static/experiments/beast_fmri_test/images/redV.png'></img>	go	-1.0	2.0	0.0	go	temp-non-target	V	71,Green Button	89,Yellow Button	1450.0	1450.0	1300.0	1350.0	0.0	n/a	n/a	n/a	go_stim
114232.42894811276	1095.57105189	n/a	1020	89	2750	1095.57105189	stim	stop-signal	578	1644209	0.0-19.0-1.0	beast_fmri_test	303	27.366533333333333,27.37785,27.38918333333333,27.4005,27.411833333333334	t,t,t,t,t	<img class = center src='/static/experiments/beast_fmri_test/images/V.png'></img>	71,89	2750.0	test	<img class = center src='/static/experiments/beast_fmri_test/images/redV.png'></img>	go	-1.0	2.0	0.0	go	temp-non-target	V	71,Green Button	89,Yellow Button	1450.0	1450.0	1300.0	1350.0	0.0	n/a	n/a	n/a	ITI
116974.0	500.0	n/a	-1	-1	500	0.0	fixation	poldrack-single-stim	579	1645855	0.0-19.1-0.1	beast_fmri_test	303	27.42315	t	<div class = centerbox><div class = fixation>+</div></div>	none	500.0	test	n/a	n/a	n/a	n/a	n/a	n/a	n/a	n/a	n/a	n/a	n/a	n/a	n/a	n/a	n/a	n/a	n/a	n/a	fixation
116646.02554820944	2750.0	n/a	1181	89	2750	329.974451791	stim	stop-signal	580	1648607	0.0-19.1-1.1	beast_fmri_test	303	27.4345,27.445833333333333,27.45715,27.468466666666668,27.479816666666668	t,t,t,t,t	<img class = center src='/static/experiments/beast_fmri_test/images/D.png'></img>	71,89	2750.0	test	<img class = center src='/static/experiments/beast_fmri_test/images/redD.png'></img>	go	-1.0	2.0	1.0	go	temp-non-target	D	71,Green Button	89,Yellow Button	1450.0	1450.0	1300.0	1350.0	0.0	n/a	n/a	n/a	go_stim
119396.02554820944	329.974451791	n/a	1181	89	2750	329.974451791	stim	stop-signal	580	1648607	0.0-19.1-1.1	beast_fmri_test	303	27.4345,27.445833333333333,27.45715,27.468466666666668,27.479816666666668	t,t,t,t,t	<img class = center src='/static/experiments/beast_fmri_test/images/D.png'></img>	71,89	2750.0	test	<img class = center src='/static/experiments/beast_fmri_test/images/redD.png'></img>	go	-1.0	2.0	1.0	go	temp-non-target	D	71,Green Button	89,Yellow Button	1450.0	1450.0	1300.0	1350.0	0.0	n/a	n/a	n/a	ITI
120611.0	500.0	n/a	-1	-1	500	0.0	fixation	poldrack-single-stim	581	1649492	0.0-19.2-0.2	beast_fmri_test	303	27.49115	t	<div class = centerbox><div class = fixation>+</div></div>	none	500.0	test	n/a	n/a	n/a	n/a	n/a	n/a	n/a	n/a	n/a	n/a	n/a	n/a	n/a	n/a	n/a	n/a	n/a	n/a	fixation
115612.0	2750.0	n/a	1233	89	2750	5000.0	stim	stop-signal	582	1652243	0.0-19.2-1.2	beast_fmri_test	303	27.502483333333334,27.513783333333333,27.525133333333333,27.53645,27.547783333333335,27.559116666666668,27.570433333333334,27.581766666666667,27.5931,27.604433333333333,27.61575	t,t,t,t,t,t,t,t,t,t,t	<img class = center src='/static/experiments/beast_fmri_test/images/D.png'></img>	71,89	2750.0	test	<img class = center src='/static/experiments/beast_fmri_test/images/redD.png'></img>	go	1300.0	2.0	2.0	go	non-target	D	71,Green Button	89,Yellow Button	1450.0	1450.0	1300.0	1300.0	1.0	1450.0	1.0	n/a	go_stim
118362.0	5000.0	n/a	1233	89	2750	5000.0	stim	stop-signal	582	1652243	0.0-19.2-1.2	beast_fmri_test	303	27.502483333333334,27.513783333333333,27.525133333333333,27.53645,27.547783333333335,27.559116666666668,27.570433333333334,27.581766666666667,27.5931,27.604433333333333,27.61575	t,t,t,t,t,t,t,t,t,t,t	<img class = center src='/static/experiments/beast_fmri_test/images/D.png'></img>	71,89	2750.0	test	<img class = center src='/static/experiments/beast_fmri_test/images/redD.png'></img>	go	1300.0	2.0	2.0	go	non-target	D	71,Green Button	89,Yellow Button	1450.0	1450.0	1300.0	1300.0	1.0	1450.0	1.0	n/a	ITI
128915.0	500.0	n/a	-1	-1	500	0.0	fixation	poldrack-single-stim	583	1657796	0.0-19.3-0.3	beast_fmri_test	303	27.627083333333335	t	<div class = centerbox><div class = fixation>+</div></div>	none	500.0	test	n/a	n/a	n/a	n/a	n/a	n/a	n/a	n/a	n/a	n/a	n/a	n/a	n/a	n/a	n/a	n/a	n/a	n/a	fixation
128886.28555880929	2750.0	n/a	1798	71	2750	30.7144411908	stim	stop-signal	584	1660548	0.0-19.3-1.3	beast_fmri_test	303	27.638416666666668,27.649733333333334,27.66105,27.672383333333332	t,t,t,t	<img class = center src='/static/experiments/beast_fmri_test/images/D.png'></img>	71,89	2750.0	test	<img class = center src='/static/experiments/beast_fmri_test/images/redD.png'></img>	go	1300.0	2.0	3.0	go	target	D	71,Green Button	89,Yellow Button	1450.0	1450.0	1300.0	1300.0	1.0	1450.0	1.0	n/a	go_stim
131636.28555880929	30.7144411908	n/a	1798	71	2750	30.7144411908	stim	stop-signal	584	1660548	0.0-19.3-1.3	beast_fmri_test	303	27.638416666666668,27.649733333333334,27.66105,27.672383333333332	t,t,t,t	<img class = center src='/static/experiments/beast_fmri_test/images/D.png'></img>	71,89	2750.0	test	<img class = center src='/static/experiments/beast_fmri_test/images/redD.png'></img>	go	1300.0	2.0	3.0	go	target	D	71,Green Button	89,Yellow Button	1450.0	1450.0	1300.0	1300.0	1.0	1450.0	1.0	n/a	ITI
132259.0	500.0	n/a	-1	-1	500	0.0	fixation	poldrack-single-stim	585	1661140	0.0-19.4-0.4	beast_fmri_test	303	27.683733333333333	t	<div class = centerbox><div class = fixation>+</div></div>	none	500.0	test	n/a	n/a	n/a	n/a	n/a	n/a	n/a	n/a	n/a	n/a	n/a	n/a	n/a	n/a	n/a	n/a	n/a	n/a	fixation
131456.08792265831	1450.0	n/a	1661	71	2750	805.912077342	stim	stop-signal	586	1663893	0.0-19.4-1.4	beast_fmri_test	303	27.695033333333335,27.706366666666668,27.7177,27.729,27.74035	t,t,t,t,t	<img class = center src='/static/experiments/beast_fmri_test/images/D.png'></img>	71,89	2750.0	test	<img class = center src='/static/experiments/beast_fmri_test/images/redD.png'></img>	stop	1300.0	2.0	4.0	stop	target	D	71,Green Button	89,Yellow Button	1450.0	1450.0	1300.0	1300.0	0.0	1450.0	1.0	0.0	go_stim
132756.08792265831	1300.0	n/a	1661	71	2750	805.912077342	stim	stop-signal	586	1663893	0.0-19.4-1.4	beast_fmri_test	303	27.695033333333335,27.706366666666668,27.7177,27.729,27.74035	t,t,t,t,t	<img class = center src='/static/experiments/beast_fmri_test/images/D.png'></img>	71,89	2750.0	test	<img class = center src='/static/experiments/beast_fmri_test/images/redD.png'></img>	stop	1300.0	2.0	4.0	stop	target	D	71,Green Button	89,Yellow Button	1450.0	1450.0	1300.0	1300.0	0.0	1450.0	1.0	0.0	stop_stim
134206.08792265831	805.912077342	n/a	1661	71	2750	805.912077342	stim	stop-signal	586	1663893	0.0-19.4-1.4	beast_fmri_test	303	27.695033333333335,27.706366666666668,27.7177,27.729,27.74035	t,t,t,t,t	<img class = center src='/static/experiments/beast_fmri_test/images/D.png'></img>	71,89	2750.0	test	<img class = center src='/static/experiments/beast_fmri_test/images/redD.png'></img>	stop	1300.0	2.0	4.0	stop	target	D	71,Green Button	89,Yellow Button	1450.0	1450.0	1300.0	1300.0	0.0	1450.0	1.0	0.0	ITI
136376.0	500.0	n/a	-1	-1	500	0.0	fixation	poldrack-single-stim	587	1665257	0.0-19.5-0.5	beast_fmri_test	303	27.751683333333332	t	<div class = centerbox><div class = fixation>+</div></div>	none	500.0	test	n/a	n/a	n/a	n/a	n/a	n/a	n/a	n/a	n/a	n/a	n/a	n/a	n/a	n/a	n/a	n/a	n/a	n/a	fixation
136239.89633152867	1450.0	n/a	1493	89	2750	139.103668471	stim	stop-signal	588	1668010	0.0-19.5-1.5	beast_fmri_test	303	27.763,27.77435,27.785666666666668,27.796983333333333	t,t,t,t	<img class = center src='/static/experiments/beast_fmri_test/images/B.png'></img>	71,89	2750.0	test	<img class = center src='/static/experiments/beast_fmri_test/images/redB.png'></img>	stop	1300.0	2.0	5.0	stop	non-target	B	71,Green Button	89,Yellow Button	1400.0	1450.0	1300.0	1300.0	0.0	1450.0	1.0	0.0	go_stim
137539.89633152867	1300.0	n/a	1493	89	2750	139.103668471	stim	stop-signal	588	1668010	0.0-19.5-1.5	beast_fmri_test	303	27.763,27.77435,27.785666666666668,27.796983333333333	t,t,t,t	<img class = center src='/static/experiments/beast_fmri_test/images/B.png'></img>	71,89	2750.0	test	<img class = center src='/static/experiments/beast_fmri_test/images/redB.png'></img>	stop	1300.0	2.0	5.0	stop	non-target	B	71,Green Button	89,Yellow Button	1400.0	1450.0	1300.0	1300.0	0.0	1450.0	1.0	0.0	stop_stim
138989.89633152867	139.103668471	n/a	1493	89	2750	139.103668471	stim	stop-signal	588	1668010	0.0-19.5-1.5	beast_fmri_test	303	27.763,27.77435,27.785666666666668,27.796983333333333	t,t,t,t	<img class = center src='/static/experiments/beast_fmri_test/images/B.png'></img>	71,89	2750.0	test	<img class = center src='/static/experiments/beast_fmri_test/images/redB.png'></img>	stop	1300.0	2.0	5.0	stop	non-target	B	71,Green Button	89,Yellow Button	1400.0	1450.0	1300.0	1300.0	0.0	1450.0	1.0	0.0	ITI
139820.0	500.0	n/a	-1	-1	500	0.0	fixation	poldrack-single-stim	589	1668701	0.0-19.6-0.6	beast_fmri_test	303	27.808333333333334	t	<div class = centerbox><div class = fixation>+</div></div>	none	500.0	test	n/a	n/a	n/a	n/a	n/a	n/a	n/a	n/a	n/a	n/a	n/a	n/a	n/a	n/a	n/a	n/a	n/a	n/a	fixation
139809.97413192713	2750.0	n/a	2050	89	2750	12.025868073	stim	stop-signal	590	1671453	0.0-19.6-1.6	beast_fmri_test	303	27.81965,27.830983333333332,27.842316666666665,27.853633333333335	t,t,t,t	<img class = center src='/static/experiments/beast_fmri_test/images/B.png'></img>	71,89	2750.0	test	<img class = center src='/static/experiments/beast_fmri_test/images/redB.png'></img>	go	1350.0	2.0	6.0	go	non-target	B	71,Green Button	89,Yellow Button	1400.0	1400.0	1300.0	1350.0	1.0	1400.0	1.0	n/a	go_stim
142559.97413192713	12.025868073	n/a	2050	89	2750	12.025868073	stim	stop-signal	590	1671453	0.0-19.6-1.6	beast_fmri_test	303	27.81965,27.830983333333332,27.842316666666665,27.853633333333335	t,t,t,t	<img class = center src='/static/experiments/beast_fmri_test/images/B.png'></img>	71,89	2750.0	test	<img class = center src='/static/experiments/beast_fmri_test/images/redB.png'></img>	go	1350.0	2.0	6.0	go	non-target	B	71,Green Button	89,Yellow Button	1400.0	1400.0	1300.0	1350.0	1.0	1400.0	1.0	n/a	ITI
143135.0	500.0	n/a	-1	-1	500	0.0	fixation	poldrack-single-stim	591	1672016	0.0-19.7-0.7	beast_fmri_test	303	27.864966666666668	t	<div class = centerbox><div class = fixation>+</div></div>	none	500.0	test	n/a	n/a	n/a	n/a	n/a	n/a	n/a	n/a	n/a	n/a	n/a	n/a	n/a	n/a	n/a	n/a	n/a	n/a	fixation
142424.14309512521	2750.0	n/a	2252	89	2750	713.856904875	stim	stop-signal	592	1674769	0.0-19.7-1.7	beast_fmri_test	303	27.876283333333333,27.887616666666666,27.898933333333332,27.910283333333332,27.9216	t,t,t,t,t	<img class = center src='/static/experiments/beast_fmri_test/images/D.png'></img>	71,89	2750.0	test	<img class = center src='/static/experiments/beast_fmri_test/images/redD.png'></img>	go	1350.0	2.0	7.0	go	non-target	D	71,Green Button	89,Yellow Button	1400.0	1400.0	1300.0	1350.0	1.0	1400.0	1.0	n/a	go_stim
145174.14309512521	713.856904875	n/a	2252	89	2750	713.856904875	stim	stop-signal	592	1674769	0.0-19.7-1.7	beast_fmri_test	303	27.876283333333333,27.887616666666666,27.898933333333332,27.910283333333332,27.9216	t,t,t,t,t	<img class = center src='/static/experiments/beast_fmri_test/images/D.png'></img>	71,89	2750.0	test	<img class = center src='/static/experiments/beast_fmri_test/images/redD.png'></img>	go	1350.0	2.0	7.0	go	non-target	D	71,Green Button	89,Yellow Button	1400.0	1400.0	1300.0	1350.0	1.0	1400.0	1.0	n/a	ITI
147159.0	500.0	n/a	-1	-1	500	0.0	fixation	poldrack-single-stim	593	1676040	0.0-19.8-0.8	beast_fmri_test	303	27.932933333333335	t	<div class = centerbox><div class = fixation>+</div></div>	none	500.0	test	n/a	n/a	n/a	n/a	n/a	n/a	n/a	n/a	n/a	n/a	n/a	n/a	n/a	n/a	n/a	n/a	n/a	n/a	fixation
146573.91209669528	2750.0	n/a	2123	89	2750	587.087903305	stim	stop-signal	594	1678792	0.0-19.8-1.8	beast_fmri_test	303	27.944266666666667,27.955583333333333,27.966933333333333,27.97825,27.989583333333332	t,t,t,t,t	<img class = center src='/static/experiments/beast_fmri_test/images/D.png'></img>	71,89	2750.0	test	<img class = center src='/static/experiments/beast_fmri_test/images/redD.png'></img>	go	1350.0	2.0	8.0	go	non-target	D	71,Green Button	89,Yellow Button	1400.0	1400.0	1300.0	1350.0	1.0	1400.0	1.0	n/a	go_stim
149323.91209669528	587.087903305	n/a	2123	89	2750	587.087903305	stim	stop-signal	594	1678792	0.0-19.8-1.8	beast_fmri_test	303	27.944266666666667,27.955583333333333,27.966933333333333,27.97825,27.989583333333332	t,t,t,t,t	<img class = center src='/static/experiments/beast_fmri_test/images/D.png'></img>	71,89	2750.0	test	<img class = center src='/static/experiments/beast_fmri_test/images/redD.png'></img>	go	1350.0	2.0	8.0	go	non-target	D	71,Green Button	89,Yellow Button	1400.0	1400.0	1300.0	1350.0	1.0	1400.0	1.0	n/a	ITI
151055.0	500.0	n/a	-1	-1	500	0.0	fixation	poldrack-single-stim	595	1679936	0.0-19.9-0.9	beast_fmri_test	303	n/a	n/a	<div class = centerbox><div class = fixation>+</div></div>	none	500.0	test	n/a	n/a	n/a	n/a	n/a	n/a	n/a	n/a	n/a	n/a	n/a	n/a	n/a	n/a	n/a	n/a	n/a	n/a	fixation
149733.57656301814	2750.0	n/a	2179	89	2750	1323.42343698	stim	stop-signal	596	1682688	0.0-19.9-1.9	beast_fmri_test	303	28.000916666666665,28.012233333333334,28.023566666666667,28.0349,28.0462,28.05755	t,t,t,t,t,t	<img class = center src='/static/experiments/beast_fmri_test/images/B.png'></img>	71,89	2750.0	test	<img class = center src='/static/experiments/beast_fmri_test/images/redB.png'></img>	go	1350.0	2.0	9.0	go	non-target	B	71,Green Button	89,Yellow Button	1400.0	1400.0	1300.0	1350.0	1.0	1400.0	1.0	n/a	go_stim
152483.57656301814	1323.42343698	n/a	2179	89	2750	1323.42343698	stim	stop-signal	596	1682688	0.0-19.9-1.9	beast_fmri_test	303	28.000916666666665,28.012233333333334,28.023566666666667,28.0349,28.0462,28.05755	t,t,t,t,t,t	<img class = center src='/static/experiments/beast_fmri_test/images/B.png'></img>	71,89	2750.0	test	<img class = center src='/static/experiments/beast_fmri_test/images/redB.png'></img>	go	1350.0	2.0	9.0	go	non-target	B	71,Green Button	89,Yellow Button	1400.0	1400.0	1300.0	1350.0	1.0	1400.0	1.0	n/a	ITI
155685.0	500.0	n/a	-1	-1	500	0.0	fixation	poldrack-single-stim	597	1684566	0.0-19.10-0.10	beast_fmri_test	303	28.06886666666667	t	<div class = centerbox><div class = fixation>+</div></div>	none	500.0	test	n/a	n/a	n/a	n/a	n/a	n/a	n/a	n/a	n/a	n/a	n/a	n/a	n/a	n/a	n/a	n/a	n/a	n/a	fixation
153614.59843012877	2750.0	n/a	1887	71	2750	2070.40156987	stim	stop-signal	598	1687316	0.0-19.10-1.10	beast_fmri_test	303	28.0802,28.091533333333334,28.10285,28.114183333333333,28.125516666666666,28.136833333333332,28.14816666666667	t,t,t,t,t,t,t	<img class = center src='/static/experiments/beast_fmri_test/images/D.png'></img>	71,89	2750.0	test	<img class = center src='/static/experiments/beast_fmri_test/images/redD.png'></img>	go	1350.0	2.0	10.0	go	target	D	71,Green Button	89,Yellow Button	1400.0	1400.0	1350.0	1350.0	1.0	1400.0	1.0	n/a	go_stim
156364.59843012877	2070.40156987	n/a	1887	71	2750	2070.40156987	stim	stop-signal	598	1687316	0.0-19.10-1.10	beast_fmri_test	303	28.0802,28.091533333333334,28.10285,28.114183333333333,28.125516666666666,28.136833333333332,28.14816666666667	t,t,t,t,t,t,t	<img class = center src='/static/experiments/beast_fmri_test/images/D.png'></img>	71,89	2750.0	test	<img class = center src='/static/experiments/beast_fmri_test/images/redD.png'></img>	go	1350.0	2.0	10.0	go	target	D	71,Green Button	89,Yellow Button	1400.0	1400.0	1350.0	1350.0	1.0	1400.0	1.0	n/a	ITI
161061.0	500.0	n/a	-1	-1	500	0.0	fixation	poldrack-single-stim	599	1689942	0.0-19.11-0.11	beast_fmri_test	303	28.1595	t	<div class = centerbox><div class = fixation>+</div></div>	none	500.0	test	n/a	n/a	n/a	n/a	n/a	n/a	n/a	n/a	n/a	n/a	n/a	n/a	n/a	n/a	n/a	n/a	n/a	n/a	fixation
159356.36387987714	1400.0	n/a	1613	71	2750	1704.63612012	stim	stop-signal	600	1692692	0.0-19.11-1.11	beast_fmri_test	303	28.170833333333334,28.18215,28.193483333333333,28.2048,28.21613333333333,28.22745,28.2388	t,t,t,t,t,t,t	<img class = center src='/static/experiments/beast_fmri_test/images/B.png'></img>	71,89	2750.0	test	<img class = center src='/static/experiments/beast_fmri_test/images/redB.png'></img>	stop	1350.0	2.0	11.0	stop	target	B	71,Green Button	89,Yellow Button	1400.0	1400.0	1350.0	1350.0	0.0	1400.0	1.0	0.0	go_stim
160706.36387987714	1350.0	n/a	1613	71	2750	1704.63612012	stim	stop-signal	600	1692692	0.0-19.11-1.11	beast_fmri_test	303	28.170833333333334,28.18215,28.193483333333333,28.2048,28.21613333333333,28.22745,28.2388	t,t,t,t,t,t,t	<img class = center src='/static/experiments/beast_fmri_test/images/B.png'></img>	71,89	2750.0	test	<img class = center src='/static/experiments/beast_fmri_test/images/redB.png'></img>	stop	1350.0	2.0	11.0	stop	target	B	71,Green Button	89,Yellow Button	1400.0	1400.0	1350.0	1350.0	0.0	1400.0	1.0	0.0	stop_stim
162106.36387987714	1704.63612012	n/a	1613	71	2750	1704.63612012	stim	stop-signal	600	1692692	0.0-19.11-1.11	beast_fmri_test	303	28.170833333333334,28.18215,28.193483333333333,28.2048,28.21613333333333,28.22745,28.2388	t,t,t,t,t,t,t	<img class = center src='/static/experiments/beast_fmri_test/images/B.png'></img>	71,89	2750.0	test	<img class = center src='/static/experiments/beast_fmri_test/images/redB.png'></img>	stop	1350.0	2.0	11.0	stop	target	B	71,Green Button	89,Yellow Button	1400.0	1400.0	1350.0	1350.0	0.0	1400.0	1.0	0.0	ITI
166071.0	500.0	n/a	-1	-1	500	0.0	fixation	poldrack-single-stim	601	1694952	0.0-19.12-0.12	beast_fmri_test	303	n/a	n/a	<div class = centerbox><div class = fixation>+</div></div>	none	500.0	test	n/a	n/a	n/a	n/a	n/a	n/a	n/a	n/a	n/a	n/a	n/a	n/a	n/a	n/a	n/a	n/a	n/a	n/a	fixation
165571.90651122131	2750.0	n/a	1356	89	2750	501.093488779	stim	stop-signal	602	1697704	0.0-19.12-1.12	beast_fmri_test	303	28.250116666666667,28.26145,28.272783333333333,28.284083333333335,28.295416666666668	t,t,t,t,t	<img class = center src='/static/experiments/beast_fmri_test/images/T.png'></img>	71,89	2750.0	test	<img class = center src='/static/experiments/beast_fmri_test/images/redT.png'></img>	go	1350.0	2.0	12.0	go	non-target	T	71,Green Button	89,Yellow Button	1350.0	1400.0	1350.0	1350.0	1.0	1400.0	1.0	n/a	go_stim
168321.90651122131	501.093488779	n/a	1356	89	2750	501.093488779	stim	stop-signal	602	1697704	0.0-19.12-1.12	beast_fmri_test	303	28.250116666666667,28.26145,28.272783333333333,28.284083333333335,28.295416666666668	t,t,t,t,t	<img class = center src='/static/experiments/beast_fmri_test/images/T.png'></img>	71,89	2750.0	test	<img class = center src='/static/experiments/beast_fmri_test/images/redT.png'></img>	go	1350.0	2.0	12.0	go	non-target	T	71,Green Button	89,Yellow Button	1350.0	1400.0	1350.0	1350.0	1.0	1400.0	1.0	n/a	ITI
169883.0	500.0	n/a	-1	-1	500	0.0	fixation	poldrack-single-stim	603	1698764	0.0-19.13-0.13	beast_fmri_test	303	28.30675	t	<div class = centerbox><div class = fixation>+</div></div>	none	500.0	test	n/a	n/a	n/a	n/a	n/a	n/a	n/a	n/a	n/a	n/a	n/a	n/a	n/a	n/a	n/a	n/a	n/a	n/a	fixation
168641.21400711848	1400.0	n/a	-1	-1	2750	1243.78599288	stim	stop-signal	604	1701516	0.0-19.13-1.13	beast_fmri_test	303	28.318083333333334,28.329416666666667,28.340733333333333,28.352066666666666,28.363383333333335,28.37473333333333	t,t,t,t,t,t	<img class = center src='/static/experiments/beast_fmri_test/images/V.png'></img>	71,89	2750.0	test	<img class = center src='/static/experiments/beast_fmri_test/images/redV.png'></img>	stop	1350.0	2.0	13.0	stop	non-target	V	71,Green Button	89,Yellow Button	1350.0	1400.0	1350.0	1350.0	0.0	1400.0	0.0	1.0	go_stim
169991.21400711848	1350.0	n/a	-1	-1	2750	1243.78599288	stim	stop-signal	604	1701516	0.0-19.13-1.13	beast_fmri_test	303	28.318083333333334,28.329416666666667,28.340733333333333,28.352066666666666,28.363383333333335,28.37473333333333	t,t,t,t,t,t	<img class = center src='/static/experiments/beast_fmri_test/images/V.png'></img>	71,89	2750.0	test	<img class = center src='/static/experiments/beast_fmri_test/images/redV.png'></img>	stop	1350.0	2.0	13.0	stop	non-target	V	71,Green Button	89,Yellow Button	1350.0	1400.0	1350.0	1350.0	0.0	1400.0	0.0	1.0	stop_stim
171391.21400711848	1243.78599288	n/a	-1	-1	2750	1243.78599288	stim	stop-signal	604	1701516	0.0-19.13-1.13	beast_fmri_test	303	28.318083333333334,28.329416666666667,28.340733333333333,28.352066666666666,28.363383333333335,28.37473333333333	t,t,t,t,t,t	<img class = center src='/static/experiments/beast_fmri_test/images/V.png'></img>	71,89	2750.0	test	<img class = center src='/static/experiments/beast_fmri_test/images/redV.png'></img>	stop	1350.0	2.0	13.0	stop	non-target	V	71,Green Button	89,Yellow Button	1350.0	1400.0	1350.0	1350.0	0.0	1400.0	0.0	1.0	ITI
174433.0	500.0	n/a	-1	-1	500	0.0	fixation	poldrack-single-stim	605	1703314	0.0-19.14-0.14	beast_fmri_test	303	28.386066666666668	t	<div class = centerbox><div class = fixation>+</div></div>	none	500.0	test	n/a	n/a	n/a	n/a	n/a	n/a	n/a	n/a	n/a	n/a	n/a	n/a	n/a	n/a	n/a	n/a	n/a	n/a	fixation
172988.54188921046	2750.0	n/a	2261	89	2750	1446.45811079	stim	stop-signal	606	1706066	0.0-19.14-1.14	beast_fmri_test	303	28.397383333333334,28.408716666666667,28.420066666666667,28.431383333333333,28.442733333333333,28.45405	t,t,t,t,t,t	<img class = center src='/static/experiments/beast_fmri_test/images/V.png'></img>	71,89	2750.0	test	<img class = center src='/static/experiments/beast_fmri_test/images/redV.png'></img>	go	1300.0	2.0	14.0	go	non-target	V	71,Green Button	89,Yellow Button	1350.0	1450.0	1350.0	1300.0	1.0	1450.0	1.0	n/a	go_stim
175738.54188921046	1446.45811079	n/a	2261	89	2750	1446.45811079	stim	stop-signal	606	1706066	0.0-19.14-1.14	beast_fmri_test	303	28.397383333333334,28.408716666666667,28.420066666666667,28.431383333333333,28.442733333333333,28.45405	t,t,t,t,t,t	<img class = center src='/static/experiments/beast_fmri_test/images/V.png'></img>	71,89	2750.0	test	<img class = center src='/static/experiments/beast_fmri_test/images/redV.png'></img>	go	1300.0	2.0	14.0	go	non-target	V	71,Green Button	89,Yellow Button	1350.0	1450.0	1350.0	1300.0	1.0	1450.0	1.0	n/a	ITI
179184.0	500.0	n/a	-1	-1	500	0.0	fixation	poldrack-single-stim	607	1708065	0.0-19.15-0.15	beast_fmri_test	303	28.465366666666668	t	<div class = centerbox><div class = fixation>+</div></div>	none	500.0	test	n/a	n/a	n/a	n/a	n/a	n/a	n/a	n/a	n/a	n/a	n/a	n/a	n/a	n/a	n/a	n/a	n/a	n/a	fixation
178468.48892372195	1350.0	n/a	-1	-1	2750	716.511076278	stim	stop-signal	608	1710816	0.0-19.15-1.15	beast_fmri_test	303	28.4767,28.488,28.49935,28.510683333333333,28.522	t,t,t,t,t	<img class = center src='/static/experiments/beast_fmri_test/images/V.png'></img>	71,89	2750.0	test	<img class = center src='/static/experiments/beast_fmri_test/images/redV.png'></img>	stop	1400.0	2.0	15.0	stop	target	V	71,Green Button	89,Yellow Button	1350.0	1450.0	1400.0	1300.0	0.0	1350.0	0.0	1.0	go_stim
179868.48892372195	1400.0	n/a	-1	-1	2750	716.511076278	stim	stop-signal	608	1710816	0.0-19.15-1.15	beast_fmri_test	303	28.4767,28.488,28.49935,28.510683333333333,28.522	t,t,t,t,t	<img class = center src='/static/experiments/beast_fmri_test/images/V.png'></img>	71,89	2750.0	test	<img class = center src='/static/experiments/beast_fmri_test/images/redV.png'></img>	stop	1400.0	2.0	15.0	stop	target	V	71,Green Button	89,Yellow Button	1350.0	1450.0	1400.0	1300.0	0.0	1350.0	0.0	1.0	stop_stim
181218.48892372195	716.511076278	n/a	-1	-1	2750	716.511076278	stim	stop-signal	608	1710816	0.0-19.15-1.15	beast_fmri_test	303	28.4767,28.488,28.49935,28.510683333333333,28.522	t,t,t,t,t	<img class = center src='/static/experiments/beast_fmri_test/images/V.png'></img>	71,89	2750.0	test	<img class = center src='/static/experiments/beast_fmri_test/images/redV.png'></img>	stop	1400.0	2.0	15.0	stop	target	V	71,Green Button	89,Yellow Button	1350.0	1450.0	1400.0	1300.0	0.0	1350.0	0.0	1.0	ITI
183209.0	500.0	n/a	-1	-1	500	0.0	fixation	poldrack-single-stim	609	1712090	0.0-19.16-0.16	beast_fmri_test	303	28.533333333333335	t	<div class = centerbox><div class = fixation>+</div></div>	none	500.0	test	n/a	n/a	n/a	n/a	n/a	n/a	n/a	n/a	n/a	n/a	n/a	n/a	n/a	n/a	n/a	n/a	n/a	n/a	fixation
182824.38692905218	2750.0	n/a	1982	89	2750	386.613070948	stim	stop-signal	610	1714842	0.0-19.16-1.16	beast_fmri_test	303	28.544666666666668,28.555983333333334,28.567316666666667,28.578633333333332	t,t,t,t	<img class = center src='/static/experiments/beast_fmri_test/images/B.png'></img>	71,89	2750.0	test	<img class = center src='/static/experiments/beast_fmri_test/images/redB.png'></img>	go	1300.0	2.0	16.0	go	non-target	B	71,Green Button	89,Yellow Button	1400.0	1450.0	1400.0	1300.0	1.0	1450.0	1.0	n/a	go_stim
185574.38692905218	386.613070948	n/a	1982	89	2750	386.613070948	stim	stop-signal	610	1714842	0.0-19.16-1.16	beast_fmri_test	303	28.544666666666668,28.555983333333334,28.567316666666667,28.578633333333332	t,t,t,t	<img class = center src='/static/experiments/beast_fmri_test/images/B.png'></img>	71,89	2750.0	test	<img class = center src='/static/experiments/beast_fmri_test/images/redB.png'></img>	go	1300.0	2.0	16.0	go	non-target	B	71,Green Button	89,Yellow Button	1400.0	1450.0	1400.0	1300.0	1.0	1450.0	1.0	n/a	ITI
186909.0	500.0	n/a	-1	-1	500	0.0	fixation	poldrack-single-stim	611	1715790	0.0-19.17-0.17	beast_fmri_test	303	28.589983333333333	t	<div class = centerbox><div class = fixation>+</div></div>	none	500.0	test	n/a	n/a	n/a	n/a	n/a	n/a	n/a	n/a	n/a	n/a	n/a	n/a	n/a	n/a	n/a	n/a	n/a	n/a	fixation
186843.40818876727	2750.0	n/a	2170	89	2750	68.5918112328	stim	stop-signal	612	1718543	0.0-19.17-1.17	beast_fmri_test	303	28.6013,28.612633333333335,28.623966666666668,28.635283333333334	t,t,t,t	<img class = center src='/static/experiments/beast_fmri_test/images/V.png'></img>	71,89	2750.0	test	<img class = center src='/static/experiments/beast_fmri_test/images/redV.png'></img>	go	1350.0	2.0	17.0	go	target	V	71,Green Button	89,Yellow Button	1400.0	1450.0	1350.0	1300.0	0.0	1400.0	0.0	n/a	go_stim
189593.40818876727	68.5918112328	n/a	2170	89	2750	68.5918112328	stim	stop-signal	612	1718543	0.0-19.17-1.17	beast_fmri_test	303	28.6013,28.612633333333335,28.623966666666668,28.635283333333334	t,t,t,t	<img class = center src='/static/experiments/beast_fmri_test/images/V.png'></img>	71,89	2750.0	test	<img class = center src='/static/experiments/beast_fmri_test/images/redV.png'></img>	go	1350.0	2.0	17.0	go	target	V	71,Green Button	89,Yellow Button	1400.0	1450.0	1350.0	1300.0	0.0	1400.0	0.0	n/a	ITI
190294.0	500.0	n/a	-1	-1	500	0.0	fixation	poldrack-single-stim	613	1719175	0.0-19.18-0.18	beast_fmri_test	303	28.6466	t	<div class = centerbox><div class = fixation>+</div></div>	none	500.0	test	n/a	n/a	n/a	n/a	n/a	n/a	n/a	n/a	n/a	n/a	n/a	n/a	n/a	n/a	n/a	n/a	n/a	n/a	fixation
190005.36264427379	2750.0	n/a	2102	89	2750	290.637355726	stim	stop-signal	614	1721927	0.0-19.18-1.18	beast_fmri_test	303	28.657933333333332,28.669266666666665,28.6806,28.691916666666668,28.70325	t,t,t,t,t	<img class = center src='/static/experiments/beast_fmri_test/images/V.png'></img>	71,89	2750.0	test	<img class = center src='/static/experiments/beast_fmri_test/images/redV.png'></img>	go	1300.0	2.0	18.0	go	non-target	V	71,Green Button	89,Yellow Button	1400.0	1450.0	1350.0	1300.0	1.0	1450.0	1.0	n/a	go_stim
192755.36264427379	290.637355726	n/a	2102	89	2750	290.637355726	stim	stop-signal	614	1721927	0.0-19.18-1.18	beast_fmri_test	303	28.657933333333332,28.669266666666665,28.6806,28.691916666666668,28.70325	t,t,t,t,t	<img class = center src='/static/experiments/beast_fmri_test/images/V.png'></img>	71,89	2750.0	test	<img class = center src='/static/experiments/beast_fmri_test/images/redV.png'></img>	go	1300.0	2.0	18.0	go	non-target	V	71,Green Button	89,Yellow Button	1400.0	1450.0	1350.0	1300.0	1.0	1450.0	1.0	n/a	ITI
193895.0	500.0	n/a	-1	-1	500	0.0	fixation	poldrack-single-stim	615	1722776	0.0-19.19-0.19	beast_fmri_test	303	n/a	n/a	<div class = centerbox><div class = fixation>+</div></div>	none	500.0	test	n/a	n/a	n/a	n/a	n/a	n/a	n/a	n/a	n/a	n/a	n/a	n/a	n/a	n/a	n/a	n/a	n/a	n/a	fixation
192777.54195591598	2750.0	n/a	2700	89	2750	1119.45804408	stim	stop-signal	616	1725528	0.0-19.19-1.19	beast_fmri_test	303	28.714566666666666,28.7259,28.73725,28.74855,28.759866666666667,28.771216666666668	t,t,t,t,t,t	<img class = center src='/static/experiments/beast_fmri_test/images/T.png'></img>	71,89	2750.0	test	<img class = center src='/static/experiments/beast_fmri_test/images/redT.png'></img>	go	1300.0	2.0	19.0	go	non-target	T	71,Green Button	89,Yellow Button	1400.0	1450.0	1350.0	1300.0	1.0	1450.0	1.0	n/a	go_stim
195527.54195591598	1119.45804408	n/a	2700	89	2750	1119.45804408	stim	stop-signal	616	1725528	0.0-19.19-1.19	beast_fmri_test	303	28.714566666666666,28.7259,28.73725,28.74855,28.759866666666667,28.771216666666668	t,t,t,t,t,t	<img class = center src='/static/experiments/beast_fmri_test/images/T.png'></img>	71,89	2750.0	test	<img class = center src='/static/experiments/beast_fmri_test/images/redT.png'></img>	go	1300.0	2.0	19.0	go	non-target	T	71,Green Button	89,Yellow Button	1400.0	1450.0	1350.0	1300.0	1.0	1450.0	1.0	n/a	ITI
198339.0	500.0	n/a	-1	-1	500	0.0	fixation	poldrack-single-stim	617	1727220	0.0-19.20-0.20	beast_fmri_test	303	28.78255	t	<div class = centerbox><div class = fixation>+</div></div>	none	500.0	test	n/a	n/a	n/a	n/a	n/a	n/a	n/a	n/a	n/a	n/a	n/a	n/a	n/a	n/a	n/a	n/a	n/a	n/a	fixation
197897.1059287989	2750.0	n/a	1278	89	2750	443.894071201	stim	stop-signal	618	1729972	0.0-19.20-1.20	beast_fmri_test	303	28.793866666666666,28.8052,28.816533333333332,28.82785,28.839183333333335	t,t,t,t,t	<img class = center src='/static/experiments/beast_fmri_test/images/B.png'></img>	71,89	2750.0	test	<img class = center src='/static/experiments/beast_fmri_test/images/redB.png'></img>	go	1300.0	2.0	20.0	go	non-target	B	71,Green Button	89,Yellow Button	1400.0	1450.0	1350.0	1300.0	1.0	1450.0	1.0	n/a	go_stim
200647.1059287989	443.894071201	n/a	1278	89	2750	443.894071201	stim	stop-signal	618	1729972	0.0-19.20-1.20	beast_fmri_test	303	28.793866666666666,28.8052,28.816533333333332,28.82785,28.839183333333335	t,t,t,t,t	<img class = center src='/static/experiments/beast_fmri_test/images/B.png'></img>	71,89	2750.0	test	<img class = center src='/static/experiments/beast_fmri_test/images/redB.png'></img>	go	1300.0	2.0	20.0	go	non-target	B	71,Green Button	89,Yellow Button	1400.0	1450.0	1350.0	1300.0	1.0	1450.0	1.0	n/a	ITI
202091.0	500.0	n/a	-1	-1	500	0.0	fixation	poldrack-single-stim	619	1730972	0.0-19.21-0.21	beast_fmri_test	303	n/a	n/a	<div class = centerbox><div class = fixation>+</div></div>	none	500.0	test	n/a	n/a	n/a	n/a	n/a	n/a	n/a	n/a	n/a	n/a	n/a	n/a	n/a	n/a	n/a	n/a	n/a	n/a	fixation
201551.24804788292	2750.0	n/a	2074	89	2750	539.751952117	stim	stop-signal	620	1733722	0.0-19.21-1.21	beast_fmri_test	303	28.850533333333335,28.861833333333333,28.873166666666666,28.884483333333332,28.895816666666665	t,t,t,t,t	<img class = center src='/static/experiments/beast_fmri_test/images/V.png'></img>	71,89	2750.0	test	<img class = center src='/static/experiments/beast_fmri_test/images/redV.png'></img>	go	1300.0	2.0	21.0	go	non-target	V	71,Green Button	89,Yellow Button	1400.0	1450.0	1350.0	1300.0	1.0	1450.0	1.0	n/a	go_stim
204301.24804788292	539.751952117	n/a	2074	89	2750	539.751952117	stim	stop-signal	620	1733722	0.0-19.21-1.21	beast_fmri_test	303	28.850533333333335,28.861833333333333,28.873166666666666,28.884483333333332,28.895816666666665	t,t,t,t,t	<img class = center src='/static/experiments/beast_fmri_test/images/V.png'></img>	71,89	2750.0	test	<img class = center src='/static/experiments/beast_fmri_test/images/redV.png'></img>	go	1300.0	2.0	21.0	go	non-target	V	71,Green Button	89,Yellow Button	1400.0	1450.0	1350.0	1300.0	1.0	1450.0	1.0	n/a	ITI
205938.0	500.0	n/a	-1	-1	500	0.0	fixation	poldrack-single-stim	621	1734819	0.0-19.22-0.22	beast_fmri_test	303	28.907166666666665	t	<div class = centerbox><div class = fixation>+</div></div>	none	500.0	test	n/a	n/a	n/a	n/a	n/a	n/a	n/a	n/a	n/a	n/a	n/a	n/a	n/a	n/a	n/a	n/a	n/a	n/a	fixation
204981.68544530869	2750.0	n/a	1894	89	2750	958.314554691	stim	stop-signal	622	1737571	0.0-19.22-1.22	beast_fmri_test	303	28.9185,28.929816666666667,28.94115,28.95245,28.9638,28.975133333333332	t,t,t,t,t,t	<img class = center src='/static/experiments/beast_fmri_test/images/T.png'></img>	71,89	2750.0	test	<img class = center src='/static/experiments/beast_fmri_test/images/redT.png'></img>	go	1300.0	2.0	22.0	go	non-target	T	71,Green Button	89,Yellow Button	1400.0	1450.0	1350.0	1300.0	1.0	1450.0	1.0	n/a	go_stim
207731.68544530869	958.314554691	n/a	1894	89	2750	958.314554691	stim	stop-signal	622	1737571	0.0-19.22-1.22	beast_fmri_test	303	28.9185,28.929816666666667,28.94115,28.95245,28.9638,28.975133333333332	t,t,t,t,t,t	<img class = center src='/static/experiments/beast_fmri_test/images/T.png'></img>	71,89	2750.0	test	<img class = center src='/static/experiments/beast_fmri_test/images/redT.png'></img>	go	1300.0	2.0	22.0	go	non-target	T	71,Green Button	89,Yellow Button	1400.0	1450.0	1350.0	1300.0	1.0	1450.0	1.0	n/a	ITI
210203.0	500.0	n/a	-1	-1	500	0.0	fixation	poldrack-single-stim	623	1739084	0.0-19.23-0.23	beast_fmri_test	303	n/a	n/a	<div class = centerbox><div class = fixation>+</div></div>	none	500.0	test	n/a	n/a	n/a	n/a	n/a	n/a	n/a	n/a	n/a	n/a	n/a	n/a	n/a	n/a	n/a	n/a	n/a	n/a	fixation
208742.32767883781	2750.0	n/a	1908	89	2750	1462.67232116	stim	stop-signal	624	1741836	0.0-19.23-1.23	beast_fmri_test	303	28.986466666666665,28.997783333333334,29.009116666666667,29.020433333333333,29.031766666666666,29.0431,29.054433333333332	t,t,t,t,t,t,t	<img class = center src='/static/experiments/beast_fmri_test/images/V.png'></img>	71,89	2750.0	test	<img class = center src='/static/experiments/beast_fmri_test/images/redV.png'></img>	go	1350.0	2.0	23.0	go	target	V	71,Green Button	89,Yellow Button	1400.0	1450.0	1350.0	1300.0	0.0	1400.0	0.0	n/a	go_stim
211492.32767883781	1462.67232116	n/a	1908	89	2750	1462.67232116	stim	stop-signal	624	1741836	0.0-19.23-1.23	beast_fmri_test	303	28.986466666666665,28.997783333333334,29.009116666666667,29.020433333333333,29.031766666666666,29.0431,29.054433333333332	t,t,t,t,t,t,t	<img class = center src='/static/experiments/beast_fmri_test/images/V.png'></img>	71,89	2750.0	test	<img class = center src='/static/experiments/beast_fmri_test/images/redV.png'></img>	go	1350.0	2.0	23.0	go	target	V	71,Green Button	89,Yellow Button	1400.0	1450.0	1350.0	1300.0	0.0	1400.0	0.0	n/a	ITI
214974.0	500.0	n/a	-1	-1	500	0.0	fixation	poldrack-single-stim	625	1743855	0.0-19.24-0.24	beast_fmri_test	303	n/a	n/a	<div class = centerbox><div class = fixation>+</div></div>	none	500.0	test	n/a	n/a	n/a	n/a	n/a	n/a	n/a	n/a	n/a	n/a	n/a	n/a	n/a	n/a	n/a	n/a	n/a	n/a	fixation
214659.3969233972	2750.0	n/a	1688	89	2750	316.603076603	stim	stop-signal	626	1746607	0.0-19.24-1.24	beast_fmri_test	303	29.065733333333334,29.077083333333334,29.088416666666667,29.099733333333333,29.11105	t,t,t,t,t	<img class = center src='/static/experiments/beast_fmri_test/images/P.png'></img>	71,89	2750.0	test	<img class = center src='/static/experiments/beast_fmri_test/images/redP.png'></img>	go	1300.0	2.0	24.0	go	non-target	P	71,Green Button	89,Yellow Button	1400.0	1450.0	1350.0	1300.0	1.0	1450.0	1.0	n/a	go_stim
217409.3969233972	316.603076603	n/a	1688	89	2750	316.603076603	stim	stop-signal	626	1746607	0.0-19.24-1.24	beast_fmri_test	303	29.065733333333334,29.077083333333334,29.088416666666667,29.099733333333333,29.11105	t,t,t,t,t	<img class = center src='/static/experiments/beast_fmri_test/images/P.png'></img>	71,89	2750.0	test	<img class = center src='/static/experiments/beast_fmri_test/images/redP.png'></img>	go	1300.0	2.0	24.0	go	non-target	P	71,Green Button	89,Yellow Button	1400.0	1450.0	1350.0	1300.0	1.0	1450.0	1.0	n/a	ITI
218602.0	500.0	n/a	-1	-1	500	0.0	fixation	poldrack-single-stim	627	1747483	0.0-19.25-0.25	beast_fmri_test	303	29.12238333333333	t	<div class = centerbox><div class = fixation>+</div></div>	none	500.0	test	n/a	n/a	n/a	n/a	n/a	n/a	n/a	n/a	n/a	n/a	n/a	n/a	n/a	n/a	n/a	n/a	n/a	n/a	fixation
217620.88759100973	1450.0	n/a	-1	-1	2750	982.11240899	stim	stop-signal	628	1750234	0.0-19.25-1.25	beast_fmri_test	303	29.133733333333332,29.14505,29.156383333333334,29.1677,29.179033333333333	t,t,t,t,t	<img class = center src='/static/experiments/beast_fmri_test/images/B.png'></img>	71,89	2750.0	test	<img class = center src='/static/experiments/beast_fmri_test/images/redB.png'></img>	stop	1300.0	2.0	25.0	stop	non-target	B	71,Green Button	89,Yellow Button	1400.0	1450.0	1350.0	1300.0	0.0	1450.0	0.0	1.0	go_stim
218920.88759100973	1300.0	n/a	-1	-1	2750	982.11240899	stim	stop-signal	628	1750234	0.0-19.25-1.25	beast_fmri_test	303	29.133733333333332,29.14505,29.156383333333334,29.1677,29.179033333333333	t,t,t,t,t	<img class = center src='/static/experiments/beast_fmri_test/images/B.png'></img>	71,89	2750.0	test	<img class = center src='/static/experiments/beast_fmri_test/images/redB.png'></img>	stop	1300.0	2.0	25.0	stop	non-target	B	71,Green Button	89,Yellow Button	1400.0	1450.0	1350.0	1300.0	0.0	1450.0	0.0	1.0	stop_stim
220370.88759100973	982.11240899	n/a	-1	-1	2750	982.11240899	stim	stop-signal	628	1750234	0.0-19.25-1.25	beast_fmri_test	303	29.133733333333332,29.14505,29.156383333333334,29.1677,29.179033333333333	t,t,t,t,t	<img class = center src='/static/experiments/beast_fmri_test/images/B.png'></img>	71,89	2750.0	test	<img class = center src='/static/experiments/beast_fmri_test/images/redB.png'></img>	stop	1300.0	2.0	25.0	stop	non-target	B	71,Green Button	89,Yellow Button	1400.0	1450.0	1350.0	1300.0	0.0	1450.0	0.0	1.0	ITI
222891.0	500.0	n/a	-1	-1	500	0.0	fixation	poldrack-single-stim	629	1751772	0.0-19.26-0.26	beast_fmri_test	303	29.19035	t	<div class = centerbox><div class = fixation>+</div></div>	none	500.0	test	n/a	n/a	n/a	n/a	n/a	n/a	n/a	n/a	n/a	n/a	n/a	n/a	n/a	n/a	n/a	n/a	n/a	n/a	fixation
222493.20824084128	2750.0	n/a	1411	71	2750	400.791759159	stim	stop-signal	630	1754525	0.0-19.26-1.26	beast_fmri_test	303	29.20168333333333,29.213016666666668,29.22435,29.235683333333334,29.247	t,t,t,t,t	<img class = center src='/static/experiments/beast_fmri_test/images/P.png'></img>	71,89	2750.0	test	<img class = center src='/static/experiments/beast_fmri_test/images/redP.png'></img>	go	1350.0	2.0	26.0	go	target	P	71,Green Button	89,Yellow Button	1400.0	1500.0	1350.0	1300.0	1.0	1400.0	1.0	n/a	go_stim
225243.20824084128	400.791759159	n/a	1411	71	2750	400.791759159	stim	stop-signal	630	1754525	0.0-19.26-1.26	beast_fmri_test	303	29.20168333333333,29.213016666666668,29.22435,29.235683333333334,29.247	t,t,t,t,t	<img class = center src='/static/experiments/beast_fmri_test/images/P.png'></img>	71,89	2750.0	test	<img class = center src='/static/experiments/beast_fmri_test/images/redP.png'></img>	go	1350.0	2.0	26.0	go	target	P	71,Green Button	89,Yellow Button	1400.0	1500.0	1350.0	1300.0	1.0	1400.0	1.0	n/a	ITI
226605.0	500.0	n/a	-1	-1	500	0.0	fixation	poldrack-single-stim	631	1755486	0.0-19.27-0.27	beast_fmri_test	303	n/a	n/a	<div class = centerbox><div class = fixation>+</div></div>	none	500.0	test	n/a	n/a	n/a	n/a	n/a	n/a	n/a	n/a	n/a	n/a	n/a	n/a	n/a	n/a	n/a	n/a	n/a	n/a	fixation
226323.69376124442	1500.0	n/a	-1	-1	2750	282.306238756	stim	stop-signal	632	1758237	0.0-19.27-1.27	beast_fmri_test	303	29.25835,29.26965,29.280966666666668,29.292316666666668,29.303633333333334	t,t,t,t,t	<img class = center src='/static/experiments/beast_fmri_test/images/D.png'></img>	71,89	2750.0	test	<img class = center src='/static/experiments/beast_fmri_test/images/redD.png'></img>	stop	1250.0	2.0	27.0	stop	non-target	D	71,Green Button	89,Yellow Button	1400.0	1500.0	1350.0	1250.0	0.0	1500.0	0.0	1.0	go_stim
227573.69376124442	1250.0	n/a	-1	-1	2750	282.306238756	stim	stop-signal	632	1758237	0.0-19.27-1.27	beast_fmri_test	303	29.25835,29.26965,29.280966666666668,29.292316666666668,29.303633333333334	t,t,t,t,t	<img class = center src='/static/experiments/beast_fmri_test/images/D.png'></img>	71,89	2750.0	test	<img class = center src='/static/experiments/beast_fmri_test/images/redD.png'></img>	stop	1250.0	2.0	27.0	stop	non-target	D	71,Green Button	89,Yellow Button	1400.0	1500.0	1350.0	1250.0	0.0	1500.0	0.0	1.0	stop_stim
229073.69376124442	282.306238756	n/a	-1	-1	2750	282.306238756	stim	stop-signal	632	1758237	0.0-19.27-1.27	beast_fmri_test	303	29.25835,29.26965,29.280966666666668,29.292316666666668,29.303633333333334	t,t,t,t,t	<img class = center src='/static/experiments/beast_fmri_test/images/D.png'></img>	71,89	2750.0	test	<img class = center src='/static/experiments/beast_fmri_test/images/redD.png'></img>	stop	1250.0	2.0	27.0	stop	non-target	D	71,Green Button	89,Yellow Button	1400.0	1500.0	1350.0	1250.0	0.0	1500.0	0.0	1.0	ITI
230205.0	500.0	n/a	-1	-1	500	0.0	fixation	poldrack-single-stim	633	1759086	0.0-19.28-0.28	beast_fmri_test	303	29.314966666666667	t	<div class = centerbox><div class = fixation>+</div></div>	none	500.0	test	n/a	n/a	n/a	n/a	n/a	n/a	n/a	n/a	n/a	n/a	n/a	n/a	n/a	n/a	n/a	n/a	n/a	n/a	fixation
229201.24706988782	2750.0	n/a	1852	89	2750	1005.75293011	stim	stop-signal	634	1761838	0.0-19.28-1.28	beast_fmri_test	303	29.3263,29.337633333333333,29.34895,29.360283333333335,29.3716	t,t,t,t,t	<img class = center src='/static/experiments/beast_fmri_test/images/D.png'></img>	71,89	2750.0	test	<img class = center src='/static/experiments/beast_fmri_test/images/redD.png'></img>	go	1250.0	2.0	28.0	go	non-target	D	71,Green Button	89,Yellow Button	1400.0	1500.0	1350.0	1250.0	1.0	1500.0	1.0	n/a	go_stim
231951.24706988782	1005.75293011	n/a	1852	89	2750	1005.75293011	stim	stop-signal	634	1761838	0.0-19.28-1.28	beast_fmri_test	303	29.3263,29.337633333333333,29.34895,29.360283333333335,29.3716	t,t,t,t,t	<img class = center src='/static/experiments/beast_fmri_test/images/D.png'></img>	71,89	2750.0	test	<img class = center src='/static/experiments/beast_fmri_test/images/redD.png'></img>	go	1250.0	2.0	28.0	go	non-target	D	71,Green Button	89,Yellow Button	1400.0	1500.0	1350.0	1250.0	1.0	1500.0	1.0	n/a	ITI
234531.0	500.0	n/a	-1	-1	500	0.0	fixation	poldrack-single-stim	635	1763412	0.0-19.29-0.29	beast_fmri_test	303	29.38295	t	<div class = centerbox><div class = fixation>+</div></div>	none	500.0	test	n/a	n/a	n/a	n/a	n/a	n/a	n/a	n/a	n/a	n/a	n/a	n/a	n/a	n/a	n/a	n/a	n/a	n/a	fixation
234137.90721992636	2750.0	n/a	2014	89	2750	395.092780074	stim	stop-signal	636	1766164	0.0-19.29-1.29	beast_fmri_test	303	29.394283333333334,29.4056,29.416966666666667,29.42825,29.439583333333335	t,t,t,t,t	<img class = center src='/static/experiments/beast_fmri_test/images/V.png'></img>	71,89	2750.0	test	<img class = center src='/static/experiments/beast_fmri_test/images/redV.png'></img>	go	1250.0	2.0	29.0	go	non-target	V	71,Green Button	89,Yellow Button	1400.0	1500.0	1350.0	1250.0	1.0	1500.0	1.0	n/a	go_stim
236887.90721992636	395.092780074	n/a	2014	89	2750	395.092780074	stim	stop-signal	636	1766164	0.0-19.29-1.29	beast_fmri_test	303	29.394283333333334,29.4056,29.416966666666667,29.42825,29.439583333333335	t,t,t,t,t	<img class = center src='/static/experiments/beast_fmri_test/images/V.png'></img>	71,89	2750.0	test	<img class = center src='/static/experiments/beast_fmri_test/images/redV.png'></img>	go	1250.0	2.0	29.0	go	non-target	V	71,Green Button	89,Yellow Button	1400.0	1500.0	1350.0	1250.0	1.0	1500.0	1.0	n/a	ITI
238238.0	500.0	n/a	-1	-1	500	0.0	fixation	poldrack-single-stim	637	1767119	0.0-19.30-0.30	beast_fmri_test	303	29.450916666666668	t	<div class = centerbox><div class = fixation>+</div></div>	none	500.0	test	n/a	n/a	n/a	n/a	n/a	n/a	n/a	n/a	n/a	n/a	n/a	n/a	n/a	n/a	n/a	n/a	n/a	n/a	fixation
237756.40364595409	2750.0	n/a	2431	89	2750	483.596354046	stim	stop-signal	638	1769871	0.0-19.30-1.30	beast_fmri_test	303	29.46225,29.473583333333334,29.484916666666667,29.496216666666665	t,t,t,t	<img class = center src='/static/experiments/beast_fmri_test/images/B.png'></img>	71,89	2750.0	test	<img class = center src='/static/experiments/beast_fmri_test/images/redB.png'></img>	go	1250.0	2.0	30.0	go	non-target	B	71,Green Button	89,Yellow Button	1400.0	1500.0	1350.0	1250.0	1.0	1500.0	1.0	n/a	go_stim
240506.40364595409	483.596354046	n/a	2431	89	2750	483.596354046	stim	stop-signal	638	1769871	0.0-19.30-1.30	beast_fmri_test	303	29.46225,29.473583333333334,29.484916666666667,29.496216666666665	t,t,t,t	<img class = center src='/static/experiments/beast_fmri_test/images/B.png'></img>	71,89	2750.0	test	<img class = center src='/static/experiments/beast_fmri_test/images/redB.png'></img>	go	1250.0	2.0	30.0	go	non-target	B	71,Green Button	89,Yellow Button	1400.0	1500.0	1350.0	1250.0	1.0	1500.0	1.0	n/a	ITI
242038.0	500.0	n/a	-1	-1	500	0.0	fixation	poldrack-single-stim	639	1770919	0.0-19.31-0.31	beast_fmri_test	303	29.507533333333335	t	<div class = centerbox><div class = fixation>+</div></div>	none	500.0	test	n/a	n/a	n/a	n/a	n/a	n/a	n/a	n/a	n/a	n/a	n/a	n/a	n/a	n/a	n/a	n/a	n/a	n/a	fixation
241752.94097851426	1400.0	n/a	-1	-1	2750	287.059021486	stim	stop-signal	640	1773671	0.0-19.31-1.31	beast_fmri_test	303	29.518883333333335,29.5302,29.541533333333334,29.552866666666667,29.564166666666665	t,t,t,t,t	<img class = center src='/static/experiments/beast_fmri_test/images/V.png'></img>	71,89	2750.0	test	<img class = center src='/static/experiments/beast_fmri_test/images/redV.png'></img>	stop	1350.0	2.0	31.0	stop	target	V	71,Green Button	89,Yellow Button	1400.0	1500.0	1350.0	1250.0	0.0	1400.0	0.0	1.0	go_stim
243102.94097851426	1350.0	n/a	-1	-1	2750	287.059021486	stim	stop-signal	640	1773671	0.0-19.31-1.31	beast_fmri_test	303	29.518883333333335,29.5302,29.541533333333334,29.552866666666667,29.564166666666665	t,t,t,t,t	<img class = center src='/static/experiments/beast_fmri_test/images/V.png'></img>	71,89	2750.0	test	<img class = center src='/static/experiments/beast_fmri_test/images/redV.png'></img>	stop	1350.0	2.0	31.0	stop	target	V	71,Green Button	89,Yellow Button	1400.0	1500.0	1350.0	1250.0	0.0	1400.0	0.0	1.0	stop_stim
244502.94097851426	287.059021486	n/a	-1	-1	2750	287.059021486	stim	stop-signal	640	1773671	0.0-19.31-1.31	beast_fmri_test	303	29.518883333333335,29.5302,29.541533333333334,29.552866666666667,29.564166666666665	t,t,t,t,t	<img class = center src='/static/experiments/beast_fmri_test/images/V.png'></img>	71,89	2750.0	test	<img class = center src='/static/experiments/beast_fmri_test/images/redV.png'></img>	stop	1350.0	2.0	31.0	stop	target	V	71,Green Button	89,Yellow Button	1400.0	1500.0	1350.0	1250.0	0.0	1400.0	0.0	1.0	ITI
245642.0	500.0	n/a	-1	-1	500	0.0	fixation	poldrack-single-stim	641	1774523	0.0-19.32-0.32	beast_fmri_test	303	n/a	n/a	<div class = centerbox><div class = fixation>+</div></div>	none	500.0	test	n/a	n/a	n/a	n/a	n/a	n/a	n/a	n/a	n/a	n/a	n/a	n/a	n/a	n/a	n/a	n/a	n/a	n/a	fixation
245562.99186147214	2750.0	n/a	1523	71	2750	80.0081385278	stim	stop-signal	642	1777274	0.0-19.32-1.32	beast_fmri_test	303	29.575583333333334,29.58685,29.598166666666668,29.6095,29.620833333333334	t,t,t,t,t	<img class = center src='/static/experiments/beast_fmri_test/images/B.png'></img>	71,89	2750.0	test	<img class = center src='/static/experiments/beast_fmri_test/images/redB.png'></img>	go	1300.0	2.0	32.0	go	target	B	71,Green Button	89,Yellow Button	1450.0	1500.0	1300.0	1250.0	1.0	1450.0	1.0	n/a	go_stim
248312.99186147214	80.0081385278	n/a	1523	71	2750	80.0081385278	stim	stop-signal	642	1777274	0.0-19.32-1.32	beast_fmri_test	303	29.575583333333334,29.58685,29.598166666666668,29.6095,29.620833333333334	t,t,t,t,t	<img class = center src='/static/experiments/beast_fmri_test/images/B.png'></img>	71,89	2750.0	test	<img class = center src='/static/experiments/beast_fmri_test/images/redB.png'></img>	go	1300.0	2.0	32.0	go	target	B	71,Green Button	89,Yellow Button	1450.0	1500.0	1300.0	1250.0	1.0	1450.0	1.0	n/a	ITI
249032.0	500.0	n/a	-1	-1	500	0.0	fixation	poldrack-single-stim	643	1777913	0.0-19.33-0.33	beast_fmri_test	303	n/a	n/a	<div class = centerbox><div class = fixation>+</div></div>	none	500.0	test	n/a	n/a	n/a	n/a	n/a	n/a	n/a	n/a	n/a	n/a	n/a	n/a	n/a	n/a	n/a	n/a	n/a	n/a	fixation
248401.01411600271	1500.0	n/a	1705	89	2750	632.985883997	stim	stop-signal	644	1780665	0.0-19.33-1.33	beast_fmri_test	303	29.632166666666667,29.643483333333332,29.654816666666665,29.666133333333335,29.67745	t,t,t,t,t	<img class = center src='/static/experiments/beast_fmri_test/images/T.png'></img>	71,89	2750.0	test	<img class = center src='/static/experiments/beast_fmri_test/images/redT.png'></img>	stop	1250.0	2.0	33.0	stop	non-target	T	71,Green Button	89,Yellow Button	1450.0	1500.0	1300.0	1250.0	0.0	1500.0	1.0	0.0	go_stim
249651.01411600271	1250.0	n/a	1705	89	2750	632.985883997	stim	stop-signal	644	1780665	0.0-19.33-1.33	beast_fmri_test	303	29.632166666666667,29.643483333333332,29.654816666666665,29.666133333333335,29.67745	t,t,t,t,t	<img class = center src='/static/experiments/beast_fmri_test/images/T.png'></img>	71,89	2750.0	test	<img class = center src='/static/experiments/beast_fmri_test/images/redT.png'></img>	stop	1250.0	2.0	33.0	stop	non-target	T	71,Green Button	89,Yellow Button	1450.0	1500.0	1300.0	1250.0	0.0	1500.0	1.0	0.0	stop_stim
251151.01411600271	632.985883997	n/a	1705	89	2750	632.985883997	stim	stop-signal	644	1780665	0.0-19.33-1.33	beast_fmri_test	303	29.632166666666667,29.643483333333332,29.654816666666665,29.666133333333335,29.67745	t,t,t,t,t	<img class = center src='/static/experiments/beast_fmri_test/images/T.png'></img>	71,89	2750.0	test	<img class = center src='/static/experiments/beast_fmri_test/images/redT.png'></img>	stop	1250.0	2.0	33.0	stop	non-target	T	71,Green Button	89,Yellow Button	1450.0	1500.0	1300.0	1250.0	0.0	1500.0	1.0	0.0	ITI
252980.0	500.0	n/a	-1	-1	500	0.0	fixation	poldrack-single-stim	645	1781861	0.0-19.34-0.34	beast_fmri_test	303	29.689316666666667	t	<div class = centerbox><div class = fixation>+</div></div>	none	500.0	test	n/a	n/a	n/a	n/a	n/a	n/a	n/a	n/a	n/a	n/a	n/a	n/a	n/a	n/a	n/a	n/a	n/a	n/a	fixation
252514.4831216794	2750.0	n/a	1540	89	2750	467.516878321	stim	stop-signal	646	1784613	0.0-19.34-1.34	beast_fmri_test	303	29.700116666666666,29.71145,29.722783333333332,29.7341,29.745433333333335	t,t,t,t,t	<img class = center src='/static/experiments/beast_fmri_test/images/V.png'></img>	71,89	2750.0	test	<img class = center src='/static/experiments/beast_fmri_test/images/redV.png'></img>	go	1300.0	2.0	34.0	go	non-target	V	71,Green Button	89,Yellow Button	1450.0	1450.0	1300.0	1300.0	1.0	1450.0	1.0	n/a	go_stim
255264.4831216794	467.516878321	n/a	1540	89	2750	467.516878321	stim	stop-signal	646	1784613	0.0-19.34-1.34	beast_fmri_test	303	29.700116666666666,29.71145,29.722783333333332,29.7341,29.745433333333335	t,t,t,t,t	<img class = center src='/static/experiments/beast_fmri_test/images/V.png'></img>	71,89	2750.0	test	<img class = center src='/static/experiments/beast_fmri_test/images/redV.png'></img>	go	1300.0	2.0	34.0	go	non-target	V	71,Green Button	89,Yellow Button	1450.0	1450.0	1300.0	1300.0	1.0	1450.0	1.0	n/a	ITI
256762.0	500.0	n/a	-1	-1	500	0.0	fixation	poldrack-single-stim	647	1785643	0.0-19.35-0.35	beast_fmri_test	303	29.756766666666667	t	<div class = centerbox><div class = fixation>+</div></div>	none	500.0	test	n/a	n/a	n/a	n/a	n/a	n/a	n/a	n/a	n/a	n/a	n/a	n/a	n/a	n/a	n/a	n/a	n/a	n/a	fixation
255269.16434727167	2750.0	n/a	1686	89	2750	1494.83565273	stim	stop-signal	648	1788395	0.0-19.35-1.35	beast_fmri_test	303	29.768066666666666,29.779416666666666,29.79075,29.802066666666665,29.8134	t,t,t,t,t	<img class = center src='/static/experiments/beast_fmri_test/images/V.png'></img>	71,89	2750.0	test	<img class = center src='/static/experiments/beast_fmri_test/images/redV.png'></img>	go	1300.0	2.0	35.0	go	non-target	V	71,Green Button	89,Yellow Button	1450.0	1450.0	1300.0	1300.0	1.0	1450.0	1.0	n/a	go_stim
258019.16434727167	1494.83565273	n/a	1686	89	2750	1494.83565273	stim	stop-signal	648	1788395	0.0-19.35-1.35	beast_fmri_test	303	29.768066666666666,29.779416666666666,29.79075,29.802066666666665,29.8134	t,t,t,t,t	<img class = center src='/static/experiments/beast_fmri_test/images/V.png'></img>	71,89	2750.0	test	<img class = center src='/static/experiments/beast_fmri_test/images/redV.png'></img>	go	1300.0	2.0	35.0	go	non-target	V	71,Green Button	89,Yellow Button	1450.0	1450.0	1300.0	1300.0	1.0	1450.0	1.0	n/a	ITI
261594.0	500.0	n/a	-1	-1	500	0.0	fixation	poldrack-single-stim	649	1790475	0.0-19.36-0.36	beast_fmri_test	303	n/a	n/a	<div class = centerbox><div class = fixation>+</div></div>	none	500.0	test	n/a	n/a	n/a	n/a	n/a	n/a	n/a	n/a	n/a	n/a	n/a	n/a	n/a	n/a	n/a	n/a	n/a	n/a	fixation
261458.79248814005	2750.0	n/a	-1	-1	2750	136.20751186	stim	stop-signal	650	1793226	0.0-19.36-1.36	beast_fmri_test	303	n/a	n/a	<img class = center src='/static/experiments/beast_fmri_test/images/V.png'></img>	71,89	2750.0	test	<img class = center src='/static/experiments/beast_fmri_test/images/redV.png'></img>	go	1300.0	2.0	36.0	go	target	V	71,Green Button	89,Yellow Button	1450.0	1450.0	1300.0	1300.0	0.0	1450.0	0.0	n/a	go_stim
264208.79248814005	136.20751186	n/a	-1	-1	2750	136.20751186	stim	stop-signal	650	1793226	0.0-19.36-1.36	beast_fmri_test	303	n/a	n/a	<img class = center src='/static/experiments/beast_fmri_test/images/V.png'></img>	71,89	2750.0	test	<img class = center src='/static/experiments/beast_fmri_test/images/redV.png'></img>	go	1300.0	2.0	36.0	go	target	V	71,Green Button	89,Yellow Button	1450.0	1450.0	1300.0	1300.0	0.0	1450.0	0.0	n/a	ITI
265045.0	500.0	n/a	-1	-1	500	0.0	fixation	poldrack-single-stim	651	1793926	0.0-19.37-0.37	beast_fmri_test	303	n/a	n/a	<div class = centerbox><div class = fixation>+</div></div>	none	500.0	test	n/a	n/a	n/a	n/a	n/a	n/a	n/a	n/a	n/a	n/a	n/a	n/a	n/a	n/a	n/a	n/a	n/a	n/a	fixation
264987.20834868844	1450.0	n/a	-1	-1	2750	57.7916513116	stim	stop-signal	652	1796676	0.0-19.37-1.37	beast_fmri_test	303	n/a	n/a	<img class = center src='/static/experiments/beast_fmri_test/images/V.png'></img>	71,89	2750.0	test	<img class = center src='/static/experiments/beast_fmri_test/images/redV.png'></img>	stop	1300.0	2.0	37.0	stop	target	V	71,Green Button	89,Yellow Button	1450.0	1450.0	1300.0	1300.0	0.0	1450.0	0.0	1.0	go_stim
266287.20834868844	1300.0	n/a	-1	-1	2750	57.7916513116	stim	stop-signal	652	1796676	0.0-19.37-1.37	beast_fmri_test	303	n/a	n/a	<img class = center src='/static/experiments/beast_fmri_test/images/V.png'></img>	71,89	2750.0	test	<img class = center src='/static/experiments/beast_fmri_test/images/redV.png'></img>	stop	1300.0	2.0	37.0	stop	target	V	71,Green Button	89,Yellow Button	1450.0	1450.0	1300.0	1300.0	0.0	1450.0	0.0	1.0	stop_stim
267737.20834868844	57.7916513116	n/a	-1	-1	2750	57.7916513116	stim	stop-signal	652	1796676	0.0-19.37-1.37	beast_fmri_test	303	n/a	n/a	<img class = center src='/static/experiments/beast_fmri_test/images/V.png'></img>	71,89	2750.0	test	<img class = center src='/static/experiments/beast_fmri_test/images/redV.png'></img>	stop	1300.0	2.0	37.0	stop	target	V	71,Green Button	89,Yellow Button	1450.0	1450.0	1300.0	1300.0	0.0	1450.0	0.0	1.0	ITI
268416.0	500.0	n/a	-1	-1	500	0.0	fixation	poldrack-single-stim	653	1797297	0.0-19.38-0.38	beast_fmri_test	303	n/a	n/a	<div class = centerbox><div class = fixation>+</div></div>	none	500.0	test	n/a	n/a	n/a	n/a	n/a	n/a	n/a	n/a	n/a	n/a	n/a	n/a	n/a	n/a	n/a	n/a	n/a	n/a	fixation
268284.39075296209	1450.0	n/a	-1	-1	2750	133.609247038	stim	stop-signal	654	1800049	0.0-19.38-1.38	beast_fmri_test	303	n/a	n/a	<img class = center src='/static/experiments/beast_fmri_test/images/T.png'></img>	71,89	2750.0	test	<img class = center src='/static/experiments/beast_fmri_test/images/redT.png'></img>	stop	1300.0	2.0	38.0	stop	non-target	T	71,Green Button	89,Yellow Button	1500.0	1450.0	1300.0	1300.0	0.0	1450.0	0.0	1.0	go_stim
269584.39075296209	1300.0	n/a	-1	-1	2750	133.609247038	stim	stop-signal	654	1800049	0.0-19.38-1.38	beast_fmri_test	303	n/a	n/a	<img class = center src='/static/experiments/beast_fmri_test/images/T.png'></img>	71,89	2750.0	test	<img class = center src='/static/experiments/beast_fmri_test/images/redT.png'></img>	stop	1300.0	2.0	38.0	stop	non-target	T	71,Green Button	89,Yellow Button	1500.0	1450.0	1300.0	1300.0	0.0	1450.0	0.0	1.0	stop_stim
271034.39075296209	133.609247038	n/a	-1	-1	2750	133.609247038	stim	stop-signal	654	1800049	0.0-19.38-1.38	beast_fmri_test	303	n/a	n/a	<img class = center src='/static/experiments/beast_fmri_test/images/T.png'></img>	71,89	2750.0	test	<img class = center src='/static/experiments/beast_fmri_test/images/redT.png'></img>	stop	1300.0	2.0	38.0	stop	non-target	T	71,Green Button	89,Yellow Button	1500.0	1450.0	1300.0	1300.0	0.0	1450.0	0.0	1.0	ITI
