onset	duration	text	rt	key_press	block_duration	timing_post_trial	trial_id	trial_type	trial_index	time_elapsed	internal_node_id	exp_id	subject_id	trigger_times	triggers	stimulus	possible_responses	stim_duration	exp_stage	SS_stimulus	SS_trial_type	SS_duration	load	trial_num	stop_trial_type	adaptive_trial_type	stim	yes_response_key	no_response_key	SSD_target	SSD_non_target	SSTarget	SSNonTarget	go_acc	SS_delay	stop_acc	adaptive_acc	new_trial_type
test	10880	n/a	-1	-1	10880	0.0	practice-no-stop-feedback	poldrack-single-stim	200	553345	0.0-12.0	beast_fmri_test	310	542465,/,543144,/,543826,/,544505,/,545186,/,545865,/,546546,/,547226,/,547905,/,548586,/,549266,/,549947,/,550625,/,551306,/,551986,/,552666,/	t,t,t,t,t,t,t,t,t,t,t,t,t,t,t,t	"<div class = ""centerbox""><p class = ""center-block-text"">Your delay is 3 trials.</p><p class = center-block-text>Please wait for the scanner to start the block</p></div>"	77	10880.0	n/a	n/a	n/a	n/a	n/a	n/a	n/a	n/a	n/a	n/a	n/a	n/a	n/a	n/a	n/a	n/a	n/a	n/a	n/a	start_functional_block
11382	500	n/a	-1	-1	500	0.0	fixation	poldrack-single-stim	201	553847	0.0-13.0-0.0	beast_fmri_test	310	553346,/	t	<div class = centerbox><div class = fixation>+</div></div>	none	500.0	test	n/a	n/a	n/a	n/a	n/a	n/a	n/a	n/a	n/a	n/a	n/a	n/a	n/a	n/a	n/a	n/a	n/a	n/a	fixation
10082.350531999953	temp_go_duration	n/a	728	89	2750	1300.649468	stim	stop-signal	202	556598	0.0-13.0-1.0	beast_fmri_test	310	554025,/,554705,/,555385,/,556065,/,556745,/,557425,/	t,t,t,t,t,t	<img class = center src='/static/experiments/beast_fmri_test/images/T.png'></img>	71,89	2750.0	test	<img class = center src='/static/experiments/beast_fmri_test/images/redT.png'></img>	stop	-1.0	3.0	0.0	stop	temp-non-target	T	71,Green Button	89,Yellow Button	500.0	600.0	2200.0	2150.0	0.0	n/a	0.0	n/a	go_stim
temp-non-target	temp_stop_duration	n/a	728	89	2750	1300.649468	stim	stop-signal	202	556598	0.0-13.0-1.0	beast_fmri_test	310	554025,/,554705,/,555385,/,556065,/,556745,/,557425,/	t,t,t,t,t,t	<img class = center src='/static/experiments/beast_fmri_test/images/T.png'></img>	71,89	2750.0	test	<img class = center src='/static/experiments/beast_fmri_test/images/redT.png'></img>	stop	-1.0	3.0	0.0	stop	temp-non-target	T	71,Green Button	89,Yellow Button	500.0	600.0	2200.0	2150.0	0.0	n/a	0.0	n/a	stop_stim
12832.350531999953	1300.6494680000001	n/a	728	89	2750	1300.649468	stim	stop-signal	202	556598	0.0-13.0-1.0	beast_fmri_test	310	554025,/,554705,/,555385,/,556065,/,556745,/,557425,/	t,t,t,t,t,t	<img class = center src='/static/experiments/beast_fmri_test/images/T.png'></img>	71,89	2750.0	test	<img class = center src='/static/experiments/beast_fmri_test/images/redT.png'></img>	stop	-1.0	3.0	0.0	stop	temp-non-target	T	71,Green Button	89,Yellow Button	500.0	600.0	2200.0	2150.0	0.0	n/a	0.0	n/a	ITI
15943	500	n/a	-1	-1	500	0.0	fixation	poldrack-single-stim	203	558408	0.0-13.1-0.1	beast_fmri_test	310	558105,/	t	<div class = centerbox><div class = fixation>+</div></div>	none	500.0	test	n/a	n/a	n/a	n/a	n/a	n/a	n/a	n/a	n/a	n/a	n/a	n/a	n/a	n/a	n/a	n/a	n/a	n/a	fixation
15162.595937100006	2750	n/a	367	89	2750	782.4040629	stim	stop-signal	204	561160	0.0-13.1-1.1	beast_fmri_test	310	558785,/,559465,/,560146,/,560825,/,561505,/	t,t,t,t,t	<img class = center src='/static/experiments/beast_fmri_test/images/D.png'></img>	71,89	2750.0	test	<img class = center src='/static/experiments/beast_fmri_test/images/redD.png'></img>	go	-1.0	3.0	1.0	go	temp-non-target	D	71,Green Button	89,Yellow Button	500.0	600.0	2200.0	2150.0	0.0	n/a	n/a	n/a	go_stim
17912.595937100006	782.40406289999999	n/a	367	89	2750	782.4040629	stim	stop-signal	204	561160	0.0-13.1-1.1	beast_fmri_test	310	558785,/,559465,/,560146,/,560825,/,561505,/	t,t,t,t,t	<img class = center src='/static/experiments/beast_fmri_test/images/D.png'></img>	71,89	2750.0	test	<img class = center src='/static/experiments/beast_fmri_test/images/redD.png'></img>	go	-1.0	3.0	1.0	go	temp-non-target	D	71,Green Button	89,Yellow Button	500.0	600.0	2200.0	2150.0	0.0	n/a	n/a	n/a	ITI
19989	500	n/a	-1	-1	500	0.0	fixation	poldrack-single-stim	205	562454	0.0-13.2-0.2	beast_fmri_test	310	562185,/	t	<div class = centerbox><div class = fixation>+</div></div>	none	500.0	test	n/a	n/a	n/a	n/a	n/a	n/a	n/a	n/a	n/a	n/a	n/a	n/a	n/a	n/a	n/a	n/a	n/a	n/a	fixation
18751.874994999962	2750	n/a	564	89	2750	1239.125005	stim	stop-signal	206	565206	0.0-13.2-1.2	beast_fmri_test	310	562865,/,563545,/,564225,/,564905,/,565585,/,566265,/	t,t,t,t,t,t	<img class = center src='/static/experiments/beast_fmri_test/images/T.png'></img>	71,89	2750.0	test	<img class = center src='/static/experiments/beast_fmri_test/images/redT.png'></img>	go	-1.0	3.0	2.0	go	temp-non-target	T	71,Green Button	89,Yellow Button	500.0	600.0	2200.0	2150.0	0.0	n/a	n/a	n/a	go_stim
21501.874994999962	1239.1250050000001	n/a	564	89	2750	1239.125005	stim	stop-signal	206	565206	0.0-13.2-1.2	beast_fmri_test	310	562865,/,563545,/,564225,/,564905,/,565585,/,566265,/	t,t,t,t,t,t	<img class = center src='/static/experiments/beast_fmri_test/images/T.png'></img>	71,89	2750.0	test	<img class = center src='/static/experiments/beast_fmri_test/images/redT.png'></img>	go	-1.0	3.0	2.0	go	temp-non-target	T	71,Green Button	89,Yellow Button	500.0	600.0	2200.0	2150.0	0.0	n/a	n/a	n/a	ITI
24490	500	n/a	-1	-1	500	0.0	fixation	poldrack-single-stim	207	566955	0.0-13.3-0.3	beast_fmri_test	310	566945,/	t	<div class = centerbox><div class = fixation>+</div></div>	none	500.0	test	n/a	n/a	n/a	n/a	n/a	n/a	n/a	n/a	n/a	n/a	n/a	n/a	n/a	n/a	n/a	n/a	n/a	n/a	fixation
23706.396449199994	2750	n/a	440	71	2750	786.6035508	stim	stop-signal	208	569708	0.0-13.3-1.3	beast_fmri_test	310	567625,/,568305,/,568985,/,569665,/,570345,/	t,t,t,t,t	<img class = center src='/static/experiments/beast_fmri_test/images/T.png'></img>	71,89	2750.0	test	<img class = center src='/static/experiments/beast_fmri_test/images/redT.png'></img>	go	2250.0	3.0	3.0	go	target	T	71,Green Button	89,Yellow Button	500.0	600.0	2250.0	2150.0	1.0	500.0	n/a	1.0	go_stim
26456.396449199994	786.60355079999999	n/a	440	71	2750	786.6035508	stim	stop-signal	208	569708	0.0-13.3-1.3	beast_fmri_test	310	567625,/,568305,/,568985,/,569665,/,570345,/	t,t,t,t,t	<img class = center src='/static/experiments/beast_fmri_test/images/T.png'></img>	71,89	2750.0	test	<img class = center src='/static/experiments/beast_fmri_test/images/redT.png'></img>	go	2250.0	3.0	3.0	go	target	T	71,Green Button	89,Yellow Button	500.0	600.0	2250.0	2150.0	1.0	500.0	n/a	1.0	ITI
28538	500	n/a	-1	-1	500	0.0	fixation	poldrack-single-stim	209	571003	0.0-13.4-0.4	beast_fmri_test	310	n/a	n/a	<div class = centerbox><div class = fixation>+</div></div>	none	500.0	test	n/a	n/a	n/a	n/a	n/a	n/a	n/a	n/a	n/a	n/a	n/a	n/a	n/a	n/a	n/a	n/a	n/a	n/a	fixation
26841.010676000034	2750	n/a	742	89	2750	1698.989324	stim	stop-signal	210	573755	0.0-13.4-1.4	beast_fmri_test	310	571025,/,571705,/,572384,/,573065,/,573744,/,574424,/,575104,/	t,t,t,t,t,t,t	<img class = center src='/static/experiments/beast_fmri_test/images/T.png'></img>	71,89	2750.0	test	<img class = center src='/static/experiments/beast_fmri_test/images/redT.png'></img>	go	2150.0	3.0	4.0	go	non-target	T	71,Green Button	89,Yellow Button	500.0	600.0	2250.0	2150.0	1.0	600.0	n/a	1.0	go_stim
29591.010676000034	1698.9893239999999	n/a	742	89	2750	1698.989324	stim	stop-signal	210	573755	0.0-13.4-1.4	beast_fmri_test	310	571025,/,571705,/,572384,/,573065,/,573744,/,574424,/,575104,/	t,t,t,t,t,t,t	<img class = center src='/static/experiments/beast_fmri_test/images/T.png'></img>	71,89	2750.0	test	<img class = center src='/static/experiments/beast_fmri_test/images/redT.png'></img>	go	2150.0	3.0	4.0	go	non-target	T	71,Green Button	89,Yellow Button	500.0	600.0	2250.0	2150.0	1.0	600.0	n/a	1.0	ITI
33498	500	n/a	-1	-1	500	0.0	fixation	poldrack-single-stim	211	575963	0.0-13.5-0.5	beast_fmri_test	310	575785,/	t	<div class = centerbox><div class = fixation>+</div></div>	none	500.0	test	n/a	n/a	n/a	n/a	n/a	n/a	n/a	n/a	n/a	n/a	n/a	n/a	n/a	n/a	n/a	n/a	n/a	n/a	fixation
33203.676847500028	2750	n/a	455	71	2750	296.3231525	stim	stop-signal	212	578715	0.0-13.5-1.5	beast_fmri_test	310	576464,/,577145,/,577825,/,578505,/	t,t,t,t	<img class = center src='/static/experiments/beast_fmri_test/images/T.png'></img>	71,89	2750.0	test	<img class = center src='/static/experiments/beast_fmri_test/images/redT.png'></img>	go	2250.0	3.0	5.0	go	target	T	71,Green Button	89,Yellow Button	500.0	600.0	2250.0	2150.0	1.0	500.0	n/a	1.0	go_stim
35953.676847500028	296.32315249999999	n/a	455	71	2750	296.3231525	stim	stop-signal	212	578715	0.0-13.5-1.5	beast_fmri_test	310	576464,/,577145,/,577825,/,578505,/	t,t,t,t	<img class = center src='/static/experiments/beast_fmri_test/images/T.png'></img>	71,89	2750.0	test	<img class = center src='/static/experiments/beast_fmri_test/images/redT.png'></img>	go	2250.0	3.0	5.0	go	target	T	71,Green Button	89,Yellow Button	500.0	600.0	2250.0	2150.0	1.0	500.0	n/a	1.0	ITI
37058	500	n/a	-1	-1	500	0.0	fixation	poldrack-single-stim	213	579523	0.0-13.6-0.6	beast_fmri_test	310	579186,/	t	<div class = centerbox><div class = fixation>+</div></div>	none	500.0	test	n/a	n/a	n/a	n/a	n/a	n/a	n/a	n/a	n/a	n/a	n/a	n/a	n/a	n/a	n/a	n/a	n/a	n/a	fixation
37007.442300769966	2750	n/a	633	89	2750	53.55769923	stim	stop-signal	214	582276	0.0-13.6-1.6	beast_fmri_test	310	579865,/,580546,/,581226,/,581906,/	t,t,t,t	<img class = center src='/static/experiments/beast_fmri_test/images/P.png'></img>	71,89	2750.0	test	<img class = center src='/static/experiments/beast_fmri_test/images/redP.png'></img>	go	2150.0	3.0	6.0	go	non-target	P	71,Green Button	89,Yellow Button	500.0	600.0	2250.0	2150.0	1.0	600.0	n/a	1.0	go_stim
39757.442300769966	53.557699229999997	n/a	633	89	2750	53.55769923	stim	stop-signal	214	582276	0.0-13.6-1.6	beast_fmri_test	310	579865,/,580546,/,581226,/,581906,/	t,t,t,t	<img class = center src='/static/experiments/beast_fmri_test/images/P.png'></img>	71,89	2750.0	test	<img class = center src='/static/experiments/beast_fmri_test/images/redP.png'></img>	go	2150.0	3.0	6.0	go	non-target	P	71,Green Button	89,Yellow Button	500.0	600.0	2250.0	2150.0	1.0	600.0	n/a	1.0	ITI
40376	500	n/a	-1	-1	500	0.0	fixation	poldrack-single-stim	215	582841	0.0-13.7-0.7	beast_fmri_test	310	582586,/	t	<div class = centerbox><div class = fixation>+</div></div>	none	500.0	test	n/a	n/a	n/a	n/a	n/a	n/a	n/a	n/a	n/a	n/a	n/a	n/a	n/a	n/a	n/a	n/a	n/a	n/a	fixation
37926.973022000049	2750	n/a	737	89	2750	2451.026978	stim	stop-signal	216	585593	0.0-13.7-1.7	beast_fmri_test	310	583265,/,583945,/,584625,/,585305,/,585985,/,586665,/,587345,/,588025,/	t,t,t,t,t,t,t,t	<img class = center src='/static/experiments/beast_fmri_test/images/D.png'></img>	71,89	2750.0	test	<img class = center src='/static/experiments/beast_fmri_test/images/redD.png'></img>	go	2150.0	3.0	7.0	go	non-target	D	71,Green Button	89,Yellow Button	500.0	600.0	2250.0	2150.0	1.0	600.0	n/a	1.0	go_stim
40676.973022000049	2451.0269780000003	n/a	737	89	2750	2451.026978	stim	stop-signal	216	585593	0.0-13.7-1.7	beast_fmri_test	310	583265,/,583945,/,584625,/,585305,/,585985,/,586665,/,587345,/,588025,/	t,t,t,t,t,t,t,t	<img class = center src='/static/experiments/beast_fmri_test/images/D.png'></img>	71,89	2750.0	test	<img class = center src='/static/experiments/beast_fmri_test/images/redD.png'></img>	go	2150.0	3.0	7.0	go	non-target	D	71,Green Button	89,Yellow Button	500.0	600.0	2250.0	2150.0	1.0	600.0	n/a	1.0	ITI
46093	500	n/a	-1	-1	500	0.0	fixation	poldrack-single-stim	217	588558	0.0-13.8-0.8	beast_fmri_test	310	n/a	n/a	<div class = centerbox><div class = fixation>+</div></div>	none	500.0	test	n/a	n/a	n/a	n/a	n/a	n/a	n/a	n/a	n/a	n/a	n/a	n/a	n/a	n/a	n/a	n/a	n/a	n/a	fixation
45750.689324200037	600.0	n/a	653	89	2750	344.3106758	stim	stop-signal	218	591310	0.0-13.8-1.8	beast_fmri_test	310	588705,/,589385,/,590065,/,590747,/,591425,/	t,t,t,t,t	<img class = center src='/static/experiments/beast_fmri_test/images/B.png'></img>	71,89	2750.0	test	<img class = center src='/static/experiments/beast_fmri_test/images/redB.png'></img>	stop	2150.0	3.0	8.0	stop	non-target	B	71,Green Button	89,Yellow Button	500.0	600.0	2250.0	2150.0	0.0	600.0	0.0	1.0	go_stim
47900.689324200037	2150.0	n/a	653	89	2750	344.3106758	stim	stop-signal	218	591310	0.0-13.8-1.8	beast_fmri_test	310	588705,/,589385,/,590065,/,590747,/,591425,/	t,t,t,t,t	<img class = center src='/static/experiments/beast_fmri_test/images/B.png'></img>	71,89	2750.0	test	<img class = center src='/static/experiments/beast_fmri_test/images/redB.png'></img>	stop	2150.0	3.0	8.0	stop	non-target	B	71,Green Button	89,Yellow Button	500.0	600.0	2250.0	2150.0	0.0	600.0	0.0	1.0	stop_stim
48500.689324200037	344.31067580000001	n/a	653	89	2750	344.3106758	stim	stop-signal	218	591310	0.0-13.8-1.8	beast_fmri_test	310	588705,/,589385,/,590065,/,590747,/,591425,/	t,t,t,t,t	<img class = center src='/static/experiments/beast_fmri_test/images/B.png'></img>	71,89	2750.0	test	<img class = center src='/static/experiments/beast_fmri_test/images/redB.png'></img>	stop	2150.0	3.0	8.0	stop	non-target	B	71,Green Button	89,Yellow Button	500.0	600.0	2250.0	2150.0	0.0	600.0	0.0	1.0	ITI
49701	500	n/a	-1	-1	500	0.0	fixation	poldrack-single-stim	219	592166	0.0-13.9-0.9	beast_fmri_test	310	592105,/	t	<div class = centerbox><div class = fixation>+</div></div>	none	500.0	test	n/a	n/a	n/a	n/a	n/a	n/a	n/a	n/a	n/a	n/a	n/a	n/a	n/a	n/a	n/a	n/a	n/a	n/a	fixation
49303.64249899995	2750	n/a	546	71	2750	399.357501	stim	stop-signal	220	594918	0.0-13.9-1.9	beast_fmri_test	310	592785,/,593465,/,594145,/,594825,/	t,t,t,t	<img class = center src='/static/experiments/beast_fmri_test/images/P.png'></img>	71,89	2750.0	test	<img class = center src='/static/experiments/beast_fmri_test/images/redP.png'></img>	go	2250.0	3.0	9.0	go	target	P	71,Green Button	89,Yellow Button	500.0	550.0	2250.0	2150.0	1.0	500.0	n/a	1.0	go_stim
52053.64249899995	399.35750099999996	n/a	546	71	2750	399.357501	stim	stop-signal	220	594918	0.0-13.9-1.9	beast_fmri_test	310	592785,/,593465,/,594145,/,594825,/	t,t,t,t	<img class = center src='/static/experiments/beast_fmri_test/images/P.png'></img>	71,89	2750.0	test	<img class = center src='/static/experiments/beast_fmri_test/images/redP.png'></img>	go	2250.0	3.0	9.0	go	target	P	71,Green Button	89,Yellow Button	500.0	550.0	2250.0	2150.0	1.0	500.0	n/a	1.0	ITI
53364	500	n/a	-1	-1	500	0.0	fixation	poldrack-single-stim	221	595829	0.0-13.10-0.10	beast_fmri_test	310	595505,/	t	<div class = centerbox><div class = fixation>+</div></div>	none	500.0	test	n/a	n/a	n/a	n/a	n/a	n/a	n/a	n/a	n/a	n/a	n/a	n/a	n/a	n/a	n/a	n/a	n/a	n/a	fixation
51310.492687999969	2750	n/a	683	89	2750	2054.507312	stim	stop-signal	222	598580	0.0-13.10-1.10	beast_fmri_test	310	596185,/,596865,/,597545,/,598225,/,598905,/,599585,/,600265,/	t,t,t,t,t,t,t	<img class = center src='/static/experiments/beast_fmri_test/images/T.png'></img>	71,89	2750.0	test	<img class = center src='/static/experiments/beast_fmri_test/images/redT.png'></img>	go	2200.0	3.0	10.0	go	non-target	T	71,Green Button	89,Yellow Button	500.0	550.0	2250.0	2200.0	1.0	550.0	n/a	1.0	go_stim
54060.492687999969	2054.5073120000002	n/a	683	89	2750	2054.507312	stim	stop-signal	222	598580	0.0-13.10-1.10	beast_fmri_test	310	596185,/,596865,/,597545,/,598225,/,598905,/,599585,/,600265,/	t,t,t,t,t,t,t	<img class = center src='/static/experiments/beast_fmri_test/images/T.png'></img>	71,89	2750.0	test	<img class = center src='/static/experiments/beast_fmri_test/images/redT.png'></img>	go	2200.0	3.0	10.0	go	non-target	T	71,Green Button	89,Yellow Button	500.0	550.0	2250.0	2200.0	1.0	550.0	n/a	1.0	ITI
58680	500	n/a	-1	-1	500	0.0	fixation	poldrack-single-stim	223	601145	0.0-13.11-0.11	beast_fmri_test	310	600946,/	t	<div class = centerbox><div class = fixation>+</div></div>	none	500.0	test	n/a	n/a	n/a	n/a	n/a	n/a	n/a	n/a	n/a	n/a	n/a	n/a	n/a	n/a	n/a	n/a	n/a	n/a	fixation
58177.915393300005	500.0	n/a	570	71	2750	504.0846067	stim	stop-signal	224	603897	0.0-13.11-1.11	beast_fmri_test	310	601625,/,602305,/,602984,/,603665,/,604345,/	t,t,t,t,t	<img class = center src='/static/experiments/beast_fmri_test/images/B.png'></img>	71,89	2750.0	test	<img class = center src='/static/experiments/beast_fmri_test/images/redB.png'></img>	stop	2250.0	3.0	11.0	stop	target	B	71,Green Button	89,Yellow Button	500.0	550.0	2250.0	2200.0	0.0	500.0	0.0	1.0	go_stim
60427.915393300005	2250.0	n/a	570	71	2750	504.0846067	stim	stop-signal	224	603897	0.0-13.11-1.11	beast_fmri_test	310	601625,/,602305,/,602984,/,603665,/,604345,/	t,t,t,t,t	<img class = center src='/static/experiments/beast_fmri_test/images/B.png'></img>	71,89	2750.0	test	<img class = center src='/static/experiments/beast_fmri_test/images/redB.png'></img>	stop	2250.0	3.0	11.0	stop	target	B	71,Green Button	89,Yellow Button	500.0	550.0	2250.0	2200.0	0.0	500.0	0.0	1.0	stop_stim
60927.915393300005	504.08460669999999	n/a	570	71	2750	504.0846067	stim	stop-signal	224	603897	0.0-13.11-1.11	beast_fmri_test	310	601625,/,602305,/,602984,/,603665,/,604345,/	t,t,t,t,t	<img class = center src='/static/experiments/beast_fmri_test/images/B.png'></img>	71,89	2750.0	test	<img class = center src='/static/experiments/beast_fmri_test/images/redB.png'></img>	stop	2250.0	3.0	11.0	stop	target	B	71,Green Button	89,Yellow Button	500.0	550.0	2250.0	2200.0	0.0	500.0	0.0	1.0	ITI
62448	500	n/a	-1	-1	500	0.0	fixation	poldrack-single-stim	225	604913	0.0-13.12-0.12	beast_fmri_test	310	n/a	n/a	<div class = centerbox><div class = fixation>+</div></div>	none	500.0	test	n/a	n/a	n/a	n/a	n/a	n/a	n/a	n/a	n/a	n/a	n/a	n/a	n/a	n/a	n/a	n/a	n/a	n/a	fixation
61426.797083999962	450.0	n/a	637	71	2750	1022.202916	stim	stop-signal	226	607664	0.0-13.12-1.12	beast_fmri_test	310	605025,/,605705,/,606385,/,607065,/,607744,/,608424,/	t,t,t,t,t,t	<img class = center src='/static/experiments/beast_fmri_test/images/P.png'></img>	71,89	2750.0	test	<img class = center src='/static/experiments/beast_fmri_test/images/redP.png'></img>	stop	2300.0	3.0	12.0	stop	target	P	71,Green Button	89,Yellow Button	450.0	550.0	2300.0	2200.0	0.0	450.0	0.0	1.0	go_stim
63726.797083999962	2300.0	n/a	637	71	2750	1022.202916	stim	stop-signal	226	607664	0.0-13.12-1.12	beast_fmri_test	310	605025,/,605705,/,606385,/,607065,/,607744,/,608424,/	t,t,t,t,t,t	<img class = center src='/static/experiments/beast_fmri_test/images/P.png'></img>	71,89	2750.0	test	<img class = center src='/static/experiments/beast_fmri_test/images/redP.png'></img>	stop	2300.0	3.0	12.0	stop	target	P	71,Green Button	89,Yellow Button	450.0	550.0	2300.0	2200.0	0.0	450.0	0.0	1.0	stop_stim
64176.797083999962	1022.202916	n/a	637	71	2750	1022.202916	stim	stop-signal	226	607664	0.0-13.12-1.12	beast_fmri_test	310	605025,/,605705,/,606385,/,607065,/,607744,/,608424,/	t,t,t,t,t,t	<img class = center src='/static/experiments/beast_fmri_test/images/P.png'></img>	71,89	2750.0	test	<img class = center src='/static/experiments/beast_fmri_test/images/redP.png'></img>	stop	2300.0	3.0	12.0	stop	target	P	71,Green Button	89,Yellow Button	450.0	550.0	2300.0	2200.0	0.0	450.0	0.0	1.0	ITI
66736	500	n/a	-1	-1	500	0.0	fixation	poldrack-single-stim	227	609201	0.0-13.13-0.13	beast_fmri_test	310	609104,/	t	<div class = centerbox><div class = fixation>+</div></div>	none	500.0	test	n/a	n/a	n/a	n/a	n/a	n/a	n/a	n/a	n/a	n/a	n/a	n/a	n/a	n/a	n/a	n/a	n/a	n/a	fixation
66512.940947000054	2750	n/a	699	89	2750	224.059053	stim	stop-signal	228	611952	0.0-13.13-1.13	beast_fmri_test	310	609785,/,610464,/,611145,/,611824,/	t,t,t,t	<img class = center src='/static/experiments/beast_fmri_test/images/D.png'></img>	71,89	2750.0	test	<img class = center src='/static/experiments/beast_fmri_test/images/redD.png'></img>	go	2200.0	3.0	13.0	go	non-target	D	71,Green Button	89,Yellow Button	400.0	550.0	2300.0	2200.0	1.0	550.0	n/a	1.0	go_stim
69262.940947000054	224.05905299999998	n/a	699	89	2750	224.059053	stim	stop-signal	228	611952	0.0-13.13-1.13	beast_fmri_test	310	609785,/,610464,/,611145,/,611824,/	t,t,t,t	<img class = center src='/static/experiments/beast_fmri_test/images/D.png'></img>	71,89	2750.0	test	<img class = center src='/static/experiments/beast_fmri_test/images/redD.png'></img>	go	2200.0	3.0	13.0	go	non-target	D	71,Green Button	89,Yellow Button	400.0	550.0	2300.0	2200.0	1.0	550.0	n/a	1.0	ITI
70224	500	n/a	-1	-1	500	0.0	fixation	poldrack-single-stim	229	612689	0.0-13.14-0.14	beast_fmri_test	310	612505,/	t	<div class = centerbox><div class = fixation>+</div></div>	none	500.0	test	n/a	n/a	n/a	n/a	n/a	n/a	n/a	n/a	n/a	n/a	n/a	n/a	n/a	n/a	n/a	n/a	n/a	n/a	fixation
67985.878793000011	2750	n/a	1149	71	2750	2240.121207	stim	stop-signal	230	615441	0.0-13.14-1.14	beast_fmri_test	310	613185,/,613865,/,614545,/,615225,/,615905,/,616585,/,617265,/	t,t,t,t,t,t,t	<img class = center src='/static/experiments/beast_fmri_test/images/P.png'></img>	71,89	2750.0	test	<img class = center src='/static/experiments/beast_fmri_test/images/redP.png'></img>	go	2200.0	3.0	14.0	go	non-target	P	71,Green Button	89,Yellow Button	400.0	550.0	2300.0	2200.0	0.0	550.0	n/a	0.0	go_stim
70735.878793000011	2240.1212070000001	n/a	1149	71	2750	2240.121207	stim	stop-signal	230	615441	0.0-13.14-1.14	beast_fmri_test	310	613185,/,613865,/,614545,/,615225,/,615905,/,616585,/,617265,/	t,t,t,t,t,t,t	<img class = center src='/static/experiments/beast_fmri_test/images/P.png'></img>	71,89	2750.0	test	<img class = center src='/static/experiments/beast_fmri_test/images/redP.png'></img>	go	2200.0	3.0	14.0	go	non-target	P	71,Green Button	89,Yellow Button	400.0	550.0	2300.0	2200.0	0.0	550.0	n/a	0.0	ITI
75730	500	n/a	-1	-1	500	0.0	fixation	poldrack-single-stim	231	618195	0.0-13.15-0.15	beast_fmri_test	310	617945,/	t	<div class = centerbox><div class = fixation>+</div></div>	none	500.0	test	n/a	n/a	n/a	n/a	n/a	n/a	n/a	n/a	n/a	n/a	n/a	n/a	n/a	n/a	n/a	n/a	n/a	n/a	fixation
74258.054896999965	2750	n/a	752	71	2750	1472.945103	stim	stop-signal	232	620946	0.0-13.15-1.15	beast_fmri_test	310	618625,/,619305,/,619985,/,620665,/,621346,/,622025,/	t,t,t,t,t,t	<img class = center src='/static/experiments/beast_fmri_test/images/P.png'></img>	71,89	2750.0	test	<img class = center src='/static/experiments/beast_fmri_test/images/redP.png'></img>	go	2350.0	3.0	15.0	go	target	P	71,Green Button	89,Yellow Button	400.0	550.0	2350.0	2200.0	1.0	400.0	n/a	1.0	go_stim
77008.054896999965	1472.945103	n/a	752	71	2750	1472.945103	stim	stop-signal	232	620946	0.0-13.15-1.15	beast_fmri_test	310	618625,/,619305,/,619985,/,620665,/,621346,/,622025,/	t,t,t,t,t,t	<img class = center src='/static/experiments/beast_fmri_test/images/P.png'></img>	71,89	2750.0	test	<img class = center src='/static/experiments/beast_fmri_test/images/redP.png'></img>	go	2350.0	3.0	15.0	go	target	P	71,Green Button	89,Yellow Button	400.0	550.0	2350.0	2200.0	1.0	400.0	n/a	1.0	ITI
80468	500	n/a	-1	-1	500	0.0	fixation	poldrack-single-stim	233	622933	0.0-13.16-0.16	beast_fmri_test	310	622705,/	t	<div class = centerbox><div class = fixation>+</div></div>	none	500.0	test	n/a	n/a	n/a	n/a	n/a	n/a	n/a	n/a	n/a	n/a	n/a	n/a	n/a	n/a	n/a	n/a	n/a	n/a	fixation
80423.286610190058	550.0	n/a	788	89	2750	47.71338981	stim	stop-signal	234	625686	0.0-13.16-1.16	beast_fmri_test	310	623385,/,624065,/,624745,/,625425,/	t,t,t,t	<img class = center src='/static/experiments/beast_fmri_test/images/T.png'></img>	71,89	2750.0	test	<img class = center src='/static/experiments/beast_fmri_test/images/redT.png'></img>	stop	2200.0	3.0	16.0	stop	non-target	T	71,Green Button	89,Yellow Button	400.0	550.0	2350.0	2200.0	0.0	550.0	0.0	1.0	go_stim
82623.286610190058	2200.0	n/a	788	89	2750	47.71338981	stim	stop-signal	234	625686	0.0-13.16-1.16	beast_fmri_test	310	623385,/,624065,/,624745,/,625425,/	t,t,t,t	<img class = center src='/static/experiments/beast_fmri_test/images/T.png'></img>	71,89	2750.0	test	<img class = center src='/static/experiments/beast_fmri_test/images/redT.png'></img>	stop	2200.0	3.0	16.0	stop	non-target	T	71,Green Button	89,Yellow Button	400.0	550.0	2350.0	2200.0	0.0	550.0	0.0	1.0	stop_stim
83173.286610190058	47.713389810000002	n/a	788	89	2750	47.71338981	stim	stop-signal	234	625686	0.0-13.16-1.16	beast_fmri_test	310	623385,/,624065,/,624745,/,625425,/	t,t,t,t	<img class = center src='/static/experiments/beast_fmri_test/images/T.png'></img>	71,89	2750.0	test	<img class = center src='/static/experiments/beast_fmri_test/images/redT.png'></img>	stop	2200.0	3.0	16.0	stop	non-target	T	71,Green Button	89,Yellow Button	400.0	550.0	2350.0	2200.0	0.0	550.0	0.0	1.0	ITI
83780	500	n/a	-1	-1	500	0.0	fixation	poldrack-single-stim	235	626245	0.0-13.17-0.17	beast_fmri_test	310	626105,/	t	<div class = centerbox><div class = fixation>+</div></div>	none	500.0	test	n/a	n/a	n/a	n/a	n/a	n/a	n/a	n/a	n/a	n/a	n/a	n/a	n/a	n/a	n/a	n/a	n/a	n/a	fixation
83403.727673899964	2750	n/a	722	89	2750	378.2723261	stim	stop-signal	236	628997	0.0-13.17-1.17	beast_fmri_test	310	626785,/,627465,/,628145,/,628825,/	t,t,t,t	<img class = center src='/static/experiments/beast_fmri_test/images/V.png'></img>	71,89	2750.0	test	<img class = center src='/static/experiments/beast_fmri_test/images/redV.png'></img>	go	2250.0	3.0	17.0	go	non-target	V	71,Green Button	89,Yellow Button	400.0	500.0	2350.0	2250.0	1.0	500.0	n/a	1.0	go_stim
86153.727673899964	378.27232610000004	n/a	722	89	2750	378.2723261	stim	stop-signal	236	628997	0.0-13.17-1.17	beast_fmri_test	310	626785,/,627465,/,628145,/,628825,/	t,t,t,t	<img class = center src='/static/experiments/beast_fmri_test/images/V.png'></img>	71,89	2750.0	test	<img class = center src='/static/experiments/beast_fmri_test/images/redV.png'></img>	go	2250.0	3.0	17.0	go	non-target	V	71,Green Button	89,Yellow Button	400.0	500.0	2350.0	2250.0	1.0	500.0	n/a	1.0	ITI
87424	500	n/a	-1	-1	500	0.0	fixation	poldrack-single-stim	237	629889	0.0-13.18-0.18	beast_fmri_test	310	629505,/	t	<div class = centerbox><div class = fixation>+</div></div>	none	500.0	test	n/a	n/a	n/a	n/a	n/a	n/a	n/a	n/a	n/a	n/a	n/a	n/a	n/a	n/a	n/a	n/a	n/a	n/a	fixation
87232.220981499995	2750	n/a	935	89	2750	192.7790185	stim	stop-signal	238	632640	0.0-13.18-1.18	beast_fmri_test	310	630185,/,630865,/,631545,/,632225,/	t,t,t,t	<img class = center src='/static/experiments/beast_fmri_test/images/T.png'></img>	71,89	2750.0	test	<img class = center src='/static/experiments/beast_fmri_test/images/redT.png'></img>	go	2250.0	3.0	18.0	go	non-target	T	71,Green Button	89,Yellow Button	400.0	500.0	2350.0	2250.0	1.0	500.0	n/a	1.0	go_stim
89982.220981499995	192.77901850000001	n/a	935	89	2750	192.7790185	stim	stop-signal	238	632640	0.0-13.18-1.18	beast_fmri_test	310	630185,/,630865,/,631545,/,632225,/	t,t,t,t	<img class = center src='/static/experiments/beast_fmri_test/images/T.png'></img>	71,89	2750.0	test	<img class = center src='/static/experiments/beast_fmri_test/images/redT.png'></img>	go	2250.0	3.0	18.0	go	non-target	T	71,Green Button	89,Yellow Button	400.0	500.0	2350.0	2250.0	1.0	500.0	n/a	1.0	ITI
90880	500	n/a	-1	-1	500	0.0	fixation	poldrack-single-stim	239	633345	0.0-13.19-0.19	beast_fmri_test	310	632905,/	t	<div class = centerbox><div class = fixation>+</div></div>	none	500.0	test	n/a	n/a	n/a	n/a	n/a	n/a	n/a	n/a	n/a	n/a	n/a	n/a	n/a	n/a	n/a	n/a	n/a	n/a	fixation
90164.820066699991	500.0	n/a	-1	-1	2750	718.1799333	stim	stop-signal	240	636098	0.0-13.19-1.19	beast_fmri_test	310	633585,/,634265,/,634944,/,635625,/,636305,/	t,t,t,t,t	<img class = center src='/static/experiments/beast_fmri_test/images/P.png'></img>	71,89	2750.0	test	<img class = center src='/static/experiments/beast_fmri_test/images/redP.png'></img>	stop	2250.0	3.0	19.0	stop	non-target	P	71,Green Button	89,Yellow Button	400.0	500.0	2350.0	2250.0	0.0	500.0	1.0	0.0	go_stim
92414.820066699991	2250.0	n/a	-1	-1	2750	718.1799333	stim	stop-signal	240	636098	0.0-13.19-1.19	beast_fmri_test	310	633585,/,634265,/,634944,/,635625,/,636305,/	t,t,t,t,t	<img class = center src='/static/experiments/beast_fmri_test/images/P.png'></img>	71,89	2750.0	test	<img class = center src='/static/experiments/beast_fmri_test/images/redP.png'></img>	stop	2250.0	3.0	19.0	stop	non-target	P	71,Green Button	89,Yellow Button	400.0	500.0	2350.0	2250.0	0.0	500.0	1.0	0.0	stop_stim
92914.820066699991	718.17993330000002	n/a	-1	-1	2750	718.1799333	stim	stop-signal	240	636098	0.0-13.19-1.19	beast_fmri_test	310	633585,/,634265,/,634944,/,635625,/,636305,/	t,t,t,t,t	<img class = center src='/static/experiments/beast_fmri_test/images/P.png'></img>	71,89	2750.0	test	<img class = center src='/static/experiments/beast_fmri_test/images/redP.png'></img>	stop	2250.0	3.0	19.0	stop	non-target	P	71,Green Button	89,Yellow Button	400.0	500.0	2350.0	2250.0	0.0	500.0	1.0	0.0	ITI
94863	500	n/a	-1	-1	500	0.0	fixation	poldrack-single-stim	241	637328	0.0-13.20-0.20	beast_fmri_test	310	636985,/	t	<div class = centerbox><div class = fixation>+</div></div>	none	500.0	test	n/a	n/a	n/a	n/a	n/a	n/a	n/a	n/a	n/a	n/a	n/a	n/a	n/a	n/a	n/a	n/a	n/a	n/a	fixation
94401.175611800049	2750	n/a	1431	89	2750	462.8243882	stim	stop-signal	242	640079	0.0-13.20-1.20	beast_fmri_test	310	637665,/,638345,/,639024,/,639704,/,640384,/	t,t,t,t,t	<img class = center src='/static/experiments/beast_fmri_test/images/D.png'></img>	71,89	2750.0	test	<img class = center src='/static/experiments/beast_fmri_test/images/redD.png'></img>	go	2200.0	3.0	20.0	go	non-target	D	71,Green Button	89,Yellow Button	400.0	550.0	2350.0	2200.0	1.0	550.0	n/a	1.0	go_stim
97151.175611800049	462.82438820000004	n/a	1431	89	2750	462.8243882	stim	stop-signal	242	640079	0.0-13.20-1.20	beast_fmri_test	310	637665,/,638345,/,639024,/,639704,/,640384,/	t,t,t,t,t	<img class = center src='/static/experiments/beast_fmri_test/images/D.png'></img>	71,89	2750.0	test	<img class = center src='/static/experiments/beast_fmri_test/images/redD.png'></img>	go	2200.0	3.0	20.0	go	non-target	D	71,Green Button	89,Yellow Button	400.0	550.0	2350.0	2200.0	1.0	550.0	n/a	1.0	ITI
98588	500	n/a	-1	-1	500	0.0	fixation	poldrack-single-stim	243	641053	0.0-13.21-0.21	beast_fmri_test	310	n/a	n/a	<div class = centerbox><div class = fixation>+</div></div>	none	500.0	test	n/a	n/a	n/a	n/a	n/a	n/a	n/a	n/a	n/a	n/a	n/a	n/a	n/a	n/a	n/a	n/a	n/a	n/a	fixation
95686.648875999963	2750	n/a	1276	89	2750	2902.351124	stim	stop-signal	244	643804	0.0-13.21-1.21	beast_fmri_test	310	641064,/,641746,/,642424,/,643105,/,643784,/,644465,/,645144,/,645824,/,646505,/	t,t,t,t,t,t,t,t,t	<img class = center src='/static/experiments/beast_fmri_test/images/B.png'></img>	71,89	2750.0	test	<img class = center src='/static/experiments/beast_fmri_test/images/redB.png'></img>	go	2200.0	3.0	21.0	go	non-target	B	71,Green Button	89,Yellow Button	400.0	550.0	2350.0	2200.0	1.0	550.0	n/a	1.0	go_stim
98436.648875999963	2902.3511239999998	n/a	1276	89	2750	2902.351124	stim	stop-signal	244	643804	0.0-13.21-1.21	beast_fmri_test	310	641064,/,641746,/,642424,/,643105,/,643784,/,644465,/,645144,/,645824,/,646505,/	t,t,t,t,t,t,t,t,t	<img class = center src='/static/experiments/beast_fmri_test/images/B.png'></img>	71,89	2750.0	test	<img class = center src='/static/experiments/beast_fmri_test/images/redB.png'></img>	go	2200.0	3.0	21.0	go	non-target	B	71,Green Button	89,Yellow Button	400.0	550.0	2350.0	2200.0	1.0	550.0	n/a	1.0	ITI
104753	500	n/a	-1	-1	500	0.0	fixation	poldrack-single-stim	245	647218	0.0-13.22-0.22	beast_fmri_test	310	647186,/	t	<div class = centerbox><div class = fixation>+</div></div>	none	500.0	test	n/a	n/a	n/a	n/a	n/a	n/a	n/a	n/a	n/a	n/a	n/a	n/a	n/a	n/a	n/a	n/a	n/a	n/a	fixation
101890.68174799997	2750	n/a	1200	89	2750	2864.318252	stim	stop-signal	246	649970	0.0-13.22-1.22	beast_fmri_test	310	647865,/,648545,/,649225,/,649905,/,650585,/,651265,/,651946,/,652625,/	t,t,t,t,t,t,t,t	<img class = center src='/static/experiments/beast_fmri_test/images/D.png'></img>	71,89	2750.0	test	<img class = center src='/static/experiments/beast_fmri_test/images/redD.png'></img>	go	2200.0	3.0	22.0	go	non-target	D	71,Green Button	89,Yellow Button	400.0	550.0	2350.0	2200.0	1.0	550.0	n/a	1.0	go_stim
104640.68174799997	2864.318252	n/a	1200	89	2750	2864.318252	stim	stop-signal	246	649970	0.0-13.22-1.22	beast_fmri_test	310	647865,/,648545,/,649225,/,649905,/,650585,/,651265,/,651946,/,652625,/	t,t,t,t,t,t,t,t	<img class = center src='/static/experiments/beast_fmri_test/images/D.png'></img>	71,89	2750.0	test	<img class = center src='/static/experiments/beast_fmri_test/images/redD.png'></img>	go	2200.0	3.0	22.0	go	non-target	D	71,Green Button	89,Yellow Button	400.0	550.0	2350.0	2200.0	1.0	550.0	n/a	1.0	ITI
110881	500	n/a	-1	-1	500	0.0	fixation	poldrack-single-stim	247	653346	0.0-13.23-0.23	beast_fmri_test	310	653305,/	t	<div class = centerbox><div class = fixation>+</div></div>	none	500.0	test	n/a	n/a	n/a	n/a	n/a	n/a	n/a	n/a	n/a	n/a	n/a	n/a	n/a	n/a	n/a	n/a	n/a	n/a	fixation
110701.64255410002	550.0	n/a	-1	-1	2750	181.3574459	stim	stop-signal	248	656098	0.0-13.23-1.23	beast_fmri_test	310	653985,/,654665,/,655345,/,656025,/	t,t,t,t	<img class = center src='/static/experiments/beast_fmri_test/images/B.png'></img>	71,89	2750.0	test	<img class = center src='/static/experiments/beast_fmri_test/images/redB.png'></img>	stop	2200.0	3.0	23.0	stop	non-target	B	71,Green Button	89,Yellow Button	400.0	550.0	2350.0	2200.0	0.0	550.0	1.0	0.0	go_stim
112901.64255410002	2200.0	n/a	-1	-1	2750	181.3574459	stim	stop-signal	248	656098	0.0-13.23-1.23	beast_fmri_test	310	653985,/,654665,/,655345,/,656025,/	t,t,t,t	<img class = center src='/static/experiments/beast_fmri_test/images/B.png'></img>	71,89	2750.0	test	<img class = center src='/static/experiments/beast_fmri_test/images/redB.png'></img>	stop	2200.0	3.0	23.0	stop	non-target	B	71,Green Button	89,Yellow Button	400.0	550.0	2350.0	2200.0	0.0	550.0	1.0	0.0	stop_stim
113451.64255410002	181.35744590000002	n/a	-1	-1	2750	181.3574459	stim	stop-signal	248	656098	0.0-13.23-1.23	beast_fmri_test	310	653985,/,654665,/,655345,/,656025,/	t,t,t,t	<img class = center src='/static/experiments/beast_fmri_test/images/B.png'></img>	71,89	2750.0	test	<img class = center src='/static/experiments/beast_fmri_test/images/redB.png'></img>	stop	2200.0	3.0	23.0	stop	non-target	B	71,Green Button	89,Yellow Button	400.0	550.0	2350.0	2200.0	0.0	550.0	1.0	0.0	ITI
114326	500	n/a	-1	-1	500	0.0	fixation	poldrack-single-stim	249	656791	0.0-13.24-0.24	beast_fmri_test	310	656705,/	t	<div class = centerbox><div class = fixation>+</div></div>	none	500.0	test	n/a	n/a	n/a	n/a	n/a	n/a	n/a	n/a	n/a	n/a	n/a	n/a	n/a	n/a	n/a	n/a	n/a	n/a	fixation
113652.99586889998	2750	n/a	1249	71	2750	675.0041311	stim	stop-signal	250	659543	0.0-13.24-1.24	beast_fmri_test	310	657385,/,658065,/,658745,/,659425,/,660105,/	t,t,t,t,t	<img class = center src='/static/experiments/beast_fmri_test/images/B.png'></img>	71,89	2750.0	test	<img class = center src='/static/experiments/beast_fmri_test/images/redB.png'></img>	go	2350.0	3.0	24.0	go	target	B	71,Green Button	89,Yellow Button	400.0	600.0	2350.0	2200.0	1.0	400.0	n/a	1.0	go_stim
116402.99586889998	675.00413110000011	n/a	1249	71	2750	675.0041311	stim	stop-signal	250	659543	0.0-13.24-1.24	beast_fmri_test	310	657385,/,658065,/,658745,/,659425,/,660105,/	t,t,t,t,t	<img class = center src='/static/experiments/beast_fmri_test/images/B.png'></img>	71,89	2750.0	test	<img class = center src='/static/experiments/beast_fmri_test/images/redB.png'></img>	go	2350.0	3.0	24.0	go	target	B	71,Green Button	89,Yellow Button	400.0	600.0	2350.0	2200.0	1.0	400.0	n/a	1.0	ITI
118266	500	n/a	-1	-1	500	0.0	fixation	poldrack-single-stim	251	660731	0.0-13.25-0.25	beast_fmri_test	310	n/a	n/a	<div class = centerbox><div class = fixation>+</div></div>	none	500.0	test	n/a	n/a	n/a	n/a	n/a	n/a	n/a	n/a	n/a	n/a	n/a	n/a	n/a	n/a	n/a	n/a	n/a	n/a	fixation
116376.03749300004	2750	n/a	790	71	2750	1891.962507	stim	stop-signal	252	663483	0.0-13.25-1.25	beast_fmri_test	310	660785,/,661465,/,662146,/,662825,/,663505,/,664185,/,664865,/	t,t,t,t,t,t,t	<img class = center src='/static/experiments/beast_fmri_test/images/T.png'></img>	71,89	2750.0	test	<img class = center src='/static/experiments/beast_fmri_test/images/redT.png'></img>	go	2150.0	3.0	25.0	go	non-target	T	71,Green Button	89,Yellow Button	400.0	600.0	2350.0	2150.0	0.0	600.0	n/a	0.0	go_stim
119126.03749300004	1891.962507	n/a	790	71	2750	1891.962507	stim	stop-signal	252	663483	0.0-13.25-1.25	beast_fmri_test	310	660785,/,661465,/,662146,/,662825,/,663505,/,664185,/,664865,/	t,t,t,t,t,t,t	<img class = center src='/static/experiments/beast_fmri_test/images/T.png'></img>	71,89	2750.0	test	<img class = center src='/static/experiments/beast_fmri_test/images/redT.png'></img>	go	2150.0	3.0	25.0	go	non-target	T	71,Green Button	89,Yellow Button	400.0	600.0	2350.0	2150.0	0.0	600.0	n/a	0.0	ITI
123423	500	n/a	-1	-1	500	0.0	fixation	poldrack-single-stim	253	665888	0.0-13.26-0.26	beast_fmri_test	310	665545,/	t	<div class = centerbox><div class = fixation>+</div></div>	none	500.0	test	n/a	n/a	n/a	n/a	n/a	n/a	n/a	n/a	n/a	n/a	n/a	n/a	n/a	n/a	n/a	n/a	n/a	n/a	fixation
123195.07465359999	400.0	n/a	-1	-1	2750	228.9253464	stim	stop-signal	254	668639	0.0-13.26-1.26	beast_fmri_test	310	666225,/,666905,/,667585,/,668265,/	t,t,t,t	<img class = center src='/static/experiments/beast_fmri_test/images/B.png'></img>	71,89	2750.0	test	<img class = center src='/static/experiments/beast_fmri_test/images/redB.png'></img>	stop	2350.0	3.0	26.0	stop	target	B	71,Green Button	89,Yellow Button	400.0	600.0	2350.0	2150.0	0.0	400.0	1.0	0.0	go_stim
125545.07465359999	2350.0	n/a	-1	-1	2750	228.9253464	stim	stop-signal	254	668639	0.0-13.26-1.26	beast_fmri_test	310	666225,/,666905,/,667585,/,668265,/	t,t,t,t	<img class = center src='/static/experiments/beast_fmri_test/images/B.png'></img>	71,89	2750.0	test	<img class = center src='/static/experiments/beast_fmri_test/images/redB.png'></img>	stop	2350.0	3.0	26.0	stop	target	B	71,Green Button	89,Yellow Button	400.0	600.0	2350.0	2150.0	0.0	400.0	1.0	0.0	stop_stim
125945.07465359999	228.92534640000002	n/a	-1	-1	2750	228.9253464	stim	stop-signal	254	668639	0.0-13.26-1.26	beast_fmri_test	310	666225,/,666905,/,667585,/,668265,/	t,t,t,t	<img class = center src='/static/experiments/beast_fmri_test/images/B.png'></img>	71,89	2750.0	test	<img class = center src='/static/experiments/beast_fmri_test/images/redB.png'></img>	stop	2350.0	3.0	26.0	stop	target	B	71,Green Button	89,Yellow Button	400.0	600.0	2350.0	2150.0	0.0	400.0	1.0	0.0	ITI
126916	500	n/a	-1	-1	500	0.0	fixation	poldrack-single-stim	255	669381	0.0-13.27-0.27	beast_fmri_test	310	668945,/	t	<div class = centerbox><div class = fixation>+</div></div>	none	500.0	test	n/a	n/a	n/a	n/a	n/a	n/a	n/a	n/a	n/a	n/a	n/a	n/a	n/a	n/a	n/a	n/a	n/a	n/a	fixation
126010.43816899997	2750	n/a	1274	89	2750	907.561831	stim	stop-signal	256	672133	0.0-13.27-1.27	beast_fmri_test	310	669625,/,670304,/,670984,/,671664,/,672345,/,673025,/	t,t,t,t,t,t	<img class = center src='/static/experiments/beast_fmri_test/images/B.png'></img>	71,89	2750.0	test	<img class = center src='/static/experiments/beast_fmri_test/images/redB.png'></img>	go	2300.0	3.0	27.0	go	target	B	71,Green Button	89,Yellow Button	450.0	600.0	2300.0	2150.0	0.0	450.0	n/a	0.0	go_stim
128760.43816899997	907.5618310000001	n/a	1274	89	2750	907.561831	stim	stop-signal	256	672133	0.0-13.27-1.27	beast_fmri_test	310	669625,/,670304,/,670984,/,671664,/,672345,/,673025,/	t,t,t,t,t,t	<img class = center src='/static/experiments/beast_fmri_test/images/B.png'></img>	71,89	2750.0	test	<img class = center src='/static/experiments/beast_fmri_test/images/redB.png'></img>	go	2300.0	3.0	27.0	go	target	B	71,Green Button	89,Yellow Button	450.0	600.0	2300.0	2150.0	0.0	450.0	n/a	0.0	ITI
131087	500	n/a	-1	-1	500	0.0	fixation	poldrack-single-stim	257	673552	0.0-13.28-0.28	beast_fmri_test	310	n/a	n/a	<div class = centerbox><div class = fixation>+</div></div>	none	500.0	test	n/a	n/a	n/a	n/a	n/a	n/a	n/a	n/a	n/a	n/a	n/a	n/a	n/a	n/a	n/a	n/a	n/a	n/a	fixation
130930.64584230003	600.0	n/a	-1	-1	2750	158.3541577	stim	stop-signal	258	676304	0.0-13.28-1.28	beast_fmri_test	310	673704,/,674385,/,675064,/,675745,/,676425,/	t,t,t,t,t	<img class = center src='/static/experiments/beast_fmri_test/images/B.png'></img>	71,89	2750.0	test	<img class = center src='/static/experiments/beast_fmri_test/images/redB.png'></img>	stop	2150.0	3.0	28.0	stop	non-target	B	71,Green Button	89,Yellow Button	450.0	600.0	2300.0	2150.0	0.0	600.0	1.0	0.0	go_stim
133080.64584230003	2150.0	n/a	-1	-1	2750	158.3541577	stim	stop-signal	258	676304	0.0-13.28-1.28	beast_fmri_test	310	673704,/,674385,/,675064,/,675745,/,676425,/	t,t,t,t,t	<img class = center src='/static/experiments/beast_fmri_test/images/B.png'></img>	71,89	2750.0	test	<img class = center src='/static/experiments/beast_fmri_test/images/redB.png'></img>	stop	2150.0	3.0	28.0	stop	non-target	B	71,Green Button	89,Yellow Button	450.0	600.0	2300.0	2150.0	0.0	600.0	1.0	0.0	stop_stim
133680.64584230003	158.35415769999997	n/a	-1	-1	2750	158.3541577	stim	stop-signal	258	676304	0.0-13.28-1.28	beast_fmri_test	310	673704,/,674385,/,675064,/,675745,/,676425,/	t,t,t,t,t	<img class = center src='/static/experiments/beast_fmri_test/images/B.png'></img>	71,89	2750.0	test	<img class = center src='/static/experiments/beast_fmri_test/images/redB.png'></img>	stop	2150.0	3.0	28.0	stop	non-target	B	71,Green Button	89,Yellow Button	450.0	600.0	2300.0	2150.0	0.0	600.0	1.0	0.0	ITI
134509	500	n/a	-1	-1	500	0.0	fixation	poldrack-single-stim	259	676974	0.0-13.29-0.29	beast_fmri_test	310	n/a	n/a	<div class = centerbox><div class = fixation>+</div></div>	none	500.0	test	n/a	n/a	n/a	n/a	n/a	n/a	n/a	n/a	n/a	n/a	n/a	n/a	n/a	n/a	n/a	n/a	n/a	n/a	fixation
133469.80555100006	650.0	n/a	-1	-1	2750	1041.194449	stim	stop-signal	260	679726	0.0-13.29-1.29	beast_fmri_test	310	677105,/,677785,/,678464,/,679144,/,679824,/,680505,/	t,t,t,t,t,t	<img class = center src='/static/experiments/beast_fmri_test/images/D.png'></img>	71,89	2750.0	test	<img class = center src='/static/experiments/beast_fmri_test/images/redD.png'></img>	stop	2100.0	3.0	29.0	stop	non-target	D	71,Green Button	89,Yellow Button	450.0	650.0	2300.0	2100.0	0.0	650.0	1.0	0.0	go_stim
135569.80555100006	2100.0	n/a	-1	-1	2750	1041.194449	stim	stop-signal	260	679726	0.0-13.29-1.29	beast_fmri_test	310	677105,/,677785,/,678464,/,679144,/,679824,/,680505,/	t,t,t,t,t,t	<img class = center src='/static/experiments/beast_fmri_test/images/D.png'></img>	71,89	2750.0	test	<img class = center src='/static/experiments/beast_fmri_test/images/redD.png'></img>	stop	2100.0	3.0	29.0	stop	non-target	D	71,Green Button	89,Yellow Button	450.0	650.0	2300.0	2100.0	0.0	650.0	1.0	0.0	stop_stim
136219.80555100006	1041.1944490000001	n/a	-1	-1	2750	1041.194449	stim	stop-signal	260	679726	0.0-13.29-1.29	beast_fmri_test	310	677105,/,677785,/,678464,/,679144,/,679824,/,680505,/	t,t,t,t,t,t	<img class = center src='/static/experiments/beast_fmri_test/images/D.png'></img>	71,89	2750.0	test	<img class = center src='/static/experiments/beast_fmri_test/images/redD.png'></img>	stop	2100.0	3.0	29.0	stop	non-target	D	71,Green Button	89,Yellow Button	450.0	650.0	2300.0	2100.0	0.0	650.0	1.0	0.0	ITI
138816	500	n/a	-1	-1	500	0.0	fixation	poldrack-single-stim	261	681281	0.0-13.30-0.30	beast_fmri_test	310	681185,/	t	<div class = centerbox><div class = fixation>+</div></div>	none	500.0	test	n/a	n/a	n/a	n/a	n/a	n/a	n/a	n/a	n/a	n/a	n/a	n/a	n/a	n/a	n/a	n/a	n/a	n/a	fixation
136043.96799499996	2750	n/a	1020	89	2750	2774.032005	stim	stop-signal	262	684033	0.0-13.30-1.30	beast_fmri_test	310	681865,/,682546,/,683225,/,683905,/,684585,/,685265,/,685945,/,686625,/	t,t,t,t,t,t,t,t	<img class = center src='/static/experiments/beast_fmri_test/images/D.png'></img>	71,89	2750.0	test	<img class = center src='/static/experiments/beast_fmri_test/images/redD.png'></img>	go	2050.0	3.0	30.0	go	non-target	D	71,Green Button	89,Yellow Button	450.0	700.0	2300.0	2050.0	1.0	700.0	n/a	1.0	go_stim
138793.96799499996	2774.032005	n/a	1020	89	2750	2774.032005	stim	stop-signal	262	684033	0.0-13.30-1.30	beast_fmri_test	310	681865,/,682546,/,683225,/,683905,/,684585,/,685265,/,685945,/,686625,/	t,t,t,t,t,t,t,t	<img class = center src='/static/experiments/beast_fmri_test/images/D.png'></img>	71,89	2750.0	test	<img class = center src='/static/experiments/beast_fmri_test/images/redD.png'></img>	go	2050.0	3.0	30.0	go	non-target	D	71,Green Button	89,Yellow Button	450.0	700.0	2300.0	2050.0	1.0	700.0	n/a	1.0	ITI
144853	500	n/a	-1	-1	500	0.0	fixation	poldrack-single-stim	263	687318	0.0-13.31-0.31	beast_fmri_test	310	687305,/	t	<div class = centerbox><div class = fixation>+</div></div>	none	500.0	test	n/a	n/a	n/a	n/a	n/a	n/a	n/a	n/a	n/a	n/a	n/a	n/a	n/a	n/a	n/a	n/a	n/a	n/a	fixation
144788.41676932003	700.0	n/a	811	89	2750	65.58323068	stim	stop-signal	264	690069	0.0-13.31-1.31	beast_fmri_test	310	687985,/,688665,/,689345,/,690025,/	t,t,t,t	<img class = center src='/static/experiments/beast_fmri_test/images/D.png'></img>	71,89	2750.0	test	<img class = center src='/static/experiments/beast_fmri_test/images/redD.png'></img>	stop	2050.0	3.0	31.0	stop	non-target	D	71,Green Button	89,Yellow Button	450.0	700.0	2300.0	2050.0	0.0	700.0	0.0	1.0	go_stim
146838.41676932003	2050.0	n/a	811	89	2750	65.58323068	stim	stop-signal	264	690069	0.0-13.31-1.31	beast_fmri_test	310	687985,/,688665,/,689345,/,690025,/	t,t,t,t	<img class = center src='/static/experiments/beast_fmri_test/images/D.png'></img>	71,89	2750.0	test	<img class = center src='/static/experiments/beast_fmri_test/images/redD.png'></img>	stop	2050.0	3.0	31.0	stop	non-target	D	71,Green Button	89,Yellow Button	450.0	700.0	2300.0	2050.0	0.0	700.0	0.0	1.0	stop_stim
147538.41676932003	65.58323068	n/a	811	89	2750	65.58323068	stim	stop-signal	264	690069	0.0-13.31-1.31	beast_fmri_test	310	687985,/,688665,/,689345,/,690025,/	t,t,t,t	<img class = center src='/static/experiments/beast_fmri_test/images/D.png'></img>	71,89	2750.0	test	<img class = center src='/static/experiments/beast_fmri_test/images/redD.png'></img>	stop	2050.0	3.0	31.0	stop	non-target	D	71,Green Button	89,Yellow Button	450.0	700.0	2300.0	2050.0	0.0	700.0	0.0	1.0	ITI
148185	500	n/a	-1	-1	500	0.0	fixation	poldrack-single-stim	265	690650	0.0-13.32-0.32	beast_fmri_test	310	n/a	n/a	<div class = centerbox><div class = fixation>+</div></div>	none	500.0	test	n/a	n/a	n/a	n/a	n/a	n/a	n/a	n/a	n/a	n/a	n/a	n/a	n/a	n/a	n/a	n/a	n/a	n/a	fixation
146785.34909999999	650.0	n/a	-1	-1	2750	1400.6509	stim	stop-signal	266	693401	0.0-13.32-1.32	beast_fmri_test	310	690705,/,691385,/,692065,/,692746,/,693425,/,694105,/,694785,/	t,t,t,t,t,t,t	<img class = center src='/static/experiments/beast_fmri_test/images/B.png'></img>	71,89	2750.0	test	<img class = center src='/static/experiments/beast_fmri_test/images/redB.png'></img>	stop	2100.0	3.0	32.0	stop	non-target	B	71,Green Button	89,Yellow Button	450.0	650.0	2300.0	2100.0	0.0	650.0	1.0	0.0	go_stim
148885.34909999999	2100.0	n/a	-1	-1	2750	1400.6509	stim	stop-signal	266	693401	0.0-13.32-1.32	beast_fmri_test	310	690705,/,691385,/,692065,/,692746,/,693425,/,694105,/,694785,/	t,t,t,t,t,t,t	<img class = center src='/static/experiments/beast_fmri_test/images/B.png'></img>	71,89	2750.0	test	<img class = center src='/static/experiments/beast_fmri_test/images/redB.png'></img>	stop	2100.0	3.0	32.0	stop	non-target	B	71,Green Button	89,Yellow Button	450.0	650.0	2300.0	2100.0	0.0	650.0	1.0	0.0	stop_stim
149535.34909999999	1400.6509000000001	n/a	-1	-1	2750	1400.6509	stim	stop-signal	266	693401	0.0-13.32-1.32	beast_fmri_test	310	690705,/,691385,/,692065,/,692746,/,693425,/,694105,/,694785,/	t,t,t,t,t,t,t	<img class = center src='/static/experiments/beast_fmri_test/images/B.png'></img>	71,89	2750.0	test	<img class = center src='/static/experiments/beast_fmri_test/images/redB.png'></img>	stop	2100.0	3.0	32.0	stop	non-target	B	71,Green Button	89,Yellow Button	450.0	650.0	2300.0	2100.0	0.0	650.0	1.0	0.0	ITI
152849	500	n/a	-1	-1	500	0.0	fixation	poldrack-single-stim	267	695314	0.0-13.33-0.33	beast_fmri_test	310	n/a	n/a	<div class = centerbox><div class = fixation>+</div></div>	none	500.0	test	n/a	n/a	n/a	n/a	n/a	n/a	n/a	n/a	n/a	n/a	n/a	n/a	n/a	n/a	n/a	n/a	n/a	n/a	fixation
151990.47871910001	2750	n/a	1081	71	2750	860.5212809	stim	stop-signal	268	698066	0.0-13.33-1.33	beast_fmri_test	310	695465,/,696145,/,696825,/,697505,/,698185,/,698865,/	t,t,t,t,t,t	<img class = center src='/static/experiments/beast_fmri_test/images/D.png'></img>	71,89	2750.0	test	<img class = center src='/static/experiments/beast_fmri_test/images/redD.png'></img>	go	2300.0	3.0	33.0	go	target	D	71,Green Button	89,Yellow Button	450.0	700.0	2300.0	2100.0	1.0	450.0	n/a	1.0	go_stim
154740.47871910001	860.52128090000008	n/a	1081	71	2750	860.5212809	stim	stop-signal	268	698066	0.0-13.33-1.33	beast_fmri_test	310	695465,/,696145,/,696825,/,697505,/,698185,/,698865,/	t,t,t,t,t,t	<img class = center src='/static/experiments/beast_fmri_test/images/D.png'></img>	71,89	2750.0	test	<img class = center src='/static/experiments/beast_fmri_test/images/redD.png'></img>	go	2300.0	3.0	33.0	go	target	D	71,Green Button	89,Yellow Button	450.0	700.0	2300.0	2100.0	1.0	450.0	n/a	1.0	ITI
156974	500	n/a	-1	-1	500	0.0	fixation	poldrack-single-stim	269	699439	0.0-13.34-0.34	beast_fmri_test	310	n/a	n/a	<div class = centerbox><div class = fixation>+</div></div>	none	500.0	test	n/a	n/a	n/a	n/a	n/a	n/a	n/a	n/a	n/a	n/a	n/a	n/a	n/a	n/a	n/a	n/a	n/a	n/a	fixation
156841.63923029997	2750	n/a	715	89	2750	134.3607697	stim	stop-signal	270	702191	0.0-13.34-1.34	beast_fmri_test	310	699545,/,700225,/,700905,/,701585,/,702265,/	t,t,t,t,t	<img class = center src='/static/experiments/beast_fmri_test/images/P.png'></img>	71,89	2750.0	test	<img class = center src='/static/experiments/beast_fmri_test/images/redP.png'></img>	go	2050.0	3.0	34.0	go	non-target	P	71,Green Button	89,Yellow Button	450.0	700.0	2300.0	2050.0	1.0	700.0	n/a	1.0	go_stim
159591.63923029997	134.36076969999999	n/a	715	89	2750	134.3607697	stim	stop-signal	270	702191	0.0-13.34-1.34	beast_fmri_test	310	699545,/,700225,/,700905,/,701585,/,702265,/	t,t,t,t,t	<img class = center src='/static/experiments/beast_fmri_test/images/P.png'></img>	71,89	2750.0	test	<img class = center src='/static/experiments/beast_fmri_test/images/redP.png'></img>	go	2050.0	3.0	34.0	go	non-target	P	71,Green Button	89,Yellow Button	450.0	700.0	2300.0	2050.0	1.0	700.0	n/a	1.0	ITI
160371	500	n/a	-1	-1	500	0.0	fixation	poldrack-single-stim	271	702836	0.0-13.35-0.35	beast_fmri_test	310	n/a	n/a	<div class = centerbox><div class = fixation>+</div></div>	none	500.0	test	n/a	n/a	n/a	n/a	n/a	n/a	n/a	n/a	n/a	n/a	n/a	n/a	n/a	n/a	n/a	n/a	n/a	n/a	fixation
160164.59435140004	450.0	n/a	-1	-1	2750	207.4056486	stim	stop-signal	272	705587	0.0-13.35-1.35	beast_fmri_test	310	702946,/,703625,/,704305,/,704985,/,705665,/	t,t,t,t,t	<img class = center src='/static/experiments/beast_fmri_test/images/B.png'></img>	71,89	2750.0	test	<img class = center src='/static/experiments/beast_fmri_test/images/redB.png'></img>	stop	2300.0	3.0	35.0	stop	target	B	71,Green Button	89,Yellow Button	450.0	700.0	2300.0	2050.0	0.0	450.0	1.0	0.0	go_stim
162464.59435140004	2300.0	n/a	-1	-1	2750	207.4056486	stim	stop-signal	272	705587	0.0-13.35-1.35	beast_fmri_test	310	702946,/,703625,/,704305,/,704985,/,705665,/	t,t,t,t,t	<img class = center src='/static/experiments/beast_fmri_test/images/B.png'></img>	71,89	2750.0	test	<img class = center src='/static/experiments/beast_fmri_test/images/redB.png'></img>	stop	2300.0	3.0	35.0	stop	target	B	71,Green Button	89,Yellow Button	450.0	700.0	2300.0	2050.0	0.0	450.0	1.0	0.0	stop_stim
162914.59435140004	207.40564860000001	n/a	-1	-1	2750	207.4056486	stim	stop-signal	272	705587	0.0-13.35-1.35	beast_fmri_test	310	702946,/,703625,/,704305,/,704985,/,705665,/	t,t,t,t,t	<img class = center src='/static/experiments/beast_fmri_test/images/B.png'></img>	71,89	2750.0	test	<img class = center src='/static/experiments/beast_fmri_test/images/redB.png'></img>	stop	2300.0	3.0	35.0	stop	target	B	71,Green Button	89,Yellow Button	450.0	700.0	2300.0	2050.0	0.0	450.0	1.0	0.0	ITI
163840	500	n/a	-1	-1	500	0.0	fixation	poldrack-single-stim	273	706305	0.0-13.36-0.36	beast_fmri_test	310	n/a	n/a	<div class = centerbox><div class = fixation>+</div></div>	none	500.0	test	n/a	n/a	n/a	n/a	n/a	n/a	n/a	n/a	n/a	n/a	n/a	n/a	n/a	n/a	n/a	n/a	n/a	n/a	fixation
163131.70082030003	2750	n/a	1295	89	2750	710.2991797	stim	stop-signal	274	709057	0.0-13.36-1.36	beast_fmri_test	310	706344,/,707024,/,707704,/,708384,/,709064,/,709744,/	t,t,t,t,t,t	<img class = center src='/static/experiments/beast_fmri_test/images/P.png'></img>	71,89	2750.0	test	<img class = center src='/static/experiments/beast_fmri_test/images/redP.png'></img>	go	2050.0	3.0	36.0	go	non-target	P	71,Green Button	89,Yellow Button	500.0	700.0	2300.0	2050.0	1.0	700.0	n/a	1.0	go_stim
165881.70082030003	710.29917970000008	n/a	1295	89	2750	710.2991797	stim	stop-signal	274	709057	0.0-13.36-1.36	beast_fmri_test	310	706344,/,707024,/,707704,/,708384,/,709064,/,709744,/	t,t,t,t,t,t	<img class = center src='/static/experiments/beast_fmri_test/images/P.png'></img>	71,89	2750.0	test	<img class = center src='/static/experiments/beast_fmri_test/images/redP.png'></img>	go	2050.0	3.0	36.0	go	non-target	P	71,Green Button	89,Yellow Button	500.0	700.0	2300.0	2050.0	1.0	700.0	n/a	1.0	ITI
167813	500	n/a	-1	-1	500	0.0	fixation	poldrack-single-stim	275	710278	0.0-13.37-0.37	beast_fmri_test	310	n/a	n/a	<div class = centerbox><div class = fixation>+</div></div>	none	500.0	test	n/a	n/a	n/a	n/a	n/a	n/a	n/a	n/a	n/a	n/a	n/a	n/a	n/a	n/a	n/a	n/a	n/a	n/a	fixation
167073.18716880004	2750	n/a	1553	89	2750	741.8128312	stim	stop-signal	276	713030	0.0-13.37-1.37	beast_fmri_test	310	710424,/,711104,/,711784,/,712464,/,713145,/	t,t,t,t,t	<img class = center src='/static/experiments/beast_fmri_test/images/B.png'></img>	71,89	2750.0	test	<img class = center src='/static/experiments/beast_fmri_test/images/redB.png'></img>	go	2050.0	3.0	37.0	go	non-target	B	71,Green Button	89,Yellow Button	500.0	700.0	2300.0	2050.0	1.0	700.0	n/a	1.0	go_stim
169823.18716880004	741.81283120000012	n/a	1553	89	2750	741.8128312	stim	stop-signal	276	713030	0.0-13.37-1.37	beast_fmri_test	310	710424,/,711104,/,711784,/,712464,/,713145,/	t,t,t,t,t	<img class = center src='/static/experiments/beast_fmri_test/images/B.png'></img>	71,89	2750.0	test	<img class = center src='/static/experiments/beast_fmri_test/images/redB.png'></img>	go	2050.0	3.0	37.0	go	non-target	B	71,Green Button	89,Yellow Button	500.0	700.0	2300.0	2050.0	1.0	700.0	n/a	1.0	ITI
171818	500	n/a	-1	-1	500	0.0	fixation	poldrack-single-stim	277	714283	0.0-13.38-0.38	beast_fmri_test	310	713824,/	t	<div class = centerbox><div class = fixation>+</div></div>	none	500.0	test	n/a	n/a	n/a	n/a	n/a	n/a	n/a	n/a	n/a	n/a	n/a	n/a	n/a	n/a	n/a	n/a	n/a	n/a	fixation
170990.05537089997	700.0	n/a	-1	-1	2750	830.9446291	stim	stop-signal	278	717036	0.0-13.38-1.38	beast_fmri_test	310	714505,/,715185,/,715865,/,716545,/,717225,/	t,t,t,t,t	<img class = center src='/static/experiments/beast_fmri_test/images/T.png'></img>	71,89	2750.0	test	<img class = center src='/static/experiments/beast_fmri_test/images/redT.png'></img>	stop	2050.0	3.0	38.0	stop	non-target	T	71,Green Button	89,Yellow Button	500.0	700.0	2300.0	2050.0	0.0	700.0	1.0	0.0	go_stim
173040.05537089997	2050.0	n/a	-1	-1	2750	830.9446291	stim	stop-signal	278	717036	0.0-13.38-1.38	beast_fmri_test	310	714505,/,715185,/,715865,/,716545,/,717225,/	t,t,t,t,t	<img class = center src='/static/experiments/beast_fmri_test/images/T.png'></img>	71,89	2750.0	test	<img class = center src='/static/experiments/beast_fmri_test/images/redT.png'></img>	stop	2050.0	3.0	38.0	stop	non-target	T	71,Green Button	89,Yellow Button	500.0	700.0	2300.0	2050.0	0.0	700.0	1.0	0.0	stop_stim
173740.05537089997	830.94462910000004	n/a	-1	-1	2750	830.9446291	stim	stop-signal	278	717036	0.0-13.38-1.38	beast_fmri_test	310	714505,/,715185,/,715865,/,716545,/,717225,/	t,t,t,t,t	<img class = center src='/static/experiments/beast_fmri_test/images/T.png'></img>	71,89	2750.0	test	<img class = center src='/static/experiments/beast_fmri_test/images/redT.png'></img>	stop	2050.0	3.0	38.0	stop	non-target	T	71,Green Button	89,Yellow Button	500.0	700.0	2300.0	2050.0	0.0	700.0	1.0	0.0	ITI
175914	500	n/a	-1	-1	500	0.0	fixation	poldrack-single-stim	279	718379	0.0-13.39-0.39	beast_fmri_test	310	717905,/	t	<div class = centerbox><div class = fixation>+</div></div>	none	500.0	test	n/a	n/a	n/a	n/a	n/a	n/a	n/a	n/a	n/a	n/a	n/a	n/a	n/a	n/a	n/a	n/a	n/a	n/a	fixation
175448.81920639996	500.0	n/a	-1	-1	2750	467.1807936	stim	stop-signal	280	721131	0.0-13.39-1.39	beast_fmri_test	310	718585,/,719265,/,719946,/,720625,/,721305,/	t,t,t,t,t	<img class = center src='/static/experiments/beast_fmri_test/images/P.png'></img>	71,89	2750.0	test	<img class = center src='/static/experiments/beast_fmri_test/images/redP.png'></img>	stop	2250.0	3.0	39.0	stop	target	P	71,Green Button	89,Yellow Button	500.0	750.0	2250.0	2050.0	0.0	500.0	1.0	0.0	go_stim
177698.81920639996	2250.0	n/a	-1	-1	2750	467.1807936	stim	stop-signal	280	721131	0.0-13.39-1.39	beast_fmri_test	310	718585,/,719265,/,719946,/,720625,/,721305,/	t,t,t,t,t	<img class = center src='/static/experiments/beast_fmri_test/images/P.png'></img>	71,89	2750.0	test	<img class = center src='/static/experiments/beast_fmri_test/images/redP.png'></img>	stop	2250.0	3.0	39.0	stop	target	P	71,Green Button	89,Yellow Button	500.0	750.0	2250.0	2050.0	0.0	500.0	1.0	0.0	stop_stim
178198.81920639996	467.18079360000007	n/a	-1	-1	2750	467.1807936	stim	stop-signal	280	721131	0.0-13.39-1.39	beast_fmri_test	310	718585,/,719265,/,719946,/,720625,/,721305,/	t,t,t,t,t	<img class = center src='/static/experiments/beast_fmri_test/images/P.png'></img>	71,89	2750.0	test	<img class = center src='/static/experiments/beast_fmri_test/images/redP.png'></img>	stop	2250.0	3.0	39.0	stop	target	P	71,Green Button	89,Yellow Button	500.0	750.0	2250.0	2050.0	0.0	500.0	1.0	0.0	ITI
179646	500	n/a	-1	-1	500	0.0	fixation	poldrack-single-stim	281	722111	0.0-13.40-0.40	beast_fmri_test	310	721985,/	t	<div class = centerbox><div class = fixation>+</div></div>	none	500.0	test	n/a	n/a	n/a	n/a	n/a	n/a	n/a	n/a	n/a	n/a	n/a	n/a	n/a	n/a	n/a	n/a	n/a	n/a	fixation
177267.39542099996	2750	n/a	1499	89	2750	2380.604579	stim	stop-signal	282	724863	0.0-13.40-1.40	beast_fmri_test	310	722665,/,723346,/,724025,/,724705,/,725385,/,726065,/,726745,/	t,t,t,t,t,t,t	<img class = center src='/static/experiments/beast_fmri_test/images/P.png'></img>	71,89	2750.0	test	<img class = center src='/static/experiments/beast_fmri_test/images/redP.png'></img>	go	2000.0	3.0	40.0	go	non-target	P	71,Green Button	89,Yellow Button	550.0	750.0	2250.0	2000.0	1.0	750.0	n/a	1.0	go_stim
180017.39542099996	2380.6045789999998	n/a	1499	89	2750	2380.604579	stim	stop-signal	282	724863	0.0-13.40-1.40	beast_fmri_test	310	722665,/,723346,/,724025,/,724705,/,725385,/,726065,/,726745,/	t,t,t,t,t,t,t	<img class = center src='/static/experiments/beast_fmri_test/images/P.png'></img>	71,89	2750.0	test	<img class = center src='/static/experiments/beast_fmri_test/images/redP.png'></img>	go	2000.0	3.0	40.0	go	non-target	P	71,Green Button	89,Yellow Button	550.0	750.0	2250.0	2000.0	1.0	750.0	n/a	1.0	ITI
185293	500	n/a	-1	-1	500	0.0	fixation	poldrack-single-stim	283	727758	0.0-13.41-0.41	beast_fmri_test	310	727425,/	t	<div class = centerbox><div class = fixation>+</div></div>	none	500.0	test	n/a	n/a	n/a	n/a	n/a	n/a	n/a	n/a	n/a	n/a	n/a	n/a	n/a	n/a	n/a	n/a	n/a	n/a	fixation
185138.92803419998	2750	n/a	698	89	2750	156.0719658	stim	stop-signal	284	730510	0.0-13.41-1.41	beast_fmri_test	310	728105,/,728785,/,729465,/,730145,/	t,t,t,t	<img class = center src='/static/experiments/beast_fmri_test/images/D.png'></img>	71,89	2750.0	test	<img class = center src='/static/experiments/beast_fmri_test/images/redD.png'></img>	go	2000.0	3.0	41.0	go	non-target	D	71,Green Button	89,Yellow Button	550.0	750.0	2250.0	2000.0	1.0	750.0	n/a	1.0	go_stim
187888.92803419998	156.07196580000002	n/a	698	89	2750	156.0719658	stim	stop-signal	284	730510	0.0-13.41-1.41	beast_fmri_test	310	728105,/,728785,/,729465,/,730145,/	t,t,t,t	<img class = center src='/static/experiments/beast_fmri_test/images/D.png'></img>	71,89	2750.0	test	<img class = center src='/static/experiments/beast_fmri_test/images/redD.png'></img>	go	2000.0	3.0	41.0	go	non-target	D	71,Green Button	89,Yellow Button	550.0	750.0	2250.0	2000.0	1.0	750.0	n/a	1.0	ITI
188714	500	n/a	-1	-1	500	0.0	fixation	poldrack-single-stim	285	731179	0.0-13.42-0.42	beast_fmri_test	310	730825,/	t	<div class = centerbox><div class = fixation>+</div></div>	none	500.0	test	n/a	n/a	n/a	n/a	n/a	n/a	n/a	n/a	n/a	n/a	n/a	n/a	n/a	n/a	n/a	n/a	n/a	n/a	fixation
188378.65494839998	2750	n/a	1051	89	2750	337.3450516	stim	stop-signal	286	733931	0.0-13.42-1.42	beast_fmri_test	310	731505,/,732185,/,732865,/,733545,/,734225,/	t,t,t,t,t	<img class = center src='/static/experiments/beast_fmri_test/images/D.png'></img>	71,89	2750.0	test	<img class = center src='/static/experiments/beast_fmri_test/images/redD.png'></img>	go	2000.0	3.0	42.0	go	non-target	D	71,Green Button	89,Yellow Button	550.0	750.0	2250.0	2000.0	1.0	750.0	n/a	1.0	go_stim
191128.65494839998	337.34505160000003	n/a	1051	89	2750	337.3450516	stim	stop-signal	286	733931	0.0-13.42-1.42	beast_fmri_test	310	731505,/,732185,/,732865,/,733545,/,734225,/	t,t,t,t,t	<img class = center src='/static/experiments/beast_fmri_test/images/D.png'></img>	71,89	2750.0	test	<img class = center src='/static/experiments/beast_fmri_test/images/redD.png'></img>	go	2000.0	3.0	42.0	go	non-target	D	71,Green Button	89,Yellow Button	550.0	750.0	2250.0	2000.0	1.0	750.0	n/a	1.0	ITI
192317	500	n/a	-1	-1	500	0.0	fixation	poldrack-single-stim	287	734782	0.0-13.43-0.43	beast_fmri_test	310	n/a	n/a	<div class = centerbox><div class = fixation>+</div></div>	none	500.0	test	n/a	n/a	n/a	n/a	n/a	n/a	n/a	n/a	n/a	n/a	n/a	n/a	n/a	n/a	n/a	n/a	n/a	n/a	fixation
192145.03951509995	2750	n/a	531	71	2750	173.9604849	stim	stop-signal	288	737534	0.0-13.43-1.43	beast_fmri_test	310	734905,/,735585,/,736265,/,736945,/,737625,/	t,t,t,t,t	<img class = center src='/static/experiments/beast_fmri_test/images/P.png'></img>	71,89	2750.0	test	<img class = center src='/static/experiments/beast_fmri_test/images/redP.png'></img>	go	2200.0	3.0	43.0	go	target	P	71,Green Button	89,Yellow Button	550.0	750.0	2200.0	2000.0	1.0	550.0	n/a	1.0	go_stim
194895.03951509995	173.96048490000001	n/a	531	71	2750	173.9604849	stim	stop-signal	288	737534	0.0-13.43-1.43	beast_fmri_test	310	734905,/,735585,/,736265,/,736945,/,737625,/	t,t,t,t,t	<img class = center src='/static/experiments/beast_fmri_test/images/P.png'></img>	71,89	2750.0	test	<img class = center src='/static/experiments/beast_fmri_test/images/redP.png'></img>	go	2200.0	3.0	43.0	go	target	P	71,Green Button	89,Yellow Button	550.0	750.0	2200.0	2000.0	1.0	550.0	n/a	1.0	ITI
195754	500	n/a	-1	-1	500	0.0	fixation	poldrack-single-stim	289	738219	0.0-13.44-0.44	beast_fmri_test	310	n/a	n/a	<div class = centerbox><div class = fixation>+</div></div>	none	500.0	test	n/a	n/a	n/a	n/a	n/a	n/a	n/a	n/a	n/a	n/a	n/a	n/a	n/a	n/a	n/a	n/a	n/a	n/a	fixation
195174.0614139	2750	n/a	1104	89	2750	579.9385861	stim	stop-signal	290	740969	0.0-13.44-1.44	beast_fmri_test	310	738305,/,738984,/,739665,/,740345,/,741024,/	t,t,t,t,t	<img class = center src='/static/experiments/beast_fmri_test/images/V.png'></img>	71,89	2750.0	test	<img class = center src='/static/experiments/beast_fmri_test/images/redV.png'></img>	go	2000.0	3.0	44.0	go	non-target	V	71,Green Button	89,Yellow Button	550.0	750.0	2200.0	2000.0	1.0	750.0	n/a	1.0	go_stim
197924.0614139	579.93858610000007	n/a	1104	89	2750	579.9385861	stim	stop-signal	290	740969	0.0-13.44-1.44	beast_fmri_test	310	738305,/,738984,/,739665,/,740345,/,741024,/	t,t,t,t,t	<img class = center src='/static/experiments/beast_fmri_test/images/V.png'></img>	71,89	2750.0	test	<img class = center src='/static/experiments/beast_fmri_test/images/redV.png'></img>	go	2000.0	3.0	44.0	go	non-target	V	71,Green Button	89,Yellow Button	550.0	750.0	2200.0	2000.0	1.0	750.0	n/a	1.0	ITI
199596	500	n/a	-1	-1	500	0.0	fixation	poldrack-single-stim	291	742061	0.0-13.45-0.45	beast_fmri_test	310	741705,/	t	<div class = centerbox><div class = fixation>+</div></div>	none	500.0	test	n/a	n/a	n/a	n/a	n/a	n/a	n/a	n/a	n/a	n/a	n/a	n/a	n/a	n/a	n/a	n/a	n/a	n/a	fixation
199228.95557919994	2750	n/a	1508	71	2750	369.0444208	stim	stop-signal	292	744813	0.0-13.45-1.45	beast_fmri_test	310	742385,/,743064,/,743745,/,744424,/,745104,/	t,t,t,t,t	<img class = center src='/static/experiments/beast_fmri_test/images/D.png'></img>	71,89	2750.0	test	<img class = center src='/static/experiments/beast_fmri_test/images/redD.png'></img>	go	2200.0	3.0	45.0	go	target	D	71,Green Button	89,Yellow Button	550.0	750.0	2200.0	2000.0	1.0	550.0	n/a	1.0	go_stim
201978.95557919994	369.04442080000001	n/a	1508	71	2750	369.0444208	stim	stop-signal	292	744813	0.0-13.45-1.45	beast_fmri_test	310	742385,/,743064,/,743745,/,744424,/,745104,/	t,t,t,t,t	<img class = center src='/static/experiments/beast_fmri_test/images/D.png'></img>	71,89	2750.0	test	<img class = center src='/static/experiments/beast_fmri_test/images/redD.png'></img>	go	2200.0	3.0	45.0	go	target	D	71,Green Button	89,Yellow Button	550.0	750.0	2200.0	2000.0	1.0	550.0	n/a	1.0	ITI
203231	500	n/a	-1	-1	500	0.0	fixation	poldrack-single-stim	293	745696	0.0-13.46-0.46	beast_fmri_test	310	n/a	n/a	<div class = centerbox><div class = fixation>+</div></div>	none	500.0	test	n/a	n/a	n/a	n/a	n/a	n/a	n/a	n/a	n/a	n/a	n/a	n/a	n/a	n/a	n/a	n/a	n/a	n/a	fixation
202080.55246499996	2750	n/a	1049	71	2750	1152.447535	stim	stop-signal	294	748448	0.0-13.46-1.46	beast_fmri_test	310	745785,/,746465,/,747144,/,747824,/,748505,/,749185,/	t,t,t,t,t,t	<img class = center src='/static/experiments/beast_fmri_test/images/P.png'></img>	71,89	2750.0	test	<img class = center src='/static/experiments/beast_fmri_test/images/redP.png'></img>	go	2200.0	3.0	46.0	go	target	P	71,Green Button	89,Yellow Button	550.0	750.0	2200.0	2000.0	1.0	550.0	n/a	1.0	go_stim
204830.55246499996	1152.447535	n/a	1049	71	2750	1152.447535	stim	stop-signal	294	748448	0.0-13.46-1.46	beast_fmri_test	310	745785,/,746465,/,747144,/,747824,/,748505,/,749185,/	t,t,t,t,t,t	<img class = center src='/static/experiments/beast_fmri_test/images/P.png'></img>	71,89	2750.0	test	<img class = center src='/static/experiments/beast_fmri_test/images/redP.png'></img>	go	2200.0	3.0	46.0	go	target	P	71,Green Button	89,Yellow Button	550.0	750.0	2200.0	2000.0	1.0	550.0	n/a	1.0	ITI
207647	500	n/a	-1	-1	500	0.0	fixation	poldrack-single-stim	295	750112	0.0-13.47-0.47	beast_fmri_test	310	749865,/	t	<div class = centerbox><div class = fixation>+</div></div>	none	500.0	test	n/a	n/a	n/a	n/a	n/a	n/a	n/a	n/a	n/a	n/a	n/a	n/a	n/a	n/a	n/a	n/a	n/a	n/a	fixation
207073.69203349994	750.0	n/a	871	89	2750	575.3079665	stim	stop-signal	296	752864	0.0-13.47-1.47	beast_fmri_test	310	750545,/,751225,/,751905,/,752585,/,753265,/	t,t,t,t,t	<img class = center src='/static/experiments/beast_fmri_test/images/D.png'></img>	71,89	2750.0	test	<img class = center src='/static/experiments/beast_fmri_test/images/redD.png'></img>	stop	2000.0	3.0	47.0	stop	non-target	D	71,Green Button	89,Yellow Button	550.0	750.0	2200.0	2000.0	0.0	750.0	0.0	1.0	go_stim
209073.69203349994	2000.0	n/a	871	89	2750	575.3079665	stim	stop-signal	296	752864	0.0-13.47-1.47	beast_fmri_test	310	750545,/,751225,/,751905,/,752585,/,753265,/	t,t,t,t,t	<img class = center src='/static/experiments/beast_fmri_test/images/D.png'></img>	71,89	2750.0	test	<img class = center src='/static/experiments/beast_fmri_test/images/redD.png'></img>	stop	2000.0	3.0	47.0	stop	non-target	D	71,Green Button	89,Yellow Button	550.0	750.0	2200.0	2000.0	0.0	750.0	0.0	1.0	stop_stim
209823.69203349994	575.30796650000002	n/a	871	89	2750	575.3079665	stim	stop-signal	296	752864	0.0-13.47-1.47	beast_fmri_test	310	750545,/,751225,/,751905,/,752585,/,753265,/	t,t,t,t,t	<img class = center src='/static/experiments/beast_fmri_test/images/D.png'></img>	71,89	2750.0	test	<img class = center src='/static/experiments/beast_fmri_test/images/redD.png'></img>	stop	2000.0	3.0	47.0	stop	non-target	D	71,Green Button	89,Yellow Button	550.0	750.0	2200.0	2000.0	0.0	750.0	0.0	1.0	ITI
225987	15000	n/a	-1	-1	15000	0.0	practice-no-stop-feedback	poldrack-single-stim	297	768452	0.0-14.0	beast_fmri_test	310	753946,/,754625,/,755305,/,755985,/,756665,/,757345,/,758025,/,758705,/,759385,/,760065,/,760745,/,761425,/,762105,/,762785,/,763465,/,764145,/,764825,/,765505,/,766185,/,766865,/,767545,/,768225,/	t,t,t,t,t,t,t,t,t,t,t,t,t,t,t,t,t,t,t,t,t,t	"<div class = ""centerbox""><p class = ""center-block-text"">Your delay is 3 trials.</p><p class = center-block-text>Please wait for the scanner to start the block</p></div>"	77	15000.0	n/a	n/a	n/a	n/a	n/a	n/a	n/a	n/a	n/a	n/a	n/a	n/a	n/a	n/a	n/a	n/a	n/a	n/a	n/a	practice-no-stop-feedback
226489	500	n/a	-1	-1	500	0.0	fixation	poldrack-single-stim	298	768954	0.0-15.0-0.0	beast_fmri_test	310	768905,/	t	<div class = centerbox><div class = fixation>+</div></div>	none	500.0	test	n/a	n/a	n/a	n/a	n/a	n/a	n/a	n/a	n/a	n/a	n/a	n/a	n/a	n/a	n/a	n/a	n/a	n/a	fixation
226467.72795874998	2750	n/a	942	89	2750	23.27204125	stim	stop-signal	299	771706	0.0-15.0-1.0	beast_fmri_test	310	769585,/,770264,/,770944,/,771625,/	t,t,t,t	<img class = center src='/static/experiments/beast_fmri_test/images/V.png'></img>	71,89	2750.0	test	<img class = center src='/static/experiments/beast_fmri_test/images/redV.png'></img>	go	-1.0	3.0	0.0	go	temp-non-target	V	71,Green Button	89,Yellow Button	550.0	700.0	2200.0	2000.0	0.0	n/a	n/a	n/a	go_stim
229217.72795874998	23.272041250000001	n/a	942	89	2750	23.27204125	stim	stop-signal	299	771706	0.0-15.0-1.0	beast_fmri_test	310	769585,/,770264,/,770944,/,771625,/	t,t,t,t	<img class = center src='/static/experiments/beast_fmri_test/images/V.png'></img>	71,89	2750.0	test	<img class = center src='/static/experiments/beast_fmri_test/images/redV.png'></img>	go	-1.0	3.0	0.0	go	temp-non-target	V	71,Green Button	89,Yellow Button	550.0	700.0	2200.0	2000.0	0.0	n/a	n/a	n/a	ITI
229777	500	n/a	-1	-1	500	0.0	fixation	poldrack-single-stim	300	772242	0.0-15.1-0.1	beast_fmri_test	310	n/a	n/a	<div class = centerbox><div class = fixation>+</div></div>	none	500.0	test	n/a	n/a	n/a	n/a	n/a	n/a	n/a	n/a	n/a	n/a	n/a	n/a	n/a	n/a	n/a	n/a	n/a	n/a	fixation
229006.72623849998	2750	n/a	607	89	2750	772.2737615	stim	stop-signal	301	774994	0.0-15.1-1.1	beast_fmri_test	310	772304,/,772984,/,773664,/,774345,/,775024,/,775705,/	t,t,t,t,t,t	<img class = center src='/static/experiments/beast_fmri_test/images/P.png'></img>	71,89	2750.0	test	<img class = center src='/static/experiments/beast_fmri_test/images/redP.png'></img>	go	-1.0	3.0	1.0	go	temp-non-target	P	71,Green Button	89,Yellow Button	550.0	700.0	2200.0	2000.0	0.0	n/a	n/a	n/a	go_stim
231756.72623849998	772.27376149999998	n/a	607	89	2750	772.2737615	stim	stop-signal	301	774994	0.0-15.1-1.1	beast_fmri_test	310	772304,/,772984,/,773664,/,774345,/,775024,/,775705,/	t,t,t,t,t,t	<img class = center src='/static/experiments/beast_fmri_test/images/P.png'></img>	71,89	2750.0	test	<img class = center src='/static/experiments/beast_fmri_test/images/redP.png'></img>	go	-1.0	3.0	1.0	go	temp-non-target	P	71,Green Button	89,Yellow Button	550.0	700.0	2200.0	2000.0	0.0	n/a	n/a	n/a	ITI
233816	500	n/a	-1	-1	500	0.0	fixation	poldrack-single-stim	302	776281	0.0-15.2-0.2	beast_fmri_test	310	n/a	n/a	<div class = centerbox><div class = fixation>+</div></div>	none	500.0	test	n/a	n/a	n/a	n/a	n/a	n/a	n/a	n/a	n/a	n/a	n/a	n/a	n/a	n/a	n/a	n/a	n/a	n/a	fixation
232394.12223600002	temp_go_duration	n/a	731	89	2750	1423.877764	stim	stop-signal	303	779033	0.0-15.2-1.2	beast_fmri_test	310	776385,/,777064,/,777744,/,778424,/,779104,/,779784,/	t,t,t,t,t,t	<img class = center src='/static/experiments/beast_fmri_test/images/B.png'></img>	71,89	2750.0	test	<img class = center src='/static/experiments/beast_fmri_test/images/redB.png'></img>	stop	-1.0	3.0	2.0	stop	temp-non-target	B	71,Green Button	89,Yellow Button	550.0	700.0	2200.0	2000.0	0.0	n/a	0.0	n/a	go_stim
temp-non-target	temp_stop_duration	n/a	731	89	2750	1423.877764	stim	stop-signal	303	779033	0.0-15.2-1.2	beast_fmri_test	310	776385,/,777064,/,777744,/,778424,/,779104,/,779784,/	t,t,t,t,t,t	<img class = center src='/static/experiments/beast_fmri_test/images/B.png'></img>	71,89	2750.0	test	<img class = center src='/static/experiments/beast_fmri_test/images/redB.png'></img>	stop	-1.0	3.0	2.0	stop	temp-non-target	B	71,Green Button	89,Yellow Button	550.0	700.0	2200.0	2000.0	0.0	n/a	0.0	n/a	stop_stim
235144.12223600002	1423.8777640000001	n/a	731	89	2750	1423.877764	stim	stop-signal	303	779033	0.0-15.2-1.2	beast_fmri_test	310	776385,/,777064,/,777744,/,778424,/,779104,/,779784,/	t,t,t,t,t,t	<img class = center src='/static/experiments/beast_fmri_test/images/B.png'></img>	71,89	2750.0	test	<img class = center src='/static/experiments/beast_fmri_test/images/redB.png'></img>	stop	-1.0	3.0	2.0	stop	temp-non-target	B	71,Green Button	89,Yellow Button	550.0	700.0	2200.0	2000.0	0.0	n/a	0.0	n/a	ITI
238507	500	n/a	-1	-1	500	0.0	fixation	poldrack-single-stim	304	780972	0.0-15.3-0.3	beast_fmri_test	310	780470,/	t	<div class = centerbox><div class = fixation>+</div></div>	none	500.0	test	n/a	n/a	n/a	n/a	n/a	n/a	n/a	n/a	n/a	n/a	n/a	n/a	n/a	n/a	n/a	n/a	n/a	n/a	fixation
237262.04246799997	2750	n/a	955	89	2750	1246.957532	stim	stop-signal	305	783724	0.0-15.3-1.3	beast_fmri_test	310	781144,/,781824,/,782505,/,783185,/,783865,/,784546,/	t,t,t,t,t,t	<img class = center src='/static/experiments/beast_fmri_test/images/B.png'></img>	71,89	2750.0	test	<img class = center src='/static/experiments/beast_fmri_test/images/redB.png'></img>	go	2050.0	3.0	3.0	go	non-target	B	71,Green Button	89,Yellow Button	550.0	700.0	2200.0	2050.0	1.0	700.0	n/a	1.0	go_stim
240012.04246799997	1246.9575320000001	n/a	955	89	2750	1246.957532	stim	stop-signal	305	783724	0.0-15.3-1.3	beast_fmri_test	310	781144,/,781824,/,782505,/,783185,/,783865,/,784546,/	t,t,t,t,t,t	<img class = center src='/static/experiments/beast_fmri_test/images/B.png'></img>	71,89	2750.0	test	<img class = center src='/static/experiments/beast_fmri_test/images/redB.png'></img>	go	2050.0	3.0	3.0	go	non-target	B	71,Green Button	89,Yellow Button	550.0	700.0	2200.0	2050.0	1.0	700.0	n/a	1.0	ITI
243017	500	n/a	-1	-1	500	0.0	fixation	poldrack-single-stim	306	785482	0.0-15.4-0.4	beast_fmri_test	310	785225,/	t	<div class = centerbox><div class = fixation>+</div></div>	none	500.0	test	n/a	n/a	n/a	n/a	n/a	n/a	n/a	n/a	n/a	n/a	n/a	n/a	n/a	n/a	n/a	n/a	n/a	n/a	fixation
242935.49867503997	2750	n/a	653	89	2750	83.50132496	stim	stop-signal	307	788234	0.0-15.4-1.4	beast_fmri_test	310	785905,/,786585,/,787265,/,787945,/	t,t,t,t	<img class = center src='/static/experiments/beast_fmri_test/images/V.png'></img>	71,89	2750.0	test	<img class = center src='/static/experiments/beast_fmri_test/images/redV.png'></img>	go	2050.0	3.0	4.0	go	non-target	V	71,Green Button	89,Yellow Button	550.0	700.0	2200.0	2050.0	1.0	700.0	n/a	1.0	go_stim
245685.49867503997	83.501324960000005	n/a	653	89	2750	83.50132496	stim	stop-signal	307	788234	0.0-15.4-1.4	beast_fmri_test	310	785905,/,786585,/,787265,/,787945,/	t,t,t,t	<img class = center src='/static/experiments/beast_fmri_test/images/V.png'></img>	71,89	2750.0	test	<img class = center src='/static/experiments/beast_fmri_test/images/redV.png'></img>	go	2050.0	3.0	4.0	go	non-target	V	71,Green Button	89,Yellow Button	550.0	700.0	2200.0	2050.0	1.0	700.0	n/a	1.0	ITI
246366	500	n/a	-1	-1	500	0.0	fixation	poldrack-single-stim	308	788831	0.0-15.5-0.5	beast_fmri_test	310	788625,/	t	<div class = centerbox><div class = fixation>+</div></div>	none	500.0	test	n/a	n/a	n/a	n/a	n/a	n/a	n/a	n/a	n/a	n/a	n/a	n/a	n/a	n/a	n/a	n/a	n/a	n/a	fixation
244346.96211600001	2750	n/a	1191	89	2750	2020.037884	stim	stop-signal	309	791582	0.0-15.5-1.5	beast_fmri_test	310	789305,/,789985,/,790665,/,791345,/,792025,/,792705,/,793385,/	t,t,t,t,t,t,t	<img class = center src='/static/experiments/beast_fmri_test/images/V.png'></img>	71,89	2750.0	test	<img class = center src='/static/experiments/beast_fmri_test/images/redV.png'></img>	go	2050.0	3.0	5.0	go	non-target	V	71,Green Button	89,Yellow Button	550.0	700.0	2200.0	2050.0	1.0	700.0	n/a	1.0	go_stim
247096.96211600001	2020.0378840000001	n/a	1191	89	2750	2020.037884	stim	stop-signal	309	791582	0.0-15.5-1.5	beast_fmri_test	310	789305,/,789985,/,790665,/,791345,/,792025,/,792705,/,793385,/	t,t,t,t,t,t,t	<img class = center src='/static/experiments/beast_fmri_test/images/V.png'></img>	71,89	2750.0	test	<img class = center src='/static/experiments/beast_fmri_test/images/redV.png'></img>	go	2050.0	3.0	5.0	go	non-target	V	71,Green Button	89,Yellow Button	550.0	700.0	2200.0	2050.0	1.0	700.0	n/a	1.0	ITI
251651	500	n/a	-1	-1	500	0.0	fixation	poldrack-single-stim	310	794116	0.0-15.6-0.6	beast_fmri_test	310	794065,/	t	<div class = centerbox><div class = fixation>+</div></div>	none	500.0	test	n/a	n/a	n/a	n/a	n/a	n/a	n/a	n/a	n/a	n/a	n/a	n/a	n/a	n/a	n/a	n/a	n/a	n/a	fixation
251497.98802499997	550.0	n/a	537	71	2750	155.011975	stim	stop-signal	311	796868	0.0-15.6-1.6	beast_fmri_test	310	794745,/,795425,/,796104,/,796785,/	t,t,t,t	<img class = center src='/static/experiments/beast_fmri_test/images/B.png'></img>	71,89	2750.0	test	<img class = center src='/static/experiments/beast_fmri_test/images/redB.png'></img>	stop	2200.0	3.0	6.0	stop	target	B	71,Green Button	89,Yellow Button	550.0	700.0	2200.0	2050.0	0.0	550.0	0.0	1.0	go_stim
253697.98802499997	2200.0	n/a	537	71	2750	155.011975	stim	stop-signal	311	796868	0.0-15.6-1.6	beast_fmri_test	310	794745,/,795425,/,796104,/,796785,/	t,t,t,t	<img class = center src='/static/experiments/beast_fmri_test/images/B.png'></img>	71,89	2750.0	test	<img class = center src='/static/experiments/beast_fmri_test/images/redB.png'></img>	stop	2200.0	3.0	6.0	stop	target	B	71,Green Button	89,Yellow Button	550.0	700.0	2200.0	2050.0	0.0	550.0	0.0	1.0	stop_stim
254247.98802499997	155.01197500000001	n/a	537	71	2750	155.011975	stim	stop-signal	311	796868	0.0-15.6-1.6	beast_fmri_test	310	794745,/,795425,/,796104,/,796785,/	t,t,t,t	<img class = center src='/static/experiments/beast_fmri_test/images/B.png'></img>	71,89	2750.0	test	<img class = center src='/static/experiments/beast_fmri_test/images/redB.png'></img>	stop	2200.0	3.0	6.0	stop	target	B	71,Green Button	89,Yellow Button	550.0	700.0	2200.0	2050.0	0.0	550.0	0.0	1.0	ITI
255071	500	n/a	-1	-1	500	0.0	fixation	poldrack-single-stim	312	797536	0.0-15.7-0.7	beast_fmri_test	310	797465,/	t	<div class = centerbox><div class = fixation>+</div></div>	none	500.0	test	n/a	n/a	n/a	n/a	n/a	n/a	n/a	n/a	n/a	n/a	n/a	n/a	n/a	n/a	n/a	n/a	n/a	n/a	fixation
254757.20614899998	2750	n/a	740	89	2750	314.793851	stim	stop-signal	313	800287	0.0-15.7-1.7	beast_fmri_test	310	798144,/,798825,/,799505,/,800185,/	t,t,t,t	<img class = center src='/static/experiments/beast_fmri_test/images/T.png'></img>	71,89	2750.0	test	<img class = center src='/static/experiments/beast_fmri_test/images/redT.png'></img>	go	2050.0	3.0	7.0	go	non-target	T	71,Green Button	89,Yellow Button	500.0	700.0	2200.0	2050.0	1.0	700.0	n/a	1.0	go_stim
257507.20614899998	314.79385099999996	n/a	740	89	2750	314.793851	stim	stop-signal	313	800287	0.0-15.7-1.7	beast_fmri_test	310	798144,/,798825,/,799505,/,800185,/	t,t,t,t	<img class = center src='/static/experiments/beast_fmri_test/images/T.png'></img>	71,89	2750.0	test	<img class = center src='/static/experiments/beast_fmri_test/images/redT.png'></img>	go	2050.0	3.0	7.0	go	non-target	T	71,Green Button	89,Yellow Button	500.0	700.0	2200.0	2050.0	1.0	700.0	n/a	1.0	ITI
258651	500	n/a	-1	-1	500	0.0	fixation	poldrack-single-stim	314	801116	0.0-15.8-0.8	beast_fmri_test	310	800865,/	t	<div class = centerbox><div class = fixation>+</div></div>	none	500.0	test	n/a	n/a	n/a	n/a	n/a	n/a	n/a	n/a	n/a	n/a	n/a	n/a	n/a	n/a	n/a	n/a	n/a	n/a	fixation
258643.71882737905	2750	n/a	1123	89	2750	9.281172621	stim	stop-signal	315	803868	0.0-15.8-1.8	beast_fmri_test	310	801545,/,802225,/,802905,/,803584,/	t,t,t,t	<img class = center src='/static/experiments/beast_fmri_test/images/V.png'></img>	71,89	2750.0	test	<img class = center src='/static/experiments/beast_fmri_test/images/redV.png'></img>	go	2250.0	3.0	8.0	go	target	V	71,Green Button	89,Yellow Button	500.0	700.0	2250.0	2050.0	0.0	500.0	n/a	0.0	go_stim
261393.71882737905	9.2811726209999996	n/a	1123	89	2750	9.281172621	stim	stop-signal	315	803868	0.0-15.8-1.8	beast_fmri_test	310	801545,/,802225,/,802905,/,803584,/	t,t,t,t	<img class = center src='/static/experiments/beast_fmri_test/images/V.png'></img>	71,89	2750.0	test	<img class = center src='/static/experiments/beast_fmri_test/images/redV.png'></img>	go	2250.0	3.0	8.0	go	target	V	71,Green Button	89,Yellow Button	500.0	700.0	2250.0	2050.0	0.0	500.0	n/a	0.0	ITI
261926	500	n/a	-1	-1	500	0.0	fixation	poldrack-single-stim	316	804391	0.0-15.9-0.9	beast_fmri_test	310	804265,/	t	<div class = centerbox><div class = fixation>+</div></div>	none	500.0	test	n/a	n/a	n/a	n/a	n/a	n/a	n/a	n/a	n/a	n/a	n/a	n/a	n/a	n/a	n/a	n/a	n/a	n/a	fixation
260688.74229099997	500.0	n/a	-1	-1	2750	1238.257709	stim	stop-signal	317	807142	0.0-15.9-1.9	beast_fmri_test	310	804945,/,805624,/,806305,/,806985,/,807665,/,808344,/	t,t,t,t,t,t	<img class = center src='/static/experiments/beast_fmri_test/images/B.png'></img>	71,89	2750.0	test	<img class = center src='/static/experiments/beast_fmri_test/images/redB.png'></img>	stop	2250.0	3.0	9.0	stop	target	B	71,Green Button	89,Yellow Button	500.0	700.0	2250.0	2050.0	0.0	500.0	1.0	0.0	go_stim
262938.74229099997	2250.0	n/a	-1	-1	2750	1238.257709	stim	stop-signal	317	807142	0.0-15.9-1.9	beast_fmri_test	310	804945,/,805624,/,806305,/,806985,/,807665,/,808344,/	t,t,t,t,t,t	<img class = center src='/static/experiments/beast_fmri_test/images/B.png'></img>	71,89	2750.0	test	<img class = center src='/static/experiments/beast_fmri_test/images/redB.png'></img>	stop	2250.0	3.0	9.0	stop	target	B	71,Green Button	89,Yellow Button	500.0	700.0	2250.0	2050.0	0.0	500.0	1.0	0.0	stop_stim
263438.74229099997	1238.257709	n/a	-1	-1	2750	1238.257709	stim	stop-signal	317	807142	0.0-15.9-1.9	beast_fmri_test	310	804945,/,805624,/,806305,/,806985,/,807665,/,808344,/	t,t,t,t,t,t	<img class = center src='/static/experiments/beast_fmri_test/images/B.png'></img>	71,89	2750.0	test	<img class = center src='/static/experiments/beast_fmri_test/images/redB.png'></img>	stop	2250.0	3.0	9.0	stop	target	B	71,Green Button	89,Yellow Button	500.0	700.0	2250.0	2050.0	0.0	500.0	1.0	0.0	ITI
266430	500	n/a	-1	-1	500	0.0	fixation	poldrack-single-stim	318	808895	0.0-15.10-0.10	beast_fmri_test	310	n/a	n/a	<div class = centerbox><div class = fixation>+</div></div>	none	500.0	test	n/a	n/a	n/a	n/a	n/a	n/a	n/a	n/a	n/a	n/a	n/a	n/a	n/a	n/a	n/a	n/a	n/a	n/a	fixation
265014.36855699995	2750	n/a	752	71	2750	1416.631443	stim	stop-signal	319	811646	0.0-15.10-1.10	beast_fmri_test	310	809024,/,809704,/,810384,/,811064,/,811744,/,812424,/	t,t,t,t,t,t	<img class = center src='/static/experiments/beast_fmri_test/images/V.png'></img>	71,89	2750.0	test	<img class = center src='/static/experiments/beast_fmri_test/images/redV.png'></img>	go	2050.0	3.0	10.0	go	non-target	V	71,Green Button	89,Yellow Button	550.0	700.0	2250.0	2050.0	0.0	700.0	n/a	0.0	go_stim
267764.36855699995	1416.631443	n/a	752	71	2750	1416.631443	stim	stop-signal	319	811646	0.0-15.10-1.10	beast_fmri_test	310	809024,/,809704,/,810384,/,811064,/,811744,/,812424,/	t,t,t,t,t,t	<img class = center src='/static/experiments/beast_fmri_test/images/V.png'></img>	71,89	2750.0	test	<img class = center src='/static/experiments/beast_fmri_test/images/redV.png'></img>	go	2050.0	3.0	10.0	go	non-target	V	71,Green Button	89,Yellow Button	550.0	700.0	2250.0	2050.0	0.0	700.0	n/a	0.0	ITI
271110	500	n/a	-1	-1	500	0.0	fixation	poldrack-single-stim	320	813575	0.0-15.11-0.11	beast_fmri_test	310	813104,/	t	<div class = centerbox><div class = fixation>+</div></div>	none	500.0	test	n/a	n/a	n/a	n/a	n/a	n/a	n/a	n/a	n/a	n/a	n/a	n/a	n/a	n/a	n/a	n/a	n/a	n/a	fixation
269268.93767200003	2750	n/a	636	71	2750	1843.062328	stim	stop-signal	321	816327	0.0-15.11-1.11	beast_fmri_test	310	813784,/,814464,/,815145,/,815825,/,816504,/,817185,/,817865,/	t,t,t,t,t,t,t	<img class = center src='/static/experiments/beast_fmri_test/images/V.png'></img>	71,89	2750.0	test	<img class = center src='/static/experiments/beast_fmri_test/images/redV.png'></img>	go	2200.0	3.0	11.0	go	target	V	71,Green Button	89,Yellow Button	550.0	700.0	2200.0	2050.0	1.0	550.0	n/a	1.0	go_stim
272018.93767200003	1843.0623280000002	n/a	636	71	2750	1843.062328	stim	stop-signal	321	816327	0.0-15.11-1.11	beast_fmri_test	310	813784,/,814464,/,815145,/,815825,/,816504,/,817185,/,817865,/	t,t,t,t,t,t,t	<img class = center src='/static/experiments/beast_fmri_test/images/V.png'></img>	71,89	2750.0	test	<img class = center src='/static/experiments/beast_fmri_test/images/redV.png'></img>	go	2200.0	3.0	11.0	go	target	V	71,Green Button	89,Yellow Button	550.0	700.0	2200.0	2050.0	1.0	550.0	n/a	1.0	ITI
276216	500	n/a	-1	-1	500	0.0	fixation	poldrack-single-stim	322	818681	0.0-15.12-0.12	beast_fmri_test	310	818545,/	t	<div class = centerbox><div class = fixation>+</div></div>	none	500.0	test	n/a	n/a	n/a	n/a	n/a	n/a	n/a	n/a	n/a	n/a	n/a	n/a	n/a	n/a	n/a	n/a	n/a	n/a	fixation
274945.78058799997	2750	n/a	1562	89	2750	1271.219412	stim	stop-signal	323	821432	0.0-15.12-1.12	beast_fmri_test	310	819225,/,819905,/,820585,/,821265,/,821945,/,822625,/	t,t,t,t,t,t	<img class = center src='/static/experiments/beast_fmri_test/images/B.png'></img>	71,89	2750.0	test	<img class = center src='/static/experiments/beast_fmri_test/images/redB.png'></img>	go	2200.0	3.0	12.0	go	target	B	71,Green Button	89,Yellow Button	550.0	700.0	2200.0	2050.0	0.0	550.0	n/a	0.0	go_stim
277695.78058799997	1271.2194119999999	n/a	1562	89	2750	1271.219412	stim	stop-signal	323	821432	0.0-15.12-1.12	beast_fmri_test	310	819225,/,819905,/,820585,/,821265,/,821945,/,822625,/	t,t,t,t,t,t	<img class = center src='/static/experiments/beast_fmri_test/images/B.png'></img>	71,89	2750.0	test	<img class = center src='/static/experiments/beast_fmri_test/images/redB.png'></img>	go	2200.0	3.0	12.0	go	target	B	71,Green Button	89,Yellow Button	550.0	700.0	2200.0	2050.0	0.0	550.0	n/a	0.0	ITI
280754	500	n/a	-1	-1	500	0.0	fixation	poldrack-single-stim	324	823219	0.0-15.13-0.13	beast_fmri_test	310	n/a	n/a	<div class = centerbox><div class = fixation>+</div></div>	none	500.0	test	n/a	n/a	n/a	n/a	n/a	n/a	n/a	n/a	n/a	n/a	n/a	n/a	n/a	n/a	n/a	n/a	n/a	n/a	fixation
280251.27825900004	550.0	n/a	-1	-1	2750	504.721741	stim	stop-signal	325	825971	0.0-15.13-1.13	beast_fmri_test	310	823305,/,823985,/,824665,/,825346,/,826025,/	t,t,t,t,t	<img class = center src='/static/experiments/beast_fmri_test/images/V.png'></img>	71,89	2750.0	test	<img class = center src='/static/experiments/beast_fmri_test/images/redV.png'></img>	stop	2200.0	3.0	13.0	stop	target	V	71,Green Button	89,Yellow Button	550.0	700.0	2200.0	2050.0	0.0	550.0	1.0	0.0	go_stim
282451.27825900004	2200.0	n/a	-1	-1	2750	504.721741	stim	stop-signal	325	825971	0.0-15.13-1.13	beast_fmri_test	310	823305,/,823985,/,824665,/,825346,/,826025,/	t,t,t,t,t	<img class = center src='/static/experiments/beast_fmri_test/images/V.png'></img>	71,89	2750.0	test	<img class = center src='/static/experiments/beast_fmri_test/images/redV.png'></img>	stop	2200.0	3.0	13.0	stop	target	V	71,Green Button	89,Yellow Button	550.0	700.0	2200.0	2050.0	0.0	550.0	1.0	0.0	stop_stim
283001.27825900004	504.72174100000001	n/a	-1	-1	2750	504.721741	stim	stop-signal	325	825971	0.0-15.13-1.13	beast_fmri_test	310	823305,/,823985,/,824665,/,825346,/,826025,/	t,t,t,t,t	<img class = center src='/static/experiments/beast_fmri_test/images/V.png'></img>	71,89	2750.0	test	<img class = center src='/static/experiments/beast_fmri_test/images/redV.png'></img>	stop	2200.0	3.0	13.0	stop	target	V	71,Green Button	89,Yellow Button	550.0	700.0	2200.0	2050.0	0.0	550.0	1.0	0.0	ITI
284523	500	n/a	-1	-1	500	0.0	fixation	poldrack-single-stim	326	826988	0.0-15.14-0.14	beast_fmri_test	310	826705,/	t	<div class = centerbox><div class = fixation>+</div></div>	none	500.0	test	n/a	n/a	n/a	n/a	n/a	n/a	n/a	n/a	n/a	n/a	n/a	n/a	n/a	n/a	n/a	n/a	n/a	n/a	fixation
283218.566872	2750	n/a	829	89	2750	1305.433128	stim	stop-signal	327	829739	0.0-15.14-1.14	beast_fmri_test	310	827385,/,828065,/,828745,/,829425,/,830104,/,830785,/	t,t,t,t,t,t	<img class = center src='/static/experiments/beast_fmri_test/images/D.png'></img>	71,89	2750.0	test	<img class = center src='/static/experiments/beast_fmri_test/images/redD.png'></img>	go	2050.0	3.0	14.0	go	non-target	D	71,Green Button	89,Yellow Button	600.0	700.0	2200.0	2050.0	1.0	700.0	n/a	1.0	go_stim
285968.566872	1305.4331279999999	n/a	829	89	2750	1305.433128	stim	stop-signal	327	829739	0.0-15.14-1.14	beast_fmri_test	310	827385,/,828065,/,828745,/,829425,/,830104,/,830785,/	t,t,t,t,t,t	<img class = center src='/static/experiments/beast_fmri_test/images/D.png'></img>	71,89	2750.0	test	<img class = center src='/static/experiments/beast_fmri_test/images/redD.png'></img>	go	2050.0	3.0	14.0	go	non-target	D	71,Green Button	89,Yellow Button	600.0	700.0	2200.0	2050.0	1.0	700.0	n/a	1.0	ITI
289091	500	n/a	-1	-1	500	0.0	fixation	poldrack-single-stim	328	831556	0.0-15.15-0.15	beast_fmri_test	310	831465,/	t	<div class = centerbox><div class = fixation>+</div></div>	none	500.0	test	n/a	n/a	n/a	n/a	n/a	n/a	n/a	n/a	n/a	n/a	n/a	n/a	n/a	n/a	n/a	n/a	n/a	n/a	fixation
288877.85637139995	2750	n/a	798	89	2750	214.1436286	stim	stop-signal	329	834307	0.0-15.15-1.15	beast_fmri_test	310	832145,/,832825,/,833505,/,834184,/	t,t,t,t	<img class = center src='/static/experiments/beast_fmri_test/images/T.png'></img>	71,89	2750.0	test	<img class = center src='/static/experiments/beast_fmri_test/images/redT.png'></img>	go	2050.0	3.0	15.0	go	non-target	T	71,Green Button	89,Yellow Button	600.0	700.0	2200.0	2050.0	1.0	700.0	n/a	1.0	go_stim
291627.85637139995	214.14362859999997	n/a	798	89	2750	214.1436286	stim	stop-signal	329	834307	0.0-15.15-1.15	beast_fmri_test	310	832145,/,832825,/,833505,/,834184,/	t,t,t,t	<img class = center src='/static/experiments/beast_fmri_test/images/T.png'></img>	71,89	2750.0	test	<img class = center src='/static/experiments/beast_fmri_test/images/redT.png'></img>	go	2050.0	3.0	15.0	go	non-target	T	71,Green Button	89,Yellow Button	600.0	700.0	2200.0	2050.0	1.0	700.0	n/a	1.0	ITI
292571	500	n/a	-1	-1	500	0.0	fixation	poldrack-single-stim	330	835036	0.0-15.16-0.16	beast_fmri_test	310	834865,/	t	<div class = centerbox><div class = fixation>+</div></div>	none	500.0	test	n/a	n/a	n/a	n/a	n/a	n/a	n/a	n/a	n/a	n/a	n/a	n/a	n/a	n/a	n/a	n/a	n/a	n/a	fixation
291727.9217986	2750	n/a	935	89	2750	845.0782014	stim	stop-signal	331	837788	0.0-15.16-1.16	beast_fmri_test	310	835546,/,836224,/,836905,/,837584,/,838265,/	t,t,t,t,t	<img class = center src='/static/experiments/beast_fmri_test/images/T.png'></img>	71,89	2750.0	test	<img class = center src='/static/experiments/beast_fmri_test/images/redT.png'></img>	go	2050.0	3.0	16.0	go	non-target	T	71,Green Button	89,Yellow Button	600.0	700.0	2200.0	2050.0	1.0	700.0	n/a	1.0	go_stim
294477.9217986	845.07820140000001	n/a	935	89	2750	845.0782014	stim	stop-signal	331	837788	0.0-15.16-1.16	beast_fmri_test	310	835546,/,836224,/,836905,/,837584,/,838265,/	t,t,t,t,t	<img class = center src='/static/experiments/beast_fmri_test/images/T.png'></img>	71,89	2750.0	test	<img class = center src='/static/experiments/beast_fmri_test/images/redT.png'></img>	go	2050.0	3.0	16.0	go	non-target	T	71,Green Button	89,Yellow Button	600.0	700.0	2200.0	2050.0	1.0	700.0	n/a	1.0	ITI
296682	500	n/a	-1	-1	500	0.0	fixation	poldrack-single-stim	332	839147	0.0-15.17-0.17	beast_fmri_test	310	838945,/	t	<div class = centerbox><div class = fixation>+</div></div>	none	500.0	test	n/a	n/a	n/a	n/a	n/a	n/a	n/a	n/a	n/a	n/a	n/a	n/a	n/a	n/a	n/a	n/a	n/a	n/a	fixation
296509.72148069995	2750	n/a	929	71	2750	173.2785193	stim	stop-signal	333	841898	0.0-15.17-1.17	beast_fmri_test	310	839624,/,840304,/,840985,/,841665,/	t,t,t,t	<img class = center src='/static/experiments/beast_fmri_test/images/V.png'></img>	71,89	2750.0	test	<img class = center src='/static/experiments/beast_fmri_test/images/redV.png'></img>	go	2050.0	3.0	17.0	go	non-target	V	71,Green Button	89,Yellow Button	600.0	700.0	2200.0	2050.0	0.0	700.0	n/a	0.0	go_stim
299259.72148069995	173.27851930000003	n/a	929	71	2750	173.2785193	stim	stop-signal	333	841898	0.0-15.17-1.17	beast_fmri_test	310	839624,/,840304,/,840985,/,841665,/	t,t,t,t	<img class = center src='/static/experiments/beast_fmri_test/images/V.png'></img>	71,89	2750.0	test	<img class = center src='/static/experiments/beast_fmri_test/images/redV.png'></img>	go	2050.0	3.0	17.0	go	non-target	V	71,Green Button	89,Yellow Button	600.0	700.0	2200.0	2050.0	0.0	700.0	n/a	0.0	ITI
300117	500	n/a	-1	-1	500	0.0	fixation	poldrack-single-stim	334	842582	0.0-15.18-0.18	beast_fmri_test	310	842345,/	t	<div class = centerbox><div class = fixation>+</div></div>	none	500.0	test	n/a	n/a	n/a	n/a	n/a	n/a	n/a	n/a	n/a	n/a	n/a	n/a	n/a	n/a	n/a	n/a	n/a	n/a	fixation
299255.714744	2750	n/a	1426	89	2750	863.285256	stim	stop-signal	335	845334	0.0-15.18-1.18	beast_fmri_test	310	843024,/,843704,/,844384,/,845064,/,845745,/	t,t,t,t,t	<img class = center src='/static/experiments/beast_fmri_test/images/B.png'></img>	71,89	2750.0	test	<img class = center src='/static/experiments/beast_fmri_test/images/redB.png'></img>	go	2050.0	3.0	18.0	go	non-target	B	71,Green Button	89,Yellow Button	600.0	700.0	2200.0	2050.0	1.0	700.0	n/a	1.0	go_stim
302005.714744	863.285256	n/a	1426	89	2750	863.285256	stim	stop-signal	335	845334	0.0-15.18-1.18	beast_fmri_test	310	843024,/,843704,/,844384,/,845064,/,845745,/	t,t,t,t,t	<img class = center src='/static/experiments/beast_fmri_test/images/B.png'></img>	71,89	2750.0	test	<img class = center src='/static/experiments/beast_fmri_test/images/redB.png'></img>	go	2050.0	3.0	18.0	go	non-target	B	71,Green Button	89,Yellow Button	600.0	700.0	2200.0	2050.0	1.0	700.0	n/a	1.0	ITI
304244	500	n/a	-1	-1	500	0.0	fixation	poldrack-single-stim	336	846709	0.0-15.19-0.19	beast_fmri_test	310	846424,/	t	<div class = centerbox><div class = fixation>+</div></div>	none	500.0	test	n/a	n/a	n/a	n/a	n/a	n/a	n/a	n/a	n/a	n/a	n/a	n/a	n/a	n/a	n/a	n/a	n/a	n/a	fixation
302693.20447	600.0	n/a	987	71	2750	1551.79553	stim	stop-signal	337	849460	0.0-15.19-1.19	beast_fmri_test	310	847104,/,847784,/,848464,/,849144,/,849825,/,850504,/	t,t,t,t,t,t	<img class = center src='/static/experiments/beast_fmri_test/images/T.png'></img>	71,89	2750.0	test	<img class = center src='/static/experiments/beast_fmri_test/images/redT.png'></img>	stop	2150.0	3.0	19.0	stop	target	T	71,Green Button	89,Yellow Button	600.0	700.0	2150.0	2050.0	0.0	600.0	0.0	1.0	go_stim
304843.20447	2150.0	n/a	987	71	2750	1551.79553	stim	stop-signal	337	849460	0.0-15.19-1.19	beast_fmri_test	310	847104,/,847784,/,848464,/,849144,/,849825,/,850504,/	t,t,t,t,t,t	<img class = center src='/static/experiments/beast_fmri_test/images/T.png'></img>	71,89	2750.0	test	<img class = center src='/static/experiments/beast_fmri_test/images/redT.png'></img>	stop	2150.0	3.0	19.0	stop	target	T	71,Green Button	89,Yellow Button	600.0	700.0	2150.0	2050.0	0.0	600.0	0.0	1.0	stop_stim
305443.20447	1551.7955300000001	n/a	987	71	2750	1551.79553	stim	stop-signal	337	849460	0.0-15.19-1.19	beast_fmri_test	310	847104,/,847784,/,848464,/,849144,/,849825,/,850504,/	t,t,t,t,t,t	<img class = center src='/static/experiments/beast_fmri_test/images/T.png'></img>	71,89	2750.0	test	<img class = center src='/static/experiments/beast_fmri_test/images/redT.png'></img>	stop	2150.0	3.0	19.0	stop	target	T	71,Green Button	89,Yellow Button	600.0	700.0	2150.0	2050.0	0.0	600.0	0.0	1.0	ITI
309060	500	n/a	-1	-1	500	0.0	fixation	poldrack-single-stim	338	851525	0.0-15.20-0.20	beast_fmri_test	310	851184,/	t	<div class = centerbox><div class = fixation>+</div></div>	none	500.0	test	n/a	n/a	n/a	n/a	n/a	n/a	n/a	n/a	n/a	n/a	n/a	n/a	n/a	n/a	n/a	n/a	n/a	n/a	fixation
309046.07970182004	2750	n/a	969	89	2750	15.92029818	stim	stop-signal	339	854277	0.0-15.20-1.20	beast_fmri_test	310	851865,/,852545,/,853225,/,853905,/	t,t,t,t	<img class = center src='/static/experiments/beast_fmri_test/images/T.png'></img>	71,89	2750.0	test	<img class = center src='/static/experiments/beast_fmri_test/images/redT.png'></img>	go	2050.0	3.0	20.0	go	non-target	T	71,Green Button	89,Yellow Button	550.0	700.0	2150.0	2050.0	1.0	700.0	n/a	1.0	go_stim
311796.07970182004	15.92029818	n/a	969	89	2750	15.92029818	stim	stop-signal	339	854277	0.0-15.20-1.20	beast_fmri_test	310	851865,/,852545,/,853225,/,853905,/	t,t,t,t	<img class = center src='/static/experiments/beast_fmri_test/images/T.png'></img>	71,89	2750.0	test	<img class = center src='/static/experiments/beast_fmri_test/images/redT.png'></img>	go	2050.0	3.0	20.0	go	non-target	T	71,Green Button	89,Yellow Button	550.0	700.0	2150.0	2050.0	1.0	700.0	n/a	1.0	ITI
312343	500	n/a	-1	-1	500	0.0	fixation	poldrack-single-stim	340	854808	0.0-15.21-0.21	beast_fmri_test	310	854585,/	t	<div class = centerbox><div class = fixation>+</div></div>	none	500.0	test	n/a	n/a	n/a	n/a	n/a	n/a	n/a	n/a	n/a	n/a	n/a	n/a	n/a	n/a	n/a	n/a	n/a	n/a	fixation
311646.99223560002	700.0	n/a	-1	-1	2750	698.0077644	stim	stop-signal	341	857560	0.0-15.21-1.21	beast_fmri_test	310	855266,/,855946,/,856626,/,857305,/,857985,/	t,t,t,t,t	<img class = center src='/static/experiments/beast_fmri_test/images/D.png'></img>	71,89	2750.0	test	<img class = center src='/static/experiments/beast_fmri_test/images/redD.png'></img>	stop	2050.0	3.0	21.0	stop	non-target	D	71,Green Button	89,Yellow Button	550.0	700.0	2150.0	2050.0	0.0	700.0	1.0	0.0	go_stim
313696.99223560002	2050.0	n/a	-1	-1	2750	698.0077644	stim	stop-signal	341	857560	0.0-15.21-1.21	beast_fmri_test	310	855266,/,855946,/,856626,/,857305,/,857985,/	t,t,t,t,t	<img class = center src='/static/experiments/beast_fmri_test/images/D.png'></img>	71,89	2750.0	test	<img class = center src='/static/experiments/beast_fmri_test/images/redD.png'></img>	stop	2050.0	3.0	21.0	stop	non-target	D	71,Green Button	89,Yellow Button	550.0	700.0	2150.0	2050.0	0.0	700.0	1.0	0.0	stop_stim
314396.99223560002	698.00776439999993	n/a	-1	-1	2750	698.0077644	stim	stop-signal	341	857560	0.0-15.21-1.21	beast_fmri_test	310	855266,/,855946,/,856626,/,857305,/,857985,/	t,t,t,t,t	<img class = center src='/static/experiments/beast_fmri_test/images/D.png'></img>	71,89	2750.0	test	<img class = center src='/static/experiments/beast_fmri_test/images/redD.png'></img>	stop	2050.0	3.0	21.0	stop	non-target	D	71,Green Button	89,Yellow Button	550.0	700.0	2150.0	2050.0	0.0	700.0	1.0	0.0	ITI
316310	500	n/a	-1	-1	500	0.0	fixation	poldrack-single-stim	342	858775	0.0-15.22-0.22	beast_fmri_test	310	858665,/	t	<div class = centerbox><div class = fixation>+</div></div>	none	500.0	test	n/a	n/a	n/a	n/a	n/a	n/a	n/a	n/a	n/a	n/a	n/a	n/a	n/a	n/a	n/a	n/a	n/a	n/a	fixation
315844.42340229999	750.0	n/a	809	89	2750	467.5765977	stim	stop-signal	343	861527	0.0-15.22-1.22	beast_fmri_test	310	859346,/,860025,/,860705,/,861385,/	t,t,t,t	<img class = center src='/static/experiments/beast_fmri_test/images/D.png'></img>	71,89	2750.0	test	<img class = center src='/static/experiments/beast_fmri_test/images/redD.png'></img>	stop	2000.0	3.0	22.0	stop	non-target	D	71,Green Button	89,Yellow Button	550.0	750.0	2150.0	2000.0	0.0	750.0	0.0	1.0	go_stim
