onset	duration	text	rt	key_press	block_duration	timing_post_trial	trial_id	trial_type	trial_index	time_elapsed	internal_node_id	exp_id	subject_id	trigger_times	triggers	stimulus	possible_responses	stim_duration	exp_stage	SS_stimulus	SS_trial_type	SS_duration	load	trial_num	stop_trial_type	adaptive_trial_type	stim	yes_response_key	no_response_key	SSD_target	SSD_non_target	SSTarget	SSNonTarget	go_acc	SS_delay	stop_acc	adaptive_acc	new_trial_type
test	10880.0	n/a	-1	-1	10880	0.0	practice-no-stop-feedback	poldrack-single-stim	6	75703	0.0-6.0	beast_fmri_test	310	64823,/,65502,/,66182,/,66862,/,67543,/,68223,/,68903,/,69583,/,70263,/,70944,/,71623,/,72303,/,72982,/,73663,/,74342,/,75023,/,75702,/	t,t,t,t,t,t,t,t,t,t,t,t,t,t,t,t,t	"<div class = ""centerbox""><p class = ""center-block-text"">Your delay is 2 trials.</p><p class = center-block-text>Please wait for the scanner to start the block</p></div>"	77	10880.0	n/a	n/a	n/a	n/a	n/a	n/a	n/a	n/a	n/a	n/a	n/a	n/a	n/a	n/a	n/a	n/a	n/a	n/a	n/a	start_functional_block
11382	500.0	n/a	-1	-1	500	0.0	fixation	poldrack-single-stim	7	76205	0.0-7.0-0.0	beast_fmri_test	310	n/a	n/a	<div class = centerbox><div class = fixation>+</div></div>	none	500.0	test	n/a	n/a	n/a	n/a	n/a	n/a	n/a	n/a	n/a	n/a	n/a	n/a	n/a	n/a	n/a	n/a	n/a	n/a	fixation
10858.165012700003	2750.0	n/a	500	89	2750	527.8349873	stim	stop-signal	8	78959	0.0-7.0-1.0	beast_fmri_test	310	76383,/,77062,/,77743,/,78422,/,79103,/	t,t,t,t,t	<img class = center src='/static/experiments/beast_fmri_test/images/P.png'></img>	71,89	2750.0	test	<img class = center src='/static/experiments/beast_fmri_test/images/redP.png'></img>	go	-1.0	2.0	0.0	go	temp-non-target	P	71,Green Button	89,Yellow Button	500.0	500.0	0.0	0.0	0.0	n/a	n/a	n/a	go_stim
13608.165012700003	527.8349873	n/a	500	89	2750	527.8349873	stim	stop-signal	8	78959	0.0-7.0-1.0	beast_fmri_test	310	76383,/,77062,/,77743,/,78422,/,79103,/	t,t,t,t,t	<img class = center src='/static/experiments/beast_fmri_test/images/P.png'></img>	71,89	2750.0	test	<img class = center src='/static/experiments/beast_fmri_test/images/redP.png'></img>	go	-1.0	2.0	0.0	go	temp-non-target	P	71,Green Button	89,Yellow Button	500.0	500.0	0.0	0.0	0.0	n/a	n/a	n/a	ITI
15168	500.0	n/a	-1	-1	500	0.0	fixation	poldrack-single-stim	9	79991	0.0-7.1-0.1	beast_fmri_test	310	79783,/	t	<div class = centerbox><div class = fixation>+</div></div>	none	500.0	test	n/a	n/a	n/a	n/a	n/a	n/a	n/a	n/a	n/a	n/a	n/a	n/a	n/a	n/a	n/a	n/a	n/a	n/a	fixation
14453.509703599993	2750.0	n/a	399	89	2750	716.4902964	stim	stop-signal	10	82743	0.0-7.1-1.1	beast_fmri_test	310	80462,/,81143,/,81823,/,82503,/,83182,/	t,t,t,t,t	<img class = center src='/static/experiments/beast_fmri_test/images/B.png'></img>	71,89	2750.0	test	<img class = center src='/static/experiments/beast_fmri_test/images/redB.png'></img>	go	-1.0	2.0	1.0	go	temp-non-target	B	71,Green Button	89,Yellow Button	500.0	500.0	0.0	0.0	0.0	n/a	n/a	n/a	go_stim
17203.509703599993	716.4902964	n/a	399	89	2750	716.4902964	stim	stop-signal	10	82743	0.0-7.1-1.1	beast_fmri_test	310	80462,/,81143,/,81823,/,82503,/,83182,/	t,t,t,t,t	<img class = center src='/static/experiments/beast_fmri_test/images/B.png'></img>	71,89	2750.0	test	<img class = center src='/static/experiments/beast_fmri_test/images/redB.png'></img>	go	-1.0	2.0	1.0	go	temp-non-target	B	71,Green Button	89,Yellow Button	500.0	500.0	0.0	0.0	0.0	n/a	n/a	n/a	ITI
19139	500.0	n/a	-1	-1	500	0.0	fixation	poldrack-single-stim	11	83962	0.0-7.2-0.2	beast_fmri_test	310	83862,/	t	<div class = centerbox><div class = fixation>+</div></div>	none	500.0	test	n/a	n/a	n/a	n/a	n/a	n/a	n/a	n/a	n/a	n/a	n/a	n/a	n/a	n/a	n/a	n/a	n/a	n/a	fixation
17873.429361999995	500.0	n/a	371	71	2750	1266.570638	stim	stop-signal	12	86713	0.0-7.2-1.2	beast_fmri_test	310	84543,/,85222,/,85902,/,86583,/,87262,/,87942,/	t,t,t,t,t,t	<img class = center src='/static/experiments/beast_fmri_test/images/P.png'></img>	71,89	2750.0	test	<img class = center src='/static/experiments/beast_fmri_test/images/redP.png'></img>	stop	2250.0	2.0	2.0	stop	target	P	71,Green Button	89,Yellow Button	500.0	500.0	2250.0	0.0	0.0	500.0	0.0	1.0	go_stim
20123.429361999995	2250.0	n/a	371	71	2750	1266.570638	stim	stop-signal	12	86713	0.0-7.2-1.2	beast_fmri_test	310	84543,/,85222,/,85902,/,86583,/,87262,/,87942,/	t,t,t,t,t,t	<img class = center src='/static/experiments/beast_fmri_test/images/P.png'></img>	71,89	2750.0	test	<img class = center src='/static/experiments/beast_fmri_test/images/redP.png'></img>	stop	2250.0	2.0	2.0	stop	target	P	71,Green Button	89,Yellow Button	500.0	500.0	2250.0	0.0	0.0	500.0	0.0	1.0	stop_stim
20623.429361999995	1266.570638	n/a	371	71	2750	1266.570638	stim	stop-signal	12	86713	0.0-7.2-1.2	beast_fmri_test	310	84543,/,85222,/,85902,/,86583,/,87262,/,87942,/	t,t,t,t,t,t	<img class = center src='/static/experiments/beast_fmri_test/images/P.png'></img>	71,89	2750.0	test	<img class = center src='/static/experiments/beast_fmri_test/images/redP.png'></img>	stop	2250.0	2.0	2.0	stop	target	P	71,Green Button	89,Yellow Button	500.0	500.0	2250.0	0.0	0.0	500.0	0.0	1.0	ITI
23661	500.0	n/a	-1	-1	500	0.0	fixation	poldrack-single-stim	13	88484	0.0-7.3-0.3	beast_fmri_test	310	n/a	n/a	<div class = centerbox><div class = fixation>+</div></div>	none	500.0	test	n/a	n/a	n/a	n/a	n/a	n/a	n/a	n/a	n/a	n/a	n/a	n/a	n/a	n/a	n/a	n/a	n/a	n/a	fixation
23262.387339199995	2750.0	n/a	640	71	2750	400.6126608	stim	stop-signal	14	91236	0.0-7.3-1.3	beast_fmri_test	310	88622,/,89302,/,89982,/,90662,/,91343,/	t,t,t,t,t	<img class = center src='/static/experiments/beast_fmri_test/images/B.png'></img>	71,89	2750.0	test	<img class = center src='/static/experiments/beast_fmri_test/images/redB.png'></img>	go	2300.0	2.0	3.0	go	target	B	71,Green Button	89,Yellow Button	450.0	500.0	2300.0	0.0	1.0	450.0	n/a	1.0	go_stim
26012.387339199995	400.6126608	n/a	640	71	2750	400.6126608	stim	stop-signal	14	91236	0.0-7.3-1.3	beast_fmri_test	310	88622,/,89302,/,89982,/,90662,/,91343,/	t,t,t,t,t	<img class = center src='/static/experiments/beast_fmri_test/images/B.png'></img>	71,89	2750.0	test	<img class = center src='/static/experiments/beast_fmri_test/images/redB.png'></img>	go	2300.0	2.0	3.0	go	target	B	71,Green Button	89,Yellow Button	450.0	500.0	2300.0	0.0	1.0	450.0	n/a	1.0	ITI
27316	500.0	n/a	-1	-1	500	0.0	fixation	poldrack-single-stim	15	92139	0.0-7.4-0.4	beast_fmri_test	310	92022,/	t	<div class = centerbox><div class = fixation>+</div></div>	none	500.0	test	n/a	n/a	n/a	n/a	n/a	n/a	n/a	n/a	n/a	n/a	n/a	n/a	n/a	n/a	n/a	n/a	n/a	n/a	fixation
25356.079991000006	2750.0	n/a	560	89	2750	1960.920009	stim	stop-signal	16	94890	0.0-7.4-1.4	beast_fmri_test	310	92702,/,93382,/,94062,/,94742,/,95422,/,96102,/,96782,/	t,t,t,t,t,t,t	<img class = center src='/static/experiments/beast_fmri_test/images/T.png'></img>	71,89	2750.0	test	<img class = center src='/static/experiments/beast_fmri_test/images/redT.png'></img>	go	2250.0	2.0	4.0	go	non-target	T	71,Green Button	89,Yellow Button	450.0	500.0	2300.0	2250.0	1.0	500.0	n/a	1.0	go_stim
28106.079991000006	1960.920009	n/a	560	89	2750	1960.920009	stim	stop-signal	16	94890	0.0-7.4-1.4	beast_fmri_test	310	92702,/,93382,/,94062,/,94742,/,95422,/,96102,/,96782,/	t,t,t,t,t,t,t	<img class = center src='/static/experiments/beast_fmri_test/images/T.png'></img>	71,89	2750.0	test	<img class = center src='/static/experiments/beast_fmri_test/images/redT.png'></img>	go	2250.0	2.0	4.0	go	non-target	T	71,Green Button	89,Yellow Button	450.0	500.0	2300.0	2250.0	1.0	500.0	n/a	1.0	ITI
32530	500.0	n/a	-1	-1	500	0.0	fixation	poldrack-single-stim	17	97353	0.0-7.5-0.5	beast_fmri_test	310	n/a	n/a	<div class = centerbox><div class = fixation>+</div></div>	none	500.0	test	n/a	n/a	n/a	n/a	n/a	n/a	n/a	n/a	n/a	n/a	n/a	n/a	n/a	n/a	n/a	n/a	n/a	n/a	fixation
29070.497805999999	2750.0	n/a	575	71	2750	3460.502194	stim	stop-signal	18	100104	0.0-7.5-1.5	beast_fmri_test	310	97463,/,98142,/,98822,/,99502,/,100181,/,100862,/,101544,/,102223,/,102903,/	t,t,t,t,t,t,t,t,t	<img class = center src='/static/experiments/beast_fmri_test/images/B.png'></img>	71,89	2750.0	test	<img class = center src='/static/experiments/beast_fmri_test/images/redB.png'></img>	go	2300.0	2.0	5.0	go	target	B	71,Green Button	89,Yellow Button	450.0	500.0	2300.0	2250.0	1.0	450.0	n/a	1.0	go_stim
31820.497805999999	3460.502194	n/a	575	71	2750	3460.502194	stim	stop-signal	18	100104	0.0-7.5-1.5	beast_fmri_test	310	97463,/,98142,/,98822,/,99502,/,100181,/,100862,/,101544,/,102223,/,102903,/	t,t,t,t,t,t,t,t,t	<img class = center src='/static/experiments/beast_fmri_test/images/B.png'></img>	71,89	2750.0	test	<img class = center src='/static/experiments/beast_fmri_test/images/redB.png'></img>	go	2300.0	2.0	5.0	go	target	B	71,Green Button	89,Yellow Button	450.0	500.0	2300.0	2250.0	1.0	450.0	n/a	1.0	ITI
39244	500.0	n/a	-1	-1	500	0.0	fixation	poldrack-single-stim	19	104067	0.0-7.6-0.6	beast_fmri_test	310	103582,/	t	<div class = centerbox><div class = fixation>+</div></div>	none	500.0	test	n/a	n/a	n/a	n/a	n/a	n/a	n/a	n/a	n/a	n/a	n/a	n/a	n/a	n/a	n/a	n/a	n/a	n/a	fixation
38995.811284299998	2750.0	n/a	727	89	2750	250.1887157	stim	stop-signal	20	106819	0.0-7.6-1.6	beast_fmri_test	310	104263,/,104943,/,105623,/,106303,/,106983,/	t,t,t,t,t	<img class = center src='/static/experiments/beast_fmri_test/images/V.png'></img>	71,89	2750.0	test	<img class = center src='/static/experiments/beast_fmri_test/images/redV.png'></img>	go	2250.0	2.0	6.0	go	non-target	V	71,Green Button	89,Yellow Button	450.0	500.0	2300.0	2250.0	1.0	500.0	n/a	1.0	go_stim
41745.811284299998	250.1887157	n/a	727	89	2750	250.1887157	stim	stop-signal	20	106819	0.0-7.6-1.6	beast_fmri_test	310	104263,/,104943,/,105623,/,106303,/,106983,/	t,t,t,t,t	<img class = center src='/static/experiments/beast_fmri_test/images/V.png'></img>	71,89	2750.0	test	<img class = center src='/static/experiments/beast_fmri_test/images/redV.png'></img>	go	2250.0	2.0	6.0	go	non-target	V	71,Green Button	89,Yellow Button	450.0	500.0	2300.0	2250.0	1.0	500.0	n/a	1.0	ITI
42750	500.0	n/a	-1	-1	500	0.0	fixation	poldrack-single-stim	21	107573	0.0-7.7-0.7	beast_fmri_test	310	n/a	n/a	<div class = centerbox><div class = fixation>+</div></div>	none	500.0	test	n/a	n/a	n/a	n/a	n/a	n/a	n/a	n/a	n/a	n/a	n/a	n/a	n/a	n/a	n/a	n/a	n/a	n/a	fixation
41589.866762999998	2750.0	n/a	697	89	2750	1162.133237	stim	stop-signal	22	110325	0.0-7.7-1.7	beast_fmri_test	310	107663,/,108343,/,109023,/,109703,/,110383,/,111063,/	t,t,t,t,t,t	<img class = center src='/static/experiments/beast_fmri_test/images/D.png'></img>	71,89	2750.0	test	<img class = center src='/static/experiments/beast_fmri_test/images/redD.png'></img>	go	2250.0	2.0	7.0	go	non-target	D	71,Green Button	89,Yellow Button	450.0	500.0	2300.0	2250.0	1.0	500.0	n/a	1.0	go_stim
44339.866762999998	1162.133237	n/a	697	89	2750	1162.133237	stim	stop-signal	22	110325	0.0-7.7-1.7	beast_fmri_test	310	107663,/,108343,/,109023,/,109703,/,110383,/,111063,/	t,t,t,t,t,t	<img class = center src='/static/experiments/beast_fmri_test/images/D.png'></img>	71,89	2750.0	test	<img class = center src='/static/experiments/beast_fmri_test/images/redD.png'></img>	go	2250.0	2.0	7.0	go	non-target	D	71,Green Button	89,Yellow Button	450.0	500.0	2300.0	2250.0	1.0	500.0	n/a	1.0	ITI
47169	500.0	n/a	-1	-1	500	0.0	fixation	poldrack-single-stim	23	111992	0.0-7.8-0.8	beast_fmri_test	310	111743,/	t	<div class = centerbox><div class = fixation>+</div></div>	none	500.0	test	n/a	n/a	n/a	n/a	n/a	n/a	n/a	n/a	n/a	n/a	n/a	n/a	n/a	n/a	n/a	n/a	n/a	n/a	fixation
46852.701507999998	2750.0	n/a	779	89	2750	317.298492	stim	stop-signal	24	114743	0.0-7.8-1.8	beast_fmri_test	310	112423,/,113102,/,113782,/,114463,/	t,t,t,t	<img class = center src='/static/experiments/beast_fmri_test/images/B.png'></img>	71,89	2750.0	test	<img class = center src='/static/experiments/beast_fmri_test/images/redB.png'></img>	go	2250.0	2.0	8.0	go	non-target	B	71,Green Button	89,Yellow Button	450.0	500.0	2300.0	2250.0	1.0	500.0	n/a	1.0	go_stim
49602.701507999998	317.298492	n/a	779	89	2750	317.298492	stim	stop-signal	24	114743	0.0-7.8-1.8	beast_fmri_test	310	112423,/,113102,/,113782,/,114463,/	t,t,t,t	<img class = center src='/static/experiments/beast_fmri_test/images/B.png'></img>	71,89	2750.0	test	<img class = center src='/static/experiments/beast_fmri_test/images/redB.png'></img>	go	2250.0	2.0	8.0	go	non-target	B	71,Green Button	89,Yellow Button	450.0	500.0	2300.0	2250.0	1.0	500.0	n/a	1.0	ITI
50740	500.0	n/a	-1	-1	500	0.0	fixation	poldrack-single-stim	25	115563	0.0-7.9-0.9	beast_fmri_test	310	115142,/	t	<div class = centerbox><div class = fixation>+</div></div>	none	500.0	test	n/a	n/a	n/a	n/a	n/a	n/a	n/a	n/a	n/a	n/a	n/a	n/a	n/a	n/a	n/a	n/a	n/a	n/a	fixation
49909.589230199999	500.0	n/a	-1	-1	2750	831.4107698	stim	stop-signal	26	118314	0.0-7.9-1.9	beast_fmri_test	310	115822,/,116502,/,117182,/,117862,/,118543,/	t,t,t,t,t	<img class = center src='/static/experiments/beast_fmri_test/images/V.png'></img>	71,89	2750.0	test	<img class = center src='/static/experiments/beast_fmri_test/images/redV.png'></img>	stop	2250.0	2.0	9.0	stop	non-target	V	71,Green Button	89,Yellow Button	450.0	500.0	2300.0	2250.0	0.0	500.0	1.0	0.0	go_stim
52159.589230199999	2250.0	n/a	-1	-1	2750	831.4107698	stim	stop-signal	26	118314	0.0-7.9-1.9	beast_fmri_test	310	115822,/,116502,/,117182,/,117862,/,118543,/	t,t,t,t,t	<img class = center src='/static/experiments/beast_fmri_test/images/V.png'></img>	71,89	2750.0	test	<img class = center src='/static/experiments/beast_fmri_test/images/redV.png'></img>	stop	2250.0	2.0	9.0	stop	non-target	V	71,Green Button	89,Yellow Button	450.0	500.0	2300.0	2250.0	0.0	500.0	1.0	0.0	stop_stim
52659.589230199999	831.4107698	n/a	-1	-1	2750	831.4107698	stim	stop-signal	26	118314	0.0-7.9-1.9	beast_fmri_test	310	115822,/,116502,/,117182,/,117862,/,118543,/	t,t,t,t,t	<img class = center src='/static/experiments/beast_fmri_test/images/V.png'></img>	71,89	2750.0	test	<img class = center src='/static/experiments/beast_fmri_test/images/redV.png'></img>	stop	2250.0	2.0	9.0	stop	non-target	V	71,Green Button	89,Yellow Button	450.0	500.0	2300.0	2250.0	0.0	500.0	1.0	0.0	ITI
54825	500.0	n/a	-1	-1	500	0.0	fixation	poldrack-single-stim	27	119648	0.0-7.10-0.10	beast_fmri_test	310	119222,/	t	<div class = centerbox><div class = fixation>+</div></div>	none	500.0	test	n/a	n/a	n/a	n/a	n/a	n/a	n/a	n/a	n/a	n/a	n/a	n/a	n/a	n/a	n/a	n/a	n/a	n/a	fixation
54415.283083500006	2750.0	n/a	718	89	2750	411.7169165	stim	stop-signal	28	122400	0.0-7.10-1.10	beast_fmri_test	310	119902,/,120583,/,121262,/,121944,/,122622,/	t,t,t,t,t	<img class = center src='/static/experiments/beast_fmri_test/images/T.png'></img>	71,89	2750.0	test	<img class = center src='/static/experiments/beast_fmri_test/images/redT.png'></img>	go	2200.0	2.0	10.0	go	non-target	T	71,Green Button	89,Yellow Button	450.0	550.0	2300.0	2200.0	1.0	550.0	n/a	1.0	go_stim
57165.283083500006	411.7169165	n/a	718	89	2750	411.7169165	stim	stop-signal	28	122400	0.0-7.10-1.10	beast_fmri_test	310	119902,/,120583,/,121262,/,121944,/,122622,/	t,t,t,t,t	<img class = center src='/static/experiments/beast_fmri_test/images/T.png'></img>	71,89	2750.0	test	<img class = center src='/static/experiments/beast_fmri_test/images/redT.png'></img>	go	2200.0	2.0	10.0	go	non-target	T	71,Green Button	89,Yellow Button	450.0	550.0	2300.0	2200.0	1.0	550.0	n/a	1.0	ITI
58493	500.0	n/a	-1	-1	500	0.0	fixation	poldrack-single-stim	29	123316	0.0-7.11-0.11	beast_fmri_test	310	123302,/	t	<div class = centerbox><div class = fixation>+</div></div>	none	500.0	test	n/a	n/a	n/a	n/a	n/a	n/a	n/a	n/a	n/a	n/a	n/a	n/a	n/a	n/a	n/a	n/a	n/a	n/a	fixation
57836.275097499994	2750.0	n/a	619	89	2750	659.7249025	stim	stop-signal	30	126069	0.0-7.11-1.11	beast_fmri_test	310	123982,/,124662,/,125342,/,126022,/,126702,/	t,t,t,t,t	<img class = center src='/static/experiments/beast_fmri_test/images/D.png'></img>	71,89	2750.0	test	<img class = center src='/static/experiments/beast_fmri_test/images/redD.png'></img>	go	2200.0	2.0	11.0	go	non-target	D	71,Green Button	89,Yellow Button	450.0	550.0	2300.0	2200.0	1.0	550.0	n/a	1.0	go_stim
60586.275097499994	659.7249025	n/a	619	89	2750	659.7249025	stim	stop-signal	30	126069	0.0-7.11-1.11	beast_fmri_test	310	123982,/,124662,/,125342,/,126022,/,126702,/	t,t,t,t,t	<img class = center src='/static/experiments/beast_fmri_test/images/D.png'></img>	71,89	2750.0	test	<img class = center src='/static/experiments/beast_fmri_test/images/redD.png'></img>	go	2200.0	2.0	11.0	go	non-target	D	71,Green Button	89,Yellow Button	450.0	550.0	2300.0	2200.0	1.0	550.0	n/a	1.0	ITI
62409	500.0	n/a	-1	-1	500	0.0	fixation	poldrack-single-stim	31	127232	0.0-7.12-0.12	beast_fmri_test	310	n/a	n/a	<div class = centerbox><div class = fixation>+</div></div>	none	500.0	test	n/a	n/a	n/a	n/a	n/a	n/a	n/a	n/a	n/a	n/a	n/a	n/a	n/a	n/a	n/a	n/a	n/a	n/a	fixation
61222.382641999997	2750.0	n/a	658	89	2750	1188.617358	stim	stop-signal	32	129984	0.0-7.12-1.12	beast_fmri_test	310	127382,/,128062,/,128742,/,129422,/,130102,/,130782,/	t,t,t,t,t,t	<img class = center src='/static/experiments/beast_fmri_test/images/P.png'></img>	71,89	2750.0	test	<img class = center src='/static/experiments/beast_fmri_test/images/redP.png'></img>	go	2200.0	2.0	12.0	go	non-target	P	71,Green Button	89,Yellow Button	450.0	550.0	2300.0	2200.0	1.0	550.0	n/a	1.0	go_stim
63972.382641999997	1188.617358	n/a	658	89	2750	1188.617358	stim	stop-signal	32	129984	0.0-7.12-1.12	beast_fmri_test	310	127382,/,128062,/,128742,/,129422,/,130102,/,130782,/	t,t,t,t,t,t	<img class = center src='/static/experiments/beast_fmri_test/images/P.png'></img>	71,89	2750.0	test	<img class = center src='/static/experiments/beast_fmri_test/images/redP.png'></img>	go	2200.0	2.0	12.0	go	non-target	P	71,Green Button	89,Yellow Button	450.0	550.0	2300.0	2200.0	1.0	550.0	n/a	1.0	ITI
66852	500.0	n/a	-1	-1	500	0.0	fixation	poldrack-single-stim	33	131675	0.0-7.13-0.13	beast_fmri_test	310	131462,/	t	<div class = centerbox><div class = fixation>+</div></div>	none	500.0	test	n/a	n/a	n/a	n/a	n/a	n/a	n/a	n/a	n/a	n/a	n/a	n/a	n/a	n/a	n/a	n/a	n/a	n/a	fixation
66536.841479800001	2750.0	n/a	722	89	2750	316.1585202	stim	stop-signal	34	134426	0.0-7.13-1.13	beast_fmri_test	310	132142,/,132822,/,133502,/,134182,/	t,t,t,t	<img class = center src='/static/experiments/beast_fmri_test/images/T.png'></img>	71,89	2750.0	test	<img class = center src='/static/experiments/beast_fmri_test/images/redT.png'></img>	go	2200.0	2.0	13.0	go	non-target	T	71,Green Button	89,Yellow Button	450.0	550.0	2300.0	2200.0	1.0	550.0	n/a	1.0	go_stim
69286.841479800001	316.1585202	n/a	722	89	2750	316.1585202	stim	stop-signal	34	134426	0.0-7.13-1.13	beast_fmri_test	310	132142,/,132822,/,133502,/,134182,/	t,t,t,t	<img class = center src='/static/experiments/beast_fmri_test/images/T.png'></img>	71,89	2750.0	test	<img class = center src='/static/experiments/beast_fmri_test/images/redT.png'></img>	go	2200.0	2.0	13.0	go	non-target	T	71,Green Button	89,Yellow Button	450.0	550.0	2300.0	2200.0	1.0	550.0	n/a	1.0	ITI
70425	500.0	n/a	-1	-1	500	0.0	fixation	poldrack-single-stim	35	135248	0.0-7.14-0.14	beast_fmri_test	310	134863,/	t	<div class = centerbox><div class = fixation>+</div></div>	none	500.0	test	n/a	n/a	n/a	n/a	n/a	n/a	n/a	n/a	n/a	n/a	n/a	n/a	n/a	n/a	n/a	n/a	n/a	n/a	fixation
69732.542343400011	550.0	n/a	740	89	2750	693.4576566	stim	stop-signal	36	137999	0.0-7.14-1.14	beast_fmri_test	310	135543,/,136223,/,136903,/,137583,/,138263,/	t,t,t,t,t	<img class = center src='/static/experiments/beast_fmri_test/images/B.png'></img>	71,89	2750.0	test	<img class = center src='/static/experiments/beast_fmri_test/images/redB.png'></img>	stop	2200.0	2.0	14.0	stop	non-target	B	71,Green Button	89,Yellow Button	450.0	550.0	2300.0	2200.0	0.0	550.0	0.0	1.0	go_stim
71932.542343400011	2200.0	n/a	740	89	2750	693.4576566	stim	stop-signal	36	137999	0.0-7.14-1.14	beast_fmri_test	310	135543,/,136223,/,136903,/,137583,/,138263,/	t,t,t,t,t	<img class = center src='/static/experiments/beast_fmri_test/images/B.png'></img>	71,89	2750.0	test	<img class = center src='/static/experiments/beast_fmri_test/images/redB.png'></img>	stop	2200.0	2.0	14.0	stop	non-target	B	71,Green Button	89,Yellow Button	450.0	550.0	2300.0	2200.0	0.0	550.0	0.0	1.0	stop_stim
72482.542343400011	693.4576566	n/a	740	89	2750	693.4576566	stim	stop-signal	36	137999	0.0-7.14-1.14	beast_fmri_test	310	135543,/,136223,/,136903,/,137583,/,138263,/	t,t,t,t,t	<img class = center src='/static/experiments/beast_fmri_test/images/B.png'></img>	71,89	2750.0	test	<img class = center src='/static/experiments/beast_fmri_test/images/redB.png'></img>	stop	2200.0	2.0	14.0	stop	non-target	B	71,Green Button	89,Yellow Button	450.0	550.0	2300.0	2200.0	0.0	550.0	0.0	1.0	ITI
74374	500.0	n/a	-1	-1	500	0.0	fixation	poldrack-single-stim	37	139197	0.0-7.15-0.15	beast_fmri_test	310	138943,/	t	<div class = centerbox><div class = fixation>+</div></div>	none	500.0	test	n/a	n/a	n/a	n/a	n/a	n/a	n/a	n/a	n/a	n/a	n/a	n/a	n/a	n/a	n/a	n/a	n/a	n/a	fixation
74345.465224229993	500.0	n/a	-1	-1	2750	29.53477577	stim	stop-signal	38	141948	0.0-7.15-1.15	beast_fmri_test	310	139623,/,140302,/,140983,/,141663,/	t,t,t,t	<img class = center src='/static/experiments/beast_fmri_test/images/B.png'></img>	71,89	2750.0	test	<img class = center src='/static/experiments/beast_fmri_test/images/redB.png'></img>	stop	2250.0	2.0	15.0	stop	non-target	B	71,Green Button	89,Yellow Button	450.0	500.0	2300.0	2250.0	0.0	500.0	1.0	0.0	go_stim
76595.465224229993	2250.0	n/a	-1	-1	2750	29.53477577	stim	stop-signal	38	141948	0.0-7.15-1.15	beast_fmri_test	310	139623,/,140302,/,140983,/,141663,/	t,t,t,t	<img class = center src='/static/experiments/beast_fmri_test/images/B.png'></img>	71,89	2750.0	test	<img class = center src='/static/experiments/beast_fmri_test/images/redB.png'></img>	stop	2250.0	2.0	15.0	stop	non-target	B	71,Green Button	89,Yellow Button	450.0	500.0	2300.0	2250.0	0.0	500.0	1.0	0.0	stop_stim
77095.465224229993	29.53477577	n/a	-1	-1	2750	29.53477577	stim	stop-signal	38	141948	0.0-7.15-1.15	beast_fmri_test	310	139623,/,140302,/,140983,/,141663,/	t,t,t,t	<img class = center src='/static/experiments/beast_fmri_test/images/B.png'></img>	71,89	2750.0	test	<img class = center src='/static/experiments/beast_fmri_test/images/redB.png'></img>	stop	2250.0	2.0	15.0	stop	non-target	B	71,Green Button	89,Yellow Button	450.0	500.0	2300.0	2250.0	0.0	500.0	1.0	0.0	ITI
77659	500.0	n/a	-1	-1	500	0.0	fixation	poldrack-single-stim	39	142482	0.0-7.16-0.16	beast_fmri_test	310	142434,/	t	<div class = centerbox><div class = fixation>+</div></div>	none	500.0	test	n/a	n/a	n/a	n/a	n/a	n/a	n/a	n/a	n/a	n/a	n/a	n/a	n/a	n/a	n/a	n/a	n/a	n/a	fixation
77327.660448500013	550.0	n/a	931	89	2750	333.3395515	stim	stop-signal	40	145234	0.0-7.16-1.16	beast_fmri_test	310	143023,/,143703,/,144382,/,145063,/	t,t,t,t	<img class = center src='/static/experiments/beast_fmri_test/images/D.png'></img>	71,89	2750.0	test	<img class = center src='/static/experiments/beast_fmri_test/images/redD.png'></img>	stop	2200.0	2.0	16.0	stop	non-target	D	71,Green Button	89,Yellow Button	450.0	550.0	2300.0	2200.0	0.0	550.0	0.0	1.0	go_stim
79527.660448500013	2200.0	n/a	931	89	2750	333.3395515	stim	stop-signal	40	145234	0.0-7.16-1.16	beast_fmri_test	310	143023,/,143703,/,144382,/,145063,/	t,t,t,t	<img class = center src='/static/experiments/beast_fmri_test/images/D.png'></img>	71,89	2750.0	test	<img class = center src='/static/experiments/beast_fmri_test/images/redD.png'></img>	stop	2200.0	2.0	16.0	stop	non-target	D	71,Green Button	89,Yellow Button	450.0	550.0	2300.0	2200.0	0.0	550.0	0.0	1.0	stop_stim
80077.660448500013	333.3395515	n/a	931	89	2750	333.3395515	stim	stop-signal	40	145234	0.0-7.16-1.16	beast_fmri_test	310	143023,/,143703,/,144382,/,145063,/	t,t,t,t	<img class = center src='/static/experiments/beast_fmri_test/images/D.png'></img>	71,89	2750.0	test	<img class = center src='/static/experiments/beast_fmri_test/images/redD.png'></img>	stop	2200.0	2.0	16.0	stop	non-target	D	71,Green Button	89,Yellow Button	450.0	550.0	2300.0	2200.0	0.0	550.0	0.0	1.0	ITI
81248	500.0	n/a	-1	-1	500	0.0	fixation	poldrack-single-stim	41	146071	0.0-7.17-0.17	beast_fmri_test	310	145742,/	t	<div class = centerbox><div class = fixation>+</div></div>	none	500.0	test	n/a	n/a	n/a	n/a	n/a	n/a	n/a	n/a	n/a	n/a	n/a	n/a	n/a	n/a	n/a	n/a	n/a	n/a	fixation
80885.515043199994	500.0	n/a	-1	-1	2750	364.4849568	stim	stop-signal	42	148823	0.0-7.17-1.17	beast_fmri_test	310	146423,/,147103,/,147782,/,148463,/,149142,/	t,t,t,t,t	<img class = center src='/static/experiments/beast_fmri_test/images/D.png'></img>	71,89	2750.0	test	<img class = center src='/static/experiments/beast_fmri_test/images/redD.png'></img>	stop	2250.0	2.0	17.0	stop	non-target	D	71,Green Button	89,Yellow Button	450.0	500.0	2300.0	2250.0	0.0	500.0	1.0	0.0	go_stim
83135.515043199994	2250.0	n/a	-1	-1	2750	364.4849568	stim	stop-signal	42	148823	0.0-7.17-1.17	beast_fmri_test	310	146423,/,147103,/,147782,/,148463,/,149142,/	t,t,t,t,t	<img class = center src='/static/experiments/beast_fmri_test/images/D.png'></img>	71,89	2750.0	test	<img class = center src='/static/experiments/beast_fmri_test/images/redD.png'></img>	stop	2250.0	2.0	17.0	stop	non-target	D	71,Green Button	89,Yellow Button	450.0	500.0	2300.0	2250.0	0.0	500.0	1.0	0.0	stop_stim
83635.515043199994	364.4849568	n/a	-1	-1	2750	364.4849568	stim	stop-signal	42	148823	0.0-7.17-1.17	beast_fmri_test	310	146423,/,147103,/,147782,/,148463,/,149142,/	t,t,t,t,t	<img class = center src='/static/experiments/beast_fmri_test/images/D.png'></img>	71,89	2750.0	test	<img class = center src='/static/experiments/beast_fmri_test/images/redD.png'></img>	stop	2250.0	2.0	17.0	stop	non-target	D	71,Green Button	89,Yellow Button	450.0	500.0	2300.0	2250.0	0.0	500.0	1.0	0.0	ITI
84870	500.0	n/a	-1	-1	500	0.0	fixation	poldrack-single-stim	43	149693	0.0-7.18-0.18	beast_fmri_test	310	n/a	n/a	<div class = centerbox><div class = fixation>+</div></div>	none	500.0	test	n/a	n/a	n/a	n/a	n/a	n/a	n/a	n/a	n/a	n/a	n/a	n/a	n/a	n/a	n/a	n/a	n/a	n/a	fixation
84848.875260489993	2750.0	n/a	1253	71	2750	22.12473951	stim	stop-signal	44	152444	0.0-7.18-1.18	beast_fmri_test	310	149822,/,150502,/,151183,/,151863,/	t,t,t,t	<img class = center src='/static/experiments/beast_fmri_test/images/D.png'></img>	71,89	2750.0	test	<img class = center src='/static/experiments/beast_fmri_test/images/redD.png'></img>	go	2300.0	2.0	18.0	go	target	D	71,Green Button	89,Yellow Button	450.0	550.0	2300.0	2250.0	1.0	450.0	n/a	1.0	go_stim
87598.875260489993	22.12473951	n/a	1253	71	2750	22.12473951	stim	stop-signal	44	152444	0.0-7.18-1.18	beast_fmri_test	310	149822,/,150502,/,151183,/,151863,/	t,t,t,t	<img class = center src='/static/experiments/beast_fmri_test/images/D.png'></img>	71,89	2750.0	test	<img class = center src='/static/experiments/beast_fmri_test/images/redD.png'></img>	go	2300.0	2.0	18.0	go	target	D	71,Green Button	89,Yellow Button	450.0	550.0	2300.0	2250.0	1.0	450.0	n/a	1.0	ITI
88148	500.0	n/a	-1	-1	500	0.0	fixation	poldrack-single-stim	45	152971	0.0-7.19-0.19	beast_fmri_test	310	152543,/	t	<div class = centerbox><div class = fixation>+</div></div>	none	500.0	test	n/a	n/a	n/a	n/a	n/a	n/a	n/a	n/a	n/a	n/a	n/a	n/a	n/a	n/a	n/a	n/a	n/a	n/a	fixation
86760.855561000004	2750.0	n/a	843	89	2750	1389.144439	stim	stop-signal	46	155723	0.0-7.19-1.19	beast_fmri_test	310	153222,/,153902,/,154583,/,155262,/,155942,/,156622,/	t,t,t,t,t,t	<img class = center src='/static/experiments/beast_fmri_test/images/B.png'></img>	71,89	2750.0	test	<img class = center src='/static/experiments/beast_fmri_test/images/redB.png'></img>	go	2200.0	2.0	19.0	go	non-target	B	71,Green Button	89,Yellow Button	450.0	550.0	2300.0	2200.0	1.0	550.0	n/a	1.0	go_stim
89510.855561000004	1389.144439	n/a	843	89	2750	1389.144439	stim	stop-signal	46	155723	0.0-7.19-1.19	beast_fmri_test	310	153222,/,153902,/,154583,/,155262,/,155942,/,156622,/	t,t,t,t,t,t	<img class = center src='/static/experiments/beast_fmri_test/images/B.png'></img>	71,89	2750.0	test	<img class = center src='/static/experiments/beast_fmri_test/images/redB.png'></img>	go	2200.0	2.0	19.0	go	non-target	B	71,Green Button	89,Yellow Button	450.0	550.0	2300.0	2200.0	1.0	550.0	n/a	1.0	ITI
92796	500.0	n/a	-1	-1	500	0.0	fixation	poldrack-single-stim	47	157619	0.0-7.20-0.20	beast_fmri_test	310	157302,/	t	<div class = centerbox><div class = fixation>+</div></div>	none	500.0	test	n/a	n/a	n/a	n/a	n/a	n/a	n/a	n/a	n/a	n/a	n/a	n/a	n/a	n/a	n/a	n/a	n/a	n/a	fixation
91520.699568999989	2750.0	n/a	1007	71	2750	1276.300431	stim	stop-signal	48	160370	0.0-7.20-1.20	beast_fmri_test	310	157982,/,158662,/,159342,/,160022,/,160702,/,161382,/	t,t,t,t,t,t	<img class = center src='/static/experiments/beast_fmri_test/images/D.png'></img>	71,89	2750.0	test	<img class = center src='/static/experiments/beast_fmri_test/images/redD.png'></img>	go	2300.0	2.0	20.0	go	target	D	71,Green Button	89,Yellow Button	450.0	550.0	2300.0	2200.0	1.0	450.0	n/a	1.0	go_stim
94270.699568999989	1276.300431	n/a	1007	71	2750	1276.300431	stim	stop-signal	48	160370	0.0-7.20-1.20	beast_fmri_test	310	157982,/,158662,/,159342,/,160022,/,160702,/,161382,/	t,t,t,t,t,t	<img class = center src='/static/experiments/beast_fmri_test/images/D.png'></img>	71,89	2750.0	test	<img class = center src='/static/experiments/beast_fmri_test/images/redD.png'></img>	go	2300.0	2.0	20.0	go	target	D	71,Green Button	89,Yellow Button	450.0	550.0	2300.0	2200.0	1.0	450.0	n/a	1.0	ITI
97328	500.0	n/a	-1	-1	500	0.0	fixation	poldrack-single-stim	49	162151	0.0-7.21-0.21	beast_fmri_test	310	162062,/	t	<div class = centerbox><div class = fixation>+</div></div>	none	500.0	test	n/a	n/a	n/a	n/a	n/a	n/a	n/a	n/a	n/a	n/a	n/a	n/a	n/a	n/a	n/a	n/a	n/a	n/a	fixation
96013.906381000008	2750.0	n/a	722	71	2750	1316.093619	stim	stop-signal	50	164903	0.0-7.21-1.21	beast_fmri_test	310	162743,/,163422,/,164102,/,164782,/,165461,/,166142,/	t,t,t,t,t,t	<img class = center src='/static/experiments/beast_fmri_test/images/B.png'></img>	71,89	2750.0	test	<img class = center src='/static/experiments/beast_fmri_test/images/redB.png'></img>	go	2300.0	2.0	21.0	go	target	B	71,Green Button	89,Yellow Button	450.0	550.0	2300.0	2200.0	1.0	450.0	n/a	1.0	go_stim
98763.906381000008	1316.093619	n/a	722	71	2750	1316.093619	stim	stop-signal	50	164903	0.0-7.21-1.21	beast_fmri_test	310	162743,/,163422,/,164102,/,164782,/,165461,/,166142,/	t,t,t,t,t,t	<img class = center src='/static/experiments/beast_fmri_test/images/B.png'></img>	71,89	2750.0	test	<img class = center src='/static/experiments/beast_fmri_test/images/redB.png'></img>	go	2300.0	2.0	21.0	go	target	B	71,Green Button	89,Yellow Button	450.0	550.0	2300.0	2200.0	1.0	450.0	n/a	1.0	ITI
101902	500.0	n/a	-1	-1	500	0.0	fixation	poldrack-single-stim	51	166725	0.0-7.22-0.22	beast_fmri_test	310	n/a	n/a	<div class = centerbox><div class = fixation>+</div></div>	none	500.0	test	n/a	n/a	n/a	n/a	n/a	n/a	n/a	n/a	n/a	n/a	n/a	n/a	n/a	n/a	n/a	n/a	n/a	n/a	fixation
101791.88888789999	2750.0	n/a	1352	89	2750	112.1111121	stim	stop-signal	52	169477	0.0-7.22-1.22	beast_fmri_test	310	166822,/,167503,/,168183,/,168863,/,169543,/	t,t,t,t,t	<img class = center src='/static/experiments/beast_fmri_test/images/B.png'></img>	71,89	2750.0	test	<img class = center src='/static/experiments/beast_fmri_test/images/redB.png'></img>	go	2200.0	2.0	22.0	go	non-target	B	71,Green Button	89,Yellow Button	450.0	550.0	2300.0	2200.0	1.0	550.0	n/a	1.0	go_stim
104541.88888789999	112.1111121	n/a	1352	89	2750	112.1111121	stim	stop-signal	52	169477	0.0-7.22-1.22	beast_fmri_test	310	166822,/,167503,/,168183,/,168863,/,169543,/	t,t,t,t,t	<img class = center src='/static/experiments/beast_fmri_test/images/B.png'></img>	71,89	2750.0	test	<img class = center src='/static/experiments/beast_fmri_test/images/redB.png'></img>	go	2200.0	2.0	22.0	go	non-target	B	71,Green Button	89,Yellow Button	450.0	550.0	2300.0	2200.0	1.0	550.0	n/a	1.0	ITI
105271	500.0	n/a	-1	-1	500	0.0	fixation	poldrack-single-stim	53	170094	0.0-7.23-0.23	beast_fmri_test	310	n/a	n/a	<div class = centerbox><div class = fixation>+</div></div>	none	500.0	test	n/a	n/a	n/a	n/a	n/a	n/a	n/a	n/a	n/a	n/a	n/a	n/a	n/a	n/a	n/a	n/a	n/a	n/a	fixation
104953.67923420001	450.0	n/a	-1	-1	2750	318.3207658	stim	stop-signal	54	172845	0.0-7.23-1.23	beast_fmri_test	310	170223,/,170903,/,171583,/,172263,/,172943,/	t,t,t,t,t	<img class = center src='/static/experiments/beast_fmri_test/images/B.png'></img>	71,89	2750.0	test	<img class = center src='/static/experiments/beast_fmri_test/images/redB.png'></img>	stop	2300.0	2.0	23.0	stop	target	B	71,Green Button	89,Yellow Button	450.0	550.0	2300.0	2200.0	0.0	450.0	1.0	0.0	go_stim
107253.67923420001	2300.0	n/a	-1	-1	2750	318.3207658	stim	stop-signal	54	172845	0.0-7.23-1.23	beast_fmri_test	310	170223,/,170903,/,171583,/,172263,/,172943,/	t,t,t,t,t	<img class = center src='/static/experiments/beast_fmri_test/images/B.png'></img>	71,89	2750.0	test	<img class = center src='/static/experiments/beast_fmri_test/images/redB.png'></img>	stop	2300.0	2.0	23.0	stop	target	B	71,Green Button	89,Yellow Button	450.0	550.0	2300.0	2200.0	0.0	450.0	1.0	0.0	stop_stim
107703.67923420001	318.3207658	n/a	-1	-1	2750	318.3207658	stim	stop-signal	54	172845	0.0-7.23-1.23	beast_fmri_test	310	170223,/,170903,/,171583,/,172263,/,172943,/	t,t,t,t,t	<img class = center src='/static/experiments/beast_fmri_test/images/B.png'></img>	71,89	2750.0	test	<img class = center src='/static/experiments/beast_fmri_test/images/redB.png'></img>	stop	2300.0	2.0	23.0	stop	target	B	71,Green Button	89,Yellow Button	450.0	550.0	2300.0	2200.0	0.0	450.0	1.0	0.0	ITI
108845	500.0	n/a	-1	-1	500	0.0	fixation	poldrack-single-stim	55	173668	0.0-7.24-0.24	beast_fmri_test	310	173623,/	t	<div class = centerbox><div class = fixation>+</div></div>	none	500.0	test	n/a	n/a	n/a	n/a	n/a	n/a	n/a	n/a	n/a	n/a	n/a	n/a	n/a	n/a	n/a	n/a	n/a	n/a	fixation
108594.07010750001	550.0	n/a	612	89	2750	252.9298925	stim	stop-signal	56	176420	0.0-7.24-1.24	beast_fmri_test	310	174302,/,174983,/,175662,/,176343,/	t,t,t,t	<img class = center src='/static/experiments/beast_fmri_test/images/P.png'></img>	71,89	2750.0	test	<img class = center src='/static/experiments/beast_fmri_test/images/redP.png'></img>	stop	2200.0	2.0	24.0	stop	non-target	P	71,Green Button	89,Yellow Button	500.0	550.0	2300.0	2200.0	0.0	550.0	0.0	1.0	go_stim
110794.07010750001	2200.0	n/a	612	89	2750	252.9298925	stim	stop-signal	56	176420	0.0-7.24-1.24	beast_fmri_test	310	174302,/,174983,/,175662,/,176343,/	t,t,t,t	<img class = center src='/static/experiments/beast_fmri_test/images/P.png'></img>	71,89	2750.0	test	<img class = center src='/static/experiments/beast_fmri_test/images/redP.png'></img>	stop	2200.0	2.0	24.0	stop	non-target	P	71,Green Button	89,Yellow Button	500.0	550.0	2300.0	2200.0	0.0	550.0	0.0	1.0	stop_stim
111344.07010750001	252.9298925	n/a	612	89	2750	252.9298925	stim	stop-signal	56	176420	0.0-7.24-1.24	beast_fmri_test	310	174302,/,174983,/,175662,/,176343,/	t,t,t,t	<img class = center src='/static/experiments/beast_fmri_test/images/P.png'></img>	71,89	2750.0	test	<img class = center src='/static/experiments/beast_fmri_test/images/redP.png'></img>	stop	2200.0	2.0	24.0	stop	non-target	P	71,Green Button	89,Yellow Button	500.0	550.0	2300.0	2200.0	0.0	550.0	0.0	1.0	ITI
112355	500.0	n/a	-1	-1	500	0.0	fixation	poldrack-single-stim	57	177178	0.0-7.25-0.25	beast_fmri_test	310	177022,/	t	<div class = centerbox><div class = fixation>+</div></div>	none	500.0	test	n/a	n/a	n/a	n/a	n/a	n/a	n/a	n/a	n/a	n/a	n/a	n/a	n/a	n/a	n/a	n/a	n/a	n/a	fixation
111098.19530399999	2750.0	n/a	1060	71	2750	1258.804696	stim	stop-signal	58	179930	0.0-7.25-1.25	beast_fmri_test	310	177703,/,178383,/,179063,/,179743,/,180422,/,181102,/	t,t,t,t,t,t	<img class = center src='/static/experiments/beast_fmri_test/images/D.png'></img>	71,89	2750.0	test	<img class = center src='/static/experiments/beast_fmri_test/images/redD.png'></img>	go	2250.0	2.0	25.0	go	non-target	D	71,Green Button	89,Yellow Button	500.0	500.0	2300.0	2250.0	0.0	500.0	n/a	0.0	go_stim
113848.19530399999	1258.804696	n/a	1060	71	2750	1258.804696	stim	stop-signal	58	179930	0.0-7.25-1.25	beast_fmri_test	310	177703,/,178383,/,179063,/,179743,/,180422,/,181102,/	t,t,t,t,t,t	<img class = center src='/static/experiments/beast_fmri_test/images/D.png'></img>	71,89	2750.0	test	<img class = center src='/static/experiments/beast_fmri_test/images/redD.png'></img>	go	2250.0	2.0	25.0	go	non-target	D	71,Green Button	89,Yellow Button	500.0	500.0	2300.0	2250.0	0.0	500.0	n/a	0.0	ITI
116872	500.0	n/a	-1	-1	500	0.0	fixation	poldrack-single-stim	59	181695	0.0-7.26-0.26	beast_fmri_test	310	n/a	n/a	<div class = centerbox><div class = fixation>+</div></div>	none	500.0	test	n/a	n/a	n/a	n/a	n/a	n/a	n/a	n/a	n/a	n/a	n/a	n/a	n/a	n/a	n/a	n/a	n/a	n/a	fixation
116201.9408103	500.0	n/a	-1	-1	2750	673.0591897	stim	stop-signal	60	184448	0.0-7.26-1.26	beast_fmri_test	310	181783,/,182462,/,183144,/,183822,/,184503,/	t,t,t,t,t	<img class = center src='/static/experiments/beast_fmri_test/images/P.png'></img>	71,89	2750.0	test	<img class = center src='/static/experiments/beast_fmri_test/images/redP.png'></img>	stop	2250.0	2.0	26.0	stop	target	P	71,Green Button	89,Yellow Button	500.0	500.0	2250.0	2250.0	0.0	500.0	1.0	0.0	go_stim
118451.9408103	2250.0	n/a	-1	-1	2750	673.0591897	stim	stop-signal	60	184448	0.0-7.26-1.26	beast_fmri_test	310	181783,/,182462,/,183144,/,183822,/,184503,/	t,t,t,t,t	<img class = center src='/static/experiments/beast_fmri_test/images/P.png'></img>	71,89	2750.0	test	<img class = center src='/static/experiments/beast_fmri_test/images/redP.png'></img>	stop	2250.0	2.0	26.0	stop	target	P	71,Green Button	89,Yellow Button	500.0	500.0	2250.0	2250.0	0.0	500.0	1.0	0.0	stop_stim
118951.9408103	673.0591897	n/a	-1	-1	2750	673.0591897	stim	stop-signal	60	184448	0.0-7.26-1.26	beast_fmri_test	310	181783,/,182462,/,183144,/,183822,/,184503,/	t,t,t,t,t	<img class = center src='/static/experiments/beast_fmri_test/images/P.png'></img>	71,89	2750.0	test	<img class = center src='/static/experiments/beast_fmri_test/images/redP.png'></img>	stop	2250.0	2.0	26.0	stop	target	P	71,Green Button	89,Yellow Button	500.0	500.0	2250.0	2250.0	0.0	500.0	1.0	0.0	ITI
120802	500.0	n/a	-1	-1	500	0.0	fixation	poldrack-single-stim	61	185625	0.0-7.27-0.27	beast_fmri_test	310	185182,/	t	<div class = centerbox><div class = fixation>+</div></div>	none	500.0	test	n/a	n/a	n/a	n/a	n/a	n/a	n/a	n/a	n/a	n/a	n/a	n/a	n/a	n/a	n/a	n/a	n/a	n/a	fixation
119642.924054	2750.0	n/a	1051	89	2750	1160.075946	stim	stop-signal	62	188376	0.0-7.27-1.27	beast_fmri_test	310	185863,/,186542,/,187222,/,187903,/,188582,/,189262,/	t,t,t,t,t,t	<img class = center src='/static/experiments/beast_fmri_test/images/V.png'></img>	71,89	2750.0	test	<img class = center src='/static/experiments/beast_fmri_test/images/redV.png'></img>	go	2250.0	2.0	27.0	go	non-target	V	71,Green Button	89,Yellow Button	550.0	500.0	2250.0	2250.0	1.0	500.0	n/a	1.0	go_stim
122392.924054	1160.075946	n/a	1051	89	2750	1160.075946	stim	stop-signal	62	188376	0.0-7.27-1.27	beast_fmri_test	310	185863,/,186542,/,187222,/,187903,/,188582,/,189262,/	t,t,t,t,t,t	<img class = center src='/static/experiments/beast_fmri_test/images/V.png'></img>	71,89	2750.0	test	<img class = center src='/static/experiments/beast_fmri_test/images/redV.png'></img>	go	2250.0	2.0	27.0	go	non-target	V	71,Green Button	89,Yellow Button	550.0	500.0	2250.0	2250.0	1.0	500.0	n/a	1.0	ITI
125218	500.0	n/a	-1	-1	500	0.0	fixation	poldrack-single-stim	63	190041	0.0-7.28-0.28	beast_fmri_test	310	189942,/	t	<div class = centerbox><div class = fixation>+</div></div>	none	500.0	test	n/a	n/a	n/a	n/a	n/a	n/a	n/a	n/a	n/a	n/a	n/a	n/a	n/a	n/a	n/a	n/a	n/a	n/a	fixation
124900.0654702	550.0	n/a	-1	-1	2750	318.9345298	stim	stop-signal	64	192792	0.0-7.28-1.28	beast_fmri_test	310	190622,/,191302,/,191982,/,192662,/	t,t,t,t	<img class = center src='/static/experiments/beast_fmri_test/images/P.png'></img>	71,89	2750.0	test	<img class = center src='/static/experiments/beast_fmri_test/images/redP.png'></img>	stop	2200.0	2.0	28.0	stop	target	P	71,Green Button	89,Yellow Button	550.0	500.0	2200.0	2250.0	0.0	550.0	1.0	0.0	go_stim
127100.0654702	2200.0	n/a	-1	-1	2750	318.9345298	stim	stop-signal	64	192792	0.0-7.28-1.28	beast_fmri_test	310	190622,/,191302,/,191982,/,192662,/	t,t,t,t	<img class = center src='/static/experiments/beast_fmri_test/images/P.png'></img>	71,89	2750.0	test	<img class = center src='/static/experiments/beast_fmri_test/images/redP.png'></img>	stop	2200.0	2.0	28.0	stop	target	P	71,Green Button	89,Yellow Button	550.0	500.0	2200.0	2250.0	0.0	550.0	1.0	0.0	stop_stim
127650.0654702	318.9345298	n/a	-1	-1	2750	318.9345298	stim	stop-signal	64	192792	0.0-7.28-1.28	beast_fmri_test	310	190622,/,191302,/,191982,/,192662,/	t,t,t,t	<img class = center src='/static/experiments/beast_fmri_test/images/P.png'></img>	71,89	2750.0	test	<img class = center src='/static/experiments/beast_fmri_test/images/redP.png'></img>	stop	2200.0	2.0	28.0	stop	target	P	71,Green Button	89,Yellow Button	550.0	500.0	2200.0	2250.0	0.0	550.0	1.0	0.0	ITI
128793	500.0	n/a	-1	-1	500	0.0	fixation	poldrack-single-stim	65	193616	0.0-7.29-0.29	beast_fmri_test	310	193343,/	t	<div class = centerbox><div class = fixation>+</div></div>	none	500.0	test	n/a	n/a	n/a	n/a	n/a	n/a	n/a	n/a	n/a	n/a	n/a	n/a	n/a	n/a	n/a	n/a	n/a	n/a	fixation
128000.30750990001	2750.0	n/a	817	71	2750	794.6924901	stim	stop-signal	66	196368	0.0-7.29-1.29	beast_fmri_test	310	194022,/,194702,/,195382,/,196062,/,196742,/	t,t,t,t,t	<img class = center src='/static/experiments/beast_fmri_test/images/V.png'></img>	71,89	2750.0	test	<img class = center src='/static/experiments/beast_fmri_test/images/redV.png'></img>	go	2150.0	2.0	29.0	go	target	V	71,Green Button	89,Yellow Button	600.0	500.0	2150.0	2250.0	1.0	600.0	n/a	1.0	go_stim
130750.30750990001	794.6924901	n/a	817	71	2750	794.6924901	stim	stop-signal	66	196368	0.0-7.29-1.29	beast_fmri_test	310	194022,/,194702,/,195382,/,196062,/,196742,/	t,t,t,t,t	<img class = center src='/static/experiments/beast_fmri_test/images/V.png'></img>	71,89	2750.0	test	<img class = center src='/static/experiments/beast_fmri_test/images/redV.png'></img>	go	2150.0	2.0	29.0	go	target	V	71,Green Button	89,Yellow Button	600.0	500.0	2150.0	2250.0	1.0	600.0	n/a	1.0	ITI
132845	500.0	n/a	-1	-1	500	0.0	fixation	poldrack-single-stim	67	197668	0.0-7.30-0.30	beast_fmri_test	310	197422,/	t	<div class = centerbox><div class = fixation>+</div></div>	none	500.0	test	n/a	n/a	n/a	n/a	n/a	n/a	n/a	n/a	n/a	n/a	n/a	n/a	n/a	n/a	n/a	n/a	n/a	n/a	fixation
132488.5446127	2750.0	n/a	691	89	2750	357.4553873	stim	stop-signal	68	200419	0.0-7.30-1.30	beast_fmri_test	310	198102,/,198782,/,199462,/,200142,/	t,t,t,t	<img class = center src='/static/experiments/beast_fmri_test/images/T.png'></img>	71,89	2750.0	test	<img class = center src='/static/experiments/beast_fmri_test/images/redT.png'></img>	go	2250.0	2.0	30.0	go	non-target	T	71,Green Button	89,Yellow Button	600.0	500.0	2150.0	2250.0	1.0	500.0	n/a	1.0	go_stim
135238.5446127	357.4553873	n/a	691	89	2750	357.4553873	stim	stop-signal	68	200419	0.0-7.30-1.30	beast_fmri_test	310	198102,/,198782,/,199462,/,200142,/	t,t,t,t	<img class = center src='/static/experiments/beast_fmri_test/images/T.png'></img>	71,89	2750.0	test	<img class = center src='/static/experiments/beast_fmri_test/images/redT.png'></img>	go	2250.0	2.0	30.0	go	non-target	T	71,Green Button	89,Yellow Button	600.0	500.0	2150.0	2250.0	1.0	500.0	n/a	1.0	ITI
136458	500.0	n/a	-1	-1	500	0.0	fixation	poldrack-single-stim	69	201281	0.0-7.31-0.31	beast_fmri_test	310	200822,/	t	<div class = centerbox><div class = fixation>+</div></div>	none	500.0	test	n/a	n/a	n/a	n/a	n/a	n/a	n/a	n/a	n/a	n/a	n/a	n/a	n/a	n/a	n/a	n/a	n/a	n/a	fixation
135689.71998339999	2750.0	n/a	1001	89	2750	770.2800166	stim	stop-signal	70	204033	0.0-7.31-1.31	beast_fmri_test	310	201503,/,202183,/,202863,/,203543,/,204223,/	t,t,t,t,t	<img class = center src='/static/experiments/beast_fmri_test/images/B.png'></img>	71,89	2750.0	test	<img class = center src='/static/experiments/beast_fmri_test/images/redB.png'></img>	go	2250.0	2.0	31.0	go	non-target	B	71,Green Button	89,Yellow Button	600.0	500.0	2150.0	2250.0	1.0	500.0	n/a	1.0	go_stim
138439.71998339999	770.2800166	n/a	1001	89	2750	770.2800166	stim	stop-signal	70	204033	0.0-7.31-1.31	beast_fmri_test	310	201503,/,202183,/,202863,/,203543,/,204223,/	t,t,t,t,t	<img class = center src='/static/experiments/beast_fmri_test/images/B.png'></img>	71,89	2750.0	test	<img class = center src='/static/experiments/beast_fmri_test/images/redB.png'></img>	go	2250.0	2.0	31.0	go	non-target	B	71,Green Button	89,Yellow Button	600.0	500.0	2150.0	2250.0	1.0	500.0	n/a	1.0	ITI
140488	500.0	n/a	-1	-1	500	0.0	fixation	poldrack-single-stim	71	205311	0.0-7.32-0.32	beast_fmri_test	310	204903,/	t	<div class = centerbox><div class = fixation>+</div></div>	none	500.0	test	n/a	n/a	n/a	n/a	n/a	n/a	n/a	n/a	n/a	n/a	n/a	n/a	n/a	n/a	n/a	n/a	n/a	n/a	fixation
139043.91924700001	2750.0	n/a	1113	89	2750	1445.080753	stim	stop-signal	72	208062	0.0-7.32-1.32	beast_fmri_test	310	205582,/,206263,/,206943,/,207622,/,208303,/,208983,/	t,t,t,t,t,t	<img class = center src='/static/experiments/beast_fmri_test/images/B.png'></img>	71,89	2750.0	test	<img class = center src='/static/experiments/beast_fmri_test/images/redB.png'></img>	go	2250.0	2.0	32.0	go	non-target	B	71,Green Button	89,Yellow Button	600.0	500.0	2150.0	2250.0	1.0	500.0	n/a	1.0	go_stim
141793.91924700001	1445.080753	n/a	1113	89	2750	1445.080753	stim	stop-signal	72	208062	0.0-7.32-1.32	beast_fmri_test	310	205582,/,206263,/,206943,/,207622,/,208303,/,208983,/	t,t,t,t,t,t	<img class = center src='/static/experiments/beast_fmri_test/images/B.png'></img>	71,89	2750.0	test	<img class = center src='/static/experiments/beast_fmri_test/images/redB.png'></img>	go	2250.0	2.0	32.0	go	non-target	B	71,Green Button	89,Yellow Button	600.0	500.0	2150.0	2250.0	1.0	500.0	n/a	1.0	ITI
145190	500.0	n/a	-1	-1	500	0.0	fixation	poldrack-single-stim	73	210013	0.0-7.33-0.33	beast_fmri_test	310	209662,/	t	<div class = centerbox><div class = fixation>+</div></div>	none	500.0	test	n/a	n/a	n/a	n/a	n/a	n/a	n/a	n/a	n/a	n/a	n/a	n/a	n/a	n/a	n/a	n/a	n/a	n/a	fixation
144649.2451152	500.0	n/a	655	89	2750	541.7548848	stim	stop-signal	74	212764	0.0-7.33-1.33	beast_fmri_test	310	210342,/,211022,/,211703,/,212383,/,213063,/	t,t,t,t,t	<img class = center src='/static/experiments/beast_fmri_test/images/T.png'></img>	71,89	2750.0	test	<img class = center src='/static/experiments/beast_fmri_test/images/redT.png'></img>	stop	2250.0	2.0	33.0	stop	non-target	T	71,Green Button	89,Yellow Button	600.0	500.0	2150.0	2250.0	0.0	500.0	0.0	1.0	go_stim
146899.2451152	2250.0	n/a	655	89	2750	541.7548848	stim	stop-signal	74	212764	0.0-7.33-1.33	beast_fmri_test	310	210342,/,211022,/,211703,/,212383,/,213063,/	t,t,t,t,t	<img class = center src='/static/experiments/beast_fmri_test/images/T.png'></img>	71,89	2750.0	test	<img class = center src='/static/experiments/beast_fmri_test/images/redT.png'></img>	stop	2250.0	2.0	33.0	stop	non-target	T	71,Green Button	89,Yellow Button	600.0	500.0	2150.0	2250.0	0.0	500.0	0.0	1.0	stop_stim
147399.2451152	541.7548848	n/a	655	89	2750	541.7548848	stim	stop-signal	74	212764	0.0-7.33-1.33	beast_fmri_test	310	210342,/,211022,/,211703,/,212383,/,213063,/	t,t,t,t,t	<img class = center src='/static/experiments/beast_fmri_test/images/T.png'></img>	71,89	2750.0	test	<img class = center src='/static/experiments/beast_fmri_test/images/redT.png'></img>	stop	2250.0	2.0	33.0	stop	non-target	T	71,Green Button	89,Yellow Button	600.0	500.0	2150.0	2250.0	0.0	500.0	0.0	1.0	ITI
148988	500.0	n/a	-1	-1	500	0.0	fixation	poldrack-single-stim	75	213811	0.0-7.34-0.34	beast_fmri_test	310	213744,/	t	<div class = centerbox><div class = fixation>+</div></div>	none	500.0	test	n/a	n/a	n/a	n/a	n/a	n/a	n/a	n/a	n/a	n/a	n/a	n/a	n/a	n/a	n/a	n/a	n/a	n/a	fixation
148555.49074750001	2750.0	n/a	891	89	2750	433.5092525	stim	stop-signal	76	216562	0.0-7.34-1.34	beast_fmri_test	310	214423,/,215102,/,215782,/,216462,/	t,t,t,t	<img class = center src='/static/experiments/beast_fmri_test/images/D.png'></img>	71,89	2750.0	test	<img class = center src='/static/experiments/beast_fmri_test/images/redD.png'></img>	go	2300.0	2.0	34.0	go	non-target	D	71,Green Button	89,Yellow Button	600.0	450.0	2150.0	2300.0	1.0	450.0	n/a	1.0	go_stim
151305.49074750001	433.5092525	n/a	891	89	2750	433.5092525	stim	stop-signal	76	216562	0.0-7.34-1.34	beast_fmri_test	310	214423,/,215102,/,215782,/,216462,/	t,t,t,t	<img class = center src='/static/experiments/beast_fmri_test/images/D.png'></img>	71,89	2750.0	test	<img class = center src='/static/experiments/beast_fmri_test/images/redD.png'></img>	go	2300.0	2.0	34.0	go	non-target	D	71,Green Button	89,Yellow Button	600.0	450.0	2150.0	2300.0	1.0	450.0	n/a	1.0	ITI
152679	500.0	n/a	-1	-1	500	0.0	fixation	poldrack-single-stim	77	217502	0.0-7.35-0.35	beast_fmri_test	310	217143,/	t	<div class = centerbox><div class = fixation>+</div></div>	none	500.0	test	n/a	n/a	n/a	n/a	n/a	n/a	n/a	n/a	n/a	n/a	n/a	n/a	n/a	n/a	n/a	n/a	n/a	n/a	fixation
152022.41068299999	2750.0	n/a	809	71	2750	658.589317	stim	stop-signal	78	220254	0.0-7.35-1.35	beast_fmri_test	310	217823,/,218503,/,219183,/,219862,/,220542,/	t,t,t,t,t	<img class = center src='/static/experiments/beast_fmri_test/images/T.png'></img>	71,89	2750.0	test	<img class = center src='/static/experiments/beast_fmri_test/images/redT.png'></img>	go	2150.0	2.0	35.0	go	target	T	71,Green Button	89,Yellow Button	600.0	450.0	2150.0	2300.0	1.0	600.0	n/a	1.0	go_stim
154772.41068299999	658.589317	n/a	809	71	2750	658.589317	stim	stop-signal	78	220254	0.0-7.35-1.35	beast_fmri_test	310	217823,/,218503,/,219183,/,219862,/,220542,/	t,t,t,t,t	<img class = center src='/static/experiments/beast_fmri_test/images/T.png'></img>	71,89	2750.0	test	<img class = center src='/static/experiments/beast_fmri_test/images/redT.png'></img>	go	2150.0	2.0	35.0	go	target	T	71,Green Button	89,Yellow Button	600.0	450.0	2150.0	2300.0	1.0	600.0	n/a	1.0	ITI
156595	500.0	n/a	-1	-1	500	0.0	fixation	poldrack-single-stim	79	221418	0.0-7.36-0.36	beast_fmri_test	310	221222,/	t	<div class = centerbox><div class = fixation>+</div></div>	none	500.0	test	n/a	n/a	n/a	n/a	n/a	n/a	n/a	n/a	n/a	n/a	n/a	n/a	n/a	n/a	n/a	n/a	n/a	n/a	fixation
156531.49345599001	450.0	n/a	623	89	2750	66.50654401	stim	stop-signal	80	224171	0.0-7.36-1.36	beast_fmri_test	310	221902,/,222582,/,223262,/,223943,/	t,t,t,t	<img class = center src='/static/experiments/beast_fmri_test/images/V.png'></img>	71,89	2750.0	test	<img class = center src='/static/experiments/beast_fmri_test/images/redV.png'></img>	stop	2300.0	2.0	36.0	stop	non-target	V	71,Green Button	89,Yellow Button	600.0	450.0	2150.0	2300.0	0.0	450.0	0.0	1.0	go_stim
158831.49345599001	2300.0	n/a	623	89	2750	66.50654401	stim	stop-signal	80	224171	0.0-7.36-1.36	beast_fmri_test	310	221902,/,222582,/,223262,/,223943,/	t,t,t,t	<img class = center src='/static/experiments/beast_fmri_test/images/V.png'></img>	71,89	2750.0	test	<img class = center src='/static/experiments/beast_fmri_test/images/redV.png'></img>	stop	2300.0	2.0	36.0	stop	non-target	V	71,Green Button	89,Yellow Button	600.0	450.0	2150.0	2300.0	0.0	450.0	0.0	1.0	stop_stim
159281.49345599001	66.50654401	n/a	623	89	2750	66.50654401	stim	stop-signal	80	224171	0.0-7.36-1.36	beast_fmri_test	310	221902,/,222582,/,223262,/,223943,/	t,t,t,t	<img class = center src='/static/experiments/beast_fmri_test/images/V.png'></img>	71,89	2750.0	test	<img class = center src='/static/experiments/beast_fmri_test/images/redV.png'></img>	stop	2300.0	2.0	36.0	stop	non-target	V	71,Green Button	89,Yellow Button	600.0	450.0	2150.0	2300.0	0.0	450.0	0.0	1.0	ITI
159920	500.0	n/a	-1	-1	500	0.0	fixation	poldrack-single-stim	81	224743	0.0-7.37-0.37	beast_fmri_test	310	224622,/	t	<div class = centerbox><div class = fixation>+</div></div>	none	500.0	test	n/a	n/a	n/a	n/a	n/a	n/a	n/a	n/a	n/a	n/a	n/a	n/a	n/a	n/a	n/a	n/a	n/a	n/a	fixation
159845.6546441	2750.0	n/a	1272	89	2750	76.3453559	stim	stop-signal	82	227495	0.0-7.37-1.37	beast_fmri_test	310	225303,/,225982,/,226662,/,227342,/	t,t,t,t	<img class = center src='/static/experiments/beast_fmri_test/images/V.png'></img>	71,89	2750.0	test	<img class = center src='/static/experiments/beast_fmri_test/images/redV.png'></img>	go	2350.0	2.0	37.0	go	non-target	V	71,Green Button	89,Yellow Button	600.0	400.0	2150.0	2350.0	1.0	400.0	n/a	1.0	go_stim
162595.6546441	76.3453559	n/a	1272	89	2750	76.3453559	stim	stop-signal	82	227495	0.0-7.37-1.37	beast_fmri_test	310	225303,/,225982,/,226662,/,227342,/	t,t,t,t	<img class = center src='/static/experiments/beast_fmri_test/images/V.png'></img>	71,89	2750.0	test	<img class = center src='/static/experiments/beast_fmri_test/images/redV.png'></img>	go	2350.0	2.0	37.0	go	non-target	V	71,Green Button	89,Yellow Button	600.0	400.0	2150.0	2350.0	1.0	400.0	n/a	1.0	ITI
163256	500.0	n/a	-1	-1	500	0.0	fixation	poldrack-single-stim	83	228079	0.0-7.38-0.38	beast_fmri_test	310	228022,/	t	<div class = centerbox><div class = fixation>+</div></div>	none	500.0	test	n/a	n/a	n/a	n/a	n/a	n/a	n/a	n/a	n/a	n/a	n/a	n/a	n/a	n/a	n/a	n/a	n/a	n/a	fixation
161066.46189999999	2750.0	n/a	737	71	2750	2191.5381	stim	stop-signal	84	230831	0.0-7.38-1.38	beast_fmri_test	310	228702,/,229382,/,230062,/,230742,/,231422,/,232102,/,232782,/	t,t,t,t,t,t,t	<img class = center src='/static/experiments/beast_fmri_test/images/V.png'></img>	71,89	2750.0	test	<img class = center src='/static/experiments/beast_fmri_test/images/redV.png'></img>	go	2150.0	2.0	38.0	go	target	V	71,Green Button	89,Yellow Button	600.0	400.0	2150.0	2350.0	1.0	600.0	n/a	1.0	go_stim
163816.46189999999	2191.5381	n/a	737	71	2750	2191.5381	stim	stop-signal	84	230831	0.0-7.38-1.38	beast_fmri_test	310	228702,/,229382,/,230062,/,230742,/,231422,/,232102,/,232782,/	t,t,t,t,t,t,t	<img class = center src='/static/experiments/beast_fmri_test/images/V.png'></img>	71,89	2750.0	test	<img class = center src='/static/experiments/beast_fmri_test/images/redV.png'></img>	go	2150.0	2.0	38.0	go	target	V	71,Green Button	89,Yellow Button	600.0	400.0	2150.0	2350.0	1.0	600.0	n/a	1.0	ITI
168706	500.0	n/a	-1	-1	500	0.0	fixation	poldrack-single-stim	85	233529	0.0-7.39-0.39	beast_fmri_test	310	233462,/	t	<div class = centerbox><div class = fixation>+</div></div>	none	500.0	test	n/a	n/a	n/a	n/a	n/a	n/a	n/a	n/a	n/a	n/a	n/a	n/a	n/a	n/a	n/a	n/a	n/a	n/a	fixation
168280.18701950001	2750.0	n/a	642	89	2750	428.8129805	stim	stop-signal	86	236282	0.0-7.39-1.39	beast_fmri_test	310	234144,/,234822,/,235503,/,236183,/	t,t,t,t	<img class = center src='/static/experiments/beast_fmri_test/images/D.png'></img>	71,89	2750.0	test	<img class = center src='/static/experiments/beast_fmri_test/images/redD.png'></img>	go	2350.0	2.0	39.0	go	non-target	D	71,Green Button	89,Yellow Button	600.0	400.0	2150.0	2350.0	1.0	400.0	n/a	1.0	go_stim
171030.18701950001	428.8129805	n/a	642	89	2750	428.8129805	stim	stop-signal	86	236282	0.0-7.39-1.39	beast_fmri_test	310	234144,/,234822,/,235503,/,236183,/	t,t,t,t	<img class = center src='/static/experiments/beast_fmri_test/images/D.png'></img>	71,89	2750.0	test	<img class = center src='/static/experiments/beast_fmri_test/images/redD.png'></img>	go	2350.0	2.0	39.0	go	non-target	D	71,Green Button	89,Yellow Button	600.0	400.0	2150.0	2350.0	1.0	400.0	n/a	1.0	ITI
172395	500.0	n/a	-1	-1	500	0.0	fixation	poldrack-single-stim	87	237218	0.0-7.40-0.40	beast_fmri_test	310	236862,/	t	<div class = centerbox><div class = fixation>+</div></div>	none	500.0	test	n/a	n/a	n/a	n/a	n/a	n/a	n/a	n/a	n/a	n/a	n/a	n/a	n/a	n/a	n/a	n/a	n/a	n/a	fixation
172352.17733984001	2750.0	n/a	713	89	2750	44.82266016	stim	stop-signal	88	239970	0.0-7.40-1.40	beast_fmri_test	310	237543,/,238223,/,238903,/,239583,/	t,t,t,t	<img class = center src='/static/experiments/beast_fmri_test/images/P.png'></img>	71,89	2750.0	test	<img class = center src='/static/experiments/beast_fmri_test/images/redP.png'></img>	go	2350.0	2.0	40.0	go	non-target	P	71,Green Button	89,Yellow Button	600.0	400.0	2150.0	2350.0	1.0	400.0	n/a	1.0	go_stim
175102.17733984001	44.82266016	n/a	713	89	2750	44.82266016	stim	stop-signal	88	239970	0.0-7.40-1.40	beast_fmri_test	310	237543,/,238223,/,238903,/,239583,/	t,t,t,t	<img class = center src='/static/experiments/beast_fmri_test/images/P.png'></img>	71,89	2750.0	test	<img class = center src='/static/experiments/beast_fmri_test/images/redP.png'></img>	go	2350.0	2.0	40.0	go	non-target	P	71,Green Button	89,Yellow Button	600.0	400.0	2150.0	2350.0	1.0	400.0	n/a	1.0	ITI
175700	500.0	n/a	-1	-1	500	0.0	fixation	poldrack-single-stim	89	240523	0.0-7.41-0.41	beast_fmri_test	310	240263,/	t	<div class = centerbox><div class = fixation>+</div></div>	none	500.0	test	n/a	n/a	n/a	n/a	n/a	n/a	n/a	n/a	n/a	n/a	n/a	n/a	n/a	n/a	n/a	n/a	n/a	n/a	fixation
175188.56670920001	2750.0	n/a	509	71	2750	513.4332908	stim	stop-signal	90	243275	0.0-7.41-1.41	beast_fmri_test	310	240943,/,241622,/,242303,/,242983,/,243663,/	t,t,t,t,t	<img class = center src='/static/experiments/beast_fmri_test/images/D.png'></img>	71,89	2750.0	test	<img class = center src='/static/experiments/beast_fmri_test/images/redD.png'></img>	go	2150.0	2.0	41.0	go	target	D	71,Green Button	89,Yellow Button	600.0	400.0	2150.0	2350.0	1.0	600.0	n/a	1.0	go_stim
177938.56670920001	513.4332908	n/a	509	71	2750	513.4332908	stim	stop-signal	90	243275	0.0-7.41-1.41	beast_fmri_test	310	240943,/,241622,/,242303,/,242983,/,243663,/	t,t,t,t,t	<img class = center src='/static/experiments/beast_fmri_test/images/D.png'></img>	71,89	2750.0	test	<img class = center src='/static/experiments/beast_fmri_test/images/redD.png'></img>	go	2150.0	2.0	41.0	go	target	D	71,Green Button	89,Yellow Button	600.0	400.0	2150.0	2350.0	1.0	600.0	n/a	1.0	ITI
179471	500.0	n/a	-1	-1	500	0.0	fixation	poldrack-single-stim	91	244294	0.0-7.42-0.42	beast_fmri_test	310	n/a	n/a	<div class = centerbox><div class = fixation>+</div></div>	none	500.0	test	n/a	n/a	n/a	n/a	n/a	n/a	n/a	n/a	n/a	n/a	n/a	n/a	n/a	n/a	n/a	n/a	n/a	n/a	fixation
178926.21381439999	400.0	n/a	563	89	2750	545.7861856	stim	stop-signal	92	247045	0.0-7.42-1.42	beast_fmri_test	310	244344,/,245022,/,245703,/,246382,/,247062,/	t,t,t,t,t	<img class = center src='/static/experiments/beast_fmri_test/images/B.png'></img>	71,89	2750.0	test	<img class = center src='/static/experiments/beast_fmri_test/images/redB.png'></img>	stop	2350.0	2.0	42.0	stop	non-target	B	71,Green Button	89,Yellow Button	600.0	400.0	2150.0	2350.0	0.0	400.0	0.0	1.0	go_stim
181276.21381439999	2350.0	n/a	563	89	2750	545.7861856	stim	stop-signal	92	247045	0.0-7.42-1.42	beast_fmri_test	310	244344,/,245022,/,245703,/,246382,/,247062,/	t,t,t,t,t	<img class = center src='/static/experiments/beast_fmri_test/images/B.png'></img>	71,89	2750.0	test	<img class = center src='/static/experiments/beast_fmri_test/images/redB.png'></img>	stop	2350.0	2.0	42.0	stop	non-target	B	71,Green Button	89,Yellow Button	600.0	400.0	2150.0	2350.0	0.0	400.0	0.0	1.0	stop_stim
181676.21381439999	545.7861856	n/a	563	89	2750	545.7861856	stim	stop-signal	92	247045	0.0-7.42-1.42	beast_fmri_test	310	244344,/,245022,/,245703,/,246382,/,247062,/	t,t,t,t,t	<img class = center src='/static/experiments/beast_fmri_test/images/B.png'></img>	71,89	2750.0	test	<img class = center src='/static/experiments/beast_fmri_test/images/redB.png'></img>	stop	2350.0	2.0	42.0	stop	non-target	B	71,Green Button	89,Yellow Button	600.0	400.0	2150.0	2350.0	0.0	400.0	0.0	1.0	ITI
183273	500.0	n/a	-1	-1	500	0.0	fixation	poldrack-single-stim	93	248096	0.0-7.43-0.43	beast_fmri_test	310	247743,/	t	<div class = centerbox><div class = fixation>+</div></div>	none	500.0	test	n/a	n/a	n/a	n/a	n/a	n/a	n/a	n/a	n/a	n/a	n/a	n/a	n/a	n/a	n/a	n/a	n/a	n/a	fixation
182665.99699809999	600.0	n/a	681	71	2750	609.0030019	stim	stop-signal	94	250848	0.0-7.43-1.43	beast_fmri_test	310	248422,/,249102,/,249782,/,250462,/,251142,/	t,t,t,t,t	<img class = center src='/static/experiments/beast_fmri_test/images/D.png'></img>	71,89	2750.0	test	<img class = center src='/static/experiments/beast_fmri_test/images/redD.png'></img>	stop	2150.0	2.0	43.0	stop	target	D	71,Green Button	89,Yellow Button	600.0	350.0	2150.0	2350.0	0.0	600.0	0.0	1.0	go_stim
184815.99699809999	2150.0	n/a	681	71	2750	609.0030019	stim	stop-signal	94	250848	0.0-7.43-1.43	beast_fmri_test	310	248422,/,249102,/,249782,/,250462,/,251142,/	t,t,t,t,t	<img class = center src='/static/experiments/beast_fmri_test/images/D.png'></img>	71,89	2750.0	test	<img class = center src='/static/experiments/beast_fmri_test/images/redD.png'></img>	stop	2150.0	2.0	43.0	stop	target	D	71,Green Button	89,Yellow Button	600.0	350.0	2150.0	2350.0	0.0	600.0	0.0	1.0	stop_stim
185415.99699809999	609.0030019	n/a	681	71	2750	609.0030019	stim	stop-signal	94	250848	0.0-7.43-1.43	beast_fmri_test	310	248422,/,249102,/,249782,/,250462,/,251142,/	t,t,t,t,t	<img class = center src='/static/experiments/beast_fmri_test/images/D.png'></img>	71,89	2750.0	test	<img class = center src='/static/experiments/beast_fmri_test/images/redD.png'></img>	stop	2150.0	2.0	43.0	stop	target	D	71,Green Button	89,Yellow Button	600.0	350.0	2150.0	2350.0	0.0	600.0	0.0	1.0	ITI
187138	500.0	n/a	-1	-1	500	0.0	fixation	poldrack-single-stim	95	251961	0.0-7.44-0.44	beast_fmri_test	310	251822,/	t	<div class = centerbox><div class = fixation>+</div></div>	none	500.0	test	n/a	n/a	n/a	n/a	n/a	n/a	n/a	n/a	n/a	n/a	n/a	n/a	n/a	n/a	n/a	n/a	n/a	n/a	fixation
186261.59629640001	2750.0	n/a	711	71	2750	877.4037036	stim	stop-signal	96	254712	0.0-7.44-1.44	beast_fmri_test	310	252502,/,253183,/,253862,/,254542,/,255222,/	t,t,t,t,t	<img class = center src='/static/experiments/beast_fmri_test/images/B.png'></img>	71,89	2750.0	test	<img class = center src='/static/experiments/beast_fmri_test/images/redB.png'></img>	go	2200.0	2.0	44.0	go	target	B	71,Green Button	89,Yellow Button	550.0	350.0	2200.0	2350.0	1.0	550.0	n/a	1.0	go_stim
189011.59629640001	877.4037036	n/a	711	71	2750	877.4037036	stim	stop-signal	96	254712	0.0-7.44-1.44	beast_fmri_test	310	252502,/,253183,/,253862,/,254542,/,255222,/	t,t,t,t,t	<img class = center src='/static/experiments/beast_fmri_test/images/B.png'></img>	71,89	2750.0	test	<img class = center src='/static/experiments/beast_fmri_test/images/redB.png'></img>	go	2200.0	2.0	44.0	go	target	B	71,Green Button	89,Yellow Button	550.0	350.0	2200.0	2350.0	1.0	550.0	n/a	1.0	ITI
191275	500.0	n/a	-1	-1	500	0.0	fixation	poldrack-single-stim	97	256098	0.0-7.45-0.45	beast_fmri_test	310	255902,/	t	<div class = centerbox><div class = fixation>+</div></div>	none	500.0	test	n/a	n/a	n/a	n/a	n/a	n/a	n/a	n/a	n/a	n/a	n/a	n/a	n/a	n/a	n/a	n/a	n/a	n/a	fixation
190278.38602949999	2750.0	n/a	962	89	2750	997.6139705	stim	stop-signal	98	258849	0.0-7.45-1.45	beast_fmri_test	310	256582,/,257262,/,257942,/,258622,/,259302,/	t,t,t,t,t	<img class = center src='/static/experiments/beast_fmri_test/images/B.png'></img>	71,89	2750.0	test	<img class = center src='/static/experiments/beast_fmri_test/images/redB.png'></img>	go	2400.0	2.0	45.0	go	non-target	B	71,Green Button	89,Yellow Button	550.0	350.0	2200.0	2400.0	1.0	350.0	n/a	1.0	go_stim
193028.38602949999	997.6139705	n/a	962	89	2750	997.6139705	stim	stop-signal	98	258849	0.0-7.45-1.45	beast_fmri_test	310	256582,/,257262,/,257942,/,258622,/,259302,/	t,t,t,t,t	<img class = center src='/static/experiments/beast_fmri_test/images/B.png'></img>	71,89	2750.0	test	<img class = center src='/static/experiments/beast_fmri_test/images/redB.png'></img>	go	2400.0	2.0	45.0	go	non-target	B	71,Green Button	89,Yellow Button	550.0	350.0	2200.0	2400.0	1.0	350.0	n/a	1.0	ITI
195529	500.0	n/a	-1	-1	500	0.0	fixation	poldrack-single-stim	99	260352	0.0-7.46-0.46	beast_fmri_test	310	259982,/	t	<div class = centerbox><div class = fixation>+</div></div>	none	500.0	test	n/a	n/a	n/a	n/a	n/a	n/a	n/a	n/a	n/a	n/a	n/a	n/a	n/a	n/a	n/a	n/a	n/a	n/a	fixation
193702.989879	350.0	n/a	542	89	2750	1828.010121	stim	stop-signal	100	263104	0.0-7.46-1.46	beast_fmri_test	310	260662,/,261342,/,262022,/,262702,/,263382,/,264062,/,264743,/	t,t,t,t,t,t,t	<img class = center src='/static/experiments/beast_fmri_test/images/P.png'></img>	71,89	2750.0	test	<img class = center src='/static/experiments/beast_fmri_test/images/redP.png'></img>	stop	2400.0	2.0	46.0	stop	non-target	P	71,Green Button	89,Yellow Button	550.0	350.0	2200.0	2400.0	0.0	350.0	0.0	1.0	go_stim
196102.989879	2400.0	n/a	542	89	2750	1828.010121	stim	stop-signal	100	263104	0.0-7.46-1.46	beast_fmri_test	310	260662,/,261342,/,262022,/,262702,/,263382,/,264062,/,264743,/	t,t,t,t,t,t,t	<img class = center src='/static/experiments/beast_fmri_test/images/P.png'></img>	71,89	2750.0	test	<img class = center src='/static/experiments/beast_fmri_test/images/redP.png'></img>	stop	2400.0	2.0	46.0	stop	non-target	P	71,Green Button	89,Yellow Button	550.0	350.0	2200.0	2400.0	0.0	350.0	0.0	1.0	stop_stim
196452.989879	1828.010121	n/a	542	89	2750	1828.010121	stim	stop-signal	100	263104	0.0-7.46-1.46	beast_fmri_test	310	260662,/,261342,/,262022,/,262702,/,263382,/,264062,/,264743,/	t,t,t,t,t,t,t	<img class = center src='/static/experiments/beast_fmri_test/images/P.png'></img>	71,89	2750.0	test	<img class = center src='/static/experiments/beast_fmri_test/images/redP.png'></img>	stop	2400.0	2.0	46.0	stop	non-target	P	71,Green Button	89,Yellow Button	550.0	350.0	2200.0	2400.0	0.0	350.0	0.0	1.0	ITI
215114	15000.0	n/a	-1	-1	15000	0.0	practice-no-stop-feedback	poldrack-single-stim	101	279937	0.0-8.0	beast_fmri_test	310	265422,/,266102,/,266782,/,267462,/,268142,/,268823,/,269503,/,270183,/,270863,/,271543,/,272223,/,272903,/,273583,/,274262,/,274943,/,275623,/,276303,/,276982,/,277663,/,278342,/,279022,/,279703,/	t,t,t,t,t,t,t,t,t,t,t,t,t,t,t,t,t,t,t,t,t,t	"<div class = ""centerbox""><p class = ""center-block-text"">Your delay is 3 trials.</p><p class = center-block-text>Please wait for the scanner to start the block</p></div>"	77	15000.0	n/a	n/a	n/a	n/a	n/a	n/a	n/a	n/a	n/a	n/a	n/a	n/a	n/a	n/a	n/a	n/a	n/a	n/a	n/a	practice-no-stop-feedback
215616	500.0	n/a	-1	-1	500	0.0	fixation	poldrack-single-stim	102	280439	0.0-9.0-0.0	beast_fmri_test	310	280383,/	t	<div class = centerbox><div class = fixation>+</div></div>	none	500.0	test	n/a	n/a	n/a	n/a	n/a	n/a	n/a	n/a	n/a	n/a	n/a	n/a	n/a	n/a	n/a	n/a	n/a	n/a	fixation
212257.82105099998	2750.0	n/a	905	89	2750	3360.178949	stim	stop-signal	103	283191	0.0-9.0-1.0	beast_fmri_test	310	281062,/,281742,/,282422,/,283103,/,283783,/,284462,/,285143,/,285822,/,286503,/	t,t,t,t,t,t,t,t,t	<img class = center src='/static/experiments/beast_fmri_test/images/B.png'></img>	71,89	2750.0	test	<img class = center src='/static/experiments/beast_fmri_test/images/redB.png'></img>	go	-1.0	3.0	0.0	go	temp-non-target	B	71,Green Button	89,Yellow Button	550.0	300.0	2200.0	2400.0	0.0	n/a	n/a	n/a	go_stim
215007.82105099998	3360.178949	n/a	905	89	2750	3360.178949	stim	stop-signal	103	283191	0.0-9.0-1.0	beast_fmri_test	310	281062,/,281742,/,282422,/,283103,/,283783,/,284462,/,285143,/,285822,/,286503,/	t,t,t,t,t,t,t,t,t	<img class = center src='/static/experiments/beast_fmri_test/images/B.png'></img>	71,89	2750.0	test	<img class = center src='/static/experiments/beast_fmri_test/images/redB.png'></img>	go	-1.0	3.0	0.0	go	temp-non-target	B	71,Green Button	89,Yellow Button	550.0	300.0	2200.0	2400.0	0.0	n/a	n/a	n/a	ITI
222236	500.0	n/a	-1	-1	500	0.0	fixation	poldrack-single-stim	104	287059	0.0-9.1-0.1	beast_fmri_test	310	n/a	n/a	<div class = centerbox><div class = fixation>+</div></div>	none	500.0	test	n/a	n/a	n/a	n/a	n/a	n/a	n/a	n/a	n/a	n/a	n/a	n/a	n/a	n/a	n/a	n/a	n/a	n/a	fixation
219895.12722099997	2750.0	n/a	458	89	2750	2341.872779	stim	stop-signal	105	289810	0.0-9.1-1.1	beast_fmri_test	310	287182,/,287863,/,288542,/,289222,/,289902,/,290582,/,291262,/,291942,/	t,t,t,t,t,t,t,t	<img class = center src='/static/experiments/beast_fmri_test/images/B.png'></img>	71,89	2750.0	test	<img class = center src='/static/experiments/beast_fmri_test/images/redB.png'></img>	go	-1.0	3.0	1.0	go	temp-non-target	B	71,Green Button	89,Yellow Button	550.0	300.0	2200.0	2400.0	0.0	n/a	n/a	n/a	go_stim
222645.12722099997	2341.872779	n/a	458	89	2750	2341.872779	stim	stop-signal	105	289810	0.0-9.1-1.1	beast_fmri_test	310	287182,/,287863,/,288542,/,289222,/,289902,/,290582,/,291262,/,291942,/	t,t,t,t,t,t,t,t	<img class = center src='/static/experiments/beast_fmri_test/images/B.png'></img>	71,89	2750.0	test	<img class = center src='/static/experiments/beast_fmri_test/images/redB.png'></img>	go	-1.0	3.0	1.0	go	temp-non-target	B	71,Green Button	89,Yellow Button	550.0	300.0	2200.0	2400.0	0.0	n/a	n/a	n/a	ITI
227835	500.0	n/a	-1	-1	500	0.0	fixation	poldrack-single-stim	106	292658	0.0-9.2-0.2	beast_fmri_test	310	292623,/	t	<div class = centerbox><div class = fixation>+</div></div>	none	500.0	test	n/a	n/a	n/a	n/a	n/a	n/a	n/a	n/a	n/a	n/a	n/a	n/a	n/a	n/a	n/a	n/a	n/a	n/a	fixation
225942.84927599999	2750.0	n/a	466	89	2750	1894.150724	stim	stop-signal	107	295410	0.0-9.2-1.2	beast_fmri_test	310	293302,/,293982,/,294662,/,295343,/,296022,/,296702,/	t,t,t,t,t,t	<img class = center src='/static/experiments/beast_fmri_test/images/B.png'></img>	71,89	2750.0	test	<img class = center src='/static/experiments/beast_fmri_test/images/redB.png'></img>	go	-1.0	3.0	2.0	go	temp-non-target	B	71,Green Button	89,Yellow Button	550.0	300.0	2200.0	2400.0	0.0	n/a	n/a	n/a	go_stim
228692.84927599999	1894.150724	n/a	466	89	2750	1894.150724	stim	stop-signal	107	295410	0.0-9.2-1.2	beast_fmri_test	310	293302,/,293982,/,294662,/,295343,/,296022,/,296702,/	t,t,t,t,t,t	<img class = center src='/static/experiments/beast_fmri_test/images/B.png'></img>	71,89	2750.0	test	<img class = center src='/static/experiments/beast_fmri_test/images/redB.png'></img>	go	-1.0	3.0	2.0	go	temp-non-target	B	71,Green Button	89,Yellow Button	550.0	300.0	2200.0	2400.0	0.0	n/a	n/a	n/a	ITI
232989	500.0	n/a	-1	-1	500	0.0	fixation	poldrack-single-stim	108	297812	0.0-9.3-0.3	beast_fmri_test	310	297382,/	t	<div class = centerbox><div class = fixation>+</div></div>	none	500.0	test	n/a	n/a	n/a	n/a	n/a	n/a	n/a	n/a	n/a	n/a	n/a	n/a	n/a	n/a	n/a	n/a	n/a	n/a	fixation
232214.51520259999	2750.0	n/a	638	89	2750	776.4847974	stim	stop-signal	109	300564	0.0-9.3-1.3	beast_fmri_test	310	298062,/,298742,/,299422,/,300102,/,300782,/	t,t,t,t,t	<img class = center src='/static/experiments/beast_fmri_test/images/P.png'></img>	71,89	2750.0	test	<img class = center src='/static/experiments/beast_fmri_test/images/redP.png'></img>	go	2450.0	3.0	3.0	go	non-target	P	71,Green Button	89,Yellow Button	550.0	300.0	2200.0	2450.0	1.0	300.0	n/a	1.0	go_stim
234964.51520259999	776.4847974	n/a	638	89	2750	776.4847974	stim	stop-signal	109	300564	0.0-9.3-1.3	beast_fmri_test	310	298062,/,298742,/,299422,/,300102,/,300782,/	t,t,t,t,t	<img class = center src='/static/experiments/beast_fmri_test/images/P.png'></img>	71,89	2750.0	test	<img class = center src='/static/experiments/beast_fmri_test/images/redP.png'></img>	go	2450.0	3.0	3.0	go	non-target	P	71,Green Button	89,Yellow Button	550.0	300.0	2200.0	2450.0	1.0	300.0	n/a	1.0	ITI
237026	500.0	n/a	-1	-1	500	0.0	fixation	poldrack-single-stim	110	301849	0.0-9.4-0.4	beast_fmri_test	310	301462,/	t	<div class = centerbox><div class = fixation>+</div></div>	none	500.0	test	n/a	n/a	n/a	n/a	n/a	n/a	n/a	n/a	n/a	n/a	n/a	n/a	n/a	n/a	n/a	n/a	n/a	n/a	fixation
235524.088239	2750.0	n/a	589	89	2750	1503.911761	stim	stop-signal	111	304601	0.0-9.4-1.4	beast_fmri_test	310	302142,/,302823,/,303503,/,304182,/,304863,/,305544,/	t,t,t,t,t,t	<img class = center src='/static/experiments/beast_fmri_test/images/D.png'></img>	71,89	2750.0	test	<img class = center src='/static/experiments/beast_fmri_test/images/redD.png'></img>	go	2450.0	3.0	4.0	go	non-target	D	71,Green Button	89,Yellow Button	550.0	300.0	2200.0	2450.0	1.0	300.0	n/a	1.0	go_stim
238274.088239	1503.911761	n/a	589	89	2750	1503.911761	stim	stop-signal	111	304601	0.0-9.4-1.4	beast_fmri_test	310	302142,/,302823,/,303503,/,304182,/,304863,/,305544,/	t,t,t,t,t,t	<img class = center src='/static/experiments/beast_fmri_test/images/D.png'></img>	71,89	2750.0	test	<img class = center src='/static/experiments/beast_fmri_test/images/redD.png'></img>	go	2450.0	3.0	4.0	go	non-target	D	71,Green Button	89,Yellow Button	550.0	300.0	2200.0	2450.0	1.0	300.0	n/a	1.0	ITI
241787	500.0	n/a	-1	-1	500	0.0	fixation	poldrack-single-stim	112	306610	0.0-9.5-0.5	beast_fmri_test	310	306223,/	t	<div class = centerbox><div class = fixation>+</div></div>	none	500.0	test	n/a	n/a	n/a	n/a	n/a	n/a	n/a	n/a	n/a	n/a	n/a	n/a	n/a	n/a	n/a	n/a	n/a	n/a	fixation
236788.0	2750.0	n/a	739	89	2750	5000.0	stim	stop-signal	113	309361	0.0-9.5-1.5	beast_fmri_test	310	306903,/,307583,/,308263,/,308942,/,309622,/,310303,/,310982,/,311662,/,312342,/,313022,/,313702,/	t,t,t,t,t,t,t,t,t,t,t	<img class = center src='/static/experiments/beast_fmri_test/images/V.png'></img>	71,89	2750.0	test	<img class = center src='/static/experiments/beast_fmri_test/images/redV.png'></img>	go	2450.0	3.0	5.0	go	non-target	V	71,Green Button	89,Yellow Button	550.0	300.0	2200.0	2450.0	1.0	300.0	n/a	1.0	go_stim
239538.0	5000.0	n/a	739	89	2750	5000.0	stim	stop-signal	113	309361	0.0-9.5-1.5	beast_fmri_test	310	306903,/,307583,/,308263,/,308942,/,309622,/,310303,/,310982,/,311662,/,312342,/,313022,/,313702,/	t,t,t,t,t,t,t,t,t,t,t	<img class = center src='/static/experiments/beast_fmri_test/images/V.png'></img>	71,89	2750.0	test	<img class = center src='/static/experiments/beast_fmri_test/images/redV.png'></img>	go	2450.0	3.0	5.0	go	non-target	V	71,Green Button	89,Yellow Button	550.0	300.0	2200.0	2450.0	1.0	300.0	n/a	1.0	ITI
250045	500.0	n/a	-1	-1	500	0.0	fixation	poldrack-single-stim	114	314868	0.0-9.6-0.6	beast_fmri_test	310	314382,/	t	<div class = centerbox><div class = fixation>+</div></div>	none	500.0	test	n/a	n/a	n/a	n/a	n/a	n/a	n/a	n/a	n/a	n/a	n/a	n/a	n/a	n/a	n/a	n/a	n/a	n/a	fixation
249935.4530942	2750.0	n/a	949	89	2750	111.5469058	stim	stop-signal	115	317620	0.0-9.6-1.6	beast_fmri_test	310	315062,/,315744,/,316422,/,317102,/	t,t,t,t	<img class = center src='/static/experiments/beast_fmri_test/images/V.png'></img>	71,89	2750.0	test	<img class = center src='/static/experiments/beast_fmri_test/images/redV.png'></img>	go	2450.0	3.0	6.0	go	non-target	V	71,Green Button	89,Yellow Button	550.0	300.0	2200.0	2450.0	1.0	300.0	n/a	1.0	go_stim
252685.4530942	111.5469058	n/a	949	89	2750	111.5469058	stim	stop-signal	115	317620	0.0-9.6-1.6	beast_fmri_test	310	315062,/,315744,/,316422,/,317102,/	t,t,t,t	<img class = center src='/static/experiments/beast_fmri_test/images/V.png'></img>	71,89	2750.0	test	<img class = center src='/static/experiments/beast_fmri_test/images/redV.png'></img>	go	2450.0	3.0	6.0	go	non-target	V	71,Green Button	89,Yellow Button	550.0	300.0	2200.0	2450.0	1.0	300.0	n/a	1.0	ITI
253416	500.0	n/a	-1	-1	500	0.0	fixation	poldrack-single-stim	116	318239	0.0-9.7-0.7	beast_fmri_test	310	317782,/	t	<div class = centerbox><div class = fixation>+</div></div>	none	500.0	test	n/a	n/a	n/a	n/a	n/a	n/a	n/a	n/a	n/a	n/a	n/a	n/a	n/a	n/a	n/a	n/a	n/a	n/a	fixation
252742.65490720002	2750.0	n/a	1284	89	2750	674.3450928	stim	stop-signal	117	320990	0.0-9.7-1.7	beast_fmri_test	310	318462,/,319142,/,319822,/,320502,/,321182,/	t,t,t,t,t	<img class = center src='/static/experiments/beast_fmri_test/images/V.png'></img>	71,89	2750.0	test	<img class = center src='/static/experiments/beast_fmri_test/images/redV.png'></img>	go	2450.0	3.0	7.0	go	non-target	V	71,Green Button	89,Yellow Button	550.0	300.0	2200.0	2450.0	1.0	300.0	n/a	1.0	go_stim
255492.65490720002	674.3450928	n/a	1284	89	2750	674.3450928	stim	stop-signal	117	320990	0.0-9.7-1.7	beast_fmri_test	310	318462,/,319142,/,319822,/,320502,/,321182,/	t,t,t,t,t	<img class = center src='/static/experiments/beast_fmri_test/images/V.png'></img>	71,89	2750.0	test	<img class = center src='/static/experiments/beast_fmri_test/images/redV.png'></img>	go	2450.0	3.0	7.0	go	non-target	V	71,Green Button	89,Yellow Button	550.0	300.0	2200.0	2450.0	1.0	300.0	n/a	1.0	ITI
257348	500.0	n/a	-1	-1	500	0.0	fixation	poldrack-single-stim	118	322171	0.0-9.8-0.8	beast_fmri_test	310	321862,/	t	<div class = centerbox><div class = fixation>+</div></div>	none	500.0	test	n/a	n/a	n/a	n/a	n/a	n/a	n/a	n/a	n/a	n/a	n/a	n/a	n/a	n/a	n/a	n/a	n/a	n/a	fixation
257070.318768	2750.0	n/a	1182	89	2750	279.681232	stim	stop-signal	119	324923	0.0-9.8-1.8	beast_fmri_test	310	322543,/,323222,/,323902,/,324582,/	t,t,t,t	<img class = center src='/static/experiments/beast_fmri_test/images/B.png'></img>	71,89	2750.0	test	<img class = center src='/static/experiments/beast_fmri_test/images/redB.png'></img>	go	2450.0	3.0	8.0	go	non-target	B	71,Green Button	89,Yellow Button	550.0	300.0	2200.0	2450.0	1.0	300.0	n/a	1.0	go_stim
259820.318768	279.681232	n/a	1182	89	2750	279.681232	stim	stop-signal	119	324923	0.0-9.8-1.8	beast_fmri_test	310	322543,/,323222,/,323902,/,324582,/	t,t,t,t	<img class = center src='/static/experiments/beast_fmri_test/images/B.png'></img>	71,89	2750.0	test	<img class = center src='/static/experiments/beast_fmri_test/images/redB.png'></img>	go	2450.0	3.0	8.0	go	non-target	B	71,Green Button	89,Yellow Button	550.0	300.0	2200.0	2450.0	1.0	300.0	n/a	1.0	ITI
260889	500.0	n/a	-1	-1	500	0.0	fixation	poldrack-single-stim	120	325712	0.0-9.9-0.9	beast_fmri_test	310	325262,/	t	<div class = centerbox><div class = fixation>+</div></div>	none	500.0	test	n/a	n/a	n/a	n/a	n/a	n/a	n/a	n/a	n/a	n/a	n/a	n/a	n/a	n/a	n/a	n/a	n/a	n/a	fixation
259707.81195499998	2750.0	n/a	1754	89	2750	1182.188045	stim	stop-signal	121	328463	0.0-9.9-1.9	beast_fmri_test	310	325944,/,326622,/,327302,/,327982,/,328662,/,329342,/	t,t,t,t,t,t	<img class = center src='/static/experiments/beast_fmri_test/images/P.png'></img>	71,89	2750.0	test	<img class = center src='/static/experiments/beast_fmri_test/images/redP.png'></img>	go	2450.0	3.0	9.0	go	non-target	P	71,Green Button	89,Yellow Button	550.0	300.0	2200.0	2450.0	1.0	300.0	n/a	1.0	go_stim
262457.81195499998	1182.188045	n/a	1754	89	2750	1182.188045	stim	stop-signal	121	328463	0.0-9.9-1.9	beast_fmri_test	310	325944,/,326622,/,327302,/,327982,/,328662,/,329342,/	t,t,t,t,t,t	<img class = center src='/static/experiments/beast_fmri_test/images/P.png'></img>	71,89	2750.0	test	<img class = center src='/static/experiments/beast_fmri_test/images/redP.png'></img>	go	2450.0	3.0	9.0	go	non-target	P	71,Green Button	89,Yellow Button	550.0	300.0	2200.0	2450.0	1.0	300.0	n/a	1.0	ITI
265330	500.0	n/a	-1	-1	500	0.0	fixation	poldrack-single-stim	122	330153	0.0-9.10-0.10	beast_fmri_test	310	330022,/	t	<div class = centerbox><div class = fixation>+</div></div>	none	500.0	test	n/a	n/a	n/a	n/a	n/a	n/a	n/a	n/a	n/a	n/a	n/a	n/a	n/a	n/a	n/a	n/a	n/a	n/a	fixation
265031.35922879999	2750.0	n/a	1196	89	2750	299.6407712	stim	stop-signal	123	332904	0.0-9.10-1.10	beast_fmri_test	310	330702,/,331382,/,332062,/,332742,/	t,t,t,t	<img class = center src='/static/experiments/beast_fmri_test/images/T.png'></img>	71,89	2750.0	test	<img class = center src='/static/experiments/beast_fmri_test/images/redT.png'></img>	go	2450.0	3.0	10.0	go	non-target	T	71,Green Button	89,Yellow Button	550.0	300.0	2200.0	2450.0	1.0	300.0	n/a	1.0	go_stim
267781.35922879999	299.6407712	n/a	1196	89	2750	299.6407712	stim	stop-signal	123	332904	0.0-9.10-1.10	beast_fmri_test	310	330702,/,331382,/,332062,/,332742,/	t,t,t,t	<img class = center src='/static/experiments/beast_fmri_test/images/T.png'></img>	71,89	2750.0	test	<img class = center src='/static/experiments/beast_fmri_test/images/redT.png'></img>	go	2450.0	3.0	10.0	go	non-target	T	71,Green Button	89,Yellow Button	550.0	300.0	2200.0	2450.0	1.0	300.0	n/a	1.0	ITI
268887	500.0	n/a	-1	-1	500	0.0	fixation	poldrack-single-stim	124	333710	0.0-9.11-0.11	beast_fmri_test	310	333422,/	t	<div class = centerbox><div class = fixation>+</div></div>	none	500.0	test	n/a	n/a	n/a	n/a	n/a	n/a	n/a	n/a	n/a	n/a	n/a	n/a	n/a	n/a	n/a	n/a	n/a	n/a	fixation
268750.55548759998	300.0	n/a	-1	-1	2750	138.4445124	stim	stop-signal	125	336462	0.0-9.11-1.11	beast_fmri_test	310	334103,/,334782,/,335463,/,336143,/	t,t,t,t	<img class = center src='/static/experiments/beast_fmri_test/images/T.png'></img>	71,89	2750.0	test	<img class = center src='/static/experiments/beast_fmri_test/images/redT.png'></img>	stop	2450.0	3.0	11.0	stop	non-target	T	71,Green Button	89,Yellow Button	550.0	300.0	2200.0	2450.0	0.0	300.0	1.0	0.0	go_stim
271200.55548759998	2450.0	n/a	-1	-1	2750	138.4445124	stim	stop-signal	125	336462	0.0-9.11-1.11	beast_fmri_test	310	334103,/,334782,/,335463,/,336143,/	t,t,t,t	<img class = center src='/static/experiments/beast_fmri_test/images/T.png'></img>	71,89	2750.0	test	<img class = center src='/static/experiments/beast_fmri_test/images/redT.png'></img>	stop	2450.0	3.0	11.0	stop	non-target	T	71,Green Button	89,Yellow Button	550.0	300.0	2200.0	2450.0	0.0	300.0	1.0	0.0	stop_stim
271500.55548759998	138.4445124	n/a	-1	-1	2750	138.4445124	stim	stop-signal	125	336462	0.0-9.11-1.11	beast_fmri_test	310	334103,/,334782,/,335463,/,336143,/	t,t,t,t	<img class = center src='/static/experiments/beast_fmri_test/images/T.png'></img>	71,89	2750.0	test	<img class = center src='/static/experiments/beast_fmri_test/images/redT.png'></img>	stop	2450.0	3.0	11.0	stop	non-target	T	71,Green Button	89,Yellow Button	550.0	300.0	2200.0	2450.0	0.0	300.0	1.0	0.0	ITI
272284	500.0	n/a	-1	-1	500	0.0	fixation	poldrack-single-stim	126	337107	0.0-9.12-0.12	beast_fmri_test	310	336823,/	t	<div class = centerbox><div class = fixation>+</div></div>	none	500.0	test	n/a	n/a	n/a	n/a	n/a	n/a	n/a	n/a	n/a	n/a	n/a	n/a	n/a	n/a	n/a	n/a	n/a	n/a	fixation
270520.421799	550.0	n/a	-1	-1	2750	1765.578201	stim	stop-signal	127	339859	0.0-9.12-1.12	beast_fmri_test	310	337503,/,338182,/,338862,/,339542,/,340222,/,340902,/,341583,/	t,t,t,t,t,t,t	<img class = center src='/static/experiments/beast_fmri_test/images/P.png'></img>	71,89	2750.0	test	<img class = center src='/static/experiments/beast_fmri_test/images/redP.png'></img>	stop	2200.0	3.0	12.0	stop	target	P	71,Green Button	89,Yellow Button	550.0	350.0	2200.0	2450.0	0.0	550.0	1.0	0.0	go_stim
272720.421799	2200.0	n/a	-1	-1	2750	1765.578201	stim	stop-signal	127	339859	0.0-9.12-1.12	beast_fmri_test	310	337503,/,338182,/,338862,/,339542,/,340222,/,340902,/,341583,/	t,t,t,t,t,t,t	<img class = center src='/static/experiments/beast_fmri_test/images/P.png'></img>	71,89	2750.0	test	<img class = center src='/static/experiments/beast_fmri_test/images/redP.png'></img>	stop	2200.0	3.0	12.0	stop	target	P	71,Green Button	89,Yellow Button	550.0	350.0	2200.0	2450.0	0.0	550.0	1.0	0.0	stop_stim
273270.421799	1765.578201	n/a	-1	-1	2750	1765.578201	stim	stop-signal	127	339859	0.0-9.12-1.12	beast_fmri_test	310	337503,/,338182,/,338862,/,339542,/,340222,/,340902,/,341583,/	t,t,t,t,t,t,t	<img class = center src='/static/experiments/beast_fmri_test/images/P.png'></img>	71,89	2750.0	test	<img class = center src='/static/experiments/beast_fmri_test/images/redP.png'></img>	stop	2200.0	3.0	12.0	stop	target	P	71,Green Button	89,Yellow Button	550.0	350.0	2200.0	2450.0	0.0	550.0	1.0	0.0	ITI
277306	500.0	n/a	-1	-1	500	0.0	fixation	poldrack-single-stim	128	342129	0.0-9.13-0.13	beast_fmri_test	310	n/a	n/a	<div class = centerbox><div class = fixation>+</div></div>	none	500.0	test	n/a	n/a	n/a	n/a	n/a	n/a	n/a	n/a	n/a	n/a	n/a	n/a	n/a	n/a	n/a	n/a	n/a	n/a	fixation
276543.69294149999	350.0	n/a	-1	-1	2750	763.3070585	stim	stop-signal	129	344880	0.0-9.13-1.13	beast_fmri_test	310	342262,/,342942,/,343622,/,344302,/,344982,/	t,t,t,t,t	<img class = center src='/static/experiments/beast_fmri_test/images/P.png'></img>	71,89	2750.0	test	<img class = center src='/static/experiments/beast_fmri_test/images/redP.png'></img>	stop	2400.0	3.0	13.0	stop	non-target	P	71,Green Button	89,Yellow Button	600.0	350.0	2200.0	2400.0	0.0	350.0	1.0	0.0	go_stim
278943.69294149999	2400.0	n/a	-1	-1	2750	763.3070585	stim	stop-signal	129	344880	0.0-9.13-1.13	beast_fmri_test	310	342262,/,342942,/,343622,/,344302,/,344982,/	t,t,t,t,t	<img class = center src='/static/experiments/beast_fmri_test/images/P.png'></img>	71,89	2750.0	test	<img class = center src='/static/experiments/beast_fmri_test/images/redP.png'></img>	stop	2400.0	3.0	13.0	stop	non-target	P	71,Green Button	89,Yellow Button	600.0	350.0	2200.0	2400.0	0.0	350.0	1.0	0.0	stop_stim
279293.69294149999	763.3070585	n/a	-1	-1	2750	763.3070585	stim	stop-signal	129	344880	0.0-9.13-1.13	beast_fmri_test	310	342262,/,342942,/,343622,/,344302,/,344982,/	t,t,t,t,t	<img class = center src='/static/experiments/beast_fmri_test/images/P.png'></img>	71,89	2750.0	test	<img class = center src='/static/experiments/beast_fmri_test/images/redP.png'></img>	stop	2400.0	3.0	13.0	stop	non-target	P	71,Green Button	89,Yellow Button	600.0	350.0	2200.0	2400.0	0.0	350.0	1.0	0.0	ITI
281326	500.0	n/a	-1	-1	500	0.0	fixation	poldrack-single-stim	130	346149	0.0-9.14-0.14	beast_fmri_test	310	345662,/	t	<div class = centerbox><div class = fixation>+</div></div>	none	500.0	test	n/a	n/a	n/a	n/a	n/a	n/a	n/a	n/a	n/a	n/a	n/a	n/a	n/a	n/a	n/a	n/a	n/a	n/a	fixation
281321.54281211703	400.0	n/a	-1	-1	2750	7.457187883	stim	stop-signal	131	348902	0.0-9.14-1.14	beast_fmri_test	310	346343,/,347022,/,347702,/,348382,/	t,t,t,t	<img class = center src='/static/experiments/beast_fmri_test/images/V.png'></img>	71,89	2750.0	test	<img class = center src='/static/experiments/beast_fmri_test/images/redV.png'></img>	stop	2350.0	3.0	14.0	stop	non-target	V	71,Green Button	89,Yellow Button	600.0	400.0	2200.0	2350.0	0.0	400.0	1.0	0.0	go_stim
283671.54281211703	2350.0	n/a	-1	-1	2750	7.457187883	stim	stop-signal	131	348902	0.0-9.14-1.14	beast_fmri_test	310	346343,/,347022,/,347702,/,348382,/	t,t,t,t	<img class = center src='/static/experiments/beast_fmri_test/images/V.png'></img>	71,89	2750.0	test	<img class = center src='/static/experiments/beast_fmri_test/images/redV.png'></img>	stop	2350.0	3.0	14.0	stop	non-target	V	71,Green Button	89,Yellow Button	600.0	400.0	2200.0	2350.0	0.0	400.0	1.0	0.0	stop_stim
284071.54281211703	7.457187883	n/a	-1	-1	2750	7.457187883	stim	stop-signal	131	348902	0.0-9.14-1.14	beast_fmri_test	310	346343,/,347022,/,347702,/,348382,/	t,t,t,t	<img class = center src='/static/experiments/beast_fmri_test/images/V.png'></img>	71,89	2750.0	test	<img class = center src='/static/experiments/beast_fmri_test/images/redV.png'></img>	stop	2350.0	3.0	14.0	stop	non-target	V	71,Green Button	89,Yellow Button	600.0	400.0	2200.0	2350.0	0.0	400.0	1.0	0.0	ITI
284595	500.0	n/a	-1	-1	500	0.0	fixation	poldrack-single-stim	132	349418	0.0-9.15-0.15	beast_fmri_test	310	349062,/	t	<div class = centerbox><div class = fixation>+</div></div>	none	500.0	test	n/a	n/a	n/a	n/a	n/a	n/a	n/a	n/a	n/a	n/a	n/a	n/a	n/a	n/a	n/a	n/a	n/a	n/a	fixation
284498.63929114997	2750.0	n/a	1212	71	2750	98.36070885	stim	stop-signal	133	352170	0.0-9.15-1.15	beast_fmri_test	310	349743,/,350422,/,351102,/,351782,/	t,t,t,t	<img class = center src='/static/experiments/beast_fmri_test/images/P.png'></img>	71,89	2750.0	test	<img class = center src='/static/experiments/beast_fmri_test/images/redP.png'></img>	go	2150.0	3.0	15.0	go	target	P	71,Green Button	89,Yellow Button	600.0	450.0	2150.0	2350.0	1.0	600.0	n/a	1.0	go_stim
287248.63929114997	98.36070885	n/a	1212	71	2750	98.36070885	stim	stop-signal	133	352170	0.0-9.15-1.15	beast_fmri_test	310	349743,/,350422,/,351102,/,351782,/	t,t,t,t	<img class = center src='/static/experiments/beast_fmri_test/images/P.png'></img>	71,89	2750.0	test	<img class = center src='/static/experiments/beast_fmri_test/images/redP.png'></img>	go	2150.0	3.0	15.0	go	target	P	71,Green Button	89,Yellow Button	600.0	450.0	2150.0	2350.0	1.0	600.0	n/a	1.0	ITI
287953	500.0	n/a	-1	-1	500	0.0	fixation	poldrack-single-stim	134	352776	0.0-9.16-0.16	beast_fmri_test	310	352462,/	t	<div class = centerbox><div class = fixation>+</div></div>	none	500.0	test	n/a	n/a	n/a	n/a	n/a	n/a	n/a	n/a	n/a	n/a	n/a	n/a	n/a	n/a	n/a	n/a	n/a	n/a	fixation
287860.80094749999	2750.0	n/a	1460	89	2750	94.1990525	stim	stop-signal	135	355528	0.0-9.16-1.16	beast_fmri_test	310	353142,/,353822,/,354502,/,355182,/	t,t,t,t	<img class = center src='/static/experiments/beast_fmri_test/images/T.png'></img>	71,89	2750.0	test	<img class = center src='/static/experiments/beast_fmri_test/images/redT.png'></img>	go	2300.0	3.0	16.0	go	non-target	T	71,Green Button	89,Yellow Button	600.0	450.0	2150.0	2300.0	1.0	450.0	n/a	1.0	go_stim
290610.80094749999	94.1990525	n/a	1460	89	2750	94.1990525	stim	stop-signal	135	355528	0.0-9.16-1.16	beast_fmri_test	310	353142,/,353822,/,354502,/,355182,/	t,t,t,t	<img class = center src='/static/experiments/beast_fmri_test/images/T.png'></img>	71,89	2750.0	test	<img class = center src='/static/experiments/beast_fmri_test/images/redT.png'></img>	go	2300.0	3.0	16.0	go	non-target	T	71,Green Button	89,Yellow Button	600.0	450.0	2150.0	2300.0	1.0	450.0	n/a	1.0	ITI
291306	500.0	n/a	-1	-1	500	0.0	fixation	poldrack-single-stim	136	356129	0.0-9.17-0.17	beast_fmri_test	310	355862,/	t	<div class = centerbox><div class = fixation>+</div></div>	none	500.0	test	n/a	n/a	n/a	n/a	n/a	n/a	n/a	n/a	n/a	n/a	n/a	n/a	n/a	n/a	n/a	n/a	n/a	n/a	fixation
291225.61944852001	450.0	n/a	-1	-1	2750	83.38055148	stim	stop-signal	137	358882	0.0-9.17-1.17	beast_fmri_test	310	356543,/,357222,/,357902,/,358583,/	t,t,t,t	<img class = center src='/static/experiments/beast_fmri_test/images/B.png'></img>	71,89	2750.0	test	<img class = center src='/static/experiments/beast_fmri_test/images/redB.png'></img>	stop	2300.0	3.0	17.0	stop	non-target	B	71,Green Button	89,Yellow Button	600.0	450.0	2150.0	2300.0	0.0	450.0	1.0	0.0	go_stim
293525.61944852001	2300.0	n/a	-1	-1	2750	83.38055148	stim	stop-signal	137	358882	0.0-9.17-1.17	beast_fmri_test	310	356543,/,357222,/,357902,/,358583,/	t,t,t,t	<img class = center src='/static/experiments/beast_fmri_test/images/B.png'></img>	71,89	2750.0	test	<img class = center src='/static/experiments/beast_fmri_test/images/redB.png'></img>	stop	2300.0	3.0	17.0	stop	non-target	B	71,Green Button	89,Yellow Button	600.0	450.0	2150.0	2300.0	0.0	450.0	1.0	0.0	stop_stim
293975.61944852001	83.38055148	n/a	-1	-1	2750	83.38055148	stim	stop-signal	137	358882	0.0-9.17-1.17	beast_fmri_test	310	356543,/,357222,/,357902,/,358583,/	t,t,t,t	<img class = center src='/static/experiments/beast_fmri_test/images/B.png'></img>	71,89	2750.0	test	<img class = center src='/static/experiments/beast_fmri_test/images/redB.png'></img>	stop	2300.0	3.0	17.0	stop	non-target	B	71,Green Button	89,Yellow Button	600.0	450.0	2150.0	2300.0	0.0	450.0	1.0	0.0	ITI
294648	500.0	n/a	-1	-1	500	0.0	fixation	poldrack-single-stim	138	359471	0.0-9.18-0.18	beast_fmri_test	310	359262,/	t	<div class = centerbox><div class = fixation>+</div></div>	none	500.0	test	n/a	n/a	n/a	n/a	n/a	n/a	n/a	n/a	n/a	n/a	n/a	n/a	n/a	n/a	n/a	n/a	n/a	n/a	fixation
294015.64547230001	2750.0	n/a	1059	71	2750	634.3545277	stim	stop-signal	139	362223	0.0-9.18-1.18	beast_fmri_test	310	359942,/,360622,/,361302,/,361982,/,362662,/	t,t,t,t,t	<img class = center src='/static/experiments/beast_fmri_test/images/P.png'></img>	71,89	2750.0	test	<img class = center src='/static/experiments/beast_fmri_test/images/redP.png'></img>	go	2150.0	3.0	18.0	go	target	P	71,Green Button	89,Yellow Button	600.0	500.0	2150.0	2300.0	1.0	600.0	n/a	1.0	go_stim
296765.64547230001	634.3545277	n/a	1059	71	2750	634.3545277	stim	stop-signal	139	362223	0.0-9.18-1.18	beast_fmri_test	310	359942,/,360622,/,361302,/,361982,/,362662,/	t,t,t,t,t	<img class = center src='/static/experiments/beast_fmri_test/images/P.png'></img>	71,89	2750.0	test	<img class = center src='/static/experiments/beast_fmri_test/images/redP.png'></img>	go	2150.0	3.0	18.0	go	target	P	71,Green Button	89,Yellow Button	600.0	500.0	2150.0	2300.0	1.0	600.0	n/a	1.0	ITI
298543	500.0	n/a	-1	-1	500	0.0	fixation	poldrack-single-stim	140	363366	0.0-9.19-0.19	beast_fmri_test	310	363342,/	t	<div class = centerbox><div class = fixation>+</div></div>	none	500.0	test	n/a	n/a	n/a	n/a	n/a	n/a	n/a	n/a	n/a	n/a	n/a	n/a	n/a	n/a	n/a	n/a	n/a	n/a	fixation
297855.32131889998	500.0	n/a	-1	-1	2750	688.6786811	stim	stop-signal	141	366117	0.0-9.19-1.19	beast_fmri_test	310	364022,/,364702,/,365382,/,366062,/,366742,/	t,t,t,t,t	<img class = center src='/static/experiments/beast_fmri_test/images/V.png'></img>	71,89	2750.0	test	<img class = center src='/static/experiments/beast_fmri_test/images/redV.png'></img>	stop	2250.0	3.0	19.0	stop	non-target	V	71,Green Button	89,Yellow Button	600.0	500.0	2150.0	2250.0	0.0	500.0	1.0	0.0	go_stim
300105.32131889998	2250.0	n/a	-1	-1	2750	688.6786811	stim	stop-signal	141	366117	0.0-9.19-1.19	beast_fmri_test	310	364022,/,364702,/,365382,/,366062,/,366742,/	t,t,t,t,t	<img class = center src='/static/experiments/beast_fmri_test/images/V.png'></img>	71,89	2750.0	test	<img class = center src='/static/experiments/beast_fmri_test/images/redV.png'></img>	stop	2250.0	3.0	19.0	stop	non-target	V	71,Green Button	89,Yellow Button	600.0	500.0	2150.0	2250.0	0.0	500.0	1.0	0.0	stop_stim
300605.32131889998	688.6786811	n/a	-1	-1	2750	688.6786811	stim	stop-signal	141	366117	0.0-9.19-1.19	beast_fmri_test	310	364022,/,364702,/,365382,/,366062,/,366742,/	t,t,t,t,t	<img class = center src='/static/experiments/beast_fmri_test/images/V.png'></img>	71,89	2750.0	test	<img class = center src='/static/experiments/beast_fmri_test/images/redV.png'></img>	stop	2250.0	3.0	19.0	stop	non-target	V	71,Green Button	89,Yellow Button	600.0	500.0	2150.0	2250.0	0.0	500.0	1.0	0.0	ITI
302492	500.0	n/a	-1	-1	500	0.0	fixation	poldrack-single-stim	142	367315	0.0-9.20-0.20	beast_fmri_test	310	n/a	n/a	<div class = centerbox><div class = fixation>+</div></div>	none	500.0	test	n/a	n/a	n/a	n/a	n/a	n/a	n/a	n/a	n/a	n/a	n/a	n/a	n/a	n/a	n/a	n/a	n/a	n/a	fixation
302379.39641759999	2750.0	n/a	900	71	2750	113.6035824	stim	stop-signal	143	370066	0.0-9.20-1.20	beast_fmri_test	310	367422,/,368101,/,368782,/,369463,/,370142,/	t,t,t,t,t	<img class = center src='/static/experiments/beast_fmri_test/images/B.png'></img>	71,89	2750.0	test	<img class = center src='/static/experiments/beast_fmri_test/images/redB.png'></img>	go	2150.0	3.0	20.0	go	target	B	71,Green Button	89,Yellow Button	600.0	550.0	2150.0	2250.0	1.0	600.0	n/a	1.0	go_stim
305129.39641759999	113.6035824	n/a	900	71	2750	113.6035824	stim	stop-signal	143	370066	0.0-9.20-1.20	beast_fmri_test	310	367422,/,368101,/,368782,/,369463,/,370142,/	t,t,t,t,t	<img class = center src='/static/experiments/beast_fmri_test/images/B.png'></img>	71,89	2750.0	test	<img class = center src='/static/experiments/beast_fmri_test/images/redB.png'></img>	go	2150.0	3.0	20.0	go	target	B	71,Green Button	89,Yellow Button	600.0	550.0	2150.0	2250.0	1.0	600.0	n/a	1.0	ITI
305866	500.0	n/a	-1	-1	500	0.0	fixation	poldrack-single-stim	144	370689	0.0-9.21-0.21	beast_fmri_test	310	n/a	n/a	<div class = centerbox><div class = fixation>+</div></div>	none	500.0	test	n/a	n/a	n/a	n/a	n/a	n/a	n/a	n/a	n/a	n/a	n/a	n/a	n/a	n/a	n/a	n/a	n/a	n/a	fixation
305005.83620209998	600.0	n/a	-1	-1	2750	862.1637979	stim	stop-signal	145	373441	0.0-9.21-1.21	beast_fmri_test	310	370823,/,371503,/,372182,/,372862,/,373543,/,374222,/	t,t,t,t,t,t	<img class = center src='/static/experiments/beast_fmri_test/images/P.png'></img>	71,89	2750.0	test	<img class = center src='/static/experiments/beast_fmri_test/images/redP.png'></img>	stop	2150.0	3.0	21.0	stop	target	P	71,Green Button	89,Yellow Button	600.0	550.0	2150.0	2250.0	0.0	600.0	1.0	0.0	go_stim
307155.83620209998	2150.0	n/a	-1	-1	2750	862.1637979	stim	stop-signal	145	373441	0.0-9.21-1.21	beast_fmri_test	310	370823,/,371503,/,372182,/,372862,/,373543,/,374222,/	t,t,t,t,t,t	<img class = center src='/static/experiments/beast_fmri_test/images/P.png'></img>	71,89	2750.0	test	<img class = center src='/static/experiments/beast_fmri_test/images/redP.png'></img>	stop	2150.0	3.0	21.0	stop	target	P	71,Green Button	89,Yellow Button	600.0	550.0	2150.0	2250.0	0.0	600.0	1.0	0.0	stop_stim
307755.83620209998	862.1637979	n/a	-1	-1	2750	862.1637979	stim	stop-signal	145	373441	0.0-9.21-1.21	beast_fmri_test	310	370823,/,371503,/,372182,/,372862,/,373543,/,374222,/	t,t,t,t,t,t	<img class = center src='/static/experiments/beast_fmri_test/images/P.png'></img>	71,89	2750.0	test	<img class = center src='/static/experiments/beast_fmri_test/images/redP.png'></img>	stop	2150.0	3.0	21.0	stop	target	P	71,Green Button	89,Yellow Button	600.0	550.0	2150.0	2250.0	0.0	600.0	1.0	0.0	ITI
309986	500.0	n/a	-1	-1	500	0.0	fixation	poldrack-single-stim	146	374809	0.0-9.22-0.22	beast_fmri_test	310	n/a	n/a	<div class = centerbox><div class = fixation>+</div></div>	none	500.0	test	n/a	n/a	n/a	n/a	n/a	n/a	n/a	n/a	n/a	n/a	n/a	n/a	n/a	n/a	n/a	n/a	n/a	n/a	fixation
309437.67628479999	2750.0	n/a	1352	89	2750	550.3237152	stim	stop-signal	147	377561	0.0-9.22-1.22	beast_fmri_test	310	374902,/,375582,/,376262,/,376943,/,377622,/	t,t,t,t,t	<img class = center src='/static/experiments/beast_fmri_test/images/B.png'></img>	71,89	2750.0	test	<img class = center src='/static/experiments/beast_fmri_test/images/redB.png'></img>	go	2200.0	3.0	22.0	go	non-target	B	71,Green Button	89,Yellow Button	650.0	550.0	2150.0	2200.0	1.0	550.0	n/a	1.0	go_stim
312187.67628479999	550.3237152	n/a	1352	89	2750	550.3237152	stim	stop-signal	147	377561	0.0-9.22-1.22	beast_fmri_test	310	374902,/,375582,/,376262,/,376943,/,377622,/	t,t,t,t,t	<img class = center src='/static/experiments/beast_fmri_test/images/B.png'></img>	71,89	2750.0	test	<img class = center src='/static/experiments/beast_fmri_test/images/redB.png'></img>	go	2200.0	3.0	22.0	go	non-target	B	71,Green Button	89,Yellow Button	650.0	550.0	2150.0	2200.0	1.0	550.0	n/a	1.0	ITI
313798	500.0	n/a	-1	-1	500	0.0	fixation	poldrack-single-stim	148	378621	0.0-9.23-0.23	beast_fmri_test	310	378302,/	t	<div class = centerbox><div class = fixation>+</div></div>	none	500.0	test	n/a	n/a	n/a	n/a	n/a	n/a	n/a	n/a	n/a	n/a	n/a	n/a	n/a	n/a	n/a	n/a	n/a	n/a	fixation
312105.65401400003	2750.0	n/a	1266	71	2750	1694.345986	stim	stop-signal	149	381373	0.0-9.23-1.23	beast_fmri_test	310	378983,/,379662,/,380342,/,381022,/,381702,/,382382,/,383062,/	t,t,t,t,t,t,t	<img class = center src='/static/experiments/beast_fmri_test/images/B.png'></img>	71,89	2750.0	test	<img class = center src='/static/experiments/beast_fmri_test/images/redB.png'></img>	go	2100.0	3.0	23.0	go	target	B	71,Green Button	89,Yellow Button	650.0	550.0	2100.0	2200.0	1.0	650.0	n/a	1.0	go_stim
314855.65401400003	1694.345986	n/a	1266	71	2750	1694.345986	stim	stop-signal	149	381373	0.0-9.23-1.23	beast_fmri_test	310	378983,/,379662,/,380342,/,381022,/,381702,/,382382,/,383062,/	t,t,t,t,t,t,t	<img class = center src='/static/experiments/beast_fmri_test/images/B.png'></img>	71,89	2750.0	test	<img class = center src='/static/experiments/beast_fmri_test/images/redB.png'></img>	go	2100.0	3.0	23.0	go	target	B	71,Green Button	89,Yellow Button	650.0	550.0	2100.0	2200.0	1.0	650.0	n/a	1.0	ITI
318750	500.0	n/a	-1	-1	500	0.0	fixation	poldrack-single-stim	150	383573	0.0-9.24-0.24	beast_fmri_test	310	n/a	n/a	<div class = centerbox><div class = fixation>+</div></div>	none	500.0	test	n/a	n/a	n/a	n/a	n/a	n/a	n/a	n/a	n/a	n/a	n/a	n/a	n/a	n/a	n/a	n/a	n/a	n/a	fixation
315545.61993500002	2750.0	n/a	1122	89	2750	3205.380065	stim	stop-signal	151	386324	0.0-9.24-1.24	beast_fmri_test	310	383742,/,384422,/,385102,/,385782,/,386462,/,387143,/,387822,/,388502,/,389182,/	t,t,t,t,t,t,t,t,t	<img class = center src='/static/experiments/beast_fmri_test/images/P.png'></img>	71,89	2750.0	test	<img class = center src='/static/experiments/beast_fmri_test/images/redP.png'></img>	go	2100.0	3.0	24.0	go	target	P	71,Green Button	89,Yellow Button	650.0	550.0	2100.0	2200.0	0.0	650.0	n/a	0.0	go_stim
