onset	duration	text	rt	key_press	block_duration	timing_post_trial	trial_id	trial_type	trial_index	time_elapsed	internal_node_id	exp_id	subject_id	trigger_times	triggers	stimulus	possible_responses	stim_duration	exp_stage	SS_stimulus	SS_trial_type	SS_duration	load	trial_num	stop_trial_type	adaptive_trial_type	stim	yes_response_key	no_response_key	SSD_target	SSD_non_target	SSTarget	SSNonTarget	go_acc	SS_delay	stop_acc	adaptive_acc	new_trial_type
test	10880.0	n/a	-1	-1	10880	0.0	practice-no-stop-feedback	poldrack-single-stim	396	1026377	0.0-18.0	beast_fmri_test	310	1015497,/,1016175,/,1016856,/,1017536,/,1018215,/,1018896,/,1019575,/,1020255,/,1020935,/,1021616,/,1022296,/,1022975,/,1023655,/,1024335,/,1025015,/,1025696,/,1026375,/	t,t,t,t,t,t,t,t,t,t,t,t,t,t,t,t,t	"<div class = ""centerbox""><p class = ""center-block-text"">Your delay is 3 trials.</p><p class = center-block-text>Please wait for the scanner to start the block</p></div>"	77	10880.0	n/a	n/a	n/a	n/a	n/a	n/a	n/a	n/a	n/a	n/a	n/a	n/a	n/a	n/a	n/a	n/a	n/a	n/a	n/a	start_functional_block
11383	500.0	n/a	-1	-1	500	0.0	fixation	poldrack-single-stim	397	1026880	0.0-19.0-0.0	beast_fmri_test	310	n/a	n/a	<div class = centerbox><div class = fixation>+</div></div>	none	500.0	test	n/a	n/a	n/a	n/a	n/a	n/a	n/a	n/a	n/a	n/a	n/a	n/a	n/a	n/a	n/a	n/a	n/a	n/a	fixation
11242.34041309997	2750.0	n/a	674	89	2750	142.6595869	stim	stop-signal	398	1029632	0.0-19.0-1.0	beast_fmri_test	310	1027055,/,1027736,/,1028415,/,1029095,/	t,t,t,t	<img class = center src='/static/experiments/beast_fmri_test/images/P.png'></img>	71,89	2750.0	test	<img class = center src='/static/experiments/beast_fmri_test/images/redP.png'></img>	go	-1.0	3.0	0.0	go	temp-non-target	P	71,Green Button	89,Yellow Button	600.0	800.0	2150.0	1950.0	0.0	n/a	n/a	n/a	go_stim
13992.34041309997	142.6595869	n/a	674	89	2750	142.6595869	stim	stop-signal	398	1029632	0.0-19.0-1.0	beast_fmri_test	310	1027055,/,1027736,/,1028415,/,1029095,/	t,t,t,t	<img class = center src='/static/experiments/beast_fmri_test/images/P.png'></img>	71,89	2750.0	test	<img class = center src='/static/experiments/beast_fmri_test/images/redP.png'></img>	go	-1.0	3.0	0.0	go	temp-non-target	P	71,Green Button	89,Yellow Button	600.0	800.0	2150.0	1950.0	0.0	n/a	n/a	n/a	ITI
14791	500.0	n/a	-1	-1	500	0.0	fixation	poldrack-single-stim	399	1030288	0.0-19.1-0.1	beast_fmri_test	310	1029787,/	t	<div class = centerbox><div class = fixation>+</div></div>	none	500.0	test	n/a	n/a	n/a	n/a	n/a	n/a	n/a	n/a	n/a	n/a	n/a	n/a	n/a	n/a	n/a	n/a	n/a	n/a	fixation
12834.821508000023	2750.0	n/a	374	89	2750	1957.178492	stim	stop-signal	400	1033039	0.0-19.1-1.1	beast_fmri_test	310	1030456,/,1031136,/,1031816,/,1032497,/,1033176,/,1033856,/,1034536,/	t,t,t,t,t,t,t	<img class = center src='/static/experiments/beast_fmri_test/images/B.png'></img>	71,89	2750.0	test	<img class = center src='/static/experiments/beast_fmri_test/images/redB.png'></img>	go	-1.0	3.0	1.0	go	temp-non-target	B	71,Green Button	89,Yellow Button	600.0	800.0	2150.0	1950.0	0.0	n/a	n/a	n/a	go_stim
15584.821508000023	1957.178492	n/a	374	89	2750	1957.178492	stim	stop-signal	400	1033039	0.0-19.1-1.1	beast_fmri_test	310	1030456,/,1031136,/,1031816,/,1032497,/,1033176,/,1033856,/,1034536,/	t,t,t,t,t,t,t	<img class = center src='/static/experiments/beast_fmri_test/images/B.png'></img>	71,89	2750.0	test	<img class = center src='/static/experiments/beast_fmri_test/images/redB.png'></img>	go	-1.0	3.0	1.0	go	temp-non-target	B	71,Green Button	89,Yellow Button	600.0	800.0	2150.0	1950.0	0.0	n/a	n/a	n/a	ITI
20016	500.0	n/a	-1	-1	500	0.0	fixation	poldrack-single-stim	401	1035513	0.0-19.2-0.2	beast_fmri_test	310	1035216,/	t	<div class = centerbox><div class = fixation>+</div></div>	none	500.0	test	n/a	n/a	n/a	n/a	n/a	n/a	n/a	n/a	n/a	n/a	n/a	n/a	n/a	n/a	n/a	n/a	n/a	n/a	fixation
18692.559665999957	2750.0	n/a	487	89	2750	1325.440334	stim	stop-signal	402	1038265	0.0-19.2-1.2	beast_fmri_test	310	1035896,/,1036576,/,1037256,/,1037936,/,1038616,/,1039296,/	t,t,t,t,t,t	<img class = center src='/static/experiments/beast_fmri_test/images/P.png'></img>	71,89	2750.0	test	<img class = center src='/static/experiments/beast_fmri_test/images/redP.png'></img>	go	-1.0	3.0	2.0	go	temp-non-target	P	71,Green Button	89,Yellow Button	600.0	800.0	2150.0	1950.0	0.0	n/a	n/a	n/a	go_stim
21442.559665999957	1325.440334	n/a	487	89	2750	1325.440334	stim	stop-signal	402	1038265	0.0-19.2-1.2	beast_fmri_test	310	1035896,/,1036576,/,1037256,/,1037936,/,1038616,/,1039296,/	t,t,t,t,t,t	<img class = center src='/static/experiments/beast_fmri_test/images/P.png'></img>	71,89	2750.0	test	<img class = center src='/static/experiments/beast_fmri_test/images/redP.png'></img>	go	-1.0	3.0	2.0	go	temp-non-target	P	71,Green Button	89,Yellow Button	600.0	800.0	2150.0	1950.0	0.0	n/a	n/a	n/a	ITI
24612	500.0	n/a	-1	-1	500	0.0	fixation	poldrack-single-stim	403	1040109	0.0-19.3-0.3	beast_fmri_test	310	1039976,/	t	<div class = centerbox><div class = fixation>+</div></div>	none	500.0	test	n/a	n/a	n/a	n/a	n/a	n/a	n/a	n/a	n/a	n/a	n/a	n/a	n/a	n/a	n/a	n/a	n/a	n/a	fixation
23684.073163500056	2750.0	n/a	575	71	2750	928.9268365	stim	stop-signal	404	1042860	0.0-19.3-1.3	beast_fmri_test	310	1040656,/,1041335,/,1042015,/,1042697,/,1043375,/	t,t,t,t,t	<img class = center src='/static/experiments/beast_fmri_test/images/P.png'></img>	71,89	2750.0	test	<img class = center src='/static/experiments/beast_fmri_test/images/redP.png'></img>	go	2150.0	3.0	3.0	go	target	P	71,Green Button	89,Yellow Button	600.0	800.0	2150.0	1950.0	1.0	600.0	n/a	1.0	go_stim
26434.073163500056	928.9268365	n/a	575	71	2750	928.9268365	stim	stop-signal	404	1042860	0.0-19.3-1.3	beast_fmri_test	310	1040656,/,1041335,/,1042015,/,1042697,/,1043375,/	t,t,t,t,t	<img class = center src='/static/experiments/beast_fmri_test/images/P.png'></img>	71,89	2750.0	test	<img class = center src='/static/experiments/beast_fmri_test/images/redP.png'></img>	go	2150.0	3.0	3.0	go	target	P	71,Green Button	89,Yellow Button	600.0	800.0	2150.0	1950.0	1.0	600.0	n/a	1.0	ITI
28812	500.0	n/a	-1	-1	500	0.0	fixation	poldrack-single-stim	405	1044309	0.0-19.4-0.4	beast_fmri_test	310	1044056,/	t	<div class = centerbox><div class = fixation>+</div></div>	none	500.0	test	n/a	n/a	n/a	n/a	n/a	n/a	n/a	n/a	n/a	n/a	n/a	n/a	n/a	n/a	n/a	n/a	n/a	n/a	fixation
26061.333530999953	2750.0	n/a	464	89	2750	2751.666469	stim	stop-signal	406	1047060	0.0-19.4-1.4	beast_fmri_test	310	1044736,/,1045415,/,1046095,/,1046775,/,1047455,/,1048135,/,1048816,/,1049495,/	t,t,t,t,t,t,t,t	<img class = center src='/static/experiments/beast_fmri_test/images/T.png'></img>	71,89	2750.0	test	<img class = center src='/static/experiments/beast_fmri_test/images/redT.png'></img>	go	1950.0	3.0	4.0	go	non-target	T	71,Green Button	89,Yellow Button	600.0	800.0	2150.0	1950.0	1.0	800.0	n/a	1.0	go_stim
28811.333530999953	2751.666469	n/a	464	89	2750	2751.666469	stim	stop-signal	406	1047060	0.0-19.4-1.4	beast_fmri_test	310	1044736,/,1045415,/,1046095,/,1046775,/,1047455,/,1048135,/,1048816,/,1049495,/	t,t,t,t,t,t,t,t	<img class = center src='/static/experiments/beast_fmri_test/images/T.png'></img>	71,89	2750.0	test	<img class = center src='/static/experiments/beast_fmri_test/images/redT.png'></img>	go	1950.0	3.0	4.0	go	non-target	T	71,Green Button	89,Yellow Button	600.0	800.0	2150.0	1950.0	1.0	800.0	n/a	1.0	ITI
34830	500.0	n/a	-1	-1	500	0.0	fixation	poldrack-single-stim	407	1050327	0.0-19.5-0.5	beast_fmri_test	310	1050176,/	t	<div class = centerbox><div class = fixation>+</div></div>	none	500.0	test	n/a	n/a	n/a	n/a	n/a	n/a	n/a	n/a	n/a	n/a	n/a	n/a	n/a	n/a	n/a	n/a	n/a	n/a	fixation
34598.378331500106	2750.0	n/a	701	71	2750	233.6216685	stim	stop-signal	408	1053079	0.0-19.5-1.5	beast_fmri_test	310	1050855,/,1051535,/,1052215,/,1052896,/	t,t,t,t	<img class = center src='/static/experiments/beast_fmri_test/images/P.png'></img>	71,89	2750.0	test	<img class = center src='/static/experiments/beast_fmri_test/images/redP.png'></img>	go	2150.0	3.0	5.0	go	target	P	71,Green Button	89,Yellow Button	600.0	800.0	2150.0	1950.0	1.0	600.0	n/a	1.0	go_stim
37348.378331500106	233.6216685	n/a	701	71	2750	233.6216685	stim	stop-signal	408	1053079	0.0-19.5-1.5	beast_fmri_test	310	1050855,/,1051535,/,1052215,/,1052896,/	t,t,t,t	<img class = center src='/static/experiments/beast_fmri_test/images/P.png'></img>	71,89	2750.0	test	<img class = center src='/static/experiments/beast_fmri_test/images/redP.png'></img>	go	2150.0	3.0	5.0	go	target	P	71,Green Button	89,Yellow Button	600.0	800.0	2150.0	1950.0	1.0	600.0	n/a	1.0	ITI
38330	500.0	n/a	-1	-1	500	0.0	fixation	poldrack-single-stim	409	1053827	0.0-19.6-0.6	beast_fmri_test	310	1053575,/	t	<div class = centerbox><div class = fixation>+</div></div>	none	500.0	test	n/a	n/a	n/a	n/a	n/a	n/a	n/a	n/a	n/a	n/a	n/a	n/a	n/a	n/a	n/a	n/a	n/a	n/a	fixation
37657.518250500085	800.0	n/a	753	89	2750	674.4817495	stim	stop-signal	410	1056579	0.0-19.6-1.6	beast_fmri_test	310	1054255,/,1054935,/,1055615,/,1056295,/,1056975,/	t,t,t,t,t	<img class = center src='/static/experiments/beast_fmri_test/images/B.png'></img>	71,89	2750.0	test	<img class = center src='/static/experiments/beast_fmri_test/images/redB.png'></img>	stop	1950.0	3.0	6.0	stop	non-target	B	71,Green Button	89,Yellow Button	600.0	800.0	2150.0	1950.0	0.0	800.0	0.0	1.0	go_stim
39607.518250500085	1950.0	n/a	753	89	2750	674.4817495	stim	stop-signal	410	1056579	0.0-19.6-1.6	beast_fmri_test	310	1054255,/,1054935,/,1055615,/,1056295,/,1056975,/	t,t,t,t,t	<img class = center src='/static/experiments/beast_fmri_test/images/B.png'></img>	71,89	2750.0	test	<img class = center src='/static/experiments/beast_fmri_test/images/redB.png'></img>	stop	1950.0	3.0	6.0	stop	non-target	B	71,Green Button	89,Yellow Button	600.0	800.0	2150.0	1950.0	0.0	800.0	0.0	1.0	stop_stim
40407.518250500085	674.4817495	n/a	753	89	2750	674.4817495	stim	stop-signal	410	1056579	0.0-19.6-1.6	beast_fmri_test	310	1054255,/,1054935,/,1055615,/,1056295,/,1056975,/	t,t,t,t,t	<img class = center src='/static/experiments/beast_fmri_test/images/B.png'></img>	71,89	2750.0	test	<img class = center src='/static/experiments/beast_fmri_test/images/redB.png'></img>	stop	1950.0	3.0	6.0	stop	non-target	B	71,Green Button	89,Yellow Button	600.0	800.0	2150.0	1950.0	0.0	800.0	0.0	1.0	ITI
42275	500.0	n/a	-1	-1	500	0.0	fixation	poldrack-single-stim	411	1057772	0.0-19.7-0.7	beast_fmri_test	310	1057655,/	t	<div class = centerbox><div class = fixation>+</div></div>	none	500.0	test	n/a	n/a	n/a	n/a	n/a	n/a	n/a	n/a	n/a	n/a	n/a	n/a	n/a	n/a	n/a	n/a	n/a	n/a	fixation
41142.475167999975	750.0	n/a	847	89	2750	1134.524832	stim	stop-signal	412	1060524	0.0-19.7-1.7	beast_fmri_test	310	1058335,/,1059015,/,1059695,/,1060375,/,1061055,/	t,t,t,t,t	<img class = center src='/static/experiments/beast_fmri_test/images/P.png'></img>	71,89	2750.0	test	<img class = center src='/static/experiments/beast_fmri_test/images/redP.png'></img>	stop	2000.0	3.0	7.0	stop	non-target	P	71,Green Button	89,Yellow Button	600.0	750.0	2150.0	2000.0	0.0	750.0	0.0	1.0	go_stim
43142.475167999975	2000.0	n/a	847	89	2750	1134.524832	stim	stop-signal	412	1060524	0.0-19.7-1.7	beast_fmri_test	310	1058335,/,1059015,/,1059695,/,1060375,/,1061055,/	t,t,t,t,t	<img class = center src='/static/experiments/beast_fmri_test/images/P.png'></img>	71,89	2750.0	test	<img class = center src='/static/experiments/beast_fmri_test/images/redP.png'></img>	stop	2000.0	3.0	7.0	stop	non-target	P	71,Green Button	89,Yellow Button	600.0	750.0	2150.0	2000.0	0.0	750.0	0.0	1.0	stop_stim
43892.475167999975	1134.524832	n/a	847	89	2750	1134.524832	stim	stop-signal	412	1060524	0.0-19.7-1.7	beast_fmri_test	310	1058335,/,1059015,/,1059695,/,1060375,/,1061055,/	t,t,t,t,t	<img class = center src='/static/experiments/beast_fmri_test/images/P.png'></img>	71,89	2750.0	test	<img class = center src='/static/experiments/beast_fmri_test/images/redP.png'></img>	stop	2000.0	3.0	7.0	stop	non-target	P	71,Green Button	89,Yellow Button	600.0	750.0	2150.0	2000.0	0.0	750.0	0.0	1.0	ITI
46680	500.0	n/a	-1	-1	500	0.0	fixation	poldrack-single-stim	413	1062177	0.0-19.8-0.8	beast_fmri_test	310	1061736,/	t	<div class = centerbox><div class = fixation>+</div></div>	none	500.0	test	n/a	n/a	n/a	n/a	n/a	n/a	n/a	n/a	n/a	n/a	n/a	n/a	n/a	n/a	n/a	n/a	n/a	n/a	fixation
45672.529373999918	2750.0	n/a	945	89	2750	1009.470626	stim	stop-signal	414	1064929	0.0-19.8-1.8	beast_fmri_test	310	1062415,/,1063097,/,1063776,/,1064456,/,1065136,/,1065816,/	t,t,t,t,t,t	<img class = center src='/static/experiments/beast_fmri_test/images/D.png'></img>	71,89	2750.0	test	<img class = center src='/static/experiments/beast_fmri_test/images/redD.png'></img>	go	2050.0	3.0	8.0	go	non-target	D	71,Green Button	89,Yellow Button	600.0	700.0	2150.0	2050.0	1.0	700.0	n/a	1.0	go_stim
48422.529373999918	1009.470626	n/a	945	89	2750	1009.470626	stim	stop-signal	414	1064929	0.0-19.8-1.8	beast_fmri_test	310	1062415,/,1063097,/,1063776,/,1064456,/,1065136,/,1065816,/	t,t,t,t,t,t	<img class = center src='/static/experiments/beast_fmri_test/images/D.png'></img>	71,89	2750.0	test	<img class = center src='/static/experiments/beast_fmri_test/images/redD.png'></img>	go	2050.0	3.0	8.0	go	non-target	D	71,Green Button	89,Yellow Button	600.0	700.0	2150.0	2050.0	1.0	700.0	n/a	1.0	ITI
50958	500.0	n/a	-1	-1	500	0.0	fixation	poldrack-single-stim	415	1066455	0.0-19.9-0.9	beast_fmri_test	310	n/a	n/a	<div class = centerbox><div class = fixation>+</div></div>	none	500.0	test	n/a	n/a	n/a	n/a	n/a	n/a	n/a	n/a	n/a	n/a	n/a	n/a	n/a	n/a	n/a	n/a	n/a	n/a	fixation
49978.260152000003	2750.0	n/a	1301	71	2750	980.739848	stim	stop-signal	416	1069206	0.0-19.9-1.9	beast_fmri_test	310	1066496,/,1067176,/,1067856,/,1068536,/,1069216,/,1069896,/	t,t,t,t,t,t	<img class = center src='/static/experiments/beast_fmri_test/images/B.png'></img>	71,89	2750.0	test	<img class = center src='/static/experiments/beast_fmri_test/images/redB.png'></img>	go	2150.0	3.0	9.0	go	target	B	71,Green Button	89,Yellow Button	600.0	700.0	2150.0	2050.0	1.0	600.0	n/a	1.0	go_stim
52728.260152000003	980.739848	n/a	1301	71	2750	980.739848	stim	stop-signal	416	1069206	0.0-19.9-1.9	beast_fmri_test	310	1066496,/,1067176,/,1067856,/,1068536,/,1069216,/,1069896,/	t,t,t,t,t,t	<img class = center src='/static/experiments/beast_fmri_test/images/B.png'></img>	71,89	2750.0	test	<img class = center src='/static/experiments/beast_fmri_test/images/redB.png'></img>	go	2150.0	3.0	9.0	go	target	B	71,Green Button	89,Yellow Button	600.0	700.0	2150.0	2050.0	1.0	600.0	n/a	1.0	ITI
55207	500.0	n/a	-1	-1	500	0.0	fixation	poldrack-single-stim	417	1070704	0.0-19.10-0.10	beast_fmri_test	310	1070576,/	t	<div class = centerbox><div class = fixation>+</div></div>	none	500.0	test	n/a	n/a	n/a	n/a	n/a	n/a	n/a	n/a	n/a	n/a	n/a	n/a	n/a	n/a	n/a	n/a	n/a	n/a	fixation
54996.828297199914	2750.0	n/a	875	71	2750	211.1717028	stim	stop-signal	418	1073455	0.0-19.10-1.10	beast_fmri_test	310	1071256,/,1071936,/,1072616,/,1073296,/	t,t,t,t	<img class = center src='/static/experiments/beast_fmri_test/images/P.png'></img>	71,89	2750.0	test	<img class = center src='/static/experiments/beast_fmri_test/images/redP.png'></img>	go	2150.0	3.0	10.0	go	target	P	71,Green Button	89,Yellow Button	600.0	700.0	2150.0	2050.0	1.0	600.0	n/a	1.0	go_stim
57746.828297199914	211.1717028	n/a	875	71	2750	211.1717028	stim	stop-signal	418	1073455	0.0-19.10-1.10	beast_fmri_test	310	1071256,/,1071936,/,1072616,/,1073296,/	t,t,t,t	<img class = center src='/static/experiments/beast_fmri_test/images/P.png'></img>	71,89	2750.0	test	<img class = center src='/static/experiments/beast_fmri_test/images/redP.png'></img>	go	2150.0	3.0	10.0	go	target	P	71,Green Button	89,Yellow Button	600.0	700.0	2150.0	2050.0	1.0	600.0	n/a	1.0	ITI
58688	500.0	n/a	-1	-1	500	0.0	fixation	poldrack-single-stim	419	1074185	0.0-19.11-0.11	beast_fmri_test	310	1073976,/	t	<div class = centerbox><div class = fixation>+</div></div>	none	500.0	test	n/a	n/a	n/a	n/a	n/a	n/a	n/a	n/a	n/a	n/a	n/a	n/a	n/a	n/a	n/a	n/a	n/a	n/a	fixation
58403.004518500064	2750.0	n/a	891	89	2750	286.9954815	stim	stop-signal	420	1076937	0.0-19.11-1.11	beast_fmri_test	310	1074655,/,1075335,/,1076015,/,1076695,/	t,t,t,t	<img class = center src='/static/experiments/beast_fmri_test/images/V.png'></img>	71,89	2750.0	test	<img class = center src='/static/experiments/beast_fmri_test/images/redV.png'></img>	go	2050.0	3.0	11.0	go	non-target	V	71,Green Button	89,Yellow Button	600.0	700.0	2150.0	2050.0	1.0	700.0	n/a	1.0	go_stim
61153.004518500064	286.9954815	n/a	891	89	2750	286.9954815	stim	stop-signal	420	1076937	0.0-19.11-1.11	beast_fmri_test	310	1074655,/,1075335,/,1076015,/,1076695,/	t,t,t,t	<img class = center src='/static/experiments/beast_fmri_test/images/V.png'></img>	71,89	2750.0	test	<img class = center src='/static/experiments/beast_fmri_test/images/redV.png'></img>	go	2050.0	3.0	11.0	go	non-target	V	71,Green Button	89,Yellow Button	600.0	700.0	2150.0	2050.0	1.0	700.0	n/a	1.0	ITI
62244	500.0	n/a	-1	-1	500	0.0	fixation	poldrack-single-stim	421	1077741	0.0-19.12-0.12	beast_fmri_test	310	1077375,/	t	<div class = centerbox><div class = fixation>+</div></div>	none	500.0	test	n/a	n/a	n/a	n/a	n/a	n/a	n/a	n/a	n/a	n/a	n/a	n/a	n/a	n/a	n/a	n/a	n/a	n/a	fixation
60068.804404000053	2750.0	n/a	813	89	2750	2177.195596	stim	stop-signal	422	1080493	0.0-19.12-1.12	beast_fmri_test	310	1078056,/,1078735,/,1079415,/,1080096,/,1080776,/,1081455,/,1082136,/	t,t,t,t,t,t,t	<img class = center src='/static/experiments/beast_fmri_test/images/D.png'></img>	71,89	2750.0	test	<img class = center src='/static/experiments/beast_fmri_test/images/redD.png'></img>	go	2050.0	3.0	12.0	go	non-target	D	71,Green Button	89,Yellow Button	600.0	700.0	2150.0	2050.0	1.0	700.0	n/a	1.0	go_stim
62818.804404000053	2177.195596	n/a	813	89	2750	2177.195596	stim	stop-signal	422	1080493	0.0-19.12-1.12	beast_fmri_test	310	1078056,/,1078735,/,1079415,/,1080096,/,1080776,/,1081455,/,1082136,/	t,t,t,t,t,t,t	<img class = center src='/static/experiments/beast_fmri_test/images/D.png'></img>	71,89	2750.0	test	<img class = center src='/static/experiments/beast_fmri_test/images/redD.png'></img>	go	2050.0	3.0	12.0	go	non-target	D	71,Green Button	89,Yellow Button	600.0	700.0	2150.0	2050.0	1.0	700.0	n/a	1.0	ITI
67692	500.0	n/a	-1	-1	500	0.0	fixation	poldrack-single-stim	423	1083189	0.0-19.13-0.13	beast_fmri_test	310	1082815,/	t	<div class = centerbox><div class = fixation>+</div></div>	none	500.0	test	n/a	n/a	n/a	n/a	n/a	n/a	n/a	n/a	n/a	n/a	n/a	n/a	n/a	n/a	n/a	n/a	n/a	n/a	fixation
67225.349722499959	700.0	n/a	976	89	2750	469.6502775	stim	stop-signal	424	1085942	0.0-19.13-1.13	beast_fmri_test	310	1083496,/,1084175,/,1084855,/,1085535,/,1086215,/	t,t,t,t,t	<img class = center src='/static/experiments/beast_fmri_test/images/D.png'></img>	71,89	2750.0	test	<img class = center src='/static/experiments/beast_fmri_test/images/redD.png'></img>	stop	2050.0	3.0	13.0	stop	non-target	D	71,Green Button	89,Yellow Button	600.0	700.0	2150.0	2050.0	0.0	700.0	0.0	1.0	go_stim
69275.349722499959	2050.0	n/a	976	89	2750	469.6502775	stim	stop-signal	424	1085942	0.0-19.13-1.13	beast_fmri_test	310	1083496,/,1084175,/,1084855,/,1085535,/,1086215,/	t,t,t,t,t	<img class = center src='/static/experiments/beast_fmri_test/images/D.png'></img>	71,89	2750.0	test	<img class = center src='/static/experiments/beast_fmri_test/images/redD.png'></img>	stop	2050.0	3.0	13.0	stop	non-target	D	71,Green Button	89,Yellow Button	600.0	700.0	2150.0	2050.0	0.0	700.0	0.0	1.0	stop_stim
69975.349722499959	469.6502775	n/a	976	89	2750	469.6502775	stim	stop-signal	424	1085942	0.0-19.13-1.13	beast_fmri_test	310	1083496,/,1084175,/,1084855,/,1085535,/,1086215,/	t,t,t,t,t	<img class = center src='/static/experiments/beast_fmri_test/images/D.png'></img>	71,89	2750.0	test	<img class = center src='/static/experiments/beast_fmri_test/images/redD.png'></img>	stop	2050.0	3.0	13.0	stop	non-target	D	71,Green Button	89,Yellow Button	600.0	700.0	2150.0	2050.0	0.0	700.0	0.0	1.0	ITI
71432	500.0	n/a	-1	-1	500	0.0	fixation	poldrack-single-stim	425	1086929	0.0-19.14-0.14	beast_fmri_test	310	1086895,/	t	<div class = centerbox><div class = fixation>+</div></div>	none	500.0	test	n/a	n/a	n/a	n/a	n/a	n/a	n/a	n/a	n/a	n/a	n/a	n/a	n/a	n/a	n/a	n/a	n/a	n/a	fixation
70003.470061999978	2750.0	n/a	1185	89	2750	1430.529938	stim	stop-signal	426	1089681	0.0-19.14-1.14	beast_fmri_test	310	1087576,/,1088255,/,1088935,/,1089615,/,1090295,/,1090975,/	t,t,t,t,t,t	<img class = center src='/static/experiments/beast_fmri_test/images/D.png'></img>	71,89	2750.0	test	<img class = center src='/static/experiments/beast_fmri_test/images/redD.png'></img>	go	2100.0	3.0	14.0	go	non-target	D	71,Green Button	89,Yellow Button	600.0	650.0	2150.0	2100.0	1.0	650.0	n/a	1.0	go_stim
72753.470061999978	1430.529938	n/a	1185	89	2750	1430.529938	stim	stop-signal	426	1089681	0.0-19.14-1.14	beast_fmri_test	310	1087576,/,1088255,/,1088935,/,1089615,/,1090295,/,1090975,/	t,t,t,t,t,t	<img class = center src='/static/experiments/beast_fmri_test/images/D.png'></img>	71,89	2750.0	test	<img class = center src='/static/experiments/beast_fmri_test/images/redD.png'></img>	go	2100.0	3.0	14.0	go	non-target	D	71,Green Button	89,Yellow Button	600.0	650.0	2150.0	2100.0	1.0	650.0	n/a	1.0	ITI
76136	500.0	n/a	-1	-1	500	0.0	fixation	poldrack-single-stim	427	1091633	0.0-19.15-0.15	beast_fmri_test	310	n/a	n/a	<div class = centerbox><div class = fixation>+</div></div>	none	500.0	test	n/a	n/a	n/a	n/a	n/a	n/a	n/a	n/a	n/a	n/a	n/a	n/a	n/a	n/a	n/a	n/a	n/a	n/a	fixation
75998.143250900088	2750.0	n/a	979	89	2750	139.8567491	stim	stop-signal	428	1094385	0.0-19.15-1.15	beast_fmri_test	310	1091655,/,1092335,/,1093015,/,1093695,/,1094375,/	t,t,t,t,t	<img class = center src='/static/experiments/beast_fmri_test/images/V.png'></img>	71,89	2750.0	test	<img class = center src='/static/experiments/beast_fmri_test/images/redV.png'></img>	go	2100.0	3.0	15.0	go	non-target	V	71,Green Button	89,Yellow Button	600.0	650.0	2150.0	2100.0	1.0	650.0	n/a	1.0	go_stim
78748.143250900088	139.8567491	n/a	979	89	2750	139.8567491	stim	stop-signal	428	1094385	0.0-19.15-1.15	beast_fmri_test	310	1091655,/,1092335,/,1093015,/,1093695,/,1094375,/	t,t,t,t,t	<img class = center src='/static/experiments/beast_fmri_test/images/V.png'></img>	71,89	2750.0	test	<img class = center src='/static/experiments/beast_fmri_test/images/redV.png'></img>	go	2100.0	3.0	15.0	go	non-target	V	71,Green Button	89,Yellow Button	600.0	650.0	2150.0	2100.0	1.0	650.0	n/a	1.0	ITI
79542	500.0	n/a	-1	-1	500	0.0	fixation	poldrack-single-stim	429	1095039	0.0-19.16-0.16	beast_fmri_test	310	n/a	n/a	<div class = centerbox><div class = fixation>+</div></div>	none	500.0	test	n/a	n/a	n/a	n/a	n/a	n/a	n/a	n/a	n/a	n/a	n/a	n/a	n/a	n/a	n/a	n/a	n/a	n/a	fixation
78367.287381999893	2750.0	n/a	764	89	2750	1176.712618	stim	stop-signal	430	1097791	0.0-19.16-1.16	beast_fmri_test	310	1095055,/,1095735,/,1096415,/,1097096,/,1097776,/,1098456,/	t,t,t,t,t,t	<img class = center src='/static/experiments/beast_fmri_test/images/B.png'></img>	71,89	2750.0	test	<img class = center src='/static/experiments/beast_fmri_test/images/redB.png'></img>	go	2100.0	3.0	16.0	go	non-target	B	71,Green Button	89,Yellow Button	600.0	650.0	2150.0	2100.0	1.0	650.0	n/a	1.0	go_stim
81117.287381999893	1176.712618	n/a	764	89	2750	1176.712618	stim	stop-signal	430	1097791	0.0-19.16-1.16	beast_fmri_test	310	1095055,/,1095735,/,1096415,/,1097096,/,1097776,/,1098456,/	t,t,t,t,t,t	<img class = center src='/static/experiments/beast_fmri_test/images/B.png'></img>	71,89	2750.0	test	<img class = center src='/static/experiments/beast_fmri_test/images/redB.png'></img>	go	2100.0	3.0	16.0	go	non-target	B	71,Green Button	89,Yellow Button	600.0	650.0	2150.0	2100.0	1.0	650.0	n/a	1.0	ITI
83986	500.0	n/a	-1	-1	500	0.0	fixation	poldrack-single-stim	431	1099483	0.0-19.17-0.17	beast_fmri_test	310	1099136,/	t	<div class = centerbox><div class = fixation>+</div></div>	none	500.0	test	n/a	n/a	n/a	n/a	n/a	n/a	n/a	n/a	n/a	n/a	n/a	n/a	n/a	n/a	n/a	n/a	n/a	n/a	fixation
81612.240655000089	600.0	n/a	429	71	2750	2375.759345	stim	stop-signal	432	1102235	0.0-19.17-1.17	beast_fmri_test	310	1099816,/,1100495,/,1101176,/,1101856,/,1102535,/,1103215,/,1103896,/,1104576,/	t,t,t,t,t,t,t,t	<img class = center src='/static/experiments/beast_fmri_test/images/D.png'></img>	71,89	2750.0	test	<img class = center src='/static/experiments/beast_fmri_test/images/redD.png'></img>	stop	2150.0	3.0	17.0	stop	target	D	71,Green Button	89,Yellow Button	600.0	650.0	2150.0	2100.0	0.0	600.0	0.0	1.0	go_stim
83762.240655000089	2150.0	n/a	429	71	2750	2375.759345	stim	stop-signal	432	1102235	0.0-19.17-1.17	beast_fmri_test	310	1099816,/,1100495,/,1101176,/,1101856,/,1102535,/,1103215,/,1103896,/,1104576,/	t,t,t,t,t,t,t,t	<img class = center src='/static/experiments/beast_fmri_test/images/D.png'></img>	71,89	2750.0	test	<img class = center src='/static/experiments/beast_fmri_test/images/redD.png'></img>	stop	2150.0	3.0	17.0	stop	target	D	71,Green Button	89,Yellow Button	600.0	650.0	2150.0	2100.0	0.0	600.0	0.0	1.0	stop_stim
84362.240655000089	2375.759345	n/a	429	71	2750	2375.759345	stim	stop-signal	432	1102235	0.0-19.17-1.17	beast_fmri_test	310	1099816,/,1100495,/,1101176,/,1101856,/,1102535,/,1103215,/,1103896,/,1104576,/	t,t,t,t,t,t,t,t	<img class = center src='/static/experiments/beast_fmri_test/images/D.png'></img>	71,89	2750.0	test	<img class = center src='/static/experiments/beast_fmri_test/images/redD.png'></img>	stop	2150.0	3.0	17.0	stop	target	D	71,Green Button	89,Yellow Button	600.0	650.0	2150.0	2100.0	0.0	600.0	0.0	1.0	ITI
89632	500.0	n/a	-1	-1	500	0.0	fixation	poldrack-single-stim	433	1105129	0.0-19.18-0.18	beast_fmri_test	310	n/a	n/a	<div class = centerbox><div class = fixation>+</div></div>	none	500.0	test	n/a	n/a	n/a	n/a	n/a	n/a	n/a	n/a	n/a	n/a	n/a	n/a	n/a	n/a	n/a	n/a	n/a	n/a	fixation
88641.373964699917	2750.0	n/a	972	89	2750	991.6260353	stim	stop-signal	434	1107880	0.0-19.18-1.18	beast_fmri_test	310	1105256,/,1105936,/,1106615,/,1107295,/,1107975,/,1108655,/	t,t,t,t,t,t	<img class = center src='/static/experiments/beast_fmri_test/images/P.png'></img>	71,89	2750.0	test	<img class = center src='/static/experiments/beast_fmri_test/images/redP.png'></img>	go	2100.0	3.0	18.0	go	non-target	P	71,Green Button	89,Yellow Button	550.0	650.0	2150.0	2100.0	1.0	650.0	n/a	1.0	go_stim
91391.373964699917	991.6260353	n/a	972	89	2750	991.6260353	stim	stop-signal	434	1107880	0.0-19.18-1.18	beast_fmri_test	310	1105256,/,1105936,/,1106615,/,1107295,/,1107975,/,1108655,/	t,t,t,t,t,t	<img class = center src='/static/experiments/beast_fmri_test/images/P.png'></img>	71,89	2750.0	test	<img class = center src='/static/experiments/beast_fmri_test/images/redP.png'></img>	go	2100.0	3.0	18.0	go	non-target	P	71,Green Button	89,Yellow Button	550.0	650.0	2150.0	2100.0	1.0	650.0	n/a	1.0	ITI
93891	500.0	n/a	-1	-1	500	0.0	fixation	poldrack-single-stim	435	1109388	0.0-19.19-0.19	beast_fmri_test	310	1109335,/	t	<div class = centerbox><div class = fixation>+</div></div>	none	500.0	test	n/a	n/a	n/a	n/a	n/a	n/a	n/a	n/a	n/a	n/a	n/a	n/a	n/a	n/a	n/a	n/a	n/a	n/a	fixation
93680.541752699995	650.0	n/a	-1	-1	2750	213.4582473	stim	stop-signal	436	1112141	0.0-19.19-1.19	beast_fmri_test	310	1110015,/,1110695,/,1111376,/,1112055,/	t,t,t,t	<img class = center src='/static/experiments/beast_fmri_test/images/D.png'></img>	71,89	2750.0	test	<img class = center src='/static/experiments/beast_fmri_test/images/redD.png'></img>	stop	2100.0	3.0	19.0	stop	non-target	D	71,Green Button	89,Yellow Button	550.0	650.0	2150.0	2100.0	0.0	650.0	1.0	0.0	go_stim
95780.541752699995	2100.0	n/a	-1	-1	2750	213.4582473	stim	stop-signal	436	1112141	0.0-19.19-1.19	beast_fmri_test	310	1110015,/,1110695,/,1111376,/,1112055,/	t,t,t,t	<img class = center src='/static/experiments/beast_fmri_test/images/D.png'></img>	71,89	2750.0	test	<img class = center src='/static/experiments/beast_fmri_test/images/redD.png'></img>	stop	2100.0	3.0	19.0	stop	non-target	D	71,Green Button	89,Yellow Button	550.0	650.0	2150.0	2100.0	0.0	650.0	1.0	0.0	stop_stim
96430.541752699995	213.4582473	n/a	-1	-1	2750	213.4582473	stim	stop-signal	436	1112141	0.0-19.19-1.19	beast_fmri_test	310	1110015,/,1110695,/,1111376,/,1112055,/	t,t,t,t	<img class = center src='/static/experiments/beast_fmri_test/images/D.png'></img>	71,89	2750.0	test	<img class = center src='/static/experiments/beast_fmri_test/images/redD.png'></img>	stop	2100.0	3.0	19.0	stop	non-target	D	71,Green Button	89,Yellow Button	550.0	650.0	2150.0	2100.0	0.0	650.0	1.0	0.0	ITI
97375	500.0	n/a	-1	-1	500	0.0	fixation	poldrack-single-stim	437	1112872	0.0-19.20-0.20	beast_fmri_test	310	1112735,/	t	<div class = centerbox><div class = fixation>+</div></div>	none	500.0	test	n/a	n/a	n/a	n/a	n/a	n/a	n/a	n/a	n/a	n/a	n/a	n/a	n/a	n/a	n/a	n/a	n/a	n/a	fixation
96720.04730960005	2750.0	n/a	916	71	2750	656.9526904	stim	stop-signal	438	1115624	0.0-19.20-1.20	beast_fmri_test	310	1113416,/,1114097,/,1114775,/,1115455,/,1116135,/	t,t,t,t,t	<img class = center src='/static/experiments/beast_fmri_test/images/D.png'></img>	71,89	2750.0	test	<img class = center src='/static/experiments/beast_fmri_test/images/redD.png'></img>	go	2200.0	3.0	20.0	go	target	D	71,Green Button	89,Yellow Button	550.0	700.0	2200.0	2100.0	1.0	550.0	n/a	1.0	go_stim
99470.04730960005	656.9526904	n/a	916	71	2750	656.9526904	stim	stop-signal	438	1115624	0.0-19.20-1.20	beast_fmri_test	310	1113416,/,1114097,/,1114775,/,1115455,/,1116135,/	t,t,t,t,t	<img class = center src='/static/experiments/beast_fmri_test/images/D.png'></img>	71,89	2750.0	test	<img class = center src='/static/experiments/beast_fmri_test/images/redD.png'></img>	go	2200.0	3.0	20.0	go	target	D	71,Green Button	89,Yellow Button	550.0	700.0	2200.0	2100.0	1.0	550.0	n/a	1.0	ITI
101304	500.0	n/a	-1	-1	500	0.0	fixation	poldrack-single-stim	439	1116801	0.0-19.21-0.21	beast_fmri_test	310	n/a	n/a	<div class = centerbox><div class = fixation>+</div></div>	none	500.0	test	n/a	n/a	n/a	n/a	n/a	n/a	n/a	n/a	n/a	n/a	n/a	n/a	n/a	n/a	n/a	n/a	n/a	n/a	fixation
101224.93501987006	2750.0	n/a	767	89	2750	81.06498013	stim	stop-signal	440	1119553	0.0-19.21-1.21	beast_fmri_test	310	1116815,/,1117496,/,1118175,/,1118855,/,1119536,/	t,t,t,t,t	<img class = center src='/static/experiments/beast_fmri_test/images/P.png'></img>	71,89	2750.0	test	<img class = center src='/static/experiments/beast_fmri_test/images/redP.png'></img>	go	2200.0	3.0	21.0	go	target	P	71,Green Button	89,Yellow Button	550.0	700.0	2200.0	2100.0	0.0	550.0	n/a	0.0	go_stim
103974.93501987006	81.06498013	n/a	767	89	2750	81.06498013	stim	stop-signal	440	1119553	0.0-19.21-1.21	beast_fmri_test	310	1116815,/,1117496,/,1118175,/,1118855,/,1119536,/	t,t,t,t,t	<img class = center src='/static/experiments/beast_fmri_test/images/P.png'></img>	71,89	2750.0	test	<img class = center src='/static/experiments/beast_fmri_test/images/redP.png'></img>	go	2200.0	3.0	21.0	go	target	P	71,Green Button	89,Yellow Button	550.0	700.0	2200.0	2100.0	0.0	550.0	n/a	0.0	ITI
104655	500.0	n/a	-1	-1	500	0.0	fixation	poldrack-single-stim	441	1120152	0.0-19.22-0.22	beast_fmri_test	310	n/a	n/a	<div class = centerbox><div class = fixation>+</div></div>	none	500.0	test	n/a	n/a	n/a	n/a	n/a	n/a	n/a	n/a	n/a	n/a	n/a	n/a	n/a	n/a	n/a	n/a	n/a	n/a	fixation
104250.55012929998	2750.0	n/a	1332	89	2750	405.4498707	stim	stop-signal	442	1122903	0.0-19.22-1.22	beast_fmri_test	310	1120216,/,1120895,/,1121575,/,1122255,/,1122935,/	t,t,t,t,t	<img class = center src='/static/experiments/beast_fmri_test/images/T.png'></img>	71,89	2750.0	test	<img class = center src='/static/experiments/beast_fmri_test/images/redT.png'></img>	go	2050.0	3.0	22.0	go	non-target	T	71,Green Button	89,Yellow Button	550.0	700.0	2200.0	2050.0	1.0	700.0	n/a	1.0	go_stim
107000.55012929998	405.4498707	n/a	1332	89	2750	405.4498707	stim	stop-signal	442	1122903	0.0-19.22-1.22	beast_fmri_test	310	1120216,/,1120895,/,1121575,/,1122255,/,1122935,/	t,t,t,t,t	<img class = center src='/static/experiments/beast_fmri_test/images/T.png'></img>	71,89	2750.0	test	<img class = center src='/static/experiments/beast_fmri_test/images/redT.png'></img>	go	2050.0	3.0	22.0	go	non-target	T	71,Green Button	89,Yellow Button	550.0	700.0	2200.0	2050.0	1.0	700.0	n/a	1.0	ITI
108330	500.0	n/a	-1	-1	500	0.0	fixation	poldrack-single-stim	443	1123827	0.0-19.23-0.23	beast_fmri_test	310	1123615,/	t	<div class = centerbox><div class = fixation>+</div></div>	none	500.0	test	n/a	n/a	n/a	n/a	n/a	n/a	n/a	n/a	n/a	n/a	n/a	n/a	n/a	n/a	n/a	n/a	n/a	n/a	fixation
106959.80872000009	550.0	n/a	-1	-1	2750	1371.19128	stim	stop-signal	444	1126578	0.0-19.23-1.23	beast_fmri_test	310	1124297,/,1124975,/,1125655,/,1126335,/,1127015,/,1127695,/	t,t,t,t,t,t	<img class = center src='/static/experiments/beast_fmri_test/images/D.png'></img>	71,89	2750.0	test	<img class = center src='/static/experiments/beast_fmri_test/images/redD.png'></img>	stop	2200.0	3.0	23.0	stop	target	D	71,Green Button	89,Yellow Button	550.0	700.0	2200.0	2050.0	0.0	550.0	1.0	0.0	go_stim
109159.80872000009	2200.0	n/a	-1	-1	2750	1371.19128	stim	stop-signal	444	1126578	0.0-19.23-1.23	beast_fmri_test	310	1124297,/,1124975,/,1125655,/,1126335,/,1127015,/,1127695,/	t,t,t,t,t,t	<img class = center src='/static/experiments/beast_fmri_test/images/D.png'></img>	71,89	2750.0	test	<img class = center src='/static/experiments/beast_fmri_test/images/redD.png'></img>	stop	2200.0	3.0	23.0	stop	target	D	71,Green Button	89,Yellow Button	550.0	700.0	2200.0	2050.0	0.0	550.0	1.0	0.0	stop_stim
109709.80872000009	1371.19128	n/a	-1	-1	2750	1371.19128	stim	stop-signal	444	1126578	0.0-19.23-1.23	beast_fmri_test	310	1124297,/,1124975,/,1125655,/,1126335,/,1127015,/,1127695,/	t,t,t,t,t,t	<img class = center src='/static/experiments/beast_fmri_test/images/D.png'></img>	71,89	2750.0	test	<img class = center src='/static/experiments/beast_fmri_test/images/redD.png'></img>	stop	2200.0	3.0	23.0	stop	target	D	71,Green Button	89,Yellow Button	550.0	700.0	2200.0	2050.0	0.0	550.0	1.0	0.0	ITI
112970	500.0	n/a	-1	-1	500	0.0	fixation	poldrack-single-stim	445	1128467	0.0-19.24-0.24	beast_fmri_test	310	1128375,/	t	<div class = centerbox><div class = fixation>+</div></div>	none	500.0	test	n/a	n/a	n/a	n/a	n/a	n/a	n/a	n/a	n/a	n/a	n/a	n/a	n/a	n/a	n/a	n/a	n/a	n/a	fixation
112569.48319420009	2750.0	n/a	889	89	2750	402.5168058	stim	stop-signal	446	1131219	0.0-19.24-1.24	beast_fmri_test	310	1129055,/,1129735,/,1130415,/,1131096,/	t,t,t,t	<img class = center src='/static/experiments/beast_fmri_test/images/V.png'></img>	71,89	2750.0	test	<img class = center src='/static/experiments/beast_fmri_test/images/redV.png'></img>	go	2050.0	3.0	24.0	go	non-target	V	71,Green Button	89,Yellow Button	600.0	700.0	2200.0	2050.0	1.0	700.0	n/a	1.0	go_stim
115319.48319420009	402.5168058	n/a	889	89	2750	402.5168058	stim	stop-signal	446	1131219	0.0-19.24-1.24	beast_fmri_test	310	1129055,/,1129735,/,1130415,/,1131096,/	t,t,t,t	<img class = center src='/static/experiments/beast_fmri_test/images/V.png'></img>	71,89	2750.0	test	<img class = center src='/static/experiments/beast_fmri_test/images/redV.png'></img>	go	2050.0	3.0	24.0	go	non-target	V	71,Green Button	89,Yellow Button	600.0	700.0	2200.0	2050.0	1.0	700.0	n/a	1.0	ITI
116643	500.0	n/a	-1	-1	500	0.0	fixation	poldrack-single-stim	447	1132140	0.0-19.25-0.25	beast_fmri_test	310	1131776,/	t	<div class = centerbox><div class = fixation>+</div></div>	none	500.0	test	n/a	n/a	n/a	n/a	n/a	n/a	n/a	n/a	n/a	n/a	n/a	n/a	n/a	n/a	n/a	n/a	n/a	n/a	fixation
116099.54109530011	2750.0	n/a	807	89	2750	545.4589047	stim	stop-signal	448	1134892	0.0-19.25-1.25	beast_fmri_test	310	1132456,/,1133136,/,1133815,/,1134496,/,1135176,/	t,t,t,t,t	<img class = center src='/static/experiments/beast_fmri_test/images/D.png'></img>	71,89	2750.0	test	<img class = center src='/static/experiments/beast_fmri_test/images/redD.png'></img>	go	2050.0	3.0	25.0	go	non-target	D	71,Green Button	89,Yellow Button	600.0	700.0	2200.0	2050.0	1.0	700.0	n/a	1.0	go_stim
118849.54109530011	545.4589047	n/a	807	89	2750	545.4589047	stim	stop-signal	448	1134892	0.0-19.25-1.25	beast_fmri_test	310	1132456,/,1133136,/,1133815,/,1134496,/,1135176,/	t,t,t,t,t	<img class = center src='/static/experiments/beast_fmri_test/images/D.png'></img>	71,89	2750.0	test	<img class = center src='/static/experiments/beast_fmri_test/images/redD.png'></img>	go	2050.0	3.0	25.0	go	non-target	D	71,Green Button	89,Yellow Button	600.0	700.0	2200.0	2050.0	1.0	700.0	n/a	1.0	ITI
120456	500.0	n/a	-1	-1	500	0.0	fixation	poldrack-single-stim	449	1135953	0.0-19.26-0.26	beast_fmri_test	310	1135855,/	t	<div class = centerbox><div class = fixation>+</div></div>	none	500.0	test	n/a	n/a	n/a	n/a	n/a	n/a	n/a	n/a	n/a	n/a	n/a	n/a	n/a	n/a	n/a	n/a	n/a	n/a	fixation
119859.00764980004	2750.0	n/a	2570	89	2750	598.9923502	stim	stop-signal	450	1138705	0.0-19.26-1.26	beast_fmri_test	310	1136536,/,1137215,/,1137895,/,1138576,/,1139256,/	t,t,t,t,t	<img class = center src='/static/experiments/beast_fmri_test/images/P.png'></img>	71,89	2750.0	test	<img class = center src='/static/experiments/beast_fmri_test/images/redP.png'></img>	go	2050.0	3.0	26.0	go	non-target	P	71,Green Button	89,Yellow Button	600.0	700.0	2200.0	2050.0	1.0	700.0	n/a	1.0	go_stim
122609.00764980004	598.9923502	n/a	2570	89	2750	598.9923502	stim	stop-signal	450	1138705	0.0-19.26-1.26	beast_fmri_test	310	1136536,/,1137215,/,1137895,/,1138576,/,1139256,/	t,t,t,t,t	<img class = center src='/static/experiments/beast_fmri_test/images/P.png'></img>	71,89	2750.0	test	<img class = center src='/static/experiments/beast_fmri_test/images/redP.png'></img>	go	2050.0	3.0	26.0	go	non-target	P	71,Green Button	89,Yellow Button	600.0	700.0	2200.0	2050.0	1.0	700.0	n/a	1.0	ITI
124322	500.0	n/a	-1	-1	500	0.0	fixation	poldrack-single-stim	451	1139819	0.0-19.27-0.27	beast_fmri_test	310	n/a	n/a	<div class = centerbox><div class = fixation>+</div></div>	none	500.0	test	n/a	n/a	n/a	n/a	n/a	n/a	n/a	n/a	n/a	n/a	n/a	n/a	n/a	n/a	n/a	n/a	n/a	n/a	fixation
123185.45521500008	600.0	n/a	859	89	2750	1138.544785	stim	stop-signal	452	1142571	0.0-19.27-1.27	beast_fmri_test	310	1139935,/,1140616,/,1141296,/,1141976,/,1142655,/,1143335,/	t,t,t,t,t,t	<img class = center src='/static/experiments/beast_fmri_test/images/V.png'></img>	71,89	2750.0	test	<img class = center src='/static/experiments/beast_fmri_test/images/redV.png'></img>	stop	2150.0	3.0	27.0	stop	target	V	71,Green Button	89,Yellow Button	600.0	700.0	2150.0	2050.0	0.0	600.0	0.0	0.0	go_stim
125335.45521500008	2150.0	n/a	859	89	2750	1138.544785	stim	stop-signal	452	1142571	0.0-19.27-1.27	beast_fmri_test	310	1139935,/,1140616,/,1141296,/,1141976,/,1142655,/,1143335,/	t,t,t,t,t,t	<img class = center src='/static/experiments/beast_fmri_test/images/V.png'></img>	71,89	2750.0	test	<img class = center src='/static/experiments/beast_fmri_test/images/redV.png'></img>	stop	2150.0	3.0	27.0	stop	target	V	71,Green Button	89,Yellow Button	600.0	700.0	2150.0	2050.0	0.0	600.0	0.0	0.0	stop_stim
125935.45521500008	1138.544785	n/a	859	89	2750	1138.544785	stim	stop-signal	452	1142571	0.0-19.27-1.27	beast_fmri_test	310	1139935,/,1140616,/,1141296,/,1141976,/,1142655,/,1143335,/	t,t,t,t,t,t	<img class = center src='/static/experiments/beast_fmri_test/images/V.png'></img>	71,89	2750.0	test	<img class = center src='/static/experiments/beast_fmri_test/images/redV.png'></img>	stop	2150.0	3.0	27.0	stop	target	V	71,Green Button	89,Yellow Button	600.0	700.0	2150.0	2050.0	0.0	600.0	0.0	0.0	ITI
128732	500.0	n/a	-1	-1	500	0.0	fixation	poldrack-single-stim	453	1144229	0.0-19.28-0.28	beast_fmri_test	310	1144016,/	t	<div class = centerbox><div class = fixation>+</div></div>	none	500.0	test	n/a	n/a	n/a	n/a	n/a	n/a	n/a	n/a	n/a	n/a	n/a	n/a	n/a	n/a	n/a	n/a	n/a	n/a	fixation
128504.18714049994	2750.0	n/a	1342	71	2750	230.8128595	stim	stop-signal	454	1146982	0.0-19.28-1.28	beast_fmri_test	310	1144696,/,1145375,/,1146056,/,1146735,/	t,t,t,t	<img class = center src='/static/experiments/beast_fmri_test/images/T.png'></img>	71,89	2750.0	test	<img class = center src='/static/experiments/beast_fmri_test/images/redT.png'></img>	go	2050.0	3.0	28.0	go	non-target	T	71,Green Button	89,Yellow Button	550.0	700.0	2150.0	2050.0	0.0	700.0	n/a	0.0	go_stim
131254.18714049994	230.8128595	n/a	1342	71	2750	230.8128595	stim	stop-signal	454	1146982	0.0-19.28-1.28	beast_fmri_test	310	1144696,/,1145375,/,1146056,/,1146735,/	t,t,t,t	<img class = center src='/static/experiments/beast_fmri_test/images/T.png'></img>	71,89	2750.0	test	<img class = center src='/static/experiments/beast_fmri_test/images/redT.png'></img>	go	2050.0	3.0	28.0	go	non-target	T	71,Green Button	89,Yellow Button	550.0	700.0	2150.0	2050.0	0.0	700.0	n/a	0.0	ITI
132233	500.0	n/a	-1	-1	500	0.0	fixation	poldrack-single-stim	455	1147730	0.0-19.29-0.29	beast_fmri_test	310	1147416,/	t	<div class = centerbox><div class = fixation>+</div></div>	none	500.0	test	n/a	n/a	n/a	n/a	n/a	n/a	n/a	n/a	n/a	n/a	n/a	n/a	n/a	n/a	n/a	n/a	n/a	n/a	fixation
130440.60236399993	700.0	n/a	835	89	2750	1794.397636	stim	stop-signal	456	1150482	0.0-19.29-1.29	beast_fmri_test	310	1148095,/,1148775,/,1149455,/,1150136,/,1150815,/,1151495,/,1152175,/	t,t,t,t,t,t,t	<img class = center src='/static/experiments/beast_fmri_test/images/V.png'></img>	71,89	2750.0	test	<img class = center src='/static/experiments/beast_fmri_test/images/redV.png'></img>	stop	2050.0	3.0	29.0	stop	non-target	V	71,Green Button	89,Yellow Button	550.0	700.0	2150.0	2050.0	0.0	700.0	0.0	1.0	go_stim
132490.60236399993	2050.0	n/a	835	89	2750	1794.397636	stim	stop-signal	456	1150482	0.0-19.29-1.29	beast_fmri_test	310	1148095,/,1148775,/,1149455,/,1150136,/,1150815,/,1151495,/,1152175,/	t,t,t,t,t,t,t	<img class = center src='/static/experiments/beast_fmri_test/images/V.png'></img>	71,89	2750.0	test	<img class = center src='/static/experiments/beast_fmri_test/images/redV.png'></img>	stop	2050.0	3.0	29.0	stop	non-target	V	71,Green Button	89,Yellow Button	550.0	700.0	2150.0	2050.0	0.0	700.0	0.0	1.0	stop_stim
133190.60236399993	1794.397636	n/a	835	89	2750	1794.397636	stim	stop-signal	456	1150482	0.0-19.29-1.29	beast_fmri_test	310	1148095,/,1148775,/,1149455,/,1150136,/,1150815,/,1151495,/,1152175,/	t,t,t,t,t,t,t	<img class = center src='/static/experiments/beast_fmri_test/images/V.png'></img>	71,89	2750.0	test	<img class = center src='/static/experiments/beast_fmri_test/images/redV.png'></img>	stop	2050.0	3.0	29.0	stop	non-target	V	71,Green Button	89,Yellow Button	550.0	700.0	2150.0	2050.0	0.0	700.0	0.0	1.0	ITI
137298	500.0	n/a	-1	-1	500	0.0	fixation	poldrack-single-stim	457	1152795	0.0-19.30-0.30	beast_fmri_test	310	n/a	n/a	<div class = centerbox><div class = fixation>+</div></div>	none	500.0	test	n/a	n/a	n/a	n/a	n/a	n/a	n/a	n/a	n/a	n/a	n/a	n/a	n/a	n/a	n/a	n/a	n/a	n/a	fixation
136654.10552380001	650.0	n/a	849	89	2750	644.8944762	stim	stop-signal	458	1155546	0.0-19.30-1.30	beast_fmri_test	310	1152855,/,1153535,/,1154215,/,1154895,/,1155575,/	t,t,t,t,t	<img class = center src='/static/experiments/beast_fmri_test/images/T.png'></img>	71,89	2750.0	test	<img class = center src='/static/experiments/beast_fmri_test/images/redT.png'></img>	stop	2100.0	3.0	30.0	stop	non-target	T	71,Green Button	89,Yellow Button	550.0	650.0	2150.0	2100.0	0.0	650.0	0.0	1.0	go_stim
138754.10552380001	2100.0	n/a	849	89	2750	644.8944762	stim	stop-signal	458	1155546	0.0-19.30-1.30	beast_fmri_test	310	1152855,/,1153535,/,1154215,/,1154895,/,1155575,/	t,t,t,t,t	<img class = center src='/static/experiments/beast_fmri_test/images/T.png'></img>	71,89	2750.0	test	<img class = center src='/static/experiments/beast_fmri_test/images/redT.png'></img>	stop	2100.0	3.0	30.0	stop	non-target	T	71,Green Button	89,Yellow Button	550.0	650.0	2150.0	2100.0	0.0	650.0	0.0	1.0	stop_stim
139404.10552380001	644.8944762	n/a	849	89	2750	644.8944762	stim	stop-signal	458	1155546	0.0-19.30-1.30	beast_fmri_test	310	1152855,/,1153535,/,1154215,/,1154895,/,1155575,/	t,t,t,t,t	<img class = center src='/static/experiments/beast_fmri_test/images/T.png'></img>	71,89	2750.0	test	<img class = center src='/static/experiments/beast_fmri_test/images/redT.png'></img>	stop	2100.0	3.0	30.0	stop	non-target	T	71,Green Button	89,Yellow Button	550.0	650.0	2150.0	2100.0	0.0	650.0	0.0	1.0	ITI
141213	500.0	n/a	-1	-1	500	0.0	fixation	poldrack-single-stim	459	1156710	0.0-19.31-0.31	beast_fmri_test	310	1156255,/	t	<div class = centerbox><div class = fixation>+</div></div>	none	500.0	test	n/a	n/a	n/a	n/a	n/a	n/a	n/a	n/a	n/a	n/a	n/a	n/a	n/a	n/a	n/a	n/a	n/a	n/a	fixation
140388.41003979999	2750.0	n/a	1718	89	2750	826.5899602	stim	stop-signal	460	1159462	0.0-19.31-1.31	beast_fmri_test	310	1156935,/,1157615,/,1158295,/,1158975,/,1159655,/	t,t,t,t,t	<img class = center src='/static/experiments/beast_fmri_test/images/V.png'></img>	71,89	2750.0	test	<img class = center src='/static/experiments/beast_fmri_test/images/redV.png'></img>	go	2150.0	3.0	31.0	go	non-target	V	71,Green Button	89,Yellow Button	550.0	600.0	2150.0	2150.0	1.0	600.0	n/a	1.0	go_stim
143138.41003979999	826.5899602	n/a	1718	89	2750	826.5899602	stim	stop-signal	460	1159462	0.0-19.31-1.31	beast_fmri_test	310	1156935,/,1157615,/,1158295,/,1158975,/,1159655,/	t,t,t,t,t	<img class = center src='/static/experiments/beast_fmri_test/images/V.png'></img>	71,89	2750.0	test	<img class = center src='/static/experiments/beast_fmri_test/images/redV.png'></img>	go	2150.0	3.0	31.0	go	non-target	V	71,Green Button	89,Yellow Button	550.0	600.0	2150.0	2150.0	1.0	600.0	n/a	1.0	ITI
145310	500.0	n/a	-1	-1	500	0.0	fixation	poldrack-single-stim	461	1160807	0.0-19.32-0.32	beast_fmri_test	310	1160335,/	t	<div class = centerbox><div class = fixation>+</div></div>	none	500.0	test	n/a	n/a	n/a	n/a	n/a	n/a	n/a	n/a	n/a	n/a	n/a	n/a	n/a	n/a	n/a	n/a	n/a	n/a	fixation
145224.77018951997	2750.0	n/a	1234	89	2750	87.22981048	stim	stop-signal	462	1163559	0.0-19.32-1.32	beast_fmri_test	310	1161016,/,1161696,/,1162375,/,1163055,/	t,t,t,t	<img class = center src='/static/experiments/beast_fmri_test/images/T.png'></img>	71,89	2750.0	test	<img class = center src='/static/experiments/beast_fmri_test/images/redT.png'></img>	go	2150.0	3.0	32.0	go	non-target	T	71,Green Button	89,Yellow Button	550.0	600.0	2150.0	2150.0	1.0	600.0	n/a	1.0	go_stim
147974.77018951997	87.22981048	n/a	1234	89	2750	87.22981048	stim	stop-signal	462	1163559	0.0-19.32-1.32	beast_fmri_test	310	1161016,/,1161696,/,1162375,/,1163055,/	t,t,t,t	<img class = center src='/static/experiments/beast_fmri_test/images/T.png'></img>	71,89	2750.0	test	<img class = center src='/static/experiments/beast_fmri_test/images/redT.png'></img>	go	2150.0	3.0	32.0	go	non-target	T	71,Green Button	89,Yellow Button	550.0	600.0	2150.0	2150.0	1.0	600.0	n/a	1.0	ITI
148668	500.0	n/a	-1	-1	500	0.0	fixation	poldrack-single-stim	463	1164165	0.0-19.33-0.33	beast_fmri_test	310	1163735,/	t	<div class = centerbox><div class = fixation>+</div></div>	none	500.0	test	n/a	n/a	n/a	n/a	n/a	n/a	n/a	n/a	n/a	n/a	n/a	n/a	n/a	n/a	n/a	n/a	n/a	n/a	fixation
144996.6743999999	600.0	n/a	-1	-1	2750	3673.3256	stim	stop-signal	464	1166917	0.0-19.33-1.33	beast_fmri_test	310	1164415,/,1165096,/,1165776,/,1166456,/,1167136,/,1167815,/,1168496,/,1169176,/,1169855,/,1170536,/	t,t,t,t,t,t,t,t,t,t	<img class = center src='/static/experiments/beast_fmri_test/images/P.png'></img>	71,89	2750.0	test	<img class = center src='/static/experiments/beast_fmri_test/images/redP.png'></img>	stop	2150.0	3.0	33.0	stop	non-target	P	71,Green Button	89,Yellow Button	550.0	600.0	2150.0	2150.0	0.0	600.0	1.0	0.0	go_stim
147146.6743999999	2150.0	n/a	-1	-1	2750	3673.3256	stim	stop-signal	464	1166917	0.0-19.33-1.33	beast_fmri_test	310	1164415,/,1165096,/,1165776,/,1166456,/,1167136,/,1167815,/,1168496,/,1169176,/,1169855,/,1170536,/	t,t,t,t,t,t,t,t,t,t	<img class = center src='/static/experiments/beast_fmri_test/images/P.png'></img>	71,89	2750.0	test	<img class = center src='/static/experiments/beast_fmri_test/images/redP.png'></img>	stop	2150.0	3.0	33.0	stop	non-target	P	71,Green Button	89,Yellow Button	550.0	600.0	2150.0	2150.0	0.0	600.0	1.0	0.0	stop_stim
147746.6743999999	3673.3256	n/a	-1	-1	2750	3673.3256	stim	stop-signal	464	1166917	0.0-19.33-1.33	beast_fmri_test	310	1164415,/,1165096,/,1165776,/,1166456,/,1167136,/,1167815,/,1168496,/,1169176,/,1169855,/,1170536,/	t,t,t,t,t,t,t,t,t,t	<img class = center src='/static/experiments/beast_fmri_test/images/P.png'></img>	71,89	2750.0	test	<img class = center src='/static/experiments/beast_fmri_test/images/redP.png'></img>	stop	2150.0	3.0	33.0	stop	non-target	P	71,Green Button	89,Yellow Button	550.0	600.0	2150.0	2150.0	0.0	600.0	1.0	0.0	ITI
155612	500.0	n/a	-1	-1	500	0.0	fixation	poldrack-single-stim	465	1171109	0.0-19.34-0.34	beast_fmri_test	310	n/a	n/a	<div class = centerbox><div class = fixation>+</div></div>	none	500.0	test	n/a	n/a	n/a	n/a	n/a	n/a	n/a	n/a	n/a	n/a	n/a	n/a	n/a	n/a	n/a	n/a	n/a	n/a	fixation
154005.24555799994	550.0	n/a	572	71	2750	1607.754442	stim	stop-signal	466	1173860	0.0-19.34-1.34	beast_fmri_test	310	1171216,/,1171895,/,1172575,/,1173256,/,1173935,/,1174616,/,1175297,/	t,t,t,t,t,t,t	<img class = center src='/static/experiments/beast_fmri_test/images/V.png'></img>	71,89	2750.0	test	<img class = center src='/static/experiments/beast_fmri_test/images/redV.png'></img>	stop	2200.0	3.0	34.0	stop	target	V	71,Green Button	89,Yellow Button	550.0	650.0	2200.0	2150.0	0.0	550.0	0.0	1.0	go_stim
156205.24555799994	2200.0	n/a	572	71	2750	1607.754442	stim	stop-signal	466	1173860	0.0-19.34-1.34	beast_fmri_test	310	1171216,/,1171895,/,1172575,/,1173256,/,1173935,/,1174616,/,1175297,/	t,t,t,t,t,t,t	<img class = center src='/static/experiments/beast_fmri_test/images/V.png'></img>	71,89	2750.0	test	<img class = center src='/static/experiments/beast_fmri_test/images/redV.png'></img>	stop	2200.0	3.0	34.0	stop	target	V	71,Green Button	89,Yellow Button	550.0	650.0	2200.0	2150.0	0.0	550.0	0.0	1.0	stop_stim
156755.24555799994	1607.754442	n/a	572	71	2750	1607.754442	stim	stop-signal	466	1173860	0.0-19.34-1.34	beast_fmri_test	310	1171216,/,1171895,/,1172575,/,1173256,/,1173935,/,1174616,/,1175297,/	t,t,t,t,t,t,t	<img class = center src='/static/experiments/beast_fmri_test/images/V.png'></img>	71,89	2750.0	test	<img class = center src='/static/experiments/beast_fmri_test/images/redV.png'></img>	stop	2200.0	3.0	34.0	stop	target	V	71,Green Button	89,Yellow Button	550.0	650.0	2200.0	2150.0	0.0	550.0	0.0	1.0	ITI
160487	500.0	n/a	-1	-1	500	0.0	fixation	poldrack-single-stim	467	1175984	0.0-19.35-0.35	beast_fmri_test	310	1175976,/	t	<div class = centerbox><div class = fixation>+</div></div>	none	500.0	test	n/a	n/a	n/a	n/a	n/a	n/a	n/a	n/a	n/a	n/a	n/a	n/a	n/a	n/a	n/a	n/a	n/a	n/a	fixation
159930.28467780002	2750.0	n/a	997	89	2750	558.7153222	stim	stop-signal	468	1178736	0.0-19.35-1.35	beast_fmri_test	310	1176656,/,1177336,/,1178015,/,1178695,/	t,t,t,t	<img class = center src='/static/experiments/beast_fmri_test/images/P.png'></img>	71,89	2750.0	test	<img class = center src='/static/experiments/beast_fmri_test/images/redP.png'></img>	go	2100.0	3.0	35.0	go	non-target	P	71,Green Button	89,Yellow Button	500.0	650.0	2200.0	2100.0	1.0	650.0	n/a	1.0	go_stim
162680.28467780002	558.7153222	n/a	997	89	2750	558.7153222	stim	stop-signal	468	1178736	0.0-19.35-1.35	beast_fmri_test	310	1176656,/,1177336,/,1178015,/,1178695,/	t,t,t,t	<img class = center src='/static/experiments/beast_fmri_test/images/P.png'></img>	71,89	2750.0	test	<img class = center src='/static/experiments/beast_fmri_test/images/redP.png'></img>	go	2100.0	3.0	35.0	go	non-target	P	71,Green Button	89,Yellow Button	500.0	650.0	2200.0	2100.0	1.0	650.0	n/a	1.0	ITI
164318	500.0	n/a	-1	-1	500	0.0	fixation	poldrack-single-stim	469	1179815	0.0-19.36-0.36	beast_fmri_test	310	1179375,/	t	<div class = centerbox><div class = fixation>+</div></div>	none	500.0	test	n/a	n/a	n/a	n/a	n/a	n/a	n/a	n/a	n/a	n/a	n/a	n/a	n/a	n/a	n/a	n/a	n/a	n/a	fixation
162899.36113200011	2750.0	n/a	809	71	2750	1420.638868	stim	stop-signal	470	1182567	0.0-19.36-1.36	beast_fmri_test	310	1180055,/,1180735,/,1181416,/,1182095,/,1182775,/,1183456,/	t,t,t,t,t,t	<img class = center src='/static/experiments/beast_fmri_test/images/P.png'></img>	71,89	2750.0	test	<img class = center src='/static/experiments/beast_fmri_test/images/redP.png'></img>	go	2250.0	3.0	36.0	go	target	P	71,Green Button	89,Yellow Button	500.0	650.0	2250.0	2100.0	1.0	500.0	n/a	1.0	go_stim
165649.36113200011	1420.638868	n/a	809	71	2750	1420.638868	stim	stop-signal	470	1182567	0.0-19.36-1.36	beast_fmri_test	310	1180055,/,1180735,/,1181416,/,1182095,/,1182775,/,1183456,/	t,t,t,t,t,t	<img class = center src='/static/experiments/beast_fmri_test/images/P.png'></img>	71,89	2750.0	test	<img class = center src='/static/experiments/beast_fmri_test/images/redP.png'></img>	go	2250.0	3.0	36.0	go	target	P	71,Green Button	89,Yellow Button	500.0	650.0	2250.0	2100.0	1.0	500.0	n/a	1.0	ITI
169009	500.0	n/a	-1	-1	500	0.0	fixation	poldrack-single-stim	471	1184506	0.0-19.37-0.37	beast_fmri_test	310	1184136,/	t	<div class = centerbox><div class = fixation>+</div></div>	none	500.0	test	n/a	n/a	n/a	n/a	n/a	n/a	n/a	n/a	n/a	n/a	n/a	n/a	n/a	n/a	n/a	n/a	n/a	n/a	fixation
168900.98120929999	500.0	n/a	-1	-1	2750	111.0187907	stim	stop-signal	472	1187259	0.0-19.37-1.37	beast_fmri_test	310	1184816,/,1185496,/,1186175,/,1186855,/	t,t,t,t	<img class = center src='/static/experiments/beast_fmri_test/images/V.png'></img>	71,89	2750.0	test	<img class = center src='/static/experiments/beast_fmri_test/images/redV.png'></img>	stop	2250.0	3.0	37.0	stop	target	V	71,Green Button	89,Yellow Button	500.0	650.0	2250.0	2100.0	0.0	500.0	1.0	0.0	go_stim
171150.98120929999	2250.0	n/a	-1	-1	2750	111.0187907	stim	stop-signal	472	1187259	0.0-19.37-1.37	beast_fmri_test	310	1184816,/,1185496,/,1186175,/,1186855,/	t,t,t,t	<img class = center src='/static/experiments/beast_fmri_test/images/V.png'></img>	71,89	2750.0	test	<img class = center src='/static/experiments/beast_fmri_test/images/redV.png'></img>	stop	2250.0	3.0	37.0	stop	target	V	71,Green Button	89,Yellow Button	500.0	650.0	2250.0	2100.0	0.0	500.0	1.0	0.0	stop_stim
171650.98120929999	111.0187907	n/a	-1	-1	2750	111.0187907	stim	stop-signal	472	1187259	0.0-19.37-1.37	beast_fmri_test	310	1184816,/,1185496,/,1186175,/,1186855,/	t,t,t,t	<img class = center src='/static/experiments/beast_fmri_test/images/V.png'></img>	71,89	2750.0	test	<img class = center src='/static/experiments/beast_fmri_test/images/redV.png'></img>	stop	2250.0	3.0	37.0	stop	target	V	71,Green Button	89,Yellow Button	500.0	650.0	2250.0	2100.0	0.0	500.0	1.0	0.0	ITI
172390	500.0	n/a	-1	-1	500	0.0	fixation	poldrack-single-stim	473	1187887	0.0-19.38-0.38	beast_fmri_test	310	1187535,/	t	<div class = centerbox><div class = fixation>+</div></div>	none	500.0	test	n/a	n/a	n/a	n/a	n/a	n/a	n/a	n/a	n/a	n/a	n/a	n/a	n/a	n/a	n/a	n/a	n/a	n/a	fixation
171343.54658100009	2750.0	n/a	832	89	2750	1048.453419	stim	stop-signal	474	1190639	0.0-19.38-1.38	beast_fmri_test	310	1188215,/,1188895,/,1189575,/,1190255,/,1190935,/,1191615,/	t,t,t,t,t,t	<img class = center src='/static/experiments/beast_fmri_test/images/T.png'></img>	71,89	2750.0	test	<img class = center src='/static/experiments/beast_fmri_test/images/redT.png'></img>	go	2100.0	3.0	38.0	go	non-target	T	71,Green Button	89,Yellow Button	550.0	650.0	2250.0	2100.0	1.0	650.0	n/a	1.0	go_stim
174093.54658100009	1048.453419	n/a	832	89	2750	1048.453419	stim	stop-signal	474	1190639	0.0-19.38-1.38	beast_fmri_test	310	1188215,/,1188895,/,1189575,/,1190255,/,1190935,/,1191615,/	t,t,t,t,t,t	<img class = center src='/static/experiments/beast_fmri_test/images/T.png'></img>	71,89	2750.0	test	<img class = center src='/static/experiments/beast_fmri_test/images/redT.png'></img>	go	2100.0	3.0	38.0	go	non-target	T	71,Green Button	89,Yellow Button	550.0	650.0	2250.0	2100.0	1.0	650.0	n/a	1.0	ITI
176711	500.0	n/a	-1	-1	500	0.0	fixation	poldrack-single-stim	475	1192208	0.0-19.39-0.39	beast_fmri_test	310	n/a	n/a	<div class = centerbox><div class = fixation>+</div></div>	none	500.0	test	n/a	n/a	n/a	n/a	n/a	n/a	n/a	n/a	n/a	n/a	n/a	n/a	n/a	n/a	n/a	n/a	n/a	n/a	fixation
174807.98584700003	2750.0	n/a	1412	71	2750	1905.014153	stim	stop-signal	476	1194960	0.0-19.39-1.39	beast_fmri_test	310	1192295,/,1192975,/,1193655,/,1194335,/,1195015,/,1195696,/,1196375,/	t,t,t,t,t,t,t	<img class = center src='/static/experiments/beast_fmri_test/images/P.png'></img>	71,89	2750.0	test	<img class = center src='/static/experiments/beast_fmri_test/images/redP.png'></img>	go	2200.0	3.0	39.0	go	target	P	71,Green Button	89,Yellow Button	550.0	650.0	2200.0	2100.0	1.0	550.0	n/a	1.0	go_stim
177557.98584700003	1905.014153	n/a	1412	71	2750	1905.014153	stim	stop-signal	476	1194960	0.0-19.39-1.39	beast_fmri_test	310	1192295,/,1192975,/,1193655,/,1194335,/,1195015,/,1195696,/,1196375,/	t,t,t,t,t,t,t	<img class = center src='/static/experiments/beast_fmri_test/images/P.png'></img>	71,89	2750.0	test	<img class = center src='/static/experiments/beast_fmri_test/images/redP.png'></img>	go	2200.0	3.0	39.0	go	target	P	71,Green Button	89,Yellow Button	550.0	650.0	2200.0	2100.0	1.0	550.0	n/a	1.0	ITI
181885	500.0	n/a	-1	-1	500	0.0	fixation	poldrack-single-stim	477	1197382	0.0-19.40-0.40	beast_fmri_test	310	1197055,/	t	<div class = centerbox><div class = fixation>+</div></div>	none	500.0	test	n/a	n/a	n/a	n/a	n/a	n/a	n/a	n/a	n/a	n/a	n/a	n/a	n/a	n/a	n/a	n/a	n/a	n/a	fixation
181013.23213750008	650.0	n/a	-1	-1	2750	873.7678625	stim	stop-signal	478	1200134	0.0-19.40-1.40	beast_fmri_test	310	1197735,/,1198415,/,1199095,/,1199776,/,1200456,/	t,t,t,t,t	<img class = center src='/static/experiments/beast_fmri_test/images/T.png'></img>	71,89	2750.0	test	<img class = center src='/static/experiments/beast_fmri_test/images/redT.png'></img>	stop	2100.0	3.0	40.0	stop	non-target	T	71,Green Button	89,Yellow Button	550.0	650.0	2200.0	2100.0	0.0	650.0	1.0	0.0	go_stim
183113.23213750008	2100.0	n/a	-1	-1	2750	873.7678625	stim	stop-signal	478	1200134	0.0-19.40-1.40	beast_fmri_test	310	1197735,/,1198415,/,1199095,/,1199776,/,1200456,/	t,t,t,t,t	<img class = center src='/static/experiments/beast_fmri_test/images/T.png'></img>	71,89	2750.0	test	<img class = center src='/static/experiments/beast_fmri_test/images/redT.png'></img>	stop	2100.0	3.0	40.0	stop	non-target	T	71,Green Button	89,Yellow Button	550.0	650.0	2200.0	2100.0	0.0	650.0	1.0	0.0	stop_stim
183763.23213750008	873.7678625	n/a	-1	-1	2750	873.7678625	stim	stop-signal	478	1200134	0.0-19.40-1.40	beast_fmri_test	310	1197735,/,1198415,/,1199095,/,1199776,/,1200456,/	t,t,t,t,t	<img class = center src='/static/experiments/beast_fmri_test/images/T.png'></img>	71,89	2750.0	test	<img class = center src='/static/experiments/beast_fmri_test/images/redT.png'></img>	stop	2100.0	3.0	40.0	stop	non-target	T	71,Green Button	89,Yellow Button	550.0	650.0	2200.0	2100.0	0.0	650.0	1.0	0.0	ITI
186030	500.0	n/a	-1	-1	500	0.0	fixation	poldrack-single-stim	479	1201527	0.0-19.41-0.41	beast_fmri_test	310	1201136,/	t	<div class = centerbox><div class = fixation>+</div></div>	none	500.0	test	n/a	n/a	n/a	n/a	n/a	n/a	n/a	n/a	n/a	n/a	n/a	n/a	n/a	n/a	n/a	n/a	n/a	n/a	fixation
185637.11350290012	2750.0	n/a	1412	89	2750	393.8864971	stim	stop-signal	480	1204278	0.0-19.41-1.41	beast_fmri_test	310	1201815,/,1202496,/,1203176,/,1203855,/,1204535,/	t,t,t,t,t	<img class = center src='/static/experiments/beast_fmri_test/images/T.png'></img>	71,89	2750.0	test	<img class = center src='/static/experiments/beast_fmri_test/images/redT.png'></img>	go	2200.0	3.0	41.0	go	target	T	71,Green Button	89,Yellow Button	550.0	700.0	2200.0	2100.0	0.0	550.0	n/a	0.0	go_stim
188387.11350290012	393.8864971	n/a	1412	89	2750	393.8864971	stim	stop-signal	480	1204278	0.0-19.41-1.41	beast_fmri_test	310	1201815,/,1202496,/,1203176,/,1203855,/,1204535,/	t,t,t,t,t	<img class = center src='/static/experiments/beast_fmri_test/images/T.png'></img>	71,89	2750.0	test	<img class = center src='/static/experiments/beast_fmri_test/images/redT.png'></img>	go	2200.0	3.0	41.0	go	target	T	71,Green Button	89,Yellow Button	550.0	700.0	2200.0	2100.0	0.0	550.0	n/a	0.0	ITI
189694	500.0	n/a	-1	-1	500	0.0	fixation	poldrack-single-stim	481	1205191	0.0-19.42-0.42	beast_fmri_test	310	n/a	n/a	<div class = centerbox><div class = fixation>+</div></div>	none	500.0	test	n/a	n/a	n/a	n/a	n/a	n/a	n/a	n/a	n/a	n/a	n/a	n/a	n/a	n/a	n/a	n/a	n/a	n/a	fixation
188125.90660799993	2750.0	n/a	1566	89	2750	1569.093392	stim	stop-signal	482	1207942	0.0-19.42-1.42	beast_fmri_test	310	1205216,/,1205896,/,1206576,/,1207256,/,1207936,/,1208615,/,1209296,/	t,t,t,t,t,t,t	<img class = center src='/static/experiments/beast_fmri_test/images/T.png'></img>	71,89	2750.0	test	<img class = center src='/static/experiments/beast_fmri_test/images/redT.png'></img>	go	2050.0	3.0	42.0	go	non-target	T	71,Green Button	89,Yellow Button	550.0	700.0	2200.0	2050.0	1.0	700.0	n/a	1.0	go_stim
190875.90660799993	1569.093392	n/a	1566	89	2750	1569.093392	stim	stop-signal	482	1207942	0.0-19.42-1.42	beast_fmri_test	310	1205216,/,1205896,/,1206576,/,1207256,/,1207936,/,1208615,/,1209296,/	t,t,t,t,t,t,t	<img class = center src='/static/experiments/beast_fmri_test/images/T.png'></img>	71,89	2750.0	test	<img class = center src='/static/experiments/beast_fmri_test/images/redT.png'></img>	go	2050.0	3.0	42.0	go	non-target	T	71,Green Button	89,Yellow Button	550.0	700.0	2200.0	2050.0	1.0	700.0	n/a	1.0	ITI
194531	500.0	n/a	-1	-1	500	0.0	fixation	poldrack-single-stim	483	1210028	0.0-19.43-0.43	beast_fmri_test	310	1209975,/	t	<div class = centerbox><div class = fixation>+</div></div>	none	500.0	test	n/a	n/a	n/a	n/a	n/a	n/a	n/a	n/a	n/a	n/a	n/a	n/a	n/a	n/a	n/a	n/a	n/a	n/a	fixation
194102.10232109996	700.0	n/a	-1	-1	2750	429.8976789	stim	stop-signal	484	1212779	0.0-19.43-1.43	beast_fmri_test	310	1210656,/,1211335,/,1212015,/,1212696,/	t,t,t,t	<img class = center src='/static/experiments/beast_fmri_test/images/P.png'></img>	71,89	2750.0	test	<img class = center src='/static/experiments/beast_fmri_test/images/redP.png'></img>	stop	2050.0	3.0	43.0	stop	non-target	P	71,Green Button	89,Yellow Button	550.0	700.0	2200.0	2050.0	0.0	700.0	1.0	0.0	go_stim
196152.10232109996	2050.0	n/a	-1	-1	2750	429.8976789	stim	stop-signal	484	1212779	0.0-19.43-1.43	beast_fmri_test	310	1210656,/,1211335,/,1212015,/,1212696,/	t,t,t,t	<img class = center src='/static/experiments/beast_fmri_test/images/P.png'></img>	71,89	2750.0	test	<img class = center src='/static/experiments/beast_fmri_test/images/redP.png'></img>	stop	2050.0	3.0	43.0	stop	non-target	P	71,Green Button	89,Yellow Button	550.0	700.0	2200.0	2050.0	0.0	700.0	1.0	0.0	stop_stim
196852.10232109996	429.8976789	n/a	-1	-1	2750	429.8976789	stim	stop-signal	484	1212779	0.0-19.43-1.43	beast_fmri_test	310	1210656,/,1211335,/,1212015,/,1212696,/	t,t,t,t	<img class = center src='/static/experiments/beast_fmri_test/images/P.png'></img>	71,89	2750.0	test	<img class = center src='/static/experiments/beast_fmri_test/images/redP.png'></img>	stop	2050.0	3.0	43.0	stop	non-target	P	71,Green Button	89,Yellow Button	550.0	700.0	2200.0	2050.0	0.0	700.0	1.0	0.0	ITI
198229	500.0	n/a	-1	-1	500	0.0	fixation	poldrack-single-stim	485	1213726	0.0-19.44-0.44	beast_fmri_test	310	1213376,/	t	<div class = centerbox><div class = fixation>+</div></div>	none	500.0	test	n/a	n/a	n/a	n/a	n/a	n/a	n/a	n/a	n/a	n/a	n/a	n/a	n/a	n/a	n/a	n/a	n/a	n/a	fixation
197989.93699970003	2750.0	n/a	616	71	2750	241.0630003	stim	stop-signal	486	1216478	0.0-19.44-1.44	beast_fmri_test	310	1214056,/,1214735,/,1215415,/,1216097,/	t,t,t,t	<img class = center src='/static/experiments/beast_fmri_test/images/T.png'></img>	71,89	2750.0	test	<img class = center src='/static/experiments/beast_fmri_test/images/redT.png'></img>	go	2200.0	3.0	44.0	go	target	T	71,Green Button	89,Yellow Button	550.0	750.0	2200.0	2050.0	1.0	550.0	n/a	1.0	go_stim
200739.93699970003	241.0630003	n/a	616	71	2750	241.0630003	stim	stop-signal	486	1216478	0.0-19.44-1.44	beast_fmri_test	310	1214056,/,1214735,/,1215415,/,1216097,/	t,t,t,t	<img class = center src='/static/experiments/beast_fmri_test/images/T.png'></img>	71,89	2750.0	test	<img class = center src='/static/experiments/beast_fmri_test/images/redT.png'></img>	go	2200.0	3.0	44.0	go	target	T	71,Green Button	89,Yellow Button	550.0	750.0	2200.0	2050.0	1.0	550.0	n/a	1.0	ITI
201744	500.0	n/a	-1	-1	500	0.0	fixation	poldrack-single-stim	487	1217241	0.0-19.45-0.45	beast_fmri_test	310	1216775,/	t	<div class = centerbox><div class = fixation>+</div></div>	none	500.0	test	n/a	n/a	n/a	n/a	n/a	n/a	n/a	n/a	n/a	n/a	n/a	n/a	n/a	n/a	n/a	n/a	n/a	n/a	fixation
201499.42489799997	2750.0	n/a	819	89	2750	246.575102	stim	stop-signal	488	1219993	0.0-19.45-1.45	beast_fmri_test	310	1217455,/,1218135,/,1218815,/,1219495,/,1220175,/	t,t,t,t,t	<img class = center src='/static/experiments/beast_fmri_test/images/B.png'></img>	71,89	2750.0	test	<img class = center src='/static/experiments/beast_fmri_test/images/redB.png'></img>	go	2000.0	3.0	45.0	go	non-target	B	71,Green Button	89,Yellow Button	550.0	750.0	2200.0	2000.0	1.0	750.0	n/a	1.0	go_stim
204249.42489799997	246.575102	n/a	819	89	2750	246.575102	stim	stop-signal	488	1219993	0.0-19.45-1.45	beast_fmri_test	310	1217455,/,1218135,/,1218815,/,1219495,/,1220175,/	t,t,t,t,t	<img class = center src='/static/experiments/beast_fmri_test/images/B.png'></img>	71,89	2750.0	test	<img class = center src='/static/experiments/beast_fmri_test/images/redB.png'></img>	go	2000.0	3.0	45.0	go	non-target	B	71,Green Button	89,Yellow Button	550.0	750.0	2200.0	2000.0	1.0	750.0	n/a	1.0	ITI
205262	500.0	n/a	-1	-1	500	0.0	fixation	poldrack-single-stim	489	1220759	0.0-19.46-0.46	beast_fmri_test	310	n/a	n/a	<div class = centerbox><div class = fixation>+</div></div>	none	500.0	test	n/a	n/a	n/a	n/a	n/a	n/a	n/a	n/a	n/a	n/a	n/a	n/a	n/a	n/a	n/a	n/a	n/a	n/a	fixation
203385.56811399991	2750.0	n/a	838	89	2750	1877.431886	stim	stop-signal	490	1223510	0.0-19.46-1.46	beast_fmri_test	310	1220855,/,1221535,/,1222215,/,1222895,/,1223575,/,1224255,/,1224935,/	t,t,t,t,t,t,t	<img class = center src='/static/experiments/beast_fmri_test/images/B.png'></img>	71,89	2750.0	test	<img class = center src='/static/experiments/beast_fmri_test/images/redB.png'></img>	go	2000.0	3.0	46.0	go	non-target	B	71,Green Button	89,Yellow Button	550.0	750.0	2200.0	2000.0	1.0	750.0	n/a	1.0	go_stim
206135.56811399991	1877.431886	n/a	838	89	2750	1877.431886	stim	stop-signal	490	1223510	0.0-19.46-1.46	beast_fmri_test	310	1220855,/,1221535,/,1222215,/,1222895,/,1223575,/,1224255,/,1224935,/	t,t,t,t,t,t,t	<img class = center src='/static/experiments/beast_fmri_test/images/B.png'></img>	71,89	2750.0	test	<img class = center src='/static/experiments/beast_fmri_test/images/redB.png'></img>	go	2000.0	3.0	46.0	go	non-target	B	71,Green Button	89,Yellow Button	550.0	750.0	2200.0	2000.0	1.0	750.0	n/a	1.0	ITI
210411	500.0	n/a	-1	-1	500	0.0	fixation	poldrack-single-stim	491	1225908	0.0-19.47-0.47	beast_fmri_test	310	1225616,/	t	<div class = centerbox><div class = fixation>+</div></div>	none	500.0	test	n/a	n/a	n/a	n/a	n/a	n/a	n/a	n/a	n/a	n/a	n/a	n/a	n/a	n/a	n/a	n/a	n/a	n/a	fixation
209244.53609600011	750.0	n/a	832	89	2750	1167.463904	stim	stop-signal	492	1228659	0.0-19.47-1.47	beast_fmri_test	310	1226296,/,1226975,/,1227655,/,1228335,/,1229015,/,1229695,/	t,t,t,t,t,t	<img class = center src='/static/experiments/beast_fmri_test/images/B.png'></img>	71,89	2750.0	test	<img class = center src='/static/experiments/beast_fmri_test/images/redB.png'></img>	stop	2000.0	3.0	47.0	stop	non-target	B	71,Green Button	89,Yellow Button	550.0	750.0	2200.0	2000.0	0.0	750.0	0.0	1.0	go_stim
211244.53609600011	2000.0	n/a	832	89	2750	1167.463904	stim	stop-signal	492	1228659	0.0-19.47-1.47	beast_fmri_test	310	1226296,/,1226975,/,1227655,/,1228335,/,1229015,/,1229695,/	t,t,t,t,t,t	<img class = center src='/static/experiments/beast_fmri_test/images/B.png'></img>	71,89	2750.0	test	<img class = center src='/static/experiments/beast_fmri_test/images/redB.png'></img>	stop	2000.0	3.0	47.0	stop	non-target	B	71,Green Button	89,Yellow Button	550.0	750.0	2200.0	2000.0	0.0	750.0	0.0	1.0	stop_stim
211994.53609600011	1167.463904	n/a	832	89	2750	1167.463904	stim	stop-signal	492	1228659	0.0-19.47-1.47	beast_fmri_test	310	1226296,/,1226975,/,1227655,/,1228335,/,1229015,/,1229695,/	t,t,t,t,t,t	<img class = center src='/static/experiments/beast_fmri_test/images/B.png'></img>	71,89	2750.0	test	<img class = center src='/static/experiments/beast_fmri_test/images/redB.png'></img>	stop	2000.0	3.0	47.0	stop	non-target	B	71,Green Button	89,Yellow Button	550.0	750.0	2200.0	2000.0	0.0	750.0	0.0	1.0	ITI
229348	15000.0	n/a	-1	-1	15000	0.0	practice-no-stop-feedback	poldrack-single-stim	493	1244845	0.0-20.0	beast_fmri_test	310	1230375,/,1231055,/,1231735,/,1232415,/,1233096,/,1233776,/,1234456,/,1235136,/,1235816,/,1236496,/,1237176,/,1237856,/,1238536,/,1239216,/,1239895,/,1240576,/,1241256,/,1241935,/,1242615,/,1243296,/,1243975,/,1244656,/	t,t,t,t,t,t,t,t,t,t,t,t,t,t,t,t,t,t,t,t,t,t	"<div class = ""centerbox""><p class = ""center-block-text"">Your delay is 3 trials.</p><p class = center-block-text>Please wait for the scanner to start the block</p></div>"	77	15000.0	n/a	n/a	n/a	n/a	n/a	n/a	n/a	n/a	n/a	n/a	n/a	n/a	n/a	n/a	n/a	n/a	n/a	n/a	n/a	practice-no-stop-feedback
229850	500.0	n/a	-1	-1	500	0.0	fixation	poldrack-single-stim	494	1245347	0.0-21.0-0.0	beast_fmri_test	310	1245336,/	t	<div class = centerbox><div class = fixation>+</div></div>	none	500.0	test	n/a	n/a	n/a	n/a	n/a	n/a	n/a	n/a	n/a	n/a	n/a	n/a	n/a	n/a	n/a	n/a	n/a	n/a	fixation
229488.7159196001	2750.0	n/a	835	89	2750	363.2840804	stim	stop-signal	495	1248099	0.0-21.0-1.0	beast_fmri_test	310	1246016,/,1246697,/,1247376,/,1248055,/	t,t,t,t	<img class = center src='/static/experiments/beast_fmri_test/images/T.png'></img>	71,89	2750.0	test	<img class = center src='/static/experiments/beast_fmri_test/images/redT.png'></img>	go	-1.0	3.0	0.0	go	temp-non-target	T	71,Green Button	89,Yellow Button	550.0	700.0	2200.0	2000.0	0.0	n/a	n/a	n/a	go_stim
232238.7159196001	363.2840804	n/a	835	89	2750	363.2840804	stim	stop-signal	495	1248099	0.0-21.0-1.0	beast_fmri_test	310	1246016,/,1246697,/,1247376,/,1248055,/	t,t,t,t	<img class = center src='/static/experiments/beast_fmri_test/images/T.png'></img>	71,89	2750.0	test	<img class = center src='/static/experiments/beast_fmri_test/images/redT.png'></img>	go	-1.0	3.0	0.0	go	temp-non-target	T	71,Green Button	89,Yellow Button	550.0	700.0	2200.0	2000.0	0.0	n/a	n/a	n/a	ITI
233486	500.0	n/a	-1	-1	500	0.0	fixation	poldrack-single-stim	496	1248983	0.0-21.1-0.1	beast_fmri_test	310	1248735,/	t	<div class = centerbox><div class = fixation>+</div></div>	none	500.0	test	n/a	n/a	n/a	n/a	n/a	n/a	n/a	n/a	n/a	n/a	n/a	n/a	n/a	n/a	n/a	n/a	n/a	n/a	fixation
232595.97852499993	2750.0	n/a	589	89	2750	892.021475	stim	stop-signal	497	1251735	0.0-21.1-1.1	beast_fmri_test	310	1249415,/,1250095,/,1250775,/,1251455,/,1252135,/	t,t,t,t,t	<img class = center src='/static/experiments/beast_fmri_test/images/T.png'></img>	71,89	2750.0	test	<img class = center src='/static/experiments/beast_fmri_test/images/redT.png'></img>	go	-1.0	3.0	1.0	go	temp-non-target	T	71,Green Button	89,Yellow Button	550.0	700.0	2200.0	2000.0	0.0	n/a	n/a	n/a	go_stim
235345.97852499993	892.021475	n/a	589	89	2750	892.021475	stim	stop-signal	497	1251735	0.0-21.1-1.1	beast_fmri_test	310	1249415,/,1250095,/,1250775,/,1251455,/,1252135,/	t,t,t,t,t	<img class = center src='/static/experiments/beast_fmri_test/images/T.png'></img>	71,89	2750.0	test	<img class = center src='/static/experiments/beast_fmri_test/images/redT.png'></img>	go	-1.0	3.0	1.0	go	temp-non-target	T	71,Green Button	89,Yellow Button	550.0	700.0	2200.0	2000.0	0.0	n/a	n/a	n/a	ITI
237650	500.0	n/a	-1	-1	500	0.0	fixation	poldrack-single-stim	498	1253147	0.0-21.2-0.2	beast_fmri_test	310	1252815,/	t	<div class = centerbox><div class = fixation>+</div></div>	none	500.0	test	n/a	n/a	n/a	n/a	n/a	n/a	n/a	n/a	n/a	n/a	n/a	n/a	n/a	n/a	n/a	n/a	n/a	n/a	fixation
236281.13697000011	2750.0	n/a	698	89	2750	1369.86303	stim	stop-signal	499	1255898	0.0-21.2-1.2	beast_fmri_test	310	1253495,/,1254175,/,1254855,/,1255535,/,1256215,/,1256895,/	t,t,t,t,t,t	<img class = center src='/static/experiments/beast_fmri_test/images/T.png'></img>	71,89	2750.0	test	<img class = center src='/static/experiments/beast_fmri_test/images/redT.png'></img>	go	-1.0	3.0	2.0	go	temp-non-target	T	71,Green Button	89,Yellow Button	550.0	700.0	2200.0	2000.0	0.0	n/a	n/a	n/a	go_stim
239031.13697000011	1369.86303	n/a	698	89	2750	1369.86303	stim	stop-signal	499	1255898	0.0-21.2-1.2	beast_fmri_test	310	1253495,/,1254175,/,1254855,/,1255535,/,1256215,/,1256895,/	t,t,t,t,t,t	<img class = center src='/static/experiments/beast_fmri_test/images/T.png'></img>	71,89	2750.0	test	<img class = center src='/static/experiments/beast_fmri_test/images/redT.png'></img>	go	-1.0	3.0	2.0	go	temp-non-target	T	71,Green Button	89,Yellow Button	550.0	700.0	2200.0	2000.0	0.0	n/a	n/a	n/a	ITI
242290	500.0	n/a	-1	-1	500	0.0	fixation	poldrack-single-stim	500	1257787	0.0-21.3-0.3	beast_fmri_test	310	1257575,/	t	<div class = centerbox><div class = fixation>+</div></div>	none	500.0	test	n/a	n/a	n/a	n/a	n/a	n/a	n/a	n/a	n/a	n/a	n/a	n/a	n/a	n/a	n/a	n/a	n/a	n/a	fixation
241403.95468900003	2750.0	n/a	919	89	2750	888.045311	stim	stop-signal	501	1260539	0.0-21.3-1.3	beast_fmri_test	310	1258255,/,1258935,/,1259615,/,1260295,/,1260975,/	t,t,t,t,t	<img class = center src='/static/experiments/beast_fmri_test/images/D.png'></img>	71,89	2750.0	test	<img class = center src='/static/experiments/beast_fmri_test/images/redD.png'></img>	go	2050.0	3.0	3.0	go	non-target	D	71,Green Button	89,Yellow Button	550.0	700.0	2200.0	2050.0	1.0	700.0	n/a	1.0	go_stim
244153.95468900003	888.045311	n/a	919	89	2750	888.045311	stim	stop-signal	501	1260539	0.0-21.3-1.3	beast_fmri_test	310	1258255,/,1258935,/,1259615,/,1260295,/,1260975,/	t,t,t,t,t	<img class = center src='/static/experiments/beast_fmri_test/images/D.png'></img>	71,89	2750.0	test	<img class = center src='/static/experiments/beast_fmri_test/images/redD.png'></img>	go	2050.0	3.0	3.0	go	non-target	D	71,Green Button	89,Yellow Button	550.0	700.0	2200.0	2050.0	1.0	700.0	n/a	1.0	ITI
246454	500.0	n/a	-1	-1	500	0.0	fixation	poldrack-single-stim	502	1261951	0.0-21.4-0.4	beast_fmri_test	310	1261655,/	t	<div class = centerbox><div class = fixation>+</div></div>	none	500.0	test	n/a	n/a	n/a	n/a	n/a	n/a	n/a	n/a	n/a	n/a	n/a	n/a	n/a	n/a	n/a	n/a	n/a	n/a	fixation
245704.19315399998	550.0	n/a	432	71	2750	750.806846	stim	stop-signal	503	1264702	0.0-21.4-1.4	beast_fmri_test	310	1262335,/,1263015,/,1263695,/,1264375,/,1265055,/	t,t,t,t,t	<img class = center src='/static/experiments/beast_fmri_test/images/T.png'></img>	71,89	2750.0	test	<img class = center src='/static/experiments/beast_fmri_test/images/redT.png'></img>	stop	2200.0	3.0	4.0	stop	target	T	71,Green Button	89,Yellow Button	550.0	700.0	2200.0	2050.0	0.0	550.0	0.0	1.0	go_stim
247904.19315399998	2200.0	n/a	432	71	2750	750.806846	stim	stop-signal	503	1264702	0.0-21.4-1.4	beast_fmri_test	310	1262335,/,1263015,/,1263695,/,1264375,/,1265055,/	t,t,t,t,t	<img class = center src='/static/experiments/beast_fmri_test/images/T.png'></img>	71,89	2750.0	test	<img class = center src='/static/experiments/beast_fmri_test/images/redT.png'></img>	stop	2200.0	3.0	4.0	stop	target	T	71,Green Button	89,Yellow Button	550.0	700.0	2200.0	2050.0	0.0	550.0	0.0	1.0	stop_stim
248454.19315399998	750.806846	n/a	432	71	2750	750.806846	stim	stop-signal	503	1264702	0.0-21.4-1.4	beast_fmri_test	310	1262335,/,1263015,/,1263695,/,1264375,/,1265055,/	t,t,t,t,t	<img class = center src='/static/experiments/beast_fmri_test/images/T.png'></img>	71,89	2750.0	test	<img class = center src='/static/experiments/beast_fmri_test/images/redT.png'></img>	stop	2200.0	3.0	4.0	stop	target	T	71,Green Button	89,Yellow Button	550.0	700.0	2200.0	2050.0	0.0	550.0	0.0	1.0	ITI
250477	500.0	n/a	-1	-1	500	0.0	fixation	poldrack-single-stim	504	1265974	0.0-21.5-0.5	beast_fmri_test	310	1265735,/	t	<div class = centerbox><div class = fixation>+</div></div>	none	500.0	test	n/a	n/a	n/a	n/a	n/a	n/a	n/a	n/a	n/a	n/a	n/a	n/a	n/a	n/a	n/a	n/a	n/a	n/a	fixation
250034.5591207	2750.0	n/a	733	71	2750	443.4408793	stim	stop-signal	505	1268725	0.0-21.5-1.5	beast_fmri_test	310	1266415,/,1267097,/,1267776,/,1268456,/,1269135,/	t,t,t,t,t	<img class = center src='/static/experiments/beast_fmri_test/images/T.png'></img>	71,89	2750.0	test	<img class = center src='/static/experiments/beast_fmri_test/images/redT.png'></img>	go	2250.0	3.0	5.0	go	target	T	71,Green Button	89,Yellow Button	500.0	700.0	2250.0	2050.0	1.0	500.0	n/a	1.0	go_stim
252784.5591207	443.4408793	n/a	733	71	2750	443.4408793	stim	stop-signal	505	1268725	0.0-21.5-1.5	beast_fmri_test	310	1266415,/,1267097,/,1267776,/,1268456,/,1269135,/	t,t,t,t,t	<img class = center src='/static/experiments/beast_fmri_test/images/T.png'></img>	71,89	2750.0	test	<img class = center src='/static/experiments/beast_fmri_test/images/redT.png'></img>	go	2250.0	3.0	5.0	go	target	T	71,Green Button	89,Yellow Button	500.0	700.0	2250.0	2050.0	1.0	500.0	n/a	1.0	ITI
254193	500.0	n/a	-1	-1	500	0.0	fixation	poldrack-single-stim	506	1269690	0.0-21.6-0.6	beast_fmri_test	310	n/a	n/a	<div class = centerbox><div class = fixation>+</div></div>	none	500.0	test	n/a	n/a	n/a	n/a	n/a	n/a	n/a	n/a	n/a	n/a	n/a	n/a	n/a	n/a	n/a	n/a	n/a	n/a	fixation
253833.02321609994	700.0	n/a	-1	-1	2750	361.9767839	stim	stop-signal	507	1272442	0.0-21.6-1.6	beast_fmri_test	310	1269816,/,1270496,/,1271176,/,1271855,/,1272536,/	t,t,t,t,t	<img class = center src='/static/experiments/beast_fmri_test/images/V.png'></img>	71,89	2750.0	test	<img class = center src='/static/experiments/beast_fmri_test/images/redV.png'></img>	stop	2050.0	3.0	6.0	stop	non-target	V	71,Green Button	89,Yellow Button	500.0	700.0	2250.0	2050.0	0.0	700.0	1.0	0.0	go_stim
255883.02321609994	2050.0	n/a	-1	-1	2750	361.9767839	stim	stop-signal	507	1272442	0.0-21.6-1.6	beast_fmri_test	310	1269816,/,1270496,/,1271176,/,1271855,/,1272536,/	t,t,t,t,t	<img class = center src='/static/experiments/beast_fmri_test/images/V.png'></img>	71,89	2750.0	test	<img class = center src='/static/experiments/beast_fmri_test/images/redV.png'></img>	stop	2050.0	3.0	6.0	stop	non-target	V	71,Green Button	89,Yellow Button	500.0	700.0	2250.0	2050.0	0.0	700.0	1.0	0.0	stop_stim
256583.02321609994	361.9767839	n/a	-1	-1	2750	361.9767839	stim	stop-signal	507	1272442	0.0-21.6-1.6	beast_fmri_test	310	1269816,/,1270496,/,1271176,/,1271855,/,1272536,/	t,t,t,t,t	<img class = center src='/static/experiments/beast_fmri_test/images/V.png'></img>	71,89	2750.0	test	<img class = center src='/static/experiments/beast_fmri_test/images/redV.png'></img>	stop	2050.0	3.0	6.0	stop	non-target	V	71,Green Button	89,Yellow Button	500.0	700.0	2250.0	2050.0	0.0	700.0	1.0	0.0	ITI
257826	500.0	n/a	-1	-1	500	0.0	fixation	poldrack-single-stim	508	1273323	0.0-21.7-0.7	beast_fmri_test	310	1273216,/	t	<div class = centerbox><div class = fixation>+</div></div>	none	500.0	test	n/a	n/a	n/a	n/a	n/a	n/a	n/a	n/a	n/a	n/a	n/a	n/a	n/a	n/a	n/a	n/a	n/a	n/a	fixation
257583.5909802001	2750.0	n/a	1365	71	2750	243.4090198	stim	stop-signal	509	1276074	0.0-21.7-1.7	beast_fmri_test	310	1273895,/,1274576,/,1275256,/,1275935,/	t,t,t,t	<img class = center src='/static/experiments/beast_fmri_test/images/T.png'></img>	71,89	2750.0	test	<img class = center src='/static/experiments/beast_fmri_test/images/redT.png'></img>	go	2250.0	3.0	7.0	go	target	T	71,Green Button	89,Yellow Button	500.0	750.0	2250.0	2050.0	1.0	500.0	n/a	1.0	go_stim
260333.5909802001	243.4090198	n/a	1365	71	2750	243.4090198	stim	stop-signal	509	1276074	0.0-21.7-1.7	beast_fmri_test	310	1273895,/,1274576,/,1275256,/,1275935,/	t,t,t,t	<img class = center src='/static/experiments/beast_fmri_test/images/T.png'></img>	71,89	2750.0	test	<img class = center src='/static/experiments/beast_fmri_test/images/redT.png'></img>	go	2250.0	3.0	7.0	go	target	T	71,Green Button	89,Yellow Button	500.0	750.0	2250.0	2050.0	1.0	500.0	n/a	1.0	ITI
261342	500.0	n/a	-1	-1	500	0.0	fixation	poldrack-single-stim	510	1276839	0.0-21.8-0.8	beast_fmri_test	310	1276616,/	t	<div class = centerbox><div class = fixation>+</div></div>	none	500.0	test	n/a	n/a	n/a	n/a	n/a	n/a	n/a	n/a	n/a	n/a	n/a	n/a	n/a	n/a	n/a	n/a	n/a	n/a	fixation
261145.31604459998	2750.0	n/a	1152	71	2750	197.6839554	stim	stop-signal	511	1279590	0.0-21.8-1.8	beast_fmri_test	310	1277296,/,1277975,/,1278656,/,1279335,/	t,t,t,t	<img class = center src='/static/experiments/beast_fmri_test/images/D.png'></img>	71,89	2750.0	test	<img class = center src='/static/experiments/beast_fmri_test/images/redD.png'></img>	go	2000.0	3.0	8.0	go	non-target	D	71,Green Button	89,Yellow Button	500.0	750.0	2250.0	2000.0	0.0	750.0	n/a	0.0	go_stim
263895.31604459998	197.6839554	n/a	1152	71	2750	197.6839554	stim	stop-signal	511	1279590	0.0-21.8-1.8	beast_fmri_test	310	1277296,/,1277975,/,1278656,/,1279335,/	t,t,t,t	<img class = center src='/static/experiments/beast_fmri_test/images/D.png'></img>	71,89	2750.0	test	<img class = center src='/static/experiments/beast_fmri_test/images/redD.png'></img>	go	2000.0	3.0	8.0	go	non-target	D	71,Green Button	89,Yellow Button	500.0	750.0	2250.0	2000.0	0.0	750.0	n/a	0.0	ITI
264812	500.0	n/a	-1	-1	500	0.0	fixation	poldrack-single-stim	512	1280309	0.0-21.9-0.9	beast_fmri_test	310	1280015,/	t	<div class = centerbox><div class = fixation>+</div></div>	none	500.0	test	n/a	n/a	n/a	n/a	n/a	n/a	n/a	n/a	n/a	n/a	n/a	n/a	n/a	n/a	n/a	n/a	n/a	n/a	fixation
264666.4516743999	2750.0	n/a	1018	89	2750	147.5483256	stim	stop-signal	513	1283061	0.0-21.9-1.9	beast_fmri_test	310	1280696,/,1281375,/,1282055,/,1282735,/	t,t,t,t	<img class = center src='/static/experiments/beast_fmri_test/images/T.png'></img>	71,89	2750.0	test	<img class = center src='/static/experiments/beast_fmri_test/images/redT.png'></img>	go	2000.0	3.0	9.0	go	non-target	T	71,Green Button	89,Yellow Button	500.0	750.0	2250.0	2000.0	1.0	750.0	n/a	1.0	go_stim
267416.4516743999	147.5483256	n/a	1018	89	2750	147.5483256	stim	stop-signal	513	1283061	0.0-21.9-1.9	beast_fmri_test	310	1280696,/,1281375,/,1282055,/,1282735,/	t,t,t,t	<img class = center src='/static/experiments/beast_fmri_test/images/T.png'></img>	71,89	2750.0	test	<img class = center src='/static/experiments/beast_fmri_test/images/redT.png'></img>	go	2000.0	3.0	9.0	go	non-target	T	71,Green Button	89,Yellow Button	500.0	750.0	2250.0	2000.0	1.0	750.0	n/a	1.0	ITI
268234	500.0	n/a	-1	-1	500	0.0	fixation	poldrack-single-stim	514	1283731	0.0-21.10-0.10	beast_fmri_test	310	1283416,/	t	<div class = centerbox><div class = fixation>+</div></div>	none	500.0	test	n/a	n/a	n/a	n/a	n/a	n/a	n/a	n/a	n/a	n/a	n/a	n/a	n/a	n/a	n/a	n/a	n/a	n/a	fixation
267587.10943570011	2750.0	n/a	1414	71	2750	647.8905643	stim	stop-signal	515	1286482	0.0-21.10-1.10	beast_fmri_test	310	1284095,/,1284776,/,1285455,/,1286135,/,1286815,/	t,t,t,t,t	<img class = center src='/static/experiments/beast_fmri_test/images/V.png'></img>	71,89	2750.0	test	<img class = center src='/static/experiments/beast_fmri_test/images/redV.png'></img>	go	2000.0	3.0	10.0	go	non-target	V	71,Green Button	89,Yellow Button	500.0	750.0	2250.0	2000.0	0.0	750.0	n/a	0.0	go_stim
270337.10943570011	647.8905643	n/a	1414	71	2750	647.8905643	stim	stop-signal	515	1286482	0.0-21.10-1.10	beast_fmri_test	310	1284095,/,1284776,/,1285455,/,1286135,/,1286815,/	t,t,t,t,t	<img class = center src='/static/experiments/beast_fmri_test/images/V.png'></img>	71,89	2750.0	test	<img class = center src='/static/experiments/beast_fmri_test/images/redV.png'></img>	go	2000.0	3.0	10.0	go	non-target	V	71,Green Button	89,Yellow Button	500.0	750.0	2250.0	2000.0	0.0	750.0	n/a	0.0	ITI
272153	500.0	n/a	-1	-1	500	0.0	fixation	poldrack-single-stim	516	1287650	0.0-21.11-0.11	beast_fmri_test	310	1287497,/	t	<div class = centerbox><div class = fixation>+</div></div>	none	500.0	test	n/a	n/a	n/a	n/a	n/a	n/a	n/a	n/a	n/a	n/a	n/a	n/a	n/a	n/a	n/a	n/a	n/a	n/a	fixation
271421.22001209995	500.0	n/a	-1	-1	2750	733.7799879	stim	stop-signal	517	1290402	0.0-21.11-1.11	beast_fmri_test	310	1288175,/,1288855,/,1289535,/,1290215,/,1290895,/	t,t,t,t,t	<img class = center src='/static/experiments/beast_fmri_test/images/D.png'></img>	71,89	2750.0	test	<img class = center src='/static/experiments/beast_fmri_test/images/redD.png'></img>	stop	2250.0	3.0	11.0	stop	target	D	71,Green Button	89,Yellow Button	500.0	750.0	2250.0	2000.0	0.0	500.0	1.0	0.0	go_stim
273671.22001209995	2250.0	n/a	-1	-1	2750	733.7799879	stim	stop-signal	517	1290402	0.0-21.11-1.11	beast_fmri_test	310	1288175,/,1288855,/,1289535,/,1290215,/,1290895,/	t,t,t,t,t	<img class = center src='/static/experiments/beast_fmri_test/images/D.png'></img>	71,89	2750.0	test	<img class = center src='/static/experiments/beast_fmri_test/images/redD.png'></img>	stop	2250.0	3.0	11.0	stop	target	D	71,Green Button	89,Yellow Button	500.0	750.0	2250.0	2000.0	0.0	500.0	1.0	0.0	stop_stim
274171.22001209995	733.7799879	n/a	-1	-1	2750	733.7799879	stim	stop-signal	517	1290402	0.0-21.11-1.11	beast_fmri_test	310	1288175,/,1288855,/,1289535,/,1290215,/,1290895,/	t,t,t,t,t	<img class = center src='/static/experiments/beast_fmri_test/images/D.png'></img>	71,89	2750.0	test	<img class = center src='/static/experiments/beast_fmri_test/images/redD.png'></img>	stop	2250.0	3.0	11.0	stop	target	D	71,Green Button	89,Yellow Button	500.0	750.0	2250.0	2000.0	0.0	500.0	1.0	0.0	ITI
276157	500.0	n/a	-1	-1	500	0.0	fixation	poldrack-single-stim	518	1291654	0.0-21.12-0.12	beast_fmri_test	310	1291576,/	t	<div class = centerbox><div class = fixation>+</div></div>	none	500.0	test	n/a	n/a	n/a	n/a	n/a	n/a	n/a	n/a	n/a	n/a	n/a	n/a	n/a	n/a	n/a	n/a	n/a	n/a	fixation
275636.34305709996	750.0	n/a	651	89	2750	521.6569429	stim	stop-signal	519	1294405	0.0-21.12-1.12	beast_fmri_test	310	1292256,/,1292935,/,1293615,/,1294295,/	t,t,t,t	<img class = center src='/static/experiments/beast_fmri_test/images/D.png'></img>	71,89	2750.0	test	<img class = center src='/static/experiments/beast_fmri_test/images/redD.png'></img>	stop	2000.0	3.0	12.0	stop	non-target	D	71,Green Button	89,Yellow Button	550.0	750.0	2250.0	2000.0	0.0	750.0	0.0	1.0	go_stim
277636.34305709996	2000.0	n/a	651	89	2750	521.6569429	stim	stop-signal	519	1294405	0.0-21.12-1.12	beast_fmri_test	310	1292256,/,1292935,/,1293615,/,1294295,/	t,t,t,t	<img class = center src='/static/experiments/beast_fmri_test/images/D.png'></img>	71,89	2750.0	test	<img class = center src='/static/experiments/beast_fmri_test/images/redD.png'></img>	stop	2000.0	3.0	12.0	stop	non-target	D	71,Green Button	89,Yellow Button	550.0	750.0	2250.0	2000.0	0.0	750.0	0.0	1.0	stop_stim
278386.34305709996	521.6569429	n/a	651	89	2750	521.6569429	stim	stop-signal	519	1294405	0.0-21.12-1.12	beast_fmri_test	310	1292256,/,1292935,/,1293615,/,1294295,/	t,t,t,t	<img class = center src='/static/experiments/beast_fmri_test/images/D.png'></img>	71,89	2750.0	test	<img class = center src='/static/experiments/beast_fmri_test/images/redD.png'></img>	stop	2000.0	3.0	12.0	stop	non-target	D	71,Green Button	89,Yellow Button	550.0	750.0	2250.0	2000.0	0.0	750.0	0.0	1.0	ITI
279950	500.0	n/a	-1	-1	500	0.0	fixation	poldrack-single-stim	520	1295447	0.0-21.13-0.13	beast_fmri_test	310	1294974,/	t	<div class = centerbox><div class = fixation>+</div></div>	none	500.0	test	n/a	n/a	n/a	n/a	n/a	n/a	n/a	n/a	n/a	n/a	n/a	n/a	n/a	n/a	n/a	n/a	n/a	n/a	fixation
278368.60450599995	2750.0	n/a	1562	71	2750	1583.395494	stim	stop-signal	521	1298199	0.0-21.13-1.13	beast_fmri_test	310	1295655,/,1296335,/,1297015,/,1297696,/,1298375,/,1299055,/,1299735,/	t,t,t,t,t,t,t	<img class = center src='/static/experiments/beast_fmri_test/images/V.png'></img>	71,89	2750.0	test	<img class = center src='/static/experiments/beast_fmri_test/images/redV.png'></img>	go	2200.0	3.0	13.0	go	target	V	71,Green Button	89,Yellow Button	550.0	700.0	2200.0	2000.0	1.0	550.0	n/a	1.0	go_stim
281118.60450599995	1583.395494	n/a	1562	71	2750	1583.395494	stim	stop-signal	521	1298199	0.0-21.13-1.13	beast_fmri_test	310	1295655,/,1296335,/,1297015,/,1297696,/,1298375,/,1299055,/,1299735,/	t,t,t,t,t,t,t	<img class = center src='/static/experiments/beast_fmri_test/images/V.png'></img>	71,89	2750.0	test	<img class = center src='/static/experiments/beast_fmri_test/images/redV.png'></img>	go	2200.0	3.0	13.0	go	target	V	71,Green Button	89,Yellow Button	550.0	700.0	2200.0	2000.0	1.0	550.0	n/a	1.0	ITI
284809	500.0	n/a	-1	-1	500	0.0	fixation	poldrack-single-stim	522	1300306	0.0-21.14-0.14	beast_fmri_test	310	n/a	n/a	<div class = centerbox><div class = fixation>+</div></div>	none	500.0	test	n/a	n/a	n/a	n/a	n/a	n/a	n/a	n/a	n/a	n/a	n/a	n/a	n/a	n/a	n/a	n/a	n/a	n/a	fixation
283675.96095400001	2750.0	n/a	976	89	2750	1135.039046	stim	stop-signal	523	1303058	0.0-21.14-1.14	beast_fmri_test	310	1300415,/,1301096,/,1301775,/,1302456,/,1303135,/,1303816,/	t,t,t,t,t,t	<img class = center src='/static/experiments/beast_fmri_test/images/T.png'></img>	71,89	2750.0	test	<img class = center src='/static/experiments/beast_fmri_test/images/redT.png'></img>	go	2050.0	3.0	14.0	go	non-target	T	71,Green Button	89,Yellow Button	550.0	700.0	2200.0	2050.0	1.0	700.0	n/a	1.0	go_stim
286425.96095400001	1135.039046	n/a	976	89	2750	1135.039046	stim	stop-signal	523	1303058	0.0-21.14-1.14	beast_fmri_test	310	1300415,/,1301096,/,1301775,/,1302456,/,1303135,/,1303816,/	t,t,t,t,t,t	<img class = center src='/static/experiments/beast_fmri_test/images/T.png'></img>	71,89	2750.0	test	<img class = center src='/static/experiments/beast_fmri_test/images/redT.png'></img>	go	2050.0	3.0	14.0	go	non-target	T	71,Green Button	89,Yellow Button	550.0	700.0	2200.0	2050.0	1.0	700.0	n/a	1.0	ITI
289220	500.0	n/a	-1	-1	500	0.0	fixation	poldrack-single-stim	524	1304717	0.0-21.15-0.15	beast_fmri_test	310	1304496,/	t	<div class = centerbox><div class = fixation>+</div></div>	none	500.0	test	n/a	n/a	n/a	n/a	n/a	n/a	n/a	n/a	n/a	n/a	n/a	n/a	n/a	n/a	n/a	n/a	n/a	n/a	fixation
288746.14278210001	700.0	n/a	885	89	2750	475.8572179	stim	stop-signal	525	1307469	0.0-21.15-1.15	beast_fmri_test	310	1305176,/,1305855,/,1306536,/,1307216,/,1307896,/	t,t,t,t,t	<img class = center src='/static/experiments/beast_fmri_test/images/V.png'></img>	71,89	2750.0	test	<img class = center src='/static/experiments/beast_fmri_test/images/redV.png'></img>	stop	2050.0	3.0	15.0	stop	non-target	V	71,Green Button	89,Yellow Button	550.0	700.0	2200.0	2050.0	0.0	700.0	0.0	1.0	go_stim
290796.14278210001	2050.0	n/a	885	89	2750	475.8572179	stim	stop-signal	525	1307469	0.0-21.15-1.15	beast_fmri_test	310	1305176,/,1305855,/,1306536,/,1307216,/,1307896,/	t,t,t,t,t	<img class = center src='/static/experiments/beast_fmri_test/images/V.png'></img>	71,89	2750.0	test	<img class = center src='/static/experiments/beast_fmri_test/images/redV.png'></img>	stop	2050.0	3.0	15.0	stop	non-target	V	71,Green Button	89,Yellow Button	550.0	700.0	2200.0	2050.0	0.0	700.0	0.0	1.0	stop_stim
291496.14278210001	475.8572179	n/a	885	89	2750	475.8572179	stim	stop-signal	525	1307469	0.0-21.15-1.15	beast_fmri_test	310	1305176,/,1305855,/,1306536,/,1307216,/,1307896,/	t,t,t,t,t	<img class = center src='/static/experiments/beast_fmri_test/images/V.png'></img>	71,89	2750.0	test	<img class = center src='/static/experiments/beast_fmri_test/images/redV.png'></img>	stop	2050.0	3.0	15.0	stop	non-target	V	71,Green Button	89,Yellow Button	550.0	700.0	2200.0	2050.0	0.0	700.0	0.0	1.0	ITI
292969	500.0	n/a	-1	-1	500	0.0	fixation	poldrack-single-stim	526	1308466	0.0-21.16-0.16	beast_fmri_test	310	n/a	n/a	<div class = centerbox><div class = fixation>+</div></div>	none	500.0	test	n/a	n/a	n/a	n/a	n/a	n/a	n/a	n/a	n/a	n/a	n/a	n/a	n/a	n/a	n/a	n/a	n/a	n/a	fixation
292205.06446529995	2750.0	n/a	844	71	2750	764.9355347	stim	stop-signal	527	1311217	0.0-21.16-1.16	beast_fmri_test	310	1308575,/,1309255,/,1309935,/,1310616,/,1311295,/,1311975,/	t,t,t,t,t,t	<img class = center src='/static/experiments/beast_fmri_test/images/V.png'></img>	71,89	2750.0	test	<img class = center src='/static/experiments/beast_fmri_test/images/redV.png'></img>	go	2200.0	3.0	16.0	go	target	V	71,Green Button	89,Yellow Button	550.0	650.0	2200.0	2050.0	1.0	550.0	n/a	1.0	go_stim
294955.06446529995	764.9355347	n/a	844	71	2750	764.9355347	stim	stop-signal	527	1311217	0.0-21.16-1.16	beast_fmri_test	310	1308575,/,1309255,/,1309935,/,1310616,/,1311295,/,1311975,/	t,t,t,t,t,t	<img class = center src='/static/experiments/beast_fmri_test/images/V.png'></img>	71,89	2750.0	test	<img class = center src='/static/experiments/beast_fmri_test/images/redV.png'></img>	go	2200.0	3.0	16.0	go	target	V	71,Green Button	89,Yellow Button	550.0	650.0	2200.0	2050.0	1.0	550.0	n/a	1.0	ITI
297006	500.0	n/a	-1	-1	500	0.0	fixation	poldrack-single-stim	528	1312503	0.0-21.17-0.17	beast_fmri_test	310	n/a	n/a	<div class = centerbox><div class = fixation>+</div></div>	none	500.0	test	n/a	n/a	n/a	n/a	n/a	n/a	n/a	n/a	n/a	n/a	n/a	n/a	n/a	n/a	n/a	n/a	n/a	n/a	fixation
294858.3042619999	2750.0	n/a	775	89	2750	2149.695738	stim	stop-signal	529	1315255	0.0-21.17-1.17	beast_fmri_test	310	1312655,/,1313336,/,1314015,/,1314695,/,1315375,/,1316055,/,1316735,/	t,t,t,t,t,t,t	<img class = center src='/static/experiments/beast_fmri_test/images/V.png'></img>	71,89	2750.0	test	<img class = center src='/static/experiments/beast_fmri_test/images/redV.png'></img>	go	2100.0	3.0	17.0	go	non-target	V	71,Green Button	89,Yellow Button	550.0	650.0	2200.0	2100.0	1.0	650.0	n/a	1.0	go_stim
297608.3042619999	2149.695738	n/a	775	89	2750	2149.695738	stim	stop-signal	529	1315255	0.0-21.17-1.17	beast_fmri_test	310	1312655,/,1313336,/,1314015,/,1314695,/,1315375,/,1316055,/,1316735,/	t,t,t,t,t,t,t	<img class = center src='/static/experiments/beast_fmri_test/images/V.png'></img>	71,89	2750.0	test	<img class = center src='/static/experiments/beast_fmri_test/images/redV.png'></img>	go	2100.0	3.0	17.0	go	non-target	V	71,Green Button	89,Yellow Button	550.0	650.0	2200.0	2100.0	1.0	650.0	n/a	1.0	ITI
302430	500.0	n/a	-1	-1	500	0.0	fixation	poldrack-single-stim	530	1317927	0.0-21.18-0.18	beast_fmri_test	310	1317426,/	t	<div class = centerbox><div class = fixation>+</div></div>	none	500.0	test	n/a	n/a	n/a	n/a	n/a	n/a	n/a	n/a	n/a	n/a	n/a	n/a	n/a	n/a	n/a	n/a	n/a	n/a	fixation
302091.66295929998	2750.0	n/a	695	89	2750	340.3370407	stim	stop-signal	531	1320679	0.0-21.18-1.18	beast_fmri_test	310	1318096,/,1318775,/,1319455,/,1320135,/,1320815,/	t,t,t,t,t	<img class = center src='/static/experiments/beast_fmri_test/images/D.png'></img>	71,89	2750.0	test	<img class = center src='/static/experiments/beast_fmri_test/images/redD.png'></img>	go	2100.0	3.0	18.0	go	non-target	D	71,Green Button	89,Yellow Button	550.0	650.0	2200.0	2100.0	1.0	650.0	n/a	1.0	go_stim
304841.66295929998	340.3370407	n/a	695	89	2750	340.3370407	stim	stop-signal	531	1320679	0.0-21.18-1.18	beast_fmri_test	310	1318096,/,1318775,/,1319455,/,1320135,/,1320815,/	t,t,t,t,t	<img class = center src='/static/experiments/beast_fmri_test/images/D.png'></img>	71,89	2750.0	test	<img class = center src='/static/experiments/beast_fmri_test/images/redD.png'></img>	go	2100.0	3.0	18.0	go	non-target	D	71,Green Button	89,Yellow Button	550.0	650.0	2200.0	2100.0	1.0	650.0	n/a	1.0	ITI
306045	500.0	n/a	-1	-1	500	0.0	fixation	poldrack-single-stim	532	1321542	0.0-21.19-0.19	beast_fmri_test	310	1321495,/	t	<div class = centerbox><div class = fixation>+</div></div>	none	500.0	test	n/a	n/a	n/a	n/a	n/a	n/a	n/a	n/a	n/a	n/a	n/a	n/a	n/a	n/a	n/a	n/a	n/a	n/a	fixation
305030.74788099993	650.0	n/a	761	89	2750	1016.252119	stim	stop-signal	533	1324294	0.0-21.19-1.19	beast_fmri_test	310	1322175,/,1322855,/,1323535,/,1324215,/,1324895,/	t,t,t,t,t	<img class = center src='/static/experiments/beast_fmri_test/images/B.png'></img>	71,89	2750.0	test	<img class = center src='/static/experiments/beast_fmri_test/images/redB.png'></img>	stop	2100.0	3.0	19.0	stop	non-target	B	71,Green Button	89,Yellow Button	550.0	650.0	2200.0	2100.0	0.0	650.0	0.0	1.0	go_stim
307130.74788099993	2100.0	n/a	761	89	2750	1016.252119	stim	stop-signal	533	1324294	0.0-21.19-1.19	beast_fmri_test	310	1322175,/,1322855,/,1323535,/,1324215,/,1324895,/	t,t,t,t,t	<img class = center src='/static/experiments/beast_fmri_test/images/B.png'></img>	71,89	2750.0	test	<img class = center src='/static/experiments/beast_fmri_test/images/redB.png'></img>	stop	2100.0	3.0	19.0	stop	non-target	B	71,Green Button	89,Yellow Button	550.0	650.0	2200.0	2100.0	0.0	650.0	0.0	1.0	stop_stim
307780.74788099993	1016.252119	n/a	761	89	2750	1016.252119	stim	stop-signal	533	1324294	0.0-21.19-1.19	beast_fmri_test	310	1322175,/,1322855,/,1323535,/,1324215,/,1324895,/	t,t,t,t,t	<img class = center src='/static/experiments/beast_fmri_test/images/B.png'></img>	71,89	2750.0	test	<img class = center src='/static/experiments/beast_fmri_test/images/redB.png'></img>	stop	2100.0	3.0	19.0	stop	non-target	B	71,Green Button	89,Yellow Button	550.0	650.0	2200.0	2100.0	0.0	650.0	0.0	1.0	ITI
310338	500.0	n/a	-1	-1	500	0.0	fixation	poldrack-single-stim	534	1325835	0.0-21.20-0.20	beast_fmri_test	310	1325575,/	t	<div class = centerbox><div class = fixation>+</div></div>	none	500.0	test	n/a	n/a	n/a	n/a	n/a	n/a	n/a	n/a	n/a	n/a	n/a	n/a	n/a	n/a	n/a	n/a	n/a	n/a	fixation
309438.7743989001	600.0	n/a	-1	-1	2750	901.2256011	stim	stop-signal	535	1328587	0.0-21.20-1.20	beast_fmri_test	310	1326255,/,1326935,/,1327615,/,1328296,/,1328974,/	t,t,t,t,t	<img class = center src='/static/experiments/beast_fmri_test/images/T.png'></img>	71,89	2750.0	test	<img class = center src='/static/experiments/beast_fmri_test/images/redT.png'></img>	stop	2150.0	3.0	20.0	stop	non-target	T	71,Green Button	89,Yellow Button	550.0	600.0	2200.0	2150.0	0.0	600.0	1.0	0.0	go_stim
311588.7743989001	2150.0	n/a	-1	-1	2750	901.2256011	stim	stop-signal	535	1328587	0.0-21.20-1.20	beast_fmri_test	310	1326255,/,1326935,/,1327615,/,1328296,/,1328974,/	t,t,t,t,t	<img class = center src='/static/experiments/beast_fmri_test/images/T.png'></img>	71,89	2750.0	test	<img class = center src='/static/experiments/beast_fmri_test/images/redT.png'></img>	stop	2150.0	3.0	20.0	stop	non-target	T	71,Green Button	89,Yellow Button	550.0	600.0	2200.0	2150.0	0.0	600.0	1.0	0.0	stop_stim
312188.7743989001	901.2256011	n/a	-1	-1	2750	901.2256011	stim	stop-signal	535	1328587	0.0-21.20-1.20	beast_fmri_test	310	1326255,/,1326935,/,1327615,/,1328296,/,1328974,/	t,t,t,t,t	<img class = center src='/static/experiments/beast_fmri_test/images/T.png'></img>	71,89	2750.0	test	<img class = center src='/static/experiments/beast_fmri_test/images/redT.png'></img>	stop	2150.0	3.0	20.0	stop	non-target	T	71,Green Button	89,Yellow Button	550.0	600.0	2200.0	2150.0	0.0	600.0	1.0	0.0	ITI
314517	500.0	n/a	-1	-1	500	0.0	fixation	poldrack-single-stim	536	1330014	0.0-21.21-0.21	beast_fmri_test	310	1329656,/	t	<div class = centerbox><div class = fixation>+</div></div>	none	500.0	test	n/a	n/a	n/a	n/a	n/a	n/a	n/a	n/a	n/a	n/a	n/a	n/a	n/a	n/a	n/a	n/a	n/a	n/a	fixation
314314.20979509992	2750.0	n/a	701	89	2750	204.7902049	stim	stop-signal	537	1332766	0.0-21.21-1.21	beast_fmri_test	310	1330335,/,1331015,/,1331695,/,1332375,/	t,t,t,t	<img class = center src='/static/experiments/beast_fmri_test/images/P.png'></img>	71,89	2750.0	test	<img class = center src='/static/experiments/beast_fmri_test/images/redP.png'></img>	go	2100.0	3.0	21.0	go	non-target	P	71,Green Button	89,Yellow Button	550.0	650.0	2200.0	2100.0	1.0	650.0	n/a	1.0	go_stim
317064.20979509992	204.7902049	n/a	701	89	2750	204.7902049	stim	stop-signal	537	1332766	0.0-21.21-1.21	beast_fmri_test	310	1330335,/,1331015,/,1331695,/,1332375,/	t,t,t,t	<img class = center src='/static/experiments/beast_fmri_test/images/P.png'></img>	71,89	2750.0	test	<img class = center src='/static/experiments/beast_fmri_test/images/redP.png'></img>	go	2100.0	3.0	21.0	go	non-target	P	71,Green Button	89,Yellow Button	550.0	650.0	2200.0	2100.0	1.0	650.0	n/a	1.0	ITI
