onset	duration	text	rt	key_press	block_duration	timing_post_trial	trial_id	trial_type	trial_index	time_elapsed	internal_node_id	exp_id	subject_id	trigger_times	triggers	stimulus	possible_responses	stim_duration	exp_stage	SS_stimulus	SS_trial_type	SS_duration	load	trial_num	stop_trial_type	adaptive_trial_type	stim	yes_response_key	no_response_key	SSD_target	SSD_non_target	SSTarget	SSNonTarget	go_acc	stop_acc	SS_delay	adaptive_acc	new_trial_type
test	10880	n/a	-1	-1	10880	0.0	practice-no-stop-feedback	poldrack-single-stim	390	1101534	0.0-18.0	beast_fmri_test	313	1090654,/,1091333,/,1092013,/,1092693,/,1093372,/,1094052,/,1094732,/,1095412,/,1096093,/,1096773,/,1097452,/,1098132,/,1098812,/,1099493,/,1100173,/,1100853,/,1101533,/	t,t,t,t,t,t,t,t,t,t,t,t,t,t,t,t,t	"<div class = ""centerbox""><p class = ""center-block-text"">Your delay is 3 trials.</p><p class = center-block-text>Please wait for the scanner to start the block</p></div>"	77	10880.0	n/a	n/a	n/a	n/a	n/a	n/a	n/a	n/a	n/a	n/a	n/a	n/a	n/a	n/a	n/a	n/a	n/a	n/a	n/a	start_functional_block
11382	500	n/a	-1	-1	500	0.0	fixation	poldrack-single-stim	391	1102036	0.0-19.0-0.0	beast_fmri_test	313	n/a	n/a	<div class = centerbox><div class = fixation>+</div></div>	none	500.0	test	n/a	n/a	n/a	n/a	n/a	n/a	n/a	n/a	n/a	n/a	n/a	n/a	n/a	n/a	n/a	n/a	n/a	n/a	fixation
11050.319833999965	temp_go_duration	n/a	2570	71	2750	333.680166	stim	stop-signal	392	1104788	0.0-19.0-1.0	beast_fmri_test	313	1102213,/,1102893,/,1103573,/,1104253,/,1104933,/	t,t,t,t,t	<img class = center src='/static/experiments/beast_fmri_test/images/V.png'></img>	89,71	2750.0	test	<img class = center src='/static/experiments/beast_fmri_test/images/redV.png'></img>	stop	-1.0	3.0	0.0	stop	temp-non-target	V	89,Yellow Button	71,Green Button	1000.0	1100.0	1800.0	1650.0	0.0	0.0	n/a	n/a	go_stim
temp-non-target	temp_stop_duration	n/a	2570	71	2750	333.680166	stim	stop-signal	392	1104788	0.0-19.0-1.0	beast_fmri_test	313	1102213,/,1102893,/,1103573,/,1104253,/,1104933,/	t,t,t,t,t	<img class = center src='/static/experiments/beast_fmri_test/images/V.png'></img>	89,71	2750.0	test	<img class = center src='/static/experiments/beast_fmri_test/images/redV.png'></img>	stop	-1.0	3.0	0.0	stop	temp-non-target	V	89,Yellow Button	71,Green Button	1000.0	1100.0	1800.0	1650.0	0.0	0.0	n/a	n/a	stop_stim
13800.319833999965	333.68016600000004	n/a	2570	71	2750	333.680166	stim	stop-signal	392	1104788	0.0-19.0-1.0	beast_fmri_test	313	1102213,/,1102893,/,1103573,/,1104253,/,1104933,/	t,t,t,t,t	<img class = center src='/static/experiments/beast_fmri_test/images/V.png'></img>	89,71	2750.0	test	<img class = center src='/static/experiments/beast_fmri_test/images/redV.png'></img>	stop	-1.0	3.0	0.0	stop	temp-non-target	V	89,Yellow Button	71,Green Button	1000.0	1100.0	1800.0	1650.0	0.0	0.0	n/a	n/a	ITI
14988	500	n/a	-1	-1	500	0.0	fixation	poldrack-single-stim	393	1105642	0.0-19.1-0.1	beast_fmri_test	313	1105613,/	t	<div class = centerbox><div class = fixation>+</div></div>	none	500.0	test	n/a	n/a	n/a	n/a	n/a	n/a	n/a	n/a	n/a	n/a	n/a	n/a	n/a	n/a	n/a	n/a	n/a	n/a	fixation
13552.795310999965	temp_go_duration	n/a	1370	71	2750	1436.204689	stim	stop-signal	394	1108393	0.0-19.1-1.1	beast_fmri_test	313	1106293,/,1106974,/,1107653,/,1108333,/,1109012,/,1109693,/	t,t,t,t,t,t	<img class = center src='/static/experiments/beast_fmri_test/images/V.png'></img>	89,71	2750.0	test	<img class = center src='/static/experiments/beast_fmri_test/images/redV.png'></img>	stop	-1.0	3.0	1.0	stop	temp-non-target	V	89,Yellow Button	71,Green Button	1000.0	1100.0	1800.0	1650.0	0.0	0.0	n/a	n/a	go_stim
temp-non-target	temp_stop_duration	n/a	1370	71	2750	1436.204689	stim	stop-signal	394	1108393	0.0-19.1-1.1	beast_fmri_test	313	1106293,/,1106974,/,1107653,/,1108333,/,1109012,/,1109693,/	t,t,t,t,t,t	<img class = center src='/static/experiments/beast_fmri_test/images/V.png'></img>	89,71	2750.0	test	<img class = center src='/static/experiments/beast_fmri_test/images/redV.png'></img>	stop	-1.0	3.0	1.0	stop	temp-non-target	V	89,Yellow Button	71,Green Button	1000.0	1100.0	1800.0	1650.0	0.0	0.0	n/a	n/a	stop_stim
16302.795310999965	1436.2046890000001	n/a	1370	71	2750	1436.204689	stim	stop-signal	394	1108393	0.0-19.1-1.1	beast_fmri_test	313	1106293,/,1106974,/,1107653,/,1108333,/,1109012,/,1109693,/	t,t,t,t,t,t	<img class = center src='/static/experiments/beast_fmri_test/images/V.png'></img>	89,71	2750.0	test	<img class = center src='/static/experiments/beast_fmri_test/images/redV.png'></img>	stop	-1.0	3.0	1.0	stop	temp-non-target	V	89,Yellow Button	71,Green Button	1000.0	1100.0	1800.0	1650.0	0.0	0.0	n/a	n/a	ITI
19694	500	n/a	-1	-1	500	0.0	fixation	poldrack-single-stim	395	1110348	0.0-19.2-0.2	beast_fmri_test	313	n/a	n/a	<div class = centerbox><div class = fixation>+</div></div>	none	500.0	test	n/a	n/a	n/a	n/a	n/a	n/a	n/a	n/a	n/a	n/a	n/a	n/a	n/a	n/a	n/a	n/a	n/a	n/a	fixation
18193.752273000078	temp_go_duration	n/a	852	71	2750	1501.247727	stim	stop-signal	396	1113099	0.0-19.2-1.2	beast_fmri_test	313	1110373,/,1111053,/,1111733,/,1112413,/,1113092,/,1113772,/,1114453,/	t,t,t,t,t,t,t	<img class = center src='/static/experiments/beast_fmri_test/images/T.png'></img>	89,71	2750.0	test	<img class = center src='/static/experiments/beast_fmri_test/images/redT.png'></img>	stop	-1.0	3.0	2.0	stop	temp-non-target	T	89,Yellow Button	71,Green Button	1000.0	1100.0	1800.0	1650.0	0.0	0.0	n/a	n/a	go_stim
temp-non-target	temp_stop_duration	n/a	852	71	2750	1501.247727	stim	stop-signal	396	1113099	0.0-19.2-1.2	beast_fmri_test	313	1110373,/,1111053,/,1111733,/,1112413,/,1113092,/,1113772,/,1114453,/	t,t,t,t,t,t,t	<img class = center src='/static/experiments/beast_fmri_test/images/T.png'></img>	89,71	2750.0	test	<img class = center src='/static/experiments/beast_fmri_test/images/redT.png'></img>	stop	-1.0	3.0	2.0	stop	temp-non-target	T	89,Yellow Button	71,Green Button	1000.0	1100.0	1800.0	1650.0	0.0	0.0	n/a	n/a	stop_stim
20943.752273000078	1501.2477269999999	n/a	852	71	2750	1501.247727	stim	stop-signal	396	1113099	0.0-19.2-1.2	beast_fmri_test	313	1110373,/,1111053,/,1111733,/,1112413,/,1113092,/,1113772,/,1114453,/	t,t,t,t,t,t,t	<img class = center src='/static/experiments/beast_fmri_test/images/T.png'></img>	89,71	2750.0	test	<img class = center src='/static/experiments/beast_fmri_test/images/redT.png'></img>	stop	-1.0	3.0	2.0	stop	temp-non-target	T	89,Yellow Button	71,Green Button	1000.0	1100.0	1800.0	1650.0	0.0	0.0	n/a	n/a	ITI
24463	500	n/a	-1	-1	500	0.0	fixation	poldrack-single-stim	397	1115117	0.0-19.3-0.3	beast_fmri_test	313	n/a	n/a	<div class = centerbox><div class = fixation>+</div></div>	none	500.0	test	n/a	n/a	n/a	n/a	n/a	n/a	n/a	n/a	n/a	n/a	n/a	n/a	n/a	n/a	n/a	n/a	n/a	n/a	fixation
23777.495075100102	2750	n/a	1731	71	2750	687.5049249	stim	stop-signal	398	1117869	0.0-19.3-1.3	beast_fmri_test	313	1115133,/,1115813,/,1116493,/,1117173,/,1117852,/,1118532,/	t,t,t,t,t,t	<img class = center src='/static/experiments/beast_fmri_test/images/T.png'></img>	89,71	2750.0	test	<img class = center src='/static/experiments/beast_fmri_test/images/redT.png'></img>	go	1650.0	3.0	3.0	go	non-target	T	89,Yellow Button	71,Green Button	1000.0	1100.0	1800.0	1650.0	1.0	n/a	1100.0	1.0	go_stim
26527.495075100102	687.50492489999999	n/a	1731	71	2750	687.5049249	stim	stop-signal	398	1117869	0.0-19.3-1.3	beast_fmri_test	313	1115133,/,1115813,/,1116493,/,1117173,/,1117852,/,1118532,/	t,t,t,t,t,t	<img class = center src='/static/experiments/beast_fmri_test/images/T.png'></img>	89,71	2750.0	test	<img class = center src='/static/experiments/beast_fmri_test/images/redT.png'></img>	go	1650.0	3.0	3.0	go	non-target	T	89,Yellow Button	71,Green Button	1000.0	1100.0	1800.0	1650.0	1.0	n/a	1100.0	1.0	ITI
28421	500	n/a	-1	-1	500	0.0	fixation	poldrack-single-stim	399	1119075	0.0-19.4-0.4	beast_fmri_test	313	n/a	n/a	<div class = centerbox><div class = fixation>+</div></div>	none	500.0	test	n/a	n/a	n/a	n/a	n/a	n/a	n/a	n/a	n/a	n/a	n/a	n/a	n/a	n/a	n/a	n/a	n/a	n/a	fixation
28053.168212499935	2750	n/a	1561	71	2750	369.8317875	stim	stop-signal	400	1121827	0.0-19.4-1.4	beast_fmri_test	313	1119212,/,1119893,/,1120572,/,1121253,/,1121933,/	t,t,t,t,t	<img class = center src='/static/experiments/beast_fmri_test/images/B.png'></img>	89,71	2750.0	test	<img class = center src='/static/experiments/beast_fmri_test/images/redB.png'></img>	go	1650.0	3.0	4.0	go	non-target	B	89,Yellow Button	71,Green Button	1000.0	1100.0	1800.0	1650.0	1.0	n/a	1100.0	1.0	go_stim
30803.168212499935	369.83178750000002	n/a	1561	71	2750	369.8317875	stim	stop-signal	400	1121827	0.0-19.4-1.4	beast_fmri_test	313	1119212,/,1119893,/,1120572,/,1121253,/,1121933,/	t,t,t,t,t	<img class = center src='/static/experiments/beast_fmri_test/images/B.png'></img>	89,71	2750.0	test	<img class = center src='/static/experiments/beast_fmri_test/images/redB.png'></img>	go	1650.0	3.0	4.0	go	non-target	B	89,Yellow Button	71,Green Button	1000.0	1100.0	1800.0	1650.0	1.0	n/a	1100.0	1.0	ITI
32065	500	n/a	-1	-1	500	0.0	fixation	poldrack-single-stim	401	1122719	0.0-19.5-0.5	beast_fmri_test	313	1122612,/	t	<div class = centerbox><div class = fixation>+</div></div>	none	500.0	test	n/a	n/a	n/a	n/a	n/a	n/a	n/a	n/a	n/a	n/a	n/a	n/a	n/a	n/a	n/a	n/a	n/a	n/a	fixation
30315.560749999946	2750	n/a	2094	71	2750	1751.43925	stim	stop-signal	402	1125471	0.0-19.5-1.5	beast_fmri_test	313	1123293,/,1123973,/,1124653,/,1125333,/,1126013,/,1126693,/	t,t,t,t,t,t	<img class = center src='/static/experiments/beast_fmri_test/images/P.png'></img>	89,71	2750.0	test	<img class = center src='/static/experiments/beast_fmri_test/images/redP.png'></img>	go	1650.0	3.0	5.0	go	non-target	P	89,Yellow Button	71,Green Button	1000.0	1100.0	1800.0	1650.0	1.0	n/a	1100.0	1.0	go_stim
33065.560749999946	1751.4392499999999	n/a	2094	71	2750	1751.43925	stim	stop-signal	402	1125471	0.0-19.5-1.5	beast_fmri_test	313	1123293,/,1123973,/,1124653,/,1125333,/,1126013,/,1126693,/	t,t,t,t,t,t	<img class = center src='/static/experiments/beast_fmri_test/images/P.png'></img>	89,71	2750.0	test	<img class = center src='/static/experiments/beast_fmri_test/images/redP.png'></img>	go	1650.0	3.0	5.0	go	non-target	P	89,Yellow Button	71,Green Button	1000.0	1100.0	1800.0	1650.0	1.0	n/a	1100.0	1.0	ITI
37088	500	n/a	-1	-1	500	0.0	fixation	poldrack-single-stim	403	1127742	0.0-19.6-0.6	beast_fmri_test	313	1127374,/	t	<div class = centerbox><div class = fixation>+</div></div>	none	500.0	test	n/a	n/a	n/a	n/a	n/a	n/a	n/a	n/a	n/a	n/a	n/a	n/a	n/a	n/a	n/a	n/a	n/a	n/a	fixation
36008.610724000027	2750	n/a	1937	89	2750	1081.389276	stim	stop-signal	404	1130494	0.0-19.6-1.6	beast_fmri_test	313	1128052,/,1128732,/,1129412,/,1130092,/,1130772,/,1131452,/	t,t,t,t,t,t	<img class = center src='/static/experiments/beast_fmri_test/images/T.png'></img>	89,71	2750.0	test	<img class = center src='/static/experiments/beast_fmri_test/images/redT.png'></img>	go	1750.0	3.0	6.0	go	target	T	89,Yellow Button	71,Green Button	1000.0	1100.0	1750.0	1650.0	1.0	n/a	1000.0	1.0	go_stim
38758.610724000027	1081.3892759999999	n/a	1937	89	2750	1081.389276	stim	stop-signal	404	1130494	0.0-19.6-1.6	beast_fmri_test	313	1128052,/,1128732,/,1129412,/,1130092,/,1130772,/,1131452,/	t,t,t,t,t,t	<img class = center src='/static/experiments/beast_fmri_test/images/T.png'></img>	89,71	2750.0	test	<img class = center src='/static/experiments/beast_fmri_test/images/redT.png'></img>	go	1750.0	3.0	6.0	go	target	T	89,Yellow Button	71,Green Button	1000.0	1100.0	1750.0	1650.0	1.0	n/a	1000.0	1.0	ITI
41441	500	n/a	-1	-1	500	0.0	fixation	poldrack-single-stim	405	1132095	0.0-19.7-0.7	beast_fmri_test	313	n/a	n/a	<div class = centerbox><div class = fixation>+</div></div>	none	500.0	test	n/a	n/a	n/a	n/a	n/a	n/a	n/a	n/a	n/a	n/a	n/a	n/a	n/a	n/a	n/a	n/a	n/a	n/a	fixation
40121.473147999961	1100.0	n/a	-1	-1	2750	1322.526852	stim	stop-signal	406	1134848	0.0-19.7-1.7	beast_fmri_test	313	1132132,/,1132813,/,1133493,/,1134173,/,1134853,/,1135533,/	t,t,t,t,t,t	<img class = center src='/static/experiments/beast_fmri_test/images/P.png'></img>	89,71	2750.0	test	<img class = center src='/static/experiments/beast_fmri_test/images/redP.png'></img>	stop	1650.0	3.0	7.0	stop	non-target	P	89,Yellow Button	71,Green Button	1000.0	1100.0	1750.0	1650.0	0.0	1.0	1100.0	0.0	go_stim
41771.473147999961	1650.0	n/a	-1	-1	2750	1322.526852	stim	stop-signal	406	1134848	0.0-19.7-1.7	beast_fmri_test	313	1132132,/,1132813,/,1133493,/,1134173,/,1134853,/,1135533,/	t,t,t,t,t,t	<img class = center src='/static/experiments/beast_fmri_test/images/P.png'></img>	89,71	2750.0	test	<img class = center src='/static/experiments/beast_fmri_test/images/redP.png'></img>	stop	1650.0	3.0	7.0	stop	non-target	P	89,Yellow Button	71,Green Button	1000.0	1100.0	1750.0	1650.0	0.0	1.0	1100.0	0.0	stop_stim
42871.473147999961	1322.526852	n/a	-1	-1	2750	1322.526852	stim	stop-signal	406	1134848	0.0-19.7-1.7	beast_fmri_test	313	1132132,/,1132813,/,1133493,/,1134173,/,1134853,/,1135533,/	t,t,t,t,t,t	<img class = center src='/static/experiments/beast_fmri_test/images/P.png'></img>	89,71	2750.0	test	<img class = center src='/static/experiments/beast_fmri_test/images/redP.png'></img>	stop	1650.0	3.0	7.0	stop	non-target	P	89,Yellow Button	71,Green Button	1000.0	1100.0	1750.0	1650.0	0.0	1.0	1100.0	0.0	ITI
46033	500	n/a	-1	-1	500	0.0	fixation	poldrack-single-stim	407	1136687	0.0-19.8-0.8	beast_fmri_test	313	1136213,/	t	<div class = centerbox><div class = fixation>+</div></div>	none	500.0	test	n/a	n/a	n/a	n/a	n/a	n/a	n/a	n/a	n/a	n/a	n/a	n/a	n/a	n/a	n/a	n/a	n/a	n/a	fixation
45646.026358600007	2750	n/a	1954	71	2750	388.9736414	stim	stop-signal	408	1139439	0.0-19.8-1.8	beast_fmri_test	313	1136893,/,1137573,/,1138253,/,1138933,/,1139613,/	t,t,t,t,t	<img class = center src='/static/experiments/beast_fmri_test/images/P.png'></img>	89,71	2750.0	test	<img class = center src='/static/experiments/beast_fmri_test/images/redP.png'></img>	go	1750.0	3.0	8.0	go	target	P	89,Yellow Button	71,Green Button	1000.0	1150.0	1750.0	1650.0	0.0	n/a	1000.0	0.0	go_stim
48396.026358600007	388.97364139999996	n/a	1954	71	2750	388.9736414	stim	stop-signal	408	1139439	0.0-19.8-1.8	beast_fmri_test	313	1136893,/,1137573,/,1138253,/,1138933,/,1139613,/	t,t,t,t,t	<img class = center src='/static/experiments/beast_fmri_test/images/P.png'></img>	89,71	2750.0	test	<img class = center src='/static/experiments/beast_fmri_test/images/redP.png'></img>	go	1750.0	3.0	8.0	go	target	P	89,Yellow Button	71,Green Button	1000.0	1150.0	1750.0	1650.0	0.0	n/a	1000.0	0.0	ITI
49689	500	n/a	-1	-1	500	0.0	fixation	poldrack-single-stim	409	1140343	0.0-19.9-0.9	beast_fmri_test	313	1140293,/	t	<div class = centerbox><div class = fixation>+</div></div>	none	500.0	test	n/a	n/a	n/a	n/a	n/a	n/a	n/a	n/a	n/a	n/a	n/a	n/a	n/a	n/a	n/a	n/a	n/a	n/a	fixation
49498.371652799891	2750	n/a	2421	89	2750	191.6283472	stim	stop-signal	410	1143094	0.0-19.9-1.9	beast_fmri_test	313	1140973,/,1141653,/,1142333,/,1143012,/	t,t,t,t	<img class = center src='/static/experiments/beast_fmri_test/images/T.png'></img>	89,71	2750.0	test	<img class = center src='/static/experiments/beast_fmri_test/images/redT.png'></img>	go	1750.0	3.0	9.0	go	target	T	89,Yellow Button	71,Green Button	1000.0	1150.0	1750.0	1650.0	1.0	n/a	1000.0	1.0	go_stim
52248.371652799891	191.62834719999998	n/a	2421	89	2750	191.6283472	stim	stop-signal	410	1143094	0.0-19.9-1.9	beast_fmri_test	313	1140973,/,1141653,/,1142333,/,1143012,/	t,t,t,t	<img class = center src='/static/experiments/beast_fmri_test/images/T.png'></img>	89,71	2750.0	test	<img class = center src='/static/experiments/beast_fmri_test/images/redT.png'></img>	go	1750.0	3.0	9.0	go	target	T	89,Yellow Button	71,Green Button	1000.0	1150.0	1750.0	1650.0	1.0	n/a	1000.0	1.0	ITI
53149	500	n/a	-1	-1	500	0.0	fixation	poldrack-single-stim	411	1143803	0.0-19.10-0.10	beast_fmri_test	313	1143693,/	t	<div class = centerbox><div class = fixation>+</div></div>	none	500.0	test	n/a	n/a	n/a	n/a	n/a	n/a	n/a	n/a	n/a	n/a	n/a	n/a	n/a	n/a	n/a	n/a	n/a	n/a	fixation
52261.75884429994	1150.0	n/a	-1	-1	2750	890.2411557	stim	stop-signal	412	1146556	0.0-19.10-1.10	beast_fmri_test	313	1144373,/,1145053,/,1145733,/,1146413,/,1147093,/	t,t,t,t,t	<img class = center src='/static/experiments/beast_fmri_test/images/B.png'></img>	89,71	2750.0	test	<img class = center src='/static/experiments/beast_fmri_test/images/redB.png'></img>	stop	1600.0	3.0	10.0	stop	non-target	B	89,Yellow Button	71,Green Button	1000.0	1150.0	1750.0	1600.0	0.0	1.0	1150.0	0.0	go_stim
53861.75884429994	1600.0	n/a	-1	-1	2750	890.2411557	stim	stop-signal	412	1146556	0.0-19.10-1.10	beast_fmri_test	313	1144373,/,1145053,/,1145733,/,1146413,/,1147093,/	t,t,t,t,t	<img class = center src='/static/experiments/beast_fmri_test/images/B.png'></img>	89,71	2750.0	test	<img class = center src='/static/experiments/beast_fmri_test/images/redB.png'></img>	stop	1600.0	3.0	10.0	stop	non-target	B	89,Yellow Button	71,Green Button	1000.0	1150.0	1750.0	1600.0	0.0	1.0	1150.0	0.0	stop_stim
55011.75884429994	890.24115570000004	n/a	-1	-1	2750	890.2411557	stim	stop-signal	412	1146556	0.0-19.10-1.10	beast_fmri_test	313	1144373,/,1145053,/,1145733,/,1146413,/,1147093,/	t,t,t,t,t	<img class = center src='/static/experiments/beast_fmri_test/images/B.png'></img>	89,71	2750.0	test	<img class = center src='/static/experiments/beast_fmri_test/images/redB.png'></img>	stop	1600.0	3.0	10.0	stop	non-target	B	89,Yellow Button	71,Green Button	1000.0	1150.0	1750.0	1600.0	0.0	1.0	1150.0	0.0	ITI
57311	500	n/a	-1	-1	500	0.0	fixation	poldrack-single-stim	413	1147965	0.0-19.11-0.11	beast_fmri_test	313	1147773,/	t	<div class = centerbox><div class = fixation>+</div></div>	none	500.0	test	n/a	n/a	n/a	n/a	n/a	n/a	n/a	n/a	n/a	n/a	n/a	n/a	n/a	n/a	n/a	n/a	n/a	n/a	fixation
56899.480803899933	2750	n/a	1500	71	2750	413.5191961	stim	stop-signal	414	1150717	0.0-19.11-1.11	beast_fmri_test	313	1148453,/,1149132,/,1149813,/,1150492,/	t,t,t,t	<img class = center src='/static/experiments/beast_fmri_test/images/D.png'></img>	89,71	2750.0	test	<img class = center src='/static/experiments/beast_fmri_test/images/redD.png'></img>	go	1550.0	3.0	11.0	go	non-target	D	89,Yellow Button	71,Green Button	1000.0	1200.0	1750.0	1550.0	1.0	n/a	1200.0	1.0	go_stim
59649.480803899933	413.51919609999999	n/a	1500	71	2750	413.5191961	stim	stop-signal	414	1150717	0.0-19.11-1.11	beast_fmri_test	313	1148453,/,1149132,/,1149813,/,1150492,/	t,t,t,t	<img class = center src='/static/experiments/beast_fmri_test/images/D.png'></img>	89,71	2750.0	test	<img class = center src='/static/experiments/beast_fmri_test/images/redD.png'></img>	go	1550.0	3.0	11.0	go	non-target	D	89,Yellow Button	71,Green Button	1000.0	1200.0	1750.0	1550.0	1.0	n/a	1200.0	1.0	ITI
60993	500	n/a	-1	-1	500	0.0	fixation	poldrack-single-stim	415	1151647	0.0-19.12-0.12	beast_fmri_test	313	1151173,/	t	<div class = centerbox><div class = fixation>+</div></div>	none	500.0	test	n/a	n/a	n/a	n/a	n/a	n/a	n/a	n/a	n/a	n/a	n/a	n/a	n/a	n/a	n/a	n/a	n/a	n/a	fixation
59860.87364799995	2750	n/a	1719	71	2750	1133.126352	stim	stop-signal	416	1154398	0.0-19.12-1.12	beast_fmri_test	313	1151852,/,1152532,/,1153213,/,1153893,/,1154572,/,1155252,/	t,t,t,t,t,t	<img class = center src='/static/experiments/beast_fmri_test/images/P.png'></img>	89,71	2750.0	test	<img class = center src='/static/experiments/beast_fmri_test/images/redP.png'></img>	go	1550.0	3.0	12.0	go	non-target	P	89,Yellow Button	71,Green Button	1000.0	1200.0	1750.0	1550.0	1.0	n/a	1200.0	1.0	go_stim
62610.87364799995	1133.126352	n/a	1719	71	2750	1133.126352	stim	stop-signal	416	1154398	0.0-19.12-1.12	beast_fmri_test	313	1151852,/,1152532,/,1153213,/,1153893,/,1154572,/,1155252,/	t,t,t,t,t,t	<img class = center src='/static/experiments/beast_fmri_test/images/P.png'></img>	89,71	2750.0	test	<img class = center src='/static/experiments/beast_fmri_test/images/redP.png'></img>	go	1550.0	3.0	12.0	go	non-target	P	89,Yellow Button	71,Green Button	1000.0	1200.0	1750.0	1550.0	1.0	n/a	1200.0	1.0	ITI
65398	500	n/a	-1	-1	500	0.0	fixation	poldrack-single-stim	417	1156052	0.0-19.13-0.13	beast_fmri_test	313	1155932,/	t	<div class = centerbox><div class = fixation>+</div></div>	none	500.0	test	n/a	n/a	n/a	n/a	n/a	n/a	n/a	n/a	n/a	n/a	n/a	n/a	n/a	n/a	n/a	n/a	n/a	n/a	fixation
64639.027775000082	1000.0	n/a	-1	-1	2750	760.972225	stim	stop-signal	418	1158804	0.0-19.13-1.13	beast_fmri_test	313	1156612,/,1157292,/,1157974,/,1158653,/,1159332,/	t,t,t,t,t	<img class = center src='/static/experiments/beast_fmri_test/images/B.png'></img>	89,71	2750.0	test	<img class = center src='/static/experiments/beast_fmri_test/images/redB.png'></img>	stop	1750.0	3.0	13.0	stop	target	B	89,Yellow Button	71,Green Button	1000.0	1200.0	1750.0	1550.0	0.0	1.0	1000.0	0.0	go_stim
66389.027775000082	1750.0	n/a	-1	-1	2750	760.972225	stim	stop-signal	418	1158804	0.0-19.13-1.13	beast_fmri_test	313	1156612,/,1157292,/,1157974,/,1158653,/,1159332,/	t,t,t,t,t	<img class = center src='/static/experiments/beast_fmri_test/images/B.png'></img>	89,71	2750.0	test	<img class = center src='/static/experiments/beast_fmri_test/images/redB.png'></img>	stop	1750.0	3.0	13.0	stop	target	B	89,Yellow Button	71,Green Button	1000.0	1200.0	1750.0	1550.0	0.0	1.0	1000.0	0.0	stop_stim
67389.027775000082	760.97222499999998	n/a	-1	-1	2750	760.972225	stim	stop-signal	418	1158804	0.0-19.13-1.13	beast_fmri_test	313	1156612,/,1157292,/,1157974,/,1158653,/,1159332,/	t,t,t,t,t	<img class = center src='/static/experiments/beast_fmri_test/images/B.png'></img>	89,71	2750.0	test	<img class = center src='/static/experiments/beast_fmri_test/images/redB.png'></img>	stop	1750.0	3.0	13.0	stop	target	B	89,Yellow Button	71,Green Button	1000.0	1200.0	1750.0	1550.0	0.0	1.0	1000.0	0.0	ITI
69431	500	n/a	-1	-1	500	0.0	fixation	poldrack-single-stim	419	1160085	0.0-19.14-0.14	beast_fmri_test	313	1160012,/	t	<div class = centerbox><div class = fixation>+</div></div>	none	500.0	test	n/a	n/a	n/a	n/a	n/a	n/a	n/a	n/a	n/a	n/a	n/a	n/a	n/a	n/a	n/a	n/a	n/a	n/a	fixation
69132.964102800004	2750	n/a	2329	71	2750	300.0358972	stim	stop-signal	420	1162837	0.0-19.14-1.14	beast_fmri_test	313	1160692,/,1161372,/,1162052,/,1162732,/	t,t,t,t	<img class = center src='/static/experiments/beast_fmri_test/images/T.png'></img>	89,71	2750.0	test	<img class = center src='/static/experiments/beast_fmri_test/images/redT.png'></img>	go	1550.0	3.0	14.0	go	non-target	T	89,Yellow Button	71,Green Button	1050.0	1200.0	1750.0	1550.0	1.0	n/a	1200.0	1.0	go_stim
71882.964102800004	300.03589720000002	n/a	2329	71	2750	300.0358972	stim	stop-signal	420	1162837	0.0-19.14-1.14	beast_fmri_test	313	1160692,/,1161372,/,1162052,/,1162732,/	t,t,t,t	<img class = center src='/static/experiments/beast_fmri_test/images/T.png'></img>	89,71	2750.0	test	<img class = center src='/static/experiments/beast_fmri_test/images/redT.png'></img>	go	1550.0	3.0	14.0	go	non-target	T	89,Yellow Button	71,Green Button	1050.0	1200.0	1750.0	1550.0	1.0	n/a	1200.0	1.0	ITI
73003	500	n/a	-1	-1	500	0.0	fixation	poldrack-single-stim	421	1163657	0.0-19.15-0.15	beast_fmri_test	313	1163412,/	t	<div class = centerbox><div class = fixation>+</div></div>	none	500.0	test	n/a	n/a	n/a	n/a	n/a	n/a	n/a	n/a	n/a	n/a	n/a	n/a	n/a	n/a	n/a	n/a	n/a	n/a	fixation
72581.066830399912	2750	n/a	-1	-1	2750	423.9331696	stim	stop-signal	422	1166409	0.0-19.15-1.15	beast_fmri_test	313	1164092,/,1164772,/,1165452,/,1166133,/,1166813,/	t,t,t,t,t	<img class = center src='/static/experiments/beast_fmri_test/images/D.png'></img>	89,71	2750.0	test	<img class = center src='/static/experiments/beast_fmri_test/images/redD.png'></img>	go	1550.0	3.0	15.0	go	non-target	D	89,Yellow Button	71,Green Button	1050.0	1200.0	1750.0	1550.0	0.0	n/a	1200.0	0.0	go_stim
75331.066830399912	423.93316960000004	n/a	-1	-1	2750	423.9331696	stim	stop-signal	422	1166409	0.0-19.15-1.15	beast_fmri_test	313	1164092,/,1164772,/,1165452,/,1166133,/,1166813,/	t,t,t,t,t	<img class = center src='/static/experiments/beast_fmri_test/images/D.png'></img>	89,71	2750.0	test	<img class = center src='/static/experiments/beast_fmri_test/images/redD.png'></img>	go	1550.0	3.0	15.0	go	non-target	D	89,Yellow Button	71,Green Button	1050.0	1200.0	1750.0	1550.0	0.0	n/a	1200.0	0.0	ITI
76698	500	n/a	-1	-1	500	0.0	fixation	poldrack-single-stim	423	1167352	0.0-19.16-0.16	beast_fmri_test	313	n/a	n/a	<div class = centerbox><div class = fixation>+</div></div>	none	500.0	test	n/a	n/a	n/a	n/a	n/a	n/a	n/a	n/a	n/a	n/a	n/a	n/a	n/a	n/a	n/a	n/a	n/a	n/a	fixation
75524.949006000068	1200.0	n/a	-1	-1	2750	1176.050994	stim	stop-signal	424	1170105	0.0-19.16-1.16	beast_fmri_test	313	1167493,/,1168174,/,1168853,/,1169533,/,1170213,/,1170893,/	t,t,t,t,t,t	<img class = center src='/static/experiments/beast_fmri_test/images/D.png'></img>	89,71	2750.0	test	<img class = center src='/static/experiments/beast_fmri_test/images/redD.png'></img>	stop	1550.0	3.0	16.0	stop	non-target	D	89,Yellow Button	71,Green Button	1050.0	1200.0	1750.0	1550.0	0.0	1.0	1200.0	0.0	go_stim
77074.949006000068	1550.0	n/a	-1	-1	2750	1176.050994	stim	stop-signal	424	1170105	0.0-19.16-1.16	beast_fmri_test	313	1167493,/,1168174,/,1168853,/,1169533,/,1170213,/,1170893,/	t,t,t,t,t,t	<img class = center src='/static/experiments/beast_fmri_test/images/D.png'></img>	89,71	2750.0	test	<img class = center src='/static/experiments/beast_fmri_test/images/redD.png'></img>	stop	1550.0	3.0	16.0	stop	non-target	D	89,Yellow Button	71,Green Button	1050.0	1200.0	1750.0	1550.0	0.0	1.0	1200.0	0.0	stop_stim
78274.949006000068	1176.0509939999999	n/a	-1	-1	2750	1176.050994	stim	stop-signal	424	1170105	0.0-19.16-1.16	beast_fmri_test	313	1167493,/,1168174,/,1168853,/,1169533,/,1170213,/,1170893,/	t,t,t,t,t,t	<img class = center src='/static/experiments/beast_fmri_test/images/D.png'></img>	89,71	2750.0	test	<img class = center src='/static/experiments/beast_fmri_test/images/redD.png'></img>	stop	1550.0	3.0	16.0	stop	non-target	D	89,Yellow Button	71,Green Button	1050.0	1200.0	1750.0	1550.0	0.0	1.0	1200.0	0.0	ITI
81147	500	n/a	-1	-1	500	0.0	fixation	poldrack-single-stim	425	1171801	0.0-19.17-0.17	beast_fmri_test	313	1171573,/	t	<div class = centerbox><div class = fixation>+</div></div>	none	500.0	test	n/a	n/a	n/a	n/a	n/a	n/a	n/a	n/a	n/a	n/a	n/a	n/a	n/a	n/a	n/a	n/a	n/a	n/a	fixation
80981.878429600038	2750	n/a	1982	71	2750	167.1215704	stim	stop-signal	426	1174553	0.0-19.17-1.17	beast_fmri_test	313	1172253,/,1172933,/,1173613,/,1174293,/	t,t,t,t	<img class = center src='/static/experiments/beast_fmri_test/images/T.png'></img>	89,71	2750.0	test	<img class = center src='/static/experiments/beast_fmri_test/images/redT.png'></img>	go	1700.0	3.0	17.0	go	target	T	89,Yellow Button	71,Green Button	1050.0	1250.0	1700.0	1550.0	0.0	n/a	1050.0	0.0	go_stim
83731.878429600038	167.12157040000002	n/a	1982	71	2750	167.1215704	stim	stop-signal	426	1174553	0.0-19.17-1.17	beast_fmri_test	313	1172253,/,1172933,/,1173613,/,1174293,/	t,t,t,t	<img class = center src='/static/experiments/beast_fmri_test/images/T.png'></img>	89,71	2750.0	test	<img class = center src='/static/experiments/beast_fmri_test/images/redT.png'></img>	go	1700.0	3.0	17.0	go	target	T	89,Yellow Button	71,Green Button	1050.0	1250.0	1700.0	1550.0	0.0	n/a	1050.0	0.0	ITI
84585	500	n/a	-1	-1	500	0.0	fixation	poldrack-single-stim	427	1175239	0.0-19.18-0.18	beast_fmri_test	313	1174973,/	t	<div class = centerbox><div class = fixation>+</div></div>	none	500.0	test	n/a	n/a	n/a	n/a	n/a	n/a	n/a	n/a	n/a	n/a	n/a	n/a	n/a	n/a	n/a	n/a	n/a	n/a	fixation
84514.930287509924	2750	n/a	1947	71	2750	72.06971249	stim	stop-signal	428	1177991	0.0-19.18-1.18	beast_fmri_test	313	1175653,/,1176333,/,1177013,/,1177693,/	t,t,t,t	<img class = center src='/static/experiments/beast_fmri_test/images/V.png'></img>	89,71	2750.0	test	<img class = center src='/static/experiments/beast_fmri_test/images/redV.png'></img>	go	1500.0	3.0	18.0	go	non-target	V	89,Yellow Button	71,Green Button	1050.0	1250.0	1700.0	1500.0	1.0	n/a	1250.0	1.0	go_stim
87264.930287509924	72.069712490000001	n/a	1947	71	2750	72.06971249	stim	stop-signal	428	1177991	0.0-19.18-1.18	beast_fmri_test	313	1175653,/,1176333,/,1177013,/,1177693,/	t,t,t,t	<img class = center src='/static/experiments/beast_fmri_test/images/V.png'></img>	89,71	2750.0	test	<img class = center src='/static/experiments/beast_fmri_test/images/redV.png'></img>	go	1500.0	3.0	18.0	go	non-target	V	89,Yellow Button	71,Green Button	1050.0	1250.0	1700.0	1500.0	1.0	n/a	1250.0	1.0	ITI
87929	500	n/a	-1	-1	500	0.0	fixation	poldrack-single-stim	429	1178583	0.0-19.19-0.19	beast_fmri_test	313	1178373,/	t	<div class = centerbox><div class = fixation>+</div></div>	none	500.0	test	n/a	n/a	n/a	n/a	n/a	n/a	n/a	n/a	n/a	n/a	n/a	n/a	n/a	n/a	n/a	n/a	n/a	n/a	fixation
86617.094707000069	2750	n/a	2255	71	2750	1312.905293	stim	stop-signal	430	1181334	0.0-19.19-1.19	beast_fmri_test	313	1179053,/,1179733,/,1180413,/,1181093,/,1181773,/,1182453,/	t,t,t,t,t,t	<img class = center src='/static/experiments/beast_fmri_test/images/B.png'></img>	89,71	2750.0	test	<img class = center src='/static/experiments/beast_fmri_test/images/redB.png'></img>	go	1500.0	3.0	19.0	go	non-target	B	89,Yellow Button	71,Green Button	1050.0	1250.0	1700.0	1500.0	1.0	n/a	1250.0	1.0	go_stim
89367.094707000069	1312.905293	n/a	2255	71	2750	1312.905293	stim	stop-signal	430	1181334	0.0-19.19-1.19	beast_fmri_test	313	1179053,/,1179733,/,1180413,/,1181093,/,1181773,/,1182453,/	t,t,t,t,t,t	<img class = center src='/static/experiments/beast_fmri_test/images/B.png'></img>	89,71	2750.0	test	<img class = center src='/static/experiments/beast_fmri_test/images/redB.png'></img>	go	1500.0	3.0	19.0	go	non-target	B	89,Yellow Button	71,Green Button	1050.0	1250.0	1700.0	1500.0	1.0	n/a	1250.0	1.0	ITI
92511	500	n/a	-1	-1	500	0.0	fixation	poldrack-single-stim	431	1183165	0.0-19.20-0.20	beast_fmri_test	313	1183133,/	t	<div class = centerbox><div class = fixation>+</div></div>	none	500.0	test	n/a	n/a	n/a	n/a	n/a	n/a	n/a	n/a	n/a	n/a	n/a	n/a	n/a	n/a	n/a	n/a	n/a	n/a	fixation
91903.423846499994	2750	n/a	1912	71	2750	609.5761535	stim	stop-signal	432	1185917	0.0-19.20-1.20	beast_fmri_test	313	1183813,/,1184492,/,1185173,/,1185852,/	t,t,t,t	<img class = center src='/static/experiments/beast_fmri_test/images/T.png'></img>	89,71	2750.0	test	<img class = center src='/static/experiments/beast_fmri_test/images/redT.png'></img>	go	1700.0	3.0	20.0	go	target	T	89,Yellow Button	71,Green Button	1050.0	1250.0	1700.0	1500.0	0.0	n/a	1050.0	0.0	go_stim
94653.423846499994	609.57615350000003	n/a	1912	71	2750	609.5761535	stim	stop-signal	432	1185917	0.0-19.20-1.20	beast_fmri_test	313	1183813,/,1184492,/,1185173,/,1185852,/	t,t,t,t	<img class = center src='/static/experiments/beast_fmri_test/images/T.png'></img>	89,71	2750.0	test	<img class = center src='/static/experiments/beast_fmri_test/images/redT.png'></img>	go	1700.0	3.0	20.0	go	target	T	89,Yellow Button	71,Green Button	1050.0	1250.0	1700.0	1500.0	0.0	n/a	1050.0	0.0	ITI
96391	500	n/a	-1	-1	500	0.0	fixation	poldrack-single-stim	433	1187045	0.0-19.21-0.21	beast_fmri_test	313	1186544,/	t	<div class = centerbox><div class = fixation>+</div></div>	none	500.0	test	n/a	n/a	n/a	n/a	n/a	n/a	n/a	n/a	n/a	n/a	n/a	n/a	n/a	n/a	n/a	n/a	n/a	n/a	fixation
96384.476991452044	2750	n/a	2524	71	2750	7.523008548	stim	stop-signal	434	1189796	0.0-19.21-1.21	beast_fmri_test	313	1187213,/,1187893,/,1188574,/,1189252,/	t,t,t,t	<img class = center src='/static/experiments/beast_fmri_test/images/V.png'></img>	89,71	2750.0	test	<img class = center src='/static/experiments/beast_fmri_test/images/redV.png'></img>	go	1700.0	3.0	21.0	go	target	V	89,Yellow Button	71,Green Button	1050.0	1250.0	1700.0	1500.0	0.0	n/a	1050.0	0.0	go_stim
99134.476991452044	7.523008548	n/a	2524	71	2750	7.523008548	stim	stop-signal	434	1189796	0.0-19.21-1.21	beast_fmri_test	313	1187213,/,1187893,/,1188574,/,1189252,/	t,t,t,t	<img class = center src='/static/experiments/beast_fmri_test/images/V.png'></img>	89,71	2750.0	test	<img class = center src='/static/experiments/beast_fmri_test/images/redV.png'></img>	go	1700.0	3.0	21.0	go	target	V	89,Yellow Button	71,Green Button	1050.0	1250.0	1700.0	1500.0	0.0	n/a	1050.0	0.0	ITI
99665	500	n/a	-1	-1	500	0.0	fixation	poldrack-single-stim	435	1190319	0.0-19.22-0.22	beast_fmri_test	313	1189933,/	t	<div class = centerbox><div class = fixation>+</div></div>	none	500.0	test	n/a	n/a	n/a	n/a	n/a	n/a	n/a	n/a	n/a	n/a	n/a	n/a	n/a	n/a	n/a	n/a	n/a	n/a	fixation
98097.052474000026	1250.0	n/a	-1	-1	2750	1568.947526	stim	stop-signal	436	1193070	0.0-19.22-1.22	beast_fmri_test	313	1190612,/,1191292,/,1191973,/,1192653,/,1193332,/,1194012,/	t,t,t,t,t,t	<img class = center src='/static/experiments/beast_fmri_test/images/V.png'></img>	89,71	2750.0	test	<img class = center src='/static/experiments/beast_fmri_test/images/redV.png'></img>	stop	1500.0	3.0	22.0	stop	non-target	V	89,Yellow Button	71,Green Button	1050.0	1250.0	1700.0	1500.0	0.0	1.0	1250.0	0.0	go_stim
99597.052474000026	1500.0	n/a	-1	-1	2750	1568.947526	stim	stop-signal	436	1193070	0.0-19.22-1.22	beast_fmri_test	313	1190612,/,1191292,/,1191973,/,1192653,/,1193332,/,1194012,/	t,t,t,t,t,t	<img class = center src='/static/experiments/beast_fmri_test/images/V.png'></img>	89,71	2750.0	test	<img class = center src='/static/experiments/beast_fmri_test/images/redV.png'></img>	stop	1500.0	3.0	22.0	stop	non-target	V	89,Yellow Button	71,Green Button	1050.0	1250.0	1700.0	1500.0	0.0	1.0	1250.0	0.0	stop_stim
100847.05247400003	1568.9475259999999	n/a	-1	-1	2750	1568.947526	stim	stop-signal	436	1193070	0.0-19.22-1.22	beast_fmri_test	313	1190612,/,1191292,/,1191973,/,1192653,/,1193332,/,1194012,/	t,t,t,t,t,t	<img class = center src='/static/experiments/beast_fmri_test/images/V.png'></img>	89,71	2750.0	test	<img class = center src='/static/experiments/beast_fmri_test/images/redV.png'></img>	stop	1500.0	3.0	22.0	stop	non-target	V	89,Yellow Button	71,Green Button	1050.0	1250.0	1700.0	1500.0	0.0	1.0	1250.0	0.0	ITI
104505	500	n/a	-1	-1	500	0.0	fixation	poldrack-single-stim	437	1195159	0.0-19.23-0.23	beast_fmri_test	313	1194692,/	t	<div class = centerbox><div class = fixation>+</div></div>	none	500.0	test	n/a	n/a	n/a	n/a	n/a	n/a	n/a	n/a	n/a	n/a	n/a	n/a	n/a	n/a	n/a	n/a	n/a	n/a	fixation
103268.64799600001	2750	n/a	1799	71	2750	1238.352004	stim	stop-signal	438	1197911	0.0-19.23-1.23	beast_fmri_test	313	1195372,/,1196053,/,1196732,/,1197412,/,1198092,/,1198773,/	t,t,t,t,t,t	<img class = center src='/static/experiments/beast_fmri_test/images/P.png'></img>	89,71	2750.0	test	<img class = center src='/static/experiments/beast_fmri_test/images/redP.png'></img>	go	1450.0	3.0	23.0	go	non-target	P	89,Yellow Button	71,Green Button	1050.0	1300.0	1700.0	1450.0	1.0	n/a	1300.0	1.0	go_stim
106018.64799600001	1238.3520039999999	n/a	1799	71	2750	1238.352004	stim	stop-signal	438	1197911	0.0-19.23-1.23	beast_fmri_test	313	1195372,/,1196053,/,1196732,/,1197412,/,1198092,/,1198773,/	t,t,t,t,t,t	<img class = center src='/static/experiments/beast_fmri_test/images/P.png'></img>	89,71	2750.0	test	<img class = center src='/static/experiments/beast_fmri_test/images/redP.png'></img>	go	1450.0	3.0	23.0	go	non-target	P	89,Yellow Button	71,Green Button	1050.0	1300.0	1700.0	1450.0	1.0	n/a	1300.0	1.0	ITI
109012	500	n/a	-1	-1	500	0.0	fixation	poldrack-single-stim	439	1199666	0.0-19.24-0.24	beast_fmri_test	313	1199453,/	t	<div class = centerbox><div class = fixation>+</div></div>	none	500.0	test	n/a	n/a	n/a	n/a	n/a	n/a	n/a	n/a	n/a	n/a	n/a	n/a	n/a	n/a	n/a	n/a	n/a	n/a	fixation
108841.35809189989	2750	n/a	-1	-1	2750	172.6419081	stim	stop-signal	440	1202418	0.0-19.24-1.24	beast_fmri_test	313	1200133,/,1200813,/,1201493,/,1202173,/	t,t,t,t	<img class = center src='/static/experiments/beast_fmri_test/images/T.png'></img>	89,71	2750.0	test	<img class = center src='/static/experiments/beast_fmri_test/images/redT.png'></img>	go	1450.0	3.0	24.0	go	non-target	T	89,Yellow Button	71,Green Button	1050.0	1300.0	1700.0	1450.0	0.0	n/a	1300.0	0.0	go_stim
111591.35809189989	172.64190809999999	n/a	-1	-1	2750	172.6419081	stim	stop-signal	440	1202418	0.0-19.24-1.24	beast_fmri_test	313	1200133,/,1200813,/,1201493,/,1202173,/	t,t,t,t	<img class = center src='/static/experiments/beast_fmri_test/images/T.png'></img>	89,71	2750.0	test	<img class = center src='/static/experiments/beast_fmri_test/images/redT.png'></img>	go	1450.0	3.0	24.0	go	non-target	T	89,Yellow Button	71,Green Button	1050.0	1300.0	1700.0	1450.0	0.0	n/a	1300.0	0.0	ITI
112453	500	n/a	-1	-1	500	0.0	fixation	poldrack-single-stim	441	1203107	0.0-19.25-0.25	beast_fmri_test	313	1202853,/	t	<div class = centerbox><div class = fixation>+</div></div>	none	500.0	test	n/a	n/a	n/a	n/a	n/a	n/a	n/a	n/a	n/a	n/a	n/a	n/a	n/a	n/a	n/a	n/a	n/a	n/a	fixation
112250.11661939998	2750	n/a	2404	71	2750	203.8833806	stim	stop-signal	442	1205858	0.0-19.25-1.25	beast_fmri_test	313	1203533,/,1204213,/,1204893,/,1205573,/	t,t,t,t	<img class = center src='/static/experiments/beast_fmri_test/images/V.png'></img>	89,71	2750.0	test	<img class = center src='/static/experiments/beast_fmri_test/images/redV.png'></img>	go	1700.0	3.0	25.0	go	target	V	89,Yellow Button	71,Green Button	1050.0	1300.0	1700.0	1450.0	0.0	n/a	1050.0	0.0	go_stim
115000.11661939998	203.88338059999998	n/a	2404	71	2750	203.8833806	stim	stop-signal	442	1205858	0.0-19.25-1.25	beast_fmri_test	313	1203533,/,1204213,/,1204893,/,1205573,/	t,t,t,t	<img class = center src='/static/experiments/beast_fmri_test/images/V.png'></img>	89,71	2750.0	test	<img class = center src='/static/experiments/beast_fmri_test/images/redV.png'></img>	go	1700.0	3.0	25.0	go	target	V	89,Yellow Button	71,Green Button	1050.0	1300.0	1700.0	1450.0	0.0	n/a	1050.0	0.0	ITI
115924	500	n/a	-1	-1	500	0.0	fixation	poldrack-single-stim	443	1206578	0.0-19.26-0.26	beast_fmri_test	313	1206253,/	t	<div class = centerbox><div class = fixation>+</div></div>	none	500.0	test	n/a	n/a	n/a	n/a	n/a	n/a	n/a	n/a	n/a	n/a	n/a	n/a	n/a	n/a	n/a	n/a	n/a	n/a	fixation
115099.23505340004	1300.0	n/a	-1	-1	2750	826.7649466	stim	stop-signal	444	1209330	0.0-19.26-1.26	beast_fmri_test	313	1206933,/,1207613,/,1208293,/,1208973,/,1209653,/	t,t,t,t,t	<img class = center src='/static/experiments/beast_fmri_test/images/D.png'></img>	89,71	2750.0	test	<img class = center src='/static/experiments/beast_fmri_test/images/redD.png'></img>	stop	1450.0	3.0	26.0	stop	non-target	D	89,Yellow Button	71,Green Button	1050.0	1300.0	1700.0	1450.0	0.0	1.0	1300.0	0.0	go_stim
116549.23505340004	1450.0	n/a	-1	-1	2750	826.7649466	stim	stop-signal	444	1209330	0.0-19.26-1.26	beast_fmri_test	313	1206933,/,1207613,/,1208293,/,1208973,/,1209653,/	t,t,t,t,t	<img class = center src='/static/experiments/beast_fmri_test/images/D.png'></img>	89,71	2750.0	test	<img class = center src='/static/experiments/beast_fmri_test/images/redD.png'></img>	stop	1450.0	3.0	26.0	stop	non-target	D	89,Yellow Button	71,Green Button	1050.0	1300.0	1700.0	1450.0	0.0	1.0	1300.0	0.0	stop_stim
117849.23505340004	826.76494660000003	n/a	-1	-1	2750	826.7649466	stim	stop-signal	444	1209330	0.0-19.26-1.26	beast_fmri_test	313	1206933,/,1207613,/,1208293,/,1208973,/,1209653,/	t,t,t,t,t	<img class = center src='/static/experiments/beast_fmri_test/images/D.png'></img>	89,71	2750.0	test	<img class = center src='/static/experiments/beast_fmri_test/images/redD.png'></img>	stop	1450.0	3.0	26.0	stop	non-target	D	89,Yellow Button	71,Green Button	1050.0	1300.0	1700.0	1450.0	0.0	1.0	1300.0	0.0	ITI
120021	500	n/a	-1	-1	500	0.0	fixation	poldrack-single-stim	445	1210675	0.0-19.27-0.27	beast_fmri_test	313	1210333,/	t	<div class = centerbox><div class = fixation>+</div></div>	none	500.0	test	n/a	n/a	n/a	n/a	n/a	n/a	n/a	n/a	n/a	n/a	n/a	n/a	n/a	n/a	n/a	n/a	n/a	n/a	fixation
119664.06313250004	1050.0	n/a	-1	-1	2750	358.9368675	stim	stop-signal	446	1213427	0.0-19.27-1.27	beast_fmri_test	313	1211013,/,1211693,/,1212373,/,1213053,/,1213733,/	t,t,t,t,t	<img class = center src='/static/experiments/beast_fmri_test/images/T.png'></img>	89,71	2750.0	test	<img class = center src='/static/experiments/beast_fmri_test/images/redT.png'></img>	stop	1700.0	3.0	27.0	stop	target	T	89,Yellow Button	71,Green Button	1050.0	1350.0	1700.0	1450.0	0.0	1.0	1050.0	0.0	go_stim
121364.06313250004	1700.0	n/a	-1	-1	2750	358.9368675	stim	stop-signal	446	1213427	0.0-19.27-1.27	beast_fmri_test	313	1211013,/,1211693,/,1212373,/,1213053,/,1213733,/	t,t,t,t,t	<img class = center src='/static/experiments/beast_fmri_test/images/T.png'></img>	89,71	2750.0	test	<img class = center src='/static/experiments/beast_fmri_test/images/redT.png'></img>	stop	1700.0	3.0	27.0	stop	target	T	89,Yellow Button	71,Green Button	1050.0	1350.0	1700.0	1450.0	0.0	1.0	1050.0	0.0	stop_stim
122414.06313250004	358.93686750000001	n/a	-1	-1	2750	358.9368675	stim	stop-signal	446	1213427	0.0-19.27-1.27	beast_fmri_test	313	1211013,/,1211693,/,1212373,/,1213053,/,1213733,/	t,t,t,t,t	<img class = center src='/static/experiments/beast_fmri_test/images/T.png'></img>	89,71	2750.0	test	<img class = center src='/static/experiments/beast_fmri_test/images/redT.png'></img>	stop	1700.0	3.0	27.0	stop	target	T	89,Yellow Button	71,Green Button	1050.0	1350.0	1700.0	1450.0	0.0	1.0	1050.0	0.0	ITI
123651	500	n/a	-1	-1	500	0.0	fixation	poldrack-single-stim	447	1214305	0.0-19.28-0.28	beast_fmri_test	313	n/a	n/a	<div class = centerbox><div class = fixation>+</div></div>	none	500.0	test	n/a	n/a	n/a	n/a	n/a	n/a	n/a	n/a	n/a	n/a	n/a	n/a	n/a	n/a	n/a	n/a	n/a	n/a	fixation
123610.11230616993	2750	n/a	1254	71	2750	42.88769383	stim	stop-signal	448	1217057	0.0-19.28-1.28	beast_fmri_test	313	1214412,/,1215092,/,1215773,/,1216452,/	t,t,t,t	<img class = center src='/static/experiments/beast_fmri_test/images/B.png'></img>	89,71	2750.0	test	<img class = center src='/static/experiments/beast_fmri_test/images/redB.png'></img>	go	1400.0	3.0	28.0	go	non-target	B	89,Yellow Button	71,Green Button	1100.0	1350.0	1700.0	1400.0	1.0	n/a	1350.0	1.0	go_stim
126360.11230616993	42.887693830000003	n/a	1254	71	2750	42.88769383	stim	stop-signal	448	1217057	0.0-19.28-1.28	beast_fmri_test	313	1214412,/,1215092,/,1215773,/,1216452,/	t,t,t,t	<img class = center src='/static/experiments/beast_fmri_test/images/B.png'></img>	89,71	2750.0	test	<img class = center src='/static/experiments/beast_fmri_test/images/redB.png'></img>	go	1400.0	3.0	28.0	go	non-target	B	89,Yellow Button	71,Green Button	1100.0	1350.0	1700.0	1400.0	1.0	n/a	1350.0	1.0	ITI
126965	500	n/a	-1	-1	500	0.0	fixation	poldrack-single-stim	449	1217619	0.0-19.29-0.29	beast_fmri_test	313	1217133,/	t	<div class = centerbox><div class = fixation>+</div></div>	none	500.0	test	n/a	n/a	n/a	n/a	n/a	n/a	n/a	n/a	n/a	n/a	n/a	n/a	n/a	n/a	n/a	n/a	n/a	n/a	fixation
126764.69097570004	1350.0	n/a	1863	71	2750	201.3090243	stim	stop-signal	450	1220370	0.0-19.29-1.29	beast_fmri_test	313	1217812,/,1218493,/,1219173,/,1219853,/,1220532,/	t,t,t,t,t	<img class = center src='/static/experiments/beast_fmri_test/images/B.png'></img>	89,71	2750.0	test	<img class = center src='/static/experiments/beast_fmri_test/images/redB.png'></img>	stop	1400.0	3.0	29.0	stop	non-target	B	89,Yellow Button	71,Green Button	1100.0	1350.0	1700.0	1400.0	0.0	0.0	1350.0	1.0	go_stim
128164.69097570004	1400.0	n/a	1863	71	2750	201.3090243	stim	stop-signal	450	1220370	0.0-19.29-1.29	beast_fmri_test	313	1217812,/,1218493,/,1219173,/,1219853,/,1220532,/	t,t,t,t,t	<img class = center src='/static/experiments/beast_fmri_test/images/B.png'></img>	89,71	2750.0	test	<img class = center src='/static/experiments/beast_fmri_test/images/redB.png'></img>	stop	1400.0	3.0	29.0	stop	non-target	B	89,Yellow Button	71,Green Button	1100.0	1350.0	1700.0	1400.0	0.0	0.0	1350.0	1.0	stop_stim
129514.69097570004	201.3090243	n/a	1863	71	2750	201.3090243	stim	stop-signal	450	1220370	0.0-19.29-1.29	beast_fmri_test	313	1217812,/,1218493,/,1219173,/,1219853,/,1220532,/	t,t,t,t,t	<img class = center src='/static/experiments/beast_fmri_test/images/B.png'></img>	89,71	2750.0	test	<img class = center src='/static/experiments/beast_fmri_test/images/redB.png'></img>	stop	1400.0	3.0	29.0	stop	non-target	B	89,Yellow Button	71,Green Button	1100.0	1350.0	1700.0	1400.0	0.0	0.0	1350.0	1.0	ITI
130439	500	n/a	-1	-1	500	0.0	fixation	poldrack-single-stim	451	1221093	0.0-19.30-0.30	beast_fmri_test	313	n/a	n/a	<div class = centerbox><div class = fixation>+</div></div>	none	500.0	test	n/a	n/a	n/a	n/a	n/a	n/a	n/a	n/a	n/a	n/a	n/a	n/a	n/a	n/a	n/a	n/a	n/a	n/a	fixation
128982.24523600005	2750	n/a	-1	-1	2750	1458.754764	stim	stop-signal	452	1223845	0.0-19.30-1.30	beast_fmri_test	313	1221213,/,1221892,/,1222573,/,1223252,/,1223932,/,1224613,/,1225292,/	t,t,t,t,t,t,t	<img class = center src='/static/experiments/beast_fmri_test/images/P.png'></img>	89,71	2750.0	test	<img class = center src='/static/experiments/beast_fmri_test/images/redP.png'></img>	go	1450.0	3.0	30.0	go	non-target	P	89,Yellow Button	71,Green Button	1100.0	1300.0	1700.0	1450.0	0.0	n/a	1300.0	0.0	go_stim
131732.24523600005	1458.754764	n/a	-1	-1	2750	1458.754764	stim	stop-signal	452	1223845	0.0-19.30-1.30	beast_fmri_test	313	1221213,/,1221892,/,1222573,/,1223252,/,1223932,/,1224613,/,1225292,/	t,t,t,t,t,t,t	<img class = center src='/static/experiments/beast_fmri_test/images/P.png'></img>	89,71	2750.0	test	<img class = center src='/static/experiments/beast_fmri_test/images/redP.png'></img>	go	1450.0	3.0	30.0	go	non-target	P	89,Yellow Button	71,Green Button	1100.0	1300.0	1700.0	1450.0	0.0	n/a	1300.0	0.0	ITI
135169	500	n/a	-1	-1	500	0.0	fixation	poldrack-single-stim	453	1225823	0.0-19.31-0.31	beast_fmri_test	313	n/a	n/a	<div class = centerbox><div class = fixation>+</div></div>	none	500.0	test	n/a	n/a	n/a	n/a	n/a	n/a	n/a	n/a	n/a	n/a	n/a	n/a	n/a	n/a	n/a	n/a	n/a	n/a	fixation
134663.84040080011	2750	n/a	-1	-1	2750	508.1595992	stim	stop-signal	454	1228576	0.0-19.31-1.31	beast_fmri_test	313	1225972,/,1226653,/,1227333,/,1228013,/,1228692,/	t,t,t,t,t	<img class = center src='/static/experiments/beast_fmri_test/images/D.png'></img>	89,71	2750.0	test	<img class = center src='/static/experiments/beast_fmri_test/images/redD.png'></img>	go	1450.0	3.0	31.0	go	non-target	D	89,Yellow Button	71,Green Button	1100.0	1300.0	1700.0	1450.0	0.0	n/a	1300.0	0.0	go_stim
137413.84040080011	508.15959919999995	n/a	-1	-1	2750	508.1595992	stim	stop-signal	454	1228576	0.0-19.31-1.31	beast_fmri_test	313	1225972,/,1226653,/,1227333,/,1228013,/,1228692,/	t,t,t,t,t	<img class = center src='/static/experiments/beast_fmri_test/images/D.png'></img>	89,71	2750.0	test	<img class = center src='/static/experiments/beast_fmri_test/images/redD.png'></img>	go	1450.0	3.0	31.0	go	non-target	D	89,Yellow Button	71,Green Button	1100.0	1300.0	1700.0	1450.0	0.0	n/a	1300.0	0.0	ITI
138951	500	n/a	-1	-1	500	0.0	fixation	poldrack-single-stim	455	1229605	0.0-19.32-0.32	beast_fmri_test	313	1229374,/	t	<div class = centerbox><div class = fixation>+</div></div>	none	500.0	test	n/a	n/a	n/a	n/a	n/a	n/a	n/a	n/a	n/a	n/a	n/a	n/a	n/a	n/a	n/a	n/a	n/a	n/a	fixation
137060.53102199989	1300.0	n/a	-1	-1	2750	1892.468978	stim	stop-signal	456	1232357	0.0-19.32-1.32	beast_fmri_test	313	1230053,/,1230732,/,1231412,/,1232092,/,1232772,/,1233453,/,1234133,/	t,t,t,t,t,t,t	<img class = center src='/static/experiments/beast_fmri_test/images/T.png'></img>	89,71	2750.0	test	<img class = center src='/static/experiments/beast_fmri_test/images/redT.png'></img>	stop	1450.0	3.0	32.0	stop	non-target	T	89,Yellow Button	71,Green Button	1100.0	1300.0	1700.0	1450.0	0.0	1.0	1300.0	0.0	go_stim
138510.53102199989	1450.0	n/a	-1	-1	2750	1892.468978	stim	stop-signal	456	1232357	0.0-19.32-1.32	beast_fmri_test	313	1230053,/,1230732,/,1231412,/,1232092,/,1232772,/,1233453,/,1234133,/	t,t,t,t,t,t,t	<img class = center src='/static/experiments/beast_fmri_test/images/T.png'></img>	89,71	2750.0	test	<img class = center src='/static/experiments/beast_fmri_test/images/redT.png'></img>	stop	1450.0	3.0	32.0	stop	non-target	T	89,Yellow Button	71,Green Button	1100.0	1300.0	1700.0	1450.0	0.0	1.0	1300.0	0.0	stop_stim
139810.53102199989	1892.4689780000001	n/a	-1	-1	2750	1892.468978	stim	stop-signal	456	1232357	0.0-19.32-1.32	beast_fmri_test	313	1230053,/,1230732,/,1231412,/,1232092,/,1232772,/,1233453,/,1234133,/	t,t,t,t,t,t,t	<img class = center src='/static/experiments/beast_fmri_test/images/T.png'></img>	89,71	2750.0	test	<img class = center src='/static/experiments/beast_fmri_test/images/redT.png'></img>	stop	1450.0	3.0	32.0	stop	non-target	T	89,Yellow Button	71,Green Button	1100.0	1300.0	1700.0	1450.0	0.0	1.0	1300.0	0.0	ITI
144115	500	n/a	-1	-1	500	0.0	fixation	poldrack-single-stim	457	1234769	0.0-19.33-0.33	beast_fmri_test	313	n/a	n/a	<div class = centerbox><div class = fixation>+</div></div>	none	500.0	test	n/a	n/a	n/a	n/a	n/a	n/a	n/a	n/a	n/a	n/a	n/a	n/a	n/a	n/a	n/a	n/a	n/a	n/a	fixation
141733.14921099995	2750	n/a	1385	71	2750	2383.850789	stim	stop-signal	458	1237521	0.0-19.33-1.33	beast_fmri_test	313	1234813,/,1235493,/,1236173,/,1236853,/,1237533,/,1238213,/,1238893,/,1239574,/	t,t,t,t,t,t,t,t	<img class = center src='/static/experiments/beast_fmri_test/images/D.png'></img>	89,71	2750.0	test	<img class = center src='/static/experiments/beast_fmri_test/images/redD.png'></img>	go	1400.0	3.0	33.0	go	non-target	D	89,Yellow Button	71,Green Button	1100.0	1350.0	1700.0	1400.0	1.0	n/a	1350.0	1.0	go_stim
144483.14921099995	2383.8507890000001	n/a	1385	71	2750	2383.850789	stim	stop-signal	458	1237521	0.0-19.33-1.33	beast_fmri_test	313	1234813,/,1235493,/,1236173,/,1236853,/,1237533,/,1238213,/,1238893,/,1239574,/	t,t,t,t,t,t,t,t	<img class = center src='/static/experiments/beast_fmri_test/images/D.png'></img>	89,71	2750.0	test	<img class = center src='/static/experiments/beast_fmri_test/images/redD.png'></img>	go	1400.0	3.0	33.0	go	non-target	D	89,Yellow Button	71,Green Button	1100.0	1350.0	1700.0	1400.0	1.0	n/a	1350.0	1.0	ITI
149771	500	n/a	-1	-1	500	0.0	fixation	poldrack-single-stim	459	1240425	0.0-19.34-0.34	beast_fmri_test	313	1240253,/	t	<div class = centerbox><div class = fixation>+</div></div>	none	500.0	test	n/a	n/a	n/a	n/a	n/a	n/a	n/a	n/a	n/a	n/a	n/a	n/a	n/a	n/a	n/a	n/a	n/a	n/a	fixation
149403.67457289994	2750	n/a	2089	71	2750	369.3254271	stim	stop-signal	460	1243177	0.0-19.34-1.34	beast_fmri_test	313	1240933,/,1241613,/,1242293,/,1242973,/	t,t,t,t	<img class = center src='/static/experiments/beast_fmri_test/images/B.png'></img>	89,71	2750.0	test	<img class = center src='/static/experiments/beast_fmri_test/images/redB.png'></img>	go	1400.0	3.0	34.0	go	non-target	B	89,Yellow Button	71,Green Button	1100.0	1350.0	1700.0	1400.0	1.0	n/a	1350.0	1.0	go_stim
152153.67457289994	369.32542710000001	n/a	2089	71	2750	369.3254271	stim	stop-signal	460	1243177	0.0-19.34-1.34	beast_fmri_test	313	1240933,/,1241613,/,1242293,/,1242973,/	t,t,t,t	<img class = center src='/static/experiments/beast_fmri_test/images/B.png'></img>	89,71	2750.0	test	<img class = center src='/static/experiments/beast_fmri_test/images/redB.png'></img>	go	1400.0	3.0	34.0	go	non-target	B	89,Yellow Button	71,Green Button	1100.0	1350.0	1700.0	1400.0	1.0	n/a	1350.0	1.0	ITI
153413	500	n/a	-1	-1	500	0.0	fixation	poldrack-single-stim	461	1244067	0.0-19.35-0.35	beast_fmri_test	313	1243653,/	t	<div class = centerbox><div class = fixation>+</div></div>	none	500.0	test	n/a	n/a	n/a	n/a	n/a	n/a	n/a	n/a	n/a	n/a	n/a	n/a	n/a	n/a	n/a	n/a	n/a	n/a	fixation
152650.5669811999	2750	n/a	-1	-1	2750	765.4330188	stim	stop-signal	462	1246820	0.0-19.35-1.35	beast_fmri_test	313	1244333,/,1245013,/,1245693,/,1246373,/,1247053,/	t,t,t,t,t	<img class = center src='/static/experiments/beast_fmri_test/images/D.png'></img>	89,71	2750.0	test	<img class = center src='/static/experiments/beast_fmri_test/images/redD.png'></img>	go	1400.0	3.0	35.0	go	non-target	D	89,Yellow Button	71,Green Button	1100.0	1350.0	1700.0	1400.0	0.0	n/a	1350.0	0.0	go_stim
155400.5669811999	765.4330187999999	n/a	-1	-1	2750	765.4330188	stim	stop-signal	462	1246820	0.0-19.35-1.35	beast_fmri_test	313	1244333,/,1245013,/,1245693,/,1246373,/,1247053,/	t,t,t,t,t	<img class = center src='/static/experiments/beast_fmri_test/images/D.png'></img>	89,71	2750.0	test	<img class = center src='/static/experiments/beast_fmri_test/images/redD.png'></img>	go	1400.0	3.0	35.0	go	non-target	D	89,Yellow Button	71,Green Button	1100.0	1350.0	1700.0	1400.0	0.0	n/a	1350.0	0.0	ITI
157452	500	n/a	-1	-1	500	0.0	fixation	poldrack-single-stim	463	1248106	0.0-19.36-0.36	beast_fmri_test	313	1247733,/	t	<div class = centerbox><div class = fixation>+</div></div>	none	500.0	test	n/a	n/a	n/a	n/a	n/a	n/a	n/a	n/a	n/a	n/a	n/a	n/a	n/a	n/a	n/a	n/a	n/a	n/a	fixation
156058.79311700002	1350.0	n/a	-1	-1	2750	1394.206883	stim	stop-signal	464	1250857	0.0-19.36-1.36	beast_fmri_test	313	1248413,/,1249093,/,1249774,/,1250453,/,1251132,/,1251813,/	t,t,t,t,t,t	<img class = center src='/static/experiments/beast_fmri_test/images/B.png'></img>	89,71	2750.0	test	<img class = center src='/static/experiments/beast_fmri_test/images/redB.png'></img>	stop	1400.0	3.0	36.0	stop	non-target	B	89,Yellow Button	71,Green Button	1100.0	1350.0	1700.0	1400.0	0.0	1.0	1350.0	0.0	go_stim
157458.79311700002	1400.0	n/a	-1	-1	2750	1394.206883	stim	stop-signal	464	1250857	0.0-19.36-1.36	beast_fmri_test	313	1248413,/,1249093,/,1249774,/,1250453,/,1251132,/,1251813,/	t,t,t,t,t,t	<img class = center src='/static/experiments/beast_fmri_test/images/B.png'></img>	89,71	2750.0	test	<img class = center src='/static/experiments/beast_fmri_test/images/redB.png'></img>	stop	1400.0	3.0	36.0	stop	non-target	B	89,Yellow Button	71,Green Button	1100.0	1350.0	1700.0	1400.0	0.0	1.0	1350.0	0.0	stop_stim
158808.79311700002	1394.2068830000001	n/a	-1	-1	2750	1394.206883	stim	stop-signal	464	1250857	0.0-19.36-1.36	beast_fmri_test	313	1248413,/,1249093,/,1249774,/,1250453,/,1251132,/,1251813,/	t,t,t,t,t,t	<img class = center src='/static/experiments/beast_fmri_test/images/B.png'></img>	89,71	2750.0	test	<img class = center src='/static/experiments/beast_fmri_test/images/redB.png'></img>	stop	1400.0	3.0	36.0	stop	non-target	B	89,Yellow Button	71,Green Button	1100.0	1350.0	1700.0	1400.0	0.0	1.0	1350.0	0.0	ITI
162119	500	n/a	-1	-1	500	0.0	fixation	poldrack-single-stim	465	1252773	0.0-19.37-0.37	beast_fmri_test	313	1252493,/	t	<div class = centerbox><div class = fixation>+</div></div>	none	500.0	test	n/a	n/a	n/a	n/a	n/a	n/a	n/a	n/a	n/a	n/a	n/a	n/a	n/a	n/a	n/a	n/a	n/a	n/a	fixation
161906.4128115999	2750	n/a	958	71	2750	213.5871884	stim	stop-signal	466	1255524	0.0-19.37-1.37	beast_fmri_test	313	1253173,/,1253853,/,1254532,/,1255212,/	t,t,t,t	<img class = center src='/static/experiments/beast_fmri_test/images/P.png'></img>	89,71	2750.0	test	<img class = center src='/static/experiments/beast_fmri_test/images/redP.png'></img>	go	1350.0	3.0	37.0	go	non-target	P	89,Yellow Button	71,Green Button	1100.0	1400.0	1700.0	1350.0	1.0	n/a	1400.0	1.0	go_stim
164656.4128115999	213.5871884	n/a	958	71	2750	213.5871884	stim	stop-signal	466	1255524	0.0-19.37-1.37	beast_fmri_test	313	1253173,/,1253853,/,1254532,/,1255212,/	t,t,t,t	<img class = center src='/static/experiments/beast_fmri_test/images/P.png'></img>	89,71	2750.0	test	<img class = center src='/static/experiments/beast_fmri_test/images/redP.png'></img>	go	1350.0	3.0	37.0	go	non-target	P	89,Yellow Button	71,Green Button	1100.0	1400.0	1700.0	1350.0	1.0	n/a	1400.0	1.0	ITI
165605	500	n/a	-1	-1	500	0.0	fixation	poldrack-single-stim	467	1256259	0.0-19.38-0.38	beast_fmri_test	313	1255892,/	t	<div class = centerbox><div class = fixation>+</div></div>	none	500.0	test	n/a	n/a	n/a	n/a	n/a	n/a	n/a	n/a	n/a	n/a	n/a	n/a	n/a	n/a	n/a	n/a	n/a	n/a	fixation
165356.01364189992	1400.0	n/a	-1	-1	2750	250.9863581	stim	stop-signal	468	1259011	0.0-19.38-1.38	beast_fmri_test	313	1256572,/,1257253,/,1257932,/,1258613,/	t,t,t,t	<img class = center src='/static/experiments/beast_fmri_test/images/T.png'></img>	89,71	2750.0	test	<img class = center src='/static/experiments/beast_fmri_test/images/redT.png'></img>	stop	1350.0	3.0	38.0	stop	non-target	T	89,Yellow Button	71,Green Button	1100.0	1400.0	1700.0	1350.0	0.0	1.0	1400.0	0.0	go_stim
166706.01364189992	1350.0	n/a	-1	-1	2750	250.9863581	stim	stop-signal	468	1259011	0.0-19.38-1.38	beast_fmri_test	313	1256572,/,1257253,/,1257932,/,1258613,/	t,t,t,t	<img class = center src='/static/experiments/beast_fmri_test/images/T.png'></img>	89,71	2750.0	test	<img class = center src='/static/experiments/beast_fmri_test/images/redT.png'></img>	stop	1350.0	3.0	38.0	stop	non-target	T	89,Yellow Button	71,Green Button	1100.0	1400.0	1700.0	1350.0	0.0	1.0	1400.0	0.0	stop_stim
168106.01364189992	250.98635809999999	n/a	-1	-1	2750	250.9863581	stim	stop-signal	468	1259011	0.0-19.38-1.38	beast_fmri_test	313	1256572,/,1257253,/,1257932,/,1258613,/	t,t,t,t	<img class = center src='/static/experiments/beast_fmri_test/images/T.png'></img>	89,71	2750.0	test	<img class = center src='/static/experiments/beast_fmri_test/images/redT.png'></img>	stop	1350.0	3.0	38.0	stop	non-target	T	89,Yellow Button	71,Green Button	1100.0	1400.0	1700.0	1350.0	0.0	1.0	1400.0	0.0	ITI
169128	500	n/a	-1	-1	500	0.0	fixation	poldrack-single-stim	469	1259782	0.0-19.39-0.39	beast_fmri_test	313	1259292,/	t	<div class = centerbox><div class = fixation>+</div></div>	none	500.0	test	n/a	n/a	n/a	n/a	n/a	n/a	n/a	n/a	n/a	n/a	n/a	n/a	n/a	n/a	n/a	n/a	n/a	n/a	fixation
168437.51941590011	1450.0	n/a	1357	71	2750	692.4805841	stim	stop-signal	470	1262534	0.0-19.39-1.39	beast_fmri_test	313	1259973,/,1260652,/,1261332,/,1262012,/,1262692,/	t,t,t,t,t	<img class = center src='/static/experiments/beast_fmri_test/images/V.png'></img>	89,71	2750.0	test	<img class = center src='/static/experiments/beast_fmri_test/images/redV.png'></img>	stop	1300.0	3.0	39.0	stop	non-target	V	89,Yellow Button	71,Green Button	1100.0	1450.0	1700.0	1300.0	0.0	0.0	1450.0	1.0	go_stim
169737.51941590011	1300.0	n/a	1357	71	2750	692.4805841	stim	stop-signal	470	1262534	0.0-19.39-1.39	beast_fmri_test	313	1259973,/,1260652,/,1261332,/,1262012,/,1262692,/	t,t,t,t,t	<img class = center src='/static/experiments/beast_fmri_test/images/V.png'></img>	89,71	2750.0	test	<img class = center src='/static/experiments/beast_fmri_test/images/redV.png'></img>	stop	1300.0	3.0	39.0	stop	non-target	V	89,Yellow Button	71,Green Button	1100.0	1450.0	1700.0	1300.0	0.0	0.0	1450.0	1.0	stop_stim
171187.51941590011	692.48058409999999	n/a	1357	71	2750	692.4805841	stim	stop-signal	470	1262534	0.0-19.39-1.39	beast_fmri_test	313	1259973,/,1260652,/,1261332,/,1262012,/,1262692,/	t,t,t,t,t	<img class = center src='/static/experiments/beast_fmri_test/images/V.png'></img>	89,71	2750.0	test	<img class = center src='/static/experiments/beast_fmri_test/images/redV.png'></img>	stop	1300.0	3.0	39.0	stop	non-target	V	89,Yellow Button	71,Green Button	1100.0	1450.0	1700.0	1300.0	0.0	0.0	1450.0	1.0	ITI
173092	500	n/a	-1	-1	500	0.0	fixation	poldrack-single-stim	471	1263746	0.0-19.40-0.40	beast_fmri_test	313	1263372,/	t	<div class = centerbox><div class = fixation>+</div></div>	none	500.0	test	n/a	n/a	n/a	n/a	n/a	n/a	n/a	n/a	n/a	n/a	n/a	n/a	n/a	n/a	n/a	n/a	n/a	n/a	fixation
171564.82878999994	2750	n/a	1106	89	2750	1529.17121	stim	stop-signal	472	1266498	0.0-19.40-1.40	beast_fmri_test	313	1264052,/,1264732,/,1265412,/,1266092,/,1266773,/,1267453,/	t,t,t,t,t,t	<img class = center src='/static/experiments/beast_fmri_test/images/P.png'></img>	89,71	2750.0	test	<img class = center src='/static/experiments/beast_fmri_test/images/redP.png'></img>	go	1650.0	3.0	40.0	go	target	P	89,Yellow Button	71,Green Button	1100.0	1400.0	1650.0	1300.0	1.0	n/a	1100.0	1.0	go_stim
174314.82878999994	1529.17121	n/a	1106	89	2750	1529.17121	stim	stop-signal	472	1266498	0.0-19.40-1.40	beast_fmri_test	313	1264052,/,1264732,/,1265412,/,1266092,/,1266773,/,1267453,/	t,t,t,t,t,t	<img class = center src='/static/experiments/beast_fmri_test/images/P.png'></img>	89,71	2750.0	test	<img class = center src='/static/experiments/beast_fmri_test/images/redP.png'></img>	go	1650.0	3.0	40.0	go	target	P	89,Yellow Button	71,Green Button	1100.0	1400.0	1650.0	1300.0	1.0	n/a	1100.0	1.0	ITI
177890	500	n/a	-1	-1	500	0.0	fixation	poldrack-single-stim	473	1268544	0.0-19.41-0.41	beast_fmri_test	313	1268133,/	t	<div class = centerbox><div class = fixation>+</div></div>	none	500.0	test	n/a	n/a	n/a	n/a	n/a	n/a	n/a	n/a	n/a	n/a	n/a	n/a	n/a	n/a	n/a	n/a	n/a	n/a	fixation
175924.34225400002	2750	n/a	942	89	2750	1967.657746	stim	stop-signal	474	1271296	0.0-19.41-1.41	beast_fmri_test	313	1268813,/,1269493,/,1270174,/,1270853,/,1271533,/,1272213,/,1272893,/	t,t,t,t,t,t,t	<img class = center src='/static/experiments/beast_fmri_test/images/T.png'></img>	89,71	2750.0	test	<img class = center src='/static/experiments/beast_fmri_test/images/redT.png'></img>	go	1650.0	3.0	41.0	go	target	T	89,Yellow Button	71,Green Button	1100.0	1400.0	1650.0	1300.0	1.0	n/a	1100.0	1.0	go_stim
178674.34225400002	1967.6577460000001	n/a	942	89	2750	1967.657746	stim	stop-signal	474	1271296	0.0-19.41-1.41	beast_fmri_test	313	1268813,/,1269493,/,1270174,/,1270853,/,1271533,/,1272213,/,1272893,/	t,t,t,t,t,t,t	<img class = center src='/static/experiments/beast_fmri_test/images/T.png'></img>	89,71	2750.0	test	<img class = center src='/static/experiments/beast_fmri_test/images/redT.png'></img>	go	1650.0	3.0	41.0	go	target	T	89,Yellow Button	71,Green Button	1100.0	1400.0	1650.0	1300.0	1.0	n/a	1100.0	1.0	ITI
183130	500	n/a	-1	-1	500	0.0	fixation	poldrack-single-stim	475	1273784	0.0-19.42-0.42	beast_fmri_test	313	1273573,/	t	<div class = centerbox><div class = fixation>+</div></div>	none	500.0	test	n/a	n/a	n/a	n/a	n/a	n/a	n/a	n/a	n/a	n/a	n/a	n/a	n/a	n/a	n/a	n/a	n/a	n/a	fixation
181203.17265000008	2750	n/a	1104	71	2750	1928.82735	stim	stop-signal	476	1276536	0.0-19.42-1.42	beast_fmri_test	313	1274253,/,1274933,/,1275613,/,1276293,/,1276973,/,1277653,/,1278333,/	t,t,t,t,t,t,t	<img class = center src='/static/experiments/beast_fmri_test/images/B.png'></img>	89,71	2750.0	test	<img class = center src='/static/experiments/beast_fmri_test/images/redB.png'></img>	go	1350.0	3.0	42.0	go	non-target	B	89,Yellow Button	71,Green Button	1100.0	1400.0	1650.0	1350.0	1.0	n/a	1400.0	1.0	go_stim
183953.17265000008	1928.82735	n/a	1104	71	2750	1928.82735	stim	stop-signal	476	1276536	0.0-19.42-1.42	beast_fmri_test	313	1274253,/,1274933,/,1275613,/,1276293,/,1276973,/,1277653,/,1278333,/	t,t,t,t,t,t,t	<img class = center src='/static/experiments/beast_fmri_test/images/B.png'></img>	89,71	2750.0	test	<img class = center src='/static/experiments/beast_fmri_test/images/redB.png'></img>	go	1350.0	3.0	42.0	go	non-target	B	89,Yellow Button	71,Green Button	1100.0	1400.0	1650.0	1350.0	1.0	n/a	1400.0	1.0	ITI
188329	500	n/a	-1	-1	500	0.0	fixation	poldrack-single-stim	477	1278983	0.0-19.43-0.43	beast_fmri_test	313	n/a	n/a	<div class = centerbox><div class = fixation>+</div></div>	none	500.0	test	n/a	n/a	n/a	n/a	n/a	n/a	n/a	n/a	n/a	n/a	n/a	n/a	n/a	n/a	n/a	n/a	n/a	n/a	fixation
187992.96687510004	2750	n/a	1589	89	2750	337.0331249	stim	stop-signal	478	1281734	0.0-19.43-1.43	beast_fmri_test	313	1279013,/,1279693,/,1280374,/,1281053,/,1281733,/	t,t,t,t,t	<img class = center src='/static/experiments/beast_fmri_test/images/T.png'></img>	89,71	2750.0	test	<img class = center src='/static/experiments/beast_fmri_test/images/redT.png'></img>	go	1350.0	3.0	43.0	go	non-target	T	89,Yellow Button	71,Green Button	1100.0	1400.0	1650.0	1350.0	0.0	n/a	1400.0	0.0	go_stim
190742.96687510004	337.03312489999996	n/a	1589	89	2750	337.0331249	stim	stop-signal	478	1281734	0.0-19.43-1.43	beast_fmri_test	313	1279013,/,1279693,/,1280374,/,1281053,/,1281733,/	t,t,t,t,t	<img class = center src='/static/experiments/beast_fmri_test/images/T.png'></img>	89,71	2750.0	test	<img class = center src='/static/experiments/beast_fmri_test/images/redT.png'></img>	go	1350.0	3.0	43.0	go	non-target	T	89,Yellow Button	71,Green Button	1100.0	1400.0	1650.0	1350.0	0.0	n/a	1400.0	0.0	ITI
191938	500	n/a	-1	-1	500	0.0	fixation	poldrack-single-stim	479	1282592	0.0-19.44-0.44	beast_fmri_test	313	1282413,/	t	<div class = centerbox><div class = fixation>+</div></div>	none	500.0	test	n/a	n/a	n/a	n/a	n/a	n/a	n/a	n/a	n/a	n/a	n/a	n/a	n/a	n/a	n/a	n/a	n/a	n/a	fixation
189312.78002099996	2750	n/a	1599	71	2750	2627.219979	stim	stop-signal	480	1285344	0.0-19.44-1.44	beast_fmri_test	313	1283093,/,1283773,/,1284452,/,1285133,/,1285813,/,1286492,/,1287172,/,1287852,/	t,t,t,t,t,t,t,t	<img class = center src='/static/experiments/beast_fmri_test/images/T.png'></img>	89,71	2750.0	test	<img class = center src='/static/experiments/beast_fmri_test/images/redT.png'></img>	go	1650.0	3.0	44.0	go	target	T	89,Yellow Button	71,Green Button	1100.0	1400.0	1650.0	1350.0	0.0	n/a	1100.0	0.0	go_stim
192062.78002099996	2627.219979	n/a	1599	71	2750	2627.219979	stim	stop-signal	480	1285344	0.0-19.44-1.44	beast_fmri_test	313	1283093,/,1283773,/,1284452,/,1285133,/,1285813,/,1286492,/,1287172,/,1287852,/	t,t,t,t,t,t,t,t	<img class = center src='/static/experiments/beast_fmri_test/images/T.png'></img>	89,71	2750.0	test	<img class = center src='/static/experiments/beast_fmri_test/images/redT.png'></img>	go	1650.0	3.0	44.0	go	target	T	89,Yellow Button	71,Green Button	1100.0	1400.0	1650.0	1350.0	0.0	n/a	1100.0	0.0	ITI
197839	500	n/a	-1	-1	500	0.0	fixation	poldrack-single-stim	481	1288493	0.0-19.45-0.45	beast_fmri_test	313	n/a	n/a	<div class = centerbox><div class = fixation>+</div></div>	none	500.0	test	n/a	n/a	n/a	n/a	n/a	n/a	n/a	n/a	n/a	n/a	n/a	n/a	n/a	n/a	n/a	n/a	n/a	n/a	fixation
197368.5731544001	1100.0	n/a	1896	89	2750	472.4268456	stim	stop-signal	482	1291245	0.0-19.45-1.45	beast_fmri_test	313	1288532,/,1289213,/,1289893,/,1290572,/,1291252,/	t,t,t,t,t	<img class = center src='/static/experiments/beast_fmri_test/images/B.png'></img>	89,71	2750.0	test	<img class = center src='/static/experiments/beast_fmri_test/images/redB.png'></img>	stop	1650.0	3.0	45.0	stop	target	B	89,Yellow Button	71,Green Button	1100.0	1400.0	1650.0	1350.0	0.0	0.0	1100.0	1.0	go_stim
199018.5731544001	1650.0	n/a	1896	89	2750	472.4268456	stim	stop-signal	482	1291245	0.0-19.45-1.45	beast_fmri_test	313	1288532,/,1289213,/,1289893,/,1290572,/,1291252,/	t,t,t,t,t	<img class = center src='/static/experiments/beast_fmri_test/images/B.png'></img>	89,71	2750.0	test	<img class = center src='/static/experiments/beast_fmri_test/images/redB.png'></img>	stop	1650.0	3.0	45.0	stop	target	B	89,Yellow Button	71,Green Button	1100.0	1400.0	1650.0	1350.0	0.0	0.0	1100.0	1.0	stop_stim
200118.5731544001	472.42684560000004	n/a	1896	89	2750	472.4268456	stim	stop-signal	482	1291245	0.0-19.45-1.45	beast_fmri_test	313	1288532,/,1289213,/,1289893,/,1290572,/,1291252,/	t,t,t,t,t	<img class = center src='/static/experiments/beast_fmri_test/images/B.png'></img>	89,71	2750.0	test	<img class = center src='/static/experiments/beast_fmri_test/images/redB.png'></img>	stop	1650.0	3.0	45.0	stop	target	B	89,Yellow Button	71,Green Button	1100.0	1400.0	1650.0	1350.0	0.0	0.0	1100.0	1.0	ITI
201582	500	n/a	-1	-1	500	0.0	fixation	poldrack-single-stim	483	1292236	0.0-19.46-0.46	beast_fmri_test	313	1291933,/	t	<div class = centerbox><div class = fixation>+</div></div>	none	500.0	test	n/a	n/a	n/a	n/a	n/a	n/a	n/a	n/a	n/a	n/a	n/a	n/a	n/a	n/a	n/a	n/a	n/a	n/a	fixation
201364.06597339991	1050.0	n/a	2315	89	2750	219.9340266	stim	stop-signal	484	1294988	0.0-19.46-1.46	beast_fmri_test	313	1292613,/,1293292,/,1293972,/,1294652,/	t,t,t,t	<img class = center src='/static/experiments/beast_fmri_test/images/T.png'></img>	89,71	2750.0	test	<img class = center src='/static/experiments/beast_fmri_test/images/redT.png'></img>	stop	1700.0	3.0	46.0	stop	target	T	89,Yellow Button	71,Green Button	1050.0	1400.0	1700.0	1350.0	0.0	0.0	1050.0	1.0	go_stim
203064.06597339991	1700.0	n/a	2315	89	2750	219.9340266	stim	stop-signal	484	1294988	0.0-19.46-1.46	beast_fmri_test	313	1292613,/,1293292,/,1293972,/,1294652,/	t,t,t,t	<img class = center src='/static/experiments/beast_fmri_test/images/T.png'></img>	89,71	2750.0	test	<img class = center src='/static/experiments/beast_fmri_test/images/redT.png'></img>	stop	1700.0	3.0	46.0	stop	target	T	89,Yellow Button	71,Green Button	1050.0	1400.0	1700.0	1350.0	0.0	0.0	1050.0	1.0	stop_stim
204114.06597339991	219.93402659999998	n/a	2315	89	2750	219.9340266	stim	stop-signal	484	1294988	0.0-19.46-1.46	beast_fmri_test	313	1292613,/,1293292,/,1293972,/,1294652,/	t,t,t,t	<img class = center src='/static/experiments/beast_fmri_test/images/T.png'></img>	89,71	2750.0	test	<img class = center src='/static/experiments/beast_fmri_test/images/redT.png'></img>	stop	1700.0	3.0	46.0	stop	target	T	89,Yellow Button	71,Green Button	1050.0	1400.0	1700.0	1350.0	0.0	0.0	1050.0	1.0	ITI
205073	500	n/a	-1	-1	500	0.0	fixation	poldrack-single-stim	485	1295727	0.0-19.47-0.47	beast_fmri_test	313	1295332,/	t	<div class = centerbox><div class = fixation>+</div></div>	none	500.0	test	n/a	n/a	n/a	n/a	n/a	n/a	n/a	n/a	n/a	n/a	n/a	n/a	n/a	n/a	n/a	n/a	n/a	n/a	fixation
205071.34844651097	1000.0	n/a	-1	-1	2750	4.651553489	stim	stop-signal	486	1298480	0.0-19.47-1.47	beast_fmri_test	313	1296012,/,1296692,/,1297372,/,1298052,/	t,t,t,t	<img class = center src='/static/experiments/beast_fmri_test/images/T.png'></img>	89,71	2750.0	test	<img class = center src='/static/experiments/beast_fmri_test/images/redT.png'></img>	stop	1750.0	3.0	47.0	stop	target	T	89,Yellow Button	71,Green Button	1000.0	1400.0	1750.0	1350.0	0.0	1.0	1000.0	0.0	go_stim
206821.34844651097	1750.0	n/a	-1	-1	2750	4.651553489	stim	stop-signal	486	1298480	0.0-19.47-1.47	beast_fmri_test	313	1296012,/,1296692,/,1297372,/,1298052,/	t,t,t,t	<img class = center src='/static/experiments/beast_fmri_test/images/T.png'></img>	89,71	2750.0	test	<img class = center src='/static/experiments/beast_fmri_test/images/redT.png'></img>	stop	1750.0	3.0	47.0	stop	target	T	89,Yellow Button	71,Green Button	1000.0	1400.0	1750.0	1350.0	0.0	1.0	1000.0	0.0	stop_stim
207821.34844651097	4.6515534889999994	n/a	-1	-1	2750	4.651553489	stim	stop-signal	486	1298480	0.0-19.47-1.47	beast_fmri_test	313	1296012,/,1296692,/,1297372,/,1298052,/	t,t,t,t	<img class = center src='/static/experiments/beast_fmri_test/images/T.png'></img>	89,71	2750.0	test	<img class = center src='/static/experiments/beast_fmri_test/images/redT.png'></img>	stop	1750.0	3.0	47.0	stop	target	T	89,Yellow Button	71,Green Button	1000.0	1400.0	1750.0	1350.0	0.0	1.0	1000.0	0.0	ITI
222849	15000	n/a	-1	-1	15000	0.0	practice-no-stop-feedback	poldrack-single-stim	487	1313503	0.0-20.0	beast_fmri_test	313	1298732,/,1299412,/,1300094,/,1300774,/,1301453,/,1302133,/,1302813,/,1303493,/,1304173,/,1304853,/,1305533,/,1306213,/,1306893,/,1307573,/,1308253,/,1308933,/,1309613,/,1310293,/,1310973,/,1311653,/,1312333,/,1313013,/	t,t,t,t,t,t,t,t,t,t,t,t,t,t,t,t,t,t,t,t,t,t	"<div class = ""centerbox""><p class = ""center-block-text"">Your delay is 2 trials.</p><p class = center-block-text>Please wait for the scanner to start the block</p></div>"	77	15000.0	n/a	n/a	n/a	n/a	n/a	n/a	n/a	n/a	n/a	n/a	n/a	n/a	n/a	n/a	n/a	n/a	n/a	n/a	n/a	practice-no-stop-feedback
223351	500	n/a	-1	-1	500	0.0	fixation	poldrack-single-stim	488	1314005	0.0-21.0-0.0	beast_fmri_test	313	1313693,/	t	<div class = centerbox><div class = fixation>+</div></div>	none	500.0	test	n/a	n/a	n/a	n/a	n/a	n/a	n/a	n/a	n/a	n/a	n/a	n/a	n/a	n/a	n/a	n/a	n/a	n/a	fixation
223108.45984130003	2750	n/a	1994	71	2750	244.5401587	stim	stop-signal	489	1316757	0.0-21.0-1.0	beast_fmri_test	313	1314373,/,1315053,/,1315733,/,1316412,/	t,t,t,t	<img class = center src='/static/experiments/beast_fmri_test/images/P.png'></img>	89,71	2750.0	test	<img class = center src='/static/experiments/beast_fmri_test/images/redP.png'></img>	go	-1.0	2.0	0.0	go	temp-non-target	P	89,Yellow Button	71,Green Button	1050.0	1400.0	1750.0	1350.0	0.0	n/a	n/a	n/a	go_stim
225858.45984130003	244.54015869999998	n/a	1994	71	2750	244.5401587	stim	stop-signal	489	1316757	0.0-21.0-1.0	beast_fmri_test	313	1314373,/,1315053,/,1315733,/,1316412,/	t,t,t,t	<img class = center src='/static/experiments/beast_fmri_test/images/P.png'></img>	89,71	2750.0	test	<img class = center src='/static/experiments/beast_fmri_test/images/redP.png'></img>	go	-1.0	2.0	0.0	go	temp-non-target	P	89,Yellow Button	71,Green Button	1050.0	1400.0	1750.0	1350.0	0.0	n/a	n/a	n/a	ITI
226867	500	n/a	-1	-1	500	0.0	fixation	poldrack-single-stim	490	1317521	0.0-21.1-0.1	beast_fmri_test	313	1317093,/	t	<div class = centerbox><div class = fixation>+</div></div>	none	500.0	test	n/a	n/a	n/a	n/a	n/a	n/a	n/a	n/a	n/a	n/a	n/a	n/a	n/a	n/a	n/a	n/a	n/a	n/a	fixation
226348.66772529995	2750	n/a	1912	71	2750	520.3322747	stim	stop-signal	491	1320273	0.0-21.1-1.1	beast_fmri_test	313	1317773,/,1318453,/,1319133,/,1319812,/,1320492,/	t,t,t,t,t	<img class = center src='/static/experiments/beast_fmri_test/images/V.png'></img>	89,71	2750.0	test	<img class = center src='/static/experiments/beast_fmri_test/images/redV.png'></img>	go	-1.0	2.0	1.0	go	temp-non-target	V	89,Yellow Button	71,Green Button	1050.0	1400.0	1750.0	1350.0	0.0	n/a	n/a	n/a	go_stim
229098.66772529995	520.33227469999997	n/a	1912	71	2750	520.3322747	stim	stop-signal	491	1320273	0.0-21.1-1.1	beast_fmri_test	313	1317773,/,1318453,/,1319133,/,1319812,/,1320492,/	t,t,t,t,t	<img class = center src='/static/experiments/beast_fmri_test/images/V.png'></img>	89,71	2750.0	test	<img class = center src='/static/experiments/beast_fmri_test/images/redV.png'></img>	go	-1.0	2.0	1.0	go	temp-non-target	V	89,Yellow Button	71,Green Button	1050.0	1400.0	1750.0	1350.0	0.0	n/a	n/a	n/a	ITI
230660	500	n/a	-1	-1	500	0.0	fixation	poldrack-single-stim	492	1321314	0.0-21.2-0.2	beast_fmri_test	313	1321174,/	t	<div class = centerbox><div class = fixation>+</div></div>	none	500.0	test	n/a	n/a	n/a	n/a	n/a	n/a	n/a	n/a	n/a	n/a	n/a	n/a	n/a	n/a	n/a	n/a	n/a	n/a	fixation
228780.1972099999	2750	n/a	1540	71	2750	1881.80279	stim	stop-signal	493	1324066	0.0-21.2-1.2	beast_fmri_test	313	1321852,/,1322532,/,1323212,/,1323892,/,1324572,/,1325252,/,1325932,/	t,t,t,t,t,t,t	<img class = center src='/static/experiments/beast_fmri_test/images/T.png'></img>	89,71	2750.0	test	<img class = center src='/static/experiments/beast_fmri_test/images/redT.png'></img>	go	1350.0	2.0	2.0	go	non-target	T	89,Yellow Button	71,Green Button	1050.0	1400.0	1750.0	1350.0	1.0	n/a	1400.0	1.0	go_stim
231530.1972099999	1881.80279	n/a	1540	71	2750	1881.80279	stim	stop-signal	493	1324066	0.0-21.2-1.2	beast_fmri_test	313	1321852,/,1322532,/,1323212,/,1323892,/,1324572,/,1325252,/,1325932,/	t,t,t,t,t,t,t	<img class = center src='/static/experiments/beast_fmri_test/images/T.png'></img>	89,71	2750.0	test	<img class = center src='/static/experiments/beast_fmri_test/images/redT.png'></img>	go	1350.0	2.0	2.0	go	non-target	T	89,Yellow Button	71,Green Button	1050.0	1400.0	1750.0	1350.0	1.0	n/a	1400.0	1.0	ITI
235814	500	n/a	-1	-1	500	0.0	fixation	poldrack-single-stim	494	1326468	0.0-21.3-0.3	beast_fmri_test	313	n/a	n/a	<div class = centerbox><div class = fixation>+</div></div>	none	500.0	test	n/a	n/a	n/a	n/a	n/a	n/a	n/a	n/a	n/a	n/a	n/a	n/a	n/a	n/a	n/a	n/a	n/a	n/a	fixation
235759.80923583009	2750	n/a	913	89	2750	55.19076417	stim	stop-signal	495	1329219	0.0-21.3-1.3	beast_fmri_test	313	1326612,/,1327293,/,1327972,/,1328652,/	t,t,t,t	<img class = center src='/static/experiments/beast_fmri_test/images/V.png'></img>	89,71	2750.0	test	<img class = center src='/static/experiments/beast_fmri_test/images/redV.png'></img>	go	1700.0	2.0	3.0	go	target	V	89,Yellow Button	71,Green Button	1050.0	1400.0	1700.0	1350.0	1.0	n/a	1050.0	1.0	go_stim
238509.80923583009	55.190764170000001	n/a	913	89	2750	55.19076417	stim	stop-signal	495	1329219	0.0-21.3-1.3	beast_fmri_test	313	1326612,/,1327293,/,1327972,/,1328652,/	t,t,t,t	<img class = center src='/static/experiments/beast_fmri_test/images/V.png'></img>	89,71	2750.0	test	<img class = center src='/static/experiments/beast_fmri_test/images/redV.png'></img>	go	1700.0	2.0	3.0	go	target	V	89,Yellow Button	71,Green Button	1050.0	1400.0	1700.0	1350.0	1.0	n/a	1050.0	1.0	ITI
239139	500	n/a	-1	-1	500	0.0	fixation	poldrack-single-stim	496	1329793	0.0-21.4-0.4	beast_fmri_test	313	1329332,/	t	<div class = centerbox><div class = fixation>+</div></div>	none	500.0	test	n/a	n/a	n/a	n/a	n/a	n/a	n/a	n/a	n/a	n/a	n/a	n/a	n/a	n/a	n/a	n/a	n/a	n/a	fixation
238717.45298799989	2750	n/a	1593	71	2750	424.547012	stim	stop-signal	497	1332546	0.0-21.4-1.4	beast_fmri_test	313	1330012,/,1330692,/,1331374,/,1332052,/,1332733,/	t,t,t,t,t	<img class = center src='/static/experiments/beast_fmri_test/images/D.png'></img>	89,71	2750.0	test	<img class = center src='/static/experiments/beast_fmri_test/images/redD.png'></img>	go	1350.0	2.0	4.0	go	non-target	D	89,Yellow Button	71,Green Button	1050.0	1400.0	1700.0	1350.0	1.0	n/a	1400.0	1.0	go_stim
241467.45298799989	424.547012	n/a	1593	71	2750	424.547012	stim	stop-signal	497	1332546	0.0-21.4-1.4	beast_fmri_test	313	1330012,/,1330692,/,1331374,/,1332052,/,1332733,/	t,t,t,t,t	<img class = center src='/static/experiments/beast_fmri_test/images/D.png'></img>	89,71	2750.0	test	<img class = center src='/static/experiments/beast_fmri_test/images/redD.png'></img>	go	1350.0	2.0	4.0	go	non-target	D	89,Yellow Button	71,Green Button	1050.0	1400.0	1700.0	1350.0	1.0	n/a	1400.0	1.0	ITI
242838	500	n/a	-1	-1	500	0.0	fixation	poldrack-single-stim	498	1333492	0.0-21.5-0.5	beast_fmri_test	313	1333413,/	t	<div class = centerbox><div class = fixation>+</div></div>	none	500.0	test	n/a	n/a	n/a	n/a	n/a	n/a	n/a	n/a	n/a	n/a	n/a	n/a	n/a	n/a	n/a	n/a	n/a	n/a	fixation
241840.20848509995	1400.0	n/a	1561	71	2750	999.7915149	stim	stop-signal	499	1336244	0.0-21.5-1.5	beast_fmri_test	313	1334093,/,1334773,/,1335453,/,1336133,/,1336813,/	t,t,t,t,t	<img class = center src='/static/experiments/beast_fmri_test/images/D.png'></img>	89,71	2750.0	test	<img class = center src='/static/experiments/beast_fmri_test/images/redD.png'></img>	stop	1350.0	2.0	5.0	stop	non-target	D	89,Yellow Button	71,Green Button	1050.0	1400.0	1700.0	1350.0	0.0	0.0	1400.0	1.0	go_stim
243190.20848509995	1350.0	n/a	1561	71	2750	999.7915149	stim	stop-signal	499	1336244	0.0-21.5-1.5	beast_fmri_test	313	1334093,/,1334773,/,1335453,/,1336133,/,1336813,/	t,t,t,t,t	<img class = center src='/static/experiments/beast_fmri_test/images/D.png'></img>	89,71	2750.0	test	<img class = center src='/static/experiments/beast_fmri_test/images/redD.png'></img>	stop	1350.0	2.0	5.0	stop	non-target	D	89,Yellow Button	71,Green Button	1050.0	1400.0	1700.0	1350.0	0.0	0.0	1400.0	1.0	stop_stim
244590.20848509995	999.79151490000004	n/a	1561	71	2750	999.7915149	stim	stop-signal	499	1336244	0.0-21.5-1.5	beast_fmri_test	313	1334093,/,1334773,/,1335453,/,1336133,/,1336813,/	t,t,t,t,t	<img class = center src='/static/experiments/beast_fmri_test/images/D.png'></img>	89,71	2750.0	test	<img class = center src='/static/experiments/beast_fmri_test/images/redD.png'></img>	stop	1350.0	2.0	5.0	stop	non-target	D	89,Yellow Button	71,Green Button	1050.0	1400.0	1700.0	1350.0	0.0	0.0	1400.0	1.0	ITI
247110	500	n/a	-1	-1	500	0.0	fixation	poldrack-single-stim	500	1337764	0.0-21.6-0.6	beast_fmri_test	313	1337493,/	t	<div class = centerbox><div class = fixation>+</div></div>	none	500.0	test	n/a	n/a	n/a	n/a	n/a	n/a	n/a	n/a	n/a	n/a	n/a	n/a	n/a	n/a	n/a	n/a	n/a	n/a	fixation
246964.33010259992	2750	n/a	915	89	2750	147.6698974	stim	stop-signal	501	1340516	0.0-21.6-1.6	beast_fmri_test	313	1338173,/,1338853,/,1339533,/,1340213,/	t,t,t,t	<img class = center src='/static/experiments/beast_fmri_test/images/D.png'></img>	89,71	2750.0	test	<img class = center src='/static/experiments/beast_fmri_test/images/redD.png'></img>	go	1700.0	2.0	6.0	go	target	D	89,Yellow Button	71,Green Button	1050.0	1350.0	1700.0	1350.0	1.0	n/a	1050.0	1.0	go_stim
249714.33010259992	147.66989740000002	n/a	915	89	2750	147.6698974	stim	stop-signal	501	1340516	0.0-21.6-1.6	beast_fmri_test	313	1338173,/,1338853,/,1339533,/,1340213,/	t,t,t,t	<img class = center src='/static/experiments/beast_fmri_test/images/D.png'></img>	89,71	2750.0	test	<img class = center src='/static/experiments/beast_fmri_test/images/redD.png'></img>	go	1700.0	2.0	6.0	go	target	D	89,Yellow Button	71,Green Button	1050.0	1350.0	1700.0	1350.0	1.0	n/a	1050.0	1.0	ITI
250528	500	n/a	-1	-1	500	0.0	fixation	poldrack-single-stim	502	1341182	0.0-21.7-0.7	beast_fmri_test	313	1340893,/	t	<div class = centerbox><div class = fixation>+</div></div>	none	500.0	test	n/a	n/a	n/a	n/a	n/a	n/a	n/a	n/a	n/a	n/a	n/a	n/a	n/a	n/a	n/a	n/a	n/a	n/a	fixation
250122.2197920999	2750	n/a	1129	89	2750	406.7802079	stim	stop-signal	503	1343933	0.0-21.7-1.7	beast_fmri_test	313	1341574,/,1342253,/,1342933,/,1343612,/,1344292,/	t,t,t,t,t	<img class = center src='/static/experiments/beast_fmri_test/images/D.png'></img>	89,71	2750.0	test	<img class = center src='/static/experiments/beast_fmri_test/images/redD.png'></img>	go	1700.0	2.0	7.0	go	target	D	89,Yellow Button	71,Green Button	1050.0	1350.0	1700.0	1350.0	1.0	n/a	1050.0	1.0	go_stim
252872.2197920999	406.78020789999999	n/a	1129	89	2750	406.7802079	stim	stop-signal	503	1343933	0.0-21.7-1.7	beast_fmri_test	313	1341574,/,1342253,/,1342933,/,1343612,/,1344292,/	t,t,t,t,t	<img class = center src='/static/experiments/beast_fmri_test/images/D.png'></img>	89,71	2750.0	test	<img class = center src='/static/experiments/beast_fmri_test/images/redD.png'></img>	go	1700.0	2.0	7.0	go	target	D	89,Yellow Button	71,Green Button	1050.0	1350.0	1700.0	1350.0	1.0	n/a	1050.0	1.0	ITI
254206	500	n/a	-1	-1	500	0.0	fixation	poldrack-single-stim	504	1344860	0.0-21.8-0.8	beast_fmri_test	313	n/a	n/a	<div class = centerbox><div class = fixation>+</div></div>	none	500.0	test	n/a	n/a	n/a	n/a	n/a	n/a	n/a	n/a	n/a	n/a	n/a	n/a	n/a	n/a	n/a	n/a	n/a	n/a	fixation
253596.03887160006	2750	n/a	1436	71	2750	611.9611284	stim	stop-signal	505	1347612	0.0-21.8-1.8	beast_fmri_test	313	1344973,/,1345653,/,1346333,/,1347012,/,1347693,/	t,t,t,t,t	<img class = center src='/static/experiments/beast_fmri_test/images/P.png'></img>	89,71	2750.0	test	<img class = center src='/static/experiments/beast_fmri_test/images/redP.png'></img>	go	1400.0	2.0	8.0	go	non-target	P	89,Yellow Button	71,Green Button	1050.0	1350.0	1700.0	1400.0	1.0	n/a	1350.0	1.0	go_stim
256346.03887160006	611.96112840000001	n/a	1436	71	2750	611.9611284	stim	stop-signal	505	1347612	0.0-21.8-1.8	beast_fmri_test	313	1344973,/,1345653,/,1346333,/,1347012,/,1347693,/	t,t,t,t,t	<img class = center src='/static/experiments/beast_fmri_test/images/P.png'></img>	89,71	2750.0	test	<img class = center src='/static/experiments/beast_fmri_test/images/redP.png'></img>	go	1400.0	2.0	8.0	go	non-target	P	89,Yellow Button	71,Green Button	1050.0	1350.0	1700.0	1400.0	1.0	n/a	1350.0	1.0	ITI
258088	500	n/a	-1	-1	500	0.0	fixation	poldrack-single-stim	506	1348742	0.0-21.9-0.9	beast_fmri_test	313	1348373,/	t	<div class = centerbox><div class = fixation>+</div></div>	none	500.0	test	n/a	n/a	n/a	n/a	n/a	n/a	n/a	n/a	n/a	n/a	n/a	n/a	n/a	n/a	n/a	n/a	n/a	n/a	fixation
253089.0	2750	n/a	2123	71	2750	5000.0	stim	stop-signal	507	1351493	0.0-21.9-1.9	beast_fmri_test	313	1349052,/,1349733,/,1350413,/,1351092,/,1351774,/,1352452,/,1353132,/,1353812,/,1354492,/,1355172,/,1355852,/	t,t,t,t,t,t,t,t,t,t,t	<img class = center src='/static/experiments/beast_fmri_test/images/V.png'></img>	89,71	2750.0	test	<img class = center src='/static/experiments/beast_fmri_test/images/redV.png'></img>	go	1400.0	2.0	9.0	go	non-target	V	89,Yellow Button	71,Green Button	1050.0	1350.0	1700.0	1400.0	1.0	n/a	1350.0	1.0	go_stim
255839.0	5000.0	n/a	2123	71	2750	5000.0	stim	stop-signal	507	1351493	0.0-21.9-1.9	beast_fmri_test	313	1349052,/,1349733,/,1350413,/,1351092,/,1351774,/,1352452,/,1353132,/,1353812,/,1354492,/,1355172,/,1355852,/	t,t,t,t,t,t,t,t,t,t,t	<img class = center src='/static/experiments/beast_fmri_test/images/V.png'></img>	89,71	2750.0	test	<img class = center src='/static/experiments/beast_fmri_test/images/redV.png'></img>	go	1400.0	2.0	9.0	go	non-target	V	89,Yellow Button	71,Green Button	1050.0	1350.0	1700.0	1400.0	1.0	n/a	1350.0	1.0	ITI
266357	500	n/a	-1	-1	500	0.0	fixation	poldrack-single-stim	508	1357011	0.0-21.10-0.10	beast_fmri_test	313	1356532,/	t	<div class = centerbox><div class = fixation>+</div></div>	none	500.0	test	n/a	n/a	n/a	n/a	n/a	n/a	n/a	n/a	n/a	n/a	n/a	n/a	n/a	n/a	n/a	n/a	n/a	n/a	fixation
266138.68110070005	1350.0	n/a	1038	71	2750	219.3188993	stim	stop-signal	509	1359762	0.0-21.10-1.10	beast_fmri_test	313	1357212,/,1357892,/,1358572,/,1359252,/,1359932,/	t,t,t,t,t	<img class = center src='/static/experiments/beast_fmri_test/images/T.png'></img>	89,71	2750.0	test	<img class = center src='/static/experiments/beast_fmri_test/images/redT.png'></img>	stop	1400.0	2.0	10.0	stop	non-target	T	89,Yellow Button	71,Green Button	1050.0	1350.0	1700.0	1400.0	0.0	0.0	1350.0	1.0	go_stim
267538.68110070005	1400.0	n/a	1038	71	2750	219.3188993	stim	stop-signal	509	1359762	0.0-21.10-1.10	beast_fmri_test	313	1357212,/,1357892,/,1358572,/,1359252,/,1359932,/	t,t,t,t,t	<img class = center src='/static/experiments/beast_fmri_test/images/T.png'></img>	89,71	2750.0	test	<img class = center src='/static/experiments/beast_fmri_test/images/redT.png'></img>	stop	1400.0	2.0	10.0	stop	non-target	T	89,Yellow Button	71,Green Button	1050.0	1350.0	1700.0	1400.0	0.0	0.0	1350.0	1.0	stop_stim
268888.68110070005	219.31889930000003	n/a	1038	71	2750	219.3188993	stim	stop-signal	509	1359762	0.0-21.10-1.10	beast_fmri_test	313	1357212,/,1357892,/,1358572,/,1359252,/,1359932,/	t,t,t,t,t	<img class = center src='/static/experiments/beast_fmri_test/images/T.png'></img>	89,71	2750.0	test	<img class = center src='/static/experiments/beast_fmri_test/images/redT.png'></img>	stop	1400.0	2.0	10.0	stop	non-target	T	89,Yellow Button	71,Green Button	1050.0	1350.0	1700.0	1400.0	0.0	0.0	1350.0	1.0	ITI
269845	500	n/a	-1	-1	500	0.0	fixation	poldrack-single-stim	510	1360499	0.0-21.11-0.11	beast_fmri_test	313	n/a	n/a	<div class = centerbox><div class = fixation>+</div></div>	none	500.0	test	n/a	n/a	n/a	n/a	n/a	n/a	n/a	n/a	n/a	n/a	n/a	n/a	n/a	n/a	n/a	n/a	n/a	n/a	fixation
267762.34481899999	1300.0	n/a	-1	-1	2750	2084.655181	stim	stop-signal	511	1363251	0.0-21.11-1.11	beast_fmri_test	313	1360612,/,1361292,/,1361972,/,1362652,/,1363332,/,1364012,/,1364692,/	t,t,t,t,t,t,t	<img class = center src='/static/experiments/beast_fmri_test/images/T.png'></img>	89,71	2750.0	test	<img class = center src='/static/experiments/beast_fmri_test/images/redT.png'></img>	stop	1450.0	2.0	11.0	stop	non-target	T	89,Yellow Button	71,Green Button	1050.0	1300.0	1700.0	1450.0	0.0	1.0	1300.0	0.0	go_stim
269212.34481899999	1450.0	n/a	-1	-1	2750	2084.655181	stim	stop-signal	511	1363251	0.0-21.11-1.11	beast_fmri_test	313	1360612,/,1361292,/,1361972,/,1362652,/,1363332,/,1364012,/,1364692,/	t,t,t,t,t,t,t	<img class = center src='/static/experiments/beast_fmri_test/images/T.png'></img>	89,71	2750.0	test	<img class = center src='/static/experiments/beast_fmri_test/images/redT.png'></img>	stop	1450.0	2.0	11.0	stop	non-target	T	89,Yellow Button	71,Green Button	1050.0	1300.0	1700.0	1450.0	0.0	1.0	1300.0	0.0	stop_stim
270512.34481899999	2084.6551810000001	n/a	-1	-1	2750	2084.655181	stim	stop-signal	511	1363251	0.0-21.11-1.11	beast_fmri_test	313	1360612,/,1361292,/,1361972,/,1362652,/,1363332,/,1364012,/,1364692,/	t,t,t,t,t,t,t	<img class = center src='/static/experiments/beast_fmri_test/images/T.png'></img>	89,71	2750.0	test	<img class = center src='/static/experiments/beast_fmri_test/images/redT.png'></img>	stop	1450.0	2.0	11.0	stop	non-target	T	89,Yellow Button	71,Green Button	1050.0	1300.0	1700.0	1450.0	0.0	1.0	1300.0	0.0	ITI
275200	500	n/a	-1	-1	500	0.0	fixation	poldrack-single-stim	512	1365854	0.0-21.12-0.12	beast_fmri_test	313	1365372,/	t	<div class = centerbox><div class = fixation>+</div></div>	none	500.0	test	n/a	n/a	n/a	n/a	n/a	n/a	n/a	n/a	n/a	n/a	n/a	n/a	n/a	n/a	n/a	n/a	n/a	n/a	fixation
274633.1708941001	2750	n/a	1040	89	2750	567.8291059	stim	stop-signal	513	1368605	0.0-21.12-1.12	beast_fmri_test	313	1366052,/,1366733,/,1367413,/,1368093,/,1368773,/	t,t,t,t,t	<img class = center src='/static/experiments/beast_fmri_test/images/T.png'></img>	89,71	2750.0	test	<img class = center src='/static/experiments/beast_fmri_test/images/redT.png'></img>	go	1700.0	2.0	12.0	go	target	T	89,Yellow Button	71,Green Button	1050.0	1350.0	1700.0	1450.0	1.0	n/a	1050.0	1.0	go_stim
277383.1708941001	567.82910589999994	n/a	1040	89	2750	567.8291059	stim	stop-signal	513	1368605	0.0-21.12-1.12	beast_fmri_test	313	1366052,/,1366733,/,1367413,/,1368093,/,1368773,/	t,t,t,t,t	<img class = center src='/static/experiments/beast_fmri_test/images/T.png'></img>	89,71	2750.0	test	<img class = center src='/static/experiments/beast_fmri_test/images/redT.png'></img>	go	1700.0	2.0	12.0	go	target	T	89,Yellow Button	71,Green Button	1050.0	1350.0	1700.0	1450.0	1.0	n/a	1050.0	1.0	ITI
279037	500	n/a	-1	-1	500	0.0	fixation	poldrack-single-stim	514	1369691	0.0-21.13-0.13	beast_fmri_test	313	1369453,/	t	<div class = centerbox><div class = fixation>+</div></div>	none	500.0	test	n/a	n/a	n/a	n/a	n/a	n/a	n/a	n/a	n/a	n/a	n/a	n/a	n/a	n/a	n/a	n/a	n/a	n/a	fixation
278394.88370979996	2750	n/a	2092	71	2750	643.1162902	stim	stop-signal	515	1372442	0.0-21.13-1.13	beast_fmri_test	313	1370133,/,1370813,/,1371493,/,1372173,/,1372852,/	t,t,t,t,t	<img class = center src='/static/experiments/beast_fmri_test/images/V.png'></img>	89,71	2750.0	test	<img class = center src='/static/experiments/beast_fmri_test/images/redV.png'></img>	go	1400.0	2.0	13.0	go	non-target	V	89,Yellow Button	71,Green Button	1050.0	1350.0	1700.0	1400.0	1.0	n/a	1350.0	1.0	go_stim
281144.88370979996	643.11629020000009	n/a	2092	71	2750	643.1162902	stim	stop-signal	515	1372442	0.0-21.13-1.13	beast_fmri_test	313	1370133,/,1370813,/,1371493,/,1372173,/,1372852,/	t,t,t,t,t	<img class = center src='/static/experiments/beast_fmri_test/images/V.png'></img>	89,71	2750.0	test	<img class = center src='/static/experiments/beast_fmri_test/images/redV.png'></img>	go	1400.0	2.0	13.0	go	non-target	V	89,Yellow Button	71,Green Button	1050.0	1350.0	1700.0	1400.0	1.0	n/a	1350.0	1.0	ITI
282951	500	n/a	-1	-1	500	0.0	fixation	poldrack-single-stim	516	1373605	0.0-21.14-0.14	beast_fmri_test	313	1373532,/	t	<div class = centerbox><div class = fixation>+</div></div>	none	500.0	test	n/a	n/a	n/a	n/a	n/a	n/a	n/a	n/a	n/a	n/a	n/a	n/a	n/a	n/a	n/a	n/a	n/a	n/a	fixation
282319.51646710001	1350.0	n/a	-1	-1	2750	632.4835329	stim	stop-signal	517	1376356	0.0-21.14-1.14	beast_fmri_test	313	1374213,/,1374893,/,1375573,/,1376252,/,1376932,/	t,t,t,t,t	<img class = center src='/static/experiments/beast_fmri_test/images/P.png'></img>	89,71	2750.0	test	<img class = center src='/static/experiments/beast_fmri_test/images/redP.png'></img>	stop	1400.0	2.0	14.0	stop	non-target	P	89,Yellow Button	71,Green Button	1050.0	1350.0	1700.0	1400.0	0.0	1.0	1350.0	0.0	go_stim
283719.51646710001	1400.0	n/a	-1	-1	2750	632.4835329	stim	stop-signal	517	1376356	0.0-21.14-1.14	beast_fmri_test	313	1374213,/,1374893,/,1375573,/,1376252,/,1376932,/	t,t,t,t,t	<img class = center src='/static/experiments/beast_fmri_test/images/P.png'></img>	89,71	2750.0	test	<img class = center src='/static/experiments/beast_fmri_test/images/redP.png'></img>	stop	1400.0	2.0	14.0	stop	non-target	P	89,Yellow Button	71,Green Button	1050.0	1350.0	1700.0	1400.0	0.0	1.0	1350.0	0.0	stop_stim
285069.51646710001	632.4835329	n/a	-1	-1	2750	632.4835329	stim	stop-signal	517	1376356	0.0-21.14-1.14	beast_fmri_test	313	1374213,/,1374893,/,1375573,/,1376252,/,1376932,/	t,t,t,t,t	<img class = center src='/static/experiments/beast_fmri_test/images/P.png'></img>	89,71	2750.0	test	<img class = center src='/static/experiments/beast_fmri_test/images/redP.png'></img>	stop	1400.0	2.0	14.0	stop	non-target	P	89,Yellow Button	71,Green Button	1050.0	1350.0	1700.0	1400.0	0.0	1.0	1350.0	0.0	ITI
286854	500	n/a	-1	-1	500	0.0	fixation	poldrack-single-stim	518	1377508	0.0-21.15-0.15	beast_fmri_test	313	n/a	n/a	<div class = centerbox><div class = fixation>+</div></div>	none	500.0	test	n/a	n/a	n/a	n/a	n/a	n/a	n/a	n/a	n/a	n/a	n/a	n/a	n/a	n/a	n/a	n/a	n/a	n/a	fixation
286426.89243540005	2750	n/a	2012	89	2750	429.1075646	stim	stop-signal	519	1380260	0.0-21.15-1.15	beast_fmri_test	313	1377612,/,1378292,/,1378972,/,1379652,/,1380332,/	t,t,t,t,t	<img class = center src='/static/experiments/beast_fmri_test/images/V.png'></img>	89,71	2750.0	test	<img class = center src='/static/experiments/beast_fmri_test/images/redV.png'></img>	go	1700.0	2.0	15.0	go	target	V	89,Yellow Button	71,Green Button	1050.0	1400.0	1700.0	1400.0	1.0	n/a	1050.0	1.0	go_stim
289176.89243540005	429.10756460000005	n/a	2012	89	2750	429.1075646	stim	stop-signal	519	1380260	0.0-21.15-1.15	beast_fmri_test	313	1377612,/,1378292,/,1378972,/,1379652,/,1380332,/	t,t,t,t,t	<img class = center src='/static/experiments/beast_fmri_test/images/V.png'></img>	89,71	2750.0	test	<img class = center src='/static/experiments/beast_fmri_test/images/redV.png'></img>	go	1700.0	2.0	15.0	go	target	V	89,Yellow Button	71,Green Button	1050.0	1400.0	1700.0	1400.0	1.0	n/a	1050.0	1.0	ITI
290555	500	n/a	-1	-1	500	0.0	fixation	poldrack-single-stim	520	1381209	0.0-21.16-0.16	beast_fmri_test	313	1381012,/	t	<div class = centerbox><div class = fixation>+</div></div>	none	500.0	test	n/a	n/a	n/a	n/a	n/a	n/a	n/a	n/a	n/a	n/a	n/a	n/a	n/a	n/a	n/a	n/a	n/a	n/a	fixation
288826.56075599999	2750	n/a	2058	71	2750	1729.439244	stim	stop-signal	521	1383960	0.0-21.16-1.16	beast_fmri_test	313	1381692,/,1382373,/,1383052,/,1383732,/,1384412,/,1385092,/	t,t,t,t,t,t	<img class = center src='/static/experiments/beast_fmri_test/images/D.png'></img>	89,71	2750.0	test	<img class = center src='/static/experiments/beast_fmri_test/images/redD.png'></img>	go	1350.0	2.0	16.0	go	non-target	D	89,Yellow Button	71,Green Button	1050.0	1400.0	1700.0	1350.0	1.0	n/a	1400.0	1.0	go_stim
291576.56075599999	1729.4392440000001	n/a	2058	71	2750	1729.439244	stim	stop-signal	521	1383960	0.0-21.16-1.16	beast_fmri_test	313	1381692,/,1382373,/,1383052,/,1383732,/,1384412,/,1385092,/	t,t,t,t,t,t	<img class = center src='/static/experiments/beast_fmri_test/images/D.png'></img>	89,71	2750.0	test	<img class = center src='/static/experiments/beast_fmri_test/images/redD.png'></img>	go	1350.0	2.0	16.0	go	non-target	D	89,Yellow Button	71,Green Button	1050.0	1400.0	1700.0	1350.0	1.0	n/a	1400.0	1.0	ITI
295555	500	n/a	-1	-1	500	0.0	fixation	poldrack-single-stim	522	1386209	0.0-21.17-0.17	beast_fmri_test	313	1385772,/	t	<div class = centerbox><div class = fixation>+</div></div>	none	500.0	test	n/a	n/a	n/a	n/a	n/a	n/a	n/a	n/a	n/a	n/a	n/a	n/a	n/a	n/a	n/a	n/a	n/a	n/a	fixation
294810.24032140011	2750	n/a	1439	89	2750	746.7596786	stim	stop-signal	523	1388961	0.0-21.17-1.17	beast_fmri_test	313	1386452,/,1387132,/,1387812,/,1388492,/,1389172,/	t,t,t,t,t	<img class = center src='/static/experiments/beast_fmri_test/images/D.png'></img>	89,71	2750.0	test	<img class = center src='/static/experiments/beast_fmri_test/images/redD.png'></img>	go	1350.0	2.0	17.0	go	non-target	D	89,Yellow Button	71,Green Button	1050.0	1400.0	1700.0	1350.0	0.0	n/a	1400.0	0.0	go_stim
297560.24032140011	746.75967860000003	n/a	1439	89	2750	746.7596786	stim	stop-signal	523	1388961	0.0-21.17-1.17	beast_fmri_test	313	1386452,/,1387132,/,1387812,/,1388492,/,1389172,/	t,t,t,t,t	<img class = center src='/static/experiments/beast_fmri_test/images/D.png'></img>	89,71	2750.0	test	<img class = center src='/static/experiments/beast_fmri_test/images/redD.png'></img>	go	1350.0	2.0	17.0	go	non-target	D	89,Yellow Button	71,Green Button	1050.0	1400.0	1700.0	1350.0	0.0	n/a	1400.0	0.0	ITI
299572	500	n/a	-1	-1	500	0.0	fixation	poldrack-single-stim	524	1390226	0.0-21.18-0.18	beast_fmri_test	313	1389852,/	t	<div class = centerbox><div class = fixation>+</div></div>	none	500.0	test	n/a	n/a	n/a	n/a	n/a	n/a	n/a	n/a	n/a	n/a	n/a	n/a	n/a	n/a	n/a	n/a	n/a	n/a	fixation
299536.17968498007	2750	n/a	-1	-1	2750	36.82031502	stim	stop-signal	525	1392977	0.0-21.18-1.18	beast_fmri_test	313	1390532,/,1391212,/,1391892,/,1392573,/	t,t,t,t	<img class = center src='/static/experiments/beast_fmri_test/images/B.png'></img>	89,71	2750.0	test	<img class = center src='/static/experiments/beast_fmri_test/images/redB.png'></img>	go	1350.0	2.0	18.0	go	non-target	B	89,Yellow Button	71,Green Button	1050.0	1400.0	1700.0	1350.0	0.0	n/a	1400.0	0.0	go_stim
302286.17968498007	36.820315020000002	n/a	-1	-1	2750	36.82031502	stim	stop-signal	525	1392977	0.0-21.18-1.18	beast_fmri_test	313	1390532,/,1391212,/,1391892,/,1392573,/	t,t,t,t	<img class = center src='/static/experiments/beast_fmri_test/images/B.png'></img>	89,71	2750.0	test	<img class = center src='/static/experiments/beast_fmri_test/images/redB.png'></img>	go	1350.0	2.0	18.0	go	non-target	B	89,Yellow Button	71,Green Button	1050.0	1400.0	1700.0	1350.0	0.0	n/a	1400.0	0.0	ITI
302880	500	n/a	-1	-1	500	0.0	fixation	poldrack-single-stim	526	1393534	0.0-21.19-0.19	beast_fmri_test	313	1393252,/	t	<div class = centerbox><div class = fixation>+</div></div>	none	500.0	test	n/a	n/a	n/a	n/a	n/a	n/a	n/a	n/a	n/a	n/a	n/a	n/a	n/a	n/a	n/a	n/a	n/a	n/a	fixation
301058.58506900002	1400.0	n/a	-1	-1	2750	1822.414931	stim	stop-signal	527	1396285	0.0-21.19-1.19	beast_fmri_test	313	1393932,/,1394612,/,1395292,/,1395972,/,1396652,/,1397332,/,1398012,/	t,t,t,t,t,t,t	<img class = center src='/static/experiments/beast_fmri_test/images/B.png'></img>	89,71	2750.0	test	<img class = center src='/static/experiments/beast_fmri_test/images/redB.png'></img>	stop	1350.0	2.0	19.0	stop	non-target	B	89,Yellow Button	71,Green Button	1050.0	1400.0	1700.0	1350.0	0.0	1.0	1400.0	0.0	go_stim
302408.58506900002	1350.0	n/a	-1	-1	2750	1822.414931	stim	stop-signal	527	1396285	0.0-21.19-1.19	beast_fmri_test	313	1393932,/,1394612,/,1395292,/,1395972,/,1396652,/,1397332,/,1398012,/	t,t,t,t,t,t,t	<img class = center src='/static/experiments/beast_fmri_test/images/B.png'></img>	89,71	2750.0	test	<img class = center src='/static/experiments/beast_fmri_test/images/redB.png'></img>	stop	1350.0	2.0	19.0	stop	non-target	B	89,Yellow Button	71,Green Button	1050.0	1400.0	1700.0	1350.0	0.0	1.0	1400.0	0.0	stop_stim
303808.58506900002	1822.4149309999998	n/a	-1	-1	2750	1822.414931	stim	stop-signal	527	1396285	0.0-21.19-1.19	beast_fmri_test	313	1393932,/,1394612,/,1395292,/,1395972,/,1396652,/,1397332,/,1398012,/	t,t,t,t,t,t,t	<img class = center src='/static/experiments/beast_fmri_test/images/B.png'></img>	89,71	2750.0	test	<img class = center src='/static/experiments/beast_fmri_test/images/redB.png'></img>	stop	1350.0	2.0	19.0	stop	non-target	B	89,Yellow Button	71,Green Button	1050.0	1400.0	1700.0	1350.0	0.0	1.0	1400.0	0.0	ITI
307971	500	n/a	-1	-1	500	0.0	fixation	poldrack-single-stim	528	1398625	0.0-21.20-0.20	beast_fmri_test	313	n/a	n/a	<div class = centerbox><div class = fixation>+</div></div>	none	500.0	test	n/a	n/a	n/a	n/a	n/a	n/a	n/a	n/a	n/a	n/a	n/a	n/a	n/a	n/a	n/a	n/a	n/a	n/a	fixation
307116.54175490001	2750	n/a	701	89	2750	855.4582451	stim	stop-signal	529	1401376	0.0-21.20-1.20	beast_fmri_test	313	1398692,/,1399372,/,1400053,/,1400733,/,1401413,/,1402093,/	t,t,t,t,t,t	<img class = center src='/static/experiments/beast_fmri_test/images/B.png'></img>	89,71	2750.0	test	<img class = center src='/static/experiments/beast_fmri_test/images/redB.png'></img>	go	1700.0	2.0	20.0	go	target	B	89,Yellow Button	71,Green Button	1050.0	1450.0	1700.0	1350.0	1.0	n/a	1050.0	1.0	go_stim
309866.54175490001	855.45824509999989	n/a	701	89	2750	855.4582451	stim	stop-signal	529	1401376	0.0-21.20-1.20	beast_fmri_test	313	1398692,/,1399372,/,1400053,/,1400733,/,1401413,/,1402093,/	t,t,t,t,t,t	<img class = center src='/static/experiments/beast_fmri_test/images/B.png'></img>	89,71	2750.0	test	<img class = center src='/static/experiments/beast_fmri_test/images/redB.png'></img>	go	1700.0	2.0	20.0	go	target	B	89,Yellow Button	71,Green Button	1050.0	1450.0	1700.0	1350.0	1.0	n/a	1050.0	1.0	ITI
