onset	duration	text	rt	key_press	block_duration	timing_post_trial	trial_id	trial_type	trial_index	time_elapsed	internal_node_id	exp_id	subject_id	trigger_times	triggers	stimulus	possible_responses	stim_duration	exp_stage	SS_stimulus	SS_trial_type	SS_duration	load	trial_num	stop_trial_type	adaptive_trial_type	stim	yes_response_key	no_response_key	SSD_target	SSD_non_target	SSTarget	SSNonTarget	go_acc	stop_acc	SS_delay	adaptive_acc	new_trial_type
test	10880	n/a	-1	-1	10880	0.0	practice-no-stop-feedback	poldrack-single-stim	6	125784	0.0-6.0	beast_fmri_test	313	114903,/,115582,/,116262,/,116942,/,117622,/,118302,/,118982,/,119662,/,120342,/,121022,/,121703,/,122384,/,123063,/,123743,/,124423,/,125103,/	t,t,t,t,t,t,t,t,t,t,t,t,t,t,t,t	"<div class = ""centerbox""><p class = ""center-block-text"">Your delay is 2 trials.</p><p class = center-block-text>Please wait for the scanner to start the block</p></div>"	77	10880.0	n/a	n/a	n/a	n/a	n/a	n/a	n/a	n/a	n/a	n/a	n/a	n/a	n/a	n/a	n/a	n/a	n/a	n/a	n/a	start_functional_block
11383	500	n/a	-1	-1	500	0.0	fixation	poldrack-single-stim	7	126286	0.0-7.0-0.0	beast_fmri_test	313	125785,/	t	<div class = centerbox><div class = fixation>+</div></div>	none	500.0	test	n/a	n/a	n/a	n/a	n/a	n/a	n/a	n/a	n/a	n/a	n/a	n/a	n/a	n/a	n/a	n/a	n/a	n/a	fixation
7995.2124729999923	temp_go_duration	n/a	1596	89	2750	3392.787527	stim	stop-signal	8	129041	0.0-7.0-1.0	beast_fmri_test	313	126463,/,127143,/,127823,/,128503,/,129183,/,129863,/,130543,/,131223,/,131903,/	t,t,t,t,t,t,t,t,t	<img class = center src='/static/experiments/beast_fmri_test/images/D.png'></img>	89,71	2750.0	test	<img class = center src='/static/experiments/beast_fmri_test/images/redD.png'></img>	stop	-1.0	2.0	0.0	stop	temp-non-target	D	89,Yellow Button	71,Green Button	500.0	500.0	0.0	0.0	0.0	0.0	n/a	n/a	go_stim
temp-non-target	temp_stop_duration	n/a	1596	89	2750	3392.787527	stim	stop-signal	8	129041	0.0-7.0-1.0	beast_fmri_test	313	126463,/,127143,/,127823,/,128503,/,129183,/,129863,/,130543,/,131223,/,131903,/	t,t,t,t,t,t,t,t,t	<img class = center src='/static/experiments/beast_fmri_test/images/D.png'></img>	89,71	2750.0	test	<img class = center src='/static/experiments/beast_fmri_test/images/redD.png'></img>	stop	-1.0	2.0	0.0	stop	temp-non-target	D	89,Yellow Button	71,Green Button	500.0	500.0	0.0	0.0	0.0	0.0	n/a	n/a	stop_stim
10745.212472999992	3392.7875270000004	n/a	1596	89	2750	3392.787527	stim	stop-signal	8	129041	0.0-7.0-1.0	beast_fmri_test	313	126463,/,127143,/,127823,/,128503,/,129183,/,129863,/,130543,/,131223,/,131903,/	t,t,t,t,t,t,t,t,t	<img class = center src='/static/experiments/beast_fmri_test/images/D.png'></img>	89,71	2750.0	test	<img class = center src='/static/experiments/beast_fmri_test/images/redD.png'></img>	stop	-1.0	2.0	0.0	stop	temp-non-target	D	89,Yellow Button	71,Green Button	500.0	500.0	0.0	0.0	0.0	0.0	n/a	n/a	ITI
18035	500	n/a	-1	-1	500	0.0	fixation	poldrack-single-stim	9	132938	0.0-7.1-0.1	beast_fmri_test	313	132583,/	t	<div class = centerbox><div class = fixation>+</div></div>	none	500.0	test	n/a	n/a	n/a	n/a	n/a	n/a	n/a	n/a	n/a	n/a	n/a	n/a	n/a	n/a	n/a	n/a	n/a	n/a	fixation
16668.120055000007	2750	n/a	1447	71	2750	1369.879945	stim	stop-signal	10	135691	0.0-7.1-1.1	beast_fmri_test	313	133263,/,133943,/,134623,/,135303,/,135982,/,136662,/	t,t,t,t,t,t	<img class = center src='/static/experiments/beast_fmri_test/images/D.png'></img>	89,71	2750.0	test	<img class = center src='/static/experiments/beast_fmri_test/images/redD.png'></img>	go	-1.0	2.0	1.0	go	temp-non-target	D	89,Yellow Button	71,Green Button	500.0	500.0	0.0	0.0	0.0	n/a	n/a	n/a	go_stim
19418.120055000007	1369.8799449999999	n/a	1447	71	2750	1369.879945	stim	stop-signal	10	135691	0.0-7.1-1.1	beast_fmri_test	313	133263,/,133943,/,134623,/,135303,/,135982,/,136662,/	t,t,t,t,t,t	<img class = center src='/static/experiments/beast_fmri_test/images/D.png'></img>	89,71	2750.0	test	<img class = center src='/static/experiments/beast_fmri_test/images/redD.png'></img>	go	-1.0	2.0	1.0	go	temp-non-target	D	89,Yellow Button	71,Green Button	500.0	500.0	0.0	0.0	0.0	n/a	n/a	n/a	ITI
22659	500	n/a	-1	-1	500	0.0	fixation	poldrack-single-stim	11	137562	0.0-7.2-0.2	beast_fmri_test	313	137343,/	t	<div class = centerbox><div class = fixation>+</div></div>	none	500.0	test	n/a	n/a	n/a	n/a	n/a	n/a	n/a	n/a	n/a	n/a	n/a	n/a	n/a	n/a	n/a	n/a	n/a	n/a	fixation
20566.283946999989	500.0	n/a	-1	-1	2750	2094.716053	stim	stop-signal	12	140314	0.0-7.2-1.2	beast_fmri_test	313	138023,/,138702,/,139382,/,140063,/,140743,/,141423,/,142103,/	t,t,t,t,t,t,t	<img class = center src='/static/experiments/beast_fmri_test/images/V.png'></img>	89,71	2750.0	test	<img class = center src='/static/experiments/beast_fmri_test/images/redV.png'></img>	stop	2250.0	2.0	2.0	stop	non-target	V	89,Yellow Button	71,Green Button	500.0	500.0	0.0	2250.0	0.0	1.0	500.0	0.0	go_stim
22816.283946999989	2250.0	n/a	-1	-1	2750	2094.716053	stim	stop-signal	12	140314	0.0-7.2-1.2	beast_fmri_test	313	138023,/,138702,/,139382,/,140063,/,140743,/,141423,/,142103,/	t,t,t,t,t,t,t	<img class = center src='/static/experiments/beast_fmri_test/images/V.png'></img>	89,71	2750.0	test	<img class = center src='/static/experiments/beast_fmri_test/images/redV.png'></img>	stop	2250.0	2.0	2.0	stop	non-target	V	89,Yellow Button	71,Green Button	500.0	500.0	0.0	2250.0	0.0	1.0	500.0	0.0	stop_stim
23316.283946999989	2094.7160530000001	n/a	-1	-1	2750	2094.716053	stim	stop-signal	12	140314	0.0-7.2-1.2	beast_fmri_test	313	138023,/,138702,/,139382,/,140063,/,140743,/,141423,/,142103,/	t,t,t,t,t,t,t	<img class = center src='/static/experiments/beast_fmri_test/images/V.png'></img>	89,71	2750.0	test	<img class = center src='/static/experiments/beast_fmri_test/images/redV.png'></img>	stop	2250.0	2.0	2.0	stop	non-target	V	89,Yellow Button	71,Green Button	500.0	500.0	0.0	2250.0	0.0	1.0	500.0	0.0	ITI
28009	500	n/a	-1	-1	500	0.0	fixation	poldrack-single-stim	13	142912	0.0-7.3-0.3	beast_fmri_test	313	142784,/	t	<div class = centerbox><div class = fixation>+</div></div>	none	500.0	test	n/a	n/a	n/a	n/a	n/a	n/a	n/a	n/a	n/a	n/a	n/a	n/a	n/a	n/a	n/a	n/a	n/a	n/a	fixation
27680.079853100004	2750	n/a	1024	89	2750	330.9201469	stim	stop-signal	14	145664	0.0-7.3-1.3	beast_fmri_test	313	143463,/,144144,/,144823,/,145502,/	t,t,t,t	<img class = center src='/static/experiments/beast_fmri_test/images/D.png'></img>	89,71	2750.0	test	<img class = center src='/static/experiments/beast_fmri_test/images/redD.png'></img>	go	2250.0	2.0	3.0	go	target	D	89,Yellow Button	71,Green Button	500.0	550.0	2250.0	2250.0	1.0	n/a	500.0	1.0	go_stim
30430.079853100004	330.92014689999996	n/a	1024	89	2750	330.9201469	stim	stop-signal	14	145664	0.0-7.3-1.3	beast_fmri_test	313	143463,/,144144,/,144823,/,145502,/	t,t,t,t	<img class = center src='/static/experiments/beast_fmri_test/images/D.png'></img>	89,71	2750.0	test	<img class = center src='/static/experiments/beast_fmri_test/images/redD.png'></img>	go	2250.0	2.0	3.0	go	target	D	89,Yellow Button	71,Green Button	500.0	550.0	2250.0	2250.0	1.0	n/a	500.0	1.0	ITI
31594	500	n/a	-1	-1	500	0.0	fixation	poldrack-single-stim	15	146497	0.0-7.4-0.4	beast_fmri_test	313	146183,/	t	<div class = centerbox><div class = fixation>+</div></div>	none	500.0	test	n/a	n/a	n/a	n/a	n/a	n/a	n/a	n/a	n/a	n/a	n/a	n/a	n/a	n/a	n/a	n/a	n/a	n/a	fixation
29502.248252999998	500.0	n/a	-1	-1	2750	2093.751747	stim	stop-signal	16	149249	0.0-7.4-1.4	beast_fmri_test	313	146862,/,147543,/,148223,/,148902,/,149582,/,150262,/,150942,/	t,t,t,t,t,t,t	<img class = center src='/static/experiments/beast_fmri_test/images/V.png'></img>	89,71	2750.0	test	<img class = center src='/static/experiments/beast_fmri_test/images/redV.png'></img>	stop	2250.0	2.0	4.0	stop	target	V	89,Yellow Button	71,Green Button	500.0	550.0	2250.0	2250.0	0.0	1.0	500.0	0.0	go_stim
31752.248252999998	2250.0	n/a	-1	-1	2750	2093.751747	stim	stop-signal	16	149249	0.0-7.4-1.4	beast_fmri_test	313	146862,/,147543,/,148223,/,148902,/,149582,/,150262,/,150942,/	t,t,t,t,t,t,t	<img class = center src='/static/experiments/beast_fmri_test/images/V.png'></img>	89,71	2750.0	test	<img class = center src='/static/experiments/beast_fmri_test/images/redV.png'></img>	stop	2250.0	2.0	4.0	stop	target	V	89,Yellow Button	71,Green Button	500.0	550.0	2250.0	2250.0	0.0	1.0	500.0	0.0	stop_stim
32252.248252999998	2093.7517469999998	n/a	-1	-1	2750	2093.751747	stim	stop-signal	16	149249	0.0-7.4-1.4	beast_fmri_test	313	146862,/,147543,/,148223,/,148902,/,149582,/,150262,/,150942,/	t,t,t,t,t,t,t	<img class = center src='/static/experiments/beast_fmri_test/images/V.png'></img>	89,71	2750.0	test	<img class = center src='/static/experiments/beast_fmri_test/images/redV.png'></img>	stop	2250.0	2.0	4.0	stop	target	V	89,Yellow Button	71,Green Button	500.0	550.0	2250.0	2250.0	0.0	1.0	500.0	0.0	ITI
36943	500	n/a	-1	-1	500	0.0	fixation	poldrack-single-stim	17	151846	0.0-7.5-0.5	beast_fmri_test	313	151623,/	t	<div class = centerbox><div class = fixation>+</div></div>	none	500.0	test	n/a	n/a	n/a	n/a	n/a	n/a	n/a	n/a	n/a	n/a	n/a	n/a	n/a	n/a	n/a	n/a	n/a	n/a	fixation
34848.558407000004	2750	n/a	1044	71	2750	2095.441593	stim	stop-signal	18	154597	0.0-7.5-1.5	beast_fmri_test	313	152303,/,152982,/,153663,/,154342,/,155023,/,155703,/,156383,/	t,t,t,t,t,t,t	<img class = center src='/static/experiments/beast_fmri_test/images/B.png'></img>	89,71	2750.0	test	<img class = center src='/static/experiments/beast_fmri_test/images/redB.png'></img>	go	2200.0	2.0	5.0	go	non-target	B	89,Yellow Button	71,Green Button	550.0	550.0	2250.0	2200.0	1.0	n/a	550.0	1.0	go_stim
37598.558407000004	2095.441593	n/a	1044	71	2750	2095.441593	stim	stop-signal	18	154597	0.0-7.5-1.5	beast_fmri_test	313	152303,/,152982,/,153663,/,154342,/,155023,/,155703,/,156383,/	t,t,t,t,t,t,t	<img class = center src='/static/experiments/beast_fmri_test/images/B.png'></img>	89,71	2750.0	test	<img class = center src='/static/experiments/beast_fmri_test/images/redB.png'></img>	go	2200.0	2.0	5.0	go	non-target	B	89,Yellow Button	71,Green Button	550.0	550.0	2250.0	2200.0	1.0	n/a	550.0	1.0	ITI
42293	500	n/a	-1	-1	500	0.0	fixation	poldrack-single-stim	19	157196	0.0-7.6-0.6	beast_fmri_test	313	157064,/	t	<div class = centerbox><div class = fixation>+</div></div>	none	500.0	test	n/a	n/a	n/a	n/a	n/a	n/a	n/a	n/a	n/a	n/a	n/a	n/a	n/a	n/a	n/a	n/a	n/a	n/a	fixation
41130.362729999993	2750	n/a	983	71	2750	1164.63727	stim	stop-signal	20	159948	0.0-7.6-1.6	beast_fmri_test	313	157744,/,158423,/,159103,/,159783,/,160463,/	t,t,t,t,t	<img class = center src='/static/experiments/beast_fmri_test/images/D.png'></img>	89,71	2750.0	test	<img class = center src='/static/experiments/beast_fmri_test/images/redD.png'></img>	go	2200.0	2.0	6.0	go	non-target	D	89,Yellow Button	71,Green Button	550.0	550.0	2250.0	2200.0	1.0	n/a	550.0	1.0	go_stim
43880.362729999993	1164.6372699999999	n/a	983	71	2750	1164.63727	stim	stop-signal	20	159948	0.0-7.6-1.6	beast_fmri_test	313	157744,/,158423,/,159103,/,159783,/,160463,/	t,t,t,t,t	<img class = center src='/static/experiments/beast_fmri_test/images/D.png'></img>	89,71	2750.0	test	<img class = center src='/static/experiments/beast_fmri_test/images/redD.png'></img>	go	2200.0	2.0	6.0	go	non-target	D	89,Yellow Button	71,Green Button	550.0	550.0	2250.0	2200.0	1.0	n/a	550.0	1.0	ITI
46713	500	n/a	-1	-1	500	0.0	fixation	poldrack-single-stim	21	161616	0.0-7.7-0.7	beast_fmri_test	313	161143,/	t	<div class = centerbox><div class = fixation>+</div></div>	none	500.0	test	n/a	n/a	n/a	n/a	n/a	n/a	n/a	n/a	n/a	n/a	n/a	n/a	n/a	n/a	n/a	n/a	n/a	n/a	fixation
45843.94634960001	2750	n/a	817	71	2750	870.0536504	stim	stop-signal	22	164367	0.0-7.7-1.7	beast_fmri_test	313	161823,/,162503,/,163184,/,163863,/,164543,/,165223,/	t,t,t,t,t,t	<img class = center src='/static/experiments/beast_fmri_test/images/P.png'></img>	89,71	2750.0	test	<img class = center src='/static/experiments/beast_fmri_test/images/redP.png'></img>	go	2200.0	2.0	7.0	go	non-target	P	89,Yellow Button	71,Green Button	550.0	550.0	2250.0	2200.0	1.0	n/a	550.0	1.0	go_stim
48593.94634960001	870.05365040000004	n/a	817	71	2750	870.0536504	stim	stop-signal	22	164367	0.0-7.7-1.7	beast_fmri_test	313	161823,/,162503,/,163184,/,163863,/,164543,/,165223,/	t,t,t,t,t,t	<img class = center src='/static/experiments/beast_fmri_test/images/P.png'></img>	89,71	2750.0	test	<img class = center src='/static/experiments/beast_fmri_test/images/redP.png'></img>	go	2200.0	2.0	7.0	go	non-target	P	89,Yellow Button	71,Green Button	550.0	550.0	2250.0	2200.0	1.0	n/a	550.0	1.0	ITI
50837	500	n/a	-1	-1	500	0.0	fixation	poldrack-single-stim	23	165740	0.0-7.8-0.8	beast_fmri_test	313	n/a	n/a	<div class = centerbox><div class = fixation>+</div></div>	none	500.0	test	n/a	n/a	n/a	n/a	n/a	n/a	n/a	n/a	n/a	n/a	n/a	n/a	n/a	n/a	n/a	n/a	n/a	n/a	fixation
47953.556183999986	2750	n/a	922	71	2750	2886.443816	stim	stop-signal	24	168493	0.0-7.8-1.8	beast_fmri_test	313	165903,/,166583,/,167263,/,167943,/,168623,/,169303,/,169983,/,170663,/,171343,/	t,t,t,t,t,t,t,t,t	<img class = center src='/static/experiments/beast_fmri_test/images/B.png'></img>	89,71	2750.0	test	<img class = center src='/static/experiments/beast_fmri_test/images/redB.png'></img>	go	2200.0	2.0	8.0	go	non-target	B	89,Yellow Button	71,Green Button	550.0	550.0	2250.0	2200.0	1.0	n/a	550.0	1.0	go_stim
50703.556183999986	2886.443816	n/a	922	71	2750	2886.443816	stim	stop-signal	24	168493	0.0-7.8-1.8	beast_fmri_test	313	165903,/,166583,/,167263,/,167943,/,168623,/,169303,/,169983,/,170663,/,171343,/	t,t,t,t,t,t,t,t,t	<img class = center src='/static/experiments/beast_fmri_test/images/B.png'></img>	89,71	2750.0	test	<img class = center src='/static/experiments/beast_fmri_test/images/redB.png'></img>	go	2200.0	2.0	8.0	go	non-target	B	89,Yellow Button	71,Green Button	550.0	550.0	2250.0	2200.0	1.0	n/a	550.0	1.0	ITI
56981	500	n/a	-1	-1	500	0.0	fixation	poldrack-single-stim	25	171884	0.0-7.9-0.9	beast_fmri_test	313	n/a	n/a	<div class = centerbox><div class = fixation>+</div></div>	none	500.0	test	n/a	n/a	n/a	n/a	n/a	n/a	n/a	n/a	n/a	n/a	n/a	n/a	n/a	n/a	n/a	n/a	n/a	n/a	fixation
56001.820100899989	550.0	n/a	-1	-1	2750	981.1798991	stim	stop-signal	26	174636	0.0-7.9-1.9	beast_fmri_test	313	172023,/,172703,/,173384,/,174063,/,174743,/,175423,/	t,t,t,t,t,t	<img class = center src='/static/experiments/beast_fmri_test/images/P.png'></img>	89,71	2750.0	test	<img class = center src='/static/experiments/beast_fmri_test/images/redP.png'></img>	stop	2200.0	2.0	9.0	stop	target	P	89,Yellow Button	71,Green Button	550.0	550.0	2200.0	2200.0	0.0	1.0	550.0	0.0	go_stim
58201.820100899989	2200.0	n/a	-1	-1	2750	981.1798991	stim	stop-signal	26	174636	0.0-7.9-1.9	beast_fmri_test	313	172023,/,172703,/,173384,/,174063,/,174743,/,175423,/	t,t,t,t,t,t	<img class = center src='/static/experiments/beast_fmri_test/images/P.png'></img>	89,71	2750.0	test	<img class = center src='/static/experiments/beast_fmri_test/images/redP.png'></img>	stop	2200.0	2.0	9.0	stop	target	P	89,Yellow Button	71,Green Button	550.0	550.0	2200.0	2200.0	0.0	1.0	550.0	0.0	stop_stim
58751.820100899989	981.17989910000006	n/a	-1	-1	2750	981.1798991	stim	stop-signal	26	174636	0.0-7.9-1.9	beast_fmri_test	313	172023,/,172703,/,173384,/,174063,/,174743,/,175423,/	t,t,t,t,t,t	<img class = center src='/static/experiments/beast_fmri_test/images/P.png'></img>	89,71	2750.0	test	<img class = center src='/static/experiments/beast_fmri_test/images/redP.png'></img>	stop	2200.0	2.0	9.0	stop	target	P	89,Yellow Button	71,Green Button	550.0	550.0	2200.0	2200.0	0.0	1.0	550.0	0.0	ITI
61218	500	n/a	-1	-1	500	0.0	fixation	poldrack-single-stim	27	176121	0.0-7.10-0.10	beast_fmri_test	313	176103,/	t	<div class = centerbox><div class = fixation>+</div></div>	none	500.0	test	n/a	n/a	n/a	n/a	n/a	n/a	n/a	n/a	n/a	n/a	n/a	n/a	n/a	n/a	n/a	n/a	n/a	n/a	fixation
61216.104432613996	2750	n/a	884	71	2750	3.895567386	stim	stop-signal	28	178873	0.0-7.10-1.10	beast_fmri_test	313	176783,/,177463,/,178143,/,178822,/	t,t,t,t	<img class = center src='/static/experiments/beast_fmri_test/images/V.png'></img>	89,71	2750.0	test	<img class = center src='/static/experiments/beast_fmri_test/images/redV.png'></img>	go	2200.0	2.0	10.0	go	non-target	V	89,Yellow Button	71,Green Button	600.0	550.0	2200.0	2200.0	1.0	n/a	550.0	1.0	go_stim
63966.104432613996	3.8955673860000002	n/a	884	71	2750	3.895567386	stim	stop-signal	28	178873	0.0-7.10-1.10	beast_fmri_test	313	176783,/,177463,/,178143,/,178822,/	t,t,t,t	<img class = center src='/static/experiments/beast_fmri_test/images/V.png'></img>	89,71	2750.0	test	<img class = center src='/static/experiments/beast_fmri_test/images/redV.png'></img>	go	2200.0	2.0	10.0	go	non-target	V	89,Yellow Button	71,Green Button	600.0	550.0	2200.0	2200.0	1.0	n/a	550.0	1.0	ITI
64478	500	n/a	-1	-1	500	0.0	fixation	poldrack-single-stim	29	179381	0.0-7.11-0.11	beast_fmri_test	313	n/a	n/a	<div class = centerbox><div class = fixation>+</div></div>	none	500.0	test	n/a	n/a	n/a	n/a	n/a	n/a	n/a	n/a	n/a	n/a	n/a	n/a	n/a	n/a	n/a	n/a	n/a	n/a	fixation
64301.205300800008	2750	n/a	1227	89	2750	178.7946992	stim	stop-signal	30	182133	0.0-7.11-1.11	beast_fmri_test	313	179503,/,180183,/,180863,/,181543,/,182222,/	t,t,t,t,t	<img class = center src='/static/experiments/beast_fmri_test/images/P.png'></img>	89,71	2750.0	test	<img class = center src='/static/experiments/beast_fmri_test/images/redP.png'></img>	go	2150.0	2.0	11.0	go	target	P	89,Yellow Button	71,Green Button	600.0	550.0	2150.0	2200.0	1.0	n/a	600.0	1.0	go_stim
67051.205300800008	178.7946992	n/a	1227	89	2750	178.7946992	stim	stop-signal	30	182133	0.0-7.11-1.11	beast_fmri_test	313	179503,/,180183,/,180863,/,181543,/,182222,/	t,t,t,t,t	<img class = center src='/static/experiments/beast_fmri_test/images/P.png'></img>	89,71	2750.0	test	<img class = center src='/static/experiments/beast_fmri_test/images/redP.png'></img>	go	2150.0	2.0	11.0	go	target	P	89,Yellow Button	71,Green Button	600.0	550.0	2150.0	2200.0	1.0	n/a	600.0	1.0	ITI
67915	500	n/a	-1	-1	500	0.0	fixation	poldrack-single-stim	31	182818	0.0-7.12-0.12	beast_fmri_test	313	n/a	n/a	<div class = centerbox><div class = fixation>+</div></div>	none	500.0	test	n/a	n/a	n/a	n/a	n/a	n/a	n/a	n/a	n/a	n/a	n/a	n/a	n/a	n/a	n/a	n/a	n/a	n/a	fixation
67042.405403300014	2750	n/a	813	71	2750	874.5945967	stim	stop-signal	32	185570	0.0-7.12-1.12	beast_fmri_test	313	182903,/,183584,/,184262,/,184942,/,185622,/,186303,/	t,t,t,t,t,t	<img class = center src='/static/experiments/beast_fmri_test/images/D.png'></img>	89,71	2750.0	test	<img class = center src='/static/experiments/beast_fmri_test/images/redD.png'></img>	go	2200.0	2.0	12.0	go	non-target	D	89,Yellow Button	71,Green Button	600.0	550.0	2150.0	2200.0	1.0	n/a	550.0	1.0	go_stim
69792.405403300014	874.59459670000001	n/a	813	71	2750	874.5945967	stim	stop-signal	32	185570	0.0-7.12-1.12	beast_fmri_test	313	182903,/,183584,/,184262,/,184942,/,185622,/,186303,/	t,t,t,t,t,t	<img class = center src='/static/experiments/beast_fmri_test/images/D.png'></img>	89,71	2750.0	test	<img class = center src='/static/experiments/beast_fmri_test/images/redD.png'></img>	go	2200.0	2.0	12.0	go	non-target	D	89,Yellow Button	71,Green Button	600.0	550.0	2150.0	2200.0	1.0	n/a	550.0	1.0	ITI
72046	500	n/a	-1	-1	500	0.0	fixation	poldrack-single-stim	33	186949	0.0-7.13-0.13	beast_fmri_test	313	n/a	n/a	<div class = centerbox><div class = fixation>+</div></div>	none	500.0	test	n/a	n/a	n/a	n/a	n/a	n/a	n/a	n/a	n/a	n/a	n/a	n/a	n/a	n/a	n/a	n/a	n/a	n/a	fixation
71206.118562999996	600.0	n/a	-1	-1	2750	840.881437	stim	stop-signal	34	189700	0.0-7.13-1.13	beast_fmri_test	313	186983,/,187663,/,188344,/,189024,/,189703,/,190383,/	t,t,t,t,t,t	<img class = center src='/static/experiments/beast_fmri_test/images/P.png'></img>	89,71	2750.0	test	<img class = center src='/static/experiments/beast_fmri_test/images/redP.png'></img>	stop	2150.0	2.0	13.0	stop	target	P	89,Yellow Button	71,Green Button	600.0	550.0	2150.0	2200.0	0.0	1.0	600.0	0.0	go_stim
73356.118562999996	2150.0	n/a	-1	-1	2750	840.881437	stim	stop-signal	34	189700	0.0-7.13-1.13	beast_fmri_test	313	186983,/,187663,/,188344,/,189024,/,189703,/,190383,/	t,t,t,t,t,t	<img class = center src='/static/experiments/beast_fmri_test/images/P.png'></img>	89,71	2750.0	test	<img class = center src='/static/experiments/beast_fmri_test/images/redP.png'></img>	stop	2150.0	2.0	13.0	stop	target	P	89,Yellow Button	71,Green Button	600.0	550.0	2150.0	2200.0	0.0	1.0	600.0	0.0	stop_stim
73956.118562999996	840.88143699999989	n/a	-1	-1	2750	840.881437	stim	stop-signal	34	189700	0.0-7.13-1.13	beast_fmri_test	313	186983,/,187663,/,188344,/,189024,/,189703,/,190383,/	t,t,t,t,t,t	<img class = center src='/static/experiments/beast_fmri_test/images/P.png'></img>	89,71	2750.0	test	<img class = center src='/static/experiments/beast_fmri_test/images/redP.png'></img>	stop	2150.0	2.0	13.0	stop	target	P	89,Yellow Button	71,Green Button	600.0	550.0	2150.0	2200.0	0.0	1.0	600.0	0.0	ITI
76143	500	n/a	-1	-1	500	0.0	fixation	poldrack-single-stim	35	191046	0.0-7.14-0.14	beast_fmri_test	313	n/a	n/a	<div class = centerbox><div class = fixation>+</div></div>	none	500.0	test	n/a	n/a	n/a	n/a	n/a	n/a	n/a	n/a	n/a	n/a	n/a	n/a	n/a	n/a	n/a	n/a	n/a	n/a	fixation
74496.20564	2750	n/a	860	89	2750	1647.79436	stim	stop-signal	36	193797	0.0-7.14-1.14	beast_fmri_test	313	191064,/,191743,/,192423,/,193103,/,193784,/,194463,/,195143,/	t,t,t,t,t,t,t	<img class = center src='/static/experiments/beast_fmri_test/images/D.png'></img>	89,71	2750.0	test	<img class = center src='/static/experiments/beast_fmri_test/images/redD.png'></img>	go	2100.0	2.0	14.0	go	target	D	89,Yellow Button	71,Green Button	650.0	550.0	2100.0	2200.0	1.0	n/a	650.0	1.0	go_stim
77246.20564	1647.7943599999999	n/a	860	89	2750	1647.79436	stim	stop-signal	36	193797	0.0-7.14-1.14	beast_fmri_test	313	191064,/,191743,/,192423,/,193103,/,193784,/,194463,/,195143,/	t,t,t,t,t,t,t	<img class = center src='/static/experiments/beast_fmri_test/images/D.png'></img>	89,71	2750.0	test	<img class = center src='/static/experiments/beast_fmri_test/images/redD.png'></img>	go	2100.0	2.0	14.0	go	target	D	89,Yellow Button	71,Green Button	650.0	550.0	2100.0	2200.0	1.0	n/a	650.0	1.0	ITI
81046	500	n/a	-1	-1	500	0.0	fixation	poldrack-single-stim	37	195949	0.0-7.15-0.15	beast_fmri_test	313	195823,/	t	<div class = centerbox><div class = fixation>+</div></div>	none	500.0	test	n/a	n/a	n/a	n/a	n/a	n/a	n/a	n/a	n/a	n/a	n/a	n/a	n/a	n/a	n/a	n/a	n/a	n/a	fixation
80602.282132599998	2750	n/a	1074	71	2750	446.7178674	stim	stop-signal	38	198702	0.0-7.15-1.15	beast_fmri_test	313	196503,/,197183,/,197863,/,198543,/	t,t,t,t	<img class = center src='/static/experiments/beast_fmri_test/images/T.png'></img>	89,71	2750.0	test	<img class = center src='/static/experiments/beast_fmri_test/images/redT.png'></img>	go	2200.0	2.0	15.0	go	non-target	T	89,Yellow Button	71,Green Button	650.0	550.0	2100.0	2200.0	1.0	n/a	550.0	1.0	go_stim
83352.282132599998	446.71786739999999	n/a	1074	71	2750	446.7178674	stim	stop-signal	38	198702	0.0-7.15-1.15	beast_fmri_test	313	196503,/,197183,/,197863,/,198543,/	t,t,t,t	<img class = center src='/static/experiments/beast_fmri_test/images/T.png'></img>	89,71	2750.0	test	<img class = center src='/static/experiments/beast_fmri_test/images/redT.png'></img>	go	2200.0	2.0	15.0	go	non-target	T	89,Yellow Button	71,Green Button	650.0	550.0	2100.0	2200.0	1.0	n/a	550.0	1.0	ITI
84749	500	n/a	-1	-1	500	0.0	fixation	poldrack-single-stim	39	199652	0.0-7.16-0.16	beast_fmri_test	313	199223,/	t	<div class = centerbox><div class = fixation>+</div></div>	none	500.0	test	n/a	n/a	n/a	n/a	n/a	n/a	n/a	n/a	n/a	n/a	n/a	n/a	n/a	n/a	n/a	n/a	n/a	n/a	fixation
84714.864408639987	2750	n/a	1062	71	2750	36.13559136	stim	stop-signal	40	202404	0.0-7.16-1.16	beast_fmri_test	313	199903,/,200583,/,201263,/,201943,/	t,t,t,t	<img class = center src='/static/experiments/beast_fmri_test/images/V.png'></img>	89,71	2750.0	test	<img class = center src='/static/experiments/beast_fmri_test/images/redV.png'></img>	go	2200.0	2.0	16.0	go	non-target	V	89,Yellow Button	71,Green Button	650.0	550.0	2100.0	2200.0	1.0	n/a	550.0	1.0	go_stim
87464.864408639987	36.135591359999999	n/a	1062	71	2750	36.13559136	stim	stop-signal	40	202404	0.0-7.16-1.16	beast_fmri_test	313	199903,/,200583,/,201263,/,201943,/	t,t,t,t	<img class = center src='/static/experiments/beast_fmri_test/images/V.png'></img>	89,71	2750.0	test	<img class = center src='/static/experiments/beast_fmri_test/images/redV.png'></img>	go	2200.0	2.0	16.0	go	non-target	V	89,Yellow Button	71,Green Button	650.0	550.0	2100.0	2200.0	1.0	n/a	550.0	1.0	ITI
88041	500	n/a	-1	-1	500	0.0	fixation	poldrack-single-stim	41	202944	0.0-7.17-0.17	beast_fmri_test	313	202623,/	t	<div class = centerbox><div class = fixation>+</div></div>	none	500.0	test	n/a	n/a	n/a	n/a	n/a	n/a	n/a	n/a	n/a	n/a	n/a	n/a	n/a	n/a	n/a	n/a	n/a	n/a	fixation
86726.823384999996	650.0	n/a	990	89	2750	1316.176615	stim	stop-signal	42	205696	0.0-7.17-1.17	beast_fmri_test	313	203303,/,203983,/,204663,/,205343,/,206023,/,206703,/	t,t,t,t,t,t	<img class = center src='/static/experiments/beast_fmri_test/images/T.png'></img>	89,71	2750.0	test	<img class = center src='/static/experiments/beast_fmri_test/images/redT.png'></img>	stop	2100.0	2.0	17.0	stop	target	T	89,Yellow Button	71,Green Button	650.0	550.0	2100.0	2200.0	0.0	0.0	650.0	1.0	go_stim
88826.823384999996	2100.0	n/a	990	89	2750	1316.176615	stim	stop-signal	42	205696	0.0-7.17-1.17	beast_fmri_test	313	203303,/,203983,/,204663,/,205343,/,206023,/,206703,/	t,t,t,t,t,t	<img class = center src='/static/experiments/beast_fmri_test/images/T.png'></img>	89,71	2750.0	test	<img class = center src='/static/experiments/beast_fmri_test/images/redT.png'></img>	stop	2100.0	2.0	17.0	stop	target	T	89,Yellow Button	71,Green Button	650.0	550.0	2100.0	2200.0	0.0	0.0	650.0	1.0	stop_stim
89476.823384999996	1316.1766150000001	n/a	990	89	2750	1316.176615	stim	stop-signal	42	205696	0.0-7.17-1.17	beast_fmri_test	313	203303,/,203983,/,204663,/,205343,/,206023,/,206703,/	t,t,t,t,t,t	<img class = center src='/static/experiments/beast_fmri_test/images/T.png'></img>	89,71	2750.0	test	<img class = center src='/static/experiments/beast_fmri_test/images/redT.png'></img>	stop	2100.0	2.0	17.0	stop	target	T	89,Yellow Button	71,Green Button	650.0	550.0	2100.0	2200.0	0.0	0.0	650.0	1.0	ITI
92614	500	n/a	-1	-1	500	0.0	fixation	poldrack-single-stim	43	207517	0.0-7.18-0.18	beast_fmri_test	313	207383,/	t	<div class = centerbox><div class = fixation>+</div></div>	none	500.0	test	n/a	n/a	n/a	n/a	n/a	n/a	n/a	n/a	n/a	n/a	n/a	n/a	n/a	n/a	n/a	n/a	n/a	n/a	fixation
91316.035717999999	550.0	n/a	-1	-1	2750	1299.964282	stim	stop-signal	44	210269	0.0-7.18-1.18	beast_fmri_test	313	208063,/,208743,/,209423,/,210103,/,210782,/,211463,/	t,t,t,t,t,t	<img class = center src='/static/experiments/beast_fmri_test/images/B.png'></img>	89,71	2750.0	test	<img class = center src='/static/experiments/beast_fmri_test/images/redB.png'></img>	stop	2200.0	2.0	18.0	stop	non-target	B	89,Yellow Button	71,Green Button	600.0	550.0	2100.0	2200.0	0.0	1.0	550.0	0.0	go_stim
93516.035717999999	2200.0	n/a	-1	-1	2750	1299.964282	stim	stop-signal	44	210269	0.0-7.18-1.18	beast_fmri_test	313	208063,/,208743,/,209423,/,210103,/,210782,/,211463,/	t,t,t,t,t,t	<img class = center src='/static/experiments/beast_fmri_test/images/B.png'></img>	89,71	2750.0	test	<img class = center src='/static/experiments/beast_fmri_test/images/redB.png'></img>	stop	2200.0	2.0	18.0	stop	non-target	B	89,Yellow Button	71,Green Button	600.0	550.0	2100.0	2200.0	0.0	1.0	550.0	0.0	stop_stim
94066.035717999999	1299.9642820000001	n/a	-1	-1	2750	1299.964282	stim	stop-signal	44	210269	0.0-7.18-1.18	beast_fmri_test	313	208063,/,208743,/,209423,/,210103,/,210782,/,211463,/	t,t,t,t,t,t	<img class = center src='/static/experiments/beast_fmri_test/images/B.png'></img>	89,71	2750.0	test	<img class = center src='/static/experiments/beast_fmri_test/images/redB.png'></img>	stop	2200.0	2.0	18.0	stop	non-target	B	89,Yellow Button	71,Green Button	600.0	550.0	2100.0	2200.0	0.0	1.0	550.0	0.0	ITI
97172	500	n/a	-1	-1	500	0.0	fixation	poldrack-single-stim	45	212075	0.0-7.19-0.19	beast_fmri_test	313	n/a	n/a	<div class = centerbox><div class = fixation>+</div></div>	none	500.0	test	n/a	n/a	n/a	n/a	n/a	n/a	n/a	n/a	n/a	n/a	n/a	n/a	n/a	n/a	n/a	n/a	n/a	n/a	fixation
97156.490508279996	2750	n/a	1069	89	2750	17.50949172	stim	stop-signal	46	214827	0.0-7.19-1.19	beast_fmri_test	313	212143,/,212822,/,213503,/,214183,/	t,t,t,t	<img class = center src='/static/experiments/beast_fmri_test/images/B.png'></img>	89,71	2750.0	test	<img class = center src='/static/experiments/beast_fmri_test/images/redB.png'></img>	go	2150.0	2.0	19.0	go	non-target	B	89,Yellow Button	71,Green Button	600.0	600.0	2100.0	2150.0	0.0	n/a	600.0	0.0	go_stim
99906.490508279996	17.50949172	n/a	1069	89	2750	17.50949172	stim	stop-signal	46	214827	0.0-7.19-1.19	beast_fmri_test	313	212143,/,212822,/,213503,/,214183,/	t,t,t,t	<img class = center src='/static/experiments/beast_fmri_test/images/B.png'></img>	89,71	2750.0	test	<img class = center src='/static/experiments/beast_fmri_test/images/redB.png'></img>	go	2150.0	2.0	19.0	go	non-target	B	89,Yellow Button	71,Green Button	600.0	600.0	2100.0	2150.0	0.0	n/a	600.0	0.0	ITI
100446	500	n/a	-1	-1	500	0.0	fixation	poldrack-single-stim	47	215349	0.0-7.20-0.20	beast_fmri_test	313	214863,/	t	<div class = centerbox><div class = fixation>+</div></div>	none	500.0	test	n/a	n/a	n/a	n/a	n/a	n/a	n/a	n/a	n/a	n/a	n/a	n/a	n/a	n/a	n/a	n/a	n/a	n/a	fixation
100345.32463300001	600.0	n/a	-1	-1	2750	102.675367	stim	stop-signal	48	218101	0.0-7.20-1.20	beast_fmri_test	313	215543,/,216223,/,216903,/,217583,/	t,t,t,t	<img class = center src='/static/experiments/beast_fmri_test/images/V.png'></img>	89,71	2750.0	test	<img class = center src='/static/experiments/beast_fmri_test/images/redV.png'></img>	stop	2150.0	2.0	20.0	stop	non-target	V	89,Yellow Button	71,Green Button	600.0	600.0	2100.0	2150.0	0.0	1.0	600.0	0.0	go_stim
102495.32463300001	2150.0	n/a	-1	-1	2750	102.675367	stim	stop-signal	48	218101	0.0-7.20-1.20	beast_fmri_test	313	215543,/,216223,/,216903,/,217583,/	t,t,t,t	<img class = center src='/static/experiments/beast_fmri_test/images/V.png'></img>	89,71	2750.0	test	<img class = center src='/static/experiments/beast_fmri_test/images/redV.png'></img>	stop	2150.0	2.0	20.0	stop	non-target	V	89,Yellow Button	71,Green Button	600.0	600.0	2100.0	2150.0	0.0	1.0	600.0	0.0	stop_stim
103095.32463300001	102.67536700000001	n/a	-1	-1	2750	102.675367	stim	stop-signal	48	218101	0.0-7.20-1.20	beast_fmri_test	313	215543,/,216223,/,216903,/,217583,/	t,t,t,t	<img class = center src='/static/experiments/beast_fmri_test/images/V.png'></img>	89,71	2750.0	test	<img class = center src='/static/experiments/beast_fmri_test/images/redV.png'></img>	stop	2150.0	2.0	20.0	stop	non-target	V	89,Yellow Button	71,Green Button	600.0	600.0	2100.0	2150.0	0.0	1.0	600.0	0.0	ITI
103806	500	n/a	-1	-1	500	0.0	fixation	poldrack-single-stim	49	218709	0.0-7.21-0.21	beast_fmri_test	313	218263,/	t	<div class = centerbox><div class = fixation>+</div></div>	none	500.0	test	n/a	n/a	n/a	n/a	n/a	n/a	n/a	n/a	n/a	n/a	n/a	n/a	n/a	n/a	n/a	n/a	n/a	n/a	fixation
103234.83316949999	2750	n/a	1239	89	2750	572.1668305	stim	stop-signal	50	221460	0.0-7.21-1.21	beast_fmri_test	313	218943,/,219623,/,220304,/,220984,/,221663,/	t,t,t,t,t	<img class = center src='/static/experiments/beast_fmri_test/images/B.png'></img>	89,71	2750.0	test	<img class = center src='/static/experiments/beast_fmri_test/images/redB.png'></img>	go	2150.0	2.0	21.0	go	target	B	89,Yellow Button	71,Green Button	600.0	650.0	2150.0	2150.0	1.0	n/a	600.0	1.0	go_stim
105984.83316949999	572.16683049999995	n/a	1239	89	2750	572.1668305	stim	stop-signal	50	221460	0.0-7.21-1.21	beast_fmri_test	313	218943,/,219623,/,220304,/,220984,/,221663,/	t,t,t,t,t	<img class = center src='/static/experiments/beast_fmri_test/images/B.png'></img>	89,71	2750.0	test	<img class = center src='/static/experiments/beast_fmri_test/images/redB.png'></img>	go	2150.0	2.0	21.0	go	target	B	89,Yellow Button	71,Green Button	600.0	650.0	2150.0	2150.0	1.0	n/a	600.0	1.0	ITI
107636	500	n/a	-1	-1	500	0.0	fixation	poldrack-single-stim	51	222539	0.0-7.22-0.22	beast_fmri_test	313	222344,/	t	<div class = centerbox><div class = fixation>+</div></div>	none	500.0	test	n/a	n/a	n/a	n/a	n/a	n/a	n/a	n/a	n/a	n/a	n/a	n/a	n/a	n/a	n/a	n/a	n/a	n/a	fixation
106973.83414680001	2750	n/a	1194	89	2750	663.1658532	stim	stop-signal	52	225290	0.0-7.22-1.22	beast_fmri_test	313	223024,/,223704,/,224384,/,225063,/,225743,/	t,t,t,t,t	<img class = center src='/static/experiments/beast_fmri_test/images/V.png'></img>	89,71	2750.0	test	<img class = center src='/static/experiments/beast_fmri_test/images/redV.png'></img>	go	2150.0	2.0	22.0	go	target	V	89,Yellow Button	71,Green Button	600.0	650.0	2150.0	2150.0	1.0	n/a	600.0	1.0	go_stim
109723.83414680001	663.16585320000002	n/a	1194	89	2750	663.1658532	stim	stop-signal	52	225290	0.0-7.22-1.22	beast_fmri_test	313	223024,/,223704,/,224384,/,225063,/,225743,/	t,t,t,t,t	<img class = center src='/static/experiments/beast_fmri_test/images/V.png'></img>	89,71	2750.0	test	<img class = center src='/static/experiments/beast_fmri_test/images/redV.png'></img>	go	2150.0	2.0	22.0	go	target	V	89,Yellow Button	71,Green Button	600.0	650.0	2150.0	2150.0	1.0	n/a	600.0	1.0	ITI
111556	500	n/a	-1	-1	500	0.0	fixation	poldrack-single-stim	53	226459	0.0-7.23-0.23	beast_fmri_test	313	226423,/	t	<div class = centerbox><div class = fixation>+</div></div>	none	500.0	test	n/a	n/a	n/a	n/a	n/a	n/a	n/a	n/a	n/a	n/a	n/a	n/a	n/a	n/a	n/a	n/a	n/a	n/a	fixation
110728.5927983	2750	n/a	1081	71	2750	830.4072017	stim	stop-signal	54	229212	0.0-7.23-1.23	beast_fmri_test	313	227103,/,227784,/,228463,/,229143,/,229823,/	t,t,t,t,t	<img class = center src='/static/experiments/beast_fmri_test/images/T.png'></img>	89,71	2750.0	test	<img class = center src='/static/experiments/beast_fmri_test/images/redT.png'></img>	go	2100.0	2.0	23.0	go	non-target	T	89,Yellow Button	71,Green Button	600.0	650.0	2150.0	2100.0	1.0	n/a	650.0	1.0	go_stim
113478.5927983	830.40720170000009	n/a	1081	71	2750	830.4072017	stim	stop-signal	54	229212	0.0-7.23-1.23	beast_fmri_test	313	227103,/,227784,/,228463,/,229143,/,229823,/	t,t,t,t,t	<img class = center src='/static/experiments/beast_fmri_test/images/T.png'></img>	89,71	2750.0	test	<img class = center src='/static/experiments/beast_fmri_test/images/redT.png'></img>	go	2100.0	2.0	23.0	go	non-target	T	89,Yellow Button	71,Green Button	600.0	650.0	2150.0	2100.0	1.0	n/a	650.0	1.0	ITI
115645	500	n/a	-1	-1	500	0.0	fixation	poldrack-single-stim	55	230548	0.0-7.24-0.24	beast_fmri_test	313	230503,/	t	<div class = centerbox><div class = fixation>+</div></div>	none	500.0	test	n/a	n/a	n/a	n/a	n/a	n/a	n/a	n/a	n/a	n/a	n/a	n/a	n/a	n/a	n/a	n/a	n/a	n/a	fixation
115246.22254250001	2750	n/a	1892	71	2750	399.7774575	stim	stop-signal	56	233299	0.0-7.24-1.24	beast_fmri_test	313	231183,/,231863,/,232543,/,233223,/	t,t,t,t	<img class = center src='/static/experiments/beast_fmri_test/images/P.png'></img>	89,71	2750.0	test	<img class = center src='/static/experiments/beast_fmri_test/images/redP.png'></img>	go	2100.0	2.0	24.0	go	non-target	P	89,Yellow Button	71,Green Button	600.0	650.0	2150.0	2100.0	1.0	n/a	650.0	1.0	go_stim
117996.22254250001	399.77745750000003	n/a	1892	71	2750	399.7774575	stim	stop-signal	56	233299	0.0-7.24-1.24	beast_fmri_test	313	231183,/,231863,/,232543,/,233223,/	t,t,t,t	<img class = center src='/static/experiments/beast_fmri_test/images/P.png'></img>	89,71	2750.0	test	<img class = center src='/static/experiments/beast_fmri_test/images/redP.png'></img>	go	2100.0	2.0	24.0	go	non-target	P	89,Yellow Button	71,Green Button	600.0	650.0	2150.0	2100.0	1.0	n/a	650.0	1.0	ITI
119301	500	n/a	-1	-1	500	0.0	fixation	poldrack-single-stim	57	234204	0.0-7.25-0.25	beast_fmri_test	313	233903,/	t	<div class = centerbox><div class = fixation>+</div></div>	none	500.0	test	n/a	n/a	n/a	n/a	n/a	n/a	n/a	n/a	n/a	n/a	n/a	n/a	n/a	n/a	n/a	n/a	n/a	n/a	fixation
115361.67837899999	2750	n/a	1020	71	2750	3941.321621	stim	stop-signal	58	236956	0.0-7.25-1.25	beast_fmri_test	313	234583,/,235263,/,235943,/,236623,/,237303,/,237983,/,238663,/,239342,/,240023,/,240703,/	t,t,t,t,t,t,t,t,t,t	<img class = center src='/static/experiments/beast_fmri_test/images/B.png'></img>	89,71	2750.0	test	<img class = center src='/static/experiments/beast_fmri_test/images/redB.png'></img>	go	2100.0	2.0	25.0	go	non-target	B	89,Yellow Button	71,Green Button	600.0	650.0	2150.0	2100.0	1.0	n/a	650.0	1.0	go_stim
118111.67837899999	3941.3216210000001	n/a	1020	71	2750	3941.321621	stim	stop-signal	58	236956	0.0-7.25-1.25	beast_fmri_test	313	234583,/,235263,/,235943,/,236623,/,237303,/,237983,/,238663,/,239342,/,240023,/,240703,/	t,t,t,t,t,t,t,t,t,t	<img class = center src='/static/experiments/beast_fmri_test/images/B.png'></img>	89,71	2750.0	test	<img class = center src='/static/experiments/beast_fmri_test/images/redB.png'></img>	go	2100.0	2.0	25.0	go	non-target	B	89,Yellow Button	71,Green Button	600.0	650.0	2150.0	2100.0	1.0	n/a	650.0	1.0	ITI
126499	500	n/a	-1	-1	500	0.0	fixation	poldrack-single-stim	59	241402	0.0-7.26-0.26	beast_fmri_test	313	241383,/	t	<div class = centerbox><div class = fixation>+</div></div>	none	500.0	test	n/a	n/a	n/a	n/a	n/a	n/a	n/a	n/a	n/a	n/a	n/a	n/a	n/a	n/a	n/a	n/a	n/a	n/a	fixation
125488.48754599999	2750	n/a	1391	71	2750	1011.512454	stim	stop-signal	60	244153	0.0-7.26-1.26	beast_fmri_test	313	242063,/,242743,/,243423,/,244102,/,244784,/	t,t,t,t,t	<img class = center src='/static/experiments/beast_fmri_test/images/B.png'></img>	89,71	2750.0	test	<img class = center src='/static/experiments/beast_fmri_test/images/redB.png'></img>	go	2100.0	2.0	26.0	go	non-target	B	89,Yellow Button	71,Green Button	600.0	650.0	2150.0	2100.0	1.0	n/a	650.0	1.0	go_stim
128238.48754599999	1011.5124539999999	n/a	1391	71	2750	1011.512454	stim	stop-signal	60	244153	0.0-7.26-1.26	beast_fmri_test	313	242063,/,242743,/,243423,/,244102,/,244784,/	t,t,t,t,t	<img class = center src='/static/experiments/beast_fmri_test/images/B.png'></img>	89,71	2750.0	test	<img class = center src='/static/experiments/beast_fmri_test/images/redB.png'></img>	go	2100.0	2.0	26.0	go	non-target	B	89,Yellow Button	71,Green Button	600.0	650.0	2150.0	2100.0	1.0	n/a	650.0	1.0	ITI
130766	500	n/a	-1	-1	500	0.0	fixation	poldrack-single-stim	61	245669	0.0-7.27-0.27	beast_fmri_test	313	245463,/	t	<div class = centerbox><div class = fixation>+</div></div>	none	500.0	test	n/a	n/a	n/a	n/a	n/a	n/a	n/a	n/a	n/a	n/a	n/a	n/a	n/a	n/a	n/a	n/a	n/a	n/a	fixation
130348.88012089999	650.0	n/a	1018	71	2750	418.1198791	stim	stop-signal	62	248420	0.0-7.27-1.27	beast_fmri_test	313	246143,/,246822,/,247503,/,248183,/	t,t,t,t	<img class = center src='/static/experiments/beast_fmri_test/images/T.png'></img>	89,71	2750.0	test	<img class = center src='/static/experiments/beast_fmri_test/images/redT.png'></img>	stop	2100.0	2.0	27.0	stop	non-target	T	89,Yellow Button	71,Green Button	600.0	650.0	2150.0	2100.0	0.0	0.0	650.0	1.0	go_stim
132448.88012089999	2100.0	n/a	1018	71	2750	418.1198791	stim	stop-signal	62	248420	0.0-7.27-1.27	beast_fmri_test	313	246143,/,246822,/,247503,/,248183,/	t,t,t,t	<img class = center src='/static/experiments/beast_fmri_test/images/T.png'></img>	89,71	2750.0	test	<img class = center src='/static/experiments/beast_fmri_test/images/redT.png'></img>	stop	2100.0	2.0	27.0	stop	non-target	T	89,Yellow Button	71,Green Button	600.0	650.0	2150.0	2100.0	0.0	0.0	650.0	1.0	stop_stim
133098.88012089999	418.11987910000005	n/a	1018	71	2750	418.1198791	stim	stop-signal	62	248420	0.0-7.27-1.27	beast_fmri_test	313	246143,/,246822,/,247503,/,248183,/	t,t,t,t	<img class = center src='/static/experiments/beast_fmri_test/images/T.png'></img>	89,71	2750.0	test	<img class = center src='/static/experiments/beast_fmri_test/images/redT.png'></img>	stop	2100.0	2.0	27.0	stop	non-target	T	89,Yellow Button	71,Green Button	600.0	650.0	2150.0	2100.0	0.0	0.0	650.0	1.0	ITI
134441	500	n/a	-1	-1	500	0.0	fixation	poldrack-single-stim	63	249344	0.0-7.28-0.28	beast_fmri_test	313	248862,/	t	<div class = centerbox><div class = fixation>+</div></div>	none	500.0	test	n/a	n/a	n/a	n/a	n/a	n/a	n/a	n/a	n/a	n/a	n/a	n/a	n/a	n/a	n/a	n/a	n/a	n/a	fixation
133934.66352599999	600.0	n/a	-1	-1	2750	507.336474	stim	stop-signal	64	252095	0.0-7.28-1.28	beast_fmri_test	313	249542,/,250222,/,250902,/,251583,/,252262,/	t,t,t,t,t	<img class = center src='/static/experiments/beast_fmri_test/images/D.png'></img>	89,71	2750.0	test	<img class = center src='/static/experiments/beast_fmri_test/images/redD.png'></img>	stop	2150.0	2.0	28.0	stop	non-target	D	89,Yellow Button	71,Green Button	600.0	600.0	2150.0	2150.0	0.0	1.0	600.0	0.0	go_stim
136084.66352599999	2150.0	n/a	-1	-1	2750	507.336474	stim	stop-signal	64	252095	0.0-7.28-1.28	beast_fmri_test	313	249542,/,250222,/,250902,/,251583,/,252262,/	t,t,t,t,t	<img class = center src='/static/experiments/beast_fmri_test/images/D.png'></img>	89,71	2750.0	test	<img class = center src='/static/experiments/beast_fmri_test/images/redD.png'></img>	stop	2150.0	2.0	28.0	stop	non-target	D	89,Yellow Button	71,Green Button	600.0	600.0	2150.0	2150.0	0.0	1.0	600.0	0.0	stop_stim
136684.66352599999	507.33647400000001	n/a	-1	-1	2750	507.336474	stim	stop-signal	64	252095	0.0-7.28-1.28	beast_fmri_test	313	249542,/,250222,/,250902,/,251583,/,252262,/	t,t,t,t,t	<img class = center src='/static/experiments/beast_fmri_test/images/D.png'></img>	89,71	2750.0	test	<img class = center src='/static/experiments/beast_fmri_test/images/redD.png'></img>	stop	2150.0	2.0	28.0	stop	non-target	D	89,Yellow Button	71,Green Button	600.0	600.0	2150.0	2150.0	0.0	1.0	600.0	0.0	ITI
138204	500	n/a	-1	-1	500	0.0	fixation	poldrack-single-stim	65	253107	0.0-7.29-0.29	beast_fmri_test	313	252943,/	t	<div class = centerbox><div class = fixation>+</div></div>	none	500.0	test	n/a	n/a	n/a	n/a	n/a	n/a	n/a	n/a	n/a	n/a	n/a	n/a	n/a	n/a	n/a	n/a	n/a	n/a	fixation
137500.19494849999	2750	n/a	816	71	2750	704.8050515	stim	stop-signal	66	255858	0.0-7.29-1.29	beast_fmri_test	313	253624,/,254303,/,254984,/,255663,/,256343,/	t,t,t,t,t	<img class = center src='/static/experiments/beast_fmri_test/images/P.png'></img>	89,71	2750.0	test	<img class = center src='/static/experiments/beast_fmri_test/images/redP.png'></img>	go	2100.0	2.0	29.0	go	non-target	P	89,Yellow Button	71,Green Button	600.0	650.0	2150.0	2100.0	1.0	n/a	650.0	1.0	go_stim
140250.19494849999	704.80505149999999	n/a	816	71	2750	704.8050515	stim	stop-signal	66	255858	0.0-7.29-1.29	beast_fmri_test	313	253624,/,254303,/,254984,/,255663,/,256343,/	t,t,t,t,t	<img class = center src='/static/experiments/beast_fmri_test/images/P.png'></img>	89,71	2750.0	test	<img class = center src='/static/experiments/beast_fmri_test/images/redP.png'></img>	go	2100.0	2.0	29.0	go	non-target	P	89,Yellow Button	71,Green Button	600.0	650.0	2150.0	2100.0	1.0	n/a	650.0	1.0	ITI
142165	500	n/a	-1	-1	500	0.0	fixation	poldrack-single-stim	67	257068	0.0-7.30-0.30	beast_fmri_test	313	257023,/	t	<div class = centerbox><div class = fixation>+</div></div>	none	500.0	test	n/a	n/a	n/a	n/a	n/a	n/a	n/a	n/a	n/a	n/a	n/a	n/a	n/a	n/a	n/a	n/a	n/a	n/a	fixation
141481.726177	2750	n/a	2025	71	2750	684.273823	stim	stop-signal	68	259819	0.0-7.30-1.30	beast_fmri_test	313	257703,/,258383,/,259063,/,259743,/,260423,/	t,t,t,t,t	<img class = center src='/static/experiments/beast_fmri_test/images/D.png'></img>	89,71	2750.0	test	<img class = center src='/static/experiments/beast_fmri_test/images/redD.png'></img>	go	2150.0	2.0	30.0	go	target	D	89,Yellow Button	71,Green Button	600.0	650.0	2150.0	2100.0	0.0	n/a	600.0	0.0	go_stim
144231.726177	684.27382299999999	n/a	2025	71	2750	684.273823	stim	stop-signal	68	259819	0.0-7.30-1.30	beast_fmri_test	313	257703,/,258383,/,259063,/,259743,/,260423,/	t,t,t,t,t	<img class = center src='/static/experiments/beast_fmri_test/images/D.png'></img>	89,71	2750.0	test	<img class = center src='/static/experiments/beast_fmri_test/images/redD.png'></img>	go	2150.0	2.0	30.0	go	target	D	89,Yellow Button	71,Green Button	600.0	650.0	2150.0	2100.0	0.0	n/a	600.0	0.0	ITI
146105	500	n/a	-1	-1	500	0.0	fixation	poldrack-single-stim	69	261008	0.0-7.31-0.31	beast_fmri_test	313	n/a	n/a	<div class = centerbox><div class = fixation>+</div></div>	none	500.0	test	n/a	n/a	n/a	n/a	n/a	n/a	n/a	n/a	n/a	n/a	n/a	n/a	n/a	n/a	n/a	n/a	n/a	n/a	fixation
145210.00596939999	2750	n/a	1390	89	2750	896.9940306	stim	stop-signal	70	263760	0.0-7.31-1.31	beast_fmri_test	313	261103,/,261783,/,262463,/,263143,/,263823,/,264503,/	t,t,t,t,t,t	<img class = center src='/static/experiments/beast_fmri_test/images/T.png'></img>	89,71	2750.0	test	<img class = center src='/static/experiments/beast_fmri_test/images/redT.png'></img>	go	2100.0	2.0	31.0	go	non-target	T	89,Yellow Button	71,Green Button	600.0	650.0	2150.0	2100.0	0.0	n/a	650.0	0.0	go_stim
147960.00596939999	896.99403059999997	n/a	1390	89	2750	896.9940306	stim	stop-signal	70	263760	0.0-7.31-1.31	beast_fmri_test	313	261103,/,261783,/,262463,/,263143,/,263823,/,264503,/	t,t,t,t,t,t	<img class = center src='/static/experiments/beast_fmri_test/images/T.png'></img>	89,71	2750.0	test	<img class = center src='/static/experiments/beast_fmri_test/images/redT.png'></img>	go	2100.0	2.0	31.0	go	non-target	T	89,Yellow Button	71,Green Button	600.0	650.0	2150.0	2100.0	0.0	n/a	650.0	0.0	ITI
150259	500	n/a	-1	-1	500	0.0	fixation	poldrack-single-stim	71	265162	0.0-7.32-0.32	beast_fmri_test	313	n/a	n/a	<div class = centerbox><div class = fixation>+</div></div>	none	500.0	test	n/a	n/a	n/a	n/a	n/a	n/a	n/a	n/a	n/a	n/a	n/a	n/a	n/a	n/a	n/a	n/a	n/a	n/a	fixation
149112.50859600003	650.0	n/a	-1	-1	2750	1148.491404	stim	stop-signal	72	267914	0.0-7.32-1.32	beast_fmri_test	313	265184,/,265863,/,266543,/,267223,/,267903,/,268583,/	t,t,t,t,t,t	<img class = center src='/static/experiments/beast_fmri_test/images/T.png'></img>	89,71	2750.0	test	<img class = center src='/static/experiments/beast_fmri_test/images/redT.png'></img>	stop	2100.0	2.0	32.0	stop	non-target	T	89,Yellow Button	71,Green Button	600.0	650.0	2150.0	2100.0	0.0	1.0	650.0	0.0	go_stim
151212.50859600003	2100.0	n/a	-1	-1	2750	1148.491404	stim	stop-signal	72	267914	0.0-7.32-1.32	beast_fmri_test	313	265184,/,265863,/,266543,/,267223,/,267903,/,268583,/	t,t,t,t,t,t	<img class = center src='/static/experiments/beast_fmri_test/images/T.png'></img>	89,71	2750.0	test	<img class = center src='/static/experiments/beast_fmri_test/images/redT.png'></img>	stop	2100.0	2.0	32.0	stop	non-target	T	89,Yellow Button	71,Green Button	600.0	650.0	2150.0	2100.0	0.0	1.0	650.0	0.0	stop_stim
151862.50859600003	1148.4914039999999	n/a	-1	-1	2750	1148.491404	stim	stop-signal	72	267914	0.0-7.32-1.32	beast_fmri_test	313	265184,/,265863,/,266543,/,267223,/,267903,/,268583,/	t,t,t,t,t,t	<img class = center src='/static/experiments/beast_fmri_test/images/T.png'></img>	89,71	2750.0	test	<img class = center src='/static/experiments/beast_fmri_test/images/redT.png'></img>	stop	2100.0	2.0	32.0	stop	non-target	T	89,Yellow Button	71,Green Button	600.0	650.0	2150.0	2100.0	0.0	1.0	650.0	0.0	ITI
154665	500	n/a	-1	-1	500	0.0	fixation	poldrack-single-stim	73	269568	0.0-7.33-0.33	beast_fmri_test	313	269263,/	t	<div class = centerbox><div class = fixation>+</div></div>	none	500.0	test	n/a	n/a	n/a	n/a	n/a	n/a	n/a	n/a	n/a	n/a	n/a	n/a	n/a	n/a	n/a	n/a	n/a	n/a	fixation
154572.54083653999	2750	n/a	1464	71	2750	93.45916346	stim	stop-signal	74	272319	0.0-7.33-1.33	beast_fmri_test	313	269943,/,270623,/,271303,/,271983,/	t,t,t,t	<img class = center src='/static/experiments/beast_fmri_test/images/P.png'></img>	89,71	2750.0	test	<img class = center src='/static/experiments/beast_fmri_test/images/redP.png'></img>	go	2050.0	2.0	33.0	go	non-target	P	89,Yellow Button	71,Green Button	600.0	700.0	2150.0	2050.0	1.0	n/a	700.0	1.0	go_stim
157322.54083653999	93.459163459999999	n/a	1464	71	2750	93.45916346	stim	stop-signal	74	272319	0.0-7.33-1.33	beast_fmri_test	313	269943,/,270623,/,271303,/,271983,/	t,t,t,t	<img class = center src='/static/experiments/beast_fmri_test/images/P.png'></img>	89,71	2750.0	test	<img class = center src='/static/experiments/beast_fmri_test/images/redP.png'></img>	go	2050.0	2.0	33.0	go	non-target	P	89,Yellow Button	71,Green Button	600.0	700.0	2150.0	2050.0	1.0	n/a	700.0	1.0	ITI
158014	500	n/a	-1	-1	500	0.0	fixation	poldrack-single-stim	75	272917	0.0-7.34-0.34	beast_fmri_test	313	272663,/	t	<div class = centerbox><div class = fixation>+</div></div>	none	500.0	test	n/a	n/a	n/a	n/a	n/a	n/a	n/a	n/a	n/a	n/a	n/a	n/a	n/a	n/a	n/a	n/a	n/a	n/a	fixation
156493.58564100001	2750	n/a	1189	71	2750	1523.414359	stim	stop-signal	76	275670	0.0-7.34-1.34	beast_fmri_test	313	273343,/,274023,/,274703,/,275384,/,276063,/,276743,/	t,t,t,t,t,t	<img class = center src='/static/experiments/beast_fmri_test/images/V.png'></img>	89,71	2750.0	test	<img class = center src='/static/experiments/beast_fmri_test/images/redV.png'></img>	go	2050.0	2.0	34.0	go	non-target	V	89,Yellow Button	71,Green Button	600.0	700.0	2150.0	2050.0	1.0	n/a	700.0	1.0	go_stim
159243.58564100001	1523.4143589999999	n/a	1189	71	2750	1523.414359	stim	stop-signal	76	275670	0.0-7.34-1.34	beast_fmri_test	313	273343,/,274023,/,274703,/,275384,/,276063,/,276743,/	t,t,t,t,t,t	<img class = center src='/static/experiments/beast_fmri_test/images/V.png'></img>	89,71	2750.0	test	<img class = center src='/static/experiments/beast_fmri_test/images/redV.png'></img>	go	2050.0	2.0	34.0	go	non-target	V	89,Yellow Button	71,Green Button	600.0	700.0	2150.0	2050.0	1.0	n/a	700.0	1.0	ITI
162795	500	n/a	-1	-1	500	0.0	fixation	poldrack-single-stim	77	277698	0.0-7.35-0.35	beast_fmri_test	313	277423,/	t	<div class = centerbox><div class = fixation>+</div></div>	none	500.0	test	n/a	n/a	n/a	n/a	n/a	n/a	n/a	n/a	n/a	n/a	n/a	n/a	n/a	n/a	n/a	n/a	n/a	n/a	fixation
161259.95160099998	2750	n/a	1940	71	2750	1537.048399	stim	stop-signal	78	280450	0.0-7.35-1.35	beast_fmri_test	313	278102,/,278783,/,279463,/,280143,/,280822,/,281502,/	t,t,t,t,t,t	<img class = center src='/static/experiments/beast_fmri_test/images/P.png'></img>	89,71	2750.0	test	<img class = center src='/static/experiments/beast_fmri_test/images/redP.png'></img>	go	2150.0	2.0	35.0	go	target	P	89,Yellow Button	71,Green Button	600.0	700.0	2150.0	2050.0	0.0	n/a	600.0	0.0	go_stim
164009.95160099998	1537.048399	n/a	1940	71	2750	1537.048399	stim	stop-signal	78	280450	0.0-7.35-1.35	beast_fmri_test	313	278102,/,278783,/,279463,/,280143,/,280822,/,281502,/	t,t,t,t,t,t	<img class = center src='/static/experiments/beast_fmri_test/images/P.png'></img>	89,71	2750.0	test	<img class = center src='/static/experiments/beast_fmri_test/images/redP.png'></img>	go	2150.0	2.0	35.0	go	target	P	89,Yellow Button	71,Green Button	600.0	700.0	2150.0	2050.0	0.0	n/a	600.0	0.0	ITI
167589	500	n/a	-1	-1	500	0.0	fixation	poldrack-single-stim	79	282492	0.0-7.36-0.36	beast_fmri_test	313	282182,/	t	<div class = centerbox><div class = fixation>+</div></div>	none	500.0	test	n/a	n/a	n/a	n/a	n/a	n/a	n/a	n/a	n/a	n/a	n/a	n/a	n/a	n/a	n/a	n/a	n/a	n/a	fixation
167313.94253270002	2750	n/a	1041	89	2750	277.0574673	stim	stop-signal	80	285244	0.0-7.36-1.36	beast_fmri_test	313	282862,/,283542,/,284222,/,284902,/	t,t,t,t	<img class = center src='/static/experiments/beast_fmri_test/images/V.png'></img>	89,71	2750.0	test	<img class = center src='/static/experiments/beast_fmri_test/images/redV.png'></img>	go	2150.0	2.0	36.0	go	target	V	89,Yellow Button	71,Green Button	600.0	700.0	2150.0	2050.0	1.0	n/a	600.0	1.0	go_stim
170063.94253270002	277.05746729999998	n/a	1041	89	2750	277.0574673	stim	stop-signal	80	285244	0.0-7.36-1.36	beast_fmri_test	313	282862,/,283542,/,284222,/,284902,/	t,t,t,t	<img class = center src='/static/experiments/beast_fmri_test/images/V.png'></img>	89,71	2750.0	test	<img class = center src='/static/experiments/beast_fmri_test/images/redV.png'></img>	go	2150.0	2.0	36.0	go	target	V	89,Yellow Button	71,Green Button	600.0	700.0	2150.0	2050.0	1.0	n/a	600.0	1.0	ITI
171126	500	n/a	-1	-1	500	0.0	fixation	poldrack-single-stim	81	286029	0.0-7.37-0.37	beast_fmri_test	313	285584,/	t	<div class = centerbox><div class = fixation>+</div></div>	none	500.0	test	n/a	n/a	n/a	n/a	n/a	n/a	n/a	n/a	n/a	n/a	n/a	n/a	n/a	n/a	n/a	n/a	n/a	n/a	fixation
170474.32608829997	600.0	n/a	-1	-1	2750	653.6739117	stim	stop-signal	82	288781	0.0-7.37-1.37	beast_fmri_test	313	286263,/,286942,/,287623,/,288303,/,288983,/	t,t,t,t,t	<img class = center src='/static/experiments/beast_fmri_test/images/P.png'></img>	89,71	2750.0	test	<img class = center src='/static/experiments/beast_fmri_test/images/redP.png'></img>	stop	2150.0	2.0	37.0	stop	target	P	89,Yellow Button	71,Green Button	600.0	700.0	2150.0	2050.0	0.0	1.0	600.0	0.0	go_stim
172624.32608829997	2150.0	n/a	-1	-1	2750	653.6739117	stim	stop-signal	82	288781	0.0-7.37-1.37	beast_fmri_test	313	286263,/,286942,/,287623,/,288303,/,288983,/	t,t,t,t,t	<img class = center src='/static/experiments/beast_fmri_test/images/P.png'></img>	89,71	2750.0	test	<img class = center src='/static/experiments/beast_fmri_test/images/redP.png'></img>	stop	2150.0	2.0	37.0	stop	target	P	89,Yellow Button	71,Green Button	600.0	700.0	2150.0	2050.0	0.0	1.0	600.0	0.0	stop_stim
173224.32608829997	653.67391170000008	n/a	-1	-1	2750	653.6739117	stim	stop-signal	82	288781	0.0-7.37-1.37	beast_fmri_test	313	286263,/,286942,/,287623,/,288303,/,288983,/	t,t,t,t,t	<img class = center src='/static/experiments/beast_fmri_test/images/P.png'></img>	89,71	2750.0	test	<img class = center src='/static/experiments/beast_fmri_test/images/redP.png'></img>	stop	2150.0	2.0	37.0	stop	target	P	89,Yellow Button	71,Green Button	600.0	700.0	2150.0	2050.0	0.0	1.0	600.0	0.0	ITI
175038	500	n/a	-1	-1	500	0.0	fixation	poldrack-single-stim	83	289941	0.0-7.38-0.38	beast_fmri_test	313	289663,/	t	<div class = centerbox><div class = fixation>+</div></div>	none	500.0	test	n/a	n/a	n/a	n/a	n/a	n/a	n/a	n/a	n/a	n/a	n/a	n/a	n/a	n/a	n/a	n/a	n/a	n/a	fixation
174654.73392799997	2750	n/a	727	89	2750	385.266072	stim	stop-signal	84	292693	0.0-7.38-1.38	beast_fmri_test	313	290343,/,291023,/,291703,/,292383,/,293063,/	t,t,t,t,t	<img class = center src='/static/experiments/beast_fmri_test/images/V.png'></img>	89,71	2750.0	test	<img class = center src='/static/experiments/beast_fmri_test/images/redV.png'></img>	go	2100.0	2.0	38.0	go	target	V	89,Yellow Button	71,Green Button	650.0	700.0	2100.0	2050.0	1.0	n/a	650.0	1.0	go_stim
177404.73392799997	385.26607200000001	n/a	727	89	2750	385.266072	stim	stop-signal	84	292693	0.0-7.38-1.38	beast_fmri_test	313	290343,/,291023,/,291703,/,292383,/,293063,/	t,t,t,t,t	<img class = center src='/static/experiments/beast_fmri_test/images/V.png'></img>	89,71	2750.0	test	<img class = center src='/static/experiments/beast_fmri_test/images/redV.png'></img>	go	2100.0	2.0	38.0	go	target	V	89,Yellow Button	71,Green Button	650.0	700.0	2100.0	2050.0	1.0	n/a	650.0	1.0	ITI
178683	500	n/a	-1	-1	500	0.0	fixation	poldrack-single-stim	85	293586	0.0-7.39-0.39	beast_fmri_test	313	n/a	n/a	<div class = centerbox><div class = fixation>+</div></div>	none	500.0	test	n/a	n/a	n/a	n/a	n/a	n/a	n/a	n/a	n/a	n/a	n/a	n/a	n/a	n/a	n/a	n/a	n/a	n/a	fixation
178591.55141299003	700.0	n/a	860	71	2750	93.44858701	stim	stop-signal	86	296338	0.0-7.39-1.39	beast_fmri_test	313	293743,/,294423,/,295103,/,295784,/	t,t,t,t	<img class = center src='/static/experiments/beast_fmri_test/images/B.png'></img>	89,71	2750.0	test	<img class = center src='/static/experiments/beast_fmri_test/images/redB.png'></img>	stop	2050.0	2.0	39.0	stop	non-target	B	89,Yellow Button	71,Green Button	650.0	700.0	2100.0	2050.0	0.0	0.0	700.0	1.0	go_stim
180641.55141299003	2050.0	n/a	860	71	2750	93.44858701	stim	stop-signal	86	296338	0.0-7.39-1.39	beast_fmri_test	313	293743,/,294423,/,295103,/,295784,/	t,t,t,t	<img class = center src='/static/experiments/beast_fmri_test/images/B.png'></img>	89,71	2750.0	test	<img class = center src='/static/experiments/beast_fmri_test/images/redB.png'></img>	stop	2050.0	2.0	39.0	stop	non-target	B	89,Yellow Button	71,Green Button	650.0	700.0	2100.0	2050.0	0.0	0.0	700.0	1.0	stop_stim
181341.55141299003	93.448587009999997	n/a	860	71	2750	93.44858701	stim	stop-signal	86	296338	0.0-7.39-1.39	beast_fmri_test	313	293743,/,294423,/,295103,/,295784,/	t,t,t,t	<img class = center src='/static/experiments/beast_fmri_test/images/B.png'></img>	89,71	2750.0	test	<img class = center src='/static/experiments/beast_fmri_test/images/redB.png'></img>	stop	2050.0	2.0	39.0	stop	non-target	B	89,Yellow Button	71,Green Button	650.0	700.0	2100.0	2050.0	0.0	0.0	700.0	1.0	ITI
182033	500	n/a	-1	-1	500	0.0	fixation	poldrack-single-stim	87	296936	0.0-7.40-0.40	beast_fmri_test	313	296463,/	t	<div class = centerbox><div class = fixation>+</div></div>	none	500.0	test	n/a	n/a	n/a	n/a	n/a	n/a	n/a	n/a	n/a	n/a	n/a	n/a	n/a	n/a	n/a	n/a	n/a	n/a	fixation
181718.19874610001	650.0	n/a	-1	-1	2750	316.8012539	stim	stop-signal	88	299688	0.0-7.40-1.40	beast_fmri_test	313	297143,/,297823,/,298503,/,299183,/,299863,/	t,t,t,t,t	<img class = center src='/static/experiments/beast_fmri_test/images/D.png'></img>	89,71	2750.0	test	<img class = center src='/static/experiments/beast_fmri_test/images/redD.png'></img>	stop	2100.0	2.0	40.0	stop	non-target	D	89,Yellow Button	71,Green Button	650.0	650.0	2100.0	2100.0	0.0	1.0	650.0	0.0	go_stim
183818.19874610001	2100.0	n/a	-1	-1	2750	316.8012539	stim	stop-signal	88	299688	0.0-7.40-1.40	beast_fmri_test	313	297143,/,297823,/,298503,/,299183,/,299863,/	t,t,t,t,t	<img class = center src='/static/experiments/beast_fmri_test/images/D.png'></img>	89,71	2750.0	test	<img class = center src='/static/experiments/beast_fmri_test/images/redD.png'></img>	stop	2100.0	2.0	40.0	stop	non-target	D	89,Yellow Button	71,Green Button	650.0	650.0	2100.0	2100.0	0.0	1.0	650.0	0.0	stop_stim
184468.19874610001	316.80125390000001	n/a	-1	-1	2750	316.8012539	stim	stop-signal	88	299688	0.0-7.40-1.40	beast_fmri_test	313	297143,/,297823,/,298503,/,299183,/,299863,/	t,t,t,t,t	<img class = center src='/static/experiments/beast_fmri_test/images/D.png'></img>	89,71	2750.0	test	<img class = center src='/static/experiments/beast_fmri_test/images/redD.png'></img>	stop	2100.0	2.0	40.0	stop	non-target	D	89,Yellow Button	71,Green Button	650.0	650.0	2100.0	2100.0	0.0	1.0	650.0	0.0	ITI
185610	500	n/a	-1	-1	500	0.0	fixation	poldrack-single-stim	89	300513	0.0-7.41-0.41	beast_fmri_test	313	n/a	n/a	<div class = centerbox><div class = fixation>+</div></div>	none	500.0	test	n/a	n/a	n/a	n/a	n/a	n/a	n/a	n/a	n/a	n/a	n/a	n/a	n/a	n/a	n/a	n/a	n/a	n/a	fixation
184720.18265199999	700.0	n/a	-1	-1	2750	890.817348	stim	stop-signal	90	303264	0.0-7.41-1.41	beast_fmri_test	313	300543,/,301223,/,301903,/,302583,/,303263,/,303943,/	t,t,t,t,t,t	<img class = center src='/static/experiments/beast_fmri_test/images/P.png'></img>	89,71	2750.0	test	<img class = center src='/static/experiments/beast_fmri_test/images/redP.png'></img>	stop	2050.0	2.0	41.0	stop	non-target	P	89,Yellow Button	71,Green Button	650.0	700.0	2100.0	2050.0	0.0	1.0	700.0	0.0	go_stim
186770.18265199999	2050.0	n/a	-1	-1	2750	890.817348	stim	stop-signal	90	303264	0.0-7.41-1.41	beast_fmri_test	313	300543,/,301223,/,301903,/,302583,/,303263,/,303943,/	t,t,t,t,t,t	<img class = center src='/static/experiments/beast_fmri_test/images/P.png'></img>	89,71	2750.0	test	<img class = center src='/static/experiments/beast_fmri_test/images/redP.png'></img>	stop	2050.0	2.0	41.0	stop	non-target	P	89,Yellow Button	71,Green Button	650.0	700.0	2100.0	2050.0	0.0	1.0	700.0	0.0	stop_stim
187470.18265199999	890.81734800000004	n/a	-1	-1	2750	890.817348	stim	stop-signal	90	303264	0.0-7.41-1.41	beast_fmri_test	313	300543,/,301223,/,301903,/,302583,/,303263,/,303943,/	t,t,t,t,t,t	<img class = center src='/static/experiments/beast_fmri_test/images/P.png'></img>	89,71	2750.0	test	<img class = center src='/static/experiments/beast_fmri_test/images/redP.png'></img>	stop	2050.0	2.0	41.0	stop	non-target	P	89,Yellow Button	71,Green Button	650.0	700.0	2100.0	2050.0	0.0	1.0	700.0	0.0	ITI
189758	500	n/a	-1	-1	500	0.0	fixation	poldrack-single-stim	91	304661	0.0-7.42-0.42	beast_fmri_test	313	304623,/	t	<div class = centerbox><div class = fixation>+</div></div>	none	500.0	test	n/a	n/a	n/a	n/a	n/a	n/a	n/a	n/a	n/a	n/a	n/a	n/a	n/a	n/a	n/a	n/a	n/a	n/a	fixation
187883.37006300001	2750	n/a	938	71	2750	1876.629937	stim	stop-signal	92	307413	0.0-7.42-1.42	beast_fmri_test	313	305303,/,305983,/,306663,/,307343,/,308023,/,308703,/	t,t,t,t,t,t	<img class = center src='/static/experiments/beast_fmri_test/images/D.png'></img>	89,71	2750.0	test	<img class = center src='/static/experiments/beast_fmri_test/images/redD.png'></img>	go	2100.0	2.0	42.0	go	target	D	89,Yellow Button	71,Green Button	650.0	750.0	2100.0	2050.0	0.0	n/a	650.0	0.0	go_stim
190633.37006300001	1876.6299370000002	n/a	938	71	2750	1876.629937	stim	stop-signal	92	307413	0.0-7.42-1.42	beast_fmri_test	313	305303,/,305983,/,306663,/,307343,/,308023,/,308703,/	t,t,t,t,t,t	<img class = center src='/static/experiments/beast_fmri_test/images/D.png'></img>	89,71	2750.0	test	<img class = center src='/static/experiments/beast_fmri_test/images/redD.png'></img>	go	2100.0	2.0	42.0	go	target	D	89,Yellow Button	71,Green Button	650.0	750.0	2100.0	2050.0	0.0	n/a	650.0	0.0	ITI
194892	500	n/a	-1	-1	500	0.0	fixation	poldrack-single-stim	93	309795	0.0-7.43-0.43	beast_fmri_test	313	309383,/	t	<div class = centerbox><div class = fixation>+</div></div>	none	500.0	test	n/a	n/a	n/a	n/a	n/a	n/a	n/a	n/a	n/a	n/a	n/a	n/a	n/a	n/a	n/a	n/a	n/a	n/a	fixation
194373.94463310001	750.0	n/a	-1	-1	2750	519.0553669	stim	stop-signal	94	312546	0.0-7.43-1.43	beast_fmri_test	313	310063,/,310743,/,311423,/,312102,/,312783,/	t,t,t,t,t	<img class = center src='/static/experiments/beast_fmri_test/images/B.png'></img>	89,71	2750.0	test	<img class = center src='/static/experiments/beast_fmri_test/images/redB.png'></img>	stop	2000.0	2.0	43.0	stop	non-target	B	89,Yellow Button	71,Green Button	650.0	750.0	2100.0	2000.0	0.0	1.0	750.0	0.0	go_stim
196373.94463310001	2000.0	n/a	-1	-1	2750	519.0553669	stim	stop-signal	94	312546	0.0-7.43-1.43	beast_fmri_test	313	310063,/,310743,/,311423,/,312102,/,312783,/	t,t,t,t,t	<img class = center src='/static/experiments/beast_fmri_test/images/B.png'></img>	89,71	2750.0	test	<img class = center src='/static/experiments/beast_fmri_test/images/redB.png'></img>	stop	2000.0	2.0	43.0	stop	non-target	B	89,Yellow Button	71,Green Button	650.0	750.0	2100.0	2000.0	0.0	1.0	750.0	0.0	stop_stim
197123.94463310001	519.05536689999997	n/a	-1	-1	2750	519.0553669	stim	stop-signal	94	312546	0.0-7.43-1.43	beast_fmri_test	313	310063,/,310743,/,311423,/,312102,/,312783,/	t,t,t,t,t	<img class = center src='/static/experiments/beast_fmri_test/images/B.png'></img>	89,71	2750.0	test	<img class = center src='/static/experiments/beast_fmri_test/images/redB.png'></img>	stop	2000.0	2.0	43.0	stop	non-target	B	89,Yellow Button	71,Green Button	650.0	750.0	2100.0	2000.0	0.0	1.0	750.0	0.0	ITI
198671	500	n/a	-1	-1	500	0.0	fixation	poldrack-single-stim	95	313574	0.0-7.44-0.44	beast_fmri_test	313	313463,/	t	<div class = centerbox><div class = fixation>+</div></div>	none	500.0	test	n/a	n/a	n/a	n/a	n/a	n/a	n/a	n/a	n/a	n/a	n/a	n/a	n/a	n/a	n/a	n/a	n/a	n/a	fixation
197993.28938959999	2750	n/a	1399	71	2750	678.7106104	stim	stop-signal	96	316325	0.0-7.44-1.44	beast_fmri_test	313	314143,/,314822,/,315503,/,316184,/,316863,/	t,t,t,t,t	<img class = center src='/static/experiments/beast_fmri_test/images/B.png'></img>	89,71	2750.0	test	<img class = center src='/static/experiments/beast_fmri_test/images/redB.png'></img>	go	1950.0	2.0	44.0	go	non-target	B	89,Yellow Button	71,Green Button	650.0	800.0	2100.0	1950.0	1.0	n/a	800.0	1.0	go_stim
200743.28938959999	678.71061039999995	n/a	1399	71	2750	678.7106104	stim	stop-signal	96	316325	0.0-7.44-1.44	beast_fmri_test	313	314143,/,314822,/,315503,/,316184,/,316863,/	t,t,t,t,t	<img class = center src='/static/experiments/beast_fmri_test/images/B.png'></img>	89,71	2750.0	test	<img class = center src='/static/experiments/beast_fmri_test/images/redB.png'></img>	go	1950.0	2.0	44.0	go	non-target	B	89,Yellow Button	71,Green Button	650.0	800.0	2100.0	1950.0	1.0	n/a	800.0	1.0	ITI
202608	500	n/a	-1	-1	500	0.0	fixation	poldrack-single-stim	97	317511	0.0-7.45-0.45	beast_fmri_test	313	n/a	n/a	<div class = centerbox><div class = fixation>+</div></div>	none	500.0	test	n/a	n/a	n/a	n/a	n/a	n/a	n/a	n/a	n/a	n/a	n/a	n/a	n/a	n/a	n/a	n/a	n/a	n/a	fixation
201762.80218479998	2750	n/a	1310	71	2750	846.1978152	stim	stop-signal	98	320262	0.0-7.45-1.45	beast_fmri_test	313	317542,/,318223,/,318902,/,319583,/,320262,/,320943,/	t,t,t,t,t,t	<img class = center src='/static/experiments/beast_fmri_test/images/V.png'></img>	89,71	2750.0	test	<img class = center src='/static/experiments/beast_fmri_test/images/redV.png'></img>	go	1950.0	2.0	45.0	go	non-target	V	89,Yellow Button	71,Green Button	650.0	800.0	2100.0	1950.0	1.0	n/a	800.0	1.0	go_stim
204512.80218479998	846.19781520000004	n/a	1310	71	2750	846.1978152	stim	stop-signal	98	320262	0.0-7.45-1.45	beast_fmri_test	313	317542,/,318223,/,318902,/,319583,/,320262,/,320943,/	t,t,t,t,t,t	<img class = center src='/static/experiments/beast_fmri_test/images/V.png'></img>	89,71	2750.0	test	<img class = center src='/static/experiments/beast_fmri_test/images/redV.png'></img>	go	1950.0	2.0	45.0	go	non-target	V	89,Yellow Button	71,Green Button	650.0	800.0	2100.0	1950.0	1.0	n/a	800.0	1.0	ITI
206714	500	n/a	-1	-1	500	0.0	fixation	poldrack-single-stim	99	321617	0.0-7.46-0.46	beast_fmri_test	313	n/a	n/a	<div class = centerbox><div class = fixation>+</div></div>	none	500.0	test	n/a	n/a	n/a	n/a	n/a	n/a	n/a	n/a	n/a	n/a	n/a	n/a	n/a	n/a	n/a	n/a	n/a	n/a	fixation
201716.0	2750	n/a	1327	71	2750	5000.0	stim	stop-signal	100	324369	0.0-7.46-1.46	beast_fmri_test	313	321624,/,322304,/,322983,/,323663,/,324343,/,325023,/,325703,/,326385,/,327063,/,327743,/,328423,/,329103,/	t,t,t,t,t,t,t,t,t,t,t,t	<img class = center src='/static/experiments/beast_fmri_test/images/T.png'></img>	89,71	2750.0	test	<img class = center src='/static/experiments/beast_fmri_test/images/redT.png'></img>	go	1950.0	2.0	46.0	go	non-target	T	89,Yellow Button	71,Green Button	650.0	800.0	2100.0	1950.0	1.0	n/a	800.0	1.0	go_stim
204466.0	5000.0	n/a	1327	71	2750	5000.0	stim	stop-signal	100	324369	0.0-7.46-1.46	beast_fmri_test	313	321624,/,322304,/,322983,/,323663,/,324343,/,325023,/,325703,/,326385,/,327063,/,327743,/,328423,/,329103,/	t,t,t,t,t,t,t,t,t,t,t,t	<img class = center src='/static/experiments/beast_fmri_test/images/T.png'></img>	89,71	2750.0	test	<img class = center src='/static/experiments/beast_fmri_test/images/redT.png'></img>	go	1950.0	2.0	46.0	go	non-target	T	89,Yellow Button	71,Green Button	650.0	800.0	2100.0	1950.0	1.0	n/a	800.0	1.0	ITI
229474	15000	n/a	-1	-1	15000	0.0	practice-no-stop-feedback	poldrack-single-stim	101	344377	0.0-8.0	beast_fmri_test	313	329783,/,330463,/,331143,/,331823,/,332503,/,333183,/,333863,/,334543,/,335223,/,335903,/,336583,/,337263,/,337943,/,338623,/,339303,/,339983,/,340663,/,341343,/,342023,/,342703,/,343383,/,344063,/	t,t,t,t,t,t,t,t,t,t,t,t,t,t,t,t,t,t,t,t,t,t	"<div class = ""centerbox""><p class = ""center-block-text"">Your delay is 2 trials.</p><p class = center-block-text>Please wait for the scanner to start the block</p></div>"	77	15000.0	n/a	n/a	n/a	n/a	n/a	n/a	n/a	n/a	n/a	n/a	n/a	n/a	n/a	n/a	n/a	n/a	n/a	n/a	n/a	practice-no-stop-feedback
229976	500	n/a	-1	-1	500	0.0	fixation	poldrack-single-stim	102	344879	0.0-9.0-0.0	beast_fmri_test	313	344743,/	t	<div class = centerbox><div class = fixation>+</div></div>	none	500.0	test	n/a	n/a	n/a	n/a	n/a	n/a	n/a	n/a	n/a	n/a	n/a	n/a	n/a	n/a	n/a	n/a	n/a	n/a	fixation
229131.94575740001	temp_go_duration	n/a	1547	71	2750	846.0542426	stim	stop-signal	103	347631	0.0-9.0-1.0	beast_fmri_test	313	345423,/,346103,/,346784,/,347463,/,348142,/	t,t,t,t,t	<img class = center src='/static/experiments/beast_fmri_test/images/D.png'></img>	89,71	2750.0	test	<img class = center src='/static/experiments/beast_fmri_test/images/redD.png'></img>	stop	-1.0	2.0	0.0	stop	temp-non-target	D	89,Yellow Button	71,Green Button	650.0	800.0	2100.0	1950.0	0.0	0.0	n/a	n/a	go_stim
temp-non-target	temp_stop_duration	n/a	1547	71	2750	846.0542426	stim	stop-signal	103	347631	0.0-9.0-1.0	beast_fmri_test	313	345423,/,346103,/,346784,/,347463,/,348142,/	t,t,t,t,t	<img class = center src='/static/experiments/beast_fmri_test/images/D.png'></img>	89,71	2750.0	test	<img class = center src='/static/experiments/beast_fmri_test/images/redD.png'></img>	stop	-1.0	2.0	0.0	stop	temp-non-target	D	89,Yellow Button	71,Green Button	650.0	800.0	2100.0	1950.0	0.0	0.0	n/a	n/a	stop_stim
231881.94575740001	846.05424260000007	n/a	1547	71	2750	846.0542426	stim	stop-signal	103	347631	0.0-9.0-1.0	beast_fmri_test	313	345423,/,346103,/,346784,/,347463,/,348142,/	t,t,t,t,t	<img class = center src='/static/experiments/beast_fmri_test/images/D.png'></img>	89,71	2750.0	test	<img class = center src='/static/experiments/beast_fmri_test/images/redD.png'></img>	stop	-1.0	2.0	0.0	stop	temp-non-target	D	89,Yellow Button	71,Green Button	650.0	800.0	2100.0	1950.0	0.0	0.0	n/a	n/a	ITI
234080	500	n/a	-1	-1	500	0.0	fixation	poldrack-single-stim	104	348983	0.0-9.1-0.1	beast_fmri_test	313	348823,/	t	<div class = centerbox><div class = fixation>+</div></div>	none	500.0	test	n/a	n/a	n/a	n/a	n/a	n/a	n/a	n/a	n/a	n/a	n/a	n/a	n/a	n/a	n/a	n/a	n/a	n/a	fixation
234051.45414903999	2750	n/a	1198	71	2750	30.54585096	stim	stop-signal	105	351735	0.0-9.1-1.1	beast_fmri_test	313	349503,/,350183,/,350863,/,351543,/	t,t,t,t	<img class = center src='/static/experiments/beast_fmri_test/images/D.png'></img>	89,71	2750.0	test	<img class = center src='/static/experiments/beast_fmri_test/images/redD.png'></img>	go	-1.0	2.0	1.0	go	temp-non-target	D	89,Yellow Button	71,Green Button	650.0	800.0	2100.0	1950.0	0.0	n/a	n/a	n/a	go_stim
236801.45414903999	30.545850959999999	n/a	1198	71	2750	30.54585096	stim	stop-signal	105	351735	0.0-9.1-1.1	beast_fmri_test	313	349503,/,350183,/,350863,/,351543,/	t,t,t,t	<img class = center src='/static/experiments/beast_fmri_test/images/D.png'></img>	89,71	2750.0	test	<img class = center src='/static/experiments/beast_fmri_test/images/redD.png'></img>	go	-1.0	2.0	1.0	go	temp-non-target	D	89,Yellow Button	71,Green Button	650.0	800.0	2100.0	1950.0	0.0	n/a	n/a	n/a	ITI
237369	500	n/a	-1	-1	500	0.0	fixation	poldrack-single-stim	106	352272	0.0-9.2-0.2	beast_fmri_test	313	352223,/	t	<div class = centerbox><div class = fixation>+</div></div>	none	500.0	test	n/a	n/a	n/a	n/a	n/a	n/a	n/a	n/a	n/a	n/a	n/a	n/a	n/a	n/a	n/a	n/a	n/a	n/a	fixation
236293.88894400001	2750	n/a	911	71	2750	1077.111056	stim	stop-signal	107	355024	0.0-9.2-1.2	beast_fmri_test	313	352902,/,353584,/,354263,/,354943,/,355623,/	t,t,t,t,t	<img class = center src='/static/experiments/beast_fmri_test/images/P.png'></img>	89,71	2750.0	test	<img class = center src='/static/experiments/beast_fmri_test/images/redP.png'></img>	go	1950.0	2.0	2.0	go	non-target	P	89,Yellow Button	71,Green Button	650.0	800.0	2100.0	1950.0	1.0	n/a	800.0	1.0	go_stim
239043.88894400001	1077.111056	n/a	911	71	2750	1077.111056	stim	stop-signal	107	355024	0.0-9.2-1.2	beast_fmri_test	313	352902,/,353584,/,354263,/,354943,/,355623,/	t,t,t,t,t	<img class = center src='/static/experiments/beast_fmri_test/images/P.png'></img>	89,71	2750.0	test	<img class = center src='/static/experiments/beast_fmri_test/images/redP.png'></img>	go	1950.0	2.0	2.0	go	non-target	P	89,Yellow Button	71,Green Button	650.0	800.0	2100.0	1950.0	1.0	n/a	800.0	1.0	ITI
241705	500	n/a	-1	-1	500	0.0	fixation	poldrack-single-stim	108	356608	0.0-9.3-0.3	beast_fmri_test	313	356303,/	t	<div class = centerbox><div class = fixation>+</div></div>	none	500.0	test	n/a	n/a	n/a	n/a	n/a	n/a	n/a	n/a	n/a	n/a	n/a	n/a	n/a	n/a	n/a	n/a	n/a	n/a	fixation
240073.019998	650.0	n/a	-1	-1	2750	1634.980002	stim	stop-signal	109	359361	0.0-9.3-1.3	beast_fmri_test	313	356984,/,357664,/,358344,/,359023,/,359703,/,360383,/	t,t,t,t,t,t	<img class = center src='/static/experiments/beast_fmri_test/images/D.png'></img>	89,71	2750.0	test	<img class = center src='/static/experiments/beast_fmri_test/images/redD.png'></img>	stop	2100.0	2.0	3.0	stop	target	D	89,Yellow Button	71,Green Button	650.0	800.0	2100.0	1950.0	0.0	1.0	650.0	0.0	go_stim
242173.019998	2100.0	n/a	-1	-1	2750	1634.980002	stim	stop-signal	109	359361	0.0-9.3-1.3	beast_fmri_test	313	356984,/,357664,/,358344,/,359023,/,359703,/,360383,/	t,t,t,t,t,t	<img class = center src='/static/experiments/beast_fmri_test/images/D.png'></img>	89,71	2750.0	test	<img class = center src='/static/experiments/beast_fmri_test/images/redD.png'></img>	stop	2100.0	2.0	3.0	stop	target	D	89,Yellow Button	71,Green Button	650.0	800.0	2100.0	1950.0	0.0	1.0	650.0	0.0	stop_stim
242823.019998	1634.980002	n/a	-1	-1	2750	1634.980002	stim	stop-signal	109	359361	0.0-9.3-1.3	beast_fmri_test	313	356984,/,357664,/,358344,/,359023,/,359703,/,360383,/	t,t,t,t,t,t	<img class = center src='/static/experiments/beast_fmri_test/images/D.png'></img>	89,71	2750.0	test	<img class = center src='/static/experiments/beast_fmri_test/images/redD.png'></img>	stop	2100.0	2.0	3.0	stop	target	D	89,Yellow Button	71,Green Button	650.0	800.0	2100.0	1950.0	0.0	1.0	650.0	0.0	ITI
246599	500	n/a	-1	-1	500	0.0	fixation	poldrack-single-stim	110	361502	0.0-9.4-0.4	beast_fmri_test	313	361064,/	t	<div class = centerbox><div class = fixation>+</div></div>	none	500.0	test	n/a	n/a	n/a	n/a	n/a	n/a	n/a	n/a	n/a	n/a	n/a	n/a	n/a	n/a	n/a	n/a	n/a	n/a	fixation
246448.39985370002	700.0	n/a	-1	-1	2750	153.6001463	stim	stop-signal	111	364255	0.0-9.4-1.4	beast_fmri_test	313	361743,/,362423,/,363103,/,363783,/	t,t,t,t	<img class = center src='/static/experiments/beast_fmri_test/images/P.png'></img>	89,71	2750.0	test	<img class = center src='/static/experiments/beast_fmri_test/images/redP.png'></img>	stop	2050.0	2.0	4.0	stop	target	P	89,Yellow Button	71,Green Button	700.0	800.0	2050.0	1950.0	0.0	1.0	700.0	0.0	go_stim
248498.39985370002	2050.0	n/a	-1	-1	2750	153.6001463	stim	stop-signal	111	364255	0.0-9.4-1.4	beast_fmri_test	313	361743,/,362423,/,363103,/,363783,/	t,t,t,t	<img class = center src='/static/experiments/beast_fmri_test/images/P.png'></img>	89,71	2750.0	test	<img class = center src='/static/experiments/beast_fmri_test/images/redP.png'></img>	stop	2050.0	2.0	4.0	stop	target	P	89,Yellow Button	71,Green Button	700.0	800.0	2050.0	1950.0	0.0	1.0	700.0	0.0	stop_stim
249198.39985370002	153.60014630000003	n/a	-1	-1	2750	153.6001463	stim	stop-signal	111	364255	0.0-9.4-1.4	beast_fmri_test	313	361743,/,362423,/,363103,/,363783,/	t,t,t,t	<img class = center src='/static/experiments/beast_fmri_test/images/P.png'></img>	89,71	2750.0	test	<img class = center src='/static/experiments/beast_fmri_test/images/redP.png'></img>	stop	2050.0	2.0	4.0	stop	target	P	89,Yellow Button	71,Green Button	700.0	800.0	2050.0	1950.0	0.0	1.0	700.0	0.0	ITI
250013	500	n/a	-1	-1	500	0.0	fixation	poldrack-single-stim	112	364916	0.0-9.5-0.5	beast_fmri_test	313	364463,/	t	<div class = centerbox><div class = fixation>+</div></div>	none	500.0	test	n/a	n/a	n/a	n/a	n/a	n/a	n/a	n/a	n/a	n/a	n/a	n/a	n/a	n/a	n/a	n/a	n/a	n/a	fixation
249938.87300192	800.0	n/a	835	71	2750	76.12699808	stim	stop-signal	113	367668	0.0-9.5-1.5	beast_fmri_test	313	365143,/,365823,/,366503,/,367184,/	t,t,t,t	<img class = center src='/static/experiments/beast_fmri_test/images/V.png'></img>	89,71	2750.0	test	<img class = center src='/static/experiments/beast_fmri_test/images/redV.png'></img>	stop	1950.0	2.0	5.0	stop	non-target	V	89,Yellow Button	71,Green Button	750.0	800.0	2050.0	1950.0	0.0	0.0	800.0	1.0	go_stim
251888.87300192	1950.0	n/a	835	71	2750	76.12699808	stim	stop-signal	113	367668	0.0-9.5-1.5	beast_fmri_test	313	365143,/,365823,/,366503,/,367184,/	t,t,t,t	<img class = center src='/static/experiments/beast_fmri_test/images/V.png'></img>	89,71	2750.0	test	<img class = center src='/static/experiments/beast_fmri_test/images/redV.png'></img>	stop	1950.0	2.0	5.0	stop	non-target	V	89,Yellow Button	71,Green Button	750.0	800.0	2050.0	1950.0	0.0	0.0	800.0	1.0	stop_stim
252688.87300192	76.126998080000007	n/a	835	71	2750	76.12699808	stim	stop-signal	113	367668	0.0-9.5-1.5	beast_fmri_test	313	365143,/,365823,/,366503,/,367184,/	t,t,t,t	<img class = center src='/static/experiments/beast_fmri_test/images/V.png'></img>	89,71	2750.0	test	<img class = center src='/static/experiments/beast_fmri_test/images/redV.png'></img>	stop	1950.0	2.0	5.0	stop	non-target	V	89,Yellow Button	71,Green Button	750.0	800.0	2050.0	1950.0	0.0	0.0	800.0	1.0	ITI
253348	500	n/a	-1	-1	500	0.0	fixation	poldrack-single-stim	114	368251	0.0-9.6-0.6	beast_fmri_test	313	367863,/	t	<div class = centerbox><div class = fixation>+</div></div>	none	500.0	test	n/a	n/a	n/a	n/a	n/a	n/a	n/a	n/a	n/a	n/a	n/a	n/a	n/a	n/a	n/a	n/a	n/a	n/a	fixation
252952.24480719998	2750	n/a	1325	89	2750	398.7551928	stim	stop-signal	115	371004	0.0-9.6-1.6	beast_fmri_test	313	368543,/,369223,/,369903,/,370583,/,371263,/	t,t,t,t,t	<img class = center src='/static/experiments/beast_fmri_test/images/P.png'></img>	89,71	2750.0	test	<img class = center src='/static/experiments/beast_fmri_test/images/redP.png'></img>	go	2000.0	2.0	6.0	go	target	P	89,Yellow Button	71,Green Button	750.0	750.0	2000.0	1950.0	1.0	n/a	750.0	1.0	go_stim
255702.24480719998	398.75519280000003	n/a	1325	89	2750	398.7551928	stim	stop-signal	115	371004	0.0-9.6-1.6	beast_fmri_test	313	368543,/,369223,/,369903,/,370583,/,371263,/	t,t,t,t,t	<img class = center src='/static/experiments/beast_fmri_test/images/P.png'></img>	89,71	2750.0	test	<img class = center src='/static/experiments/beast_fmri_test/images/redP.png'></img>	go	2000.0	2.0	6.0	go	target	P	89,Yellow Button	71,Green Button	750.0	750.0	2000.0	1950.0	1.0	n/a	750.0	1.0	ITI
257007	500	n/a	-1	-1	500	0.0	fixation	poldrack-single-stim	116	371910	0.0-9.7-0.7	beast_fmri_test	313	n/a	n/a	<div class = centerbox><div class = fixation>+</div></div>	none	500.0	test	n/a	n/a	n/a	n/a	n/a	n/a	n/a	n/a	n/a	n/a	n/a	n/a	n/a	n/a	n/a	n/a	n/a	n/a	fixation
255586.45229799999	2750	n/a	2190	71	2750	1422.547702	stim	stop-signal	117	374662	0.0-9.7-1.7	beast_fmri_test	313	371943,/,372623,/,373303,/,373983,/,374663,/,375343,/,376023,/	t,t,t,t,t,t,t	<img class = center src='/static/experiments/beast_fmri_test/images/T.png'></img>	89,71	2750.0	test	<img class = center src='/static/experiments/beast_fmri_test/images/redT.png'></img>	go	2000.0	2.0	7.0	go	non-target	T	89,Yellow Button	71,Green Button	750.0	750.0	2000.0	2000.0	1.0	n/a	750.0	1.0	go_stim
258336.45229799999	1422.5477019999998	n/a	2190	71	2750	1422.547702	stim	stop-signal	117	374662	0.0-9.7-1.7	beast_fmri_test	313	371943,/,372623,/,373303,/,373983,/,374663,/,375343,/,376023,/	t,t,t,t,t,t,t	<img class = center src='/static/experiments/beast_fmri_test/images/T.png'></img>	89,71	2750.0	test	<img class = center src='/static/experiments/beast_fmri_test/images/redT.png'></img>	go	2000.0	2.0	7.0	go	non-target	T	89,Yellow Button	71,Green Button	750.0	750.0	2000.0	2000.0	1.0	n/a	750.0	1.0	ITI
261690	500	n/a	-1	-1	500	0.0	fixation	poldrack-single-stim	118	376593	0.0-9.8-0.8	beast_fmri_test	313	n/a	n/a	<div class = centerbox><div class = fixation>+</div></div>	none	500.0	test	n/a	n/a	n/a	n/a	n/a	n/a	n/a	n/a	n/a	n/a	n/a	n/a	n/a	n/a	n/a	n/a	n/a	n/a	fixation
260477.59685999999	2750	n/a	1261	71	2750	1214.40314	stim	stop-signal	119	379345	0.0-9.8-1.8	beast_fmri_test	313	376703,/,377383,/,378063,/,378743,/,379423,/,380103,/	t,t,t,t,t,t	<img class = center src='/static/experiments/beast_fmri_test/images/V.png'></img>	89,71	2750.0	test	<img class = center src='/static/experiments/beast_fmri_test/images/redV.png'></img>	go	2000.0	2.0	8.0	go	non-target	V	89,Yellow Button	71,Green Button	750.0	750.0	2000.0	2000.0	1.0	n/a	750.0	1.0	go_stim
263227.59685999999	1214.4031400000001	n/a	1261	71	2750	1214.40314	stim	stop-signal	119	379345	0.0-9.8-1.8	beast_fmri_test	313	376703,/,377383,/,378063,/,378743,/,379423,/,380103,/	t,t,t,t,t,t	<img class = center src='/static/experiments/beast_fmri_test/images/V.png'></img>	89,71	2750.0	test	<img class = center src='/static/experiments/beast_fmri_test/images/redV.png'></img>	go	2000.0	2.0	8.0	go	non-target	V	89,Yellow Button	71,Green Button	750.0	750.0	2000.0	2000.0	1.0	n/a	750.0	1.0	ITI
266164	500	n/a	-1	-1	500	0.0	fixation	poldrack-single-stim	120	381067	0.0-9.9-0.9	beast_fmri_test	313	380783,/	t	<div class = centerbox><div class = fixation>+</div></div>	none	500.0	test	n/a	n/a	n/a	n/a	n/a	n/a	n/a	n/a	n/a	n/a	n/a	n/a	n/a	n/a	n/a	n/a	n/a	n/a	fixation
265814.37075260002	2750	n/a	1203	89	2750	350.6292474	stim	stop-signal	121	383818	0.0-9.9-1.9	beast_fmri_test	313	381463,/,382143,/,382823,/,383503,/	t,t,t,t	<img class = center src='/static/experiments/beast_fmri_test/images/T.png'></img>	89,71	2750.0	test	<img class = center src='/static/experiments/beast_fmri_test/images/redT.png'></img>	go	2000.0	2.0	9.0	go	target	T	89,Yellow Button	71,Green Button	750.0	750.0	2000.0	2000.0	1.0	n/a	750.0	1.0	go_stim
268564.37075260002	350.6292474	n/a	1203	89	2750	350.6292474	stim	stop-signal	121	383818	0.0-9.9-1.9	beast_fmri_test	313	381463,/,382143,/,382823,/,383503,/	t,t,t,t	<img class = center src='/static/experiments/beast_fmri_test/images/T.png'></img>	89,71	2750.0	test	<img class = center src='/static/experiments/beast_fmri_test/images/redT.png'></img>	go	2000.0	2.0	9.0	go	target	T	89,Yellow Button	71,Green Button	750.0	750.0	2000.0	2000.0	1.0	n/a	750.0	1.0	ITI
269774	500	n/a	-1	-1	500	0.0	fixation	poldrack-single-stim	122	384677	0.0-9.10-0.10	beast_fmri_test	313	384182,/	t	<div class = centerbox><div class = fixation>+</div></div>	none	500.0	test	n/a	n/a	n/a	n/a	n/a	n/a	n/a	n/a	n/a	n/a	n/a	n/a	n/a	n/a	n/a	n/a	n/a	n/a	fixation
269657.50970749999	2750	n/a	1495	71	2750	117.4902925	stim	stop-signal	123	387428	0.0-9.10-1.10	beast_fmri_test	313	384863,/,385542,/,386222,/,386902,/	t,t,t,t	<img class = center src='/static/experiments/beast_fmri_test/images/P.png'></img>	89,71	2750.0	test	<img class = center src='/static/experiments/beast_fmri_test/images/redP.png'></img>	go	2000.0	2.0	10.0	go	non-target	P	89,Yellow Button	71,Green Button	750.0	750.0	2000.0	2000.0	1.0	n/a	750.0	1.0	go_stim
272407.50970749999	117.49029250000001	n/a	1495	71	2750	117.4902925	stim	stop-signal	123	387428	0.0-9.10-1.10	beast_fmri_test	313	384863,/,385542,/,386222,/,386902,/	t,t,t,t	<img class = center src='/static/experiments/beast_fmri_test/images/P.png'></img>	89,71	2750.0	test	<img class = center src='/static/experiments/beast_fmri_test/images/redP.png'></img>	go	2000.0	2.0	10.0	go	non-target	P	89,Yellow Button	71,Green Button	750.0	750.0	2000.0	2000.0	1.0	n/a	750.0	1.0	ITI
273151	500	n/a	-1	-1	500	0.0	fixation	poldrack-single-stim	124	388054	0.0-9.11-0.11	beast_fmri_test	313	387585,/	t	<div class = centerbox><div class = fixation>+</div></div>	none	500.0	test	n/a	n/a	n/a	n/a	n/a	n/a	n/a	n/a	n/a	n/a	n/a	n/a	n/a	n/a	n/a	n/a	n/a	n/a	fixation
272965.9898401	2750	n/a	1216	71	2750	188.0101599	stim	stop-signal	125	390807	0.0-9.11-1.11	beast_fmri_test	313	388263,/,388943,/,389623,/,390303,/,390983,/	t,t,t,t,t	<img class = center src='/static/experiments/beast_fmri_test/images/B.png'></img>	89,71	2750.0	test	<img class = center src='/static/experiments/beast_fmri_test/images/redB.png'></img>	go	2000.0	2.0	11.0	go	non-target	B	89,Yellow Button	71,Green Button	750.0	750.0	2000.0	2000.0	1.0	n/a	750.0	1.0	go_stim
275715.9898401	188.01015990000002	n/a	1216	71	2750	188.0101599	stim	stop-signal	125	390807	0.0-9.11-1.11	beast_fmri_test	313	388263,/,388943,/,389623,/,390303,/,390983,/	t,t,t,t,t	<img class = center src='/static/experiments/beast_fmri_test/images/B.png'></img>	89,71	2750.0	test	<img class = center src='/static/experiments/beast_fmri_test/images/redB.png'></img>	go	2000.0	2.0	11.0	go	non-target	B	89,Yellow Button	71,Green Button	750.0	750.0	2000.0	2000.0	1.0	n/a	750.0	1.0	ITI
276599	500	n/a	-1	-1	500	0.0	fixation	poldrack-single-stim	126	391502	0.0-9.12-0.12	beast_fmri_test	313	n/a	n/a	<div class = centerbox><div class = fixation>+</div></div>	none	500.0	test	n/a	n/a	n/a	n/a	n/a	n/a	n/a	n/a	n/a	n/a	n/a	n/a	n/a	n/a	n/a	n/a	n/a	n/a	fixation
274504.83210599999	2750	n/a	1020	89	2750	2096.167894	stim	stop-signal	127	394254	0.0-9.12-1.12	beast_fmri_test	313	391664,/,392344,/,393023,/,393703,/,394383,/,395063,/,395743,/	t,t,t,t,t,t,t	<img class = center src='/static/experiments/beast_fmri_test/images/P.png'></img>	89,71	2750.0	test	<img class = center src='/static/experiments/beast_fmri_test/images/redP.png'></img>	go	2000.0	2.0	12.0	go	target	P	89,Yellow Button	71,Green Button	750.0	750.0	2000.0	2000.0	1.0	n/a	750.0	1.0	go_stim
277254.83210599999	2096.1678940000002	n/a	1020	89	2750	2096.167894	stim	stop-signal	127	394254	0.0-9.12-1.12	beast_fmri_test	313	391664,/,392344,/,393023,/,393703,/,394383,/,395063,/,395743,/	t,t,t,t,t,t,t	<img class = center src='/static/experiments/beast_fmri_test/images/P.png'></img>	89,71	2750.0	test	<img class = center src='/static/experiments/beast_fmri_test/images/redP.png'></img>	go	2000.0	2.0	12.0	go	target	P	89,Yellow Button	71,Green Button	750.0	750.0	2000.0	2000.0	1.0	n/a	750.0	1.0	ITI
281955	500	n/a	-1	-1	500	0.0	fixation	poldrack-single-stim	128	396858	0.0-9.13-0.13	beast_fmri_test	313	396423,/	t	<div class = centerbox><div class = fixation>+</div></div>	none	500.0	test	n/a	n/a	n/a	n/a	n/a	n/a	n/a	n/a	n/a	n/a	n/a	n/a	n/a	n/a	n/a	n/a	n/a	n/a	fixation
281195.30986610003	750.0	n/a	900	71	2750	761.6901339	stim	stop-signal	129	399610	0.0-9.13-1.13	beast_fmri_test	313	397103,/,397783,/,398463,/,399143,/,399823,/	t,t,t,t,t	<img class = center src='/static/experiments/beast_fmri_test/images/D.png'></img>	89,71	2750.0	test	<img class = center src='/static/experiments/beast_fmri_test/images/redD.png'></img>	stop	2000.0	2.0	13.0	stop	non-target	D	89,Yellow Button	71,Green Button	750.0	750.0	2000.0	2000.0	0.0	0.0	750.0	1.0	go_stim
283195.30986610003	2000.0	n/a	900	71	2750	761.6901339	stim	stop-signal	129	399610	0.0-9.13-1.13	beast_fmri_test	313	397103,/,397783,/,398463,/,399143,/,399823,/	t,t,t,t,t	<img class = center src='/static/experiments/beast_fmri_test/images/D.png'></img>	89,71	2750.0	test	<img class = center src='/static/experiments/beast_fmri_test/images/redD.png'></img>	stop	2000.0	2.0	13.0	stop	non-target	D	89,Yellow Button	71,Green Button	750.0	750.0	2000.0	2000.0	0.0	0.0	750.0	1.0	stop_stim
283945.30986610003	761.69013389999998	n/a	900	71	2750	761.6901339	stim	stop-signal	129	399610	0.0-9.13-1.13	beast_fmri_test	313	397103,/,397783,/,398463,/,399143,/,399823,/	t,t,t,t,t	<img class = center src='/static/experiments/beast_fmri_test/images/D.png'></img>	89,71	2750.0	test	<img class = center src='/static/experiments/beast_fmri_test/images/redD.png'></img>	stop	2000.0	2.0	13.0	stop	non-target	D	89,Yellow Button	71,Green Button	750.0	750.0	2000.0	2000.0	0.0	0.0	750.0	1.0	ITI
285977	500	n/a	-1	-1	500	0.0	fixation	poldrack-single-stim	130	400880	0.0-9.14-0.14	beast_fmri_test	313	400503,/	t	<div class = centerbox><div class = fixation>+</div></div>	none	500.0	test	n/a	n/a	n/a	n/a	n/a	n/a	n/a	n/a	n/a	n/a	n/a	n/a	n/a	n/a	n/a	n/a	n/a	n/a	fixation
285565.25634820003	2750	n/a	1648	89	2750	414.7436518	stim	stop-signal	131	403633	0.0-9.14-1.14	beast_fmri_test	313	401183,/,401863,/,402543,/,403223,/,403903,/	t,t,t,t,t	<img class = center src='/static/experiments/beast_fmri_test/images/P.png'></img>	89,71	2750.0	test	<img class = center src='/static/experiments/beast_fmri_test/images/redP.png'></img>	go	2000.0	2.0	14.0	go	target	P	89,Yellow Button	71,Green Button	750.0	700.0	2000.0	2000.0	1.0	n/a	750.0	1.0	go_stim
288315.25634820003	414.74365180000001	n/a	1648	89	2750	414.7436518	stim	stop-signal	131	403633	0.0-9.14-1.14	beast_fmri_test	313	401183,/,401863,/,402543,/,403223,/,403903,/	t,t,t,t,t	<img class = center src='/static/experiments/beast_fmri_test/images/P.png'></img>	89,71	2750.0	test	<img class = center src='/static/experiments/beast_fmri_test/images/redP.png'></img>	go	2000.0	2.0	14.0	go	target	P	89,Yellow Button	71,Green Button	750.0	700.0	2000.0	2000.0	1.0	n/a	750.0	1.0	ITI
289653	500	n/a	-1	-1	500	0.0	fixation	poldrack-single-stim	132	404556	0.0-9.15-0.15	beast_fmri_test	313	n/a	n/a	<div class = centerbox><div class = fixation>+</div></div>	none	500.0	test	n/a	n/a	n/a	n/a	n/a	n/a	n/a	n/a	n/a	n/a	n/a	n/a	n/a	n/a	n/a	n/a	n/a	n/a	fixation
288478.62587799999	700.0	n/a	-1	-1	2750	1176.374122	stim	stop-signal	133	407308	0.0-9.15-1.15	beast_fmri_test	313	404583,/,405263,/,405943,/,406623,/,407303,/,407984,/	t,t,t,t,t,t	<img class = center src='/static/experiments/beast_fmri_test/images/V.png'></img>	89,71	2750.0	test	<img class = center src='/static/experiments/beast_fmri_test/images/redV.png'></img>	stop	2050.0	2.0	15.0	stop	non-target	V	89,Yellow Button	71,Green Button	750.0	700.0	2000.0	2050.0	0.0	1.0	700.0	0.0	go_stim
290528.62587799999	2050.0	n/a	-1	-1	2750	1176.374122	stim	stop-signal	133	407308	0.0-9.15-1.15	beast_fmri_test	313	404583,/,405263,/,405943,/,406623,/,407303,/,407984,/	t,t,t,t,t,t	<img class = center src='/static/experiments/beast_fmri_test/images/V.png'></img>	89,71	2750.0	test	<img class = center src='/static/experiments/beast_fmri_test/images/redV.png'></img>	stop	2050.0	2.0	15.0	stop	non-target	V	89,Yellow Button	71,Green Button	750.0	700.0	2000.0	2050.0	0.0	1.0	700.0	0.0	stop_stim
291228.62587799999	1176.3741220000002	n/a	-1	-1	2750	1176.374122	stim	stop-signal	133	407308	0.0-9.15-1.15	beast_fmri_test	313	404583,/,405263,/,405943,/,406623,/,407303,/,407984,/	t,t,t,t,t,t	<img class = center src='/static/experiments/beast_fmri_test/images/V.png'></img>	89,71	2750.0	test	<img class = center src='/static/experiments/beast_fmri_test/images/redV.png'></img>	stop	2050.0	2.0	15.0	stop	non-target	V	89,Yellow Button	71,Green Button	750.0	700.0	2000.0	2050.0	0.0	1.0	700.0	0.0	ITI
294091	500	n/a	-1	-1	500	0.0	fixation	poldrack-single-stim	134	408994	0.0-9.16-0.16	beast_fmri_test	313	408663,/	t	<div class = centerbox><div class = fixation>+</div></div>	none	500.0	test	n/a	n/a	n/a	n/a	n/a	n/a	n/a	n/a	n/a	n/a	n/a	n/a	n/a	n/a	n/a	n/a	n/a	n/a	fixation
293898.57401889999	2750	n/a	1113	71	2750	193.4259811	stim	stop-signal	135	411745	0.0-9.16-1.16	beast_fmri_test	313	409343,/,410023,/,410703,/,411382,/	t,t,t,t	<img class = center src='/static/experiments/beast_fmri_test/images/B.png'></img>	89,71	2750.0	test	<img class = center src='/static/experiments/beast_fmri_test/images/redB.png'></img>	go	2000.0	2.0	16.0	go	non-target	B	89,Yellow Button	71,Green Button	750.0	750.0	2000.0	2000.0	1.0	n/a	750.0	1.0	go_stim
296648.57401889999	193.4259811	n/a	1113	71	2750	193.4259811	stim	stop-signal	135	411745	0.0-9.16-1.16	beast_fmri_test	313	409343,/,410023,/,410703,/,411382,/	t,t,t,t	<img class = center src='/static/experiments/beast_fmri_test/images/B.png'></img>	89,71	2750.0	test	<img class = center src='/static/experiments/beast_fmri_test/images/redB.png'></img>	go	2000.0	2.0	16.0	go	non-target	B	89,Yellow Button	71,Green Button	750.0	750.0	2000.0	2000.0	1.0	n/a	750.0	1.0	ITI
297544	500	n/a	-1	-1	500	0.0	fixation	poldrack-single-stim	136	412447	0.0-9.17-0.17	beast_fmri_test	313	412063,/	t	<div class = centerbox><div class = fixation>+</div></div>	none	500.0	test	n/a	n/a	n/a	n/a	n/a	n/a	n/a	n/a	n/a	n/a	n/a	n/a	n/a	n/a	n/a	n/a	n/a	n/a	fixation
297242.06892539997	750.0	n/a	-1	-1	2750	302.9310746	stim	stop-signal	137	415198	0.0-9.17-1.17	beast_fmri_test	313	412743,/,413423,/,414103,/,414782,/,415462,/	t,t,t,t,t	<img class = center src='/static/experiments/beast_fmri_test/images/V.png'></img>	89,71	2750.0	test	<img class = center src='/static/experiments/beast_fmri_test/images/redV.png'></img>	stop	2000.0	2.0	17.0	stop	target	V	89,Yellow Button	71,Green Button	750.0	750.0	2000.0	2000.0	0.0	1.0	750.0	0.0	go_stim
299242.06892539997	2000.0	n/a	-1	-1	2750	302.9310746	stim	stop-signal	137	415198	0.0-9.17-1.17	beast_fmri_test	313	412743,/,413423,/,414103,/,414782,/,415462,/	t,t,t,t,t	<img class = center src='/static/experiments/beast_fmri_test/images/V.png'></img>	89,71	2750.0	test	<img class = center src='/static/experiments/beast_fmri_test/images/redV.png'></img>	stop	2000.0	2.0	17.0	stop	target	V	89,Yellow Button	71,Green Button	750.0	750.0	2000.0	2000.0	0.0	1.0	750.0	0.0	stop_stim
299992.06892539997	302.93107460000004	n/a	-1	-1	2750	302.9310746	stim	stop-signal	137	415198	0.0-9.17-1.17	beast_fmri_test	313	412743,/,413423,/,414103,/,414782,/,415462,/	t,t,t,t,t	<img class = center src='/static/experiments/beast_fmri_test/images/V.png'></img>	89,71	2750.0	test	<img class = center src='/static/experiments/beast_fmri_test/images/redV.png'></img>	stop	2000.0	2.0	17.0	stop	target	V	89,Yellow Button	71,Green Button	750.0	750.0	2000.0	2000.0	0.0	1.0	750.0	0.0	ITI
301106	500	n/a	-1	-1	500	0.0	fixation	poldrack-single-stim	138	416009	0.0-9.18-0.18	beast_fmri_test	313	n/a	n/a	<div class = centerbox><div class = fixation>+</div></div>	none	500.0	test	n/a	n/a	n/a	n/a	n/a	n/a	n/a	n/a	n/a	n/a	n/a	n/a	n/a	n/a	n/a	n/a	n/a	n/a	fixation
300318.43025169999	2750	n/a	1375	89	2750	789.5697483	stim	stop-signal	139	418761	0.0-9.18-1.18	beast_fmri_test	313	416143,/,416823,/,417503,/,418183,/,418863,/,419543,/	t,t,t,t,t,t	<img class = center src='/static/experiments/beast_fmri_test/images/P.png'></img>	89,71	2750.0	test	<img class = center src='/static/experiments/beast_fmri_test/images/redP.png'></img>	go	2000.0	2.0	18.0	go	non-target	P	89,Yellow Button	71,Green Button	800.0	750.0	2000.0	2000.0	0.0	n/a	750.0	0.0	go_stim
303068.43025169999	789.5697482999999	n/a	1375	89	2750	789.5697483	stim	stop-signal	139	418761	0.0-9.18-1.18	beast_fmri_test	313	416143,/,416823,/,417503,/,418183,/,418863,/,419543,/	t,t,t,t,t,t	<img class = center src='/static/experiments/beast_fmri_test/images/P.png'></img>	89,71	2750.0	test	<img class = center src='/static/experiments/beast_fmri_test/images/redP.png'></img>	go	2000.0	2.0	18.0	go	non-target	P	89,Yellow Button	71,Green Button	800.0	750.0	2000.0	2000.0	0.0	n/a	750.0	0.0	ITI
305156	500	n/a	-1	-1	500	0.0	fixation	poldrack-single-stim	140	420059	0.0-9.19-0.19	beast_fmri_test	313	n/a	n/a	<div class = centerbox><div class = fixation>+</div></div>	none	500.0	test	n/a	n/a	n/a	n/a	n/a	n/a	n/a	n/a	n/a	n/a	n/a	n/a	n/a	n/a	n/a	n/a	n/a	n/a	fixation
304663.91700969997	2750	n/a	2686	71	2750	493.0829903	stim	stop-signal	141	422810	0.0-9.19-1.19	beast_fmri_test	313	420224,/,420904,/,421583,/,422263,/,422943,/	t,t,t,t,t	<img class = center src='/static/experiments/beast_fmri_test/images/D.png'></img>	89,71	2750.0	test	<img class = center src='/static/experiments/beast_fmri_test/images/redD.png'></img>	go	2000.0	2.0	19.0	go	non-target	D	89,Yellow Button	71,Green Button	800.0	750.0	2000.0	2000.0	1.0	n/a	750.0	1.0	go_stim
307413.91700969997	493.08299030000001	n/a	2686	71	2750	493.0829903	stim	stop-signal	141	422810	0.0-9.19-1.19	beast_fmri_test	313	420224,/,420904,/,421583,/,422263,/,422943,/	t,t,t,t,t	<img class = center src='/static/experiments/beast_fmri_test/images/D.png'></img>	89,71	2750.0	test	<img class = center src='/static/experiments/beast_fmri_test/images/redD.png'></img>	go	2000.0	2.0	19.0	go	non-target	D	89,Yellow Button	71,Green Button	800.0	750.0	2000.0	2000.0	1.0	n/a	750.0	1.0	ITI
308910	500	n/a	-1	-1	500	0.0	fixation	poldrack-single-stim	142	423813	0.0-9.20-0.20	beast_fmri_test	313	423623,/	t	<div class = centerbox><div class = fixation>+</div></div>	none	500.0	test	n/a	n/a	n/a	n/a	n/a	n/a	n/a	n/a	n/a	n/a	n/a	n/a	n/a	n/a	n/a	n/a	n/a	n/a	fixation
305972.71995200001	750.0	n/a	-1	-1	2750	2939.280048	stim	stop-signal	143	426565	0.0-9.20-1.20	beast_fmri_test	313	424303,/,424983,/,425663,/,426344,/,427023,/,427703,/,428384,/,429063,/	t,t,t,t,t,t,t,t	<img class = center src='/static/experiments/beast_fmri_test/images/V.png'></img>	89,71	2750.0	test	<img class = center src='/static/experiments/beast_fmri_test/images/redV.png'></img>	stop	2000.0	2.0	20.0	stop	non-target	V	89,Yellow Button	71,Green Button	800.0	750.0	2000.0	2000.0	0.0	1.0	750.0	0.0	go_stim
307972.71995200001	2000.0	n/a	-1	-1	2750	2939.280048	stim	stop-signal	143	426565	0.0-9.20-1.20	beast_fmri_test	313	424303,/,424983,/,425663,/,426344,/,427023,/,427703,/,428384,/,429063,/	t,t,t,t,t,t,t,t	<img class = center src='/static/experiments/beast_fmri_test/images/V.png'></img>	89,71	2750.0	test	<img class = center src='/static/experiments/beast_fmri_test/images/redV.png'></img>	stop	2000.0	2.0	20.0	stop	non-target	V	89,Yellow Button	71,Green Button	800.0	750.0	2000.0	2000.0	0.0	1.0	750.0	0.0	stop_stim
308722.71995200001	2939.2800480000001	n/a	-1	-1	2750	2939.280048	stim	stop-signal	143	426565	0.0-9.20-1.20	beast_fmri_test	313	424303,/,424983,/,425663,/,426344,/,427023,/,427703,/,428384,/,429063,/	t,t,t,t,t,t,t,t	<img class = center src='/static/experiments/beast_fmri_test/images/V.png'></img>	89,71	2750.0	test	<img class = center src='/static/experiments/beast_fmri_test/images/redV.png'></img>	stop	2000.0	2.0	20.0	stop	non-target	V	89,Yellow Button	71,Green Button	800.0	750.0	2000.0	2000.0	0.0	1.0	750.0	0.0	ITI
315110	500	n/a	-1	-1	500	0.0	fixation	poldrack-single-stim	144	430013	0.0-9.21-0.21	beast_fmri_test	313	429743,/	t	<div class = centerbox><div class = fixation>+</div></div>	none	500.0	test	n/a	n/a	n/a	n/a	n/a	n/a	n/a	n/a	n/a	n/a	n/a	n/a	n/a	n/a	n/a	n/a	n/a	n/a	fixation
314908.83475699998	2750	n/a	588	71	2750	202.165243	stim	stop-signal	145	432764	0.0-9.21-1.21	beast_fmri_test	313	430423,/,431103,/,431783,/,432463,/	t,t,t,t	<img class = center src='/static/experiments/beast_fmri_test/images/B.png'></img>	89,71	2750.0	test	<img class = center src='/static/experiments/beast_fmri_test/images/redB.png'></img>	go	1950.0	2.0	21.0	go	non-target	B	89,Yellow Button	71,Green Button	800.0	800.0	2000.0	1950.0	1.0	n/a	800.0	1.0	go_stim
317658.83475699998	202.165243	n/a	588	71	2750	202.165243	stim	stop-signal	145	432764	0.0-9.21-1.21	beast_fmri_test	313	430423,/,431103,/,431783,/,432463,/	t,t,t,t	<img class = center src='/static/experiments/beast_fmri_test/images/B.png'></img>	89,71	2750.0	test	<img class = center src='/static/experiments/beast_fmri_test/images/redB.png'></img>	go	1950.0	2.0	21.0	go	non-target	B	89,Yellow Button	71,Green Button	800.0	800.0	2000.0	1950.0	1.0	n/a	800.0	1.0	ITI
318572	500	n/a	-1	-1	500	0.0	fixation	poldrack-single-stim	146	433475	0.0-9.22-0.22	beast_fmri_test	313	433143,/	t	<div class = centerbox><div class = fixation>+</div></div>	none	500.0	test	n/a	n/a	n/a	n/a	n/a	n/a	n/a	n/a	n/a	n/a	n/a	n/a	n/a	n/a	n/a	n/a	n/a	n/a	fixation
318414.22128200001	2750	n/a	1006	89	2750	158.778718	stim	stop-signal	147	436226	0.0-9.22-1.22	beast_fmri_test	313	433823,/,434503,/,435183,/,435863,/	t,t,t,t	<img class = center src='/static/experiments/beast_fmri_test/images/V.png'></img>	89,71	2750.0	test	<img class = center src='/static/experiments/beast_fmri_test/images/redV.png'></img>	go	1950.0	2.0	22.0	go	target	V	89,Yellow Button	71,Green Button	800.0	800.0	1950.0	1950.0	1.0	n/a	800.0	1.0	go_stim
321164.22128200001	158.778718	n/a	1006	89	2750	158.778718	stim	stop-signal	147	436226	0.0-9.22-1.22	beast_fmri_test	313	433823,/,434503,/,435183,/,435863,/	t,t,t,t	<img class = center src='/static/experiments/beast_fmri_test/images/V.png'></img>	89,71	2750.0	test	<img class = center src='/static/experiments/beast_fmri_test/images/redV.png'></img>	go	1950.0	2.0	22.0	go	target	V	89,Yellow Button	71,Green Button	800.0	800.0	1950.0	1950.0	1.0	n/a	800.0	1.0	ITI
321992	500	n/a	-1	-1	500	0.0	fixation	poldrack-single-stim	148	436895	0.0-9.23-0.23	beast_fmri_test	313	436543,/	t	<div class = centerbox><div class = fixation>+</div></div>	none	500.0	test	n/a	n/a	n/a	n/a	n/a	n/a	n/a	n/a	n/a	n/a	n/a	n/a	n/a	n/a	n/a	n/a	n/a	n/a	fixation
