onset	duration	text	rt	key_press	block_duration	timing_post_trial	trial_id	trial_type	trial_index	time_elapsed	internal_node_id	exp_id	subject_id	trigger_times	triggers	stimulus	possible_responses	stim_duration	exp_stage	SS_stimulus	SS_trial_type	SS_duration	load	trial_num	stop_trial_type	adaptive_trial_type	stim	yes_response_key	no_response_key	SSD_target	SSD_non_target	SSTarget	SSNonTarget	go_acc	stop_acc	SS_delay	adaptive_acc	new_trial_type
test	10880	n/a	-1	-1	10880	0.0	practice-no-stop-feedback	poldrack-single-stim	198	605686	0.0-12.0	beast_fmri_test	313	594806,/,595485,/,596165,/,596845,/,597525,/,598205,/,598885,/,599565,/,600245,/,600925,/,601605,/,602387,/,602965,/,603645,/,604325,/,605005,/,605685,/	t,t,t,t,t,t,t,t,t,t,t,t,t,t,t,t,t	"<div class = ""centerbox""><p class = ""center-block-text"">Your delay is 2 trials.</p><p class = center-block-text>Please wait for the scanner to start the block</p></div>"	77	10880.0	n/a	n/a	n/a	n/a	n/a	n/a	n/a	n/a	n/a	n/a	n/a	n/a	n/a	n/a	n/a	n/a	n/a	n/a	n/a	start_functional_block
11383	500	n/a	-1	-1	500	0.0	fixation	poldrack-single-stim	199	606189	0.0-13.0-0.0	beast_fmri_test	313	n/a	n/a	<div class = centerbox><div class = fixation>+</div></div>	none	500.0	test	n/a	n/a	n/a	n/a	n/a	n/a	n/a	n/a	n/a	n/a	n/a	n/a	n/a	n/a	n/a	n/a	n/a	n/a	fixation
8717.6056279999902	temp_go_duration	n/a	1327	71	2750	2666.394372	stim	stop-signal	200	608940	0.0-13.0-1.0	beast_fmri_test	313	606365,/,607045,/,607725,/,608405,/,609085,/,609765,/,610444,/,611125,/	t,t,t,t,t,t,t,t	<img class = center src='/static/experiments/beast_fmri_test/images/V.png'></img>	89,71	2750.0	test	<img class = center src='/static/experiments/beast_fmri_test/images/redV.png'></img>	stop	-1.0	2.0	0.0	stop	temp-non-target	V	89,Yellow Button	71,Green Button	800.0	700.0	1950.0	2100.0	0.0	0.0	n/a	n/a	go_stim
temp-non-target	temp_stop_duration	n/a	1327	71	2750	2666.394372	stim	stop-signal	200	608940	0.0-13.0-1.0	beast_fmri_test	313	606365,/,607045,/,607725,/,608405,/,609085,/,609765,/,610444,/,611125,/	t,t,t,t,t,t,t,t	<img class = center src='/static/experiments/beast_fmri_test/images/V.png'></img>	89,71	2750.0	test	<img class = center src='/static/experiments/beast_fmri_test/images/redV.png'></img>	stop	-1.0	2.0	0.0	stop	temp-non-target	V	89,Yellow Button	71,Green Button	800.0	700.0	1950.0	2100.0	0.0	0.0	n/a	n/a	stop_stim
11467.60562799999	2666.3943719999997	n/a	1327	71	2750	2666.394372	stim	stop-signal	200	608940	0.0-13.0-1.0	beast_fmri_test	313	606365,/,607045,/,607725,/,608405,/,609085,/,609765,/,610444,/,611125,/	t,t,t,t,t,t,t,t	<img class = center src='/static/experiments/beast_fmri_test/images/V.png'></img>	89,71	2750.0	test	<img class = center src='/static/experiments/beast_fmri_test/images/redV.png'></img>	stop	-1.0	2.0	0.0	stop	temp-non-target	V	89,Yellow Button	71,Green Button	800.0	700.0	1950.0	2100.0	0.0	0.0	n/a	n/a	ITI
17310	500	n/a	-1	-1	500	0.0	fixation	poldrack-single-stim	201	612116	0.0-13.1-0.1	beast_fmri_test	313	611805,/	t	<div class = centerbox><div class = fixation>+</div></div>	none	500.0	test	n/a	n/a	n/a	n/a	n/a	n/a	n/a	n/a	n/a	n/a	n/a	n/a	n/a	n/a	n/a	n/a	n/a	n/a	fixation
14838.787473000004	2750	n/a	989	71	2750	2472.212527	stim	stop-signal	202	614867	0.0-13.1-1.1	beast_fmri_test	313	612485,/,613165,/,613846,/,614526,/,615206,/,615885,/,616565,/,617245,/	t,t,t,t,t,t,t,t	<img class = center src='/static/experiments/beast_fmri_test/images/V.png'></img>	89,71	2750.0	test	<img class = center src='/static/experiments/beast_fmri_test/images/redV.png'></img>	go	-1.0	2.0	1.0	go	temp-non-target	V	89,Yellow Button	71,Green Button	800.0	700.0	1950.0	2100.0	0.0	n/a	n/a	n/a	go_stim
17588.787473000004	2472.2125270000001	n/a	989	71	2750	2472.212527	stim	stop-signal	202	614867	0.0-13.1-1.1	beast_fmri_test	313	612485,/,613165,/,613846,/,614526,/,615206,/,615885,/,616565,/,617245,/	t,t,t,t,t,t,t,t	<img class = center src='/static/experiments/beast_fmri_test/images/V.png'></img>	89,71	2750.0	test	<img class = center src='/static/experiments/beast_fmri_test/images/redV.png'></img>	go	-1.0	2.0	1.0	go	temp-non-target	V	89,Yellow Button	71,Green Button	800.0	700.0	1950.0	2100.0	0.0	n/a	n/a	n/a	ITI
23045	500	n/a	-1	-1	500	0.0	fixation	poldrack-single-stim	203	617851	0.0-13.2-0.2	beast_fmri_test	313	n/a	n/a	<div class = centerbox><div class = fixation>+</div></div>	none	500.0	test	n/a	n/a	n/a	n/a	n/a	n/a	n/a	n/a	n/a	n/a	n/a	n/a	n/a	n/a	n/a	n/a	n/a	n/a	fixation
21845.228233000031	700.0	n/a	-1	-1	2750	1201.771767	stim	stop-signal	204	620603	0.0-13.2-1.2	beast_fmri_test	313	617925,/,618605,/,619285,/,619966,/,620645,/,621325,/	t,t,t,t,t,t	<img class = center src='/static/experiments/beast_fmri_test/images/T.png'></img>	89,71	2750.0	test	<img class = center src='/static/experiments/beast_fmri_test/images/redT.png'></img>	stop	2050.0	2.0	2.0	stop	non-target	T	89,Yellow Button	71,Green Button	800.0	700.0	1950.0	2050.0	0.0	1.0	700.0	0.0	go_stim
23895.228233000031	2050.0	n/a	-1	-1	2750	1201.771767	stim	stop-signal	204	620603	0.0-13.2-1.2	beast_fmri_test	313	617925,/,618605,/,619285,/,619966,/,620645,/,621325,/	t,t,t,t,t,t	<img class = center src='/static/experiments/beast_fmri_test/images/T.png'></img>	89,71	2750.0	test	<img class = center src='/static/experiments/beast_fmri_test/images/redT.png'></img>	stop	2050.0	2.0	2.0	stop	non-target	T	89,Yellow Button	71,Green Button	800.0	700.0	1950.0	2050.0	0.0	1.0	700.0	0.0	stop_stim
24595.228233000031	1201.771767	n/a	-1	-1	2750	1201.771767	stim	stop-signal	204	620603	0.0-13.2-1.2	beast_fmri_test	313	617925,/,618605,/,619285,/,619966,/,620645,/,621325,/	t,t,t,t,t,t	<img class = center src='/static/experiments/beast_fmri_test/images/T.png'></img>	89,71	2750.0	test	<img class = center src='/static/experiments/beast_fmri_test/images/redT.png'></img>	stop	2050.0	2.0	2.0	stop	non-target	T	89,Yellow Button	71,Green Button	800.0	700.0	1950.0	2050.0	0.0	1.0	700.0	0.0	ITI
27510	500	n/a	-1	-1	500	0.0	fixation	poldrack-single-stim	205	622316	0.0-13.3-0.3	beast_fmri_test	313	622005,/	t	<div class = centerbox><div class = fixation>+</div></div>	none	500.0	test	n/a	n/a	n/a	n/a	n/a	n/a	n/a	n/a	n/a	n/a	n/a	n/a	n/a	n/a	n/a	n/a	n/a	n/a	fixation
26946.278692099964	2750	n/a	1189	71	2750	564.7213079	stim	stop-signal	206	625067	0.0-13.3-1.3	beast_fmri_test	313	622686,/,623366,/,624045,/,624725,/,625405,/	t,t,t,t,t	<img class = center src='/static/experiments/beast_fmri_test/images/P.png'></img>	89,71	2750.0	test	<img class = center src='/static/experiments/beast_fmri_test/images/redP.png'></img>	go	2000.0	2.0	3.0	go	non-target	P	89,Yellow Button	71,Green Button	800.0	750.0	1950.0	2000.0	1.0	n/a	750.0	1.0	go_stim
29696.278692099964	564.72130789999994	n/a	1189	71	2750	564.7213079	stim	stop-signal	206	625067	0.0-13.3-1.3	beast_fmri_test	313	622686,/,623366,/,624045,/,624725,/,625405,/	t,t,t,t,t	<img class = center src='/static/experiments/beast_fmri_test/images/P.png'></img>	89,71	2750.0	test	<img class = center src='/static/experiments/beast_fmri_test/images/redP.png'></img>	go	2000.0	2.0	3.0	go	non-target	P	89,Yellow Button	71,Green Button	800.0	750.0	1950.0	2000.0	1.0	n/a	750.0	1.0	ITI
31337	500	n/a	-1	-1	500	0.0	fixation	poldrack-single-stim	207	626143	0.0-13.4-0.4	beast_fmri_test	313	626085,/	t	<div class = centerbox><div class = fixation>+</div></div>	none	500.0	test	n/a	n/a	n/a	n/a	n/a	n/a	n/a	n/a	n/a	n/a	n/a	n/a	n/a	n/a	n/a	n/a	n/a	n/a	fixation
31173.19192709995	2750	n/a	1359	71	2750	165.8080729	stim	stop-signal	208	628895	0.0-13.4-1.4	beast_fmri_test	313	626765,/,627446,/,628125,/,628805,/	t,t,t,t	<img class = center src='/static/experiments/beast_fmri_test/images/B.png'></img>	89,71	2750.0	test	<img class = center src='/static/experiments/beast_fmri_test/images/redB.png'></img>	go	2000.0	2.0	4.0	go	non-target	B	89,Yellow Button	71,Green Button	800.0	750.0	1950.0	2000.0	1.0	n/a	750.0	1.0	go_stim
33923.19192709995	165.80807290000001	n/a	1359	71	2750	165.8080729	stim	stop-signal	208	628895	0.0-13.4-1.4	beast_fmri_test	313	626765,/,627446,/,628125,/,628805,/	t,t,t,t	<img class = center src='/static/experiments/beast_fmri_test/images/B.png'></img>	89,71	2750.0	test	<img class = center src='/static/experiments/beast_fmri_test/images/redB.png'></img>	go	2000.0	2.0	4.0	go	non-target	B	89,Yellow Button	71,Green Button	800.0	750.0	1950.0	2000.0	1.0	n/a	750.0	1.0	ITI
34764	500	n/a	-1	-1	500	0.0	fixation	poldrack-single-stim	209	629570	0.0-13.5-0.5	beast_fmri_test	313	629485,/	t	<div class = centerbox><div class = fixation>+</div></div>	none	500.0	test	n/a	n/a	n/a	n/a	n/a	n/a	n/a	n/a	n/a	n/a	n/a	n/a	n/a	n/a	n/a	n/a	n/a	n/a	fixation
34156.285487300018	800.0	n/a	-1	-1	2750	608.7145127	stim	stop-signal	210	632321	0.0-13.5-1.5	beast_fmri_test	313	630165,/,630845,/,631526,/,632205,/,632886,/	t,t,t,t,t	<img class = center src='/static/experiments/beast_fmri_test/images/P.png'></img>	89,71	2750.0	test	<img class = center src='/static/experiments/beast_fmri_test/images/redP.png'></img>	stop	1950.0	2.0	5.0	stop	target	P	89,Yellow Button	71,Green Button	800.0	750.0	1950.0	2000.0	0.0	1.0	800.0	0.0	go_stim
36106.285487300018	1950.0	n/a	-1	-1	2750	608.7145127	stim	stop-signal	210	632321	0.0-13.5-1.5	beast_fmri_test	313	630165,/,630845,/,631526,/,632205,/,632886,/	t,t,t,t,t	<img class = center src='/static/experiments/beast_fmri_test/images/P.png'></img>	89,71	2750.0	test	<img class = center src='/static/experiments/beast_fmri_test/images/redP.png'></img>	stop	1950.0	2.0	5.0	stop	target	P	89,Yellow Button	71,Green Button	800.0	750.0	1950.0	2000.0	0.0	1.0	800.0	0.0	stop_stim
36906.285487300018	608.7145127	n/a	-1	-1	2750	608.7145127	stim	stop-signal	210	632321	0.0-13.5-1.5	beast_fmri_test	313	630165,/,630845,/,631526,/,632205,/,632886,/	t,t,t,t,t	<img class = center src='/static/experiments/beast_fmri_test/images/P.png'></img>	89,71	2750.0	test	<img class = center src='/static/experiments/beast_fmri_test/images/redP.png'></img>	stop	1950.0	2.0	5.0	stop	target	P	89,Yellow Button	71,Green Button	800.0	750.0	1950.0	2000.0	0.0	1.0	800.0	0.0	ITI
38632	500	n/a	-1	-1	500	0.0	fixation	poldrack-single-stim	211	633438	0.0-13.6-0.6	beast_fmri_test	313	n/a	n/a	<div class = centerbox><div class = fixation>+</div></div>	none	500.0	test	n/a	n/a	n/a	n/a	n/a	n/a	n/a	n/a	n/a	n/a	n/a	n/a	n/a	n/a	n/a	n/a	n/a	n/a	fixation
36362.017501999973	2750	n/a	1301	71	2750	2272.982498	stim	stop-signal	212	636191	0.0-13.6-1.6	beast_fmri_test	313	633565,/,634245,/,634925,/,635605,/,636285,/,636965,/,637645,/,638325,/	t,t,t,t,t,t,t,t	<img class = center src='/static/experiments/beast_fmri_test/images/D.png'></img>	89,71	2750.0	test	<img class = center src='/static/experiments/beast_fmri_test/images/redD.png'></img>	go	2000.0	2.0	6.0	go	non-target	D	89,Yellow Button	71,Green Button	850.0	750.0	1950.0	2000.0	1.0	n/a	750.0	1.0	go_stim
39112.017501999973	2272.9824979999999	n/a	1301	71	2750	2272.982498	stim	stop-signal	212	636191	0.0-13.6-1.6	beast_fmri_test	313	633565,/,634245,/,634925,/,635605,/,636285,/,636965,/,637645,/,638325,/	t,t,t,t,t,t,t,t	<img class = center src='/static/experiments/beast_fmri_test/images/D.png'></img>	89,71	2750.0	test	<img class = center src='/static/experiments/beast_fmri_test/images/redD.png'></img>	go	2000.0	2.0	6.0	go	non-target	D	89,Yellow Button	71,Green Button	850.0	750.0	1950.0	2000.0	1.0	n/a	750.0	1.0	ITI
44168	500	n/a	-1	-1	500	0.0	fixation	poldrack-single-stim	213	638974	0.0-13.7-0.7	beast_fmri_test	313	n/a	n/a	<div class = centerbox><div class = fixation>+</div></div>	none	500.0	test	n/a	n/a	n/a	n/a	n/a	n/a	n/a	n/a	n/a	n/a	n/a	n/a	n/a	n/a	n/a	n/a	n/a	n/a	fixation
44118.011112589971	750.0	n/a	-1	-1	2750	50.98888741	stim	stop-signal	214	641725	0.0-13.7-1.7	beast_fmri_test	313	639005,/,639685,/,640365,/,641045,/,641725,/	t,t,t,t,t	<img class = center src='/static/experiments/beast_fmri_test/images/T.png'></img>	89,71	2750.0	test	<img class = center src='/static/experiments/beast_fmri_test/images/redT.png'></img>	stop	2000.0	2.0	7.0	stop	non-target	T	89,Yellow Button	71,Green Button	850.0	750.0	1950.0	2000.0	0.0	1.0	750.0	0.0	go_stim
46118.011112589971	2000.0	n/a	-1	-1	2750	50.98888741	stim	stop-signal	214	641725	0.0-13.7-1.7	beast_fmri_test	313	639005,/,639685,/,640365,/,641045,/,641725,/	t,t,t,t,t	<img class = center src='/static/experiments/beast_fmri_test/images/T.png'></img>	89,71	2750.0	test	<img class = center src='/static/experiments/beast_fmri_test/images/redT.png'></img>	stop	2000.0	2.0	7.0	stop	non-target	T	89,Yellow Button	71,Green Button	850.0	750.0	1950.0	2000.0	0.0	1.0	750.0	0.0	stop_stim
46868.011112589971	50.988887409999997	n/a	-1	-1	2750	50.98888741	stim	stop-signal	214	641725	0.0-13.7-1.7	beast_fmri_test	313	639005,/,639685,/,640365,/,641045,/,641725,/	t,t,t,t,t	<img class = center src='/static/experiments/beast_fmri_test/images/T.png'></img>	89,71	2750.0	test	<img class = center src='/static/experiments/beast_fmri_test/images/redT.png'></img>	stop	2000.0	2.0	7.0	stop	non-target	T	89,Yellow Button	71,Green Button	850.0	750.0	1950.0	2000.0	0.0	1.0	750.0	0.0	ITI
47482	500	n/a	-1	-1	500	0.0	fixation	poldrack-single-stim	215	642288	0.0-13.8-0.8	beast_fmri_test	313	n/a	n/a	<div class = centerbox><div class = fixation>+</div></div>	none	500.0	test	n/a	n/a	n/a	n/a	n/a	n/a	n/a	n/a	n/a	n/a	n/a	n/a	n/a	n/a	n/a	n/a	n/a	n/a	fixation
45062.216379999998	2750	n/a	1732	71	2750	2421.78362	stim	stop-signal	216	645040	0.0-13.8-1.8	beast_fmri_test	313	642405,/,643086,/,643765,/,644444,/,645124,/,645804,/,646484,/,647165,/	t,t,t,t,t,t,t,t	<img class = center src='/static/experiments/beast_fmri_test/images/T.png'></img>	89,71	2750.0	test	<img class = center src='/static/experiments/beast_fmri_test/images/redT.png'></img>	go	1950.0	2.0	8.0	go	non-target	T	89,Yellow Button	71,Green Button	850.0	800.0	1950.0	1950.0	1.0	n/a	800.0	1.0	go_stim
47812.216379999998	2421.7836199999997	n/a	1732	71	2750	2421.78362	stim	stop-signal	216	645040	0.0-13.8-1.8	beast_fmri_test	313	642405,/,643086,/,643765,/,644444,/,645124,/,645804,/,646484,/,647165,/	t,t,t,t,t,t,t,t	<img class = center src='/static/experiments/beast_fmri_test/images/T.png'></img>	89,71	2750.0	test	<img class = center src='/static/experiments/beast_fmri_test/images/redT.png'></img>	go	1950.0	2.0	8.0	go	non-target	T	89,Yellow Button	71,Green Button	850.0	800.0	1950.0	1950.0	1.0	n/a	800.0	1.0	ITI
53168	500	n/a	-1	-1	500	0.0	fixation	poldrack-single-stim	217	647974	0.0-13.9-0.9	beast_fmri_test	313	647845,/	t	<div class = centerbox><div class = fixation>+</div></div>	none	500.0	test	n/a	n/a	n/a	n/a	n/a	n/a	n/a	n/a	n/a	n/a	n/a	n/a	n/a	n/a	n/a	n/a	n/a	n/a	fixation
52883.583883799962	2750	n/a	1076	71	2750	286.4161162	stim	stop-signal	218	650726	0.0-13.9-1.9	beast_fmri_test	313	648526,/,649205,/,649886,/,650566,/	t,t,t,t	<img class = center src='/static/experiments/beast_fmri_test/images/B.png'></img>	89,71	2750.0	test	<img class = center src='/static/experiments/beast_fmri_test/images/redB.png'></img>	go	1950.0	2.0	9.0	go	non-target	B	89,Yellow Button	71,Green Button	850.0	800.0	1950.0	1950.0	1.0	n/a	800.0	1.0	go_stim
55633.583883799962	286.41611619999998	n/a	1076	71	2750	286.4161162	stim	stop-signal	218	650726	0.0-13.9-1.9	beast_fmri_test	313	648526,/,649205,/,649886,/,650566,/	t,t,t,t	<img class = center src='/static/experiments/beast_fmri_test/images/B.png'></img>	89,71	2750.0	test	<img class = center src='/static/experiments/beast_fmri_test/images/redB.png'></img>	go	1950.0	2.0	9.0	go	non-target	B	89,Yellow Button	71,Green Button	850.0	800.0	1950.0	1950.0	1.0	n/a	800.0	1.0	ITI
56718	500	n/a	-1	-1	500	0.0	fixation	poldrack-single-stim	219	651524	0.0-13.10-0.10	beast_fmri_test	313	651245,/	t	<div class = centerbox><div class = fixation>+</div></div>	none	500.0	test	n/a	n/a	n/a	n/a	n/a	n/a	n/a	n/a	n/a	n/a	n/a	n/a	n/a	n/a	n/a	n/a	n/a	n/a	fixation
54399.475106999977	2750	n/a	1931	71	2750	2320.524893	stim	stop-signal	220	654276	0.0-13.10-1.10	beast_fmri_test	313	651926,/,652606,/,653287,/,653965,/,654646,/,655325,/,656005,/	t,t,t,t,t,t,t	<img class = center src='/static/experiments/beast_fmri_test/images/P.png'></img>	89,71	2750.0	test	<img class = center src='/static/experiments/beast_fmri_test/images/redP.png'></img>	go	1950.0	2.0	10.0	go	non-target	P	89,Yellow Button	71,Green Button	850.0	800.0	1950.0	1950.0	1.0	n/a	800.0	1.0	go_stim
57149.475106999977	2320.5248929999998	n/a	1931	71	2750	2320.524893	stim	stop-signal	220	654276	0.0-13.10-1.10	beast_fmri_test	313	651926,/,652606,/,653287,/,653965,/,654646,/,655325,/,656005,/	t,t,t,t,t,t,t	<img class = center src='/static/experiments/beast_fmri_test/images/P.png'></img>	89,71	2750.0	test	<img class = center src='/static/experiments/beast_fmri_test/images/redP.png'></img>	go	1950.0	2.0	10.0	go	non-target	P	89,Yellow Button	71,Green Button	850.0	800.0	1950.0	1950.0	1.0	n/a	800.0	1.0	ITI
62300	500	n/a	-1	-1	500	0.0	fixation	poldrack-single-stim	221	657106	0.0-13.11-0.11	beast_fmri_test	313	656686,/	t	<div class = centerbox><div class = fixation>+</div></div>	none	500.0	test	n/a	n/a	n/a	n/a	n/a	n/a	n/a	n/a	n/a	n/a	n/a	n/a	n/a	n/a	n/a	n/a	n/a	n/a	fixation
61100.672070999979	800.0	n/a	817	71	2750	1200.327929	stim	stop-signal	222	659857	0.0-13.11-1.11	beast_fmri_test	313	657366,/,658045,/,658725,/,659405,/,660085,/,660765,/	t,t,t,t,t,t	<img class = center src='/static/experiments/beast_fmri_test/images/P.png'></img>	89,71	2750.0	test	<img class = center src='/static/experiments/beast_fmri_test/images/redP.png'></img>	stop	1950.0	2.0	11.0	stop	non-target	P	89,Yellow Button	71,Green Button	850.0	800.0	1950.0	1950.0	0.0	0.0	800.0	1.0	go_stim
63050.672070999979	1950.0	n/a	817	71	2750	1200.327929	stim	stop-signal	222	659857	0.0-13.11-1.11	beast_fmri_test	313	657366,/,658045,/,658725,/,659405,/,660085,/,660765,/	t,t,t,t,t,t	<img class = center src='/static/experiments/beast_fmri_test/images/P.png'></img>	89,71	2750.0	test	<img class = center src='/static/experiments/beast_fmri_test/images/redP.png'></img>	stop	1950.0	2.0	11.0	stop	non-target	P	89,Yellow Button	71,Green Button	850.0	800.0	1950.0	1950.0	0.0	0.0	800.0	1.0	stop_stim
63850.672070999979	1200.3279289999998	n/a	817	71	2750	1200.327929	stim	stop-signal	222	659857	0.0-13.11-1.11	beast_fmri_test	313	657366,/,658045,/,658725,/,659405,/,660085,/,660765,/	t,t,t,t,t,t	<img class = center src='/static/experiments/beast_fmri_test/images/P.png'></img>	89,71	2750.0	test	<img class = center src='/static/experiments/beast_fmri_test/images/redP.png'></img>	stop	1950.0	2.0	11.0	stop	non-target	P	89,Yellow Button	71,Green Button	850.0	800.0	1950.0	1950.0	0.0	0.0	800.0	1.0	ITI
66765	500	n/a	-1	-1	500	0.0	fixation	poldrack-single-stim	223	661571	0.0-13.12-0.12	beast_fmri_test	313	661445,/	t	<div class = centerbox><div class = fixation>+</div></div>	none	500.0	test	n/a	n/a	n/a	n/a	n/a	n/a	n/a	n/a	n/a	n/a	n/a	n/a	n/a	n/a	n/a	n/a	n/a	n/a	fixation
65596.423411999946	850.0	n/a	1164	89	2750	1170.576588	stim	stop-signal	224	664323	0.0-13.12-1.12	beast_fmri_test	313	662125,/,662805,/,663486,/,664165,/,664845,/	t,t,t,t,t	<img class = center src='/static/experiments/beast_fmri_test/images/P.png'></img>	89,71	2750.0	test	<img class = center src='/static/experiments/beast_fmri_test/images/redP.png'></img>	stop	1900.0	2.0	12.0	stop	target	P	89,Yellow Button	71,Green Button	850.0	750.0	1900.0	1950.0	0.0	0.0	850.0	1.0	go_stim
67496.423411999946	1900.0	n/a	1164	89	2750	1170.576588	stim	stop-signal	224	664323	0.0-13.12-1.12	beast_fmri_test	313	662125,/,662805,/,663486,/,664165,/,664845,/	t,t,t,t,t	<img class = center src='/static/experiments/beast_fmri_test/images/P.png'></img>	89,71	2750.0	test	<img class = center src='/static/experiments/beast_fmri_test/images/redP.png'></img>	stop	1900.0	2.0	12.0	stop	target	P	89,Yellow Button	71,Green Button	850.0	750.0	1900.0	1950.0	0.0	0.0	850.0	1.0	stop_stim
68346.423411999946	1170.5765880000001	n/a	1164	89	2750	1170.576588	stim	stop-signal	224	664323	0.0-13.12-1.12	beast_fmri_test	313	662125,/,662805,/,663486,/,664165,/,664845,/	t,t,t,t,t	<img class = center src='/static/experiments/beast_fmri_test/images/P.png'></img>	89,71	2750.0	test	<img class = center src='/static/experiments/beast_fmri_test/images/redP.png'></img>	stop	1900.0	2.0	12.0	stop	target	P	89,Yellow Button	71,Green Button	850.0	750.0	1900.0	1950.0	0.0	0.0	850.0	1.0	ITI
71198	500	n/a	-1	-1	500	0.0	fixation	poldrack-single-stim	225	666004	0.0-13.13-0.13	beast_fmri_test	313	665525,/	t	<div class = centerbox><div class = fixation>+</div></div>	none	500.0	test	n/a	n/a	n/a	n/a	n/a	n/a	n/a	n/a	n/a	n/a	n/a	n/a	n/a	n/a	n/a	n/a	n/a	n/a	fixation
69888.454182000016	2750	n/a	1449	71	2750	1311.545818	stim	stop-signal	226	668756	0.0-13.13-1.13	beast_fmri_test	313	666205,/,666885,/,667565,/,668245,/,668925,/,669605,/	t,t,t,t,t,t	<img class = center src='/static/experiments/beast_fmri_test/images/T.png'></img>	89,71	2750.0	test	<img class = center src='/static/experiments/beast_fmri_test/images/redT.png'></img>	go	2000.0	2.0	13.0	go	non-target	T	89,Yellow Button	71,Green Button	800.0	750.0	1900.0	2000.0	1.0	n/a	750.0	1.0	go_stim
72638.454182000016	1311.5458180000001	n/a	1449	71	2750	1311.545818	stim	stop-signal	226	668756	0.0-13.13-1.13	beast_fmri_test	313	666205,/,666885,/,667565,/,668245,/,668925,/,669605,/	t,t,t,t,t,t	<img class = center src='/static/experiments/beast_fmri_test/images/T.png'></img>	89,71	2750.0	test	<img class = center src='/static/experiments/beast_fmri_test/images/redT.png'></img>	go	2000.0	2.0	13.0	go	non-target	T	89,Yellow Button	71,Green Button	800.0	750.0	1900.0	2000.0	1.0	n/a	750.0	1.0	ITI
75774	500	n/a	-1	-1	500	0.0	fixation	poldrack-single-stim	227	670580	0.0-13.14-0.14	beast_fmri_test	313	670285,/	t	<div class = centerbox><div class = fixation>+</div></div>	none	500.0	test	n/a	n/a	n/a	n/a	n/a	n/a	n/a	n/a	n/a	n/a	n/a	n/a	n/a	n/a	n/a	n/a	n/a	n/a	fixation
73004.568011999945	2750	n/a	1188	89	2750	2771.431988	stim	stop-signal	228	673332	0.0-13.14-1.14	beast_fmri_test	313	670965,/,671645,/,672325,/,673005,/,673686,/,674365,/,675045,/,675725,/	t,t,t,t,t,t,t,t	<img class = center src='/static/experiments/beast_fmri_test/images/P.png'></img>	89,71	2750.0	test	<img class = center src='/static/experiments/beast_fmri_test/images/redP.png'></img>	go	1950.0	2.0	14.0	go	target	P	89,Yellow Button	71,Green Button	800.0	750.0	1950.0	2000.0	1.0	n/a	800.0	1.0	go_stim
75754.568011999945	2771.4319879999998	n/a	1188	89	2750	2771.431988	stim	stop-signal	228	673332	0.0-13.14-1.14	beast_fmri_test	313	670965,/,671645,/,672325,/,673005,/,673686,/,674365,/,675045,/,675725,/	t,t,t,t,t,t,t,t	<img class = center src='/static/experiments/beast_fmri_test/images/P.png'></img>	89,71	2750.0	test	<img class = center src='/static/experiments/beast_fmri_test/images/redP.png'></img>	go	1950.0	2.0	14.0	go	target	P	89,Yellow Button	71,Green Button	800.0	750.0	1950.0	2000.0	1.0	n/a	800.0	1.0	ITI
81810	500	n/a	-1	-1	500	0.0	fixation	poldrack-single-stim	229	676616	0.0-13.15-0.15	beast_fmri_test	313	676405,/	t	<div class = centerbox><div class = fixation>+</div></div>	none	500.0	test	n/a	n/a	n/a	n/a	n/a	n/a	n/a	n/a	n/a	n/a	n/a	n/a	n/a	n/a	n/a	n/a	n/a	n/a	fixation
81339.819316799985	2750	n/a	1192	71	2750	473.1806832	stim	stop-signal	230	679369	0.0-13.15-1.15	beast_fmri_test	313	677085,/,677765,/,678445,/,679125,/,679806,/	t,t,t,t,t	<img class = center src='/static/experiments/beast_fmri_test/images/D.png'></img>	89,71	2750.0	test	<img class = center src='/static/experiments/beast_fmri_test/images/redD.png'></img>	go	2000.0	2.0	15.0	go	non-target	D	89,Yellow Button	71,Green Button	800.0	750.0	1950.0	2000.0	1.0	n/a	750.0	1.0	go_stim
84089.819316799985	473.18068319999992	n/a	1192	71	2750	473.1806832	stim	stop-signal	230	679369	0.0-13.15-1.15	beast_fmri_test	313	677085,/,677765,/,678445,/,679125,/,679806,/	t,t,t,t,t	<img class = center src='/static/experiments/beast_fmri_test/images/D.png'></img>	89,71	2750.0	test	<img class = center src='/static/experiments/beast_fmri_test/images/redD.png'></img>	go	2000.0	2.0	15.0	go	non-target	D	89,Yellow Button	71,Green Button	800.0	750.0	1950.0	2000.0	1.0	n/a	750.0	1.0	ITI
85549	500	n/a	-1	-1	500	0.0	fixation	poldrack-single-stim	231	680355	0.0-13.16-0.16	beast_fmri_test	313	n/a	n/a	<div class = centerbox><div class = fixation>+</div></div>	none	500.0	test	n/a	n/a	n/a	n/a	n/a	n/a	n/a	n/a	n/a	n/a	n/a	n/a	n/a	n/a	n/a	n/a	n/a	n/a	fixation
83785.690960000036	750.0	n/a	-1	-1	2750	1766.30904	stim	stop-signal	232	683108	0.0-13.16-1.16	beast_fmri_test	313	680485,/,681166,/,681846,/,682526,/,683206,/,683887,/,684566,/	t,t,t,t,t,t,t	<img class = center src='/static/experiments/beast_fmri_test/images/B.png'></img>	89,71	2750.0	test	<img class = center src='/static/experiments/beast_fmri_test/images/redB.png'></img>	stop	2000.0	2.0	16.0	stop	non-target	B	89,Yellow Button	71,Green Button	800.0	750.0	1950.0	2000.0	0.0	1.0	750.0	0.0	go_stim
85785.690960000036	2000.0	n/a	-1	-1	2750	1766.30904	stim	stop-signal	232	683108	0.0-13.16-1.16	beast_fmri_test	313	680485,/,681166,/,681846,/,682526,/,683206,/,683887,/,684566,/	t,t,t,t,t,t,t	<img class = center src='/static/experiments/beast_fmri_test/images/B.png'></img>	89,71	2750.0	test	<img class = center src='/static/experiments/beast_fmri_test/images/redB.png'></img>	stop	2000.0	2.0	16.0	stop	non-target	B	89,Yellow Button	71,Green Button	800.0	750.0	1950.0	2000.0	0.0	1.0	750.0	0.0	stop_stim
86535.690960000036	1766.3090399999999	n/a	-1	-1	2750	1766.30904	stim	stop-signal	232	683108	0.0-13.16-1.16	beast_fmri_test	313	680485,/,681166,/,681846,/,682526,/,683206,/,683887,/,684566,/	t,t,t,t,t,t,t	<img class = center src='/static/experiments/beast_fmri_test/images/B.png'></img>	89,71	2750.0	test	<img class = center src='/static/experiments/beast_fmri_test/images/redB.png'></img>	stop	2000.0	2.0	16.0	stop	non-target	B	89,Yellow Button	71,Green Button	800.0	750.0	1950.0	2000.0	0.0	1.0	750.0	0.0	ITI
90582	500	n/a	-1	-1	500	0.0	fixation	poldrack-single-stim	233	685388	0.0-13.17-0.17	beast_fmri_test	313	685245,/	t	<div class = centerbox><div class = fixation>+</div></div>	none	500.0	test	n/a	n/a	n/a	n/a	n/a	n/a	n/a	n/a	n/a	n/a	n/a	n/a	n/a	n/a	n/a	n/a	n/a	n/a	fixation
89952.097228599945	2750	n/a	981	89	2750	632.9027714	stim	stop-signal	234	688141	0.0-13.17-1.17	beast_fmri_test	313	685925,/,686606,/,687285,/,687965,/,688646,/	t,t,t,t,t	<img class = center src='/static/experiments/beast_fmri_test/images/D.png'></img>	89,71	2750.0	test	<img class = center src='/static/experiments/beast_fmri_test/images/redD.png'></img>	go	1950.0	2.0	17.0	go	target	D	89,Yellow Button	71,Green Button	800.0	800.0	1950.0	2000.0	1.0	n/a	800.0	1.0	go_stim
92702.097228599945	632.90277140000001	n/a	981	89	2750	632.9027714	stim	stop-signal	234	688141	0.0-13.17-1.17	beast_fmri_test	313	685925,/,686606,/,687285,/,687965,/,688646,/	t,t,t,t,t	<img class = center src='/static/experiments/beast_fmri_test/images/D.png'></img>	89,71	2750.0	test	<img class = center src='/static/experiments/beast_fmri_test/images/redD.png'></img>	go	1950.0	2.0	17.0	go	target	D	89,Yellow Button	71,Green Button	800.0	800.0	1950.0	2000.0	1.0	n/a	800.0	1.0	ITI
94480	500	n/a	-1	-1	500	0.0	fixation	poldrack-single-stim	235	689286	0.0-13.18-0.18	beast_fmri_test	313	n/a	n/a	<div class = centerbox><div class = fixation>+</div></div>	none	500.0	test	n/a	n/a	n/a	n/a	n/a	n/a	n/a	n/a	n/a	n/a	n/a	n/a	n/a	n/a	n/a	n/a	n/a	n/a	fixation
93367.469124999945	2750	n/a	1437	71	2750	1114.530875	stim	stop-signal	236	692038	0.0-13.18-1.18	beast_fmri_test	313	689326,/,690006,/,690686,/,691366,/,692045,/,692725,/	t,t,t,t,t,t	<img class = center src='/static/experiments/beast_fmri_test/images/V.png'></img>	89,71	2750.0	test	<img class = center src='/static/experiments/beast_fmri_test/images/redV.png'></img>	go	1950.0	2.0	18.0	go	non-target	V	89,Yellow Button	71,Green Button	800.0	800.0	1950.0	1950.0	1.0	n/a	800.0	1.0	go_stim
96117.469124999945	1114.5308749999999	n/a	1437	71	2750	1114.530875	stim	stop-signal	236	692038	0.0-13.18-1.18	beast_fmri_test	313	689326,/,690006,/,690686,/,691366,/,692045,/,692725,/	t,t,t,t,t,t	<img class = center src='/static/experiments/beast_fmri_test/images/V.png'></img>	89,71	2750.0	test	<img class = center src='/static/experiments/beast_fmri_test/images/redV.png'></img>	go	1950.0	2.0	18.0	go	non-target	V	89,Yellow Button	71,Green Button	800.0	800.0	1950.0	1950.0	1.0	n/a	800.0	1.0	ITI
98858	500	n/a	-1	-1	500	0.0	fixation	poldrack-single-stim	237	693664	0.0-13.19-0.19	beast_fmri_test	313	693405,/	t	<div class = centerbox><div class = fixation>+</div></div>	none	500.0	test	n/a	n/a	n/a	n/a	n/a	n/a	n/a	n/a	n/a	n/a	n/a	n/a	n/a	n/a	n/a	n/a	n/a	n/a	fixation
96781.74415100005	2750	n/a	1616	71	2750	2078.255849	stim	stop-signal	238	696416	0.0-13.19-1.19	beast_fmri_test	313	694086,/,694765,/,695445,/,696125,/,696805,/,697485,/,698165,/	t,t,t,t,t,t,t	<img class = center src='/static/experiments/beast_fmri_test/images/B.png'></img>	89,71	2750.0	test	<img class = center src='/static/experiments/beast_fmri_test/images/redB.png'></img>	go	1950.0	2.0	19.0	go	non-target	B	89,Yellow Button	71,Green Button	800.0	800.0	1950.0	1950.0	1.0	n/a	800.0	1.0	go_stim
99531.74415100005	2078.2558489999997	n/a	1616	71	2750	2078.255849	stim	stop-signal	238	696416	0.0-13.19-1.19	beast_fmri_test	313	694086,/,694765,/,695445,/,696125,/,696805,/,697485,/,698165,/	t,t,t,t,t,t,t	<img class = center src='/static/experiments/beast_fmri_test/images/B.png'></img>	89,71	2750.0	test	<img class = center src='/static/experiments/beast_fmri_test/images/redB.png'></img>	go	1950.0	2.0	19.0	go	non-target	B	89,Yellow Button	71,Green Button	800.0	800.0	1950.0	1950.0	1.0	n/a	800.0	1.0	ITI
104202	500	n/a	-1	-1	500	0.0	fixation	poldrack-single-stim	239	699008	0.0-13.20-0.20	beast_fmri_test	313	698845,/	t	<div class = centerbox><div class = fixation>+</div></div>	none	500.0	test	n/a	n/a	n/a	n/a	n/a	n/a	n/a	n/a	n/a	n/a	n/a	n/a	n/a	n/a	n/a	n/a	n/a	n/a	fixation
103184.10898100003	800.0	n/a	1770	89	2750	1019.891019	stim	stop-signal	240	701760	0.0-13.20-1.20	beast_fmri_test	313	699525,/,700205,/,700885,/,701565,/,702245,/	t,t,t,t,t	<img class = center src='/static/experiments/beast_fmri_test/images/V.png'></img>	89,71	2750.0	test	<img class = center src='/static/experiments/beast_fmri_test/images/redV.png'></img>	stop	1950.0	2.0	20.0	stop	target	V	89,Yellow Button	71,Green Button	800.0	800.0	1950.0	1950.0	0.0	0.0	800.0	1.0	go_stim
105134.10898100003	1950.0	n/a	1770	89	2750	1019.891019	stim	stop-signal	240	701760	0.0-13.20-1.20	beast_fmri_test	313	699525,/,700205,/,700885,/,701565,/,702245,/	t,t,t,t,t	<img class = center src='/static/experiments/beast_fmri_test/images/V.png'></img>	89,71	2750.0	test	<img class = center src='/static/experiments/beast_fmri_test/images/redV.png'></img>	stop	1950.0	2.0	20.0	stop	target	V	89,Yellow Button	71,Green Button	800.0	800.0	1950.0	1950.0	0.0	0.0	800.0	1.0	stop_stim
105934.10898100003	1019.8910189999999	n/a	1770	89	2750	1019.891019	stim	stop-signal	240	701760	0.0-13.20-1.20	beast_fmri_test	313	699525,/,700205,/,700885,/,701565,/,702245,/	t,t,t,t,t	<img class = center src='/static/experiments/beast_fmri_test/images/V.png'></img>	89,71	2750.0	test	<img class = center src='/static/experiments/beast_fmri_test/images/redV.png'></img>	stop	1950.0	2.0	20.0	stop	target	V	89,Yellow Button	71,Green Button	800.0	800.0	1950.0	1950.0	0.0	0.0	800.0	1.0	ITI
108488	500	n/a	-1	-1	500	0.0	fixation	poldrack-single-stim	241	703294	0.0-13.21-0.21	beast_fmri_test	313	702925,/	t	<div class = centerbox><div class = fixation>+</div></div>	none	500.0	test	n/a	n/a	n/a	n/a	n/a	n/a	n/a	n/a	n/a	n/a	n/a	n/a	n/a	n/a	n/a	n/a	n/a	n/a	fixation
108392.19575051998	800.0	n/a	-1	-1	2750	97.80424948	stim	stop-signal	242	706046	0.0-13.21-1.21	beast_fmri_test	313	703605,/,704286,/,704965,/,705645,/	t,t,t,t	<img class = center src='/static/experiments/beast_fmri_test/images/D.png'></img>	89,71	2750.0	test	<img class = center src='/static/experiments/beast_fmri_test/images/redD.png'></img>	stop	1950.0	2.0	21.0	stop	non-target	D	89,Yellow Button	71,Green Button	750.0	800.0	1950.0	1950.0	0.0	1.0	800.0	0.0	go_stim
110342.19575051998	1950.0	n/a	-1	-1	2750	97.80424948	stim	stop-signal	242	706046	0.0-13.21-1.21	beast_fmri_test	313	703605,/,704286,/,704965,/,705645,/	t,t,t,t	<img class = center src='/static/experiments/beast_fmri_test/images/D.png'></img>	89,71	2750.0	test	<img class = center src='/static/experiments/beast_fmri_test/images/redD.png'></img>	stop	1950.0	2.0	21.0	stop	non-target	D	89,Yellow Button	71,Green Button	750.0	800.0	1950.0	1950.0	0.0	1.0	800.0	0.0	stop_stim
111142.19575051998	97.804249479999996	n/a	-1	-1	2750	97.80424948	stim	stop-signal	242	706046	0.0-13.21-1.21	beast_fmri_test	313	703605,/,704286,/,704965,/,705645,/	t,t,t,t	<img class = center src='/static/experiments/beast_fmri_test/images/D.png'></img>	89,71	2750.0	test	<img class = center src='/static/experiments/beast_fmri_test/images/redD.png'></img>	stop	1950.0	2.0	21.0	stop	non-target	D	89,Yellow Button	71,Green Button	750.0	800.0	1950.0	1950.0	0.0	1.0	800.0	0.0	ITI
111851	500	n/a	-1	-1	500	0.0	fixation	poldrack-single-stim	243	706657	0.0-13.22-0.22	beast_fmri_test	313	706325,/	t	<div class = centerbox><div class = fixation>+</div></div>	none	500.0	test	n/a	n/a	n/a	n/a	n/a	n/a	n/a	n/a	n/a	n/a	n/a	n/a	n/a	n/a	n/a	n/a	n/a	n/a	fixation
110241.84783400001	850.0	n/a	-1	-1	2750	1611.152166	stim	stop-signal	244	709409	0.0-13.22-1.22	beast_fmri_test	313	707005,/,707685,/,708365,/,709045,/,709724,/,710405,/	t,t,t,t,t,t	<img class = center src='/static/experiments/beast_fmri_test/images/D.png'></img>	89,71	2750.0	test	<img class = center src='/static/experiments/beast_fmri_test/images/redD.png'></img>	stop	1900.0	2.0	22.0	stop	non-target	D	89,Yellow Button	71,Green Button	750.0	850.0	1950.0	1900.0	0.0	1.0	850.0	0.0	go_stim
112141.84783400001	1900.0	n/a	-1	-1	2750	1611.152166	stim	stop-signal	244	709409	0.0-13.22-1.22	beast_fmri_test	313	707005,/,707685,/,708365,/,709045,/,709724,/,710405,/	t,t,t,t,t,t	<img class = center src='/static/experiments/beast_fmri_test/images/D.png'></img>	89,71	2750.0	test	<img class = center src='/static/experiments/beast_fmri_test/images/redD.png'></img>	stop	1900.0	2.0	22.0	stop	non-target	D	89,Yellow Button	71,Green Button	750.0	850.0	1950.0	1900.0	0.0	1.0	850.0	0.0	stop_stim
112991.84783400001	1611.1521660000001	n/a	-1	-1	2750	1611.152166	stim	stop-signal	244	709409	0.0-13.22-1.22	beast_fmri_test	313	707005,/,707685,/,708365,/,709045,/,709724,/,710405,/	t,t,t,t,t,t	<img class = center src='/static/experiments/beast_fmri_test/images/D.png'></img>	89,71	2750.0	test	<img class = center src='/static/experiments/beast_fmri_test/images/redD.png'></img>	stop	1900.0	2.0	22.0	stop	non-target	D	89,Yellow Button	71,Green Button	750.0	850.0	1950.0	1900.0	0.0	1.0	850.0	0.0	ITI
116726	500	n/a	-1	-1	500	0.0	fixation	poldrack-single-stim	245	711532	0.0-13.23-0.23	beast_fmri_test	313	711085,/	t	<div class = centerbox><div class = fixation>+</div></div>	none	500.0	test	n/a	n/a	n/a	n/a	n/a	n/a	n/a	n/a	n/a	n/a	n/a	n/a	n/a	n/a	n/a	n/a	n/a	n/a	fixation
115971.38997370005	900.0	n/a	985	71	2750	755.6100263	stim	stop-signal	246	714283	0.0-13.23-1.23	beast_fmri_test	313	711765,/,712445,/,713125,/,713805,/,714485,/	t,t,t,t,t	<img class = center src='/static/experiments/beast_fmri_test/images/V.png'></img>	89,71	2750.0	test	<img class = center src='/static/experiments/beast_fmri_test/images/redV.png'></img>	stop	1850.0	2.0	23.0	stop	non-target	V	89,Yellow Button	71,Green Button	750.0	900.0	1950.0	1850.0	0.0	0.0	900.0	1.0	go_stim
117821.38997370005	1850.0	n/a	985	71	2750	755.6100263	stim	stop-signal	246	714283	0.0-13.23-1.23	beast_fmri_test	313	711765,/,712445,/,713125,/,713805,/,714485,/	t,t,t,t,t	<img class = center src='/static/experiments/beast_fmri_test/images/V.png'></img>	89,71	2750.0	test	<img class = center src='/static/experiments/beast_fmri_test/images/redV.png'></img>	stop	1850.0	2.0	23.0	stop	non-target	V	89,Yellow Button	71,Green Button	750.0	900.0	1950.0	1850.0	0.0	0.0	900.0	1.0	stop_stim
118721.38997370005	755.61002629999996	n/a	985	71	2750	755.6100263	stim	stop-signal	246	714283	0.0-13.23-1.23	beast_fmri_test	313	711765,/,712445,/,713125,/,713805,/,714485,/	t,t,t,t,t	<img class = center src='/static/experiments/beast_fmri_test/images/V.png'></img>	89,71	2750.0	test	<img class = center src='/static/experiments/beast_fmri_test/images/redV.png'></img>	stop	1850.0	2.0	23.0	stop	non-target	V	89,Yellow Button	71,Green Button	750.0	900.0	1950.0	1850.0	0.0	0.0	900.0	1.0	ITI
120745	500	n/a	-1	-1	500	0.0	fixation	poldrack-single-stim	247	715551	0.0-13.24-0.24	beast_fmri_test	313	715166,/	t	<div class = centerbox><div class = fixation>+</div></div>	none	500.0	test	n/a	n/a	n/a	n/a	n/a	n/a	n/a	n/a	n/a	n/a	n/a	n/a	n/a	n/a	n/a	n/a	n/a	n/a	fixation
116442.79611200001	2750	n/a	1365	71	2750	4304.203888	stim	stop-signal	248	718303	0.0-13.24-1.24	beast_fmri_test	313	715846,/,716525,/,717205,/,717886,/,718566,/,719245,/,719925,/,720605,/,721286,/,721966,/	t,t,t,t,t,t,t,t,t,t	<img class = center src='/static/experiments/beast_fmri_test/images/B.png'></img>	89,71	2750.0	test	<img class = center src='/static/experiments/beast_fmri_test/images/redB.png'></img>	go	1900.0	2.0	24.0	go	non-target	B	89,Yellow Button	71,Green Button	750.0	850.0	1950.0	1900.0	1.0	n/a	850.0	1.0	go_stim
119192.79611200001	4304.203888	n/a	1365	71	2750	4304.203888	stim	stop-signal	248	718303	0.0-13.24-1.24	beast_fmri_test	313	715846,/,716525,/,717205,/,717886,/,718566,/,719245,/,719925,/,720605,/,721286,/,721966,/	t,t,t,t,t,t,t,t,t,t	<img class = center src='/static/experiments/beast_fmri_test/images/B.png'></img>	89,71	2750.0	test	<img class = center src='/static/experiments/beast_fmri_test/images/redB.png'></img>	go	1900.0	2.0	24.0	go	non-target	B	89,Yellow Button	71,Green Button	750.0	850.0	1950.0	1900.0	1.0	n/a	850.0	1.0	ITI
128316	500	n/a	-1	-1	500	0.0	fixation	poldrack-single-stim	249	723122	0.0-13.25-0.25	beast_fmri_test	313	722646,/	t	<div class = centerbox><div class = fixation>+</div></div>	none	500.0	test	n/a	n/a	n/a	n/a	n/a	n/a	n/a	n/a	n/a	n/a	n/a	n/a	n/a	n/a	n/a	n/a	n/a	n/a	fixation
127512.42067160003	750.0	n/a	1077	89	2750	805.5793284	stim	stop-signal	250	725874	0.0-13.25-1.25	beast_fmri_test	313	723326,/,724005,/,724686,/,725365,/,726045,/	t,t,t,t,t	<img class = center src='/static/experiments/beast_fmri_test/images/V.png'></img>	89,71	2750.0	test	<img class = center src='/static/experiments/beast_fmri_test/images/redV.png'></img>	stop	2000.0	2.0	25.0	stop	target	V	89,Yellow Button	71,Green Button	750.0	850.0	2000.0	1900.0	0.0	0.0	750.0	1.0	go_stim
129512.42067160003	2000.0	n/a	1077	89	2750	805.5793284	stim	stop-signal	250	725874	0.0-13.25-1.25	beast_fmri_test	313	723326,/,724005,/,724686,/,725365,/,726045,/	t,t,t,t,t	<img class = center src='/static/experiments/beast_fmri_test/images/V.png'></img>	89,71	2750.0	test	<img class = center src='/static/experiments/beast_fmri_test/images/redV.png'></img>	stop	2000.0	2.0	25.0	stop	target	V	89,Yellow Button	71,Green Button	750.0	850.0	2000.0	1900.0	0.0	0.0	750.0	1.0	stop_stim
130262.42067160003	805.57932840000001	n/a	1077	89	2750	805.5793284	stim	stop-signal	250	725874	0.0-13.25-1.25	beast_fmri_test	313	723326,/,724005,/,724686,/,725365,/,726045,/	t,t,t,t,t	<img class = center src='/static/experiments/beast_fmri_test/images/V.png'></img>	89,71	2750.0	test	<img class = center src='/static/experiments/beast_fmri_test/images/redV.png'></img>	stop	2000.0	2.0	25.0	stop	target	V	89,Yellow Button	71,Green Button	750.0	850.0	2000.0	1900.0	0.0	0.0	750.0	1.0	ITI
132387	500	n/a	-1	-1	500	0.0	fixation	poldrack-single-stim	251	727193	0.0-13.26-0.26	beast_fmri_test	313	726725,/	t	<div class = centerbox><div class = fixation>+</div></div>	none	500.0	test	n/a	n/a	n/a	n/a	n/a	n/a	n/a	n/a	n/a	n/a	n/a	n/a	n/a	n/a	n/a	n/a	n/a	n/a	fixation
131119.01136600005	2750	n/a	2223	71	2750	1268.988634	stim	stop-signal	252	729944	0.0-13.26-1.26	beast_fmri_test	313	727405,/,728085,/,728765,/,729445,/,730125,/,730805,/	t,t,t,t,t,t	<img class = center src='/static/experiments/beast_fmri_test/images/B.png'></img>	89,71	2750.0	test	<img class = center src='/static/experiments/beast_fmri_test/images/redB.png'></img>	go	2050.0	2.0	26.0	go	target	B	89,Yellow Button	71,Green Button	700.0	850.0	2050.0	1900.0	0.0	n/a	700.0	0.0	go_stim
133869.01136600005	1268.988634	n/a	2223	71	2750	1268.988634	stim	stop-signal	252	729944	0.0-13.26-1.26	beast_fmri_test	313	727405,/,728085,/,728765,/,729445,/,730125,/,730805,/	t,t,t,t,t,t	<img class = center src='/static/experiments/beast_fmri_test/images/B.png'></img>	89,71	2750.0	test	<img class = center src='/static/experiments/beast_fmri_test/images/redB.png'></img>	go	2050.0	2.0	26.0	go	target	B	89,Yellow Button	71,Green Button	700.0	850.0	2050.0	1900.0	0.0	n/a	700.0	0.0	ITI
136920	500	n/a	-1	-1	500	0.0	fixation	poldrack-single-stim	253	731726	0.0-13.27-0.27	beast_fmri_test	313	731485,/	t	<div class = centerbox><div class = fixation>+</div></div>	none	500.0	test	n/a	n/a	n/a	n/a	n/a	n/a	n/a	n/a	n/a	n/a	n/a	n/a	n/a	n/a	n/a	n/a	n/a	n/a	fixation
136413.55006339995	2750	n/a	1019	89	2750	508.4499366	stim	stop-signal	254	734478	0.0-13.27-1.27	beast_fmri_test	313	732165,/,732845,/,733525,/,734205,/,734886,/	t,t,t,t,t	<img class = center src='/static/experiments/beast_fmri_test/images/V.png'></img>	89,71	2750.0	test	<img class = center src='/static/experiments/beast_fmri_test/images/redV.png'></img>	go	2050.0	2.0	27.0	go	target	V	89,Yellow Button	71,Green Button	700.0	850.0	2050.0	1900.0	1.0	n/a	700.0	1.0	go_stim
139163.55006339995	508.44993660000006	n/a	1019	89	2750	508.4499366	stim	stop-signal	254	734478	0.0-13.27-1.27	beast_fmri_test	313	732165,/,732845,/,733525,/,734205,/,734886,/	t,t,t,t,t	<img class = center src='/static/experiments/beast_fmri_test/images/V.png'></img>	89,71	2750.0	test	<img class = center src='/static/experiments/beast_fmri_test/images/redV.png'></img>	go	2050.0	2.0	27.0	go	target	V	89,Yellow Button	71,Green Button	700.0	850.0	2050.0	1900.0	1.0	n/a	700.0	1.0	ITI
140692	500	n/a	-1	-1	500	0.0	fixation	poldrack-single-stim	255	735498	0.0-13.28-0.28	beast_fmri_test	313	n/a	n/a	<div class = centerbox><div class = fixation>+</div></div>	none	500.0	test	n/a	n/a	n/a	n/a	n/a	n/a	n/a	n/a	n/a	n/a	n/a	n/a	n/a	n/a	n/a	n/a	n/a	n/a	fixation
140115.52848740004	850.0	n/a	1093	71	2750	579.4715126	stim	stop-signal	256	738251	0.0-13.28-1.28	beast_fmri_test	313	735565,/,736245,/,736925,/,737605,/,738285,/	t,t,t,t,t	<img class = center src='/static/experiments/beast_fmri_test/images/T.png'></img>	89,71	2750.0	test	<img class = center src='/static/experiments/beast_fmri_test/images/redT.png'></img>	stop	1900.0	2.0	28.0	stop	non-target	T	89,Yellow Button	71,Green Button	700.0	850.0	2050.0	1900.0	0.0	0.0	850.0	1.0	go_stim
142015.52848740004	1900.0	n/a	1093	71	2750	579.4715126	stim	stop-signal	256	738251	0.0-13.28-1.28	beast_fmri_test	313	735565,/,736245,/,736925,/,737605,/,738285,/	t,t,t,t,t	<img class = center src='/static/experiments/beast_fmri_test/images/T.png'></img>	89,71	2750.0	test	<img class = center src='/static/experiments/beast_fmri_test/images/redT.png'></img>	stop	1900.0	2.0	28.0	stop	non-target	T	89,Yellow Button	71,Green Button	700.0	850.0	2050.0	1900.0	0.0	0.0	850.0	1.0	stop_stim
142865.52848740004	579.47151259999998	n/a	1093	71	2750	579.4715126	stim	stop-signal	256	738251	0.0-13.28-1.28	beast_fmri_test	313	735565,/,736245,/,736925,/,737605,/,738285,/	t,t,t,t,t	<img class = center src='/static/experiments/beast_fmri_test/images/T.png'></img>	89,71	2750.0	test	<img class = center src='/static/experiments/beast_fmri_test/images/redT.png'></img>	stop	1900.0	2.0	28.0	stop	non-target	T	89,Yellow Button	71,Green Button	700.0	850.0	2050.0	1900.0	0.0	0.0	850.0	1.0	ITI
144537	500	n/a	-1	-1	500	0.0	fixation	poldrack-single-stim	257	739343	0.0-13.29-0.29	beast_fmri_test	313	738965,/	t	<div class = centerbox><div class = fixation>+</div></div>	none	500.0	test	n/a	n/a	n/a	n/a	n/a	n/a	n/a	n/a	n/a	n/a	n/a	n/a	n/a	n/a	n/a	n/a	n/a	n/a	fixation
143887.28675169998	2750	n/a	1938	71	2750	650.7132483	stim	stop-signal	258	742094	0.0-13.29-1.29	beast_fmri_test	313	739645,/,740325,/,741005,/,741685,/,742364,/	t,t,t,t,t	<img class = center src='/static/experiments/beast_fmri_test/images/D.png'></img>	89,71	2750.0	test	<img class = center src='/static/experiments/beast_fmri_test/images/redD.png'></img>	go	1950.0	2.0	29.0	go	non-target	D	89,Yellow Button	71,Green Button	700.0	800.0	2050.0	1950.0	1.0	n/a	800.0	1.0	go_stim
146637.28675169998	650.71324829999992	n/a	1938	71	2750	650.7132483	stim	stop-signal	258	742094	0.0-13.29-1.29	beast_fmri_test	313	739645,/,740325,/,741005,/,741685,/,742364,/	t,t,t,t,t	<img class = center src='/static/experiments/beast_fmri_test/images/D.png'></img>	89,71	2750.0	test	<img class = center src='/static/experiments/beast_fmri_test/images/redD.png'></img>	go	1950.0	2.0	29.0	go	non-target	D	89,Yellow Button	71,Green Button	700.0	800.0	2050.0	1950.0	1.0	n/a	800.0	1.0	ITI
148451	500	n/a	-1	-1	500	0.0	fixation	poldrack-single-stim	259	743257	0.0-13.30-0.30	beast_fmri_test	313	743045,/	t	<div class = centerbox><div class = fixation>+</div></div>	none	500.0	test	n/a	n/a	n/a	n/a	n/a	n/a	n/a	n/a	n/a	n/a	n/a	n/a	n/a	n/a	n/a	n/a	n/a	n/a	fixation
147628.51332130004	2750	n/a	2041	71	2750	824.4866787	stim	stop-signal	260	746009	0.0-13.30-1.30	beast_fmri_test	313	743725,/,744405,/,745085,/,745764,/,746444,/	t,t,t,t,t	<img class = center src='/static/experiments/beast_fmri_test/images/B.png'></img>	89,71	2750.0	test	<img class = center src='/static/experiments/beast_fmri_test/images/redB.png'></img>	go	1950.0	2.0	30.0	go	non-target	B	89,Yellow Button	71,Green Button	700.0	800.0	2050.0	1950.0	1.0	n/a	800.0	1.0	go_stim
150378.51332130004	824.48667870000008	n/a	2041	71	2750	824.4866787	stim	stop-signal	260	746009	0.0-13.30-1.30	beast_fmri_test	313	743725,/,744405,/,745085,/,745764,/,746444,/	t,t,t,t,t	<img class = center src='/static/experiments/beast_fmri_test/images/B.png'></img>	89,71	2750.0	test	<img class = center src='/static/experiments/beast_fmri_test/images/redB.png'></img>	go	1950.0	2.0	30.0	go	non-target	B	89,Yellow Button	71,Green Button	700.0	800.0	2050.0	1950.0	1.0	n/a	800.0	1.0	ITI
152541	500	n/a	-1	-1	500	0.0	fixation	poldrack-single-stim	261	747347	0.0-13.31-0.31	beast_fmri_test	313	747126,/	t	<div class = centerbox><div class = fixation>+</div></div>	none	500.0	test	n/a	n/a	n/a	n/a	n/a	n/a	n/a	n/a	n/a	n/a	n/a	n/a	n/a	n/a	n/a	n/a	n/a	n/a	fixation
150995.60797699995	2750	n/a	1523	71	2750	1546.392023	stim	stop-signal	262	750098	0.0-13.31-1.31	beast_fmri_test	313	747806,/,748486,/,749165,/,749846,/,750525,/,751206,/	t,t,t,t,t,t	<img class = center src='/static/experiments/beast_fmri_test/images/D.png'></img>	89,71	2750.0	test	<img class = center src='/static/experiments/beast_fmri_test/images/redD.png'></img>	go	2050.0	2.0	31.0	go	target	D	89,Yellow Button	71,Green Button	700.0	800.0	2050.0	1950.0	0.0	n/a	700.0	0.0	go_stim
153745.60797699995	1546.3920230000001	n/a	1523	71	2750	1546.392023	stim	stop-signal	262	750098	0.0-13.31-1.31	beast_fmri_test	313	747806,/,748486,/,749165,/,749846,/,750525,/,751206,/	t,t,t,t,t,t	<img class = center src='/static/experiments/beast_fmri_test/images/D.png'></img>	89,71	2750.0	test	<img class = center src='/static/experiments/beast_fmri_test/images/redD.png'></img>	go	2050.0	2.0	31.0	go	target	D	89,Yellow Button	71,Green Button	700.0	800.0	2050.0	1950.0	0.0	n/a	700.0	0.0	ITI
157353	500	n/a	-1	-1	500	0.0	fixation	poldrack-single-stim	263	752159	0.0-13.32-0.32	beast_fmri_test	313	751885,/	t	<div class = centerbox><div class = fixation>+</div></div>	none	500.0	test	n/a	n/a	n/a	n/a	n/a	n/a	n/a	n/a	n/a	n/a	n/a	n/a	n/a	n/a	n/a	n/a	n/a	n/a	fixation
157170.03026230005	2750	n/a	924	89	2750	184.9697377	stim	stop-signal	264	754911	0.0-13.32-1.32	beast_fmri_test	313	752566,/,753245,/,753925,/,754606,/	t,t,t,t	<img class = center src='/static/experiments/beast_fmri_test/images/B.png'></img>	89,71	2750.0	test	<img class = center src='/static/experiments/beast_fmri_test/images/redB.png'></img>	go	2050.0	2.0	32.0	go	target	B	89,Yellow Button	71,Green Button	700.0	800.0	2050.0	1950.0	1.0	n/a	700.0	1.0	go_stim
159920.03026230005	184.9697377	n/a	924	89	2750	184.9697377	stim	stop-signal	264	754911	0.0-13.32-1.32	beast_fmri_test	313	752566,/,753245,/,753925,/,754606,/	t,t,t,t	<img class = center src='/static/experiments/beast_fmri_test/images/B.png'></img>	89,71	2750.0	test	<img class = center src='/static/experiments/beast_fmri_test/images/redB.png'></img>	go	2050.0	2.0	32.0	go	target	B	89,Yellow Button	71,Green Button	700.0	800.0	2050.0	1950.0	1.0	n/a	700.0	1.0	ITI
160804	500	n/a	-1	-1	500	0.0	fixation	poldrack-single-stim	265	755610	0.0-13.33-0.33	beast_fmri_test	313	755287,/	t	<div class = centerbox><div class = fixation>+</div></div>	none	500.0	test	n/a	n/a	n/a	n/a	n/a	n/a	n/a	n/a	n/a	n/a	n/a	n/a	n/a	n/a	n/a	n/a	n/a	n/a	fixation
160284.11103419994	2750	n/a	2064	71	2750	521.8889658	stim	stop-signal	266	758362	0.0-13.33-1.33	beast_fmri_test	313	755966,/,756646,/,757326,/,758005,/,758685,/	t,t,t,t,t	<img class = center src='/static/experiments/beast_fmri_test/images/B.png'></img>	89,71	2750.0	test	<img class = center src='/static/experiments/beast_fmri_test/images/redB.png'></img>	go	1950.0	2.0	33.0	go	non-target	B	89,Yellow Button	71,Green Button	700.0	800.0	2050.0	1950.0	1.0	n/a	800.0	1.0	go_stim
163034.11103419994	521.88896579999994	n/a	2064	71	2750	521.8889658	stim	stop-signal	266	758362	0.0-13.33-1.33	beast_fmri_test	313	755966,/,756646,/,757326,/,758005,/,758685,/	t,t,t,t,t	<img class = center src='/static/experiments/beast_fmri_test/images/B.png'></img>	89,71	2750.0	test	<img class = center src='/static/experiments/beast_fmri_test/images/redB.png'></img>	go	1950.0	2.0	33.0	go	non-target	B	89,Yellow Button	71,Green Button	700.0	800.0	2050.0	1950.0	1.0	n/a	800.0	1.0	ITI
164590	500	n/a	-1	-1	500	0.0	fixation	poldrack-single-stim	267	759396	0.0-13.34-0.34	beast_fmri_test	313	759366,/	t	<div class = centerbox><div class = fixation>+</div></div>	none	500.0	test	n/a	n/a	n/a	n/a	n/a	n/a	n/a	n/a	n/a	n/a	n/a	n/a	n/a	n/a	n/a	n/a	n/a	n/a	fixation
163267.84247399995	2750	n/a	947	89	2750	1324.157526	stim	stop-signal	268	762148	0.0-13.34-1.34	beast_fmri_test	313	760045,/,760725,/,761405,/,762085,/,762765,/,763445,/	t,t,t,t,t,t	<img class = center src='/static/experiments/beast_fmri_test/images/B.png'></img>	89,71	2750.0	test	<img class = center src='/static/experiments/beast_fmri_test/images/redB.png'></img>	go	2050.0	2.0	34.0	go	target	B	89,Yellow Button	71,Green Button	700.0	800.0	2050.0	1950.0	1.0	n/a	700.0	1.0	go_stim
166017.84247399995	1324.157526	n/a	947	89	2750	1324.157526	stim	stop-signal	268	762148	0.0-13.34-1.34	beast_fmri_test	313	760045,/,760725,/,761405,/,762085,/,762765,/,763445,/	t,t,t,t,t,t	<img class = center src='/static/experiments/beast_fmri_test/images/B.png'></img>	89,71	2750.0	test	<img class = center src='/static/experiments/beast_fmri_test/images/redB.png'></img>	go	2050.0	2.0	34.0	go	target	B	89,Yellow Button	71,Green Button	700.0	800.0	2050.0	1950.0	1.0	n/a	700.0	1.0	ITI
169181	500	n/a	-1	-1	500	0.0	fixation	poldrack-single-stim	269	763987	0.0-13.35-0.35	beast_fmri_test	313	n/a	n/a	<div class = centerbox><div class = fixation>+</div></div>	none	500.0	test	n/a	n/a	n/a	n/a	n/a	n/a	n/a	n/a	n/a	n/a	n/a	n/a	n/a	n/a	n/a	n/a	n/a	n/a	fixation
168067.34739400004	2750	n/a	1318	71	2750	1114.652606	stim	stop-signal	270	766738	0.0-13.35-1.35	beast_fmri_test	313	764125,/,764805,/,765485,/,766165,/,766845,/,767525,/	t,t,t,t,t,t	<img class = center src='/static/experiments/beast_fmri_test/images/D.png'></img>	89,71	2750.0	test	<img class = center src='/static/experiments/beast_fmri_test/images/redD.png'></img>	go	1950.0	2.0	35.0	go	non-target	D	89,Yellow Button	71,Green Button	700.0	800.0	2050.0	1950.0	1.0	n/a	800.0	1.0	go_stim
170817.34739400004	1114.6526060000001	n/a	1318	71	2750	1114.652606	stim	stop-signal	270	766738	0.0-13.35-1.35	beast_fmri_test	313	764125,/,764805,/,765485,/,766165,/,766845,/,767525,/	t,t,t,t,t,t	<img class = center src='/static/experiments/beast_fmri_test/images/D.png'></img>	89,71	2750.0	test	<img class = center src='/static/experiments/beast_fmri_test/images/redD.png'></img>	go	1950.0	2.0	35.0	go	non-target	D	89,Yellow Button	71,Green Button	700.0	800.0	2050.0	1950.0	1.0	n/a	800.0	1.0	ITI
173561	500	n/a	-1	-1	500	0.0	fixation	poldrack-single-stim	271	768367	0.0-13.36-0.36	beast_fmri_test	313	768205,/	t	<div class = centerbox><div class = fixation>+</div></div>	none	500.0	test	n/a	n/a	n/a	n/a	n/a	n/a	n/a	n/a	n/a	n/a	n/a	n/a	n/a	n/a	n/a	n/a	n/a	n/a	fixation
173069.88151440001	2750	n/a	1589	71	2750	492.1184856	stim	stop-signal	272	771118	0.0-13.36-1.36	beast_fmri_test	313	768885,/,769565,/,770245,/,770925,/,771605,/	t,t,t,t,t	<img class = center src='/static/experiments/beast_fmri_test/images/B.png'></img>	89,71	2750.0	test	<img class = center src='/static/experiments/beast_fmri_test/images/redB.png'></img>	go	2050.0	2.0	36.0	go	target	B	89,Yellow Button	71,Green Button	700.0	800.0	2050.0	1950.0	0.0	n/a	700.0	0.0	go_stim
175819.88151440001	492.11848560000004	n/a	1589	71	2750	492.1184856	stim	stop-signal	272	771118	0.0-13.36-1.36	beast_fmri_test	313	768885,/,769565,/,770245,/,770925,/,771605,/	t,t,t,t,t	<img class = center src='/static/experiments/beast_fmri_test/images/B.png'></img>	89,71	2750.0	test	<img class = center src='/static/experiments/beast_fmri_test/images/redB.png'></img>	go	2050.0	2.0	36.0	go	target	B	89,Yellow Button	71,Green Button	700.0	800.0	2050.0	1950.0	0.0	n/a	700.0	0.0	ITI
177316	500	n/a	-1	-1	500	0.0	fixation	poldrack-single-stim	273	772122	0.0-13.37-0.37	beast_fmri_test	313	n/a	n/a	<div class = centerbox><div class = fixation>+</div></div>	none	500.0	test	n/a	n/a	n/a	n/a	n/a	n/a	n/a	n/a	n/a	n/a	n/a	n/a	n/a	n/a	n/a	n/a	n/a	n/a	fixation
175455.26222799998	800.0	n/a	-1	-1	2750	1862.737772	stim	stop-signal	274	774874	0.0-13.37-1.37	beast_fmri_test	313	772285,/,772965,/,773645,/,774325,/,775005,/,775686,/,776365,/	t,t,t,t,t,t,t	<img class = center src='/static/experiments/beast_fmri_test/images/B.png'></img>	89,71	2750.0	test	<img class = center src='/static/experiments/beast_fmri_test/images/redB.png'></img>	stop	1950.0	2.0	37.0	stop	non-target	B	89,Yellow Button	71,Green Button	700.0	800.0	2050.0	1950.0	0.0	1.0	800.0	0.0	go_stim
177405.26222799998	1950.0	n/a	-1	-1	2750	1862.737772	stim	stop-signal	274	774874	0.0-13.37-1.37	beast_fmri_test	313	772285,/,772965,/,773645,/,774325,/,775005,/,775686,/,776365,/	t,t,t,t,t,t,t	<img class = center src='/static/experiments/beast_fmri_test/images/B.png'></img>	89,71	2750.0	test	<img class = center src='/static/experiments/beast_fmri_test/images/redB.png'></img>	stop	1950.0	2.0	37.0	stop	non-target	B	89,Yellow Button	71,Green Button	700.0	800.0	2050.0	1950.0	0.0	1.0	800.0	0.0	stop_stim
178205.26222799998	1862.7377719999999	n/a	-1	-1	2750	1862.737772	stim	stop-signal	274	774874	0.0-13.37-1.37	beast_fmri_test	313	772285,/,772965,/,773645,/,774325,/,775005,/,775686,/,776365,/	t,t,t,t,t,t,t	<img class = center src='/static/experiments/beast_fmri_test/images/B.png'></img>	89,71	2750.0	test	<img class = center src='/static/experiments/beast_fmri_test/images/redB.png'></img>	stop	1950.0	2.0	37.0	stop	non-target	B	89,Yellow Button	71,Green Button	700.0	800.0	2050.0	1950.0	0.0	1.0	800.0	0.0	ITI
182442	500	n/a	-1	-1	500	0.0	fixation	poldrack-single-stim	275	777248	0.0-13.38-0.38	beast_fmri_test	313	777045,/	t	<div class = centerbox><div class = fixation>+</div></div>	none	500.0	test	n/a	n/a	n/a	n/a	n/a	n/a	n/a	n/a	n/a	n/a	n/a	n/a	n/a	n/a	n/a	n/a	n/a	n/a	fixation
181061.64206300001	2750	n/a	1649	71	2750	1381.357937	stim	stop-signal	276	779999	0.0-13.38-1.38	beast_fmri_test	313	777725,/,778405,/,779085,/,779765,/,780446,/,781126,/	t,t,t,t,t,t	<img class = center src='/static/experiments/beast_fmri_test/images/V.png'></img>	89,71	2750.0	test	<img class = center src='/static/experiments/beast_fmri_test/images/redV.png'></img>	go	1900.0	2.0	38.0	go	non-target	V	89,Yellow Button	71,Green Button	700.0	850.0	2050.0	1900.0	1.0	n/a	850.0	1.0	go_stim
183811.64206300001	1381.357937	n/a	1649	71	2750	1381.357937	stim	stop-signal	276	779999	0.0-13.38-1.38	beast_fmri_test	313	777725,/,778405,/,779085,/,779765,/,780446,/,781126,/	t,t,t,t,t,t	<img class = center src='/static/experiments/beast_fmri_test/images/V.png'></img>	89,71	2750.0	test	<img class = center src='/static/experiments/beast_fmri_test/images/redV.png'></img>	go	1900.0	2.0	38.0	go	non-target	V	89,Yellow Button	71,Green Button	700.0	850.0	2050.0	1900.0	1.0	n/a	850.0	1.0	ITI
187088	500	n/a	-1	-1	500	0.0	fixation	poldrack-single-stim	277	781894	0.0-13.39-0.39	beast_fmri_test	313	781805,/	t	<div class = centerbox><div class = fixation>+</div></div>	none	500.0	test	n/a	n/a	n/a	n/a	n/a	n/a	n/a	n/a	n/a	n/a	n/a	n/a	n/a	n/a	n/a	n/a	n/a	n/a	fixation
184818.32423699996	700.0	n/a	-1	-1	2750	2271.675763	stim	stop-signal	278	784646	0.0-13.39-1.39	beast_fmri_test	313	782485,/,783166,/,783845,/,784526,/,785206,/,785886,/,786565,/	t,t,t,t,t,t,t	<img class = center src='/static/experiments/beast_fmri_test/images/B.png'></img>	89,71	2750.0	test	<img class = center src='/static/experiments/beast_fmri_test/images/redB.png'></img>	stop	2050.0	2.0	39.0	stop	target	B	89,Yellow Button	71,Green Button	700.0	850.0	2050.0	1900.0	0.0	1.0	700.0	0.0	go_stim
186868.32423699996	2050.0	n/a	-1	-1	2750	2271.675763	stim	stop-signal	278	784646	0.0-13.39-1.39	beast_fmri_test	313	782485,/,783166,/,783845,/,784526,/,785206,/,785886,/,786565,/	t,t,t,t,t,t,t	<img class = center src='/static/experiments/beast_fmri_test/images/B.png'></img>	89,71	2750.0	test	<img class = center src='/static/experiments/beast_fmri_test/images/redB.png'></img>	stop	2050.0	2.0	39.0	stop	target	B	89,Yellow Button	71,Green Button	700.0	850.0	2050.0	1900.0	0.0	1.0	700.0	0.0	stop_stim
187568.32423699996	2271.6757629999997	n/a	-1	-1	2750	2271.675763	stim	stop-signal	278	784646	0.0-13.39-1.39	beast_fmri_test	313	782485,/,783166,/,783845,/,784526,/,785206,/,785886,/,786565,/	t,t,t,t,t,t,t	<img class = center src='/static/experiments/beast_fmri_test/images/B.png'></img>	89,71	2750.0	test	<img class = center src='/static/experiments/beast_fmri_test/images/redB.png'></img>	stop	2050.0	2.0	39.0	stop	target	B	89,Yellow Button	71,Green Button	700.0	850.0	2050.0	1900.0	0.0	1.0	700.0	0.0	ITI
192625	500	n/a	-1	-1	500	0.0	fixation	poldrack-single-stim	279	787431	0.0-13.40-0.40	beast_fmri_test	313	787245,/	t	<div class = centerbox><div class = fixation>+</div></div>	none	500.0	test	n/a	n/a	n/a	n/a	n/a	n/a	n/a	n/a	n/a	n/a	n/a	n/a	n/a	n/a	n/a	n/a	n/a	n/a	fixation
192232.41706200002	2750	n/a	1061	89	2750	395.582938	stim	stop-signal	280	790184	0.0-13.40-1.40	beast_fmri_test	313	787925,/,788605,/,789285,/,789965,/	t,t,t,t	<img class = center src='/static/experiments/beast_fmri_test/images/B.png'></img>	89,71	2750.0	test	<img class = center src='/static/experiments/beast_fmri_test/images/redB.png'></img>	go	1900.0	2.0	40.0	go	non-target	B	89,Yellow Button	71,Green Button	750.0	850.0	2050.0	1900.0	0.0	n/a	850.0	0.0	go_stim
194982.41706200002	395.58293800000001	n/a	1061	89	2750	395.582938	stim	stop-signal	280	790184	0.0-13.40-1.40	beast_fmri_test	313	787925,/,788605,/,789285,/,789965,/	t,t,t,t	<img class = center src='/static/experiments/beast_fmri_test/images/B.png'></img>	89,71	2750.0	test	<img class = center src='/static/experiments/beast_fmri_test/images/redB.png'></img>	go	1900.0	2.0	40.0	go	non-target	B	89,Yellow Button	71,Green Button	750.0	850.0	2050.0	1900.0	0.0	n/a	850.0	0.0	ITI
196286	500	n/a	-1	-1	500	0.0	fixation	poldrack-single-stim	281	791092	0.0-13.41-0.41	beast_fmri_test	313	790646,/	t	<div class = centerbox><div class = fixation>+</div></div>	none	500.0	test	n/a	n/a	n/a	n/a	n/a	n/a	n/a	n/a	n/a	n/a	n/a	n/a	n/a	n/a	n/a	n/a	n/a	n/a	fixation
195325.73707290005	2750	n/a	1406	71	2750	962.2629271	stim	stop-signal	282	793844	0.0-13.41-1.41	beast_fmri_test	313	791325,/,792006,/,792686,/,793365,/,794045,/,794725,/	t,t,t,t,t,t	<img class = center src='/static/experiments/beast_fmri_test/images/B.png'></img>	89,71	2750.0	test	<img class = center src='/static/experiments/beast_fmri_test/images/redB.png'></img>	go	2000.0	2.0	41.0	go	target	B	89,Yellow Button	71,Green Button	750.0	850.0	2000.0	1900.0	0.0	n/a	750.0	0.0	go_stim
198075.73707290005	962.26292709999996	n/a	1406	71	2750	962.2629271	stim	stop-signal	282	793844	0.0-13.41-1.41	beast_fmri_test	313	791325,/,792006,/,792686,/,793365,/,794045,/,794725,/	t,t,t,t,t,t	<img class = center src='/static/experiments/beast_fmri_test/images/B.png'></img>	89,71	2750.0	test	<img class = center src='/static/experiments/beast_fmri_test/images/redB.png'></img>	go	2000.0	2.0	41.0	go	target	B	89,Yellow Button	71,Green Button	750.0	850.0	2000.0	1900.0	0.0	n/a	750.0	0.0	ITI
200516	500	n/a	-1	-1	500	0.0	fixation	poldrack-single-stim	283	795322	0.0-13.42-0.42	beast_fmri_test	313	n/a	n/a	<div class = centerbox><div class = fixation>+</div></div>	none	500.0	test	n/a	n/a	n/a	n/a	n/a	n/a	n/a	n/a	n/a	n/a	n/a	n/a	n/a	n/a	n/a	n/a	n/a	n/a	fixation
200445.97633734997	850.0	n/a	2118	71	2750	71.02366265	stim	stop-signal	284	798073	0.0-13.42-1.42	beast_fmri_test	313	795406,/,796086,/,796765,/,797445,/,798125,/	t,t,t,t,t	<img class = center src='/static/experiments/beast_fmri_test/images/P.png'></img>	89,71	2750.0	test	<img class = center src='/static/experiments/beast_fmri_test/images/redP.png'></img>	stop	1900.0	2.0	42.0	stop	non-target	P	89,Yellow Button	71,Green Button	750.0	850.0	2000.0	1900.0	0.0	0.0	850.0	1.0	go_stim
202345.97633734997	1900.0	n/a	2118	71	2750	71.02366265	stim	stop-signal	284	798073	0.0-13.42-1.42	beast_fmri_test	313	795406,/,796086,/,796765,/,797445,/,798125,/	t,t,t,t,t	<img class = center src='/static/experiments/beast_fmri_test/images/P.png'></img>	89,71	2750.0	test	<img class = center src='/static/experiments/beast_fmri_test/images/redP.png'></img>	stop	1900.0	2.0	42.0	stop	non-target	P	89,Yellow Button	71,Green Button	750.0	850.0	2000.0	1900.0	0.0	0.0	850.0	1.0	stop_stim
203195.97633734997	71.023662650000006	n/a	2118	71	2750	71.02366265	stim	stop-signal	284	798073	0.0-13.42-1.42	beast_fmri_test	313	795406,/,796086,/,796765,/,797445,/,798125,/	t,t,t,t,t	<img class = center src='/static/experiments/beast_fmri_test/images/P.png'></img>	89,71	2750.0	test	<img class = center src='/static/experiments/beast_fmri_test/images/redP.png'></img>	stop	1900.0	2.0	42.0	stop	non-target	P	89,Yellow Button	71,Green Button	750.0	850.0	2000.0	1900.0	0.0	0.0	850.0	1.0	ITI
203852	500	n/a	-1	-1	500	0.0	fixation	poldrack-single-stim	285	798658	0.0-13.43-0.43	beast_fmri_test	313	n/a	n/a	<div class = centerbox><div class = fixation>+</div></div>	none	500.0	test	n/a	n/a	n/a	n/a	n/a	n/a	n/a	n/a	n/a	n/a	n/a	n/a	n/a	n/a	n/a	n/a	n/a	n/a	fixation
203557.15187119995	2750	n/a	2266	71	2750	295.8481288	stim	stop-signal	286	801409	0.0-13.43-1.43	beast_fmri_test	313	798805,/,799485,/,800165,/,800845,/,801525,/	t,t,t,t,t	<img class = center src='/static/experiments/beast_fmri_test/images/V.png'></img>	89,71	2750.0	test	<img class = center src='/static/experiments/beast_fmri_test/images/redV.png'></img>	go	1950.0	2.0	43.0	go	non-target	V	89,Yellow Button	71,Green Button	750.0	800.0	2000.0	1950.0	1.0	n/a	800.0	1.0	go_stim
206307.15187119995	295.84812880000004	n/a	2266	71	2750	295.8481288	stim	stop-signal	286	801409	0.0-13.43-1.43	beast_fmri_test	313	798805,/,799485,/,800165,/,800845,/,801525,/	t,t,t,t,t	<img class = center src='/static/experiments/beast_fmri_test/images/V.png'></img>	89,71	2750.0	test	<img class = center src='/static/experiments/beast_fmri_test/images/redV.png'></img>	go	1950.0	2.0	43.0	go	non-target	V	89,Yellow Button	71,Green Button	750.0	800.0	2000.0	1950.0	1.0	n/a	800.0	1.0	ITI
207411	500	n/a	-1	-1	500	0.0	fixation	poldrack-single-stim	287	802217	0.0-13.44-0.44	beast_fmri_test	313	802205,/	t	<div class = centerbox><div class = fixation>+</div></div>	none	500.0	test	n/a	n/a	n/a	n/a	n/a	n/a	n/a	n/a	n/a	n/a	n/a	n/a	n/a	n/a	n/a	n/a	n/a	n/a	fixation
207404.49738653901	2750	n/a	1812	71	2750	9.502613461	stim	stop-signal	288	804970	0.0-13.44-1.44	beast_fmri_test	313	802885,/,803565,/,804245,/,804924,/	t,t,t,t	<img class = center src='/static/experiments/beast_fmri_test/images/T.png'></img>	89,71	2750.0	test	<img class = center src='/static/experiments/beast_fmri_test/images/redT.png'></img>	go	1950.0	2.0	44.0	go	non-target	T	89,Yellow Button	71,Green Button	750.0	800.0	2000.0	1950.0	1.0	n/a	800.0	1.0	go_stim
210154.49738653901	9.502613461000001	n/a	1812	71	2750	9.502613461	stim	stop-signal	288	804970	0.0-13.44-1.44	beast_fmri_test	313	802885,/,803565,/,804245,/,804924,/	t,t,t,t	<img class = center src='/static/experiments/beast_fmri_test/images/T.png'></img>	89,71	2750.0	test	<img class = center src='/static/experiments/beast_fmri_test/images/redT.png'></img>	go	1950.0	2.0	44.0	go	non-target	T	89,Yellow Button	71,Green Button	750.0	800.0	2000.0	1950.0	1.0	n/a	800.0	1.0	ITI
210686	500	n/a	-1	-1	500	0.0	fixation	poldrack-single-stim	289	805492	0.0-13.45-0.45	beast_fmri_test	313	n/a	n/a	<div class = centerbox><div class = fixation>+</div></div>	none	500.0	test	n/a	n/a	n/a	n/a	n/a	n/a	n/a	n/a	n/a	n/a	n/a	n/a	n/a	n/a	n/a	n/a	n/a	n/a	fixation
210384.58060260001	2750	n/a	1829	89	2750	303.4193974	stim	stop-signal	290	808244	0.0-13.45-1.45	beast_fmri_test	313	805605,/,806285,/,806965,/,807645,/,808325,/	t,t,t,t,t	<img class = center src='/static/experiments/beast_fmri_test/images/V.png'></img>	89,71	2750.0	test	<img class = center src='/static/experiments/beast_fmri_test/images/redV.png'></img>	go	2000.0	2.0	45.0	go	target	V	89,Yellow Button	71,Green Button	750.0	800.0	2000.0	1950.0	1.0	n/a	750.0	1.0	go_stim
213134.58060260001	303.41939739999998	n/a	1829	89	2750	303.4193974	stim	stop-signal	290	808244	0.0-13.45-1.45	beast_fmri_test	313	805605,/,806285,/,806965,/,807645,/,808325,/	t,t,t,t,t	<img class = center src='/static/experiments/beast_fmri_test/images/V.png'></img>	89,71	2750.0	test	<img class = center src='/static/experiments/beast_fmri_test/images/redV.png'></img>	go	2000.0	2.0	45.0	go	target	V	89,Yellow Button	71,Green Button	750.0	800.0	2000.0	1950.0	1.0	n/a	750.0	1.0	ITI
214256	500	n/a	-1	-1	500	0.0	fixation	poldrack-single-stim	291	809062	0.0-13.46-0.46	beast_fmri_test	313	809005,/	t	<div class = centerbox><div class = fixation>+</div></div>	none	500.0	test	n/a	n/a	n/a	n/a	n/a	n/a	n/a	n/a	n/a	n/a	n/a	n/a	n/a	n/a	n/a	n/a	n/a	n/a	fixation
212906.57281499996	2750	n/a	1760	71	2750	1350.427185	stim	stop-signal	292	811813	0.0-13.46-1.46	beast_fmri_test	313	809685,/,810365,/,811044,/,811724,/,812405,/,813085,/	t,t,t,t,t,t	<img class = center src='/static/experiments/beast_fmri_test/images/P.png'></img>	89,71	2750.0	test	<img class = center src='/static/experiments/beast_fmri_test/images/redP.png'></img>	go	1950.0	2.0	46.0	go	non-target	P	89,Yellow Button	71,Green Button	750.0	800.0	2000.0	1950.0	1.0	n/a	800.0	1.0	go_stim
215656.57281499996	1350.427185	n/a	1760	71	2750	1350.427185	stim	stop-signal	292	811813	0.0-13.46-1.46	beast_fmri_test	313	809685,/,810365,/,811044,/,811724,/,812405,/,813085,/	t,t,t,t,t,t	<img class = center src='/static/experiments/beast_fmri_test/images/P.png'></img>	89,71	2750.0	test	<img class = center src='/static/experiments/beast_fmri_test/images/redP.png'></img>	go	1950.0	2.0	46.0	go	non-target	P	89,Yellow Button	71,Green Button	750.0	800.0	2000.0	1950.0	1.0	n/a	800.0	1.0	ITI
233371	15000	n/a	-1	-1	15000	0.0	practice-no-stop-feedback	poldrack-single-stim	293	828177	0.0-14.0	beast_fmri_test	313	813766,/,814446,/,815125,/,815805,/,816486,/,817166,/,817846,/,818526,/,819205,/,819885,/,820566,/,821245,/,821926,/,822605,/,823286,/,823966,/,824645,/,825325,/,826005,/,826686,/,827365,/,828046,/	t,t,t,t,t,t,t,t,t,t,t,t,t,t,t,t,t,t,t,t,t,t	"<div class = ""centerbox""><p class = ""center-block-text"">Your delay is 2 trials.</p><p class = center-block-text>Please wait for the scanner to start the block</p></div>"	77	15000.0	n/a	n/a	n/a	n/a	n/a	n/a	n/a	n/a	n/a	n/a	n/a	n/a	n/a	n/a	n/a	n/a	n/a	n/a	n/a	practice-no-stop-feedback
233873	500	n/a	-1	-1	500	0.0	fixation	poldrack-single-stim	294	828679	0.0-15.0-0.0	beast_fmri_test	313	n/a	n/a	<div class = centerbox><div class = fixation>+</div></div>	none	500.0	test	n/a	n/a	n/a	n/a	n/a	n/a	n/a	n/a	n/a	n/a	n/a	n/a	n/a	n/a	n/a	n/a	n/a	n/a	fixation
231777.70602299995	2750	n/a	2729	71	2750	2096.293977	stim	stop-signal	295	831430	0.0-15.0-1.0	beast_fmri_test	313	828725,/,829405,/,830085,/,830765,/,831445,/,832125,/,832805,/,833485,/	t,t,t,t,t,t,t,t	<img class = center src='/static/experiments/beast_fmri_test/images/P.png'></img>	89,71	2750.0	test	<img class = center src='/static/experiments/beast_fmri_test/images/redP.png'></img>	go	-1.0	2.0	0.0	go	temp-non-target	P	89,Yellow Button	71,Green Button	750.0	800.0	2000.0	1950.0	0.0	n/a	n/a	n/a	go_stim
234527.70602299995	2096.2939769999998	n/a	2729	71	2750	2096.293977	stim	stop-signal	295	831430	0.0-15.0-1.0	beast_fmri_test	313	828725,/,829405,/,830085,/,830765,/,831445,/,832125,/,832805,/,833485,/	t,t,t,t,t,t,t,t	<img class = center src='/static/experiments/beast_fmri_test/images/P.png'></img>	89,71	2750.0	test	<img class = center src='/static/experiments/beast_fmri_test/images/redP.png'></img>	go	-1.0	2.0	0.0	go	temp-non-target	P	89,Yellow Button	71,Green Button	750.0	800.0	2000.0	1950.0	0.0	n/a	n/a	n/a	ITI
239232	500	n/a	-1	-1	500	0.0	fixation	poldrack-single-stim	296	834038	0.0-15.1-0.1	beast_fmri_test	313	n/a	n/a	<div class = centerbox><div class = fixation>+</div></div>	none	500.0	test	n/a	n/a	n/a	n/a	n/a	n/a	n/a	n/a	n/a	n/a	n/a	n/a	n/a	n/a	n/a	n/a	n/a	n/a	fixation
238694.38688640005	2750	n/a	1341	71	2750	539.6131136	stim	stop-signal	297	836790	0.0-15.1-1.1	beast_fmri_test	313	834165,/,834845,/,835525,/,836205,/,836886,/	t,t,t,t,t	<img class = center src='/static/experiments/beast_fmri_test/images/D.png'></img>	89,71	2750.0	test	<img class = center src='/static/experiments/beast_fmri_test/images/redD.png'></img>	go	-1.0	2.0	1.0	go	temp-non-target	D	89,Yellow Button	71,Green Button	750.0	800.0	2000.0	1950.0	0.0	n/a	n/a	n/a	go_stim
241444.38688640005	539.61311360000002	n/a	1341	71	2750	539.6131136	stim	stop-signal	297	836790	0.0-15.1-1.1	beast_fmri_test	313	834165,/,834845,/,835525,/,836205,/,836886,/	t,t,t,t,t	<img class = center src='/static/experiments/beast_fmri_test/images/D.png'></img>	89,71	2750.0	test	<img class = center src='/static/experiments/beast_fmri_test/images/redD.png'></img>	go	-1.0	2.0	1.0	go	temp-non-target	D	89,Yellow Button	71,Green Button	750.0	800.0	2000.0	1950.0	0.0	n/a	n/a	n/a	ITI
243038	500	n/a	-1	-1	500	0.0	fixation	poldrack-single-stim	298	837844	0.0-15.2-0.2	beast_fmri_test	313	837565,/	t	<div class = centerbox><div class = fixation>+</div></div>	none	500.0	test	n/a	n/a	n/a	n/a	n/a	n/a	n/a	n/a	n/a	n/a	n/a	n/a	n/a	n/a	n/a	n/a	n/a	n/a	fixation
240215.10979999998	2750	n/a	1178	71	2750	2824.8902	stim	stop-signal	299	840596	0.0-15.2-1.2	beast_fmri_test	313	838245,/,838925,/,839605,/,840285,/,840965,/,841645,/,842325,/,843005,/	t,t,t,t,t,t,t,t	<img class = center src='/static/experiments/beast_fmri_test/images/V.png'></img>	89,71	2750.0	test	<img class = center src='/static/experiments/beast_fmri_test/images/redV.png'></img>	go	1950.0	2.0	2.0	go	non-target	V	89,Yellow Button	71,Green Button	750.0	800.0	2000.0	1950.0	1.0	n/a	800.0	1.0	go_stim
242965.10979999998	2824.8901999999998	n/a	1178	71	2750	2824.8902	stim	stop-signal	299	840596	0.0-15.2-1.2	beast_fmri_test	313	838245,/,838925,/,839605,/,840285,/,840965,/,841645,/,842325,/,843005,/	t,t,t,t,t,t,t,t	<img class = center src='/static/experiments/beast_fmri_test/images/V.png'></img>	89,71	2750.0	test	<img class = center src='/static/experiments/beast_fmri_test/images/redV.png'></img>	go	1950.0	2.0	2.0	go	non-target	V	89,Yellow Button	71,Green Button	750.0	800.0	2000.0	1950.0	1.0	n/a	800.0	1.0	ITI
249128	500	n/a	-1	-1	500	0.0	fixation	poldrack-single-stim	300	843934	0.0-15.3-0.3	beast_fmri_test	313	843685,/	t	<div class = centerbox><div class = fixation>+</div></div>	none	500.0	test	n/a	n/a	n/a	n/a	n/a	n/a	n/a	n/a	n/a	n/a	n/a	n/a	n/a	n/a	n/a	n/a	n/a	n/a	fixation
247301.71049199998	2750	n/a	1133	71	2750	1827.289508	stim	stop-signal	301	846685	0.0-15.3-1.3	beast_fmri_test	313	844365,/,845045,/,845724,/,846405,/,847086,/,847765,/,848445,/	t,t,t,t,t,t,t	<img class = center src='/static/experiments/beast_fmri_test/images/B.png'></img>	89,71	2750.0	test	<img class = center src='/static/experiments/beast_fmri_test/images/redB.png'></img>	go	1950.0	2.0	3.0	go	non-target	B	89,Yellow Button	71,Green Button	750.0	800.0	2000.0	1950.0	1.0	n/a	800.0	1.0	go_stim
250051.71049199998	1827.2895079999998	n/a	1133	71	2750	1827.289508	stim	stop-signal	301	846685	0.0-15.3-1.3	beast_fmri_test	313	844365,/,845045,/,845724,/,846405,/,847086,/,847765,/,848445,/	t,t,t,t,t,t,t	<img class = center src='/static/experiments/beast_fmri_test/images/B.png'></img>	89,71	2750.0	test	<img class = center src='/static/experiments/beast_fmri_test/images/redB.png'></img>	go	1950.0	2.0	3.0	go	non-target	B	89,Yellow Button	71,Green Button	750.0	800.0	2000.0	1950.0	1.0	n/a	800.0	1.0	ITI
254219	500	n/a	-1	-1	500	0.0	fixation	poldrack-single-stim	302	849025	0.0-15.4-0.4	beast_fmri_test	313	n/a	n/a	<div class = centerbox><div class = fixation>+</div></div>	none	500.0	test	n/a	n/a	n/a	n/a	n/a	n/a	n/a	n/a	n/a	n/a	n/a	n/a	n/a	n/a	n/a	n/a	n/a	n/a	fixation
252770.59482600004	2750	n/a	1965	71	2750	1449.405174	stim	stop-signal	303	851776	0.0-15.4-1.4	beast_fmri_test	313	849125,/,849805,/,850486,/,851166,/,851845,/,852525,/,853206,/	t,t,t,t,t,t,t	<img class = center src='/static/experiments/beast_fmri_test/images/B.png'></img>	89,71	2750.0	test	<img class = center src='/static/experiments/beast_fmri_test/images/redB.png'></img>	go	1950.0	2.0	4.0	go	non-target	B	89,Yellow Button	71,Green Button	750.0	800.0	2000.0	1950.0	1.0	n/a	800.0	1.0	go_stim
255520.59482600004	1449.405174	n/a	1965	71	2750	1449.405174	stim	stop-signal	303	851776	0.0-15.4-1.4	beast_fmri_test	313	849125,/,849805,/,850486,/,851166,/,851845,/,852525,/,853206,/	t,t,t,t,t,t,t	<img class = center src='/static/experiments/beast_fmri_test/images/B.png'></img>	89,71	2750.0	test	<img class = center src='/static/experiments/beast_fmri_test/images/redB.png'></img>	go	1950.0	2.0	4.0	go	non-target	B	89,Yellow Button	71,Green Button	750.0	800.0	2000.0	1950.0	1.0	n/a	800.0	1.0	ITI
258934	500	n/a	-1	-1	500	0.0	fixation	poldrack-single-stim	304	853740	0.0-15.5-0.5	beast_fmri_test	313	n/a	n/a	<div class = centerbox><div class = fixation>+</div></div>	none	500.0	test	n/a	n/a	n/a	n/a	n/a	n/a	n/a	n/a	n/a	n/a	n/a	n/a	n/a	n/a	n/a	n/a	n/a	n/a	fixation
258192.36014779995	2750	n/a	740	71	2750	743.6398522	stim	stop-signal	305	856492	0.0-15.5-1.5	beast_fmri_test	313	853885,/,854565,/,855246,/,855925,/,856605,/	t,t,t,t,t	<img class = center src='/static/experiments/beast_fmri_test/images/T.png'></img>	89,71	2750.0	test	<img class = center src='/static/experiments/beast_fmri_test/images/redT.png'></img>	go	1950.0	2.0	5.0	go	non-target	T	89,Yellow Button	71,Green Button	750.0	800.0	2000.0	1950.0	1.0	n/a	800.0	1.0	go_stim
260942.36014779995	743.63985220000006	n/a	740	71	2750	743.6398522	stim	stop-signal	305	856492	0.0-15.5-1.5	beast_fmri_test	313	853885,/,854565,/,855246,/,855925,/,856605,/	t,t,t,t,t	<img class = center src='/static/experiments/beast_fmri_test/images/T.png'></img>	89,71	2750.0	test	<img class = center src='/static/experiments/beast_fmri_test/images/redT.png'></img>	go	1950.0	2.0	5.0	go	non-target	T	89,Yellow Button	71,Green Button	750.0	800.0	2000.0	1950.0	1.0	n/a	800.0	1.0	ITI
262946	500	n/a	-1	-1	500	0.0	fixation	poldrack-single-stim	306	857752	0.0-15.6-0.6	beast_fmri_test	313	857286,/	t	<div class = centerbox><div class = fixation>+</div></div>	none	500.0	test	n/a	n/a	n/a	n/a	n/a	n/a	n/a	n/a	n/a	n/a	n/a	n/a	n/a	n/a	n/a	n/a	n/a	n/a	fixation
261905.01252700004	750.0	n/a	-1	-1	2750	1042.987473	stim	stop-signal	307	860504	0.0-15.6-1.6	beast_fmri_test	313	857965,/,858645,/,859325,/,860005,/,860685,/,861365,/	t,t,t,t,t,t	<img class = center src='/static/experiments/beast_fmri_test/images/B.png'></img>	89,71	2750.0	test	<img class = center src='/static/experiments/beast_fmri_test/images/redB.png'></img>	stop	2000.0	2.0	6.0	stop	target	B	89,Yellow Button	71,Green Button	750.0	800.0	2000.0	1950.0	0.0	1.0	750.0	0.0	go_stim
263905.01252700004	2000.0	n/a	-1	-1	2750	1042.987473	stim	stop-signal	307	860504	0.0-15.6-1.6	beast_fmri_test	313	857965,/,858645,/,859325,/,860005,/,860685,/,861365,/	t,t,t,t,t,t	<img class = center src='/static/experiments/beast_fmri_test/images/B.png'></img>	89,71	2750.0	test	<img class = center src='/static/experiments/beast_fmri_test/images/redB.png'></img>	stop	2000.0	2.0	6.0	stop	target	B	89,Yellow Button	71,Green Button	750.0	800.0	2000.0	1950.0	0.0	1.0	750.0	0.0	stop_stim
264655.01252700004	1042.9874730000001	n/a	-1	-1	2750	1042.987473	stim	stop-signal	307	860504	0.0-15.6-1.6	beast_fmri_test	313	857965,/,858645,/,859325,/,860005,/,860685,/,861365,/	t,t,t,t,t,t	<img class = center src='/static/experiments/beast_fmri_test/images/B.png'></img>	89,71	2750.0	test	<img class = center src='/static/experiments/beast_fmri_test/images/redB.png'></img>	stop	2000.0	2.0	6.0	stop	target	B	89,Yellow Button	71,Green Button	750.0	800.0	2000.0	1950.0	0.0	1.0	750.0	0.0	ITI
267253	500	n/a	-1	-1	500	0.0	fixation	poldrack-single-stim	308	862059	0.0-15.7-0.7	beast_fmri_test	313	862045,/	t	<div class = centerbox><div class = fixation>+</div></div>	none	500.0	test	n/a	n/a	n/a	n/a	n/a	n/a	n/a	n/a	n/a	n/a	n/a	n/a	n/a	n/a	n/a	n/a	n/a	n/a	fixation
264916.45862599998	2750	n/a	1252	89	2750	2338.541374	stim	stop-signal	309	864811	0.0-15.7-1.7	beast_fmri_test	313	862725,/,863405,/,864085,/,864765,/,865445,/,866125,/,866805,/	t,t,t,t,t,t,t	<img class = center src='/static/experiments/beast_fmri_test/images/T.png'></img>	89,71	2750.0	test	<img class = center src='/static/experiments/beast_fmri_test/images/redT.png'></img>	go	1950.0	2.0	7.0	go	target	T	89,Yellow Button	71,Green Button	800.0	800.0	1950.0	1950.0	1.0	n/a	800.0	1.0	go_stim
267666.45862599998	2338.5413739999999	n/a	1252	89	2750	2338.541374	stim	stop-signal	309	864811	0.0-15.7-1.7	beast_fmri_test	313	862725,/,863405,/,864085,/,864765,/,865445,/,866125,/,866805,/	t,t,t,t,t,t,t	<img class = center src='/static/experiments/beast_fmri_test/images/T.png'></img>	89,71	2750.0	test	<img class = center src='/static/experiments/beast_fmri_test/images/redT.png'></img>	go	1950.0	2.0	7.0	go	target	T	89,Yellow Button	71,Green Button	800.0	800.0	1950.0	1950.0	1.0	n/a	800.0	1.0	ITI
272858	500	n/a	-1	-1	500	0.0	fixation	poldrack-single-stim	310	867664	0.0-15.8-0.8	beast_fmri_test	313	867486,/	t	<div class = centerbox><div class = fixation>+</div></div>	none	500.0	test	n/a	n/a	n/a	n/a	n/a	n/a	n/a	n/a	n/a	n/a	n/a	n/a	n/a	n/a	n/a	n/a	n/a	n/a	fixation
270438.53505900002	2750	n/a	995	89	2750	2420.464941	stim	stop-signal	311	870415	0.0-15.8-1.8	beast_fmri_test	313	868165,/,868845,/,869525,/,870205,/,870884,/,871565,/,872245,/	t,t,t,t,t,t,t	<img class = center src='/static/experiments/beast_fmri_test/images/B.png'></img>	89,71	2750.0	test	<img class = center src='/static/experiments/beast_fmri_test/images/redB.png'></img>	go	1950.0	2.0	8.0	go	target	B	89,Yellow Button	71,Green Button	800.0	800.0	1950.0	1950.0	1.0	n/a	800.0	1.0	go_stim
273188.53505900002	2420.4649410000002	n/a	995	89	2750	2420.464941	stim	stop-signal	311	870415	0.0-15.8-1.8	beast_fmri_test	313	868165,/,868845,/,869525,/,870205,/,870884,/,871565,/,872245,/	t,t,t,t,t,t,t	<img class = center src='/static/experiments/beast_fmri_test/images/B.png'></img>	89,71	2750.0	test	<img class = center src='/static/experiments/beast_fmri_test/images/redB.png'></img>	go	1950.0	2.0	8.0	go	target	B	89,Yellow Button	71,Green Button	800.0	800.0	1950.0	1950.0	1.0	n/a	800.0	1.0	ITI
278545	500	n/a	-1	-1	500	0.0	fixation	poldrack-single-stim	312	873351	0.0-15.9-0.9	beast_fmri_test	313	872925,/	t	<div class = centerbox><div class = fixation>+</div></div>	none	500.0	test	n/a	n/a	n/a	n/a	n/a	n/a	n/a	n/a	n/a	n/a	n/a	n/a	n/a	n/a	n/a	n/a	n/a	n/a	fixation
276954.90019499999	2750	n/a	1231	71	2750	1592.099805	stim	stop-signal	313	876103	0.0-15.9-1.9	beast_fmri_test	313	873605,/,874285,/,874965,/,875644,/,876325,/,877005,/,877686,/	t,t,t,t,t,t,t	<img class = center src='/static/experiments/beast_fmri_test/images/D.png'></img>	89,71	2750.0	test	<img class = center src='/static/experiments/beast_fmri_test/images/redD.png'></img>	go	1950.0	2.0	9.0	go	non-target	D	89,Yellow Button	71,Green Button	800.0	800.0	1950.0	1950.0	1.0	n/a	800.0	1.0	go_stim
279704.90019499999	1592.0998050000001	n/a	1231	71	2750	1592.099805	stim	stop-signal	313	876103	0.0-15.9-1.9	beast_fmri_test	313	873605,/,874285,/,874965,/,875644,/,876325,/,877005,/,877686,/	t,t,t,t,t,t,t	<img class = center src='/static/experiments/beast_fmri_test/images/D.png'></img>	89,71	2750.0	test	<img class = center src='/static/experiments/beast_fmri_test/images/redD.png'></img>	go	1950.0	2.0	9.0	go	non-target	D	89,Yellow Button	71,Green Button	800.0	800.0	1950.0	1950.0	1.0	n/a	800.0	1.0	ITI
283404	500	n/a	-1	-1	500	0.0	fixation	poldrack-single-stim	314	878210	0.0-15.10-0.10	beast_fmri_test	313	n/a	n/a	<div class = centerbox><div class = fixation>+</div></div>	none	500.0	test	n/a	n/a	n/a	n/a	n/a	n/a	n/a	n/a	n/a	n/a	n/a	n/a	n/a	n/a	n/a	n/a	n/a	n/a	fixation
282708.48458279995	2750	n/a	1273	71	2750	697.5154172	stim	stop-signal	315	880962	0.0-15.10-1.10	beast_fmri_test	313	878365,/,879045,/,879725,/,880406,/,881085,/	t,t,t,t,t	<img class = center src='/static/experiments/beast_fmri_test/images/T.png'></img>	89,71	2750.0	test	<img class = center src='/static/experiments/beast_fmri_test/images/redT.png'></img>	go	1950.0	2.0	10.0	go	non-target	T	89,Yellow Button	71,Green Button	800.0	800.0	1950.0	1950.0	1.0	n/a	800.0	1.0	go_stim
285458.48458279995	697.5154172	n/a	1273	71	2750	697.5154172	stim	stop-signal	315	880962	0.0-15.10-1.10	beast_fmri_test	313	878365,/,879045,/,879725,/,880406,/,881085,/	t,t,t,t,t	<img class = center src='/static/experiments/beast_fmri_test/images/T.png'></img>	89,71	2750.0	test	<img class = center src='/static/experiments/beast_fmri_test/images/redT.png'></img>	go	1950.0	2.0	10.0	go	non-target	T	89,Yellow Button	71,Green Button	800.0	800.0	1950.0	1950.0	1.0	n/a	800.0	1.0	ITI
287370	500	n/a	-1	-1	500	0.0	fixation	poldrack-single-stim	316	882176	0.0-15.11-0.11	beast_fmri_test	313	881766,/	t	<div class = centerbox><div class = fixation>+</div></div>	none	500.0	test	n/a	n/a	n/a	n/a	n/a	n/a	n/a	n/a	n/a	n/a	n/a	n/a	n/a	n/a	n/a	n/a	n/a	n/a	fixation
283731.78474000003	800.0	n/a	-1	-1	2750	3639.21526	stim	stop-signal	317	884927	0.0-15.11-1.11	beast_fmri_test	313	882446,/,883126,/,883805,/,884486,/,885165,/,885845,/,886525,/,887205,/,887887,/,888565,/	t,t,t,t,t,t,t,t,t,t	<img class = center src='/static/experiments/beast_fmri_test/images/D.png'></img>	89,71	2750.0	test	<img class = center src='/static/experiments/beast_fmri_test/images/redD.png'></img>	stop	1950.0	2.0	11.0	stop	target	D	89,Yellow Button	71,Green Button	800.0	800.0	1950.0	1950.0	0.0	1.0	800.0	0.0	go_stim
285681.78474000003	1950.0	n/a	-1	-1	2750	3639.21526	stim	stop-signal	317	884927	0.0-15.11-1.11	beast_fmri_test	313	882446,/,883126,/,883805,/,884486,/,885165,/,885845,/,886525,/,887205,/,887887,/,888565,/	t,t,t,t,t,t,t,t,t,t	<img class = center src='/static/experiments/beast_fmri_test/images/D.png'></img>	89,71	2750.0	test	<img class = center src='/static/experiments/beast_fmri_test/images/redD.png'></img>	stop	1950.0	2.0	11.0	stop	target	D	89,Yellow Button	71,Green Button	800.0	800.0	1950.0	1950.0	0.0	1.0	800.0	0.0	stop_stim
286481.78474000003	3639.2152599999999	n/a	-1	-1	2750	3639.21526	stim	stop-signal	317	884927	0.0-15.11-1.11	beast_fmri_test	313	882446,/,883126,/,883805,/,884486,/,885165,/,885845,/,886525,/,887205,/,887887,/,888565,/	t,t,t,t,t,t,t,t,t,t	<img class = center src='/static/experiments/beast_fmri_test/images/D.png'></img>	89,71	2750.0	test	<img class = center src='/static/experiments/beast_fmri_test/images/redD.png'></img>	stop	1950.0	2.0	11.0	stop	target	D	89,Yellow Button	71,Green Button	800.0	800.0	1950.0	1950.0	0.0	1.0	800.0	0.0	ITI
294272	500	n/a	-1	-1	500	0.0	fixation	poldrack-single-stim	318	889078	0.0-15.12-0.12	beast_fmri_test	313	n/a	n/a	<div class = centerbox><div class = fixation>+</div></div>	none	500.0	test	n/a	n/a	n/a	n/a	n/a	n/a	n/a	n/a	n/a	n/a	n/a	n/a	n/a	n/a	n/a	n/a	n/a	n/a	fixation
294106.09279050003	2750	n/a	928	71	2750	167.9072095	stim	stop-signal	319	891830	0.0-15.12-1.12	beast_fmri_test	313	889245,/,889925,/,890605,/,891285,/,891965,/	t,t,t,t,t	<img class = center src='/static/experiments/beast_fmri_test/images/P.png'></img>	89,71	2750.0	test	<img class = center src='/static/experiments/beast_fmri_test/images/redP.png'></img>	go	1950.0	2.0	12.0	go	non-target	P	89,Yellow Button	71,Green Button	850.0	800.0	1950.0	1950.0	1.0	n/a	800.0	1.0	go_stim
296856.09279050003	167.90720949999999	n/a	928	71	2750	167.9072095	stim	stop-signal	319	891830	0.0-15.12-1.12	beast_fmri_test	313	889245,/,889925,/,890605,/,891285,/,891965,/	t,t,t,t,t	<img class = center src='/static/experiments/beast_fmri_test/images/P.png'></img>	89,71	2750.0	test	<img class = center src='/static/experiments/beast_fmri_test/images/redP.png'></img>	go	1950.0	2.0	12.0	go	non-target	P	89,Yellow Button	71,Green Button	850.0	800.0	1950.0	1950.0	1.0	n/a	800.0	1.0	ITI
297705	500	n/a	-1	-1	500	0.0	fixation	poldrack-single-stim	320	892511	0.0-15.13-0.13	beast_fmri_test	313	n/a	n/a	<div class = centerbox><div class = fixation>+</div></div>	none	500.0	test	n/a	n/a	n/a	n/a	n/a	n/a	n/a	n/a	n/a	n/a	n/a	n/a	n/a	n/a	n/a	n/a	n/a	n/a	fixation
297668.8831182	800.0	n/a	-1	-1	2750	38.1168818	stim	stop-signal	321	895263	0.0-15.13-1.13	beast_fmri_test	313	892645,/,893325,/,894006,/,894685,/	t,t,t,t	<img class = center src='/static/experiments/beast_fmri_test/images/P.png'></img>	89,71	2750.0	test	<img class = center src='/static/experiments/beast_fmri_test/images/redP.png'></img>	stop	1950.0	2.0	13.0	stop	non-target	P	89,Yellow Button	71,Green Button	850.0	800.0	1950.0	1950.0	0.0	1.0	800.0	0.0	go_stim
299618.8831182	1950.0	n/a	-1	-1	2750	38.1168818	stim	stop-signal	321	895263	0.0-15.13-1.13	beast_fmri_test	313	892645,/,893325,/,894006,/,894685,/	t,t,t,t	<img class = center src='/static/experiments/beast_fmri_test/images/P.png'></img>	89,71	2750.0	test	<img class = center src='/static/experiments/beast_fmri_test/images/redP.png'></img>	stop	1950.0	2.0	13.0	stop	non-target	P	89,Yellow Button	71,Green Button	850.0	800.0	1950.0	1950.0	0.0	1.0	800.0	0.0	stop_stim
300418.8831182	38.116881799999994	n/a	-1	-1	2750	38.1168818	stim	stop-signal	321	895263	0.0-15.13-1.13	beast_fmri_test	313	892645,/,893325,/,894006,/,894685,/	t,t,t,t	<img class = center src='/static/experiments/beast_fmri_test/images/P.png'></img>	89,71	2750.0	test	<img class = center src='/static/experiments/beast_fmri_test/images/redP.png'></img>	stop	1950.0	2.0	13.0	stop	non-target	P	89,Yellow Button	71,Green Button	850.0	800.0	1950.0	1950.0	0.0	1.0	800.0	0.0	ITI
301011	500	n/a	-1	-1	500	0.0	fixation	poldrack-single-stim	322	895817	0.0-15.14-0.14	beast_fmri_test	313	895365,/	t	<div class = centerbox><div class = fixation>+</div></div>	none	500.0	test	n/a	n/a	n/a	n/a	n/a	n/a	n/a	n/a	n/a	n/a	n/a	n/a	n/a	n/a	n/a	n/a	n/a	n/a	fixation
300866.93607569998	850.0	n/a	1000	71	2750	145.0639243	stim	stop-signal	323	898568	0.0-15.14-1.14	beast_fmri_test	313	896045,/,896726,/,897405,/,898086,/	t,t,t,t	<img class = center src='/static/experiments/beast_fmri_test/images/T.png'></img>	89,71	2750.0	test	<img class = center src='/static/experiments/beast_fmri_test/images/redT.png'></img>	stop	1900.0	2.0	14.0	stop	non-target	T	89,Yellow Button	71,Green Button	850.0	850.0	1950.0	1900.0	0.0	0.0	850.0	1.0	go_stim
302766.93607569998	1900.0	n/a	1000	71	2750	145.0639243	stim	stop-signal	323	898568	0.0-15.14-1.14	beast_fmri_test	313	896045,/,896726,/,897405,/,898086,/	t,t,t,t	<img class = center src='/static/experiments/beast_fmri_test/images/T.png'></img>	89,71	2750.0	test	<img class = center src='/static/experiments/beast_fmri_test/images/redT.png'></img>	stop	1900.0	2.0	14.0	stop	non-target	T	89,Yellow Button	71,Green Button	850.0	850.0	1950.0	1900.0	0.0	0.0	850.0	1.0	stop_stim
303616.93607569998	145.0639243	n/a	1000	71	2750	145.0639243	stim	stop-signal	323	898568	0.0-15.14-1.14	beast_fmri_test	313	896045,/,896726,/,897405,/,898086,/	t,t,t,t	<img class = center src='/static/experiments/beast_fmri_test/images/T.png'></img>	89,71	2750.0	test	<img class = center src='/static/experiments/beast_fmri_test/images/redT.png'></img>	stop	1900.0	2.0	14.0	stop	non-target	T	89,Yellow Button	71,Green Button	850.0	850.0	1950.0	1900.0	0.0	0.0	850.0	1.0	ITI
304423	500	n/a	-1	-1	500	0.0	fixation	poldrack-single-stim	324	899229	0.0-15.15-0.15	beast_fmri_test	313	898765,/	t	<div class = centerbox><div class = fixation>+</div></div>	none	500.0	test	n/a	n/a	n/a	n/a	n/a	n/a	n/a	n/a	n/a	n/a	n/a	n/a	n/a	n/a	n/a	n/a	n/a	n/a	fixation
304323.09030739998	850.0	n/a	-1	-1	2750	102.9096926	stim	stop-signal	325	901982	0.0-15.15-1.15	beast_fmri_test	313	899445,/,900125,/,900805,/,901485,/	t,t,t,t	<img class = center src='/static/experiments/beast_fmri_test/images/P.png'></img>	89,71	2750.0	test	<img class = center src='/static/experiments/beast_fmri_test/images/redP.png'></img>	stop	1900.0	2.0	15.0	stop	target	P	89,Yellow Button	71,Green Button	850.0	800.0	1900.0	1900.0	0.0	1.0	850.0	0.0	go_stim
306223.09030739998	1900.0	n/a	-1	-1	2750	102.9096926	stim	stop-signal	325	901982	0.0-15.15-1.15	beast_fmri_test	313	899445,/,900125,/,900805,/,901485,/	t,t,t,t	<img class = center src='/static/experiments/beast_fmri_test/images/P.png'></img>	89,71	2750.0	test	<img class = center src='/static/experiments/beast_fmri_test/images/redP.png'></img>	stop	1900.0	2.0	15.0	stop	target	P	89,Yellow Button	71,Green Button	850.0	800.0	1900.0	1900.0	0.0	1.0	850.0	0.0	stop_stim
307073.09030739998	102.9096926	n/a	-1	-1	2750	102.9096926	stim	stop-signal	325	901982	0.0-15.15-1.15	beast_fmri_test	313	899445,/,900125,/,900805,/,901485,/	t,t,t,t	<img class = center src='/static/experiments/beast_fmri_test/images/P.png'></img>	89,71	2750.0	test	<img class = center src='/static/experiments/beast_fmri_test/images/redP.png'></img>	stop	1900.0	2.0	15.0	stop	target	P	89,Yellow Button	71,Green Button	850.0	800.0	1900.0	1900.0	0.0	1.0	850.0	0.0	ITI
307795	500	n/a	-1	-1	500	0.0	fixation	poldrack-single-stim	326	902601	0.0-15.16-0.16	beast_fmri_test	313	902165,/	t	<div class = centerbox><div class = fixation>+</div></div>	none	500.0	test	n/a	n/a	n/a	n/a	n/a	n/a	n/a	n/a	n/a	n/a	n/a	n/a	n/a	n/a	n/a	n/a	n/a	n/a	fixation
307381.29492729995	2750	n/a	2400	71	2750	414.7050727	stim	stop-signal	327	905352	0.0-15.16-1.16	beast_fmri_test	313	902845,/,903525,/,904205,/,904885,/,905565,/	t,t,t,t,t	<img class = center src='/static/experiments/beast_fmri_test/images/P.png'></img>	89,71	2750.0	test	<img class = center src='/static/experiments/beast_fmri_test/images/redP.png'></img>	go	1950.0	2.0	16.0	go	non-target	P	89,Yellow Button	71,Green Button	900.0	800.0	1900.0	1950.0	1.0	n/a	800.0	1.0	go_stim
310131.29492729995	414.70507270000002	n/a	2400	71	2750	414.7050727	stim	stop-signal	327	905352	0.0-15.16-1.16	beast_fmri_test	313	902845,/,903525,/,904205,/,904885,/,905565,/	t,t,t,t,t	<img class = center src='/static/experiments/beast_fmri_test/images/P.png'></img>	89,71	2750.0	test	<img class = center src='/static/experiments/beast_fmri_test/images/redP.png'></img>	go	1950.0	2.0	16.0	go	non-target	P	89,Yellow Button	71,Green Button	900.0	800.0	1900.0	1950.0	1.0	n/a	800.0	1.0	ITI
311475	500	n/a	-1	-1	500	0.0	fixation	poldrack-single-stim	328	906281	0.0-15.17-0.17	beast_fmri_test	313	906245,/	t	<div class = centerbox><div class = fixation>+</div></div>	none	500.0	test	n/a	n/a	n/a	n/a	n/a	n/a	n/a	n/a	n/a	n/a	n/a	n/a	n/a	n/a	n/a	n/a	n/a	n/a	fixation
311107.46445780003	800.0	n/a	-1	-1	2750	369.5355422	stim	stop-signal	329	909033	0.0-15.17-1.17	beast_fmri_test	313	906925,/,907605,/,908286,/,908965,/	t,t,t,t	<img class = center src='/static/experiments/beast_fmri_test/images/D.png'></img>	89,71	2750.0	test	<img class = center src='/static/experiments/beast_fmri_test/images/redD.png'></img>	stop	1950.0	2.0	17.0	stop	non-target	D	89,Yellow Button	71,Green Button	900.0	800.0	1900.0	1950.0	0.0	1.0	800.0	0.0	go_stim
313057.46445780003	1950.0	n/a	-1	-1	2750	369.5355422	stim	stop-signal	329	909033	0.0-15.17-1.17	beast_fmri_test	313	906925,/,907605,/,908286,/,908965,/	t,t,t,t	<img class = center src='/static/experiments/beast_fmri_test/images/D.png'></img>	89,71	2750.0	test	<img class = center src='/static/experiments/beast_fmri_test/images/redD.png'></img>	stop	1950.0	2.0	17.0	stop	non-target	D	89,Yellow Button	71,Green Button	900.0	800.0	1900.0	1950.0	0.0	1.0	800.0	0.0	stop_stim
313857.46445780003	369.53554219999995	n/a	-1	-1	2750	369.5355422	stim	stop-signal	329	909033	0.0-15.17-1.17	beast_fmri_test	313	906925,/,907605,/,908286,/,908965,/	t,t,t,t	<img class = center src='/static/experiments/beast_fmri_test/images/D.png'></img>	89,71	2750.0	test	<img class = center src='/static/experiments/beast_fmri_test/images/redD.png'></img>	stop	1950.0	2.0	17.0	stop	non-target	D	89,Yellow Button	71,Green Button	900.0	800.0	1900.0	1950.0	0.0	1.0	800.0	0.0	ITI
315111	500	n/a	-1	-1	500	0.0	fixation	poldrack-single-stim	330	909917	0.0-15.18-0.18	beast_fmri_test	313	909645,/	t	<div class = centerbox><div class = fixation>+</div></div>	none	500.0	test	n/a	n/a	n/a	n/a	n/a	n/a	n/a	n/a	n/a	n/a	n/a	n/a	n/a	n/a	n/a	n/a	n/a	n/a	fixation
314936.54965920001	2750	n/a	1637	71	2750	175.4503408	stim	stop-signal	331	912668	0.0-15.18-1.18	beast_fmri_test	313	910325,/,911005,/,911685,/,912365,/	t,t,t,t	<img class = center src='/static/experiments/beast_fmri_test/images/D.png'></img>	89,71	2750.0	test	<img class = center src='/static/experiments/beast_fmri_test/images/redD.png'></img>	go	1900.0	2.0	18.0	go	non-target	D	89,Yellow Button	71,Green Button	900.0	850.0	1900.0	1900.0	1.0	n/a	850.0	1.0	go_stim
317686.54965920001	175.45034079999999	n/a	1637	71	2750	175.4503408	stim	stop-signal	331	912668	0.0-15.18-1.18	beast_fmri_test	313	910325,/,911005,/,911685,/,912365,/	t,t,t,t	<img class = center src='/static/experiments/beast_fmri_test/images/D.png'></img>	89,71	2750.0	test	<img class = center src='/static/experiments/beast_fmri_test/images/redD.png'></img>	go	1900.0	2.0	18.0	go	non-target	D	89,Yellow Button	71,Green Button	900.0	850.0	1900.0	1900.0	1.0	n/a	850.0	1.0	ITI
318553	500	n/a	-1	-1	500	0.0	fixation	poldrack-single-stim	332	913359	0.0-15.19-0.19	beast_fmri_test	313	913045,/	t	<div class = centerbox><div class = fixation>+</div></div>	none	500.0	test	n/a	n/a	n/a	n/a	n/a	n/a	n/a	n/a	n/a	n/a	n/a	n/a	n/a	n/a	n/a	n/a	n/a	n/a	fixation
318240.60422560002	2750	n/a	1933	71	2750	314.3957744	stim	stop-signal	333	916111	0.0-15.19-1.19	beast_fmri_test	313	913725,/,914406,/,915085,/,915765,/	t,t,t,t	<img class = center src='/static/experiments/beast_fmri_test/images/P.png'></img>	89,71	2750.0	test	<img class = center src='/static/experiments/beast_fmri_test/images/redP.png'></img>	go	1900.0	2.0	19.0	go	non-target	P	89,Yellow Button	71,Green Button	900.0	850.0	1900.0	1900.0	1.0	n/a	850.0	1.0	go_stim
320990.60422560002	314.39577439999999	n/a	1933	71	2750	314.3957744	stim	stop-signal	333	916111	0.0-15.19-1.19	beast_fmri_test	313	913725,/,914406,/,915085,/,915765,/	t,t,t,t	<img class = center src='/static/experiments/beast_fmri_test/images/P.png'></img>	89,71	2750.0	test	<img class = center src='/static/experiments/beast_fmri_test/images/redP.png'></img>	go	1900.0	2.0	19.0	go	non-target	P	89,Yellow Button	71,Green Button	900.0	850.0	1900.0	1900.0	1.0	n/a	850.0	1.0	ITI
322135	500	n/a	-1	-1	500	0.0	fixation	poldrack-single-stim	334	916941	0.0-15.20-0.20	beast_fmri_test	313	916445,/	t	<div class = centerbox><div class = fixation>+</div></div>	none	500.0	test	n/a	n/a	n/a	n/a	n/a	n/a	n/a	n/a	n/a	n/a	n/a	n/a	n/a	n/a	n/a	n/a	n/a	n/a	fixation
321659.30371779995	2750	n/a	1630	71	2750	477.6962822	stim	stop-signal	335	919693	0.0-15.20-1.20	beast_fmri_test	313	917126,/,917806,/,918486,/,919165,/,919845,/	t,t,t,t,t	<img class = center src='/static/experiments/beast_fmri_test/images/B.png'></img>	89,71	2750.0	test	<img class = center src='/static/experiments/beast_fmri_test/images/redB.png'></img>	go	1900.0	2.0	20.0	go	non-target	B	89,Yellow Button	71,Green Button	900.0	850.0	1900.0	1900.0	1.0	n/a	850.0	1.0	go_stim
324409.30371779995	477.69628219999998	n/a	1630	71	2750	477.6962822	stim	stop-signal	335	919693	0.0-15.20-1.20	beast_fmri_test	313	917126,/,917806,/,918486,/,919165,/,919845,/	t,t,t,t,t	<img class = center src='/static/experiments/beast_fmri_test/images/B.png'></img>	89,71	2750.0	test	<img class = center src='/static/experiments/beast_fmri_test/images/redB.png'></img>	go	1900.0	2.0	20.0	go	non-target	B	89,Yellow Button	71,Green Button	900.0	850.0	1900.0	1900.0	1.0	n/a	850.0	1.0	ITI
325879	500	n/a	-1	-1	500	0.0	fixation	poldrack-single-stim	336	920685	0.0-15.21-0.21	beast_fmri_test	313	920525,/	t	<div class = centerbox><div class = fixation>+</div></div>	none	500.0	test	n/a	n/a	n/a	n/a	n/a	n/a	n/a	n/a	n/a	n/a	n/a	n/a	n/a	n/a	n/a	n/a	n/a	n/a	fixation
325526.91874800005	850.0	n/a	-1	-1	2750	353.081252	stim	stop-signal	337	923436	0.0-15.21-1.21	beast_fmri_test	313	921206,/,921886,/,922565,/,923246,/	t,t,t,t	<img class = center src='/static/experiments/beast_fmri_test/images/V.png'></img>	89,71	2750.0	test	<img class = center src='/static/experiments/beast_fmri_test/images/redV.png'></img>	stop	1900.0	2.0	21.0	stop	non-target	V	89,Yellow Button	71,Green Button	900.0	850.0	1900.0	1900.0	0.0	1.0	850.0	0.0	go_stim
327426.91874800005	1900.0	n/a	-1	-1	2750	353.081252	stim	stop-signal	337	923436	0.0-15.21-1.21	beast_fmri_test	313	921206,/,921886,/,922565,/,923246,/	t,t,t,t	<img class = center src='/static/experiments/beast_fmri_test/images/V.png'></img>	89,71	2750.0	test	<img class = center src='/static/experiments/beast_fmri_test/images/redV.png'></img>	stop	1900.0	2.0	21.0	stop	non-target	V	89,Yellow Button	71,Green Button	900.0	850.0	1900.0	1900.0	0.0	1.0	850.0	0.0	stop_stim
328276.91874800005	353.08125200000001	n/a	-1	-1	2750	353.081252	stim	stop-signal	337	923436	0.0-15.21-1.21	beast_fmri_test	313	921206,/,921886,/,922565,/,923246,/	t,t,t,t	<img class = center src='/static/experiments/beast_fmri_test/images/V.png'></img>	89,71	2750.0	test	<img class = center src='/static/experiments/beast_fmri_test/images/redV.png'></img>	stop	1900.0	2.0	21.0	stop	non-target	V	89,Yellow Button	71,Green Button	900.0	850.0	1900.0	1900.0	0.0	1.0	850.0	0.0	ITI
329498	500	n/a	-1	-1	500	0.0	fixation	poldrack-single-stim	338	924304	0.0-15.22-0.22	beast_fmri_test	313	923926,/	t	<div class = centerbox><div class = fixation>+</div></div>	none	500.0	test	n/a	n/a	n/a	n/a	n/a	n/a	n/a	n/a	n/a	n/a	n/a	n/a	n/a	n/a	n/a	n/a	n/a	n/a	fixation
328839.52112110006	2750	n/a	1494	71	2750	660.4788789	stim	stop-signal	339	927056	0.0-15.22-1.22	beast_fmri_test	313	924605,/,925285,/,925965,/,926645,/,927325,/	t,t,t,t,t	<img class = center src='/static/experiments/beast_fmri_test/images/P.png'></img>	89,71	2750.0	test	<img class = center src='/static/experiments/beast_fmri_test/images/redP.png'></img>	go	1850.0	2.0	22.0	go	non-target	P	89,Yellow Button	71,Green Button	900.0	900.0	1900.0	1850.0	1.0	n/a	900.0	1.0	go_stim
