onset	duration	text	rt	key_press	block_duration	timing_post_trial	trial_id	trial_type	trial_index	time_elapsed	internal_node_id	exp_id	subject_id	trigger_times	triggers	stimulus	possible_responses	stim_duration	exp_stage	SS_stimulus	SS_trial_type	SS_duration	load	trial_num	stop_trial_type	adaptive_trial_type	stim	yes_response_key	no_response_key	SSD_target	SSD_non_target	SSTarget	SSNonTarget	go_acc	SS_delay	stop_acc	adaptive_acc	new_trial_type
test	10880	n/a	-1	-1	10880	0.0	practice-no-stop-feedback	poldrack-single-stim	200	532016	0.0-12.0	beast_fmri_test	269	521136,/,521815,/,522496,/,523175,/,523855,/,524535,/,525216,/,525895,/,526576,/,527255,/,527935,/,528615,/,529295,/,529975,/,530655,/,531335,/,532016,/	t,t,t,t,t,t,t,t,t,t,t,t,t,t,t,t,t	"<div class = ""centerbox""><p class = ""center-block-text"">Your delay is 2 trials.</p><p class = center-block-text>Please wait for the scanner to start the block</p></div>"	77	10880.0	n/a	n/a	n/a	n/a	n/a	n/a	n/a	n/a	n/a	n/a	n/a	n/a	n/a	n/a	n/a	n/a	n/a	n/a	n/a	start_functional_block
11382	500	n/a	-1	-1	500	0.0	fixation	poldrack-single-stim	201	532518	0.0-13.0-0.0	beast_fmri_test	269	n/a	n/a	<div class = centerbox><div class = fixation>+</div></div>	none	500.0	test	n/a	n/a	n/a	n/a	n/a	n/a	n/a	n/a	n/a	n/a	n/a	n/a	n/a	n/a	n/a	n/a	n/a	n/a	fixation
10733.241802999983	temp_go_duration	n/a	1139	71	2750	649.758197	stim	stop-signal	202	535269	0.0-13.0-1.0	beast_fmri_test	269	532695,/,533375,/,534055,/,534736,/,535416,/	t,t,t,t,t	<img class = center src='/static/experiments/beast_fmri_test/images/D.png'></img>	89,71	2750.0	test	<img class = center src='/static/experiments/beast_fmri_test/images/redD.png'></img>	stop	-1.0	2.0	0.0	stop	temp-non-target	D	89,Yellow Button	71,Green Button	800.0	1100.0	1950.0	1650.0	0.0	n/a	0.0	n/a	go_stim
temp-non-target	temp_stop_duration	n/a	1139	71	2750	649.758197	stim	stop-signal	202	535269	0.0-13.0-1.0	beast_fmri_test	269	532695,/,533375,/,534055,/,534736,/,535416,/	t,t,t,t,t	<img class = center src='/static/experiments/beast_fmri_test/images/D.png'></img>	89,71	2750.0	test	<img class = center src='/static/experiments/beast_fmri_test/images/redD.png'></img>	stop	-1.0	2.0	0.0	stop	temp-non-target	D	89,Yellow Button	71,Green Button	800.0	1100.0	1950.0	1650.0	0.0	n/a	0.0	n/a	stop_stim
13483.241802999983	649.758197	n/a	1139	71	2750	649.758197	stim	stop-signal	202	535269	0.0-13.0-1.0	beast_fmri_test	269	532695,/,533375,/,534055,/,534736,/,535416,/	t,t,t,t,t	<img class = center src='/static/experiments/beast_fmri_test/images/D.png'></img>	89,71	2750.0	test	<img class = center src='/static/experiments/beast_fmri_test/images/redD.png'></img>	stop	-1.0	2.0	0.0	stop	temp-non-target	D	89,Yellow Button	71,Green Button	800.0	1100.0	1950.0	1650.0	0.0	n/a	0.0	n/a	ITI
15291	500	n/a	-1	-1	500	0.0	fixation	poldrack-single-stim	203	536427	0.0-13.1-0.1	beast_fmri_test	269	536096,/	t	<div class = centerbox><div class = fixation>+</div></div>	none	500.0	test	n/a	n/a	n/a	n/a	n/a	n/a	n/a	n/a	n/a	n/a	n/a	n/a	n/a	n/a	n/a	n/a	n/a	n/a	fixation
13064.734031999949	temp_go_duration	n/a	1383	71	2750	2228.265968	stim	stop-signal	204	539179	0.0-13.1-1.1	beast_fmri_test	269	536777,/,537456,/,538136,/,538816,/,539495,/,540176,/,540856,/	t,t,t,t,t,t,t	<img class = center src='/static/experiments/beast_fmri_test/images/D.png'></img>	89,71	2750.0	test	<img class = center src='/static/experiments/beast_fmri_test/images/redD.png'></img>	stop	-1.0	2.0	1.0	stop	temp-non-target	D	89,Yellow Button	71,Green Button	800.0	1100.0	1950.0	1650.0	0.0	n/a	0.0	n/a	go_stim
temp-non-target	temp_stop_duration	n/a	1383	71	2750	2228.265968	stim	stop-signal	204	539179	0.0-13.1-1.1	beast_fmri_test	269	536777,/,537456,/,538136,/,538816,/,539495,/,540176,/,540856,/	t,t,t,t,t,t,t	<img class = center src='/static/experiments/beast_fmri_test/images/D.png'></img>	89,71	2750.0	test	<img class = center src='/static/experiments/beast_fmri_test/images/redD.png'></img>	stop	-1.0	2.0	1.0	stop	temp-non-target	D	89,Yellow Button	71,Green Button	800.0	1100.0	1950.0	1650.0	0.0	n/a	0.0	n/a	stop_stim
15814.734031999949	2228.2659680000002	n/a	1383	71	2750	2228.265968	stim	stop-signal	204	539179	0.0-13.1-1.1	beast_fmri_test	269	536777,/,537456,/,538136,/,538816,/,539495,/,540176,/,540856,/	t,t,t,t,t,t,t	<img class = center src='/static/experiments/beast_fmri_test/images/D.png'></img>	89,71	2750.0	test	<img class = center src='/static/experiments/beast_fmri_test/images/redD.png'></img>	stop	-1.0	2.0	1.0	stop	temp-non-target	D	89,Yellow Button	71,Green Button	800.0	1100.0	1950.0	1650.0	0.0	n/a	0.0	n/a	ITI
20779	500	n/a	-1	-1	500	0.0	fixation	poldrack-single-stim	205	541915	0.0-13.2-0.2	beast_fmri_test	269	541536,/	t	<div class = centerbox><div class = fixation>+</div></div>	none	500.0	test	n/a	n/a	n/a	n/a	n/a	n/a	n/a	n/a	n/a	n/a	n/a	n/a	n/a	n/a	n/a	n/a	n/a	n/a	fixation
20560.266643499956	1100.0	n/a	1360	71	2750	220.7333565	stim	stop-signal	206	544667	0.0-13.2-1.2	beast_fmri_test	269	542216,/,542896,/,543576,/,544256,/	t,t,t,t	<img class = center src='/static/experiments/beast_fmri_test/images/V.png'></img>	89,71	2750.0	test	<img class = center src='/static/experiments/beast_fmri_test/images/redV.png'></img>	stop	1650.0	2.0	2.0	stop	non-target	V	89,Yellow Button	71,Green Button	800.0	1100.0	1950.0	1650.0	0.0	1100.0	0.0	1.0	go_stim
22210.266643499956	1650.0	n/a	1360	71	2750	220.7333565	stim	stop-signal	206	544667	0.0-13.2-1.2	beast_fmri_test	269	542216,/,542896,/,543576,/,544256,/	t,t,t,t	<img class = center src='/static/experiments/beast_fmri_test/images/V.png'></img>	89,71	2750.0	test	<img class = center src='/static/experiments/beast_fmri_test/images/redV.png'></img>	stop	1650.0	2.0	2.0	stop	non-target	V	89,Yellow Button	71,Green Button	800.0	1100.0	1950.0	1650.0	0.0	1100.0	0.0	1.0	stop_stim
23310.266643499956	220.73335649999999	n/a	1360	71	2750	220.7333565	stim	stop-signal	206	544667	0.0-13.2-1.2	beast_fmri_test	269	542216,/,542896,/,543576,/,544256,/	t,t,t,t	<img class = center src='/static/experiments/beast_fmri_test/images/V.png'></img>	89,71	2750.0	test	<img class = center src='/static/experiments/beast_fmri_test/images/redV.png'></img>	stop	1650.0	2.0	2.0	stop	non-target	V	89,Yellow Button	71,Green Button	800.0	1100.0	1950.0	1650.0	0.0	1100.0	0.0	1.0	ITI
24262	500	n/a	-1	-1	500	0.0	fixation	poldrack-single-stim	207	545398	0.0-13.3-0.3	beast_fmri_test	269	544936,/	t	<div class = centerbox><div class = fixation>+</div></div>	none	500.0	test	n/a	n/a	n/a	n/a	n/a	n/a	n/a	n/a	n/a	n/a	n/a	n/a	n/a	n/a	n/a	n/a	n/a	n/a	fixation
24184.864471749985	2750	n/a	1185	89	2750	78.13552825	stim	stop-signal	208	548149	0.0-13.3-1.3	beast_fmri_test	269	545616,/,546296,/,546977,/,547655,/	t,t,t,t	<img class = center src='/static/experiments/beast_fmri_test/images/D.png'></img>	89,71	2750.0	test	<img class = center src='/static/experiments/beast_fmri_test/images/redD.png'></img>	go	1950.0	2.0	3.0	go	target	D	89,Yellow Button	71,Green Button	800.0	1050.0	1950.0	1650.0	1.0	800.0	n/a	1.0	go_stim
26934.864471749985	78.135528249999993	n/a	1185	89	2750	78.13552825	stim	stop-signal	208	548149	0.0-13.3-1.3	beast_fmri_test	269	545616,/,546296,/,546977,/,547655,/	t,t,t,t	<img class = center src='/static/experiments/beast_fmri_test/images/D.png'></img>	89,71	2750.0	test	<img class = center src='/static/experiments/beast_fmri_test/images/redD.png'></img>	go	1950.0	2.0	3.0	go	target	D	89,Yellow Button	71,Green Button	800.0	1050.0	1950.0	1650.0	1.0	800.0	n/a	1.0	ITI
27599	500	n/a	-1	-1	500	0.0	fixation	poldrack-single-stim	209	548735	0.0-13.4-0.4	beast_fmri_test	269	548336,/	t	<div class = centerbox><div class = fixation>+</div></div>	none	500.0	test	n/a	n/a	n/a	n/a	n/a	n/a	n/a	n/a	n/a	n/a	n/a	n/a	n/a	n/a	n/a	n/a	n/a	n/a	fixation
26307.939097999944	1050.0	n/a	1177	71	2750	1292.060902	stim	stop-signal	210	551486	0.0-13.4-1.4	beast_fmri_test	269	549015,/,549696,/,550375,/,551055,/,551735,/,552415,/	t,t,t,t,t,t	<img class = center src='/static/experiments/beast_fmri_test/images/T.png'></img>	89,71	2750.0	test	<img class = center src='/static/experiments/beast_fmri_test/images/redT.png'></img>	stop	1700.0	2.0	4.0	stop	non-target	T	89,Yellow Button	71,Green Button	800.0	1050.0	1950.0	1700.0	0.0	1050.0	0.0	1.0	go_stim
28007.939097999944	1700.0	n/a	1177	71	2750	1292.060902	stim	stop-signal	210	551486	0.0-13.4-1.4	beast_fmri_test	269	549015,/,549696,/,550375,/,551055,/,551735,/,552415,/	t,t,t,t,t,t	<img class = center src='/static/experiments/beast_fmri_test/images/T.png'></img>	89,71	2750.0	test	<img class = center src='/static/experiments/beast_fmri_test/images/redT.png'></img>	stop	1700.0	2.0	4.0	stop	non-target	T	89,Yellow Button	71,Green Button	800.0	1050.0	1950.0	1700.0	0.0	1050.0	0.0	1.0	stop_stim
29057.939097999944	1292.0609019999999	n/a	1177	71	2750	1292.060902	stim	stop-signal	210	551486	0.0-13.4-1.4	beast_fmri_test	269	549015,/,549696,/,550375,/,551055,/,551735,/,552415,/	t,t,t,t,t,t	<img class = center src='/static/experiments/beast_fmri_test/images/T.png'></img>	89,71	2750.0	test	<img class = center src='/static/experiments/beast_fmri_test/images/redT.png'></img>	stop	1700.0	2.0	4.0	stop	non-target	T	89,Yellow Button	71,Green Button	800.0	1050.0	1950.0	1700.0	0.0	1050.0	0.0	1.0	ITI
32149	500	n/a	-1	-1	500	0.0	fixation	poldrack-single-stim	211	553285	0.0-13.5-0.5	beast_fmri_test	269	553095,/	t	<div class = centerbox><div class = fixation>+</div></div>	none	500.0	test	n/a	n/a	n/a	n/a	n/a	n/a	n/a	n/a	n/a	n/a	n/a	n/a	n/a	n/a	n/a	n/a	n/a	n/a	fixation
29594.619217999978	2750	n/a	1039	71	2750	2556.380782	stim	stop-signal	212	556037	0.0-13.5-1.5	beast_fmri_test	269	553776,/,554455,/,555135,/,555815,/,556495,/,557176,/,557856,/,558535,/	t,t,t,t,t,t,t,t	<img class = center src='/static/experiments/beast_fmri_test/images/D.png'></img>	89,71	2750.0	test	<img class = center src='/static/experiments/beast_fmri_test/images/redD.png'></img>	go	1950.0	2.0	5.0	go	target	D	89,Yellow Button	71,Green Button	800.0	1000.0	1950.0	1700.0	0.0	800.0	n/a	0.0	go_stim
32344.619217999978	2556.3807820000002	n/a	1039	71	2750	2556.380782	stim	stop-signal	212	556037	0.0-13.5-1.5	beast_fmri_test	269	553776,/,554455,/,555135,/,555815,/,556495,/,557176,/,557856,/,558535,/	t,t,t,t,t,t,t,t	<img class = center src='/static/experiments/beast_fmri_test/images/D.png'></img>	89,71	2750.0	test	<img class = center src='/static/experiments/beast_fmri_test/images/redD.png'></img>	go	1950.0	2.0	5.0	go	target	D	89,Yellow Button	71,Green Button	800.0	1000.0	1950.0	1700.0	0.0	800.0	n/a	0.0	ITI
37968	500	n/a	-1	-1	500	0.0	fixation	poldrack-single-stim	213	559104	0.0-13.6-0.6	beast_fmri_test	269	n/a	n/a	<div class = centerbox><div class = fixation>+</div></div>	none	500.0	test	n/a	n/a	n/a	n/a	n/a	n/a	n/a	n/a	n/a	n/a	n/a	n/a	n/a	n/a	n/a	n/a	n/a	n/a	fixation
37874.561013899976	2750	n/a	1703	71	2750	94.4389861	stim	stop-signal	214	561855	0.0-13.6-1.6	beast_fmri_test	269	559215,/,559895,/,560575,/,561255,/,561935,/	t,t,t,t,t	<img class = center src='/static/experiments/beast_fmri_test/images/D.png'></img>	89,71	2750.0	test	<img class = center src='/static/experiments/beast_fmri_test/images/redD.png'></img>	go	1750.0	2.0	6.0	go	non-target	D	89,Yellow Button	71,Green Button	800.0	1000.0	1950.0	1750.0	1.0	1000.0	n/a	1.0	go_stim
40624.561013899976	94.438986099999994	n/a	1703	71	2750	94.4389861	stim	stop-signal	214	561855	0.0-13.6-1.6	beast_fmri_test	269	559215,/,559895,/,560575,/,561255,/,561935,/	t,t,t,t,t	<img class = center src='/static/experiments/beast_fmri_test/images/D.png'></img>	89,71	2750.0	test	<img class = center src='/static/experiments/beast_fmri_test/images/redD.png'></img>	go	1750.0	2.0	6.0	go	non-target	D	89,Yellow Button	71,Green Button	800.0	1000.0	1950.0	1750.0	1.0	1000.0	n/a	1.0	ITI
41324	500	n/a	-1	-1	500	0.0	fixation	poldrack-single-stim	215	562460	0.0-13.7-0.7	beast_fmri_test	269	n/a	n/a	<div class = centerbox><div class = fixation>+</div></div>	none	500.0	test	n/a	n/a	n/a	n/a	n/a	n/a	n/a	n/a	n/a	n/a	n/a	n/a	n/a	n/a	n/a	n/a	n/a	n/a	fixation
40236.049434000044	2750	n/a	855	71	2750	1088.950566	stim	stop-signal	216	565211	0.0-13.7-1.7	beast_fmri_test	269	562615,/,563295,/,563975,/,564655,/,565335,/,566015,/	t,t,t,t,t,t	<img class = center src='/static/experiments/beast_fmri_test/images/B.png'></img>	89,71	2750.0	test	<img class = center src='/static/experiments/beast_fmri_test/images/redB.png'></img>	go	1750.0	2.0	7.0	go	non-target	B	89,Yellow Button	71,Green Button	800.0	1000.0	1950.0	1750.0	1.0	1000.0	n/a	1.0	go_stim
42986.049434000044	1088.950566	n/a	855	71	2750	1088.950566	stim	stop-signal	216	565211	0.0-13.7-1.7	beast_fmri_test	269	562615,/,563295,/,563975,/,564655,/,565335,/,566015,/	t,t,t,t,t,t	<img class = center src='/static/experiments/beast_fmri_test/images/B.png'></img>	89,71	2750.0	test	<img class = center src='/static/experiments/beast_fmri_test/images/redB.png'></img>	go	1750.0	2.0	7.0	go	non-target	B	89,Yellow Button	71,Green Button	800.0	1000.0	1950.0	1750.0	1.0	1000.0	n/a	1.0	ITI
45674	500	n/a	-1	-1	500	0.0	fixation	poldrack-single-stim	217	566810	0.0-13.8-0.8	beast_fmri_test	269	566695,/	t	<div class = centerbox><div class = fixation>+</div></div>	none	500.0	test	n/a	n/a	n/a	n/a	n/a	n/a	n/a	n/a	n/a	n/a	n/a	n/a	n/a	n/a	n/a	n/a	n/a	n/a	fixation
45609.678119470016	2750	n/a	679	71	2750	65.32188053	stim	stop-signal	218	569561	0.0-13.8-1.8	beast_fmri_test	269	567376,/,568055,/,568736,/,569416,/	t,t,t,t	<img class = center src='/static/experiments/beast_fmri_test/images/V.png'></img>	89,71	2750.0	test	<img class = center src='/static/experiments/beast_fmri_test/images/redV.png'></img>	go	1750.0	2.0	8.0	go	non-target	V	89,Yellow Button	71,Green Button	800.0	1000.0	1950.0	1750.0	1.0	1000.0	n/a	1.0	go_stim
48359.678119470016	65.321880530000001	n/a	679	71	2750	65.32188053	stim	stop-signal	218	569561	0.0-13.8-1.8	beast_fmri_test	269	567376,/,568055,/,568736,/,569416,/	t,t,t,t	<img class = center src='/static/experiments/beast_fmri_test/images/V.png'></img>	89,71	2750.0	test	<img class = center src='/static/experiments/beast_fmri_test/images/redV.png'></img>	go	1750.0	2.0	8.0	go	non-target	V	89,Yellow Button	71,Green Button	800.0	1000.0	1950.0	1750.0	1.0	1000.0	n/a	1.0	ITI
48998	500	n/a	-1	-1	500	0.0	fixation	poldrack-single-stim	219	570134	0.0-13.9-0.9	beast_fmri_test	269	570096,/	t	<div class = centerbox><div class = fixation>+</div></div>	none	500.0	test	n/a	n/a	n/a	n/a	n/a	n/a	n/a	n/a	n/a	n/a	n/a	n/a	n/a	n/a	n/a	n/a	n/a	n/a	fixation
46953.852104000049	2750	n/a	919	89	2750	2046.147896	stim	stop-signal	220	572886	0.0-13.9-1.9	beast_fmri_test	269	570776,/,571456,/,572136,/,572816,/,573495,/,574176,/,574856,/	t,t,t,t,t,t,t	<img class = center src='/static/experiments/beast_fmri_test/images/B.png'></img>	89,71	2750.0	test	<img class = center src='/static/experiments/beast_fmri_test/images/redB.png'></img>	go	1950.0	2.0	9.0	go	target	B	89,Yellow Button	71,Green Button	800.0	1000.0	1950.0	1750.0	1.0	800.0	n/a	1.0	go_stim
49703.852104000049	2046.1478960000002	n/a	919	89	2750	2046.147896	stim	stop-signal	220	572886	0.0-13.9-1.9	beast_fmri_test	269	570776,/,571456,/,572136,/,572816,/,573495,/,574176,/,574856,/	t,t,t,t,t,t,t	<img class = center src='/static/experiments/beast_fmri_test/images/B.png'></img>	89,71	2750.0	test	<img class = center src='/static/experiments/beast_fmri_test/images/redB.png'></img>	go	1950.0	2.0	9.0	go	target	B	89,Yellow Button	71,Green Button	800.0	1000.0	1950.0	1750.0	1.0	800.0	n/a	1.0	ITI
54306	500	n/a	-1	-1	500	0.0	fixation	poldrack-single-stim	221	575442	0.0-13.10-0.10	beast_fmri_test	269	n/a	n/a	<div class = centerbox><div class = fixation>+</div></div>	none	500.0	test	n/a	n/a	n/a	n/a	n/a	n/a	n/a	n/a	n/a	n/a	n/a	n/a	n/a	n/a	n/a	n/a	n/a	n/a	fixation
53271.892278000014	2750	n/a	1064	71	2750	1036.107722	stim	stop-signal	222	578194	0.0-13.10-1.10	beast_fmri_test	269	575536,/,576216,/,576895,/,577576,/,578255,/,578935,/	t,t,t,t,t,t	<img class = center src='/static/experiments/beast_fmri_test/images/B.png'></img>	89,71	2750.0	test	<img class = center src='/static/experiments/beast_fmri_test/images/redB.png'></img>	go	1750.0	2.0	10.0	go	non-target	B	89,Yellow Button	71,Green Button	800.0	1000.0	1950.0	1750.0	1.0	1000.0	n/a	1.0	go_stim
56021.892278000014	1036.107722	n/a	1064	71	2750	1036.107722	stim	stop-signal	222	578194	0.0-13.10-1.10	beast_fmri_test	269	575536,/,576216,/,576895,/,577576,/,578255,/,578935,/	t,t,t,t,t,t	<img class = center src='/static/experiments/beast_fmri_test/images/B.png'></img>	89,71	2750.0	test	<img class = center src='/static/experiments/beast_fmri_test/images/redB.png'></img>	go	1750.0	2.0	10.0	go	non-target	B	89,Yellow Button	71,Green Button	800.0	1000.0	1950.0	1750.0	1.0	1000.0	n/a	1.0	ITI
58605	500	n/a	-1	-1	500	0.0	fixation	poldrack-single-stim	223	579741	0.0-13.11-0.11	beast_fmri_test	269	579616,/	t	<div class = centerbox><div class = fixation>+</div></div>	none	500.0	test	n/a	n/a	n/a	n/a	n/a	n/a	n/a	n/a	n/a	n/a	n/a	n/a	n/a	n/a	n/a	n/a	n/a	n/a	fixation
58400.822220099973	2750	n/a	746	71	2750	207.1777799	stim	stop-signal	224	582494	0.0-13.11-1.11	beast_fmri_test	269	580296,/,580976,/,581656,/,582336,/	t,t,t,t	<img class = center src='/static/experiments/beast_fmri_test/images/V.png'></img>	89,71	2750.0	test	<img class = center src='/static/experiments/beast_fmri_test/images/redV.png'></img>	go	1750.0	2.0	11.0	go	non-target	V	89,Yellow Button	71,Green Button	800.0	1000.0	1950.0	1750.0	1.0	1000.0	n/a	1.0	go_stim
61150.822220099973	207.17777990000002	n/a	746	71	2750	207.1777799	stim	stop-signal	224	582494	0.0-13.11-1.11	beast_fmri_test	269	580296,/,580976,/,581656,/,582336,/	t,t,t,t	<img class = center src='/static/experiments/beast_fmri_test/images/V.png'></img>	89,71	2750.0	test	<img class = center src='/static/experiments/beast_fmri_test/images/redV.png'></img>	go	1750.0	2.0	11.0	go	non-target	V	89,Yellow Button	71,Green Button	800.0	1000.0	1950.0	1750.0	1.0	1000.0	n/a	1.0	ITI
62077	500	n/a	-1	-1	500	0.0	fixation	poldrack-single-stim	225	583213	0.0-13.12-0.12	beast_fmri_test	269	583016,/	t	<div class = centerbox><div class = fixation>+</div></div>	none	500.0	test	n/a	n/a	n/a	n/a	n/a	n/a	n/a	n/a	n/a	n/a	n/a	n/a	n/a	n/a	n/a	n/a	n/a	n/a	fixation
62016.969477950013	2750	n/a	647	89	2750	61.03052205	stim	stop-signal	226	585964	0.0-13.12-1.12	beast_fmri_test	269	583695,/,584375,/,585056,/,585735,/	t,t,t,t	<img class = center src='/static/experiments/beast_fmri_test/images/B.png'></img>	89,71	2750.0	test	<img class = center src='/static/experiments/beast_fmri_test/images/redB.png'></img>	go	1950.0	2.0	12.0	go	target	B	89,Yellow Button	71,Green Button	800.0	1000.0	1950.0	1750.0	1.0	800.0	n/a	1.0	go_stim
64766.969477950013	61.030522050000002	n/a	647	89	2750	61.03052205	stim	stop-signal	226	585964	0.0-13.12-1.12	beast_fmri_test	269	583695,/,584375,/,585056,/,585735,/	t,t,t,t	<img class = center src='/static/experiments/beast_fmri_test/images/B.png'></img>	89,71	2750.0	test	<img class = center src='/static/experiments/beast_fmri_test/images/redB.png'></img>	go	1950.0	2.0	12.0	go	target	B	89,Yellow Button	71,Green Button	800.0	1000.0	1950.0	1750.0	1.0	800.0	n/a	1.0	ITI
65399	500	n/a	-1	-1	500	0.0	fixation	poldrack-single-stim	227	586535	0.0-13.13-0.13	beast_fmri_test	269	586415,/	t	<div class = centerbox><div class = fixation>+</div></div>	none	500.0	test	n/a	n/a	n/a	n/a	n/a	n/a	n/a	n/a	n/a	n/a	n/a	n/a	n/a	n/a	n/a	n/a	n/a	n/a	fixation
64300.339997999952	2750	n/a	925	71	2750	1100.660002	stim	stop-signal	228	589287	0.0-13.13-1.13	beast_fmri_test	269	587095,/,587776,/,588455,/,589136,/,589816,/	t,t,t,t,t	<img class = center src='/static/experiments/beast_fmri_test/images/D.png'></img>	89,71	2750.0	test	<img class = center src='/static/experiments/beast_fmri_test/images/redD.png'></img>	go	1750.0	2.0	13.0	go	non-target	D	89,Yellow Button	71,Green Button	800.0	1000.0	1950.0	1750.0	1.0	1000.0	n/a	1.0	go_stim
67050.339997999952	1100.6600019999998	n/a	925	71	2750	1100.660002	stim	stop-signal	228	589287	0.0-13.13-1.13	beast_fmri_test	269	587095,/,587776,/,588455,/,589136,/,589816,/	t,t,t,t,t	<img class = center src='/static/experiments/beast_fmri_test/images/D.png'></img>	89,71	2750.0	test	<img class = center src='/static/experiments/beast_fmri_test/images/redD.png'></img>	go	1750.0	2.0	13.0	go	non-target	D	89,Yellow Button	71,Green Button	800.0	1000.0	1950.0	1750.0	1.0	1000.0	n/a	1.0	ITI
69764	500	n/a	-1	-1	500	0.0	fixation	poldrack-single-stim	229	590900	0.0-13.14-0.14	beast_fmri_test	269	590495,/	t	<div class = centerbox><div class = fixation>+</div></div>	none	500.0	test	n/a	n/a	n/a	n/a	n/a	n/a	n/a	n/a	n/a	n/a	n/a	n/a	n/a	n/a	n/a	n/a	n/a	n/a	fixation
68787.747813499998	1000.0	n/a	619	71	2750	978.2521865	stim	stop-signal	230	593652	0.0-13.14-1.14	beast_fmri_test	269	591176,/,591855,/,592535,/,593215,/,593895,/,594575,/	t,t,t,t,t,t	<img class = center src='/static/experiments/beast_fmri_test/images/T.png'></img>	89,71	2750.0	test	<img class = center src='/static/experiments/beast_fmri_test/images/redT.png'></img>	stop	1750.0	2.0	14.0	stop	non-target	T	89,Yellow Button	71,Green Button	800.0	1000.0	1950.0	1750.0	0.0	1000.0	0.0	1.0	go_stim
70537.747813499998	1750.0	n/a	619	71	2750	978.2521865	stim	stop-signal	230	593652	0.0-13.14-1.14	beast_fmri_test	269	591176,/,591855,/,592535,/,593215,/,593895,/,594575,/	t,t,t,t,t,t	<img class = center src='/static/experiments/beast_fmri_test/images/T.png'></img>	89,71	2750.0	test	<img class = center src='/static/experiments/beast_fmri_test/images/redT.png'></img>	stop	1750.0	2.0	14.0	stop	non-target	T	89,Yellow Button	71,Green Button	800.0	1000.0	1950.0	1750.0	0.0	1000.0	0.0	1.0	stop_stim
71537.747813499998	978.25218649999999	n/a	619	71	2750	978.2521865	stim	stop-signal	230	593652	0.0-13.14-1.14	beast_fmri_test	269	591176,/,591855,/,592535,/,593215,/,593895,/,594575,/	t,t,t,t,t,t	<img class = center src='/static/experiments/beast_fmri_test/images/T.png'></img>	89,71	2750.0	test	<img class = center src='/static/experiments/beast_fmri_test/images/redT.png'></img>	stop	1750.0	2.0	14.0	stop	non-target	T	89,Yellow Button	71,Green Button	800.0	1000.0	1950.0	1750.0	0.0	1000.0	0.0	1.0	ITI
74005	500	n/a	-1	-1	500	0.0	fixation	poldrack-single-stim	231	595141	0.0-13.15-0.15	beast_fmri_test	269	n/a	n/a	<div class = centerbox><div class = fixation>+</div></div>	none	500.0	test	n/a	n/a	n/a	n/a	n/a	n/a	n/a	n/a	n/a	n/a	n/a	n/a	n/a	n/a	n/a	n/a	n/a	n/a	fixation
72084.691378999967	800.0	n/a	-1	-1	2750	1922.308621	stim	stop-signal	232	597893	0.0-13.15-1.15	beast_fmri_test	269	595255,/,595935,/,596615,/,597295,/,597975,/,598655,/,599335,/	t,t,t,t,t,t,t	<img class = center src='/static/experiments/beast_fmri_test/images/D.png'></img>	89,71	2750.0	test	<img class = center src='/static/experiments/beast_fmri_test/images/redD.png'></img>	stop	1950.0	2.0	15.0	stop	target	D	89,Yellow Button	71,Green Button	800.0	950.0	1950.0	1750.0	0.0	800.0	1.0	0.0	go_stim
74034.691378999967	1950.0	n/a	-1	-1	2750	1922.308621	stim	stop-signal	232	597893	0.0-13.15-1.15	beast_fmri_test	269	595255,/,595935,/,596615,/,597295,/,597975,/,598655,/,599335,/	t,t,t,t,t,t,t	<img class = center src='/static/experiments/beast_fmri_test/images/D.png'></img>	89,71	2750.0	test	<img class = center src='/static/experiments/beast_fmri_test/images/redD.png'></img>	stop	1950.0	2.0	15.0	stop	target	D	89,Yellow Button	71,Green Button	800.0	950.0	1950.0	1750.0	0.0	800.0	1.0	0.0	stop_stim
74834.691378999967	1922.3086210000001	n/a	-1	-1	2750	1922.308621	stim	stop-signal	232	597893	0.0-13.15-1.15	beast_fmri_test	269	595255,/,595935,/,596615,/,597295,/,597975,/,598655,/,599335,/	t,t,t,t,t,t,t	<img class = center src='/static/experiments/beast_fmri_test/images/D.png'></img>	89,71	2750.0	test	<img class = center src='/static/experiments/beast_fmri_test/images/redD.png'></img>	stop	1950.0	2.0	15.0	stop	target	D	89,Yellow Button	71,Green Button	800.0	950.0	1950.0	1750.0	0.0	800.0	1.0	0.0	ITI
79188	500	n/a	-1	-1	500	0.0	fixation	poldrack-single-stim	233	600324	0.0-13.16-0.16	beast_fmri_test	269	600015,/	t	<div class = centerbox><div class = fixation>+</div></div>	none	500.0	test	n/a	n/a	n/a	n/a	n/a	n/a	n/a	n/a	n/a	n/a	n/a	n/a	n/a	n/a	n/a	n/a	n/a	n/a	fixation
77233.893833999988	950.0	n/a	1048	71	2750	1956.106166	stim	stop-signal	234	603076	0.0-13.16-1.16	beast_fmri_test	269	600695,/,601374,/,602056,/,602735,/,603416,/,604096,/,604776,/	t,t,t,t,t,t,t	<img class = center src='/static/experiments/beast_fmri_test/images/B.png'></img>	89,71	2750.0	test	<img class = center src='/static/experiments/beast_fmri_test/images/redB.png'></img>	stop	1800.0	2.0	16.0	stop	non-target	B	89,Yellow Button	71,Green Button	850.0	950.0	1950.0	1800.0	0.0	950.0	0.0	1.0	go_stim
79033.893833999988	1800.0	n/a	1048	71	2750	1956.106166	stim	stop-signal	234	603076	0.0-13.16-1.16	beast_fmri_test	269	600695,/,601374,/,602056,/,602735,/,603416,/,604096,/,604776,/	t,t,t,t,t,t,t	<img class = center src='/static/experiments/beast_fmri_test/images/B.png'></img>	89,71	2750.0	test	<img class = center src='/static/experiments/beast_fmri_test/images/redB.png'></img>	stop	1800.0	2.0	16.0	stop	non-target	B	89,Yellow Button	71,Green Button	850.0	950.0	1950.0	1800.0	0.0	950.0	0.0	1.0	stop_stim
79983.893833999988	1956.106166	n/a	1048	71	2750	1956.106166	stim	stop-signal	234	603076	0.0-13.16-1.16	beast_fmri_test	269	600695,/,601374,/,602056,/,602735,/,603416,/,604096,/,604776,/	t,t,t,t,t,t,t	<img class = center src='/static/experiments/beast_fmri_test/images/B.png'></img>	89,71	2750.0	test	<img class = center src='/static/experiments/beast_fmri_test/images/redB.png'></img>	stop	1800.0	2.0	16.0	stop	non-target	B	89,Yellow Button	71,Green Button	850.0	950.0	1950.0	1800.0	0.0	950.0	0.0	1.0	ITI
84406	500	n/a	-1	-1	500	0.0	fixation	poldrack-single-stim	235	605542	0.0-13.17-0.17	beast_fmri_test	269	605456,/	t	<div class = centerbox><div class = fixation>+</div></div>	none	500.0	test	n/a	n/a	n/a	n/a	n/a	n/a	n/a	n/a	n/a	n/a	n/a	n/a	n/a	n/a	n/a	n/a	n/a	n/a	fixation
81873.742268000031	2750	n/a	1517	71	2750	2534.257732	stim	stop-signal	236	608294	0.0-13.17-1.17	beast_fmri_test	269	606136,/,606816,/,607496,/,608176,/,608856,/,609536,/,610216,/	t,t,t,t,t,t,t	<img class = center src='/static/experiments/beast_fmri_test/images/D.png'></img>	89,71	2750.0	test	<img class = center src='/static/experiments/beast_fmri_test/images/redD.png'></img>	go	1900.0	2.0	17.0	go	target	D	89,Yellow Button	71,Green Button	850.0	900.0	1900.0	1800.0	0.0	850.0	n/a	0.0	go_stim
84623.742268000031	2534.257732	n/a	1517	71	2750	2534.257732	stim	stop-signal	236	608294	0.0-13.17-1.17	beast_fmri_test	269	606136,/,606816,/,607496,/,608176,/,608856,/,609536,/,610216,/	t,t,t,t,t,t,t	<img class = center src='/static/experiments/beast_fmri_test/images/D.png'></img>	89,71	2750.0	test	<img class = center src='/static/experiments/beast_fmri_test/images/redD.png'></img>	go	1900.0	2.0	17.0	go	target	D	89,Yellow Button	71,Green Button	850.0	900.0	1900.0	1800.0	0.0	850.0	n/a	0.0	ITI
90200	500	n/a	-1	-1	500	0.0	fixation	poldrack-single-stim	237	611336	0.0-13.18-0.18	beast_fmri_test	269	610896,/	t	<div class = centerbox><div class = fixation>+</div></div>	none	500.0	test	n/a	n/a	n/a	n/a	n/a	n/a	n/a	n/a	n/a	n/a	n/a	n/a	n/a	n/a	n/a	n/a	n/a	n/a	fixation
90098.444639599998	850.0	n/a	-1	-1	2750	103.5553604	stim	stop-signal	238	614088	0.0-13.18-1.18	beast_fmri_test	269	611576,/,612255,/,612936,/,613616,/	t,t,t,t	<img class = center src='/static/experiments/beast_fmri_test/images/B.png'></img>	89,71	2750.0	test	<img class = center src='/static/experiments/beast_fmri_test/images/redB.png'></img>	stop	1900.0	2.0	18.0	stop	target	B	89,Yellow Button	71,Green Button	850.0	900.0	1900.0	1800.0	0.0	850.0	1.0	0.0	go_stim
91998.444639599998	1900.0	n/a	-1	-1	2750	103.5553604	stim	stop-signal	238	614088	0.0-13.18-1.18	beast_fmri_test	269	611576,/,612255,/,612936,/,613616,/	t,t,t,t	<img class = center src='/static/experiments/beast_fmri_test/images/B.png'></img>	89,71	2750.0	test	<img class = center src='/static/experiments/beast_fmri_test/images/redB.png'></img>	stop	1900.0	2.0	18.0	stop	target	B	89,Yellow Button	71,Green Button	850.0	900.0	1900.0	1800.0	0.0	850.0	1.0	0.0	stop_stim
92848.444639599998	103.55536040000001	n/a	-1	-1	2750	103.5553604	stim	stop-signal	238	614088	0.0-13.18-1.18	beast_fmri_test	269	611576,/,612255,/,612936,/,613616,/	t,t,t,t	<img class = center src='/static/experiments/beast_fmri_test/images/B.png'></img>	89,71	2750.0	test	<img class = center src='/static/experiments/beast_fmri_test/images/redB.png'></img>	stop	1900.0	2.0	18.0	stop	target	B	89,Yellow Button	71,Green Button	850.0	900.0	1900.0	1800.0	0.0	850.0	1.0	0.0	ITI
93564	500	n/a	-1	-1	500	0.0	fixation	poldrack-single-stim	239	614700	0.0-13.19-0.19	beast_fmri_test	269	614296,/	t	<div class = centerbox><div class = fixation>+</div></div>	none	500.0	test	n/a	n/a	n/a	n/a	n/a	n/a	n/a	n/a	n/a	n/a	n/a	n/a	n/a	n/a	n/a	n/a	n/a	n/a	fixation
93355.548954600003	900.0	n/a	794	71	2750	209.4510454	stim	stop-signal	240	617451	0.0-13.19-1.19	beast_fmri_test	269	614975,/,615655,/,616336,/,617015,/	t,t,t,t	<img class = center src='/static/experiments/beast_fmri_test/images/P.png'></img>	89,71	2750.0	test	<img class = center src='/static/experiments/beast_fmri_test/images/redP.png'></img>	stop	1850.0	2.0	19.0	stop	non-target	P	89,Yellow Button	71,Green Button	900.0	900.0	1900.0	1850.0	0.0	900.0	0.0	1.0	go_stim
95205.548954600003	1850.0	n/a	794	71	2750	209.4510454	stim	stop-signal	240	617451	0.0-13.19-1.19	beast_fmri_test	269	614975,/,615655,/,616336,/,617015,/	t,t,t,t	<img class = center src='/static/experiments/beast_fmri_test/images/P.png'></img>	89,71	2750.0	test	<img class = center src='/static/experiments/beast_fmri_test/images/redP.png'></img>	stop	1850.0	2.0	19.0	stop	non-target	P	89,Yellow Button	71,Green Button	900.0	900.0	1900.0	1850.0	0.0	900.0	0.0	1.0	stop_stim
96105.548954600003	209.45104540000003	n/a	794	71	2750	209.4510454	stim	stop-signal	240	617451	0.0-13.19-1.19	beast_fmri_test	269	614975,/,615655,/,616336,/,617015,/	t,t,t,t	<img class = center src='/static/experiments/beast_fmri_test/images/P.png'></img>	89,71	2750.0	test	<img class = center src='/static/experiments/beast_fmri_test/images/redP.png'></img>	stop	1850.0	2.0	19.0	stop	non-target	P	89,Yellow Button	71,Green Button	900.0	900.0	1900.0	1850.0	0.0	900.0	0.0	1.0	ITI
97034	500	n/a	-1	-1	500	0.0	fixation	poldrack-single-stim	241	618170	0.0-13.20-0.20	beast_fmri_test	269	617695,/	t	<div class = centerbox><div class = fixation>+</div></div>	none	500.0	test	n/a	n/a	n/a	n/a	n/a	n/a	n/a	n/a	n/a	n/a	n/a	n/a	n/a	n/a	n/a	n/a	n/a	n/a	fixation
96381.11721279996	2750	n/a	1606	71	2750	654.8827872	stim	stop-signal	242	620922	0.0-13.20-1.20	beast_fmri_test	269	618376,/,619055,/,619735,/,620415,/,621095,/	t,t,t,t,t	<img class = center src='/static/experiments/beast_fmri_test/images/D.png'></img>	89,71	2750.0	test	<img class = center src='/static/experiments/beast_fmri_test/images/redD.png'></img>	go	1900.0	2.0	20.0	go	non-target	D	89,Yellow Button	71,Green Button	900.0	850.0	1900.0	1900.0	1.0	850.0	n/a	1.0	go_stim
99131.11721279996	654.88278720000005	n/a	1606	71	2750	654.8827872	stim	stop-signal	242	620922	0.0-13.20-1.20	beast_fmri_test	269	618376,/,619055,/,619735,/,620415,/,621095,/	t,t,t,t,t	<img class = center src='/static/experiments/beast_fmri_test/images/D.png'></img>	89,71	2750.0	test	<img class = center src='/static/experiments/beast_fmri_test/images/redD.png'></img>	go	1900.0	2.0	20.0	go	non-target	D	89,Yellow Button	71,Green Button	900.0	850.0	1900.0	1900.0	1.0	850.0	n/a	1.0	ITI
100954	500	n/a	-1	-1	500	0.0	fixation	poldrack-single-stim	243	622090	0.0-13.21-0.21	beast_fmri_test	269	621776,/	t	<div class = centerbox><div class = fixation>+</div></div>	none	500.0	test	n/a	n/a	n/a	n/a	n/a	n/a	n/a	n/a	n/a	n/a	n/a	n/a	n/a	n/a	n/a	n/a	n/a	n/a	fixation
99563.591309000039	850.0	n/a	-1	-1	2750	1391.408691	stim	stop-signal	244	624841	0.0-13.21-1.21	beast_fmri_test	269	622456,/,623136,/,623815,/,624495,/,625175,/,625855,/	t,t,t,t,t,t	<img class = center src='/static/experiments/beast_fmri_test/images/B.png'></img>	89,71	2750.0	test	<img class = center src='/static/experiments/beast_fmri_test/images/redB.png'></img>	stop	1900.0	2.0	21.0	stop	non-target	B	89,Yellow Button	71,Green Button	900.0	850.0	1900.0	1900.0	0.0	850.0	1.0	0.0	go_stim
101463.59130900004	1900.0	n/a	-1	-1	2750	1391.408691	stim	stop-signal	244	624841	0.0-13.21-1.21	beast_fmri_test	269	622456,/,623136,/,623815,/,624495,/,625175,/,625855,/	t,t,t,t,t,t	<img class = center src='/static/experiments/beast_fmri_test/images/B.png'></img>	89,71	2750.0	test	<img class = center src='/static/experiments/beast_fmri_test/images/redB.png'></img>	stop	1900.0	2.0	21.0	stop	non-target	B	89,Yellow Button	71,Green Button	900.0	850.0	1900.0	1900.0	0.0	850.0	1.0	0.0	stop_stim
102313.59130900004	1391.4086910000001	n/a	-1	-1	2750	1391.408691	stim	stop-signal	244	624841	0.0-13.21-1.21	beast_fmri_test	269	622456,/,623136,/,623815,/,624495,/,625175,/,625855,/	t,t,t,t,t,t	<img class = center src='/static/experiments/beast_fmri_test/images/B.png'></img>	89,71	2750.0	test	<img class = center src='/static/experiments/beast_fmri_test/images/redB.png'></img>	stop	1900.0	2.0	21.0	stop	non-target	B	89,Yellow Button	71,Green Button	900.0	850.0	1900.0	1900.0	0.0	850.0	1.0	0.0	ITI
105607	500	n/a	-1	-1	500	0.0	fixation	poldrack-single-stim	245	626743	0.0-13.22-0.22	beast_fmri_test	269	626536,/	t	<div class = centerbox><div class = fixation>+</div></div>	none	500.0	test	n/a	n/a	n/a	n/a	n/a	n/a	n/a	n/a	n/a	n/a	n/a	n/a	n/a	n/a	n/a	n/a	n/a	n/a	fixation
105145.89891280001	2750	n/a	869	71	2750	463.1010872	stim	stop-signal	246	629495	0.0-13.22-1.22	beast_fmri_test	269	627215,/,627895,/,628576,/,629255,/,629935,/	t,t,t,t,t	<img class = center src='/static/experiments/beast_fmri_test/images/V.png'></img>	89,71	2750.0	test	<img class = center src='/static/experiments/beast_fmri_test/images/redV.png'></img>	go	1850.0	2.0	22.0	go	non-target	V	89,Yellow Button	71,Green Button	900.0	900.0	1900.0	1850.0	1.0	900.0	n/a	1.0	go_stim
107895.89891280001	463.10108719999994	n/a	869	71	2750	463.1010872	stim	stop-signal	246	629495	0.0-13.22-1.22	beast_fmri_test	269	627215,/,627895,/,628576,/,629255,/,629935,/	t,t,t,t,t	<img class = center src='/static/experiments/beast_fmri_test/images/V.png'></img>	89,71	2750.0	test	<img class = center src='/static/experiments/beast_fmri_test/images/redV.png'></img>	go	1850.0	2.0	22.0	go	non-target	V	89,Yellow Button	71,Green Button	900.0	900.0	1900.0	1850.0	1.0	900.0	n/a	1.0	ITI
109336	500	n/a	-1	-1	500	0.0	fixation	poldrack-single-stim	247	630472	0.0-13.23-0.23	beast_fmri_test	269	n/a	n/a	<div class = centerbox><div class = fixation>+</div></div>	none	500.0	test	n/a	n/a	n/a	n/a	n/a	n/a	n/a	n/a	n/a	n/a	n/a	n/a	n/a	n/a	n/a	n/a	n/a	n/a	fixation
108646.32340889995	2750	n/a	991	89	2750	691.6765911	stim	stop-signal	248	633224	0.0-13.23-1.23	beast_fmri_test	269	630615,/,631295,/,631975,/,632655,/,633335,/	t,t,t,t,t	<img class = center src='/static/experiments/beast_fmri_test/images/B.png'></img>	89,71	2750.0	test	<img class = center src='/static/experiments/beast_fmri_test/images/redB.png'></img>	go	1850.0	2.0	23.0	go	target	B	89,Yellow Button	71,Green Button	900.0	900.0	1850.0	1850.0	1.0	900.0	n/a	1.0	go_stim
111396.32340889995	691.6765911	n/a	991	89	2750	691.6765911	stim	stop-signal	248	633224	0.0-13.23-1.23	beast_fmri_test	269	630615,/,631295,/,631975,/,632655,/,633335,/	t,t,t,t,t	<img class = center src='/static/experiments/beast_fmri_test/images/B.png'></img>	89,71	2750.0	test	<img class = center src='/static/experiments/beast_fmri_test/images/redB.png'></img>	go	1850.0	2.0	23.0	go	target	B	89,Yellow Button	71,Green Button	900.0	900.0	1850.0	1850.0	1.0	900.0	n/a	1.0	ITI
113291	500	n/a	-1	-1	500	0.0	fixation	poldrack-single-stim	249	634427	0.0-13.24-0.24	beast_fmri_test	269	634015,/	t	<div class = centerbox><div class = fixation>+</div></div>	none	500.0	test	n/a	n/a	n/a	n/a	n/a	n/a	n/a	n/a	n/a	n/a	n/a	n/a	n/a	n/a	n/a	n/a	n/a	n/a	fixation
112869.9792231	2750	n/a	1070	71	2750	423.0207769	stim	stop-signal	250	637179	0.0-13.24-1.24	beast_fmri_test	269	634695,/,635375,/,636055,/,636735,/,637416,/	t,t,t,t,t	<img class = center src='/static/experiments/beast_fmri_test/images/P.png'></img>	89,71	2750.0	test	<img class = center src='/static/experiments/beast_fmri_test/images/redP.png'></img>	go	1850.0	2.0	24.0	go	non-target	P	89,Yellow Button	71,Green Button	900.0	900.0	1850.0	1850.0	1.0	900.0	n/a	1.0	go_stim
115619.9792231	423.02077689999993	n/a	1070	71	2750	423.0207769	stim	stop-signal	250	637179	0.0-13.24-1.24	beast_fmri_test	269	634695,/,635375,/,636055,/,636735,/,637416,/	t,t,t,t,t	<img class = center src='/static/experiments/beast_fmri_test/images/P.png'></img>	89,71	2750.0	test	<img class = center src='/static/experiments/beast_fmri_test/images/redP.png'></img>	go	1850.0	2.0	24.0	go	non-target	P	89,Yellow Button	71,Green Button	900.0	900.0	1850.0	1850.0	1.0	900.0	n/a	1.0	ITI
116977	500	n/a	-1	-1	500	0.0	fixation	poldrack-single-stim	251	638113	0.0-13.25-0.25	beast_fmri_test	269	638096,/	t	<div class = centerbox><div class = fixation>+</div></div>	none	500.0	test	n/a	n/a	n/a	n/a	n/a	n/a	n/a	n/a	n/a	n/a	n/a	n/a	n/a	n/a	n/a	n/a	n/a	n/a	fixation
116275.77873639995	2750	n/a	1061	89	2750	702.2212636	stim	stop-signal	252	640864	0.0-13.25-1.25	beast_fmri_test	269	638776,/,639456,/,640136,/,640816,/,641496,/	t,t,t,t,t	<img class = center src='/static/experiments/beast_fmri_test/images/B.png'></img>	89,71	2750.0	test	<img class = center src='/static/experiments/beast_fmri_test/images/redB.png'></img>	go	1850.0	2.0	25.0	go	target	B	89,Yellow Button	71,Green Button	900.0	900.0	1850.0	1850.0	1.0	900.0	n/a	1.0	go_stim
119025.77873639995	702.22126360000004	n/a	1061	89	2750	702.2212636	stim	stop-signal	252	640864	0.0-13.25-1.25	beast_fmri_test	269	638776,/,639456,/,640136,/,640816,/,641496,/	t,t,t,t,t	<img class = center src='/static/experiments/beast_fmri_test/images/B.png'></img>	89,71	2750.0	test	<img class = center src='/static/experiments/beast_fmri_test/images/redB.png'></img>	go	1850.0	2.0	25.0	go	target	B	89,Yellow Button	71,Green Button	900.0	900.0	1850.0	1850.0	1.0	900.0	n/a	1.0	ITI
120942	500	n/a	-1	-1	500	0.0	fixation	poldrack-single-stim	253	642078	0.0-13.26-0.26	beast_fmri_test	269	n/a	n/a	<div class = centerbox><div class = fixation>+</div></div>	none	500.0	test	n/a	n/a	n/a	n/a	n/a	n/a	n/a	n/a	n/a	n/a	n/a	n/a	n/a	n/a	n/a	n/a	n/a	n/a	fixation
118099.95349600003	2750	n/a	1743	71	2750	2844.046504	stim	stop-signal	254	644830	0.0-13.26-1.26	beast_fmri_test	269	642176,/,642856,/,643536,/,644216,/,644896,/,645576,/,646256,/,646936,/,647616,/	t,t,t,t,t,t,t,t,t	<img class = center src='/static/experiments/beast_fmri_test/images/P.png'></img>	89,71	2750.0	test	<img class = center src='/static/experiments/beast_fmri_test/images/redP.png'></img>	go	1850.0	2.0	26.0	go	target	P	89,Yellow Button	71,Green Button	900.0	900.0	1850.0	1850.0	0.0	900.0	n/a	0.0	go_stim
120849.95349600003	2844.0465039999999	n/a	1743	71	2750	2844.046504	stim	stop-signal	254	644830	0.0-13.26-1.26	beast_fmri_test	269	642176,/,642856,/,643536,/,644216,/,644896,/,645576,/,646256,/,646936,/,647616,/	t,t,t,t,t,t,t,t,t	<img class = center src='/static/experiments/beast_fmri_test/images/P.png'></img>	89,71	2750.0	test	<img class = center src='/static/experiments/beast_fmri_test/images/redP.png'></img>	go	1850.0	2.0	26.0	go	target	P	89,Yellow Button	71,Green Button	900.0	900.0	1850.0	1850.0	0.0	900.0	n/a	0.0	ITI
127049	500	n/a	-1	-1	500	0.0	fixation	poldrack-single-stim	255	648185	0.0-13.27-0.27	beast_fmri_test	269	n/a	n/a	<div class = centerbox><div class = fixation>+</div></div>	none	500.0	test	n/a	n/a	n/a	n/a	n/a	n/a	n/a	n/a	n/a	n/a	n/a	n/a	n/a	n/a	n/a	n/a	n/a	n/a	fixation
126930.60176270001	900.0	n/a	-1	-1	2750	120.3982373	stim	stop-signal	256	650937	0.0-13.27-1.27	beast_fmri_test	269	648296,/,648976,/,649656,/,650336,/,651015,/	t,t,t,t,t	<img class = center src='/static/experiments/beast_fmri_test/images/T.png'></img>	89,71	2750.0	test	<img class = center src='/static/experiments/beast_fmri_test/images/redT.png'></img>	stop	1850.0	2.0	27.0	stop	non-target	T	89,Yellow Button	71,Green Button	900.0	900.0	1850.0	1850.0	0.0	900.0	1.0	0.0	go_stim
128780.60176270001	1850.0	n/a	-1	-1	2750	120.3982373	stim	stop-signal	256	650937	0.0-13.27-1.27	beast_fmri_test	269	648296,/,648976,/,649656,/,650336,/,651015,/	t,t,t,t,t	<img class = center src='/static/experiments/beast_fmri_test/images/T.png'></img>	89,71	2750.0	test	<img class = center src='/static/experiments/beast_fmri_test/images/redT.png'></img>	stop	1850.0	2.0	27.0	stop	non-target	T	89,Yellow Button	71,Green Button	900.0	900.0	1850.0	1850.0	0.0	900.0	1.0	0.0	stop_stim
129680.60176270001	120.39823729999999	n/a	-1	-1	2750	120.3982373	stim	stop-signal	256	650937	0.0-13.27-1.27	beast_fmri_test	269	648296,/,648976,/,649656,/,650336,/,651015,/	t,t,t,t,t	<img class = center src='/static/experiments/beast_fmri_test/images/T.png'></img>	89,71	2750.0	test	<img class = center src='/static/experiments/beast_fmri_test/images/redT.png'></img>	stop	1850.0	2.0	27.0	stop	non-target	T	89,Yellow Button	71,Green Button	900.0	900.0	1850.0	1850.0	0.0	900.0	1.0	0.0	ITI
130434	500	n/a	-1	-1	500	0.0	fixation	poldrack-single-stim	257	651570	0.0-13.28-0.28	beast_fmri_test	269	n/a	n/a	<div class = centerbox><div class = fixation>+</div></div>	none	500.0	test	n/a	n/a	n/a	n/a	n/a	n/a	n/a	n/a	n/a	n/a	n/a	n/a	n/a	n/a	n/a	n/a	n/a	n/a	fixation
130228.04097009997	2750	n/a	1085	89	2750	206.9590299	stim	stop-signal	258	654321	0.0-13.28-1.28	beast_fmri_test	269	651695,/,652376,/,653055,/,653736,/,654415,/	t,t,t,t,t	<img class = center src='/static/experiments/beast_fmri_test/images/P.png'></img>	89,71	2750.0	test	<img class = center src='/static/experiments/beast_fmri_test/images/redP.png'></img>	go	1850.0	2.0	28.0	go	target	P	89,Yellow Button	71,Green Button	900.0	950.0	1850.0	1850.0	1.0	900.0	n/a	1.0	go_stim
132978.04097009997	206.95902990000002	n/a	1085	89	2750	206.9590299	stim	stop-signal	258	654321	0.0-13.28-1.28	beast_fmri_test	269	651695,/,652376,/,653055,/,653736,/,654415,/	t,t,t,t,t	<img class = center src='/static/experiments/beast_fmri_test/images/P.png'></img>	89,71	2750.0	test	<img class = center src='/static/experiments/beast_fmri_test/images/redP.png'></img>	go	1850.0	2.0	28.0	go	target	P	89,Yellow Button	71,Green Button	900.0	950.0	1850.0	1850.0	1.0	900.0	n/a	1.0	ITI
133902	500	n/a	-1	-1	500	0.0	fixation	poldrack-single-stim	259	655038	0.0-13.29-0.29	beast_fmri_test	269	n/a	n/a	<div class = centerbox><div class = fixation>+</div></div>	none	500.0	test	n/a	n/a	n/a	n/a	n/a	n/a	n/a	n/a	n/a	n/a	n/a	n/a	n/a	n/a	n/a	n/a	n/a	n/a	fixation
131365.52074199996	2750	n/a	1103	71	2750	2537.479258	stim	stop-signal	260	657789	0.0-13.29-1.29	beast_fmri_test	269	655096,/,655775,/,656455,/,657135,/,657815,/,658495,/,659176,/,659855,/	t,t,t,t,t,t,t,t	<img class = center src='/static/experiments/beast_fmri_test/images/D.png'></img>	89,71	2750.0	test	<img class = center src='/static/experiments/beast_fmri_test/images/redD.png'></img>	go	1800.0	2.0	29.0	go	non-target	D	89,Yellow Button	71,Green Button	900.0	950.0	1850.0	1800.0	1.0	950.0	n/a	1.0	go_stim
134115.52074199996	2537.4792579999998	n/a	1103	71	2750	2537.479258	stim	stop-signal	260	657789	0.0-13.29-1.29	beast_fmri_test	269	655096,/,655775,/,656455,/,657135,/,657815,/,658495,/,659176,/,659855,/	t,t,t,t,t,t,t,t	<img class = center src='/static/experiments/beast_fmri_test/images/D.png'></img>	89,71	2750.0	test	<img class = center src='/static/experiments/beast_fmri_test/images/redD.png'></img>	go	1800.0	2.0	29.0	go	non-target	D	89,Yellow Button	71,Green Button	900.0	950.0	1850.0	1800.0	1.0	950.0	n/a	1.0	ITI
139704	500	n/a	-1	-1	500	0.0	fixation	poldrack-single-stim	261	660840	0.0-13.30-0.30	beast_fmri_test	269	660535,/	t	<div class = centerbox><div class = fixation>+</div></div>	none	500.0	test	n/a	n/a	n/a	n/a	n/a	n/a	n/a	n/a	n/a	n/a	n/a	n/a	n/a	n/a	n/a	n/a	n/a	n/a	fixation
139200.51921619999	2750	n/a	925	71	2750	505.4807838	stim	stop-signal	262	663592	0.0-13.30-1.30	beast_fmri_test	269	661215,/,661895,/,662575,/,663255,/,663935,/	t,t,t,t,t	<img class = center src='/static/experiments/beast_fmri_test/images/B.png'></img>	89,71	2750.0	test	<img class = center src='/static/experiments/beast_fmri_test/images/redB.png'></img>	go	1800.0	2.0	30.0	go	non-target	B	89,Yellow Button	71,Green Button	900.0	950.0	1850.0	1800.0	1.0	950.0	n/a	1.0	go_stim
141950.51921619999	505.48078380000004	n/a	925	71	2750	505.4807838	stim	stop-signal	262	663592	0.0-13.30-1.30	beast_fmri_test	269	661215,/,661895,/,662575,/,663255,/,663935,/	t,t,t,t,t	<img class = center src='/static/experiments/beast_fmri_test/images/B.png'></img>	89,71	2750.0	test	<img class = center src='/static/experiments/beast_fmri_test/images/redB.png'></img>	go	1800.0	2.0	30.0	go	non-target	B	89,Yellow Button	71,Green Button	900.0	950.0	1850.0	1800.0	1.0	950.0	n/a	1.0	ITI
143474	500	n/a	-1	-1	500	0.0	fixation	poldrack-single-stim	263	664610	0.0-13.31-0.31	beast_fmri_test	269	n/a	n/a	<div class = centerbox><div class = fixation>+</div></div>	none	500.0	test	n/a	n/a	n/a	n/a	n/a	n/a	n/a	n/a	n/a	n/a	n/a	n/a	n/a	n/a	n/a	n/a	n/a	n/a	fixation
142166.14912399999	950.0	n/a	1023	89	2750	1308.850876	stim	stop-signal	264	667361	0.0-13.31-1.31	beast_fmri_test	269	664615,/,665295,/,665975,/,666655,/,667335,/,668015,/	t,t,t,t,t,t	<img class = center src='/static/experiments/beast_fmri_test/images/P.png'></img>	89,71	2750.0	test	<img class = center src='/static/experiments/beast_fmri_test/images/redP.png'></img>	stop	1800.0	2.0	31.0	stop	non-target	P	89,Yellow Button	71,Green Button	900.0	950.0	1850.0	1800.0	0.0	950.0	0.0	0.0	go_stim
143966.14912399999	1800.0	n/a	1023	89	2750	1308.850876	stim	stop-signal	264	667361	0.0-13.31-1.31	beast_fmri_test	269	664615,/,665295,/,665975,/,666655,/,667335,/,668015,/	t,t,t,t,t,t	<img class = center src='/static/experiments/beast_fmri_test/images/P.png'></img>	89,71	2750.0	test	<img class = center src='/static/experiments/beast_fmri_test/images/redP.png'></img>	stop	1800.0	2.0	31.0	stop	non-target	P	89,Yellow Button	71,Green Button	900.0	950.0	1850.0	1800.0	0.0	950.0	0.0	0.0	stop_stim
144916.14912399999	1308.850876	n/a	1023	89	2750	1308.850876	stim	stop-signal	264	667361	0.0-13.31-1.31	beast_fmri_test	269	664615,/,665295,/,665975,/,666655,/,667335,/,668015,/	t,t,t,t,t,t	<img class = center src='/static/experiments/beast_fmri_test/images/P.png'></img>	89,71	2750.0	test	<img class = center src='/static/experiments/beast_fmri_test/images/redP.png'></img>	stop	1800.0	2.0	31.0	stop	non-target	P	89,Yellow Button	71,Green Button	900.0	950.0	1850.0	1800.0	0.0	950.0	0.0	0.0	ITI
148047	500	n/a	-1	-1	500	0.0	fixation	poldrack-single-stim	265	669183	0.0-13.32-0.32	beast_fmri_test	269	668695,/	t	<div class = centerbox><div class = fixation>+</div></div>	none	500.0	test	n/a	n/a	n/a	n/a	n/a	n/a	n/a	n/a	n/a	n/a	n/a	n/a	n/a	n/a	n/a	n/a	n/a	n/a	fixation
147873.58417369996	2750	n/a	1378	71	2750	174.4158263	stim	stop-signal	266	671934	0.0-13.32-1.32	beast_fmri_test	269	669376,/,670055,/,670735,/,671415,/,672096,/	t,t,t,t,t	<img class = center src='/static/experiments/beast_fmri_test/images/V.png'></img>	89,71	2750.0	test	<img class = center src='/static/experiments/beast_fmri_test/images/redV.png'></img>	go	1850.0	2.0	32.0	go	non-target	V	89,Yellow Button	71,Green Button	900.0	900.0	1850.0	1850.0	1.0	900.0	n/a	1.0	go_stim
150623.58417369996	174.41582629999999	n/a	1378	71	2750	174.4158263	stim	stop-signal	266	671934	0.0-13.32-1.32	beast_fmri_test	269	669376,/,670055,/,670735,/,671415,/,672096,/	t,t,t,t,t	<img class = center src='/static/experiments/beast_fmri_test/images/V.png'></img>	89,71	2750.0	test	<img class = center src='/static/experiments/beast_fmri_test/images/redV.png'></img>	go	1850.0	2.0	32.0	go	non-target	V	89,Yellow Button	71,Green Button	900.0	900.0	1850.0	1850.0	1.0	900.0	n/a	1.0	ITI
151485	500	n/a	-1	-1	500	0.0	fixation	poldrack-single-stim	267	672621	0.0-13.33-0.33	beast_fmri_test	269	n/a	n/a	<div class = centerbox><div class = fixation>+</div></div>	none	500.0	test	n/a	n/a	n/a	n/a	n/a	n/a	n/a	n/a	n/a	n/a	n/a	n/a	n/a	n/a	n/a	n/a	n/a	n/a	fixation
149654.04499299999	900.0	n/a	-1	-1	2750	1831.955007	stim	stop-signal	268	675372	0.0-13.33-1.33	beast_fmri_test	269	672776,/,673456,/,674136,/,674816,/,675496,/,676176,/,676856,/	t,t,t,t,t,t,t	<img class = center src='/static/experiments/beast_fmri_test/images/T.png'></img>	89,71	2750.0	test	<img class = center src='/static/experiments/beast_fmri_test/images/redT.png'></img>	stop	1850.0	2.0	33.0	stop	non-target	T	89,Yellow Button	71,Green Button	900.0	900.0	1850.0	1850.0	0.0	900.0	1.0	0.0	go_stim
151504.04499299999	1850.0	n/a	-1	-1	2750	1831.955007	stim	stop-signal	268	675372	0.0-13.33-1.33	beast_fmri_test	269	672776,/,673456,/,674136,/,674816,/,675496,/,676176,/,676856,/	t,t,t,t,t,t,t	<img class = center src='/static/experiments/beast_fmri_test/images/T.png'></img>	89,71	2750.0	test	<img class = center src='/static/experiments/beast_fmri_test/images/redT.png'></img>	stop	1850.0	2.0	33.0	stop	non-target	T	89,Yellow Button	71,Green Button	900.0	900.0	1850.0	1850.0	0.0	900.0	1.0	0.0	stop_stim
152404.04499299999	1831.955007	n/a	-1	-1	2750	1831.955007	stim	stop-signal	268	675372	0.0-13.33-1.33	beast_fmri_test	269	672776,/,673456,/,674136,/,674816,/,675496,/,676176,/,676856,/	t,t,t,t,t,t,t	<img class = center src='/static/experiments/beast_fmri_test/images/T.png'></img>	89,71	2750.0	test	<img class = center src='/static/experiments/beast_fmri_test/images/redT.png'></img>	stop	1850.0	2.0	33.0	stop	non-target	T	89,Yellow Button	71,Green Button	900.0	900.0	1850.0	1850.0	0.0	900.0	1.0	0.0	ITI
156580	500	n/a	-1	-1	500	0.0	fixation	poldrack-single-stim	269	677716	0.0-13.34-0.34	beast_fmri_test	269	677536,/	t	<div class = centerbox><div class = fixation>+</div></div>	none	500.0	test	n/a	n/a	n/a	n/a	n/a	n/a	n/a	n/a	n/a	n/a	n/a	n/a	n/a	n/a	n/a	n/a	n/a	n/a	fixation
155873.4951538	950.0	n/a	-1	-1	2750	708.5048462	stim	stop-signal	270	680468	0.0-13.34-1.34	beast_fmri_test	269	678216,/,678896,/,679577,/,680256,/,680935,/	t,t,t,t,t	<img class = center src='/static/experiments/beast_fmri_test/images/P.png'></img>	89,71	2750.0	test	<img class = center src='/static/experiments/beast_fmri_test/images/redP.png'></img>	stop	1800.0	2.0	34.0	stop	non-target	P	89,Yellow Button	71,Green Button	900.0	950.0	1850.0	1800.0	0.0	950.0	1.0	0.0	go_stim
157673.4951538	1800.0	n/a	-1	-1	2750	708.5048462	stim	stop-signal	270	680468	0.0-13.34-1.34	beast_fmri_test	269	678216,/,678896,/,679577,/,680256,/,680935,/	t,t,t,t,t	<img class = center src='/static/experiments/beast_fmri_test/images/P.png'></img>	89,71	2750.0	test	<img class = center src='/static/experiments/beast_fmri_test/images/redP.png'></img>	stop	1800.0	2.0	34.0	stop	non-target	P	89,Yellow Button	71,Green Button	900.0	950.0	1850.0	1800.0	0.0	950.0	1.0	0.0	stop_stim
158623.4951538	708.50484619999997	n/a	-1	-1	2750	708.5048462	stim	stop-signal	270	680468	0.0-13.34-1.34	beast_fmri_test	269	678216,/,678896,/,679577,/,680256,/,680935,/	t,t,t,t,t	<img class = center src='/static/experiments/beast_fmri_test/images/P.png'></img>	89,71	2750.0	test	<img class = center src='/static/experiments/beast_fmri_test/images/redP.png'></img>	stop	1800.0	2.0	34.0	stop	non-target	P	89,Yellow Button	71,Green Button	900.0	950.0	1850.0	1800.0	0.0	950.0	1.0	0.0	ITI
160554	500	n/a	-1	-1	500	0.0	fixation	poldrack-single-stim	271	681690	0.0-13.35-0.35	beast_fmri_test	269	681616,/	t	<div class = centerbox><div class = fixation>+</div></div>	none	500.0	test	n/a	n/a	n/a	n/a	n/a	n/a	n/a	n/a	n/a	n/a	n/a	n/a	n/a	n/a	n/a	n/a	n/a	n/a	fixation
158530.29438400001	2750	n/a	1682	71	2750	2025.705616	stim	stop-signal	272	684442	0.0-13.35-1.35	beast_fmri_test	269	682296,/,682975,/,683656,/,684336,/,685015,/,685695,/,686376,/	t,t,t,t,t,t,t	<img class = center src='/static/experiments/beast_fmri_test/images/B.png'></img>	89,71	2750.0	test	<img class = center src='/static/experiments/beast_fmri_test/images/redB.png'></img>	go	1750.0	2.0	35.0	go	non-target	B	89,Yellow Button	71,Green Button	900.0	1000.0	1850.0	1750.0	1.0	1000.0	n/a	1.0	go_stim
161280.29438400001	2025.705616	n/a	1682	71	2750	2025.705616	stim	stop-signal	272	684442	0.0-13.35-1.35	beast_fmri_test	269	682296,/,682975,/,683656,/,684336,/,685015,/,685695,/,686376,/	t,t,t,t,t,t,t	<img class = center src='/static/experiments/beast_fmri_test/images/B.png'></img>	89,71	2750.0	test	<img class = center src='/static/experiments/beast_fmri_test/images/redB.png'></img>	go	1750.0	2.0	35.0	go	non-target	B	89,Yellow Button	71,Green Button	900.0	1000.0	1850.0	1750.0	1.0	1000.0	n/a	1.0	ITI
165844	500	n/a	-1	-1	500	0.0	fixation	poldrack-single-stim	273	686980	0.0-13.36-0.36	beast_fmri_test	269	n/a	n/a	<div class = centerbox><div class = fixation>+</div></div>	none	500.0	test	n/a	n/a	n/a	n/a	n/a	n/a	n/a	n/a	n/a	n/a	n/a	n/a	n/a	n/a	n/a	n/a	n/a	n/a	fixation
165378.10994770005	2750	n/a	761	71	2750	466.8900523	stim	stop-signal	274	689731	0.0-13.36-1.36	beast_fmri_test	269	687055,/,687735,/,688415,/,689096,/,689776,/	t,t,t,t,t	<img class = center src='/static/experiments/beast_fmri_test/images/D.png'></img>	89,71	2750.0	test	<img class = center src='/static/experiments/beast_fmri_test/images/redD.png'></img>	go	1750.0	2.0	36.0	go	non-target	D	89,Yellow Button	71,Green Button	900.0	1000.0	1850.0	1750.0	1.0	1000.0	n/a	1.0	go_stim
168128.10994770005	466.89005229999998	n/a	761	71	2750	466.8900523	stim	stop-signal	274	689731	0.0-13.36-1.36	beast_fmri_test	269	687055,/,687735,/,688415,/,689096,/,689776,/	t,t,t,t,t	<img class = center src='/static/experiments/beast_fmri_test/images/D.png'></img>	89,71	2750.0	test	<img class = center src='/static/experiments/beast_fmri_test/images/redD.png'></img>	go	1750.0	2.0	36.0	go	non-target	D	89,Yellow Button	71,Green Button	900.0	1000.0	1850.0	1750.0	1.0	1000.0	n/a	1.0	ITI
169574	500	n/a	-1	-1	500	0.0	fixation	poldrack-single-stim	275	690710	0.0-13.37-0.37	beast_fmri_test	269	690456,/	t	<div class = centerbox><div class = fixation>+</div></div>	none	500.0	test	n/a	n/a	n/a	n/a	n/a	n/a	n/a	n/a	n/a	n/a	n/a	n/a	n/a	n/a	n/a	n/a	n/a	n/a	fixation
169083.15869870002	900.0	n/a	894	89	2750	491.8413013	stim	stop-signal	276	693461	0.0-13.37-1.37	beast_fmri_test	269	691135,/,691815,/,692495,/,693175,/,693856,/	t,t,t,t,t	<img class = center src='/static/experiments/beast_fmri_test/images/B.png'></img>	89,71	2750.0	test	<img class = center src='/static/experiments/beast_fmri_test/images/redB.png'></img>	stop	1850.0	2.0	37.0	stop	target	B	89,Yellow Button	71,Green Button	900.0	1000.0	1850.0	1750.0	0.0	900.0	0.0	1.0	go_stim
170933.15869870002	1850.0	n/a	894	89	2750	491.8413013	stim	stop-signal	276	693461	0.0-13.37-1.37	beast_fmri_test	269	691135,/,691815,/,692495,/,693175,/,693856,/	t,t,t,t,t	<img class = center src='/static/experiments/beast_fmri_test/images/B.png'></img>	89,71	2750.0	test	<img class = center src='/static/experiments/beast_fmri_test/images/redB.png'></img>	stop	1850.0	2.0	37.0	stop	target	B	89,Yellow Button	71,Green Button	900.0	1000.0	1850.0	1750.0	0.0	900.0	0.0	1.0	stop_stim
171833.15869870002	491.84130130000005	n/a	894	89	2750	491.8413013	stim	stop-signal	276	693461	0.0-13.37-1.37	beast_fmri_test	269	691135,/,691815,/,692495,/,693175,/,693856,/	t,t,t,t,t	<img class = center src='/static/experiments/beast_fmri_test/images/B.png'></img>	89,71	2750.0	test	<img class = center src='/static/experiments/beast_fmri_test/images/redB.png'></img>	stop	1850.0	2.0	37.0	stop	target	B	89,Yellow Button	71,Green Button	900.0	1000.0	1850.0	1750.0	0.0	900.0	0.0	1.0	ITI
173330	500	n/a	-1	-1	500	0.0	fixation	poldrack-single-stim	277	694466	0.0-13.38-0.38	beast_fmri_test	269	n/a	n/a	<div class = centerbox><div class = fixation>+</div></div>	none	500.0	test	n/a	n/a	n/a	n/a	n/a	n/a	n/a	n/a	n/a	n/a	n/a	n/a	n/a	n/a	n/a	n/a	n/a	n/a	fixation
172238.19275799999	850.0	n/a	-1	-1	2750	1093.807242	stim	stop-signal	278	697218	0.0-13.38-1.38	beast_fmri_test	269	694535,/,695215,/,695896,/,696575,/,697255,/,697935,/	t,t,t,t,t,t	<img class = center src='/static/experiments/beast_fmri_test/images/D.png'></img>	89,71	2750.0	test	<img class = center src='/static/experiments/beast_fmri_test/images/redD.png'></img>	stop	1900.0	2.0	38.0	stop	target	D	89,Yellow Button	71,Green Button	850.0	1000.0	1900.0	1750.0	0.0	850.0	1.0	0.0	go_stim
174138.19275799999	1900.0	n/a	-1	-1	2750	1093.807242	stim	stop-signal	278	697218	0.0-13.38-1.38	beast_fmri_test	269	694535,/,695215,/,695896,/,696575,/,697255,/,697935,/	t,t,t,t,t,t	<img class = center src='/static/experiments/beast_fmri_test/images/D.png'></img>	89,71	2750.0	test	<img class = center src='/static/experiments/beast_fmri_test/images/redD.png'></img>	stop	1900.0	2.0	38.0	stop	target	D	89,Yellow Button	71,Green Button	850.0	1000.0	1900.0	1750.0	0.0	850.0	1.0	0.0	stop_stim
174988.19275799999	1093.8072420000001	n/a	-1	-1	2750	1093.807242	stim	stop-signal	278	697218	0.0-13.38-1.38	beast_fmri_test	269	694535,/,695215,/,695896,/,696575,/,697255,/,697935,/	t,t,t,t,t,t	<img class = center src='/static/experiments/beast_fmri_test/images/D.png'></img>	89,71	2750.0	test	<img class = center src='/static/experiments/beast_fmri_test/images/redD.png'></img>	stop	1900.0	2.0	38.0	stop	target	D	89,Yellow Button	71,Green Button	850.0	1000.0	1900.0	1750.0	0.0	850.0	1.0	0.0	ITI
177691	500	n/a	-1	-1	500	0.0	fixation	poldrack-single-stim	279	698827	0.0-13.39-0.39	beast_fmri_test	269	698615,/	t	<div class = centerbox><div class = fixation>+</div></div>	none	500.0	test	n/a	n/a	n/a	n/a	n/a	n/a	n/a	n/a	n/a	n/a	n/a	n/a	n/a	n/a	n/a	n/a	n/a	n/a	fixation
177118.33268780005	2750	n/a	1063	89	2750	575.6673122	stim	stop-signal	280	701580	0.0-13.39-1.39	beast_fmri_test	269	699295,/,699975,/,700655,/,701335,/,702015,/	t,t,t,t,t	<img class = center src='/static/experiments/beast_fmri_test/images/B.png'></img>	89,71	2750.0	test	<img class = center src='/static/experiments/beast_fmri_test/images/redB.png'></img>	go	1850.0	2.0	39.0	go	target	B	89,Yellow Button	71,Green Button	900.0	1000.0	1850.0	1750.0	1.0	900.0	n/a	1.0	go_stim
179868.33268780005	575.66731220000008	n/a	1063	89	2750	575.6673122	stim	stop-signal	280	701580	0.0-13.39-1.39	beast_fmri_test	269	699295,/,699975,/,700655,/,701335,/,702015,/	t,t,t,t,t	<img class = center src='/static/experiments/beast_fmri_test/images/B.png'></img>	89,71	2750.0	test	<img class = center src='/static/experiments/beast_fmri_test/images/redB.png'></img>	go	1850.0	2.0	39.0	go	target	B	89,Yellow Button	71,Green Button	900.0	1000.0	1850.0	1750.0	1.0	900.0	n/a	1.0	ITI
181533	500	n/a	-1	-1	500	0.0	fixation	poldrack-single-stim	281	702669	0.0-13.40-0.40	beast_fmri_test	269	n/a	n/a	<div class = centerbox><div class = fixation>+</div></div>	none	500.0	test	n/a	n/a	n/a	n/a	n/a	n/a	n/a	n/a	n/a	n/a	n/a	n/a	n/a	n/a	n/a	n/a	n/a	n/a	fixation
181218.43663270003	2750	n/a	1600	71	2750	316.5633673	stim	stop-signal	282	705421	0.0-13.40-1.40	beast_fmri_test	269	702695,/,703375,/,704055,/,704735,/,705415,/	t,t,t,t,t	<img class = center src='/static/experiments/beast_fmri_test/images/T.png'></img>	89,71	2750.0	test	<img class = center src='/static/experiments/beast_fmri_test/images/redT.png'></img>	go	1750.0	2.0	40.0	go	non-target	T	89,Yellow Button	71,Green Button	900.0	1000.0	1850.0	1750.0	1.0	1000.0	n/a	1.0	go_stim
183968.43663270003	316.56336729999998	n/a	1600	71	2750	316.5633673	stim	stop-signal	282	705421	0.0-13.40-1.40	beast_fmri_test	269	702695,/,703375,/,704055,/,704735,/,705415,/	t,t,t,t,t	<img class = center src='/static/experiments/beast_fmri_test/images/T.png'></img>	89,71	2750.0	test	<img class = center src='/static/experiments/beast_fmri_test/images/redT.png'></img>	go	1750.0	2.0	40.0	go	non-target	T	89,Yellow Button	71,Green Button	900.0	1000.0	1850.0	1750.0	1.0	1000.0	n/a	1.0	ITI
185112	500	n/a	-1	-1	500	0.0	fixation	poldrack-single-stim	283	706248	0.0-13.41-0.41	beast_fmri_test	269	706095,/	t	<div class = centerbox><div class = fixation>+</div></div>	none	500.0	test	n/a	n/a	n/a	n/a	n/a	n/a	n/a	n/a	n/a	n/a	n/a	n/a	n/a	n/a	n/a	n/a	n/a	n/a	fixation
184872.40106800001	2750	n/a	1752	71	2750	241.598932	stim	stop-signal	284	709000	0.0-13.41-1.41	beast_fmri_test	269	706776,/,707456,/,708136,/,708816,/	t,t,t,t	<img class = center src='/static/experiments/beast_fmri_test/images/D.png'></img>	89,71	2750.0	test	<img class = center src='/static/experiments/beast_fmri_test/images/redD.png'></img>	go	1750.0	2.0	41.0	go	non-target	D	89,Yellow Button	71,Green Button	900.0	1000.0	1850.0	1750.0	1.0	1000.0	n/a	1.0	go_stim
187622.40106800001	241.59893199999999	n/a	1752	71	2750	241.598932	stim	stop-signal	284	709000	0.0-13.41-1.41	beast_fmri_test	269	706776,/,707456,/,708136,/,708816,/	t,t,t,t	<img class = center src='/static/experiments/beast_fmri_test/images/D.png'></img>	89,71	2750.0	test	<img class = center src='/static/experiments/beast_fmri_test/images/redD.png'></img>	go	1750.0	2.0	41.0	go	non-target	D	89,Yellow Button	71,Green Button	900.0	1000.0	1850.0	1750.0	1.0	1000.0	n/a	1.0	ITI
188620	500	n/a	-1	-1	500	0.0	fixation	poldrack-single-stim	285	709756	0.0-13.42-0.42	beast_fmri_test	269	709496,/	t	<div class = centerbox><div class = fixation>+</div></div>	none	500.0	test	n/a	n/a	n/a	n/a	n/a	n/a	n/a	n/a	n/a	n/a	n/a	n/a	n/a	n/a	n/a	n/a	n/a	n/a	fixation
188465.20841299999	2750	n/a	1234	71	2750	156.791587	stim	stop-signal	286	712508	0.0-13.42-1.42	beast_fmri_test	269	710177,/,710856,/,711535,/,712216,/	t,t,t,t	<img class = center src='/static/experiments/beast_fmri_test/images/P.png'></img>	89,71	2750.0	test	<img class = center src='/static/experiments/beast_fmri_test/images/redP.png'></img>	go	1750.0	2.0	42.0	go	non-target	P	89,Yellow Button	71,Green Button	900.0	1000.0	1850.0	1750.0	1.0	1000.0	n/a	1.0	go_stim
191215.20841299999	156.79158700000002	n/a	1234	71	2750	156.791587	stim	stop-signal	286	712508	0.0-13.42-1.42	beast_fmri_test	269	710177,/,710856,/,711535,/,712216,/	t,t,t,t	<img class = center src='/static/experiments/beast_fmri_test/images/P.png'></img>	89,71	2750.0	test	<img class = center src='/static/experiments/beast_fmri_test/images/redP.png'></img>	go	1750.0	2.0	42.0	go	non-target	P	89,Yellow Button	71,Green Button	900.0	1000.0	1850.0	1750.0	1.0	1000.0	n/a	1.0	ITI
192040	500	n/a	-1	-1	500	0.0	fixation	poldrack-single-stim	287	713176	0.0-13.43-0.43	beast_fmri_test	269	712896,/	t	<div class = centerbox><div class = fixation>+</div></div>	none	500.0	test	n/a	n/a	n/a	n/a	n/a	n/a	n/a	n/a	n/a	n/a	n/a	n/a	n/a	n/a	n/a	n/a	n/a	n/a	fixation
191181.4137267	2750	n/a	1248	89	2750	859.5862733	stim	stop-signal	288	715927	0.0-13.43-1.43	beast_fmri_test	269	713576,/,714256,/,714936,/,715615,/,716296,/	t,t,t,t,t	<img class = center src='/static/experiments/beast_fmri_test/images/B.png'></img>	89,71	2750.0	test	<img class = center src='/static/experiments/beast_fmri_test/images/redB.png'></img>	go	1750.0	2.0	43.0	go	non-target	B	89,Yellow Button	71,Green Button	900.0	1000.0	1850.0	1750.0	0.0	1000.0	n/a	0.0	go_stim
193931.4137267	859.5862732999999	n/a	1248	89	2750	859.5862733	stim	stop-signal	288	715927	0.0-13.43-1.43	beast_fmri_test	269	713576,/,714256,/,714936,/,715615,/,716296,/	t,t,t,t,t	<img class = center src='/static/experiments/beast_fmri_test/images/B.png'></img>	89,71	2750.0	test	<img class = center src='/static/experiments/beast_fmri_test/images/redB.png'></img>	go	1750.0	2.0	43.0	go	non-target	B	89,Yellow Button	71,Green Button	900.0	1000.0	1850.0	1750.0	0.0	1000.0	n/a	0.0	ITI
196164	500	n/a	-1	-1	500	0.0	fixation	poldrack-single-stim	289	717300	0.0-13.44-0.44	beast_fmri_test	269	716976,/	t	<div class = centerbox><div class = fixation>+</div></div>	none	500.0	test	n/a	n/a	n/a	n/a	n/a	n/a	n/a	n/a	n/a	n/a	n/a	n/a	n/a	n/a	n/a	n/a	n/a	n/a	fixation
195598.71943159995	2750	n/a	1089	71	2750	566.2805684	stim	stop-signal	290	720051	0.0-13.44-1.44	beast_fmri_test	269	717656,/,718336,/,719015,/,719695,/,720376,/	t,t,t,t,t	<img class = center src='/static/experiments/beast_fmri_test/images/T.png'></img>	89,71	2750.0	test	<img class = center src='/static/experiments/beast_fmri_test/images/redT.png'></img>	go	1750.0	2.0	44.0	go	non-target	T	89,Yellow Button	71,Green Button	900.0	1000.0	1850.0	1750.0	1.0	1000.0	n/a	1.0	go_stim
198348.71943159995	566.28056839999999	n/a	1089	71	2750	566.2805684	stim	stop-signal	290	720051	0.0-13.44-1.44	beast_fmri_test	269	717656,/,718336,/,719015,/,719695,/,720376,/	t,t,t,t,t	<img class = center src='/static/experiments/beast_fmri_test/images/T.png'></img>	89,71	2750.0	test	<img class = center src='/static/experiments/beast_fmri_test/images/redT.png'></img>	go	1750.0	2.0	44.0	go	non-target	T	89,Yellow Button	71,Green Button	900.0	1000.0	1850.0	1750.0	1.0	1000.0	n/a	1.0	ITI
199994	500	n/a	-1	-1	500	0.0	fixation	poldrack-single-stim	291	721130	0.0-13.45-0.45	beast_fmri_test	269	721055,/	t	<div class = centerbox><div class = fixation>+</div></div>	none	500.0	test	n/a	n/a	n/a	n/a	n/a	n/a	n/a	n/a	n/a	n/a	n/a	n/a	n/a	n/a	n/a	n/a	n/a	n/a	fixation
198339.45614999998	900.0	n/a	704	89	2750	1656.54385	stim	stop-signal	292	723882	0.0-13.45-1.45	beast_fmri_test	269	721736,/,722415,/,723095,/,723775,/,724455,/,725135,/	t,t,t,t,t,t	<img class = center src='/static/experiments/beast_fmri_test/images/B.png'></img>	89,71	2750.0	test	<img class = center src='/static/experiments/beast_fmri_test/images/redB.png'></img>	stop	1850.0	2.0	45.0	stop	target	B	89,Yellow Button	71,Green Button	900.0	1000.0	1850.0	1750.0	0.0	900.0	0.0	1.0	go_stim
200189.45614999998	1850.0	n/a	704	89	2750	1656.54385	stim	stop-signal	292	723882	0.0-13.45-1.45	beast_fmri_test	269	721736,/,722415,/,723095,/,723775,/,724455,/,725135,/	t,t,t,t,t,t	<img class = center src='/static/experiments/beast_fmri_test/images/B.png'></img>	89,71	2750.0	test	<img class = center src='/static/experiments/beast_fmri_test/images/redB.png'></img>	stop	1850.0	2.0	45.0	stop	target	B	89,Yellow Button	71,Green Button	900.0	1000.0	1850.0	1750.0	0.0	900.0	0.0	1.0	stop_stim
201089.45614999998	1656.54385	n/a	704	89	2750	1656.54385	stim	stop-signal	292	723882	0.0-13.45-1.45	beast_fmri_test	269	721736,/,722415,/,723095,/,723775,/,724455,/,725135,/	t,t,t,t,t,t	<img class = center src='/static/experiments/beast_fmri_test/images/B.png'></img>	89,71	2750.0	test	<img class = center src='/static/experiments/beast_fmri_test/images/redB.png'></img>	stop	1850.0	2.0	45.0	stop	target	B	89,Yellow Button	71,Green Button	900.0	1000.0	1850.0	1750.0	0.0	900.0	0.0	1.0	ITI
204917	500	n/a	-1	-1	500	0.0	fixation	poldrack-single-stim	293	726053	0.0-13.46-0.46	beast_fmri_test	269	725816,/	t	<div class = centerbox><div class = fixation>+</div></div>	none	500.0	test	n/a	n/a	n/a	n/a	n/a	n/a	n/a	n/a	n/a	n/a	n/a	n/a	n/a	n/a	n/a	n/a	n/a	n/a	fixation
201627.03484900005	2750	n/a	1167	71	2750	3290.965151	stim	stop-signal	294	728804	0.0-13.46-1.46	beast_fmri_test	269	726496,/,727175,/,727855,/,728535,/,729215,/,729895,/,730576,/,731255,/,731935,/	t,t,t,t,t,t,t,t,t	<img class = center src='/static/experiments/beast_fmri_test/images/V.png'></img>	89,71	2750.0	test	<img class = center src='/static/experiments/beast_fmri_test/images/redV.png'></img>	go	1750.0	2.0	46.0	go	non-target	V	89,Yellow Button	71,Green Button	850.0	1000.0	1850.0	1750.0	1.0	1000.0	n/a	1.0	go_stim
204377.03484900005	3290.9651510000003	n/a	1167	71	2750	3290.965151	stim	stop-signal	294	728804	0.0-13.46-1.46	beast_fmri_test	269	726496,/,727175,/,727855,/,728535,/,729215,/,729895,/,730576,/,731255,/,731935,/	t,t,t,t,t,t,t,t,t	<img class = center src='/static/experiments/beast_fmri_test/images/V.png'></img>	89,71	2750.0	test	<img class = center src='/static/experiments/beast_fmri_test/images/redV.png'></img>	go	1750.0	2.0	46.0	go	non-target	V	89,Yellow Button	71,Green Button	850.0	1000.0	1850.0	1750.0	1.0	1000.0	n/a	1.0	ITI
225972	15000	n/a	-1	-1	15000	0.0	practice-no-stop-feedback	poldrack-single-stim	295	747108	0.0-14.0	beast_fmri_test	269	732615,/,733295,/,733975,/,734655,/,735335,/,736015,/,736695,/,737375,/,738055,/,738735,/,739415,/,740096,/,740776,/,741456,/,742136,/,742816,/,743496,/,744176,/,744856,/,745536,/,746216,/,746896,/	t,t,t,t,t,t,t,t,t,t,t,t,t,t,t,t,t,t,t,t,t,t	"<div class = ""centerbox""><p class = ""center-block-text"">Your delay is 2 trials.</p><p class = center-block-text>Please wait for the scanner to start the block</p></div>"	77	15000.0	n/a	n/a	n/a	n/a	n/a	n/a	n/a	n/a	n/a	n/a	n/a	n/a	n/a	n/a	n/a	n/a	n/a	n/a	n/a	practice-no-stop-feedback
226474	500	n/a	-1	-1	500	0.0	fixation	poldrack-single-stim	296	747610	0.0-15.0-0.0	beast_fmri_test	269	747576,/	t	<div class = centerbox><div class = fixation>+</div></div>	none	500.0	test	n/a	n/a	n/a	n/a	n/a	n/a	n/a	n/a	n/a	n/a	n/a	n/a	n/a	n/a	n/a	n/a	n/a	n/a	fixation
226225.78634260001	2750	n/a	1062	71	2750	251.2136574	stim	stop-signal	297	750363	0.0-15.0-1.0	beast_fmri_test	269	748256,/,748935,/,749616,/,750296,/	t,t,t,t	<img class = center src='/static/experiments/beast_fmri_test/images/P.png'></img>	89,71	2750.0	test	<img class = center src='/static/experiments/beast_fmri_test/images/redP.png'></img>	go	-1.0	2.0	0.0	go	temp-non-target	P	89,Yellow Button	71,Green Button	850.0	1000.0	1850.0	1750.0	0.0	n/a	n/a	n/a	go_stim
228975.78634260001	251.21365739999999	n/a	1062	71	2750	251.2136574	stim	stop-signal	297	750363	0.0-15.0-1.0	beast_fmri_test	269	748256,/,748935,/,749616,/,750296,/	t,t,t,t	<img class = center src='/static/experiments/beast_fmri_test/images/P.png'></img>	89,71	2750.0	test	<img class = center src='/static/experiments/beast_fmri_test/images/redP.png'></img>	go	-1.0	2.0	0.0	go	temp-non-target	P	89,Yellow Button	71,Green Button	850.0	1000.0	1850.0	1750.0	0.0	n/a	n/a	n/a	ITI
229989	500	n/a	-1	-1	500	0.0	fixation	poldrack-single-stim	298	751125	0.0-15.1-0.1	beast_fmri_test	269	750976,/	t	<div class = centerbox><div class = fixation>+</div></div>	none	500.0	test	n/a	n/a	n/a	n/a	n/a	n/a	n/a	n/a	n/a	n/a	n/a	n/a	n/a	n/a	n/a	n/a	n/a	n/a	fixation
229479.85245330003	2750	n/a	847	71	2750	511.1475467	stim	stop-signal	299	753877	0.0-15.1-1.1	beast_fmri_test	269	751655,/,752335,/,753015,/,753696,/,754375,/	t,t,t,t,t	<img class = center src='/static/experiments/beast_fmri_test/images/T.png'></img>	89,71	2750.0	test	<img class = center src='/static/experiments/beast_fmri_test/images/redT.png'></img>	go	-1.0	2.0	1.0	go	temp-non-target	T	89,Yellow Button	71,Green Button	850.0	1000.0	1850.0	1750.0	0.0	n/a	n/a	n/a	go_stim
232229.85245330003	511.14754670000002	n/a	847	71	2750	511.1475467	stim	stop-signal	299	753877	0.0-15.1-1.1	beast_fmri_test	269	751655,/,752335,/,753015,/,753696,/,754375,/	t,t,t,t,t	<img class = center src='/static/experiments/beast_fmri_test/images/T.png'></img>	89,71	2750.0	test	<img class = center src='/static/experiments/beast_fmri_test/images/redT.png'></img>	go	-1.0	2.0	1.0	go	temp-non-target	T	89,Yellow Button	71,Green Button	850.0	1000.0	1850.0	1750.0	0.0	n/a	n/a	n/a	ITI
233764	500	n/a	-1	-1	500	0.0	fixation	poldrack-single-stim	300	754900	0.0-15.2-0.2	beast_fmri_test	269	n/a	n/a	<div class = centerbox><div class = fixation>+</div></div>	none	500.0	test	n/a	n/a	n/a	n/a	n/a	n/a	n/a	n/a	n/a	n/a	n/a	n/a	n/a	n/a	n/a	n/a	n/a	n/a	fixation
233641.94144640001	2750	n/a	984	71	2750	125.0585536	stim	stop-signal	301	757653	0.0-15.2-1.2	beast_fmri_test	269	755056,/,755735,/,756415,/,757095,/,757775,/	t,t,t,t,t	<img class = center src='/static/experiments/beast_fmri_test/images/T.png'></img>	89,71	2750.0	test	<img class = center src='/static/experiments/beast_fmri_test/images/redT.png'></img>	go	1750.0	2.0	2.0	go	non-target	T	89,Yellow Button	71,Green Button	850.0	1000.0	1850.0	1750.0	1.0	1000.0	n/a	1.0	go_stim
236391.94144640001	125.05855359999998	n/a	984	71	2750	125.0585536	stim	stop-signal	301	757653	0.0-15.2-1.2	beast_fmri_test	269	755056,/,755735,/,756415,/,757095,/,757775,/	t,t,t,t,t	<img class = center src='/static/experiments/beast_fmri_test/images/T.png'></img>	89,71	2750.0	test	<img class = center src='/static/experiments/beast_fmri_test/images/redT.png'></img>	go	1750.0	2.0	2.0	go	non-target	T	89,Yellow Button	71,Green Button	850.0	1000.0	1850.0	1750.0	1.0	1000.0	n/a	1.0	ITI
237153	500	n/a	-1	-1	500	0.0	fixation	poldrack-single-stim	302	758289	0.0-15.3-0.3	beast_fmri_test	269	n/a	n/a	<div class = centerbox><div class = fixation>+</div></div>	none	500.0	test	n/a	n/a	n/a	n/a	n/a	n/a	n/a	n/a	n/a	n/a	n/a	n/a	n/a	n/a	n/a	n/a	n/a	n/a	fixation
234374.609024	2750	n/a	878	89	2750	2780.390976	stim	stop-signal	303	761041	0.0-15.3-1.3	beast_fmri_test	269	758455,/,759135,/,759815,/,760495,/,761176,/,761855,/,762535,/,763215,/	t,t,t,t,t,t,t,t	<img class = center src='/static/experiments/beast_fmri_test/images/P.png'></img>	89,71	2750.0	test	<img class = center src='/static/experiments/beast_fmri_test/images/redP.png'></img>	go	1750.0	2.0	3.0	go	non-target	P	89,Yellow Button	71,Green Button	850.0	1000.0	1850.0	1750.0	0.0	1000.0	n/a	0.0	go_stim
237124.609024	2780.3909760000001	n/a	878	89	2750	2780.390976	stim	stop-signal	303	761041	0.0-15.3-1.3	beast_fmri_test	269	758455,/,759135,/,759815,/,760495,/,761176,/,761855,/,762535,/,763215,/	t,t,t,t,t,t,t,t	<img class = center src='/static/experiments/beast_fmri_test/images/P.png'></img>	89,71	2750.0	test	<img class = center src='/static/experiments/beast_fmri_test/images/redP.png'></img>	go	1750.0	2.0	3.0	go	non-target	P	89,Yellow Button	71,Green Button	850.0	1000.0	1850.0	1750.0	0.0	1000.0	n/a	0.0	ITI
243199	500	n/a	-1	-1	500	0.0	fixation	poldrack-single-stim	304	764335	0.0-15.4-0.4	beast_fmri_test	269	763896,/	t	<div class = centerbox><div class = fixation>+</div></div>	none	500.0	test	n/a	n/a	n/a	n/a	n/a	n/a	n/a	n/a	n/a	n/a	n/a	n/a	n/a	n/a	n/a	n/a	n/a	n/a	fixation
240420.803098	2750	n/a	736	71	2750	2781.196902	stim	stop-signal	305	767088	0.0-15.4-1.4	beast_fmri_test	269	764576,/,765255,/,765935,/,766615,/,767295,/,767975,/,768655,/,769335,/	t,t,t,t,t,t,t,t	<img class = center src='/static/experiments/beast_fmri_test/images/B.png'></img>	89,71	2750.0	test	<img class = center src='/static/experiments/beast_fmri_test/images/redB.png'></img>	go	1750.0	2.0	4.0	go	non-target	B	89,Yellow Button	71,Green Button	850.0	1000.0	1850.0	1750.0	1.0	1000.0	n/a	1.0	go_stim
243170.803098	2781.1969020000001	n/a	736	71	2750	2781.196902	stim	stop-signal	305	767088	0.0-15.4-1.4	beast_fmri_test	269	764576,/,765255,/,765935,/,766615,/,767295,/,767975,/,768655,/,769335,/	t,t,t,t,t,t,t,t	<img class = center src='/static/experiments/beast_fmri_test/images/B.png'></img>	89,71	2750.0	test	<img class = center src='/static/experiments/beast_fmri_test/images/redB.png'></img>	go	1750.0	2.0	4.0	go	non-target	B	89,Yellow Button	71,Green Button	850.0	1000.0	1850.0	1750.0	1.0	1000.0	n/a	1.0	ITI
249249	500	n/a	-1	-1	500	0.0	fixation	poldrack-single-stim	306	770385	0.0-15.5-0.5	beast_fmri_test	269	770015,/	t	<div class = centerbox><div class = fixation>+</div></div>	none	500.0	test	n/a	n/a	n/a	n/a	n/a	n/a	n/a	n/a	n/a	n/a	n/a	n/a	n/a	n/a	n/a	n/a	n/a	n/a	fixation
249171.16502900003	850.0	n/a	675	89	2750	79.834971	stim	stop-signal	307	773137	0.0-15.5-1.5	beast_fmri_test	269	770695,/,771376,/,772055,/,772735,/	t,t,t,t	<img class = center src='/static/experiments/beast_fmri_test/images/P.png'></img>	89,71	2750.0	test	<img class = center src='/static/experiments/beast_fmri_test/images/redP.png'></img>	stop	1900.0	2.0	5.0	stop	target	P	89,Yellow Button	71,Green Button	850.0	1000.0	1900.0	1750.0	0.0	850.0	0.0	1.0	go_stim
251071.16502900003	1900.0	n/a	675	89	2750	79.834971	stim	stop-signal	307	773137	0.0-15.5-1.5	beast_fmri_test	269	770695,/,771376,/,772055,/,772735,/	t,t,t,t	<img class = center src='/static/experiments/beast_fmri_test/images/P.png'></img>	89,71	2750.0	test	<img class = center src='/static/experiments/beast_fmri_test/images/redP.png'></img>	stop	1900.0	2.0	5.0	stop	target	P	89,Yellow Button	71,Green Button	850.0	1000.0	1900.0	1750.0	0.0	850.0	0.0	1.0	stop_stim
251921.16502900003	79.834970999999996	n/a	675	89	2750	79.834971	stim	stop-signal	307	773137	0.0-15.5-1.5	beast_fmri_test	269	770695,/,771376,/,772055,/,772735,/	t,t,t,t	<img class = center src='/static/experiments/beast_fmri_test/images/P.png'></img>	89,71	2750.0	test	<img class = center src='/static/experiments/beast_fmri_test/images/redP.png'></img>	stop	1900.0	2.0	5.0	stop	target	P	89,Yellow Button	71,Green Button	850.0	1000.0	1900.0	1750.0	0.0	850.0	0.0	1.0	ITI
252596	500	n/a	-1	-1	500	0.0	fixation	poldrack-single-stim	308	773732	0.0-15.6-0.6	beast_fmri_test	269	773415,/	t	<div class = centerbox><div class = fixation>+</div></div>	none	500.0	test	n/a	n/a	n/a	n/a	n/a	n/a	n/a	n/a	n/a	n/a	n/a	n/a	n/a	n/a	n/a	n/a	n/a	n/a	fixation
248600.19439099997	2750	n/a	1099	71	2750	3997.805609	stim	stop-signal	309	776484	0.0-15.6-1.6	beast_fmri_test	269	774096,/,774776,/,775455,/,776136,/,776816,/,777496,/,778176,/,778856,/,779536,/,780216,/	t,t,t,t,t,t,t,t,t,t	<img class = center src='/static/experiments/beast_fmri_test/images/T.png'></img>	89,71	2750.0	test	<img class = center src='/static/experiments/beast_fmri_test/images/redT.png'></img>	go	1750.0	2.0	6.0	go	non-target	T	89,Yellow Button	71,Green Button	800.0	1000.0	1900.0	1750.0	1.0	1000.0	n/a	1.0	go_stim
251350.19439099997	3997.8056090000005	n/a	1099	71	2750	3997.805609	stim	stop-signal	309	776484	0.0-15.6-1.6	beast_fmri_test	269	774096,/,774776,/,775455,/,776136,/,776816,/,777496,/,778176,/,778856,/,779536,/,780216,/	t,t,t,t,t,t,t,t,t,t	<img class = center src='/static/experiments/beast_fmri_test/images/T.png'></img>	89,71	2750.0	test	<img class = center src='/static/experiments/beast_fmri_test/images/redT.png'></img>	go	1750.0	2.0	6.0	go	non-target	T	89,Yellow Button	71,Green Button	800.0	1000.0	1900.0	1750.0	1.0	1000.0	n/a	1.0	ITI
259858	500	n/a	-1	-1	500	0.0	fixation	poldrack-single-stim	310	780994	0.0-15.7-0.7	beast_fmri_test	269	780896,/	t	<div class = centerbox><div class = fixation>+</div></div>	none	500.0	test	n/a	n/a	n/a	n/a	n/a	n/a	n/a	n/a	n/a	n/a	n/a	n/a	n/a	n/a	n/a	n/a	n/a	n/a	fixation
259623.75773109996	2750	n/a	867	89	2750	236.2422689	stim	stop-signal	311	783746	0.0-15.7-1.7	beast_fmri_test	269	781576,/,782256,/,782936,/,783615,/	t,t,t,t	<img class = center src='/static/experiments/beast_fmri_test/images/P.png'></img>	89,71	2750.0	test	<img class = center src='/static/experiments/beast_fmri_test/images/redP.png'></img>	go	1950.0	2.0	7.0	go	target	P	89,Yellow Button	71,Green Button	800.0	1000.0	1950.0	1750.0	1.0	800.0	n/a	1.0	go_stim
262373.75773109996	236.24226890000003	n/a	867	89	2750	236.2422689	stim	stop-signal	311	783746	0.0-15.7-1.7	beast_fmri_test	269	781576,/,782256,/,782936,/,783615,/	t,t,t,t	<img class = center src='/static/experiments/beast_fmri_test/images/P.png'></img>	89,71	2750.0	test	<img class = center src='/static/experiments/beast_fmri_test/images/redP.png'></img>	go	1950.0	2.0	7.0	go	target	P	89,Yellow Button	71,Green Button	800.0	1000.0	1950.0	1750.0	1.0	800.0	n/a	1.0	ITI
263362	500	n/a	-1	-1	500	0.0	fixation	poldrack-single-stim	312	784498	0.0-15.8-0.8	beast_fmri_test	269	784296,/	t	<div class = centerbox><div class = fixation>+</div></div>	none	500.0	test	n/a	n/a	n/a	n/a	n/a	n/a	n/a	n/a	n/a	n/a	n/a	n/a	n/a	n/a	n/a	n/a	n/a	n/a	fixation
259438.152351	2750	n/a	2373	89	2750	3924.847649	stim	stop-signal	313	787249	0.0-15.8-1.8	beast_fmri_test	269	784976,/,785656,/,786336,/,787015,/,787695,/,788376,/,789056,/,789735,/,790416,/,791095,/	t,t,t,t,t,t,t,t,t,t	<img class = center src='/static/experiments/beast_fmri_test/images/T.png'></img>	89,71	2750.0	test	<img class = center src='/static/experiments/beast_fmri_test/images/redT.png'></img>	go	1950.0	2.0	8.0	go	target	T	89,Yellow Button	71,Green Button	800.0	1000.0	1950.0	1750.0	1.0	800.0	n/a	1.0	go_stim
262188.152351	3924.8476490000003	n/a	2373	89	2750	3924.847649	stim	stop-signal	313	787249	0.0-15.8-1.8	beast_fmri_test	269	784976,/,785656,/,786336,/,787015,/,787695,/,788376,/,789056,/,789735,/,790416,/,791095,/	t,t,t,t,t,t,t,t,t,t	<img class = center src='/static/experiments/beast_fmri_test/images/T.png'></img>	89,71	2750.0	test	<img class = center src='/static/experiments/beast_fmri_test/images/redT.png'></img>	go	1950.0	2.0	8.0	go	target	T	89,Yellow Button	71,Green Button	800.0	1000.0	1950.0	1750.0	1.0	800.0	n/a	1.0	ITI
270550	500	n/a	-1	-1	500	0.0	fixation	poldrack-single-stim	314	791686	0.0-15.9-0.9	beast_fmri_test	269	n/a	n/a	<div class = centerbox><div class = fixation>+</div></div>	none	500.0	test	n/a	n/a	n/a	n/a	n/a	n/a	n/a	n/a	n/a	n/a	n/a	n/a	n/a	n/a	n/a	n/a	n/a	n/a	fixation
270427.18001789995	2750	n/a	1600	89	2750	124.8199821	stim	stop-signal	315	794438	0.0-15.9-1.9	beast_fmri_test	269	791777,/,792455,/,793135,/,793815,/,794495,/	t,t,t,t,t	<img class = center src='/static/experiments/beast_fmri_test/images/P.png'></img>	89,71	2750.0	test	<img class = center src='/static/experiments/beast_fmri_test/images/redP.png'></img>	go	1950.0	2.0	9.0	go	target	P	89,Yellow Button	71,Green Button	800.0	1000.0	1950.0	1750.0	1.0	800.0	n/a	1.0	go_stim
273177.18001789995	124.8199821	n/a	1600	89	2750	124.8199821	stim	stop-signal	315	794438	0.0-15.9-1.9	beast_fmri_test	269	791777,/,792455,/,793135,/,793815,/,794495,/	t,t,t,t,t	<img class = center src='/static/experiments/beast_fmri_test/images/P.png'></img>	89,71	2750.0	test	<img class = center src='/static/experiments/beast_fmri_test/images/redP.png'></img>	go	1950.0	2.0	9.0	go	target	P	89,Yellow Button	71,Green Button	800.0	1000.0	1950.0	1750.0	1.0	800.0	n/a	1.0	ITI
273941	500	n/a	-1	-1	500	0.0	fixation	poldrack-single-stim	316	795077	0.0-15.10-0.10	beast_fmri_test	269	n/a	n/a	<div class = centerbox><div class = fixation>+</div></div>	none	500.0	test	n/a	n/a	n/a	n/a	n/a	n/a	n/a	n/a	n/a	n/a	n/a	n/a	n/a	n/a	n/a	n/a	n/a	n/a	fixation
273838.77937050001	1000.0	n/a	-1	-1	2750	104.2206295	stim	stop-signal	317	797829	0.0-15.10-1.10	beast_fmri_test	269	795175,/,795855,/,796535,/,797215,/,797895,/	t,t,t,t,t	<img class = center src='/static/experiments/beast_fmri_test/images/V.png'></img>	89,71	2750.0	test	<img class = center src='/static/experiments/beast_fmri_test/images/redV.png'></img>	stop	1750.0	2.0	10.0	stop	non-target	V	89,Yellow Button	71,Green Button	800.0	1000.0	1950.0	1750.0	0.0	1000.0	1.0	0.0	go_stim
275588.77937050001	1750.0	n/a	-1	-1	2750	104.2206295	stim	stop-signal	317	797829	0.0-15.10-1.10	beast_fmri_test	269	795175,/,795855,/,796535,/,797215,/,797895,/	t,t,t,t,t	<img class = center src='/static/experiments/beast_fmri_test/images/V.png'></img>	89,71	2750.0	test	<img class = center src='/static/experiments/beast_fmri_test/images/redV.png'></img>	stop	1750.0	2.0	10.0	stop	non-target	V	89,Yellow Button	71,Green Button	800.0	1000.0	1950.0	1750.0	0.0	1000.0	1.0	0.0	stop_stim
276588.77937050001	104.2206295	n/a	-1	-1	2750	104.2206295	stim	stop-signal	317	797829	0.0-15.10-1.10	beast_fmri_test	269	795175,/,795855,/,796535,/,797215,/,797895,/	t,t,t,t,t	<img class = center src='/static/experiments/beast_fmri_test/images/V.png'></img>	89,71	2750.0	test	<img class = center src='/static/experiments/beast_fmri_test/images/redV.png'></img>	stop	1750.0	2.0	10.0	stop	non-target	V	89,Yellow Button	71,Green Button	800.0	1000.0	1950.0	1750.0	0.0	1000.0	1.0	0.0	ITI
277310	500	n/a	-1	-1	500	0.0	fixation	poldrack-single-stim	318	798446	0.0-15.11-0.11	beast_fmri_test	269	n/a	n/a	<div class = centerbox><div class = fixation>+</div></div>	none	500.0	test	n/a	n/a	n/a	n/a	n/a	n/a	n/a	n/a	n/a	n/a	n/a	n/a	n/a	n/a	n/a	n/a	n/a	n/a	fixation
277195.87392030004	2750	n/a	1630	71	2750	116.1260797	stim	stop-signal	319	801198	0.0-15.11-1.11	beast_fmri_test	269	798575,/,799255,/,799935,/,800615,/,801295,/	t,t,t,t,t	<img class = center src='/static/experiments/beast_fmri_test/images/D.png'></img>	89,71	2750.0	test	<img class = center src='/static/experiments/beast_fmri_test/images/redD.png'></img>	go	1700.0	2.0	11.0	go	non-target	D	89,Yellow Button	71,Green Button	800.0	1050.0	1950.0	1700.0	1.0	1050.0	n/a	1.0	go_stim
279945.87392030004	116.12607970000001	n/a	1630	71	2750	116.1260797	stim	stop-signal	319	801198	0.0-15.11-1.11	beast_fmri_test	269	798575,/,799255,/,799935,/,800615,/,801295,/	t,t,t,t,t	<img class = center src='/static/experiments/beast_fmri_test/images/D.png'></img>	89,71	2750.0	test	<img class = center src='/static/experiments/beast_fmri_test/images/redD.png'></img>	go	1700.0	2.0	11.0	go	non-target	D	89,Yellow Button	71,Green Button	800.0	1050.0	1950.0	1700.0	1.0	1050.0	n/a	1.0	ITI
280691	500	n/a	-1	-1	500	0.0	fixation	poldrack-single-stim	320	801827	0.0-15.12-0.12	beast_fmri_test	269	n/a	n/a	<div class = centerbox><div class = fixation>+</div></div>	none	500.0	test	n/a	n/a	n/a	n/a	n/a	n/a	n/a	n/a	n/a	n/a	n/a	n/a	n/a	n/a	n/a	n/a	n/a	n/a	fixation
280445.98855230003	2750	n/a	1473	71	2750	246.0114477	stim	stop-signal	321	804578	0.0-15.12-1.12	beast_fmri_test	269	801976,/,802655,/,803335,/,804015,/,804695,/	t,t,t,t,t	<img class = center src='/static/experiments/beast_fmri_test/images/T.png'></img>	89,71	2750.0	test	<img class = center src='/static/experiments/beast_fmri_test/images/redT.png'></img>	go	1700.0	2.0	12.0	go	non-target	T	89,Yellow Button	71,Green Button	800.0	1050.0	1950.0	1700.0	1.0	1050.0	n/a	1.0	go_stim
283195.98855230003	246.01144769999999	n/a	1473	71	2750	246.0114477	stim	stop-signal	321	804578	0.0-15.12-1.12	beast_fmri_test	269	801976,/,802655,/,803335,/,804015,/,804695,/	t,t,t,t,t	<img class = center src='/static/experiments/beast_fmri_test/images/T.png'></img>	89,71	2750.0	test	<img class = center src='/static/experiments/beast_fmri_test/images/redT.png'></img>	go	1700.0	2.0	12.0	go	non-target	T	89,Yellow Button	71,Green Button	800.0	1050.0	1950.0	1700.0	1.0	1050.0	n/a	1.0	ITI
284203	500	n/a	-1	-1	500	0.0	fixation	poldrack-single-stim	322	805339	0.0-15.13-0.13	beast_fmri_test	269	n/a	n/a	<div class = centerbox><div class = fixation>+</div></div>	none	500.0	test	n/a	n/a	n/a	n/a	n/a	n/a	n/a	n/a	n/a	n/a	n/a	n/a	n/a	n/a	n/a	n/a	n/a	n/a	fixation
283466.85240620002	2750	n/a	1576	89	2750	738.1475938	stim	stop-signal	323	808091	0.0-15.13-1.13	beast_fmri_test	269	805375,/,806055,/,806735,/,807415,/,808095,/,808775,/	t,t,t,t,t,t	<img class = center src='/static/experiments/beast_fmri_test/images/D.png'></img>	89,71	2750.0	test	<img class = center src='/static/experiments/beast_fmri_test/images/redD.png'></img>	go	1950.0	2.0	13.0	go	target	D	89,Yellow Button	71,Green Button	800.0	1050.0	1950.0	1700.0	1.0	800.0	n/a	1.0	go_stim
286216.85240620002	738.14759379999987	n/a	1576	89	2750	738.1475938	stim	stop-signal	323	808091	0.0-15.13-1.13	beast_fmri_test	269	805375,/,806055,/,806735,/,807415,/,808095,/,808775,/	t,t,t,t,t,t	<img class = center src='/static/experiments/beast_fmri_test/images/D.png'></img>	89,71	2750.0	test	<img class = center src='/static/experiments/beast_fmri_test/images/redD.png'></img>	go	1950.0	2.0	13.0	go	target	D	89,Yellow Button	71,Green Button	800.0	1050.0	1950.0	1700.0	1.0	800.0	n/a	1.0	ITI
288209	500	n/a	-1	-1	500	0.0	fixation	poldrack-single-stim	324	809345	0.0-15.14-0.14	beast_fmri_test	269	n/a	n/a	<div class = centerbox><div class = fixation>+</div></div>	none	500.0	test	n/a	n/a	n/a	n/a	n/a	n/a	n/a	n/a	n/a	n/a	n/a	n/a	n/a	n/a	n/a	n/a	n/a	n/a	fixation
288200.74693977297	800.0	n/a	-1	-1	2750	9.253060227	stim	stop-signal	325	812096	0.0-15.14-1.14	beast_fmri_test	269	809456,/,810136,/,810816,/,811496,/	t,t,t,t	<img class = center src='/static/experiments/beast_fmri_test/images/T.png'></img>	89,71	2750.0	test	<img class = center src='/static/experiments/beast_fmri_test/images/redT.png'></img>	stop	1950.0	2.0	14.0	stop	target	T	89,Yellow Button	71,Green Button	800.0	1050.0	1950.0	1700.0	0.0	800.0	1.0	0.0	go_stim
290150.74693977297	1950.0	n/a	-1	-1	2750	9.253060227	stim	stop-signal	325	812096	0.0-15.14-1.14	beast_fmri_test	269	809456,/,810136,/,810816,/,811496,/	t,t,t,t	<img class = center src='/static/experiments/beast_fmri_test/images/T.png'></img>	89,71	2750.0	test	<img class = center src='/static/experiments/beast_fmri_test/images/redT.png'></img>	stop	1950.0	2.0	14.0	stop	target	T	89,Yellow Button	71,Green Button	800.0	1050.0	1950.0	1700.0	0.0	800.0	1.0	0.0	stop_stim
290950.74693977297	9.2530602270000006	n/a	-1	-1	2750	9.253060227	stim	stop-signal	325	812096	0.0-15.14-1.14	beast_fmri_test	269	809456,/,810136,/,810816,/,811496,/	t,t,t,t	<img class = center src='/static/experiments/beast_fmri_test/images/T.png'></img>	89,71	2750.0	test	<img class = center src='/static/experiments/beast_fmri_test/images/redT.png'></img>	stop	1950.0	2.0	14.0	stop	target	T	89,Yellow Button	71,Green Button	800.0	1050.0	1950.0	1700.0	0.0	800.0	1.0	0.0	ITI
291481	500	n/a	-1	-1	500	0.0	fixation	poldrack-single-stim	326	812617	0.0-15.15-0.15	beast_fmri_test	269	812177,/	t	<div class = centerbox><div class = fixation>+</div></div>	none	500.0	test	n/a	n/a	n/a	n/a	n/a	n/a	n/a	n/a	n/a	n/a	n/a	n/a	n/a	n/a	n/a	n/a	n/a	n/a	fixation
290613.62437870004	1050.0	n/a	943	71	2750	868.3756213	stim	stop-signal	327	815368	0.0-15.15-1.15	beast_fmri_test	269	812856,/,813536,/,814216,/,814896,/,815576,/	t,t,t,t,t	<img class = center src='/static/experiments/beast_fmri_test/images/P.png'></img>	89,71	2750.0	test	<img class = center src='/static/experiments/beast_fmri_test/images/redP.png'></img>	stop	1700.0	2.0	15.0	stop	non-target	P	89,Yellow Button	71,Green Button	850.0	1050.0	1950.0	1700.0	0.0	1050.0	0.0	1.0	go_stim
292313.62437870004	1700.0	n/a	943	71	2750	868.3756213	stim	stop-signal	327	815368	0.0-15.15-1.15	beast_fmri_test	269	812856,/,813536,/,814216,/,814896,/,815576,/	t,t,t,t,t	<img class = center src='/static/experiments/beast_fmri_test/images/P.png'></img>	89,71	2750.0	test	<img class = center src='/static/experiments/beast_fmri_test/images/redP.png'></img>	stop	1700.0	2.0	15.0	stop	non-target	P	89,Yellow Button	71,Green Button	850.0	1050.0	1950.0	1700.0	0.0	1050.0	0.0	1.0	stop_stim
293363.62437870004	868.37562129999992	n/a	943	71	2750	868.3756213	stim	stop-signal	327	815368	0.0-15.15-1.15	beast_fmri_test	269	812856,/,813536,/,814216,/,814896,/,815576,/	t,t,t,t,t	<img class = center src='/static/experiments/beast_fmri_test/images/P.png'></img>	89,71	2750.0	test	<img class = center src='/static/experiments/beast_fmri_test/images/redP.png'></img>	stop	1700.0	2.0	15.0	stop	non-target	P	89,Yellow Button	71,Green Button	850.0	1050.0	1950.0	1700.0	0.0	1050.0	0.0	1.0	ITI
295613	500	n/a	-1	-1	500	0.0	fixation	poldrack-single-stim	328	816749	0.0-15.16-0.16	beast_fmri_test	269	816255,/	t	<div class = centerbox><div class = fixation>+</div></div>	none	500.0	test	n/a	n/a	n/a	n/a	n/a	n/a	n/a	n/a	n/a	n/a	n/a	n/a	n/a	n/a	n/a	n/a	n/a	n/a	fixation
293589.30763499998	1000.0	n/a	-1	-1	2750	2024.692365	stim	stop-signal	329	819500	0.0-15.16-1.16	beast_fmri_test	269	816936,/,817616,/,818296,/,818975,/,819655,/,820335,/,821015,/	t,t,t,t,t,t,t	<img class = center src='/static/experiments/beast_fmri_test/images/B.png'></img>	89,71	2750.0	test	<img class = center src='/static/experiments/beast_fmri_test/images/redB.png'></img>	stop	1750.0	2.0	16.0	stop	non-target	B	89,Yellow Button	71,Green Button	850.0	1000.0	1950.0	1750.0	0.0	1000.0	1.0	0.0	go_stim
295339.30763499998	1750.0	n/a	-1	-1	2750	2024.692365	stim	stop-signal	329	819500	0.0-15.16-1.16	beast_fmri_test	269	816936,/,817616,/,818296,/,818975,/,819655,/,820335,/,821015,/	t,t,t,t,t,t,t	<img class = center src='/static/experiments/beast_fmri_test/images/B.png'></img>	89,71	2750.0	test	<img class = center src='/static/experiments/beast_fmri_test/images/redB.png'></img>	stop	1750.0	2.0	16.0	stop	non-target	B	89,Yellow Button	71,Green Button	850.0	1000.0	1950.0	1750.0	0.0	1000.0	1.0	0.0	stop_stim
296339.30763499998	2024.6923649999999	n/a	-1	-1	2750	2024.692365	stim	stop-signal	329	819500	0.0-15.16-1.16	beast_fmri_test	269	816936,/,817616,/,818296,/,818975,/,819655,/,820335,/,821015,/	t,t,t,t,t,t,t	<img class = center src='/static/experiments/beast_fmri_test/images/B.png'></img>	89,71	2750.0	test	<img class = center src='/static/experiments/beast_fmri_test/images/redB.png'></img>	stop	1750.0	2.0	16.0	stop	non-target	B	89,Yellow Button	71,Green Button	850.0	1000.0	1950.0	1750.0	0.0	1000.0	1.0	0.0	ITI
300902	500	n/a	-1	-1	500	0.0	fixation	poldrack-single-stim	330	822038	0.0-15.17-0.17	beast_fmri_test	269	821695,/	t	<div class = centerbox><div class = fixation>+</div></div>	none	500.0	test	n/a	n/a	n/a	n/a	n/a	n/a	n/a	n/a	n/a	n/a	n/a	n/a	n/a	n/a	n/a	n/a	n/a	n/a	fixation
295903.0	1050.0	n/a	1377	71	2750	5000.0	stim	stop-signal	331	824789	0.0-15.17-1.17	beast_fmri_test	269	822376,/,823055,/,823736,/,824415,/,825096,/,825775,/,826455,/,827135,/,827815,/,828495,/,829175,/	t,t,t,t,t,t,t,t,t,t,t	<img class = center src='/static/experiments/beast_fmri_test/images/T.png'></img>	89,71	2750.0	test	<img class = center src='/static/experiments/beast_fmri_test/images/redT.png'></img>	stop	1700.0	2.0	17.0	stop	non-target	T	89,Yellow Button	71,Green Button	850.0	1050.0	1950.0	1700.0	0.0	1050.0	0.0	1.0	go_stim
297603.0	1700.0	n/a	1377	71	2750	5000.0	stim	stop-signal	331	824789	0.0-15.17-1.17	beast_fmri_test	269	822376,/,823055,/,823736,/,824415,/,825096,/,825775,/,826455,/,827135,/,827815,/,828495,/,829175,/	t,t,t,t,t,t,t,t,t,t,t	<img class = center src='/static/experiments/beast_fmri_test/images/T.png'></img>	89,71	2750.0	test	<img class = center src='/static/experiments/beast_fmri_test/images/redT.png'></img>	stop	1700.0	2.0	17.0	stop	non-target	T	89,Yellow Button	71,Green Button	850.0	1050.0	1950.0	1700.0	0.0	1050.0	0.0	1.0	stop_stim
298653.0	5000.0	n/a	1377	71	2750	5000.0	stim	stop-signal	331	824789	0.0-15.17-1.17	beast_fmri_test	269	822376,/,823055,/,823736,/,824415,/,825096,/,825775,/,826455,/,827135,/,827815,/,828495,/,829175,/	t,t,t,t,t,t,t,t,t,t,t	<img class = center src='/static/experiments/beast_fmri_test/images/T.png'></img>	89,71	2750.0	test	<img class = center src='/static/experiments/beast_fmri_test/images/redT.png'></img>	stop	1700.0	2.0	17.0	stop	non-target	T	89,Yellow Button	71,Green Button	850.0	1050.0	1950.0	1700.0	0.0	1050.0	0.0	1.0	ITI
309167	500	n/a	-1	-1	500	0.0	fixation	poldrack-single-stim	332	830303	0.0-15.18-0.18	beast_fmri_test	269	829856,/	t	<div class = centerbox><div class = fixation>+</div></div>	none	500.0	test	n/a	n/a	n/a	n/a	n/a	n/a	n/a	n/a	n/a	n/a	n/a	n/a	n/a	n/a	n/a	n/a	n/a	n/a	fixation
306994.28129299998	2750	n/a	773	89	2750	2173.718707	stim	stop-signal	333	833054	0.0-15.18-1.18	beast_fmri_test	269	830535,/,831215,/,831895,/,832576,/,833255,/,833935,/,834615,/	t,t,t,t,t,t,t	<img class = center src='/static/experiments/beast_fmri_test/images/B.png'></img>	89,71	2750.0	test	<img class = center src='/static/experiments/beast_fmri_test/images/redB.png'></img>	go	1900.0	2.0	18.0	go	target	B	89,Yellow Button	71,Green Button	850.0	1000.0	1900.0	1700.0	1.0	850.0	n/a	1.0	go_stim
309744.28129299998	2173.718707	n/a	773	89	2750	2173.718707	stim	stop-signal	333	833054	0.0-15.18-1.18	beast_fmri_test	269	830535,/,831215,/,831895,/,832576,/,833255,/,833935,/,834615,/	t,t,t,t,t,t,t	<img class = center src='/static/experiments/beast_fmri_test/images/B.png'></img>	89,71	2750.0	test	<img class = center src='/static/experiments/beast_fmri_test/images/redB.png'></img>	go	1900.0	2.0	18.0	go	target	B	89,Yellow Button	71,Green Button	850.0	1000.0	1900.0	1700.0	1.0	850.0	n/a	1.0	ITI
314608	500	n/a	-1	-1	500	0.0	fixation	poldrack-single-stim	334	835744	0.0-15.19-0.19	beast_fmri_test	269	835295,/	t	<div class = centerbox><div class = fixation>+</div></div>	none	500.0	test	n/a	n/a	n/a	n/a	n/a	n/a	n/a	n/a	n/a	n/a	n/a	n/a	n/a	n/a	n/a	n/a	n/a	n/a	fixation
313856.39982249995	2750	n/a	1219	71	2750	752.6001775	stim	stop-signal	335	838495	0.0-15.19-1.19	beast_fmri_test	269	835975,/,836655,/,837335,/,838015,/,838695,/	t,t,t,t,t	<img class = center src='/static/experiments/beast_fmri_test/images/V.png'></img>	89,71	2750.0	test	<img class = center src='/static/experiments/beast_fmri_test/images/redV.png'></img>	go	1750.0	2.0	19.0	go	non-target	V	89,Yellow Button	71,Green Button	850.0	1000.0	1900.0	1750.0	1.0	1000.0	n/a	1.0	go_stim
316606.39982249995	752.60017750000009	n/a	1219	71	2750	752.6001775	stim	stop-signal	335	838495	0.0-15.19-1.19	beast_fmri_test	269	835975,/,836655,/,837335,/,838015,/,838695,/	t,t,t,t,t	<img class = center src='/static/experiments/beast_fmri_test/images/V.png'></img>	89,71	2750.0	test	<img class = center src='/static/experiments/beast_fmri_test/images/redV.png'></img>	go	1750.0	2.0	19.0	go	non-target	V	89,Yellow Button	71,Green Button	850.0	1000.0	1900.0	1750.0	1.0	1000.0	n/a	1.0	ITI
318626	500	n/a	-1	-1	500	0.0	fixation	poldrack-single-stim	336	839762	0.0-15.20-0.20	beast_fmri_test	269	839375,/	t	<div class = centerbox><div class = fixation>+</div></div>	none	500.0	test	n/a	n/a	n/a	n/a	n/a	n/a	n/a	n/a	n/a	n/a	n/a	n/a	n/a	n/a	n/a	n/a	n/a	n/a	fixation
318488.51070470002	2750	n/a	564	89	2750	140.4892953	stim	stop-signal	337	842515	0.0-15.20-1.20	beast_fmri_test	269	840055,/,840735,/,841415,/,842095,/	t,t,t,t	<img class = center src='/static/experiments/beast_fmri_test/images/B.png'></img>	89,71	2750.0	test	<img class = center src='/static/experiments/beast_fmri_test/images/redB.png'></img>	go	1900.0	2.0	20.0	go	target	B	89,Yellow Button	71,Green Button	850.0	1000.0	1900.0	1750.0	1.0	850.0	n/a	1.0	go_stim
321238.51070470002	140.48929530000001	n/a	564	89	2750	140.4892953	stim	stop-signal	337	842515	0.0-15.20-1.20	beast_fmri_test	269	840055,/,840735,/,841415,/,842095,/	t,t,t,t	<img class = center src='/static/experiments/beast_fmri_test/images/B.png'></img>	89,71	2750.0	test	<img class = center src='/static/experiments/beast_fmri_test/images/redB.png'></img>	go	1900.0	2.0	20.0	go	target	B	89,Yellow Button	71,Green Button	850.0	1000.0	1900.0	1750.0	1.0	850.0	n/a	1.0	ITI
322031	500	n/a	-1	-1	500	0.0	fixation	poldrack-single-stim	338	843167	0.0-15.21-0.21	beast_fmri_test	269	842775,/	t	<div class = centerbox><div class = fixation>+</div></div>	none	500.0	test	n/a	n/a	n/a	n/a	n/a	n/a	n/a	n/a	n/a	n/a	n/a	n/a	n/a	n/a	n/a	n/a	n/a	n/a	fixation
320229.68927800003	2750	n/a	1062	89	2750	1803.310722	stim	stop-signal	339	845919	0.0-15.21-1.21	beast_fmri_test	269	843455,/,844136,/,844816,/,845496,/,846176,/,846856,/,847536,/	t,t,t,t,t,t,t	<img class = center src='/static/experiments/beast_fmri_test/images/V.png'></img>	89,71	2750.0	test	<img class = center src='/static/experiments/beast_fmri_test/images/redV.png'></img>	go	1900.0	2.0	21.0	go	target	V	89,Yellow Button	71,Green Button	850.0	1000.0	1900.0	1750.0	1.0	850.0	n/a	1.0	go_stim
322979.68927800003	1803.3107219999999	n/a	1062	89	2750	1803.310722	stim	stop-signal	339	845919	0.0-15.21-1.21	beast_fmri_test	269	843455,/,844136,/,844816,/,845496,/,846176,/,846856,/,847536,/	t,t,t,t,t,t,t	<img class = center src='/static/experiments/beast_fmri_test/images/V.png'></img>	89,71	2750.0	test	<img class = center src='/static/experiments/beast_fmri_test/images/redV.png'></img>	go	1900.0	2.0	21.0	go	target	V	89,Yellow Button	71,Green Button	850.0	1000.0	1900.0	1750.0	1.0	850.0	n/a	1.0	ITI
327100	500	n/a	-1	-1	500	0.0	fixation	poldrack-single-stim	340	848236	0.0-15.22-0.22	beast_fmri_test	269	848216,/	t	<div class = centerbox><div class = fixation>+</div></div>	none	500.0	test	n/a	n/a	n/a	n/a	n/a	n/a	n/a	n/a	n/a	n/a	n/a	n/a	n/a	n/a	n/a	n/a	n/a	n/a	fixation
326981.33770879998	2750	n/a	1079	89	2750	119.6622912	stim	stop-signal	341	850987	0.0-15.22-1.22	beast_fmri_test	269	848896,/,849575,/,850256,/,850935,/	t,t,t,t	<img class = center src='/static/experiments/beast_fmri_test/images/B.png'></img>	89,71	2750.0	test	<img class = center src='/static/experiments/beast_fmri_test/images/redB.png'></img>	go	1900.0	2.0	22.0	go	target	B	89,Yellow Button	71,Green Button	850.0	1000.0	1900.0	1750.0	1.0	850.0	n/a	1.0	go_stim
