onset	duration	text	rt	key_press	block_duration	timing_post_trial	trial_id	trial_type	trial_index	time_elapsed	internal_node_id	exp_id	subject_id	trigger_times	triggers	stimulus	possible_responses	stim_duration	exp_stage	SS_stimulus	SS_trial_type	SS_duration	load	trial_num	stop_trial_type	adaptive_trial_type	stim	yes_response_key	no_response_key	SSD_target	SSD_non_target	SSTarget	SSNonTarget	go_acc	SS_delay	stop_acc	adaptive_acc	new_trial_type
test	10880	n/a	-1	-1	10880	0.0	practice-no-stop-feedback	poldrack-single-stim	392	1010610	0.0-18.0	beast_fmri_test	269	999730,/,1000410,/,1001090,/,1001770,/,1002450,/,1003130,/,1003810,/,1004490,/,1005170,/,1005850,/,1006530,/,1007211,/,1007890,/,1008570,/,1009250,/,1009930,/,1010610,/	t,t,t,t,t,t,t,t,t,t,t,t,t,t,t,t,t	"<div class = ""centerbox""><p class = ""center-block-text"">Your delay is 3 trials.</p><p class = center-block-text>Please wait for the scanner to start the block</p></div>"	77	10880.0	n/a	n/a	n/a	n/a	n/a	n/a	n/a	n/a	n/a	n/a	n/a	n/a	n/a	n/a	n/a	n/a	n/a	n/a	n/a	start_functional_block
11384	500	n/a	-1	-1	500	0.0	fixation	poldrack-single-stim	393	1011114	0.0-19.0-0.0	beast_fmri_test	269	n/a	n/a	<div class = centerbox><div class = fixation>+</div></div>	none	500.0	test	n/a	n/a	n/a	n/a	n/a	n/a	n/a	n/a	n/a	n/a	n/a	n/a	n/a	n/a	n/a	n/a	n/a	n/a	fixation
10683.191519999993	2750	n/a	861	71	2750	702.80848	stim	stop-signal	394	1013866	0.0-19.0-1.0	beast_fmri_test	269	1011290,/,1011970,/,1012650,/,1013329,/,1014009,/	t,t,t,t,t	<img class = center src='/static/experiments/beast_fmri_test/images/V.png'></img>	89,71	2750.0	test	<img class = center src='/static/experiments/beast_fmri_test/images/redV.png'></img>	go	-1.0	3.0	0.0	go	temp-non-target	V	89,Yellow Button	71,Green Button	900.0	1000.0	1900.0	1750.0	0.0	n/a	n/a	n/a	go_stim
13433.191519999993	702.80848000000003	n/a	861	71	2750	702.80848	stim	stop-signal	394	1013866	0.0-19.0-1.0	beast_fmri_test	269	1011290,/,1011970,/,1012650,/,1013329,/,1014009,/	t,t,t,t,t	<img class = center src='/static/experiments/beast_fmri_test/images/V.png'></img>	89,71	2750.0	test	<img class = center src='/static/experiments/beast_fmri_test/images/redV.png'></img>	go	-1.0	3.0	0.0	go	temp-non-target	V	89,Yellow Button	71,Green Button	900.0	1000.0	1900.0	1750.0	0.0	n/a	n/a	n/a	ITI
15354	500	n/a	-1	-1	500	0.0	fixation	poldrack-single-stim	395	1015084	0.0-19.1-0.1	beast_fmri_test	269	1014691,/	t	<div class = centerbox><div class = fixation>+</div></div>	none	500.0	test	n/a	n/a	n/a	n/a	n/a	n/a	n/a	n/a	n/a	n/a	n/a	n/a	n/a	n/a	n/a	n/a	n/a	n/a	fixation
12944.727649000008	2750	n/a	1441	71	2750	2410.272351	stim	stop-signal	396	1017835	0.0-19.1-1.1	beast_fmri_test	269	1015371,/,1016051,/,1016730,/,1017411,/,1018091,/,1018770,/,1019450,/,1020130,/	t,t,t,t,t,t,t,t	<img class = center src='/static/experiments/beast_fmri_test/images/B.png'></img>	89,71	2750.0	test	<img class = center src='/static/experiments/beast_fmri_test/images/redB.png'></img>	go	-1.0	3.0	1.0	go	temp-non-target	B	89,Yellow Button	71,Green Button	900.0	1000.0	1900.0	1750.0	0.0	n/a	n/a	n/a	go_stim
15694.727649000008	2410.2723510000001	n/a	1441	71	2750	2410.272351	stim	stop-signal	396	1017835	0.0-19.1-1.1	beast_fmri_test	269	1015371,/,1016051,/,1016730,/,1017411,/,1018091,/,1018770,/,1019450,/,1020130,/	t,t,t,t,t,t,t,t	<img class = center src='/static/experiments/beast_fmri_test/images/B.png'></img>	89,71	2750.0	test	<img class = center src='/static/experiments/beast_fmri_test/images/redB.png'></img>	go	-1.0	3.0	1.0	go	temp-non-target	B	89,Yellow Button	71,Green Button	900.0	1000.0	1900.0	1750.0	0.0	n/a	n/a	n/a	ITI
21033	500	n/a	-1	-1	500	0.0	fixation	poldrack-single-stim	397	1020763	0.0-19.2-0.2	beast_fmri_test	269	n/a	n/a	<div class = centerbox><div class = fixation>+</div></div>	none	500.0	test	n/a	n/a	n/a	n/a	n/a	n/a	n/a	n/a	n/a	n/a	n/a	n/a	n/a	n/a	n/a	n/a	n/a	n/a	fixation
19442.695632999996	2750	n/a	1518	71	2750	1592.304367	stim	stop-signal	398	1023515	0.0-19.2-1.2	beast_fmri_test	269	1020811,/,1021490,/,1022171,/,1022850,/,1023530,/,1024210,/,1024890,/	t,t,t,t,t,t,t	<img class = center src='/static/experiments/beast_fmri_test/images/T.png'></img>	89,71	2750.0	test	<img class = center src='/static/experiments/beast_fmri_test/images/redT.png'></img>	go	-1.0	3.0	2.0	go	temp-non-target	T	89,Yellow Button	71,Green Button	900.0	1000.0	1900.0	1750.0	0.0	n/a	n/a	n/a	go_stim
22192.695632999996	1592.304367	n/a	1518	71	2750	1592.304367	stim	stop-signal	398	1023515	0.0-19.2-1.2	beast_fmri_test	269	1020811,/,1021490,/,1022171,/,1022850,/,1023530,/,1024210,/,1024890,/	t,t,t,t,t,t,t	<img class = center src='/static/experiments/beast_fmri_test/images/T.png'></img>	89,71	2750.0	test	<img class = center src='/static/experiments/beast_fmri_test/images/redT.png'></img>	go	-1.0	3.0	2.0	go	temp-non-target	T	89,Yellow Button	71,Green Button	900.0	1000.0	1900.0	1750.0	0.0	n/a	n/a	n/a	ITI
25897	500	n/a	-1	-1	500	0.0	fixation	poldrack-single-stim	399	1025627	0.0-19.3-0.3	beast_fmri_test	269	1025570,/	t	<div class = centerbox><div class = fixation>+</div></div>	none	500.0	test	n/a	n/a	n/a	n/a	n/a	n/a	n/a	n/a	n/a	n/a	n/a	n/a	n/a	n/a	n/a	n/a	n/a	n/a	fixation
25638.087126199971	2750	n/a	993	89	2750	260.9128738	stim	stop-signal	400	1028379	0.0-19.3-1.3	beast_fmri_test	269	1026251,/,1026930,/,1027611,/,1028290,/	t,t,t,t	<img class = center src='/static/experiments/beast_fmri_test/images/V.png'></img>	89,71	2750.0	test	<img class = center src='/static/experiments/beast_fmri_test/images/redV.png'></img>	go	1850.0	3.0	3.0	go	target	V	89,Yellow Button	71,Green Button	900.0	1000.0	1850.0	1750.0	1.0	900.0	n/a	1.0	go_stim
28388.087126199971	260.9128738	n/a	993	89	2750	260.9128738	stim	stop-signal	400	1028379	0.0-19.3-1.3	beast_fmri_test	269	1026251,/,1026930,/,1027611,/,1028290,/	t,t,t,t	<img class = center src='/static/experiments/beast_fmri_test/images/V.png'></img>	89,71	2750.0	test	<img class = center src='/static/experiments/beast_fmri_test/images/redV.png'></img>	go	1850.0	3.0	3.0	go	target	V	89,Yellow Button	71,Green Button	900.0	1000.0	1850.0	1750.0	1.0	900.0	n/a	1.0	ITI
29430	500	n/a	-1	-1	500	0.0	fixation	poldrack-single-stim	401	1029160	0.0-19.4-0.4	beast_fmri_test	269	1028971,/	t	<div class = centerbox><div class = fixation>+</div></div>	none	500.0	test	n/a	n/a	n/a	n/a	n/a	n/a	n/a	n/a	n/a	n/a	n/a	n/a	n/a	n/a	n/a	n/a	n/a	n/a	fixation
29175.437019099947	2750	n/a	1195	71	2750	256.5629809	stim	stop-signal	402	1031912	0.0-19.4-1.4	beast_fmri_test	269	1029650,/,1030330,/,1031010,/,1031690,/	t,t,t,t	<img class = center src='/static/experiments/beast_fmri_test/images/P.png'></img>	89,71	2750.0	test	<img class = center src='/static/experiments/beast_fmri_test/images/redP.png'></img>	go	1750.0	3.0	4.0	go	non-target	P	89,Yellow Button	71,Green Button	900.0	1000.0	1850.0	1750.0	1.0	1000.0	n/a	1.0	go_stim
31925.437019099947	256.56298090000001	n/a	1195	71	2750	256.5629809	stim	stop-signal	402	1031912	0.0-19.4-1.4	beast_fmri_test	269	1029650,/,1030330,/,1031010,/,1031690,/	t,t,t,t	<img class = center src='/static/experiments/beast_fmri_test/images/P.png'></img>	89,71	2750.0	test	<img class = center src='/static/experiments/beast_fmri_test/images/redP.png'></img>	go	1750.0	3.0	4.0	go	non-target	P	89,Yellow Button	71,Green Button	900.0	1000.0	1850.0	1750.0	1.0	1000.0	n/a	1.0	ITI
32956	500	n/a	-1	-1	500	0.0	fixation	poldrack-single-stim	403	1032686	0.0-19.5-0.5	beast_fmri_test	269	1032370,/	t	<div class = centerbox><div class = fixation>+</div></div>	none	500.0	test	n/a	n/a	n/a	n/a	n/a	n/a	n/a	n/a	n/a	n/a	n/a	n/a	n/a	n/a	n/a	n/a	n/a	n/a	fixation
31965.966712599969	2750	n/a	1832	71	2750	992.0332874	stim	stop-signal	404	1035438	0.0-19.5-1.5	beast_fmri_test	269	1033050,/,1033730,/,1034410,/,1035090,/,1035770,/	t,t,t,t,t	<img class = center src='/static/experiments/beast_fmri_test/images/D.png'></img>	89,71	2750.0	test	<img class = center src='/static/experiments/beast_fmri_test/images/redD.png'></img>	go	1750.0	3.0	5.0	go	non-target	D	89,Yellow Button	71,Green Button	900.0	1000.0	1850.0	1750.0	1.0	1000.0	n/a	1.0	go_stim
34715.966712599969	992.03328739999995	n/a	1832	71	2750	992.0332874	stim	stop-signal	404	1035438	0.0-19.5-1.5	beast_fmri_test	269	1033050,/,1033730,/,1034410,/,1035090,/,1035770,/	t,t,t,t,t	<img class = center src='/static/experiments/beast_fmri_test/images/D.png'></img>	89,71	2750.0	test	<img class = center src='/static/experiments/beast_fmri_test/images/redD.png'></img>	go	1750.0	3.0	5.0	go	non-target	D	89,Yellow Button	71,Green Button	900.0	1000.0	1850.0	1750.0	1.0	1000.0	n/a	1.0	ITI
37221	500	n/a	-1	-1	500	0.0	fixation	poldrack-single-stim	405	1036951	0.0-19.6-0.6	beast_fmri_test	269	1036450,/	t	<div class = centerbox><div class = fixation>+</div></div>	none	500.0	test	n/a	n/a	n/a	n/a	n/a	n/a	n/a	n/a	n/a	n/a	n/a	n/a	n/a	n/a	n/a	n/a	n/a	n/a	fixation
36335.731610700022	1000.0	n/a	-1	-1	2750	887.2683893	stim	stop-signal	406	1039703	0.0-19.6-1.6	beast_fmri_test	269	1037130,/,1037811,/,1038490,/,1039170,/,1039850,/,1040530,/	t,t,t,t,t,t	<img class = center src='/static/experiments/beast_fmri_test/images/P.png'></img>	89,71	2750.0	test	<img class = center src='/static/experiments/beast_fmri_test/images/redP.png'></img>	stop	1750.0	3.0	6.0	stop	non-target	P	89,Yellow Button	71,Green Button	900.0	1000.0	1850.0	1750.0	0.0	1000.0	1.0	0.0	go_stim
38085.731610700022	1750.0	n/a	-1	-1	2750	887.2683893	stim	stop-signal	406	1039703	0.0-19.6-1.6	beast_fmri_test	269	1037130,/,1037811,/,1038490,/,1039170,/,1039850,/,1040530,/	t,t,t,t,t,t	<img class = center src='/static/experiments/beast_fmri_test/images/P.png'></img>	89,71	2750.0	test	<img class = center src='/static/experiments/beast_fmri_test/images/redP.png'></img>	stop	1750.0	3.0	6.0	stop	non-target	P	89,Yellow Button	71,Green Button	900.0	1000.0	1850.0	1750.0	0.0	1000.0	1.0	0.0	stop_stim
39085.731610700022	887.26838929999997	n/a	-1	-1	2750	887.2683893	stim	stop-signal	406	1039703	0.0-19.6-1.6	beast_fmri_test	269	1037130,/,1037811,/,1038490,/,1039170,/,1039850,/,1040530,/	t,t,t,t,t,t	<img class = center src='/static/experiments/beast_fmri_test/images/P.png'></img>	89,71	2750.0	test	<img class = center src='/static/experiments/beast_fmri_test/images/redP.png'></img>	stop	1750.0	3.0	6.0	stop	non-target	P	89,Yellow Button	71,Green Button	900.0	1000.0	1850.0	1750.0	0.0	1000.0	1.0	0.0	ITI
41377	500	n/a	-1	-1	500	0.0	fixation	poldrack-single-stim	407	1041107	0.0-19.7-0.7	beast_fmri_test	269	n/a	n/a	<div class = centerbox><div class = fixation>+</div></div>	none	500.0	test	n/a	n/a	n/a	n/a	n/a	n/a	n/a	n/a	n/a	n/a	n/a	n/a	n/a	n/a	n/a	n/a	n/a	n/a	fixation
39127.169143000036	2750	n/a	1647	71	2750	2251.830857	stim	stop-signal	408	1043859	0.0-19.7-1.7	beast_fmri_test	269	1041210,/,1041890,/,1042570,/,1043250,/,1043930,/,1044610,/,1045290,/,1045969,/	t,t,t,t,t,t,t,t	<img class = center src='/static/experiments/beast_fmri_test/images/P.png'></img>	89,71	2750.0	test	<img class = center src='/static/experiments/beast_fmri_test/images/redP.png'></img>	go	1850.0	3.0	7.0	go	target	P	89,Yellow Button	71,Green Button	900.0	1050.0	1850.0	1750.0	0.0	900.0	n/a	0.0	go_stim
41877.169143000036	2251.8308569999999	n/a	1647	71	2750	2251.830857	stim	stop-signal	408	1043859	0.0-19.7-1.7	beast_fmri_test	269	1041210,/,1041890,/,1042570,/,1043250,/,1043930,/,1044610,/,1045290,/,1045969,/	t,t,t,t,t,t,t,t	<img class = center src='/static/experiments/beast_fmri_test/images/P.png'></img>	89,71	2750.0	test	<img class = center src='/static/experiments/beast_fmri_test/images/redP.png'></img>	go	1850.0	3.0	7.0	go	target	P	89,Yellow Button	71,Green Button	900.0	1050.0	1850.0	1750.0	0.0	900.0	n/a	0.0	ITI
46898	500	n/a	-1	-1	500	0.0	fixation	poldrack-single-stim	409	1046628	0.0-19.8-0.8	beast_fmri_test	269	n/a	n/a	<div class = centerbox><div class = fixation>+</div></div>	none	500.0	test	n/a	n/a	n/a	n/a	n/a	n/a	n/a	n/a	n/a	n/a	n/a	n/a	n/a	n/a	n/a	n/a	n/a	n/a	fixation
46106.176244700095	2750	n/a	1722	71	2750	794.8237553	stim	stop-signal	410	1049381	0.0-19.8-1.8	beast_fmri_test	269	1046650,/,1047330,/,1048011,/,1048689,/,1049370,/,1050050,/	t,t,t,t,t,t	<img class = center src='/static/experiments/beast_fmri_test/images/V.png'></img>	89,71	2750.0	test	<img class = center src='/static/experiments/beast_fmri_test/images/redV.png'></img>	go	1700.0	3.0	8.0	go	non-target	V	89,Yellow Button	71,Green Button	900.0	1050.0	1850.0	1700.0	1.0	1050.0	n/a	1.0	go_stim
48856.176244700095	794.8237552999999	n/a	1722	71	2750	794.8237553	stim	stop-signal	410	1049381	0.0-19.8-1.8	beast_fmri_test	269	1046650,/,1047330,/,1048011,/,1048689,/,1049370,/,1050050,/	t,t,t,t,t,t	<img class = center src='/static/experiments/beast_fmri_test/images/V.png'></img>	89,71	2750.0	test	<img class = center src='/static/experiments/beast_fmri_test/images/redV.png'></img>	go	1700.0	3.0	8.0	go	non-target	V	89,Yellow Button	71,Green Button	900.0	1050.0	1850.0	1700.0	1.0	1050.0	n/a	1.0	ITI
50962	500	n/a	-1	-1	500	0.0	fixation	poldrack-single-stim	411	1050692	0.0-19.9-0.9	beast_fmri_test	269	n/a	n/a	<div class = centerbox><div class = fixation>+</div></div>	none	500.0	test	n/a	n/a	n/a	n/a	n/a	n/a	n/a	n/a	n/a	n/a	n/a	n/a	n/a	n/a	n/a	n/a	n/a	n/a	fixation
50438.732174200006	2750	n/a	2056	71	2750	525.2678258	stim	stop-signal	412	1053444	0.0-19.9-1.9	beast_fmri_test	269	1050731,/,1051411,/,1052090,/,1052770,/,1053450,/	t,t,t,t,t	<img class = center src='/static/experiments/beast_fmri_test/images/D.png'></img>	89,71	2750.0	test	<img class = center src='/static/experiments/beast_fmri_test/images/redD.png'></img>	go	1700.0	3.0	9.0	go	non-target	D	89,Yellow Button	71,Green Button	900.0	1050.0	1850.0	1700.0	1.0	1050.0	n/a	1.0	go_stim
53188.732174200006	525.26782580000008	n/a	2056	71	2750	525.2678258	stim	stop-signal	412	1053444	0.0-19.9-1.9	beast_fmri_test	269	1050731,/,1051411,/,1052090,/,1052770,/,1053450,/	t,t,t,t,t	<img class = center src='/static/experiments/beast_fmri_test/images/D.png'></img>	89,71	2750.0	test	<img class = center src='/static/experiments/beast_fmri_test/images/redD.png'></img>	go	1700.0	3.0	9.0	go	non-target	D	89,Yellow Button	71,Green Button	900.0	1050.0	1850.0	1700.0	1.0	1050.0	n/a	1.0	ITI
54756	500	n/a	-1	-1	500	0.0	fixation	poldrack-single-stim	413	1054486	0.0-19.10-0.10	beast_fmri_test	269	1054131,/	t	<div class = centerbox><div class = fixation>+</div></div>	none	500.0	test	n/a	n/a	n/a	n/a	n/a	n/a	n/a	n/a	n/a	n/a	n/a	n/a	n/a	n/a	n/a	n/a	n/a	n/a	fixation
54504.007023999933	2750	n/a	1072	89	2750	254.992976	stim	stop-signal	414	1057239	0.0-19.10-1.10	beast_fmri_test	269	1054810,/,1055490,/,1056171,/,1056850,/	t,t,t,t	<img class = center src='/static/experiments/beast_fmri_test/images/P.png'></img>	89,71	2750.0	test	<img class = center src='/static/experiments/beast_fmri_test/images/redP.png'></img>	go	1850.0	3.0	10.0	go	target	P	89,Yellow Button	71,Green Button	900.0	1050.0	1850.0	1700.0	1.0	900.0	n/a	1.0	go_stim
57254.007023999933	254.99297599999997	n/a	1072	89	2750	254.992976	stim	stop-signal	414	1057239	0.0-19.10-1.10	beast_fmri_test	269	1054810,/,1055490,/,1056171,/,1056850,/	t,t,t,t	<img class = center src='/static/experiments/beast_fmri_test/images/P.png'></img>	89,71	2750.0	test	<img class = center src='/static/experiments/beast_fmri_test/images/redP.png'></img>	go	1850.0	3.0	10.0	go	target	P	89,Yellow Button	71,Green Button	900.0	1050.0	1850.0	1700.0	1.0	900.0	n/a	1.0	ITI
58280	500	n/a	-1	-1	500	0.0	fixation	poldrack-single-stim	415	1058010	0.0-19.11-0.11	beast_fmri_test	269	1057531,/	t	<div class = centerbox><div class = fixation>+</div></div>	none	500.0	test	n/a	n/a	n/a	n/a	n/a	n/a	n/a	n/a	n/a	n/a	n/a	n/a	n/a	n/a	n/a	n/a	n/a	n/a	fixation
57814.550579800038	2750	n/a	2265	71	2750	467.4494202	stim	stop-signal	416	1060762	0.0-19.11-1.11	beast_fmri_test	269	1058211,/,1058891,/,1059570,/,1060250,/,1060930,/	t,t,t,t,t	<img class = center src='/static/experiments/beast_fmri_test/images/V.png'></img>	89,71	2750.0	test	<img class = center src='/static/experiments/beast_fmri_test/images/redV.png'></img>	go	1850.0	3.0	11.0	go	target	V	89,Yellow Button	71,Green Button	900.0	1050.0	1850.0	1700.0	0.0	900.0	n/a	0.0	go_stim
60564.550579800038	467.44942019999996	n/a	2265	71	2750	467.4494202	stim	stop-signal	416	1060762	0.0-19.11-1.11	beast_fmri_test	269	1058211,/,1058891,/,1059570,/,1060250,/,1060930,/	t,t,t,t,t	<img class = center src='/static/experiments/beast_fmri_test/images/V.png'></img>	89,71	2750.0	test	<img class = center src='/static/experiments/beast_fmri_test/images/redV.png'></img>	go	1850.0	3.0	11.0	go	target	V	89,Yellow Button	71,Green Button	900.0	1050.0	1850.0	1700.0	0.0	900.0	n/a	0.0	ITI
62021	500	n/a	-1	-1	500	0.0	fixation	poldrack-single-stim	417	1061751	0.0-19.12-0.12	beast_fmri_test	269	1061611,/	t	<div class = centerbox><div class = fixation>+</div></div>	none	500.0	test	n/a	n/a	n/a	n/a	n/a	n/a	n/a	n/a	n/a	n/a	n/a	n/a	n/a	n/a	n/a	n/a	n/a	n/a	fixation
60632.126518999925	1050.0	n/a	-1	-1	2750	1390.873481	stim	stop-signal	418	1064503	0.0-19.12-1.12	beast_fmri_test	269	1062290,/,1062970,/,1063650,/,1064330,/,1065010,/,1065690,/	t,t,t,t,t,t	<img class = center src='/static/experiments/beast_fmri_test/images/T.png'></img>	89,71	2750.0	test	<img class = center src='/static/experiments/beast_fmri_test/images/redT.png'></img>	stop	1700.0	3.0	12.0	stop	non-target	T	89,Yellow Button	71,Green Button	900.0	1050.0	1850.0	1700.0	0.0	1050.0	1.0	0.0	go_stim
62332.126518999925	1700.0	n/a	-1	-1	2750	1390.873481	stim	stop-signal	418	1064503	0.0-19.12-1.12	beast_fmri_test	269	1062290,/,1062970,/,1063650,/,1064330,/,1065010,/,1065690,/	t,t,t,t,t,t	<img class = center src='/static/experiments/beast_fmri_test/images/T.png'></img>	89,71	2750.0	test	<img class = center src='/static/experiments/beast_fmri_test/images/redT.png'></img>	stop	1700.0	3.0	12.0	stop	non-target	T	89,Yellow Button	71,Green Button	900.0	1050.0	1850.0	1700.0	0.0	1050.0	1.0	0.0	stop_stim
63382.126518999925	1390.8734810000001	n/a	-1	-1	2750	1390.873481	stim	stop-signal	418	1064503	0.0-19.12-1.12	beast_fmri_test	269	1062290,/,1062970,/,1063650,/,1064330,/,1065010,/,1065690,/	t,t,t,t,t,t	<img class = center src='/static/experiments/beast_fmri_test/images/T.png'></img>	89,71	2750.0	test	<img class = center src='/static/experiments/beast_fmri_test/images/redT.png'></img>	stop	1700.0	3.0	12.0	stop	non-target	T	89,Yellow Button	71,Green Button	900.0	1050.0	1850.0	1700.0	0.0	1050.0	1.0	0.0	ITI
66682	500	n/a	-1	-1	500	0.0	fixation	poldrack-single-stim	419	1066412	0.0-19.13-0.13	beast_fmri_test	269	1066370,/	t	<div class = centerbox><div class = fixation>+</div></div>	none	500.0	test	n/a	n/a	n/a	n/a	n/a	n/a	n/a	n/a	n/a	n/a	n/a	n/a	n/a	n/a	n/a	n/a	n/a	n/a	fixation
65428.720359999919	2750	n/a	1021	71	2750	1254.27964	stim	stop-signal	420	1069163	0.0-19.13-1.13	beast_fmri_test	269	1067050,/,1067730,/,1068411,/,1069090,/,1069770,/	t,t,t,t,t	<img class = center src='/static/experiments/beast_fmri_test/images/V.png'></img>	89,71	2750.0	test	<img class = center src='/static/experiments/beast_fmri_test/images/redV.png'></img>	go	1650.0	3.0	13.0	go	non-target	V	89,Yellow Button	71,Green Button	900.0	1100.0	1850.0	1650.0	1.0	1100.0	n/a	1.0	go_stim
68178.720359999919	1254.27964	n/a	1021	71	2750	1254.27964	stim	stop-signal	420	1069163	0.0-19.13-1.13	beast_fmri_test	269	1067050,/,1067730,/,1068411,/,1069090,/,1069770,/	t,t,t,t,t	<img class = center src='/static/experiments/beast_fmri_test/images/V.png'></img>	89,71	2750.0	test	<img class = center src='/static/experiments/beast_fmri_test/images/redV.png'></img>	go	1650.0	3.0	13.0	go	non-target	V	89,Yellow Button	71,Green Button	900.0	1100.0	1850.0	1650.0	1.0	1100.0	n/a	1.0	ITI
71205	500	n/a	-1	-1	500	0.0	fixation	poldrack-single-stim	421	1070935	0.0-19.14-0.14	beast_fmri_test	269	1070450,/	t	<div class = centerbox><div class = fixation>+</div></div>	none	500.0	test	n/a	n/a	n/a	n/a	n/a	n/a	n/a	n/a	n/a	n/a	n/a	n/a	n/a	n/a	n/a	n/a	n/a	n/a	fixation
70541.519330800045	2750	n/a	1437	71	2750	665.4806692	stim	stop-signal	422	1073687	0.0-19.14-1.14	beast_fmri_test	269	1071130,/,1071810,/,1072490,/,1073170,/,1073850,/	t,t,t,t,t	<img class = center src='/static/experiments/beast_fmri_test/images/P.png'></img>	89,71	2750.0	test	<img class = center src='/static/experiments/beast_fmri_test/images/redP.png'></img>	go	1650.0	3.0	14.0	go	non-target	P	89,Yellow Button	71,Green Button	900.0	1100.0	1850.0	1650.0	1.0	1100.0	n/a	1.0	go_stim
73291.519330800045	665.48066920000008	n/a	1437	71	2750	665.4806692	stim	stop-signal	422	1073687	0.0-19.14-1.14	beast_fmri_test	269	1071130,/,1071810,/,1072490,/,1073170,/,1073850,/	t,t,t,t,t	<img class = center src='/static/experiments/beast_fmri_test/images/P.png'></img>	89,71	2750.0	test	<img class = center src='/static/experiments/beast_fmri_test/images/redP.png'></img>	go	1650.0	3.0	14.0	go	non-target	P	89,Yellow Button	71,Green Button	900.0	1100.0	1850.0	1650.0	1.0	1100.0	n/a	1.0	ITI
75141	500	n/a	-1	-1	500	0.0	fixation	poldrack-single-stim	423	1074871	0.0-19.15-0.15	beast_fmri_test	269	1074530,/	t	<div class = centerbox><div class = fixation>+</div></div>	none	500.0	test	n/a	n/a	n/a	n/a	n/a	n/a	n/a	n/a	n/a	n/a	n/a	n/a	n/a	n/a	n/a	n/a	n/a	n/a	fixation
74619.235707399901	1100.0	n/a	-1	-1	2750	522.7642926	stim	stop-signal	424	1077622	0.0-19.15-1.15	beast_fmri_test	269	1075210,/,1075890,/,1076570,/,1077250,/,1077930,/	t,t,t,t,t	<img class = center src='/static/experiments/beast_fmri_test/images/P.png'></img>	89,71	2750.0	test	<img class = center src='/static/experiments/beast_fmri_test/images/redP.png'></img>	stop	1650.0	3.0	15.0	stop	non-target	P	89,Yellow Button	71,Green Button	900.0	1100.0	1850.0	1650.0	0.0	1100.0	1.0	0.0	go_stim
76269.235707399901	1650.0	n/a	-1	-1	2750	522.7642926	stim	stop-signal	424	1077622	0.0-19.15-1.15	beast_fmri_test	269	1075210,/,1075890,/,1076570,/,1077250,/,1077930,/	t,t,t,t,t	<img class = center src='/static/experiments/beast_fmri_test/images/P.png'></img>	89,71	2750.0	test	<img class = center src='/static/experiments/beast_fmri_test/images/redP.png'></img>	stop	1650.0	3.0	15.0	stop	non-target	P	89,Yellow Button	71,Green Button	900.0	1100.0	1850.0	1650.0	0.0	1100.0	1.0	0.0	stop_stim
77369.235707399901	522.76429259999998	n/a	-1	-1	2750	522.7642926	stim	stop-signal	424	1077622	0.0-19.15-1.15	beast_fmri_test	269	1075210,/,1075890,/,1076570,/,1077250,/,1077930,/	t,t,t,t,t	<img class = center src='/static/experiments/beast_fmri_test/images/P.png'></img>	89,71	2750.0	test	<img class = center src='/static/experiments/beast_fmri_test/images/redP.png'></img>	stop	1650.0	3.0	15.0	stop	non-target	P	89,Yellow Button	71,Green Button	900.0	1100.0	1850.0	1650.0	0.0	1100.0	1.0	0.0	ITI
78931	500	n/a	-1	-1	500	0.0	fixation	poldrack-single-stim	425	1078661	0.0-19.16-0.16	beast_fmri_test	269	1078611,/	t	<div class = centerbox><div class = fixation>+</div></div>	none	500.0	test	n/a	n/a	n/a	n/a	n/a	n/a	n/a	n/a	n/a	n/a	n/a	n/a	n/a	n/a	n/a	n/a	n/a	n/a	fixation
77422.726705000037	1150.0	n/a	-1	-1	2750	1510.273295	stim	stop-signal	426	1081413	0.0-19.16-1.16	beast_fmri_test	269	1079290,/,1079970,/,1080650,/,1081330,/,1082011,/,1082690,/	t,t,t,t,t,t	<img class = center src='/static/experiments/beast_fmri_test/images/D.png'></img>	89,71	2750.0	test	<img class = center src='/static/experiments/beast_fmri_test/images/redD.png'></img>	stop	1600.0	3.0	16.0	stop	non-target	D	89,Yellow Button	71,Green Button	900.0	1150.0	1850.0	1600.0	0.0	1150.0	1.0	0.0	go_stim
79022.726705000037	1600.0	n/a	-1	-1	2750	1510.273295	stim	stop-signal	426	1081413	0.0-19.16-1.16	beast_fmri_test	269	1079290,/,1079970,/,1080650,/,1081330,/,1082011,/,1082690,/	t,t,t,t,t,t	<img class = center src='/static/experiments/beast_fmri_test/images/D.png'></img>	89,71	2750.0	test	<img class = center src='/static/experiments/beast_fmri_test/images/redD.png'></img>	stop	1600.0	3.0	16.0	stop	non-target	D	89,Yellow Button	71,Green Button	900.0	1150.0	1850.0	1600.0	0.0	1150.0	1.0	0.0	stop_stim
80172.726705000037	1510.273295	n/a	-1	-1	2750	1510.273295	stim	stop-signal	426	1081413	0.0-19.16-1.16	beast_fmri_test	269	1079290,/,1079970,/,1080650,/,1081330,/,1082011,/,1082690,/	t,t,t,t,t,t	<img class = center src='/static/experiments/beast_fmri_test/images/D.png'></img>	89,71	2750.0	test	<img class = center src='/static/experiments/beast_fmri_test/images/redD.png'></img>	stop	1600.0	3.0	16.0	stop	non-target	D	89,Yellow Button	71,Green Button	900.0	1150.0	1850.0	1600.0	0.0	1150.0	1.0	0.0	ITI
83711	500	n/a	-1	-1	500	0.0	fixation	poldrack-single-stim	427	1083441	0.0-19.17-0.17	beast_fmri_test	269	1083371,/	t	<div class = centerbox><div class = fixation>+</div></div>	none	500.0	test	n/a	n/a	n/a	n/a	n/a	n/a	n/a	n/a	n/a	n/a	n/a	n/a	n/a	n/a	n/a	n/a	n/a	n/a	fixation
83006.999468999915	2750	n/a	1232	71	2750	706.000531	stim	stop-signal	428	1086193	0.0-19.17-1.17	beast_fmri_test	269	1084051,/,1084731,/,1085410,/,1086090,/,1086770,/	t,t,t,t,t	<img class = center src='/static/experiments/beast_fmri_test/images/V.png'></img>	89,71	2750.0	test	<img class = center src='/static/experiments/beast_fmri_test/images/redV.png'></img>	go	1550.0	3.0	17.0	go	non-target	V	89,Yellow Button	71,Green Button	900.0	1200.0	1850.0	1550.0	1.0	1200.0	n/a	1.0	go_stim
85756.999468999915	706.00053099999991	n/a	1232	71	2750	706.000531	stim	stop-signal	428	1086193	0.0-19.17-1.17	beast_fmri_test	269	1084051,/,1084731,/,1085410,/,1086090,/,1086770,/	t,t,t,t,t	<img class = center src='/static/experiments/beast_fmri_test/images/V.png'></img>	89,71	2750.0	test	<img class = center src='/static/experiments/beast_fmri_test/images/redV.png'></img>	go	1550.0	3.0	17.0	go	non-target	V	89,Yellow Button	71,Green Button	900.0	1200.0	1850.0	1550.0	1.0	1200.0	n/a	1.0	ITI
87688	500	n/a	-1	-1	500	0.0	fixation	poldrack-single-stim	429	1087418	0.0-19.18-0.18	beast_fmri_test	269	n/a	n/a	<div class = centerbox><div class = fixation>+</div></div>	none	500.0	test	n/a	n/a	n/a	n/a	n/a	n/a	n/a	n/a	n/a	n/a	n/a	n/a	n/a	n/a	n/a	n/a	n/a	n/a	fixation
87123.641563500045	2750	n/a	1461	71	2750	566.3584365	stim	stop-signal	430	1090170	0.0-19.18-1.18	beast_fmri_test	269	1087451,/,1088130,/,1088811,/,1089490,/,1090171,/	t,t,t,t,t	<img class = center src='/static/experiments/beast_fmri_test/images/B.png'></img>	89,71	2750.0	test	<img class = center src='/static/experiments/beast_fmri_test/images/redB.png'></img>	go	1550.0	3.0	18.0	go	non-target	B	89,Yellow Button	71,Green Button	900.0	1200.0	1850.0	1550.0	1.0	1200.0	n/a	1.0	go_stim
89873.641563500045	566.35843650000004	n/a	1461	71	2750	566.3584365	stim	stop-signal	430	1090170	0.0-19.18-1.18	beast_fmri_test	269	1087451,/,1088130,/,1088811,/,1089490,/,1090171,/	t,t,t,t,t	<img class = center src='/static/experiments/beast_fmri_test/images/B.png'></img>	89,71	2750.0	test	<img class = center src='/static/experiments/beast_fmri_test/images/redB.png'></img>	go	1550.0	3.0	18.0	go	non-target	B	89,Yellow Button	71,Green Button	900.0	1200.0	1850.0	1550.0	1.0	1200.0	n/a	1.0	ITI
91525	500	n/a	-1	-1	500	0.0	fixation	poldrack-single-stim	431	1091255	0.0-19.19-0.19	beast_fmri_test	269	1090850,/	t	<div class = centerbox><div class = fixation>+</div></div>	none	500.0	test	n/a	n/a	n/a	n/a	n/a	n/a	n/a	n/a	n/a	n/a	n/a	n/a	n/a	n/a	n/a	n/a	n/a	n/a	fixation
89266.905564999906	2750	n/a	1731	71	2750	2260.094435	stim	stop-signal	432	1094007	0.0-19.19-1.19	beast_fmri_test	269	1091530,/,1092211,/,1092890,/,1093572,/,1094250,/,1094930,/,1095610,/	t,t,t,t,t,t,t	<img class = center src='/static/experiments/beast_fmri_test/images/B.png'></img>	89,71	2750.0	test	<img class = center src='/static/experiments/beast_fmri_test/images/redB.png'></img>	go	1550.0	3.0	19.0	go	non-target	B	89,Yellow Button	71,Green Button	900.0	1200.0	1850.0	1550.0	1.0	1200.0	n/a	1.0	go_stim
92016.905564999906	2260.094435	n/a	1731	71	2750	2260.094435	stim	stop-signal	432	1094007	0.0-19.19-1.19	beast_fmri_test	269	1091530,/,1092211,/,1092890,/,1093572,/,1094250,/,1094930,/,1095610,/	t,t,t,t,t,t,t	<img class = center src='/static/experiments/beast_fmri_test/images/B.png'></img>	89,71	2750.0	test	<img class = center src='/static/experiments/beast_fmri_test/images/redB.png'></img>	go	1550.0	3.0	19.0	go	non-target	B	89,Yellow Button	71,Green Button	900.0	1200.0	1850.0	1550.0	1.0	1200.0	n/a	1.0	ITI
97056	500	n/a	-1	-1	500	0.0	fixation	poldrack-single-stim	433	1096786	0.0-19.20-0.20	beast_fmri_test	269	1096290,/	t	<div class = centerbox><div class = fixation>+</div></div>	none	500.0	test	n/a	n/a	n/a	n/a	n/a	n/a	n/a	n/a	n/a	n/a	n/a	n/a	n/a	n/a	n/a	n/a	n/a	n/a	fixation
96966.000454290072	2750	n/a	876	89	2750	91.99954571	stim	stop-signal	434	1099538	0.0-19.20-1.20	beast_fmri_test	269	1096970,/,1097650,/,1098330,/,1099011,/	t,t,t,t	<img class = center src='/static/experiments/beast_fmri_test/images/D.png'></img>	89,71	2750.0	test	<img class = center src='/static/experiments/beast_fmri_test/images/redD.png'></img>	go	1550.0	3.0	20.0	go	non-target	D	89,Yellow Button	71,Green Button	900.0	1200.0	1850.0	1550.0	0.0	1200.0	n/a	0.0	go_stim
99716.000454290072	91.999545710000007	n/a	876	89	2750	91.99954571	stim	stop-signal	434	1099538	0.0-19.20-1.20	beast_fmri_test	269	1096970,/,1097650,/,1098330,/,1099011,/	t,t,t,t	<img class = center src='/static/experiments/beast_fmri_test/images/D.png'></img>	89,71	2750.0	test	<img class = center src='/static/experiments/beast_fmri_test/images/redD.png'></img>	go	1550.0	3.0	20.0	go	non-target	D	89,Yellow Button	71,Green Button	900.0	1200.0	1850.0	1550.0	0.0	1200.0	n/a	0.0	ITI
100418	500	n/a	-1	-1	500	0.0	fixation	poldrack-single-stim	435	1100148	0.0-19.21-0.21	beast_fmri_test	269	1099690,/	t	<div class = centerbox><div class = fixation>+</div></div>	none	500.0	test	n/a	n/a	n/a	n/a	n/a	n/a	n/a	n/a	n/a	n/a	n/a	n/a	n/a	n/a	n/a	n/a	n/a	n/a	fixation
97516.844285000116	1200.0	n/a	-1	-1	2750	2903.155715	stim	stop-signal	436	1102900	0.0-19.21-1.21	beast_fmri_test	269	1100370,/,1101050,/,1101730,/,1102410,/,1103090,/,1103770,/,1104450,/,1105130,/	t,t,t,t,t,t,t,t	<img class = center src='/static/experiments/beast_fmri_test/images/P.png'></img>	89,71	2750.0	test	<img class = center src='/static/experiments/beast_fmri_test/images/redP.png'></img>	stop	1550.0	3.0	21.0	stop	non-target	P	89,Yellow Button	71,Green Button	900.0	1200.0	1850.0	1550.0	0.0	1200.0	1.0	0.0	go_stim
99066.844285000116	1550.0	n/a	-1	-1	2750	2903.155715	stim	stop-signal	436	1102900	0.0-19.21-1.21	beast_fmri_test	269	1100370,/,1101050,/,1101730,/,1102410,/,1103090,/,1103770,/,1104450,/,1105130,/	t,t,t,t,t,t,t,t	<img class = center src='/static/experiments/beast_fmri_test/images/P.png'></img>	89,71	2750.0	test	<img class = center src='/static/experiments/beast_fmri_test/images/redP.png'></img>	stop	1550.0	3.0	21.0	stop	non-target	P	89,Yellow Button	71,Green Button	900.0	1200.0	1850.0	1550.0	0.0	1200.0	1.0	0.0	stop_stim
100266.84428500012	2903.1557149999999	n/a	-1	-1	2750	2903.155715	stim	stop-signal	436	1102900	0.0-19.21-1.21	beast_fmri_test	269	1100370,/,1101050,/,1101730,/,1102410,/,1103090,/,1103770,/,1104450,/,1105130,/	t,t,t,t,t,t,t,t	<img class = center src='/static/experiments/beast_fmri_test/images/P.png'></img>	89,71	2750.0	test	<img class = center src='/static/experiments/beast_fmri_test/images/redP.png'></img>	stop	1550.0	3.0	21.0	stop	non-target	P	89,Yellow Button	71,Green Button	900.0	1200.0	1850.0	1550.0	0.0	1200.0	1.0	0.0	ITI
106592	500	n/a	-1	-1	500	0.0	fixation	poldrack-single-stim	437	1106322	0.0-19.22-0.22	beast_fmri_test	269	1105821,/	t	<div class = centerbox><div class = fixation>+</div></div>	none	500.0	test	n/a	n/a	n/a	n/a	n/a	n/a	n/a	n/a	n/a	n/a	n/a	n/a	n/a	n/a	n/a	n/a	n/a	n/a	fixation
106365.64983500005	2750	n/a	1237	71	2750	227.350165	stim	stop-signal	438	1109073	0.0-19.22-1.22	beast_fmri_test	269	1106490,/,1107170,/,1107850,/,1108530,/,1109211,/	t,t,t,t,t	<img class = center src='/static/experiments/beast_fmri_test/images/V.png'></img>	89,71	2750.0	test	<img class = center src='/static/experiments/beast_fmri_test/images/redV.png'></img>	go	1500.0	3.0	22.0	go	non-target	V	89,Yellow Button	71,Green Button	900.0	1250.0	1850.0	1500.0	1.0	1250.0	n/a	1.0	go_stim
109115.64983500005	227.350165	n/a	1237	71	2750	227.350165	stim	stop-signal	438	1109073	0.0-19.22-1.22	beast_fmri_test	269	1106490,/,1107170,/,1107850,/,1108530,/,1109211,/	t,t,t,t,t	<img class = center src='/static/experiments/beast_fmri_test/images/V.png'></img>	89,71	2750.0	test	<img class = center src='/static/experiments/beast_fmri_test/images/redV.png'></img>	go	1500.0	3.0	22.0	go	non-target	V	89,Yellow Button	71,Green Button	900.0	1250.0	1850.0	1500.0	1.0	1250.0	n/a	1.0	ITI
110086	500	n/a	-1	-1	500	0.0	fixation	poldrack-single-stim	439	1109816	0.0-19.23-0.23	beast_fmri_test	269	n/a	n/a	<div class = centerbox><div class = fixation>+</div></div>	none	500.0	test	n/a	n/a	n/a	n/a	n/a	n/a	n/a	n/a	n/a	n/a	n/a	n/a	n/a	n/a	n/a	n/a	n/a	n/a	fixation
110066.5243893899	2750	n/a	1411	89	2750	20.47561061	stim	stop-signal	440	1112567	0.0-19.23-1.23	beast_fmri_test	269	1109890,/,1110570,/,1111250,/,1111930,/	t,t,t,t	<img class = center src='/static/experiments/beast_fmri_test/images/D.png'></img>	89,71	2750.0	test	<img class = center src='/static/experiments/beast_fmri_test/images/redD.png'></img>	go	1850.0	3.0	23.0	go	target	D	89,Yellow Button	71,Green Button	900.0	1250.0	1850.0	1500.0	1.0	900.0	n/a	1.0	go_stim
112816.5243893899	20.47561061	n/a	1411	89	2750	20.47561061	stim	stop-signal	440	1112567	0.0-19.23-1.23	beast_fmri_test	269	1109890,/,1110570,/,1111250,/,1111930,/	t,t,t,t	<img class = center src='/static/experiments/beast_fmri_test/images/D.png'></img>	89,71	2750.0	test	<img class = center src='/static/experiments/beast_fmri_test/images/redD.png'></img>	go	1850.0	3.0	23.0	go	target	D	89,Yellow Button	71,Green Button	900.0	1250.0	1850.0	1500.0	1.0	900.0	n/a	1.0	ITI
113373	500	n/a	-1	-1	500	0.0	fixation	poldrack-single-stim	441	1113103	0.0-19.24-0.24	beast_fmri_test	269	1112609,/	t	<div class = centerbox><div class = fixation>+</div></div>	none	500.0	test	n/a	n/a	n/a	n/a	n/a	n/a	n/a	n/a	n/a	n/a	n/a	n/a	n/a	n/a	n/a	n/a	n/a	n/a	fixation
110989.02171600005	1250.0	n/a	1417	71	2750	2385.978284	stim	stop-signal	442	1115855	0.0-19.24-1.24	beast_fmri_test	269	1113290,/,1113970,/,1114650,/,1115329,/,1116010,/,1116689,/,1117370,/,1118051,/	t,t,t,t,t,t,t,t	<img class = center src='/static/experiments/beast_fmri_test/images/D.png'></img>	89,71	2750.0	test	<img class = center src='/static/experiments/beast_fmri_test/images/redD.png'></img>	stop	1500.0	3.0	24.0	stop	non-target	D	89,Yellow Button	71,Green Button	900.0	1250.0	1850.0	1500.0	0.0	1250.0	0.0	1.0	go_stim
112489.02171600005	1500.0	n/a	1417	71	2750	2385.978284	stim	stop-signal	442	1115855	0.0-19.24-1.24	beast_fmri_test	269	1113290,/,1113970,/,1114650,/,1115329,/,1116010,/,1116689,/,1117370,/,1118051,/	t,t,t,t,t,t,t,t	<img class = center src='/static/experiments/beast_fmri_test/images/D.png'></img>	89,71	2750.0	test	<img class = center src='/static/experiments/beast_fmri_test/images/redD.png'></img>	stop	1500.0	3.0	24.0	stop	non-target	D	89,Yellow Button	71,Green Button	900.0	1250.0	1850.0	1500.0	0.0	1250.0	0.0	1.0	stop_stim
113739.02171600005	2385.9782839999998	n/a	1417	71	2750	2385.978284	stim	stop-signal	442	1115855	0.0-19.24-1.24	beast_fmri_test	269	1113290,/,1113970,/,1114650,/,1115329,/,1116010,/,1116689,/,1117370,/,1118051,/	t,t,t,t,t,t,t,t	<img class = center src='/static/experiments/beast_fmri_test/images/D.png'></img>	89,71	2750.0	test	<img class = center src='/static/experiments/beast_fmri_test/images/redD.png'></img>	stop	1500.0	3.0	24.0	stop	non-target	D	89,Yellow Button	71,Green Button	900.0	1250.0	1850.0	1500.0	0.0	1250.0	0.0	1.0	ITI
119031	500	n/a	-1	-1	500	0.0	fixation	poldrack-single-stim	443	1118761	0.0-19.25-0.25	beast_fmri_test	269	1118731,/	t	<div class = centerbox><div class = fixation>+</div></div>	none	500.0	test	n/a	n/a	n/a	n/a	n/a	n/a	n/a	n/a	n/a	n/a	n/a	n/a	n/a	n/a	n/a	n/a	n/a	n/a	fixation
117946.3797830001	900.0	n/a	-1	-1	2750	1086.620217	stim	stop-signal	444	1121513	0.0-19.25-1.25	beast_fmri_test	269	1119411,/,1120091,/,1120770,/,1121450,/,1122131,/	t,t,t,t,t	<img class = center src='/static/experiments/beast_fmri_test/images/V.png'></img>	89,71	2750.0	test	<img class = center src='/static/experiments/beast_fmri_test/images/redV.png'></img>	stop	1850.0	3.0	25.0	stop	target	V	89,Yellow Button	71,Green Button	900.0	1200.0	1850.0	1500.0	0.0	900.0	1.0	0.0	go_stim
119796.3797830001	1850.0	n/a	-1	-1	2750	1086.620217	stim	stop-signal	444	1121513	0.0-19.25-1.25	beast_fmri_test	269	1119411,/,1120091,/,1120770,/,1121450,/,1122131,/	t,t,t,t,t	<img class = center src='/static/experiments/beast_fmri_test/images/V.png'></img>	89,71	2750.0	test	<img class = center src='/static/experiments/beast_fmri_test/images/redV.png'></img>	stop	1850.0	3.0	25.0	stop	target	V	89,Yellow Button	71,Green Button	900.0	1200.0	1850.0	1500.0	0.0	900.0	1.0	0.0	stop_stim
120696.3797830001	1086.6202169999999	n/a	-1	-1	2750	1086.620217	stim	stop-signal	444	1121513	0.0-19.25-1.25	beast_fmri_test	269	1119411,/,1120091,/,1120770,/,1121450,/,1122131,/	t,t,t,t,t	<img class = center src='/static/experiments/beast_fmri_test/images/V.png'></img>	89,71	2750.0	test	<img class = center src='/static/experiments/beast_fmri_test/images/redV.png'></img>	stop	1850.0	3.0	25.0	stop	target	V	89,Yellow Button	71,Green Button	900.0	1200.0	1850.0	1500.0	0.0	900.0	1.0	0.0	ITI
123388	500	n/a	-1	-1	500	0.0	fixation	poldrack-single-stim	445	1123118	0.0-19.26-0.26	beast_fmri_test	269	1122810,/	t	<div class = centerbox><div class = fixation>+</div></div>	none	500.0	test	n/a	n/a	n/a	n/a	n/a	n/a	n/a	n/a	n/a	n/a	n/a	n/a	n/a	n/a	n/a	n/a	n/a	n/a	fixation
122959.13691090001	1200.0	n/a	1157	71	2750	429.8630891	stim	stop-signal	446	1125869	0.0-19.26-1.26	beast_fmri_test	269	1123490,/,1124170,/,1124850,/,1125530,/,1126210,/	t,t,t,t,t	<img class = center src='/static/experiments/beast_fmri_test/images/P.png'></img>	89,71	2750.0	test	<img class = center src='/static/experiments/beast_fmri_test/images/redP.png'></img>	stop	1550.0	3.0	26.0	stop	non-target	P	89,Yellow Button	71,Green Button	950.0	1200.0	1850.0	1550.0	0.0	1200.0	0.0	1.0	go_stim
124509.13691090001	1550.0	n/a	1157	71	2750	429.8630891	stim	stop-signal	446	1125869	0.0-19.26-1.26	beast_fmri_test	269	1123490,/,1124170,/,1124850,/,1125530,/,1126210,/	t,t,t,t,t	<img class = center src='/static/experiments/beast_fmri_test/images/P.png'></img>	89,71	2750.0	test	<img class = center src='/static/experiments/beast_fmri_test/images/redP.png'></img>	stop	1550.0	3.0	26.0	stop	non-target	P	89,Yellow Button	71,Green Button	950.0	1200.0	1850.0	1550.0	0.0	1200.0	0.0	1.0	stop_stim
125709.13691090001	429.86308909999997	n/a	1157	71	2750	429.8630891	stim	stop-signal	446	1125869	0.0-19.26-1.26	beast_fmri_test	269	1123490,/,1124170,/,1124850,/,1125530,/,1126210,/	t,t,t,t,t	<img class = center src='/static/experiments/beast_fmri_test/images/P.png'></img>	89,71	2750.0	test	<img class = center src='/static/experiments/beast_fmri_test/images/redP.png'></img>	stop	1550.0	3.0	26.0	stop	non-target	P	89,Yellow Button	71,Green Button	950.0	1200.0	1850.0	1550.0	0.0	1200.0	0.0	1.0	ITI
127084	500	n/a	-1	-1	500	0.0	fixation	poldrack-single-stim	447	1126814	0.0-19.27-0.27	beast_fmri_test	269	n/a	n/a	<div class = centerbox><div class = fixation>+</div></div>	none	500.0	test	n/a	n/a	n/a	n/a	n/a	n/a	n/a	n/a	n/a	n/a	n/a	n/a	n/a	n/a	n/a	n/a	n/a	n/a	fixation
123383.18165199994	2750	n/a	1544	89	2750	3702.818348	stim	stop-signal	448	1129566	0.0-19.27-1.27	beast_fmri_test	269	1126891,/,1127570,/,1128250,/,1128930,/,1129611,/,1130290,/,1130970,/,1131650,/,1132330,/,1133010,/	t,t,t,t,t,t,t,t,t,t	<img class = center src='/static/experiments/beast_fmri_test/images/D.png'></img>	89,71	2750.0	test	<img class = center src='/static/experiments/beast_fmri_test/images/redD.png'></img>	go	1800.0	3.0	27.0	go	target	D	89,Yellow Button	71,Green Button	950.0	1150.0	1800.0	1550.0	1.0	950.0	n/a	1.0	go_stim
126133.18165199994	3702.8183479999998	n/a	1544	89	2750	3702.818348	stim	stop-signal	448	1129566	0.0-19.27-1.27	beast_fmri_test	269	1126891,/,1127570,/,1128250,/,1128930,/,1129611,/,1130290,/,1130970,/,1131650,/,1132330,/,1133010,/	t,t,t,t,t,t,t,t,t,t	<img class = center src='/static/experiments/beast_fmri_test/images/D.png'></img>	89,71	2750.0	test	<img class = center src='/static/experiments/beast_fmri_test/images/redD.png'></img>	go	1800.0	3.0	27.0	go	target	D	89,Yellow Button	71,Green Button	950.0	1150.0	1800.0	1550.0	1.0	950.0	n/a	1.0	ITI
134059	500	n/a	-1	-1	500	0.0	fixation	poldrack-single-stim	449	1133789	0.0-19.28-0.28	beast_fmri_test	269	1133690,/	t	<div class = centerbox><div class = fixation>+</div></div>	none	500.0	test	n/a	n/a	n/a	n/a	n/a	n/a	n/a	n/a	n/a	n/a	n/a	n/a	n/a	n/a	n/a	n/a	n/a	n/a	fixation
133928.71604799991	2750	n/a	1152	71	2750	132.283952	stim	stop-signal	450	1136541	0.0-19.28-1.28	beast_fmri_test	269	1134370,/,1135050,/,1135730,/,1136410,/	t,t,t,t	<img class = center src='/static/experiments/beast_fmri_test/images/T.png'></img>	89,71	2750.0	test	<img class = center src='/static/experiments/beast_fmri_test/images/redT.png'></img>	go	1600.0	3.0	28.0	go	non-target	T	89,Yellow Button	71,Green Button	950.0	1150.0	1800.0	1600.0	1.0	1150.0	n/a	1.0	go_stim
136678.71604799991	132.283952	n/a	1152	71	2750	132.283952	stim	stop-signal	450	1136541	0.0-19.28-1.28	beast_fmri_test	269	1134370,/,1135050,/,1135730,/,1136410,/	t,t,t,t	<img class = center src='/static/experiments/beast_fmri_test/images/T.png'></img>	89,71	2750.0	test	<img class = center src='/static/experiments/beast_fmri_test/images/redT.png'></img>	go	1600.0	3.0	28.0	go	non-target	T	89,Yellow Button	71,Green Button	950.0	1150.0	1800.0	1600.0	1.0	1150.0	n/a	1.0	ITI
137458	500	n/a	-1	-1	500	0.0	fixation	poldrack-single-stim	451	1137188	0.0-19.29-0.29	beast_fmri_test	269	1137090,/	t	<div class = centerbox><div class = fixation>+</div></div>	none	500.0	test	n/a	n/a	n/a	n/a	n/a	n/a	n/a	n/a	n/a	n/a	n/a	n/a	n/a	n/a	n/a	n/a	n/a	n/a	fixation
136084.35859400011	2750	n/a	2221	71	2750	1374.641406	stim	stop-signal	452	1139939	0.0-19.29-1.29	beast_fmri_test	269	1137770,/,1138450,/,1139130,/,1139810,/,1140490,/,1141170,/	t,t,t,t,t,t	<img class = center src='/static/experiments/beast_fmri_test/images/P.png'></img>	89,71	2750.0	test	<img class = center src='/static/experiments/beast_fmri_test/images/redP.png'></img>	go	1800.0	3.0	29.0	go	target	P	89,Yellow Button	71,Green Button	950.0	1150.0	1800.0	1600.0	0.0	950.0	n/a	0.0	go_stim
138834.35859400011	1374.641406	n/a	2221	71	2750	1374.641406	stim	stop-signal	452	1139939	0.0-19.29-1.29	beast_fmri_test	269	1137770,/,1138450,/,1139130,/,1139810,/,1140490,/,1141170,/	t,t,t,t,t,t	<img class = center src='/static/experiments/beast_fmri_test/images/P.png'></img>	89,71	2750.0	test	<img class = center src='/static/experiments/beast_fmri_test/images/redP.png'></img>	go	1800.0	3.0	29.0	go	target	P	89,Yellow Button	71,Green Button	950.0	1150.0	1800.0	1600.0	0.0	950.0	n/a	0.0	ITI
142102	500	n/a	-1	-1	500	0.0	fixation	poldrack-single-stim	453	1141832	0.0-19.30-0.30	beast_fmri_test	269	n/a	n/a	<div class = centerbox><div class = fixation>+</div></div>	none	500.0	test	n/a	n/a	n/a	n/a	n/a	n/a	n/a	n/a	n/a	n/a	n/a	n/a	n/a	n/a	n/a	n/a	n/a	n/a	fixation
141914.36474659992	2750	n/a	1918	89	2750	188.6352534	stim	stop-signal	454	1144583	0.0-19.30-1.30	beast_fmri_test	269	1141850,/,1142530,/,1143210,/,1143890,/,1144570,/	t,t,t,t,t	<img class = center src='/static/experiments/beast_fmri_test/images/V.png'></img>	89,71	2750.0	test	<img class = center src='/static/experiments/beast_fmri_test/images/redV.png'></img>	go	1600.0	3.0	30.0	go	non-target	V	89,Yellow Button	71,Green Button	950.0	1150.0	1800.0	1600.0	0.0	1150.0	n/a	0.0	go_stim
144664.36474659992	188.63525340000001	n/a	1918	89	2750	188.6352534	stim	stop-signal	454	1144583	0.0-19.30-1.30	beast_fmri_test	269	1141850,/,1142530,/,1143210,/,1143890,/,1144570,/	t,t,t,t,t	<img class = center src='/static/experiments/beast_fmri_test/images/V.png'></img>	89,71	2750.0	test	<img class = center src='/static/experiments/beast_fmri_test/images/redV.png'></img>	go	1600.0	3.0	30.0	go	non-target	V	89,Yellow Button	71,Green Button	950.0	1150.0	1800.0	1600.0	0.0	1150.0	n/a	0.0	ITI
145559	500	n/a	-1	-1	500	0.0	fixation	poldrack-single-stim	455	1145289	0.0-19.31-0.31	beast_fmri_test	269	1145250,/	t	<div class = centerbox><div class = fixation>+</div></div>	none	500.0	test	n/a	n/a	n/a	n/a	n/a	n/a	n/a	n/a	n/a	n/a	n/a	n/a	n/a	n/a	n/a	n/a	n/a	n/a	fixation
145143.52780520008	2750	n/a	-1	-1	2750	417.4721948	stim	stop-signal	456	1148041	0.0-19.31-1.31	beast_fmri_test	269	1145930,/,1146610,/,1147290,/,1147969,/	t,t,t,t	<img class = center src='/static/experiments/beast_fmri_test/images/T.png'></img>	89,71	2750.0	test	<img class = center src='/static/experiments/beast_fmri_test/images/redT.png'></img>	go	1800.0	3.0	31.0	go	target	T	89,Yellow Button	71,Green Button	950.0	1150.0	1800.0	1600.0	0.0	950.0	n/a	0.0	go_stim
147893.52780520008	417.47219480000001	n/a	-1	-1	2750	417.4721948	stim	stop-signal	456	1148041	0.0-19.31-1.31	beast_fmri_test	269	1145930,/,1146610,/,1147290,/,1147969,/	t,t,t,t	<img class = center src='/static/experiments/beast_fmri_test/images/T.png'></img>	89,71	2750.0	test	<img class = center src='/static/experiments/beast_fmri_test/images/redT.png'></img>	go	1800.0	3.0	31.0	go	target	T	89,Yellow Button	71,Green Button	950.0	1150.0	1800.0	1600.0	0.0	950.0	n/a	0.0	ITI
149249	500	n/a	-1	-1	500	0.0	fixation	poldrack-single-stim	457	1148979	0.0-19.32-0.32	beast_fmri_test	269	1148649,/	t	<div class = centerbox><div class = fixation>+</div></div>	none	500.0	test	n/a	n/a	n/a	n/a	n/a	n/a	n/a	n/a	n/a	n/a	n/a	n/a	n/a	n/a	n/a	n/a	n/a	n/a	fixation
148780.67362949997	2750	n/a	2142	71	2750	470.3263705	stim	stop-signal	458	1151731	0.0-19.32-1.32	beast_fmri_test	269	1149329,/,1150010,/,1150691,/,1151371,/,1152050,/	t,t,t,t,t	<img class = center src='/static/experiments/beast_fmri_test/images/D.png'></img>	89,71	2750.0	test	<img class = center src='/static/experiments/beast_fmri_test/images/redD.png'></img>	go	1600.0	3.0	32.0	go	non-target	D	89,Yellow Button	71,Green Button	950.0	1150.0	1800.0	1600.0	1.0	1150.0	n/a	1.0	go_stim
151530.67362949997	470.3263705	n/a	2142	71	2750	470.3263705	stim	stop-signal	458	1151731	0.0-19.32-1.32	beast_fmri_test	269	1149329,/,1150010,/,1150691,/,1151371,/,1152050,/	t,t,t,t,t	<img class = center src='/static/experiments/beast_fmri_test/images/D.png'></img>	89,71	2750.0	test	<img class = center src='/static/experiments/beast_fmri_test/images/redD.png'></img>	go	1600.0	3.0	32.0	go	non-target	D	89,Yellow Button	71,Green Button	950.0	1150.0	1800.0	1600.0	1.0	1150.0	n/a	1.0	ITI
152990	500	n/a	-1	-1	500	0.0	fixation	poldrack-single-stim	459	1152720	0.0-19.33-0.33	beast_fmri_test	269	n/a	n/a	<div class = centerbox><div class = fixation>+</div></div>	none	500.0	test	n/a	n/a	n/a	n/a	n/a	n/a	n/a	n/a	n/a	n/a	n/a	n/a	n/a	n/a	n/a	n/a	n/a	n/a	fixation
152536.18137479993	2750	n/a	1410	71	2750	454.8186252	stim	stop-signal	460	1155471	0.0-19.33-1.33	beast_fmri_test	269	1152730,/,1153411,/,1154090,/,1154770,/,1155450,/	t,t,t,t,t	<img class = center src='/static/experiments/beast_fmri_test/images/D.png'></img>	89,71	2750.0	test	<img class = center src='/static/experiments/beast_fmri_test/images/redD.png'></img>	go	1600.0	3.0	33.0	go	non-target	D	89,Yellow Button	71,Green Button	950.0	1150.0	1800.0	1600.0	1.0	1150.0	n/a	1.0	go_stim
155286.18137479993	454.81862520000004	n/a	1410	71	2750	454.8186252	stim	stop-signal	460	1155471	0.0-19.33-1.33	beast_fmri_test	269	1152730,/,1153411,/,1154090,/,1154770,/,1155450,/	t,t,t,t,t	<img class = center src='/static/experiments/beast_fmri_test/images/D.png'></img>	89,71	2750.0	test	<img class = center src='/static/experiments/beast_fmri_test/images/redD.png'></img>	go	1600.0	3.0	33.0	go	non-target	D	89,Yellow Button	71,Green Button	950.0	1150.0	1800.0	1600.0	1.0	1150.0	n/a	1.0	ITI
156714	500	n/a	-1	-1	500	0.0	fixation	poldrack-single-stim	461	1156444	0.0-19.34-0.34	beast_fmri_test	269	1156131,/	t	<div class = centerbox><div class = fixation>+</div></div>	none	500.0	test	n/a	n/a	n/a	n/a	n/a	n/a	n/a	n/a	n/a	n/a	n/a	n/a	n/a	n/a	n/a	n/a	n/a	n/a	fixation
156270.96697769989	2750	n/a	2049	71	2750	445.0330223	stim	stop-signal	462	1159196	0.0-19.34-1.34	beast_fmri_test	269	1156810,/,1157491,/,1158171,/,1158850,/,1159530,/	t,t,t,t,t	<img class = center src='/static/experiments/beast_fmri_test/images/D.png'></img>	89,71	2750.0	test	<img class = center src='/static/experiments/beast_fmri_test/images/redD.png'></img>	go	1600.0	3.0	34.0	go	non-target	D	89,Yellow Button	71,Green Button	950.0	1150.0	1800.0	1600.0	1.0	1150.0	n/a	1.0	go_stim
159020.96697769989	445.03302230000003	n/a	2049	71	2750	445.0330223	stim	stop-signal	462	1159196	0.0-19.34-1.34	beast_fmri_test	269	1156810,/,1157491,/,1158171,/,1158850,/,1159530,/	t,t,t,t,t	<img class = center src='/static/experiments/beast_fmri_test/images/D.png'></img>	89,71	2750.0	test	<img class = center src='/static/experiments/beast_fmri_test/images/redD.png'></img>	go	1600.0	3.0	34.0	go	non-target	D	89,Yellow Button	71,Green Button	950.0	1150.0	1800.0	1600.0	1.0	1150.0	n/a	1.0	ITI
160435	500	n/a	-1	-1	500	0.0	fixation	poldrack-single-stim	463	1160165	0.0-19.35-0.35	beast_fmri_test	269	n/a	n/a	<div class = centerbox><div class = fixation>+</div></div>	none	500.0	test	n/a	n/a	n/a	n/a	n/a	n/a	n/a	n/a	n/a	n/a	n/a	n/a	n/a	n/a	n/a	n/a	n/a	n/a	fixation
155437.0	2750	n/a	1450	71	2750	5000.0	stim	stop-signal	464	1162917	0.0-19.35-1.35	beast_fmri_test	269	1160211,/,1160890,/,1161570,/,1162250,/,1162930,/,1163610,/,1164290,/,1164970,/,1165650,/,1166330,/,1167010,/,1167690,/	t,t,t,t,t,t,t,t,t,t,t,t	<img class = center src='/static/experiments/beast_fmri_test/images/P.png'></img>	89,71	2750.0	test	<img class = center src='/static/experiments/beast_fmri_test/images/redP.png'></img>	go	1600.0	3.0	35.0	go	non-target	P	89,Yellow Button	71,Green Button	950.0	1150.0	1800.0	1600.0	1.0	1150.0	n/a	1.0	go_stim
158187.0	5000.0	n/a	1450	71	2750	5000.0	stim	stop-signal	464	1162917	0.0-19.35-1.35	beast_fmri_test	269	1160211,/,1160890,/,1161570,/,1162250,/,1162930,/,1163610,/,1164290,/,1164970,/,1165650,/,1166330,/,1167010,/,1167690,/	t,t,t,t,t,t,t,t,t,t,t,t	<img class = center src='/static/experiments/beast_fmri_test/images/P.png'></img>	89,71	2750.0	test	<img class = center src='/static/experiments/beast_fmri_test/images/redP.png'></img>	go	1600.0	3.0	35.0	go	non-target	P	89,Yellow Button	71,Green Button	950.0	1150.0	1800.0	1600.0	1.0	1150.0	n/a	1.0	ITI
168703	500	n/a	-1	-1	500	0.0	fixation	poldrack-single-stim	465	1168433	0.0-19.36-0.36	beast_fmri_test	269	1168370,/	t	<div class = centerbox><div class = fixation>+</div></div>	none	500.0	test	n/a	n/a	n/a	n/a	n/a	n/a	n/a	n/a	n/a	n/a	n/a	n/a	n/a	n/a	n/a	n/a	n/a	n/a	fixation
168619.5229517899	2750	n/a	1162	71	2750	85.47704821	stim	stop-signal	466	1171185	0.0-19.36-1.36	beast_fmri_test	269	1169050,/,1169730,/,1170411,/,1171090,/	t,t,t,t	<img class = center src='/static/experiments/beast_fmri_test/images/V.png'></img>	89,71	2750.0	test	<img class = center src='/static/experiments/beast_fmri_test/images/redV.png'></img>	go	1600.0	3.0	36.0	go	non-target	V	89,Yellow Button	71,Green Button	950.0	1150.0	1800.0	1600.0	1.0	1150.0	n/a	1.0	go_stim
171369.5229517899	85.477048210000007	n/a	1162	71	2750	85.47704821	stim	stop-signal	466	1171185	0.0-19.36-1.36	beast_fmri_test	269	1169050,/,1169730,/,1170411,/,1171090,/	t,t,t,t	<img class = center src='/static/experiments/beast_fmri_test/images/V.png'></img>	89,71	2750.0	test	<img class = center src='/static/experiments/beast_fmri_test/images/redV.png'></img>	go	1600.0	3.0	36.0	go	non-target	V	89,Yellow Button	71,Green Button	950.0	1150.0	1800.0	1600.0	1.0	1150.0	n/a	1.0	ITI
172059	500	n/a	-1	-1	500	0.0	fixation	poldrack-single-stim	467	1171789	0.0-19.37-0.37	beast_fmri_test	269	1171770,/	t	<div class = centerbox><div class = fixation>+</div></div>	none	500.0	test	n/a	n/a	n/a	n/a	n/a	n/a	n/a	n/a	n/a	n/a	n/a	n/a	n/a	n/a	n/a	n/a	n/a	n/a	fixation
170601.98348199995	2750	n/a	1779	71	2750	1459.016518	stim	stop-signal	468	1174541	0.0-19.37-1.37	beast_fmri_test	269	1172450,/,1173130,/,1173810,/,1174490,/,1175170,/,1175850,/	t,t,t,t,t,t	<img class = center src='/static/experiments/beast_fmri_test/images/B.png'></img>	89,71	2750.0	test	<img class = center src='/static/experiments/beast_fmri_test/images/redB.png'></img>	go	1600.0	3.0	37.0	go	non-target	B	89,Yellow Button	71,Green Button	950.0	1150.0	1800.0	1600.0	1.0	1150.0	n/a	1.0	go_stim
173351.98348199995	1459.0165179999999	n/a	1779	71	2750	1459.016518	stim	stop-signal	468	1174541	0.0-19.37-1.37	beast_fmri_test	269	1172450,/,1173130,/,1173810,/,1174490,/,1175170,/,1175850,/	t,t,t,t,t,t	<img class = center src='/static/experiments/beast_fmri_test/images/B.png'></img>	89,71	2750.0	test	<img class = center src='/static/experiments/beast_fmri_test/images/redB.png'></img>	go	1600.0	3.0	37.0	go	non-target	B	89,Yellow Button	71,Green Button	950.0	1150.0	1800.0	1600.0	1.0	1150.0	n/a	1.0	ITI
176788	500	n/a	-1	-1	500	0.0	fixation	poldrack-single-stim	469	1176518	0.0-19.38-0.38	beast_fmri_test	269	n/a	n/a	<div class = centerbox><div class = fixation>+</div></div>	none	500.0	test	n/a	n/a	n/a	n/a	n/a	n/a	n/a	n/a	n/a	n/a	n/a	n/a	n/a	n/a	n/a	n/a	n/a	n/a	fixation
175216.29411999998	1150.0	n/a	1521	89	2750	1572.70588	stim	stop-signal	470	1179269	0.0-19.38-1.38	beast_fmri_test	269	1176529,/,1177210,/,1177890,/,1178570,/,1179250,/,1179929,/,1180610,/	t,t,t,t,t,t,t	<img class = center src='/static/experiments/beast_fmri_test/images/T.png'></img>	89,71	2750.0	test	<img class = center src='/static/experiments/beast_fmri_test/images/redT.png'></img>	stop	1600.0	3.0	38.0	stop	non-target	T	89,Yellow Button	71,Green Button	950.0	1150.0	1800.0	1600.0	0.0	1150.0	0.0	0.0	go_stim
176816.29411999998	1600.0	n/a	1521	89	2750	1572.70588	stim	stop-signal	470	1179269	0.0-19.38-1.38	beast_fmri_test	269	1176529,/,1177210,/,1177890,/,1178570,/,1179250,/,1179929,/,1180610,/	t,t,t,t,t,t,t	<img class = center src='/static/experiments/beast_fmri_test/images/T.png'></img>	89,71	2750.0	test	<img class = center src='/static/experiments/beast_fmri_test/images/redT.png'></img>	stop	1600.0	3.0	38.0	stop	non-target	T	89,Yellow Button	71,Green Button	950.0	1150.0	1800.0	1600.0	0.0	1150.0	0.0	0.0	stop_stim
177966.29411999998	1572.70588	n/a	1521	89	2750	1572.70588	stim	stop-signal	470	1179269	0.0-19.38-1.38	beast_fmri_test	269	1176529,/,1177210,/,1177890,/,1178570,/,1179250,/,1179929,/,1180610,/	t,t,t,t,t,t,t	<img class = center src='/static/experiments/beast_fmri_test/images/T.png'></img>	89,71	2750.0	test	<img class = center src='/static/experiments/beast_fmri_test/images/redT.png'></img>	stop	1600.0	3.0	38.0	stop	non-target	T	89,Yellow Button	71,Green Button	950.0	1150.0	1800.0	1600.0	0.0	1150.0	0.0	0.0	ITI
181630	500	n/a	-1	-1	500	0.0	fixation	poldrack-single-stim	471	1181360	0.0-19.39-0.39	beast_fmri_test	269	1181290,/	t	<div class = centerbox><div class = fixation>+</div></div>	none	500.0	test	n/a	n/a	n/a	n/a	n/a	n/a	n/a	n/a	n/a	n/a	n/a	n/a	n/a	n/a	n/a	n/a	n/a	n/a	fixation
181502.48538489989	2750	n/a	1434	89	2750	129.5146151	stim	stop-signal	472	1184112	0.0-19.39-1.39	beast_fmri_test	269	1181970,/,1182650,/,1183329,/,1184009,/	t,t,t,t	<img class = center src='/static/experiments/beast_fmri_test/images/V.png'></img>	89,71	2750.0	test	<img class = center src='/static/experiments/beast_fmri_test/images/redV.png'></img>	go	1800.0	3.0	39.0	go	target	V	89,Yellow Button	71,Green Button	950.0	1100.0	1800.0	1600.0	1.0	950.0	n/a	1.0	go_stim
184252.48538489989	129.51461509999999	n/a	1434	89	2750	129.5146151	stim	stop-signal	472	1184112	0.0-19.39-1.39	beast_fmri_test	269	1181970,/,1182650,/,1183329,/,1184009,/	t,t,t,t	<img class = center src='/static/experiments/beast_fmri_test/images/V.png'></img>	89,71	2750.0	test	<img class = center src='/static/experiments/beast_fmri_test/images/redV.png'></img>	go	1800.0	3.0	39.0	go	target	V	89,Yellow Button	71,Green Button	950.0	1100.0	1800.0	1600.0	1.0	950.0	n/a	1.0	ITI
185030	500	n/a	-1	-1	500	0.0	fixation	poldrack-single-stim	473	1184760	0.0-19.40-0.40	beast_fmri_test	269	1184689,/	t	<div class = centerbox><div class = fixation>+</div></div>	none	500.0	test	n/a	n/a	n/a	n/a	n/a	n/a	n/a	n/a	n/a	n/a	n/a	n/a	n/a	n/a	n/a	n/a	n/a	n/a	fixation
184788.32821079995	950.0	n/a	-1	-1	2750	243.6717892	stim	stop-signal	474	1187512	0.0-19.40-1.40	beast_fmri_test	269	1185371,/,1186051,/,1186730,/,1187410,/	t,t,t,t	<img class = center src='/static/experiments/beast_fmri_test/images/B.png'></img>	89,71	2750.0	test	<img class = center src='/static/experiments/beast_fmri_test/images/redB.png'></img>	stop	1800.0	3.0	40.0	stop	target	B	89,Yellow Button	71,Green Button	950.0	1100.0	1800.0	1600.0	0.0	950.0	1.0	0.0	go_stim
186588.32821079995	1800.0	n/a	-1	-1	2750	243.6717892	stim	stop-signal	474	1187512	0.0-19.40-1.40	beast_fmri_test	269	1185371,/,1186051,/,1186730,/,1187410,/	t,t,t,t	<img class = center src='/static/experiments/beast_fmri_test/images/B.png'></img>	89,71	2750.0	test	<img class = center src='/static/experiments/beast_fmri_test/images/redB.png'></img>	stop	1800.0	3.0	40.0	stop	target	B	89,Yellow Button	71,Green Button	950.0	1100.0	1800.0	1600.0	0.0	950.0	1.0	0.0	stop_stim
187538.32821079995	243.67178920000001	n/a	-1	-1	2750	243.6717892	stim	stop-signal	474	1187512	0.0-19.40-1.40	beast_fmri_test	269	1185371,/,1186051,/,1186730,/,1187410,/	t,t,t,t	<img class = center src='/static/experiments/beast_fmri_test/images/B.png'></img>	89,71	2750.0	test	<img class = center src='/static/experiments/beast_fmri_test/images/redB.png'></img>	stop	1800.0	3.0	40.0	stop	target	B	89,Yellow Button	71,Green Button	950.0	1100.0	1800.0	1600.0	0.0	950.0	1.0	0.0	ITI
188544	500	n/a	-1	-1	500	0.0	fixation	poldrack-single-stim	475	1188274	0.0-19.41-0.41	beast_fmri_test	269	1188090,/	t	<div class = centerbox><div class = fixation>+</div></div>	none	500.0	test	n/a	n/a	n/a	n/a	n/a	n/a	n/a	n/a	n/a	n/a	n/a	n/a	n/a	n/a	n/a	n/a	n/a	n/a	fixation
188476.43016127008	2750	n/a	1511	71	2750	69.56983873	stim	stop-signal	476	1191026	0.0-19.41-1.41	beast_fmri_test	269	1188770,/,1189451,/,1190130,/,1190811,/	t,t,t,t	<img class = center src='/static/experiments/beast_fmri_test/images/D.png'></img>	89,71	2750.0	test	<img class = center src='/static/experiments/beast_fmri_test/images/redD.png'></img>	go	1650.0	3.0	41.0	go	non-target	D	89,Yellow Button	71,Green Button	1000.0	1100.0	1800.0	1650.0	1.0	1100.0	n/a	1.0	go_stim
191226.43016127008	69.569838730000001	n/a	1511	71	2750	69.56983873	stim	stop-signal	476	1191026	0.0-19.41-1.41	beast_fmri_test	269	1188770,/,1189451,/,1190130,/,1190811,/	t,t,t,t	<img class = center src='/static/experiments/beast_fmri_test/images/D.png'></img>	89,71	2750.0	test	<img class = center src='/static/experiments/beast_fmri_test/images/redD.png'></img>	go	1650.0	3.0	41.0	go	non-target	D	89,Yellow Button	71,Green Button	1000.0	1100.0	1800.0	1650.0	1.0	1100.0	n/a	1.0	ITI
191888	500	n/a	-1	-1	500	0.0	fixation	poldrack-single-stim	477	1191618	0.0-19.42-0.42	beast_fmri_test	269	1191491,/	t	<div class = centerbox><div class = fixation>+</div></div>	none	500.0	test	n/a	n/a	n/a	n/a	n/a	n/a	n/a	n/a	n/a	n/a	n/a	n/a	n/a	n/a	n/a	n/a	n/a	n/a	fixation
191343.89094229997	1100.0	n/a	-1	-1	2750	545.1090577	stim	stop-signal	478	1194369	0.0-19.42-1.42	beast_fmri_test	269	1192171,/,1192850,/,1193530,/,1194210,/,1194890,/	t,t,t,t,t	<img class = center src='/static/experiments/beast_fmri_test/images/B.png'></img>	89,71	2750.0	test	<img class = center src='/static/experiments/beast_fmri_test/images/redB.png'></img>	stop	1650.0	3.0	42.0	stop	non-target	B	89,Yellow Button	71,Green Button	1000.0	1100.0	1800.0	1650.0	0.0	1100.0	1.0	0.0	go_stim
192993.89094229997	1650.0	n/a	-1	-1	2750	545.1090577	stim	stop-signal	478	1194369	0.0-19.42-1.42	beast_fmri_test	269	1192171,/,1192850,/,1193530,/,1194210,/,1194890,/	t,t,t,t,t	<img class = center src='/static/experiments/beast_fmri_test/images/B.png'></img>	89,71	2750.0	test	<img class = center src='/static/experiments/beast_fmri_test/images/redB.png'></img>	stop	1650.0	3.0	42.0	stop	non-target	B	89,Yellow Button	71,Green Button	1000.0	1100.0	1800.0	1650.0	0.0	1100.0	1.0	0.0	stop_stim
194093.89094229997	545.10905770000011	n/a	-1	-1	2750	545.1090577	stim	stop-signal	478	1194369	0.0-19.42-1.42	beast_fmri_test	269	1192171,/,1192850,/,1193530,/,1194210,/,1194890,/	t,t,t,t,t	<img class = center src='/static/experiments/beast_fmri_test/images/B.png'></img>	89,71	2750.0	test	<img class = center src='/static/experiments/beast_fmri_test/images/redB.png'></img>	stop	1650.0	3.0	42.0	stop	non-target	B	89,Yellow Button	71,Green Button	1000.0	1100.0	1800.0	1650.0	0.0	1100.0	1.0	0.0	ITI
195705	500	n/a	-1	-1	500	0.0	fixation	poldrack-single-stim	479	1195435	0.0-19.43-0.43	beast_fmri_test	269	n/a	n/a	<div class = centerbox><div class = fixation>+</div></div>	none	500.0	test	n/a	n/a	n/a	n/a	n/a	n/a	n/a	n/a	n/a	n/a	n/a	n/a	n/a	n/a	n/a	n/a	n/a	n/a	fixation
195406.30380379991	1000.0	n/a	1182	71	2750	300.6961962	stim	stop-signal	480	1198187	0.0-19.43-1.43	beast_fmri_test	269	1195570,/,1196251,/,1196930,/,1197610,/,1198290,/	t,t,t,t,t	<img class = center src='/static/experiments/beast_fmri_test/images/B.png'></img>	89,71	2750.0	test	<img class = center src='/static/experiments/beast_fmri_test/images/redB.png'></img>	stop	1750.0	3.0	43.0	stop	target	B	89,Yellow Button	71,Green Button	1000.0	1150.0	1750.0	1650.0	0.0	1000.0	0.0	0.0	go_stim
197156.30380379991	1750.0	n/a	1182	71	2750	300.6961962	stim	stop-signal	480	1198187	0.0-19.43-1.43	beast_fmri_test	269	1195570,/,1196251,/,1196930,/,1197610,/,1198290,/	t,t,t,t,t	<img class = center src='/static/experiments/beast_fmri_test/images/B.png'></img>	89,71	2750.0	test	<img class = center src='/static/experiments/beast_fmri_test/images/redB.png'></img>	stop	1750.0	3.0	43.0	stop	target	B	89,Yellow Button	71,Green Button	1000.0	1150.0	1750.0	1650.0	0.0	1000.0	0.0	0.0	stop_stim
198156.30380379991	300.69619619999997	n/a	1182	71	2750	300.6961962	stim	stop-signal	480	1198187	0.0-19.43-1.43	beast_fmri_test	269	1195570,/,1196251,/,1196930,/,1197610,/,1198290,/	t,t,t,t,t	<img class = center src='/static/experiments/beast_fmri_test/images/B.png'></img>	89,71	2750.0	test	<img class = center src='/static/experiments/beast_fmri_test/images/redB.png'></img>	stop	1750.0	3.0	43.0	stop	target	B	89,Yellow Button	71,Green Button	1000.0	1150.0	1750.0	1650.0	0.0	1000.0	0.0	0.0	ITI
199280	500	n/a	-1	-1	500	0.0	fixation	poldrack-single-stim	481	1199010	0.0-19.44-0.44	beast_fmri_test	269	1198970,/	t	<div class = centerbox><div class = fixation>+</div></div>	none	500.0	test	n/a	n/a	n/a	n/a	n/a	n/a	n/a	n/a	n/a	n/a	n/a	n/a	n/a	n/a	n/a	n/a	n/a	n/a	fixation
197865.33576699998	1150.0	n/a	-1	-1	2750	1416.664233	stim	stop-signal	482	1201762	0.0-19.44-1.44	beast_fmri_test	269	1199650,/,1200330,/,1201011,/,1201690,/,1202370,/,1203050,/	t,t,t,t,t,t	<img class = center src='/static/experiments/beast_fmri_test/images/B.png'></img>	89,71	2750.0	test	<img class = center src='/static/experiments/beast_fmri_test/images/redB.png'></img>	stop	1600.0	3.0	44.0	stop	non-target	B	89,Yellow Button	71,Green Button	950.0	1150.0	1750.0	1600.0	0.0	1150.0	1.0	0.0	go_stim
199465.33576699998	1600.0	n/a	-1	-1	2750	1416.664233	stim	stop-signal	482	1201762	0.0-19.44-1.44	beast_fmri_test	269	1199650,/,1200330,/,1201011,/,1201690,/,1202370,/,1203050,/	t,t,t,t,t,t	<img class = center src='/static/experiments/beast_fmri_test/images/B.png'></img>	89,71	2750.0	test	<img class = center src='/static/experiments/beast_fmri_test/images/redB.png'></img>	stop	1600.0	3.0	44.0	stop	non-target	B	89,Yellow Button	71,Green Button	950.0	1150.0	1750.0	1600.0	0.0	1150.0	1.0	0.0	stop_stim
200615.33576699998	1416.664233	n/a	-1	-1	2750	1416.664233	stim	stop-signal	482	1201762	0.0-19.44-1.44	beast_fmri_test	269	1199650,/,1200330,/,1201011,/,1201690,/,1202370,/,1203050,/	t,t,t,t,t,t	<img class = center src='/static/experiments/beast_fmri_test/images/B.png'></img>	89,71	2750.0	test	<img class = center src='/static/experiments/beast_fmri_test/images/redB.png'></img>	stop	1600.0	3.0	44.0	stop	non-target	B	89,Yellow Button	71,Green Button	950.0	1150.0	1750.0	1600.0	0.0	1150.0	1.0	0.0	ITI
203967	500	n/a	-1	-1	500	0.0	fixation	poldrack-single-stim	483	1203697	0.0-19.45-0.45	beast_fmri_test	269	n/a	n/a	<div class = centerbox><div class = fixation>+</div></div>	none	500.0	test	n/a	n/a	n/a	n/a	n/a	n/a	n/a	n/a	n/a	n/a	n/a	n/a	n/a	n/a	n/a	n/a	n/a	n/a	fixation
203056.86522569996	2750	n/a	1142	71	2750	912.1347743	stim	stop-signal	484	1206449	0.0-19.45-1.45	beast_fmri_test	269	1203730,/,1204410,/,1205090,/,1205770,/,1206450,/,1207130,/	t,t,t,t,t,t	<img class = center src='/static/experiments/beast_fmri_test/images/B.png'></img>	89,71	2750.0	test	<img class = center src='/static/experiments/beast_fmri_test/images/redB.png'></img>	go	1800.0	3.0	45.0	go	target	B	89,Yellow Button	71,Green Button	950.0	1200.0	1800.0	1600.0	0.0	950.0	n/a	0.0	go_stim
205806.86522569996	912.13477429999989	n/a	1142	71	2750	912.1347743	stim	stop-signal	484	1206449	0.0-19.45-1.45	beast_fmri_test	269	1203730,/,1204410,/,1205090,/,1205770,/,1206450,/,1207130,/	t,t,t,t,t,t	<img class = center src='/static/experiments/beast_fmri_test/images/B.png'></img>	89,71	2750.0	test	<img class = center src='/static/experiments/beast_fmri_test/images/redB.png'></img>	go	1800.0	3.0	45.0	go	target	B	89,Yellow Button	71,Green Button	950.0	1200.0	1800.0	1600.0	0.0	950.0	n/a	0.0	ITI
208148	500	n/a	-1	-1	500	0.0	fixation	poldrack-single-stim	485	1207878	0.0-19.46-0.46	beast_fmri_test	269	1207810,/	t	<div class = centerbox><div class = fixation>+</div></div>	none	500.0	test	n/a	n/a	n/a	n/a	n/a	n/a	n/a	n/a	n/a	n/a	n/a	n/a	n/a	n/a	n/a	n/a	n/a	n/a	fixation
206019.11845199997	950.0	n/a	862	89	2750	2130.881548	stim	stop-signal	486	1210630	0.0-19.46-1.46	beast_fmri_test	269	1208490,/,1209169,/,1209850,/,1210529,/,1211210,/,1211890,/,1212570,/	t,t,t,t,t,t,t	<img class = center src='/static/experiments/beast_fmri_test/images/B.png'></img>	89,71	2750.0	test	<img class = center src='/static/experiments/beast_fmri_test/images/redB.png'></img>	stop	1800.0	3.0	46.0	stop	target	B	89,Yellow Button	71,Green Button	950.0	1200.0	1800.0	1600.0	0.0	950.0	0.0	1.0	go_stim
207819.11845199997	1800.0	n/a	862	89	2750	2130.881548	stim	stop-signal	486	1210630	0.0-19.46-1.46	beast_fmri_test	269	1208490,/,1209169,/,1209850,/,1210529,/,1211210,/,1211890,/,1212570,/	t,t,t,t,t,t,t	<img class = center src='/static/experiments/beast_fmri_test/images/B.png'></img>	89,71	2750.0	test	<img class = center src='/static/experiments/beast_fmri_test/images/redB.png'></img>	stop	1800.0	3.0	46.0	stop	target	B	89,Yellow Button	71,Green Button	950.0	1200.0	1800.0	1600.0	0.0	950.0	0.0	1.0	stop_stim
208769.11845199997	2130.8815479999998	n/a	862	89	2750	2130.881548	stim	stop-signal	486	1210630	0.0-19.46-1.46	beast_fmri_test	269	1208490,/,1209169,/,1209850,/,1210529,/,1211210,/,1211890,/,1212570,/	t,t,t,t,t,t,t	<img class = center src='/static/experiments/beast_fmri_test/images/B.png'></img>	89,71	2750.0	test	<img class = center src='/static/experiments/beast_fmri_test/images/redB.png'></img>	stop	1800.0	3.0	46.0	stop	target	B	89,Yellow Button	71,Green Button	950.0	1200.0	1800.0	1600.0	0.0	950.0	0.0	1.0	ITI
213549	500	n/a	-1	-1	500	0.0	fixation	poldrack-single-stim	487	1213279	0.0-19.47-0.47	beast_fmri_test	269	1213250,/	t	<div class = centerbox><div class = fixation>+</div></div>	none	500.0	test	n/a	n/a	n/a	n/a	n/a	n/a	n/a	n/a	n/a	n/a	n/a	n/a	n/a	n/a	n/a	n/a	n/a	n/a	fixation
212792.09533190005	900.0	n/a	-1	-1	2750	758.9046681	stim	stop-signal	488	1216031	0.0-19.47-1.47	beast_fmri_test	269	1213930,/,1214610,/,1215290,/,1215970,/,1216650,/	t,t,t,t,t	<img class = center src='/static/experiments/beast_fmri_test/images/B.png'></img>	89,71	2750.0	test	<img class = center src='/static/experiments/beast_fmri_test/images/redB.png'></img>	stop	1850.0	3.0	47.0	stop	target	B	89,Yellow Button	71,Green Button	900.0	1200.0	1850.0	1600.0	0.0	900.0	1.0	0.0	go_stim
214642.09533190005	1850.0	n/a	-1	-1	2750	758.9046681	stim	stop-signal	488	1216031	0.0-19.47-1.47	beast_fmri_test	269	1213930,/,1214610,/,1215290,/,1215970,/,1216650,/	t,t,t,t,t	<img class = center src='/static/experiments/beast_fmri_test/images/B.png'></img>	89,71	2750.0	test	<img class = center src='/static/experiments/beast_fmri_test/images/redB.png'></img>	stop	1850.0	3.0	47.0	stop	target	B	89,Yellow Button	71,Green Button	900.0	1200.0	1850.0	1600.0	0.0	900.0	1.0	0.0	stop_stim
215542.09533190005	758.90466809999998	n/a	-1	-1	2750	758.9046681	stim	stop-signal	488	1216031	0.0-19.47-1.47	beast_fmri_test	269	1213930,/,1214610,/,1215290,/,1215970,/,1216650,/	t,t,t,t,t	<img class = center src='/static/experiments/beast_fmri_test/images/B.png'></img>	89,71	2750.0	test	<img class = center src='/static/experiments/beast_fmri_test/images/redB.png'></img>	stop	1850.0	3.0	47.0	stop	target	B	89,Yellow Button	71,Green Button	900.0	1200.0	1850.0	1600.0	0.0	900.0	1.0	0.0	ITI
232078	15000	n/a	-1	-1	15000	0.0	practice-no-stop-feedback	poldrack-single-stim	489	1231808	0.0-20.0	beast_fmri_test	269	1217330,/,1218011,/,1218690,/,1219371,/,1220050,/,1220730,/,1221411,/,1222090,/,1222771,/,1223450,/,1224130,/,1224810,/,1225490,/,1226170,/,1226850,/,1227530,/,1228210,/,1228890,/,1229570,/,1230250,/,1230930,/,1231611,/	t,t,t,t,t,t,t,t,t,t,t,t,t,t,t,t,t,t,t,t,t,t	"<div class = ""centerbox""><p class = ""center-block-text"">Your delay is 2 trials.</p><p class = center-block-text>Please wait for the scanner to start the block</p></div>"	77	15000.0	n/a	n/a	n/a	n/a	n/a	n/a	n/a	n/a	n/a	n/a	n/a	n/a	n/a	n/a	n/a	n/a	n/a	n/a	n/a	practice-no-stop-feedback
232579	500	n/a	-1	-1	500	0.0	fixation	poldrack-single-stim	490	1232309	0.0-21.0-0.0	beast_fmri_test	269	1232290,/	t	<div class = centerbox><div class = fixation>+</div></div>	none	500.0	test	n/a	n/a	n/a	n/a	n/a	n/a	n/a	n/a	n/a	n/a	n/a	n/a	n/a	n/a	n/a	n/a	n/a	n/a	fixation
232438.3253403001	2750	n/a	1087	71	2750	142.6746597	stim	stop-signal	491	1235061	0.0-21.0-1.0	beast_fmri_test	269	1232970,/,1233650,/,1234330,/,1235010,/	t,t,t,t	<img class = center src='/static/experiments/beast_fmri_test/images/T.png'></img>	89,71	2750.0	test	<img class = center src='/static/experiments/beast_fmri_test/images/redT.png'></img>	go	-1.0	2.0	0.0	go	temp-non-target	T	89,Yellow Button	71,Green Button	950.0	1200.0	1850.0	1600.0	0.0	n/a	n/a	n/a	go_stim
235188.3253403001	142.67465969999998	n/a	1087	71	2750	142.6746597	stim	stop-signal	491	1235061	0.0-21.0-1.0	beast_fmri_test	269	1232970,/,1233650,/,1234330,/,1235010,/	t,t,t,t	<img class = center src='/static/experiments/beast_fmri_test/images/T.png'></img>	89,71	2750.0	test	<img class = center src='/static/experiments/beast_fmri_test/images/redT.png'></img>	go	-1.0	2.0	0.0	go	temp-non-target	T	89,Yellow Button	71,Green Button	950.0	1200.0	1850.0	1600.0	0.0	n/a	n/a	n/a	ITI
235993	500	n/a	-1	-1	500	0.0	fixation	poldrack-single-stim	492	1235723	0.0-21.1-0.1	beast_fmri_test	269	1235690,/	t	<div class = centerbox><div class = fixation>+</div></div>	none	500.0	test	n/a	n/a	n/a	n/a	n/a	n/a	n/a	n/a	n/a	n/a	n/a	n/a	n/a	n/a	n/a	n/a	n/a	n/a	fixation
234701.43925500009	temp_go_duration	n/a	1470	71	2750	1292.560745	stim	stop-signal	493	1238474	0.0-21.1-1.1	beast_fmri_test	269	1236370,/,1237050,/,1237730,/,1238410,/,1239090,/	t,t,t,t,t	<img class = center src='/static/experiments/beast_fmri_test/images/D.png'></img>	89,71	2750.0	test	<img class = center src='/static/experiments/beast_fmri_test/images/redD.png'></img>	stop	-1.0	2.0	1.0	stop	temp-non-target	D	89,Yellow Button	71,Green Button	950.0	1200.0	1850.0	1600.0	0.0	n/a	0.0	n/a	go_stim
temp-non-target	temp_stop_duration	n/a	1470	71	2750	1292.560745	stim	stop-signal	493	1238474	0.0-21.1-1.1	beast_fmri_test	269	1236370,/,1237050,/,1237730,/,1238410,/,1239090,/	t,t,t,t,t	<img class = center src='/static/experiments/beast_fmri_test/images/D.png'></img>	89,71	2750.0	test	<img class = center src='/static/experiments/beast_fmri_test/images/redD.png'></img>	stop	-1.0	2.0	1.0	stop	temp-non-target	D	89,Yellow Button	71,Green Button	950.0	1200.0	1850.0	1600.0	0.0	n/a	0.0	n/a	stop_stim
237451.43925500009	1292.560745	n/a	1470	71	2750	1292.560745	stim	stop-signal	493	1238474	0.0-21.1-1.1	beast_fmri_test	269	1236370,/,1237050,/,1237730,/,1238410,/,1239090,/	t,t,t,t,t	<img class = center src='/static/experiments/beast_fmri_test/images/D.png'></img>	89,71	2750.0	test	<img class = center src='/static/experiments/beast_fmri_test/images/redD.png'></img>	stop	-1.0	2.0	1.0	stop	temp-non-target	D	89,Yellow Button	71,Green Button	950.0	1200.0	1850.0	1600.0	0.0	n/a	0.0	n/a	ITI
240554	500	n/a	-1	-1	500	0.0	fixation	poldrack-single-stim	494	1240284	0.0-21.2-0.2	beast_fmri_test	269	1239783,/	t	<div class = centerbox><div class = fixation>+</div></div>	none	500.0	test	n/a	n/a	n/a	n/a	n/a	n/a	n/a	n/a	n/a	n/a	n/a	n/a	n/a	n/a	n/a	n/a	n/a	n/a	fixation
240376.92237820011	2750	n/a	958	71	2750	178.0776218	stim	stop-signal	495	1243035	0.0-21.2-1.2	beast_fmri_test	269	1240450,/,1241130,/,1241810,/,1242490,/,1243170,/	t,t,t,t,t	<img class = center src='/static/experiments/beast_fmri_test/images/D.png'></img>	89,71	2750.0	test	<img class = center src='/static/experiments/beast_fmri_test/images/redD.png'></img>	go	1550.0	2.0	2.0	go	non-target	D	89,Yellow Button	71,Green Button	950.0	1200.0	1850.0	1550.0	1.0	1200.0	n/a	1.0	go_stim
243126.92237820011	178.0776218	n/a	958	71	2750	178.0776218	stim	stop-signal	495	1243035	0.0-21.2-1.2	beast_fmri_test	269	1240450,/,1241130,/,1241810,/,1242490,/,1243170,/	t,t,t,t,t	<img class = center src='/static/experiments/beast_fmri_test/images/D.png'></img>	89,71	2750.0	test	<img class = center src='/static/experiments/beast_fmri_test/images/redD.png'></img>	go	1550.0	2.0	2.0	go	non-target	D	89,Yellow Button	71,Green Button	950.0	1200.0	1850.0	1550.0	1.0	1200.0	n/a	1.0	ITI
244003	500	n/a	-1	-1	500	0.0	fixation	poldrack-single-stim	496	1243733	0.0-21.3-0.3	beast_fmri_test	269	n/a	n/a	<div class = centerbox><div class = fixation>+</div></div>	none	500.0	test	n/a	n/a	n/a	n/a	n/a	n/a	n/a	n/a	n/a	n/a	n/a	n/a	n/a	n/a	n/a	n/a	n/a	n/a	fixation
243271.55052669998	2750	n/a	927	71	2750	733.4494733	stim	stop-signal	497	1246485	0.0-21.3-1.3	beast_fmri_test	269	1243850,/,1244530,/,1245210,/,1245889,/,1246570,/	t,t,t,t,t	<img class = center src='/static/experiments/beast_fmri_test/images/V.png'></img>	89,71	2750.0	test	<img class = center src='/static/experiments/beast_fmri_test/images/redV.png'></img>	go	1550.0	2.0	3.0	go	non-target	V	89,Yellow Button	71,Green Button	950.0	1200.0	1850.0	1550.0	1.0	1200.0	n/a	1.0	go_stim
246021.55052669998	733.44947329999991	n/a	927	71	2750	733.4494733	stim	stop-signal	497	1246485	0.0-21.3-1.3	beast_fmri_test	269	1243850,/,1244530,/,1245210,/,1245889,/,1246570,/	t,t,t,t,t	<img class = center src='/static/experiments/beast_fmri_test/images/V.png'></img>	89,71	2750.0	test	<img class = center src='/static/experiments/beast_fmri_test/images/redV.png'></img>	go	1550.0	2.0	3.0	go	non-target	V	89,Yellow Button	71,Green Button	950.0	1200.0	1850.0	1550.0	1.0	1200.0	n/a	1.0	ITI
248008	500	n/a	-1	-1	500	0.0	fixation	poldrack-single-stim	498	1247738	0.0-21.4-0.4	beast_fmri_test	269	1247249,/	t	<div class = centerbox><div class = fixation>+</div></div>	none	500.0	test	n/a	n/a	n/a	n/a	n/a	n/a	n/a	n/a	n/a	n/a	n/a	n/a	n/a	n/a	n/a	n/a	n/a	n/a	fixation
247721.49716089992	950.0	n/a	-1	-1	2750	288.5028391	stim	stop-signal	499	1250490	0.0-21.4-1.4	beast_fmri_test	269	1247930,/,1248609,/,1249290,/,1249969,/,1250650,/	t,t,t,t,t	<img class = center src='/static/experiments/beast_fmri_test/images/D.png'></img>	89,71	2750.0	test	<img class = center src='/static/experiments/beast_fmri_test/images/redD.png'></img>	stop	1800.0	2.0	4.0	stop	target	D	89,Yellow Button	71,Green Button	950.0	1200.0	1800.0	1550.0	0.0	950.0	1.0	0.0	go_stim
249521.49716089992	1800.0	n/a	-1	-1	2750	288.5028391	stim	stop-signal	499	1250490	0.0-21.4-1.4	beast_fmri_test	269	1247930,/,1248609,/,1249290,/,1249969,/,1250650,/	t,t,t,t,t	<img class = center src='/static/experiments/beast_fmri_test/images/D.png'></img>	89,71	2750.0	test	<img class = center src='/static/experiments/beast_fmri_test/images/redD.png'></img>	stop	1800.0	2.0	4.0	stop	target	D	89,Yellow Button	71,Green Button	950.0	1200.0	1800.0	1550.0	0.0	950.0	1.0	0.0	stop_stim
250471.49716089992	288.50283910000002	n/a	-1	-1	2750	288.5028391	stim	stop-signal	499	1250490	0.0-21.4-1.4	beast_fmri_test	269	1247930,/,1248609,/,1249290,/,1249969,/,1250650,/	t,t,t,t,t	<img class = center src='/static/experiments/beast_fmri_test/images/D.png'></img>	89,71	2750.0	test	<img class = center src='/static/experiments/beast_fmri_test/images/redD.png'></img>	stop	1800.0	2.0	4.0	stop	target	D	89,Yellow Button	71,Green Button	950.0	1200.0	1800.0	1550.0	0.0	950.0	1.0	0.0	ITI
251567	500	n/a	-1	-1	500	0.0	fixation	poldrack-single-stim	500	1251297	0.0-21.5-0.5	beast_fmri_test	269	n/a	n/a	<div class = centerbox><div class = fixation>+</div></div>	none	500.0	test	n/a	n/a	n/a	n/a	n/a	n/a	n/a	n/a	n/a	n/a	n/a	n/a	n/a	n/a	n/a	n/a	n/a	n/a	fixation
251394.42731299996	2750	n/a	912	71	2750	173.572687	stim	stop-signal	501	1254048	0.0-21.5-1.5	beast_fmri_test	269	1251330,/,1252012,/,1252690,/,1253371,/,1254050,/	t,t,t,t,t	<img class = center src='/static/experiments/beast_fmri_test/images/T.png'></img>	89,71	2750.0	test	<img class = center src='/static/experiments/beast_fmri_test/images/redT.png'></img>	go	1550.0	2.0	5.0	go	non-target	T	89,Yellow Button	71,Green Button	1000.0	1200.0	1800.0	1550.0	1.0	1200.0	n/a	1.0	go_stim
254144.42731299996	173.572687	n/a	912	71	2750	173.572687	stim	stop-signal	501	1254048	0.0-21.5-1.5	beast_fmri_test	269	1251330,/,1252012,/,1252690,/,1253371,/,1254050,/	t,t,t,t,t	<img class = center src='/static/experiments/beast_fmri_test/images/T.png'></img>	89,71	2750.0	test	<img class = center src='/static/experiments/beast_fmri_test/images/redT.png'></img>	go	1550.0	2.0	5.0	go	non-target	T	89,Yellow Button	71,Green Button	1000.0	1200.0	1800.0	1550.0	1.0	1200.0	n/a	1.0	ITI
255009	500	n/a	-1	-1	500	0.0	fixation	poldrack-single-stim	502	1254739	0.0-21.6-0.6	beast_fmri_test	269	1254731,/	t	<div class = centerbox><div class = fixation>+</div></div>	none	500.0	test	n/a	n/a	n/a	n/a	n/a	n/a	n/a	n/a	n/a	n/a	n/a	n/a	n/a	n/a	n/a	n/a	n/a	n/a	fixation
254028.11493890011	2750	n/a	1265	71	2750	982.8850611	stim	stop-signal	503	1257491	0.0-21.6-1.6	beast_fmri_test	269	1255411,/,1256090,/,1256770,/,1257450,/,1258130,/	t,t,t,t,t	<img class = center src='/static/experiments/beast_fmri_test/images/V.png'></img>	89,71	2750.0	test	<img class = center src='/static/experiments/beast_fmri_test/images/redV.png'></img>	go	1550.0	2.0	6.0	go	non-target	V	89,Yellow Button	71,Green Button	1000.0	1200.0	1800.0	1550.0	1.0	1200.0	n/a	1.0	go_stim
256778.11493890011	982.88506109999992	n/a	1265	71	2750	982.8850611	stim	stop-signal	503	1257491	0.0-21.6-1.6	beast_fmri_test	269	1255411,/,1256090,/,1256770,/,1257450,/,1258130,/	t,t,t,t,t	<img class = center src='/static/experiments/beast_fmri_test/images/V.png'></img>	89,71	2750.0	test	<img class = center src='/static/experiments/beast_fmri_test/images/redV.png'></img>	go	1550.0	2.0	6.0	go	non-target	V	89,Yellow Button	71,Green Button	1000.0	1200.0	1800.0	1550.0	1.0	1200.0	n/a	1.0	ITI
259262	500	n/a	-1	-1	500	0.0	fixation	poldrack-single-stim	504	1258992	0.0-21.7-0.7	beast_fmri_test	269	1258811,/	t	<div class = centerbox><div class = fixation>+</div></div>	none	500.0	test	n/a	n/a	n/a	n/a	n/a	n/a	n/a	n/a	n/a	n/a	n/a	n/a	n/a	n/a	n/a	n/a	n/a	n/a	fixation
258799.22441449994	2750	n/a	1101	71	2750	464.7755855	stim	stop-signal	505	1261744	0.0-21.7-1.7	beast_fmri_test	269	1259490,/,1260170,/,1260850,/,1261530,/	t,t,t,t	<img class = center src='/static/experiments/beast_fmri_test/images/D.png'></img>	89,71	2750.0	test	<img class = center src='/static/experiments/beast_fmri_test/images/redD.png'></img>	go	1550.0	2.0	7.0	go	non-target	D	89,Yellow Button	71,Green Button	1000.0	1200.0	1800.0	1550.0	1.0	1200.0	n/a	1.0	go_stim
261549.22441449994	464.77558550000003	n/a	1101	71	2750	464.7755855	stim	stop-signal	505	1261744	0.0-21.7-1.7	beast_fmri_test	269	1259490,/,1260170,/,1260850,/,1261530,/	t,t,t,t	<img class = center src='/static/experiments/beast_fmri_test/images/D.png'></img>	89,71	2750.0	test	<img class = center src='/static/experiments/beast_fmri_test/images/redD.png'></img>	go	1550.0	2.0	7.0	go	non-target	D	89,Yellow Button	71,Green Button	1000.0	1200.0	1800.0	1550.0	1.0	1200.0	n/a	1.0	ITI
262998	500	n/a	-1	-1	500	0.0	fixation	poldrack-single-stim	506	1262728	0.0-21.8-0.8	beast_fmri_test	269	1262228,/	t	<div class = centerbox><div class = fixation>+</div></div>	none	500.0	test	n/a	n/a	n/a	n/a	n/a	n/a	n/a	n/a	n/a	n/a	n/a	n/a	n/a	n/a	n/a	n/a	n/a	n/a	fixation
261689.31460799999	2750	n/a	1499	89	2750	1309.685392	stim	stop-signal	507	1265479	0.0-21.8-1.8	beast_fmri_test	269	1262890,/,1263570,/,1264250,/,1264930,/,1265610,/,1266290,/	t,t,t,t,t,t	<img class = center src='/static/experiments/beast_fmri_test/images/V.png'></img>	89,71	2750.0	test	<img class = center src='/static/experiments/beast_fmri_test/images/redV.png'></img>	go	1750.0	2.0	8.0	go	target	V	89,Yellow Button	71,Green Button	1000.0	1200.0	1750.0	1550.0	1.0	1000.0	n/a	1.0	go_stim
264439.31460799999	1309.6853920000001	n/a	1499	89	2750	1309.685392	stim	stop-signal	507	1265479	0.0-21.8-1.8	beast_fmri_test	269	1262890,/,1263570,/,1264250,/,1264930,/,1265610,/,1266290,/	t,t,t,t,t,t	<img class = center src='/static/experiments/beast_fmri_test/images/V.png'></img>	89,71	2750.0	test	<img class = center src='/static/experiments/beast_fmri_test/images/redV.png'></img>	go	1750.0	2.0	8.0	go	target	V	89,Yellow Button	71,Green Button	1000.0	1200.0	1750.0	1550.0	1.0	1000.0	n/a	1.0	ITI
267577	500	n/a	-1	-1	500	0.0	fixation	poldrack-single-stim	508	1267307	0.0-21.9-0.9	beast_fmri_test	269	1266970,/	t	<div class = centerbox><div class = fixation>+</div></div>	none	500.0	test	n/a	n/a	n/a	n/a	n/a	n/a	n/a	n/a	n/a	n/a	n/a	n/a	n/a	n/a	n/a	n/a	n/a	n/a	fixation
267214.67527480004	2750	n/a	1048	71	2750	363.3247252	stim	stop-signal	509	1270058	0.0-21.9-1.9	beast_fmri_test	269	1267650,/,1268330,/,1269010,/,1269690,/,1270370,/	t,t,t,t,t	<img class = center src='/static/experiments/beast_fmri_test/images/T.png'></img>	89,71	2750.0	test	<img class = center src='/static/experiments/beast_fmri_test/images/redT.png'></img>	go	1550.0	2.0	9.0	go	non-target	T	89,Yellow Button	71,Green Button	1000.0	1200.0	1750.0	1550.0	1.0	1200.0	n/a	1.0	go_stim
269964.67527480004	363.32472519999999	n/a	1048	71	2750	363.3247252	stim	stop-signal	509	1270058	0.0-21.9-1.9	beast_fmri_test	269	1267650,/,1268330,/,1269010,/,1269690,/,1270370,/	t,t,t,t,t	<img class = center src='/static/experiments/beast_fmri_test/images/T.png'></img>	89,71	2750.0	test	<img class = center src='/static/experiments/beast_fmri_test/images/redT.png'></img>	go	1550.0	2.0	9.0	go	non-target	T	89,Yellow Button	71,Green Button	1000.0	1200.0	1750.0	1550.0	1.0	1200.0	n/a	1.0	ITI
271210	500	n/a	-1	-1	500	0.0	fixation	poldrack-single-stim	510	1270940	0.0-21.10-0.10	beast_fmri_test	269	n/a	n/a	<div class = centerbox><div class = fixation>+</div></div>	none	500.0	test	n/a	n/a	n/a	n/a	n/a	n/a	n/a	n/a	n/a	n/a	n/a	n/a	n/a	n/a	n/a	n/a	n/a	n/a	fixation
269051.355277	2750	n/a	1139	71	2750	2159.644723	stim	stop-signal	511	1273691	0.0-21.10-1.10	beast_fmri_test	269	1271050,/,1271730,/,1272410,/,1273090,/,1273770,/,1274450,/,1275130,/,1275810,/	t,t,t,t,t,t,t,t	<img class = center src='/static/experiments/beast_fmri_test/images/P.png'></img>	89,71	2750.0	test	<img class = center src='/static/experiments/beast_fmri_test/images/redP.png'></img>	go	1550.0	2.0	10.0	go	non-target	P	89,Yellow Button	71,Green Button	1000.0	1200.0	1750.0	1550.0	1.0	1200.0	n/a	1.0	go_stim
271801.355277	2159.6447229999999	n/a	1139	71	2750	2159.644723	stim	stop-signal	511	1273691	0.0-21.10-1.10	beast_fmri_test	269	1271050,/,1271730,/,1272410,/,1273090,/,1273770,/,1274450,/,1275130,/,1275810,/	t,t,t,t,t,t,t,t	<img class = center src='/static/experiments/beast_fmri_test/images/P.png'></img>	89,71	2750.0	test	<img class = center src='/static/experiments/beast_fmri_test/images/redP.png'></img>	go	1550.0	2.0	10.0	go	non-target	P	89,Yellow Button	71,Green Button	1000.0	1200.0	1750.0	1550.0	1.0	1200.0	n/a	1.0	ITI
276639	500	n/a	-1	-1	500	0.0	fixation	poldrack-single-stim	512	1276369	0.0-21.11-0.11	beast_fmri_test	269	n/a	n/a	<div class = centerbox><div class = fixation>+</div></div>	none	500.0	test	n/a	n/a	n/a	n/a	n/a	n/a	n/a	n/a	n/a	n/a	n/a	n/a	n/a	n/a	n/a	n/a	n/a	n/a	fixation
275942.18371509993	2750	n/a	1800	71	2750	697.8162849	stim	stop-signal	513	1279120	0.0-21.11-1.11	beast_fmri_test	269	1276490,/,1277170,/,1277850,/,1278530,/,1279209,/	t,t,t,t,t	<img class = center src='/static/experiments/beast_fmri_test/images/V.png'></img>	89,71	2750.0	test	<img class = center src='/static/experiments/beast_fmri_test/images/redV.png'></img>	go	1550.0	2.0	11.0	go	non-target	V	89,Yellow Button	71,Green Button	1000.0	1200.0	1750.0	1550.0	1.0	1200.0	n/a	1.0	go_stim
278692.18371509993	697.81628489999991	n/a	1800	71	2750	697.8162849	stim	stop-signal	513	1279120	0.0-21.11-1.11	beast_fmri_test	269	1276490,/,1277170,/,1277850,/,1278530,/,1279209,/	t,t,t,t,t	<img class = center src='/static/experiments/beast_fmri_test/images/V.png'></img>	89,71	2750.0	test	<img class = center src='/static/experiments/beast_fmri_test/images/redV.png'></img>	go	1550.0	2.0	11.0	go	non-target	V	89,Yellow Button	71,Green Button	1000.0	1200.0	1750.0	1550.0	1.0	1200.0	n/a	1.0	ITI
280608	500	n/a	-1	-1	500	0.0	fixation	poldrack-single-stim	514	1280338	0.0-21.12-0.12	beast_fmri_test	269	1279890,/	t	<div class = centerbox><div class = fixation>+</div></div>	none	500.0	test	n/a	n/a	n/a	n/a	n/a	n/a	n/a	n/a	n/a	n/a	n/a	n/a	n/a	n/a	n/a	n/a	n/a	n/a	fixation
280408.27570399991	2750	n/a	564	89	2750	201.724296	stim	stop-signal	515	1283090	0.0-21.12-1.12	beast_fmri_test	269	1280570,/,1281249,/,1281929,/,1282611,/,1283289,/	t,t,t,t,t	<img class = center src='/static/experiments/beast_fmri_test/images/P.png'></img>	89,71	2750.0	test	<img class = center src='/static/experiments/beast_fmri_test/images/redP.png'></img>	go	1750.0	2.0	12.0	go	target	P	89,Yellow Button	71,Green Button	1000.0	1200.0	1750.0	1550.0	1.0	1000.0	n/a	1.0	go_stim
283158.27570399991	201.72429600000001	n/a	564	89	2750	201.724296	stim	stop-signal	515	1283090	0.0-21.12-1.12	beast_fmri_test	269	1280570,/,1281249,/,1281929,/,1282611,/,1283289,/	t,t,t,t,t	<img class = center src='/static/experiments/beast_fmri_test/images/P.png'></img>	89,71	2750.0	test	<img class = center src='/static/experiments/beast_fmri_test/images/redP.png'></img>	go	1750.0	2.0	12.0	go	target	P	89,Yellow Button	71,Green Button	1000.0	1200.0	1750.0	1550.0	1.0	1000.0	n/a	1.0	ITI
284083	500	n/a	-1	-1	500	0.0	fixation	poldrack-single-stim	516	1283813	0.0-21.13-0.13	beast_fmri_test	269	n/a	n/a	<div class = centerbox><div class = fixation>+</div></div>	none	500.0	test	n/a	n/a	n/a	n/a	n/a	n/a	n/a	n/a	n/a	n/a	n/a	n/a	n/a	n/a	n/a	n/a	n/a	n/a	fixation
283732.19141700002	1000.0	n/a	1005	89	2750	351.808583	stim	stop-signal	517	1286564	0.0-21.13-1.13	beast_fmri_test	269	1283970,/,1284649,/,1285329,/,1286010,/,1286690,/	t,t,t,t,t	<img class = center src='/static/experiments/beast_fmri_test/images/V.png'></img>	89,71	2750.0	test	<img class = center src='/static/experiments/beast_fmri_test/images/redV.png'></img>	stop	1750.0	2.0	13.0	stop	target	V	89,Yellow Button	71,Green Button	1000.0	1200.0	1750.0	1550.0	0.0	1000.0	0.0	1.0	go_stim
285482.19141700002	1750.0	n/a	1005	89	2750	351.808583	stim	stop-signal	517	1286564	0.0-21.13-1.13	beast_fmri_test	269	1283970,/,1284649,/,1285329,/,1286010,/,1286690,/	t,t,t,t,t	<img class = center src='/static/experiments/beast_fmri_test/images/V.png'></img>	89,71	2750.0	test	<img class = center src='/static/experiments/beast_fmri_test/images/redV.png'></img>	stop	1750.0	2.0	13.0	stop	target	V	89,Yellow Button	71,Green Button	1000.0	1200.0	1750.0	1550.0	0.0	1000.0	0.0	1.0	stop_stim
286482.19141700002	351.808583	n/a	1005	89	2750	351.808583	stim	stop-signal	517	1286564	0.0-21.13-1.13	beast_fmri_test	269	1283970,/,1284649,/,1285329,/,1286010,/,1286690,/	t,t,t,t,t	<img class = center src='/static/experiments/beast_fmri_test/images/V.png'></img>	89,71	2750.0	test	<img class = center src='/static/experiments/beast_fmri_test/images/redV.png'></img>	stop	1750.0	2.0	13.0	stop	target	V	89,Yellow Button	71,Green Button	1000.0	1200.0	1750.0	1550.0	0.0	1000.0	0.0	1.0	ITI
287705	500	n/a	-1	-1	500	0.0	fixation	poldrack-single-stim	518	1287435	0.0-21.14-0.14	beast_fmri_test	269	1287371,/	t	<div class = centerbox><div class = fixation>+</div></div>	none	500.0	test	n/a	n/a	n/a	n/a	n/a	n/a	n/a	n/a	n/a	n/a	n/a	n/a	n/a	n/a	n/a	n/a	n/a	n/a	fixation
287690.69721694011	2750	n/a	1285	89	2750	15.30278306	stim	stop-signal	519	1290186	0.0-21.14-1.14	beast_fmri_test	269	1288050,/,1288730,/,1289410,/,1290090,/	t,t,t,t	<img class = center src='/static/experiments/beast_fmri_test/images/P.png'></img>	89,71	2750.0	test	<img class = center src='/static/experiments/beast_fmri_test/images/redP.png'></img>	go	1800.0	2.0	14.0	go	target	P	89,Yellow Button	71,Green Button	950.0	1200.0	1800.0	1550.0	1.0	950.0	n/a	1.0	go_stim
290440.69721694011	15.302783059999999	n/a	1285	89	2750	15.30278306	stim	stop-signal	519	1290186	0.0-21.14-1.14	beast_fmri_test	269	1288050,/,1288730,/,1289410,/,1290090,/	t,t,t,t	<img class = center src='/static/experiments/beast_fmri_test/images/P.png'></img>	89,71	2750.0	test	<img class = center src='/static/experiments/beast_fmri_test/images/redP.png'></img>	go	1800.0	2.0	14.0	go	target	P	89,Yellow Button	71,Green Button	950.0	1200.0	1800.0	1550.0	1.0	950.0	n/a	1.0	ITI
290989	500	n/a	-1	-1	500	0.0	fixation	poldrack-single-stim	520	1290719	0.0-21.15-0.15	beast_fmri_test	269	n/a	n/a	<div class = centerbox><div class = fixation>+</div></div>	none	500.0	test	n/a	n/a	n/a	n/a	n/a	n/a	n/a	n/a	n/a	n/a	n/a	n/a	n/a	n/a	n/a	n/a	n/a	n/a	fixation
289540.45057599992	2750	n/a	1447	71	2750	1450.549424	stim	stop-signal	521	1293471	0.0-21.15-1.15	beast_fmri_test	269	1290770,/,1291450,/,1292130,/,1292811,/,1293490,/,1294170,/,1294850,/	t,t,t,t,t,t,t	<img class = center src='/static/experiments/beast_fmri_test/images/P.png'></img>	89,71	2750.0	test	<img class = center src='/static/experiments/beast_fmri_test/images/redP.png'></img>	go	1550.0	2.0	15.0	go	non-target	P	89,Yellow Button	71,Green Button	950.0	1200.0	1800.0	1550.0	1.0	1200.0	n/a	1.0	go_stim
292290.45057599992	1450.549424	n/a	1447	71	2750	1450.549424	stim	stop-signal	521	1293471	0.0-21.15-1.15	beast_fmri_test	269	1290770,/,1291450,/,1292130,/,1292811,/,1293490,/,1294170,/,1294850,/	t,t,t,t,t,t,t	<img class = center src='/static/experiments/beast_fmri_test/images/P.png'></img>	89,71	2750.0	test	<img class = center src='/static/experiments/beast_fmri_test/images/redP.png'></img>	go	1550.0	2.0	15.0	go	non-target	P	89,Yellow Button	71,Green Button	950.0	1200.0	1800.0	1550.0	1.0	1200.0	n/a	1.0	ITI
295712	500	n/a	-1	-1	500	0.0	fixation	poldrack-single-stim	522	1295442	0.0-21.16-0.16	beast_fmri_test	269	n/a	n/a	<div class = centerbox><div class = fixation>+</div></div>	none	500.0	test	n/a	n/a	n/a	n/a	n/a	n/a	n/a	n/a	n/a	n/a	n/a	n/a	n/a	n/a	n/a	n/a	n/a	n/a	fixation
293932.33968900004	1200.0	n/a	748	71	2750	1781.660311	stim	stop-signal	523	1298194	0.0-21.16-1.16	beast_fmri_test	269	1295530,/,1296210,/,1296890,/,1297570,/,1298250,/,1298930,/,1299610,/	t,t,t,t,t,t,t	<img class = center src='/static/experiments/beast_fmri_test/images/T.png'></img>	89,71	2750.0	test	<img class = center src='/static/experiments/beast_fmri_test/images/redT.png'></img>	stop	1550.0	2.0	16.0	stop	non-target	T	89,Yellow Button	71,Green Button	950.0	1200.0	1800.0	1550.0	0.0	1200.0	0.0	1.0	go_stim
295482.33968900004	1550.0	n/a	748	71	2750	1781.660311	stim	stop-signal	523	1298194	0.0-21.16-1.16	beast_fmri_test	269	1295530,/,1296210,/,1296890,/,1297570,/,1298250,/,1298930,/,1299610,/	t,t,t,t,t,t,t	<img class = center src='/static/experiments/beast_fmri_test/images/T.png'></img>	89,71	2750.0	test	<img class = center src='/static/experiments/beast_fmri_test/images/redT.png'></img>	stop	1550.0	2.0	16.0	stop	non-target	T	89,Yellow Button	71,Green Button	950.0	1200.0	1800.0	1550.0	0.0	1200.0	0.0	1.0	stop_stim
296682.33968900004	1781.6603109999999	n/a	748	71	2750	1781.660311	stim	stop-signal	523	1298194	0.0-21.16-1.16	beast_fmri_test	269	1295530,/,1296210,/,1296890,/,1297570,/,1298250,/,1298930,/,1299610,/	t,t,t,t,t,t,t	<img class = center src='/static/experiments/beast_fmri_test/images/T.png'></img>	89,71	2750.0	test	<img class = center src='/static/experiments/beast_fmri_test/images/redT.png'></img>	stop	1550.0	2.0	16.0	stop	non-target	T	89,Yellow Button	71,Green Button	950.0	1200.0	1800.0	1550.0	0.0	1200.0	0.0	1.0	ITI
300766	500	n/a	-1	-1	500	0.0	fixation	poldrack-single-stim	524	1300496	0.0-21.17-0.17	beast_fmri_test	269	1300290,/	t	<div class = centerbox><div class = fixation>+</div></div>	none	500.0	test	n/a	n/a	n/a	n/a	n/a	n/a	n/a	n/a	n/a	n/a	n/a	n/a	n/a	n/a	n/a	n/a	n/a	n/a	fixation
299934.35484250006	2750	n/a	2412	71	2750	833.6451575	stim	stop-signal	525	1303248	0.0-21.17-1.17	beast_fmri_test	269	1300970,/,1301650,/,1302330,/,1303010,/,1303690,/	t,t,t,t,t	<img class = center src='/static/experiments/beast_fmri_test/images/D.png'></img>	89,71	2750.0	test	<img class = center src='/static/experiments/beast_fmri_test/images/redD.png'></img>	go	1600.0	2.0	17.0	go	non-target	D	89,Yellow Button	71,Green Button	950.0	1150.0	1800.0	1600.0	1.0	1150.0	n/a	1.0	go_stim
302684.35484250006	833.64515749999998	n/a	2412	71	2750	833.6451575	stim	stop-signal	525	1303248	0.0-21.17-1.17	beast_fmri_test	269	1300970,/,1301650,/,1302330,/,1303010,/,1303690,/	t,t,t,t,t	<img class = center src='/static/experiments/beast_fmri_test/images/D.png'></img>	89,71	2750.0	test	<img class = center src='/static/experiments/beast_fmri_test/images/redD.png'></img>	go	1600.0	2.0	17.0	go	non-target	D	89,Yellow Button	71,Green Button	950.0	1150.0	1800.0	1600.0	1.0	1150.0	n/a	1.0	ITI
304875	500	n/a	-1	-1	500	0.0	fixation	poldrack-single-stim	526	1304605	0.0-21.18-0.18	beast_fmri_test	269	1304370,/	t	<div class = centerbox><div class = fixation>+</div></div>	none	500.0	test	n/a	n/a	n/a	n/a	n/a	n/a	n/a	n/a	n/a	n/a	n/a	n/a	n/a	n/a	n/a	n/a	n/a	n/a	fixation
303493.23295000009	1150.0	n/a	-1	-1	2750	1383.76705	stim	stop-signal	527	1307357	0.0-21.18-1.18	beast_fmri_test	269	1305050,/,1305730,/,1306410,/,1307090,/,1307770,/,1308450,/	t,t,t,t,t,t	<img class = center src='/static/experiments/beast_fmri_test/images/V.png'></img>	89,71	2750.0	test	<img class = center src='/static/experiments/beast_fmri_test/images/redV.png'></img>	stop	1600.0	2.0	18.0	stop	non-target	V	89,Yellow Button	71,Green Button	950.0	1150.0	1800.0	1600.0	0.0	1150.0	1.0	0.0	go_stim
305093.23295000009	1600.0	n/a	-1	-1	2750	1383.76705	stim	stop-signal	527	1307357	0.0-21.18-1.18	beast_fmri_test	269	1305050,/,1305730,/,1306410,/,1307090,/,1307770,/,1308450,/	t,t,t,t,t,t	<img class = center src='/static/experiments/beast_fmri_test/images/V.png'></img>	89,71	2750.0	test	<img class = center src='/static/experiments/beast_fmri_test/images/redV.png'></img>	stop	1600.0	2.0	18.0	stop	non-target	V	89,Yellow Button	71,Green Button	950.0	1150.0	1800.0	1600.0	0.0	1150.0	1.0	0.0	stop_stim
306243.23295000009	1383.7670499999999	n/a	-1	-1	2750	1383.76705	stim	stop-signal	527	1307357	0.0-21.18-1.18	beast_fmri_test	269	1305050,/,1305730,/,1306410,/,1307090,/,1307770,/,1308450,/	t,t,t,t,t,t	<img class = center src='/static/experiments/beast_fmri_test/images/V.png'></img>	89,71	2750.0	test	<img class = center src='/static/experiments/beast_fmri_test/images/redV.png'></img>	stop	1600.0	2.0	18.0	stop	non-target	V	89,Yellow Button	71,Green Button	950.0	1150.0	1800.0	1600.0	0.0	1150.0	1.0	0.0	ITI
309538	500	n/a	-1	-1	500	0.0	fixation	poldrack-single-stim	528	1309268	0.0-21.19-0.19	beast_fmri_test	269	1309131,/	t	<div class = centerbox><div class = fixation>+</div></div>	none	500.0	test	n/a	n/a	n/a	n/a	n/a	n/a	n/a	n/a	n/a	n/a	n/a	n/a	n/a	n/a	n/a	n/a	n/a	n/a	fixation
308857.53381470009	1200.0	n/a	659	71	2750	681.4661853	stim	stop-signal	529	1312019	0.0-21.19-1.19	beast_fmri_test	269	1309810,/,1310490,/,1311170,/,1311850,/,1312529,/	t,t,t,t,t	<img class = center src='/static/experiments/beast_fmri_test/images/T.png'></img>	89,71	2750.0	test	<img class = center src='/static/experiments/beast_fmri_test/images/redT.png'></img>	stop	1550.0	2.0	19.0	stop	non-target	T	89,Yellow Button	71,Green Button	950.0	1200.0	1800.0	1550.0	0.0	1200.0	0.0	1.0	go_stim
310407.53381470009	1550.0	n/a	659	71	2750	681.4661853	stim	stop-signal	529	1312019	0.0-21.19-1.19	beast_fmri_test	269	1309810,/,1310490,/,1311170,/,1311850,/,1312529,/	t,t,t,t,t	<img class = center src='/static/experiments/beast_fmri_test/images/T.png'></img>	89,71	2750.0	test	<img class = center src='/static/experiments/beast_fmri_test/images/redT.png'></img>	stop	1550.0	2.0	19.0	stop	non-target	T	89,Yellow Button	71,Green Button	950.0	1200.0	1800.0	1550.0	0.0	1200.0	0.0	1.0	stop_stim
311607.53381470009	681.46618529999989	n/a	659	71	2750	681.4661853	stim	stop-signal	529	1312019	0.0-21.19-1.19	beast_fmri_test	269	1309810,/,1310490,/,1311170,/,1311850,/,1312529,/	t,t,t,t,t	<img class = center src='/static/experiments/beast_fmri_test/images/T.png'></img>	89,71	2750.0	test	<img class = center src='/static/experiments/beast_fmri_test/images/redT.png'></img>	stop	1550.0	2.0	19.0	stop	non-target	T	89,Yellow Button	71,Green Button	950.0	1200.0	1800.0	1550.0	0.0	1200.0	0.0	1.0	ITI
313491	500	n/a	-1	-1	500	0.0	fixation	poldrack-single-stim	530	1313221	0.0-21.20-0.20	beast_fmri_test	269	1313211,/	t	<div class = centerbox><div class = fixation>+</div></div>	none	500.0	test	n/a	n/a	n/a	n/a	n/a	n/a	n/a	n/a	n/a	n/a	n/a	n/a	n/a	n/a	n/a	n/a	n/a	n/a	fixation
313261.83834400005	950.0	n/a	1078	89	2750	231.161656	stim	stop-signal	531	1315973	0.0-21.20-1.20	beast_fmri_test	269	1313890,/,1314570,/,1315249,/,1315930,/	t,t,t,t	<img class = center src='/static/experiments/beast_fmri_test/images/V.png'></img>	89,71	2750.0	test	<img class = center src='/static/experiments/beast_fmri_test/images/redV.png'></img>	stop	1800.0	2.0	20.0	stop	target	V	89,Yellow Button	71,Green Button	950.0	1150.0	1800.0	1550.0	0.0	950.0	0.0	1.0	go_stim
315061.83834400005	1800.0	n/a	1078	89	2750	231.161656	stim	stop-signal	531	1315973	0.0-21.20-1.20	beast_fmri_test	269	1313890,/,1314570,/,1315249,/,1315930,/	t,t,t,t	<img class = center src='/static/experiments/beast_fmri_test/images/V.png'></img>	89,71	2750.0	test	<img class = center src='/static/experiments/beast_fmri_test/images/redV.png'></img>	stop	1800.0	2.0	20.0	stop	target	V	89,Yellow Button	71,Green Button	950.0	1150.0	1800.0	1550.0	0.0	950.0	0.0	1.0	stop_stim
316011.83834400005	231.16165599999999	n/a	1078	89	2750	231.161656	stim	stop-signal	531	1315973	0.0-21.20-1.20	beast_fmri_test	269	1313890,/,1314570,/,1315249,/,1315930,/	t,t,t,t	<img class = center src='/static/experiments/beast_fmri_test/images/V.png'></img>	89,71	2750.0	test	<img class = center src='/static/experiments/beast_fmri_test/images/redV.png'></img>	stop	1800.0	2.0	20.0	stop	target	V	89,Yellow Button	71,Green Button	950.0	1150.0	1800.0	1550.0	0.0	950.0	0.0	1.0	ITI
316997	500	n/a	-1	-1	500	0.0	fixation	poldrack-single-stim	532	1316727	0.0-21.21-0.21	beast_fmri_test	269	1316610,/	t	<div class = centerbox><div class = fixation>+</div></div>	none	500.0	test	n/a	n/a	n/a	n/a	n/a	n/a	n/a	n/a	n/a	n/a	n/a	n/a	n/a	n/a	n/a	n/a	n/a	n/a	fixation
