onset	duration	text	rt	key_press	block_duration	timing_post_trial	trial_id	trial_type	trial_index	time_elapsed	internal_node_id	exp_id	subject_id	trigger_times	triggers	stimulus	possible_responses	stim_duration	exp_stage	SS_stimulus	SS_trial_type	SS_duration	load	trial_num	stop_trial_type	adaptive_trial_type	stim	yes_response_key	no_response_key	SSD_target	SSD_non_target	SSTarget	SSNonTarget	go_acc	SS_delay	stop_acc	adaptive_acc	new_trial_type
test	10880.0	n/a	-1	-1	10880	0.0	practice-no-stop-feedback	poldrack-single-stim	586	1567673	0.0-24.0	beast_fmri_test	269	1556793,/,1557472,/,1558152,/,1558832,/,1559512,/,1560192,/,1560872,/,1561552,/,1562232,/,1562912,/,1563592,/,1564273,/,1564952,/,1565632,/,1566312,/,1566992,/,1567673,/	t,t,t,t,t,t,t,t,t,t,t,t,t,t,t,t,t	"<div class = ""centerbox""><p class = ""center-block-text"">Your delay is 2 trials.</p><p class = center-block-text>Please wait for the scanner to start the block</p></div>"	77	10880.0	n/a	n/a	n/a	n/a	n/a	n/a	n/a	n/a	n/a	n/a	n/a	n/a	n/a	n/a	n/a	n/a	n/a	n/a	n/a	start_functional_block
11382	500.0	n/a	-1	-1	500	0.0	fixation	poldrack-single-stim	587	1568175	0.0-25.0-0.0	beast_fmri_test	269	n/a	n/a	<div class = centerbox><div class = fixation>+</div></div>	none	500.0	test	n/a	n/a	n/a	n/a	n/a	n/a	n/a	n/a	n/a	n/a	n/a	n/a	n/a	n/a	n/a	n/a	n/a	n/a	fixation
10101.522493999917	2750.0	n/a	1206	71	2750	1282.477506	stim	stop-signal	588	1570927	0.0-25.0-1.0	beast_fmri_test	269	1568352,/,1569033,/,1569713,/,1570393,/,1571073,/,1571753,/	t,t,t,t,t,t	<img class = center src='/static/experiments/beast_fmri_test/images/T.png'></img>	89,71	2750.0	test	<img class = center src='/static/experiments/beast_fmri_test/images/redT.png'></img>	go	-1.0	2.0	0.0	go	temp-non-target	T	89,Yellow Button	71,Green Button	900.0	1200.0	1850.0	1550.0	0.0	n/a	n/a	n/a	go_stim
12851.522493999917	1282.477506	n/a	1206	71	2750	1282.477506	stim	stop-signal	588	1570927	0.0-25.0-1.0	beast_fmri_test	269	1568352,/,1569033,/,1569713,/,1570393,/,1571073,/,1571753,/	t,t,t,t,t,t	<img class = center src='/static/experiments/beast_fmri_test/images/T.png'></img>	89,71	2750.0	test	<img class = center src='/static/experiments/beast_fmri_test/images/redT.png'></img>	go	-1.0	2.0	0.0	go	temp-non-target	T	89,Yellow Button	71,Green Button	900.0	1200.0	1850.0	1550.0	0.0	n/a	n/a	n/a	ITI
15941	500.0	n/a	-1	-1	500	0.0	fixation	poldrack-single-stim	589	1572734	0.0-25.1-0.1	beast_fmri_test	269	1572433,/	t	<div class = centerbox><div class = fixation>+</div></div>	none	500.0	test	n/a	n/a	n/a	n/a	n/a	n/a	n/a	n/a	n/a	n/a	n/a	n/a	n/a	n/a	n/a	n/a	n/a	n/a	fixation
14897.521781000076	2750.0	n/a	1301	71	2750	1045.478219	stim	stop-signal	590	1575486	0.0-25.1-1.1	beast_fmri_test	269	1573113,/,1573793,/,1574474,/,1575153,/,1575833,/,1576512,/	t,t,t,t,t,t	<img class = center src='/static/experiments/beast_fmri_test/images/B.png'></img>	89,71	2750.0	test	<img class = center src='/static/experiments/beast_fmri_test/images/redB.png'></img>	go	-1.0	2.0	1.0	go	temp-non-target	B	89,Yellow Button	71,Green Button	900.0	1200.0	1850.0	1550.0	0.0	n/a	n/a	n/a	go_stim
17647.521781000076	1045.478219	n/a	1301	71	2750	1045.478219	stim	stop-signal	590	1575486	0.0-25.1-1.1	beast_fmri_test	269	1573113,/,1573793,/,1574474,/,1575153,/,1575833,/,1576512,/	t,t,t,t,t,t	<img class = center src='/static/experiments/beast_fmri_test/images/B.png'></img>	89,71	2750.0	test	<img class = center src='/static/experiments/beast_fmri_test/images/redB.png'></img>	go	-1.0	2.0	1.0	go	temp-non-target	B	89,Yellow Button	71,Green Button	900.0	1200.0	1850.0	1550.0	0.0	n/a	n/a	n/a	ITI
20264	500.0	n/a	-1	-1	500	0.0	fixation	poldrack-single-stim	591	1577057	0.0-25.2-0.2	beast_fmri_test	269	n/a	n/a	<div class = centerbox><div class = fixation>+</div></div>	none	500.0	test	n/a	n/a	n/a	n/a	n/a	n/a	n/a	n/a	n/a	n/a	n/a	n/a	n/a	n/a	n/a	n/a	n/a	n/a	fixation
19890.530810399912	2750.0	n/a	1059	89	2750	375.4691896	stim	stop-signal	592	1579809	0.0-25.2-1.2	beast_fmri_test	269	1577193,/,1577873,/,1578553,/,1579232,/,1579913,/	t,t,t,t,t	<img class = center src='/static/experiments/beast_fmri_test/images/T.png'></img>	89,71	2750.0	test	<img class = center src='/static/experiments/beast_fmri_test/images/redT.png'></img>	go	1850.0	2.0	2.0	go	target	T	89,Yellow Button	71,Green Button	900.0	1200.0	1850.0	1550.0	1.0	900.0	n/a	1.0	go_stim
22640.530810399912	375.4691896	n/a	1059	89	2750	375.4691896	stim	stop-signal	592	1579809	0.0-25.2-1.2	beast_fmri_test	269	1577193,/,1577873,/,1578553,/,1579232,/,1579913,/	t,t,t,t,t	<img class = center src='/static/experiments/beast_fmri_test/images/T.png'></img>	89,71	2750.0	test	<img class = center src='/static/experiments/beast_fmri_test/images/redT.png'></img>	go	1850.0	2.0	2.0	go	target	T	89,Yellow Button	71,Green Button	900.0	1200.0	1850.0	1550.0	1.0	900.0	n/a	1.0	ITI
23915	500.0	n/a	-1	-1	500	0.0	fixation	poldrack-single-stim	593	1580708	0.0-25.3-0.3	beast_fmri_test	269	1580593,/	t	<div class = centerbox><div class = fixation>+</div></div>	none	500.0	test	n/a	n/a	n/a	n/a	n/a	n/a	n/a	n/a	n/a	n/a	n/a	n/a	n/a	n/a	n/a	n/a	n/a	n/a	fixation
22867.985022000037	1200.0	n/a	1310	71	2750	1049.014978	stim	stop-signal	594	1583460	0.0-25.3-1.3	beast_fmri_test	269	1581272,/,1581952,/,1582632,/,1583312,/,1583992,/	t,t,t,t,t	<img class = center src='/static/experiments/beast_fmri_test/images/P.png'></img>	89,71	2750.0	test	<img class = center src='/static/experiments/beast_fmri_test/images/redP.png'></img>	stop	1550.0	2.0	3.0	stop	non-target	P	89,Yellow Button	71,Green Button	900.0	1200.0	1850.0	1550.0	0.0	1200.0	0.0	1.0	go_stim
24417.985022000037	1550.0	n/a	1310	71	2750	1049.014978	stim	stop-signal	594	1583460	0.0-25.3-1.3	beast_fmri_test	269	1581272,/,1581952,/,1582632,/,1583312,/,1583992,/	t,t,t,t,t	<img class = center src='/static/experiments/beast_fmri_test/images/P.png'></img>	89,71	2750.0	test	<img class = center src='/static/experiments/beast_fmri_test/images/redP.png'></img>	stop	1550.0	2.0	3.0	stop	non-target	P	89,Yellow Button	71,Green Button	900.0	1200.0	1850.0	1550.0	0.0	1200.0	0.0	1.0	stop_stim
25617.985022000037	1049.014978	n/a	1310	71	2750	1049.014978	stim	stop-signal	594	1583460	0.0-25.3-1.3	beast_fmri_test	269	1581272,/,1581952,/,1582632,/,1583312,/,1583992,/	t,t,t,t,t	<img class = center src='/static/experiments/beast_fmri_test/images/P.png'></img>	89,71	2750.0	test	<img class = center src='/static/experiments/beast_fmri_test/images/redP.png'></img>	stop	1550.0	2.0	3.0	stop	non-target	P	89,Yellow Button	71,Green Button	900.0	1200.0	1850.0	1550.0	0.0	1200.0	0.0	1.0	ITI
28239	500.0	n/a	-1	-1	500	0.0	fixation	poldrack-single-stim	595	1585032	0.0-25.4-0.4	beast_fmri_test	269	1584673,/	t	<div class = centerbox><div class = fixation>+</div></div>	none	500.0	test	n/a	n/a	n/a	n/a	n/a	n/a	n/a	n/a	n/a	n/a	n/a	n/a	n/a	n/a	n/a	n/a	n/a	n/a	fixation
27414.939630999928	2750.0	n/a	1825	71	2750	826.060369	stim	stop-signal	596	1587784	0.0-25.4-1.4	beast_fmri_test	269	1585353,/,1586032,/,1586713,/,1587392,/,1588072,/	t,t,t,t,t	<img class = center src='/static/experiments/beast_fmri_test/images/B.png'></img>	89,71	2750.0	test	<img class = center src='/static/experiments/beast_fmri_test/images/redB.png'></img>	go	1600.0	2.0	4.0	go	non-target	B	89,Yellow Button	71,Green Button	900.0	1150.0	1850.0	1600.0	1.0	1150.0	n/a	1.0	go_stim
30164.939630999928	826.060369	n/a	1825	71	2750	826.060369	stim	stop-signal	596	1587784	0.0-25.4-1.4	beast_fmri_test	269	1585353,/,1586032,/,1586713,/,1587392,/,1588072,/	t,t,t,t,t	<img class = center src='/static/experiments/beast_fmri_test/images/B.png'></img>	89,71	2750.0	test	<img class = center src='/static/experiments/beast_fmri_test/images/redB.png'></img>	go	1600.0	2.0	4.0	go	non-target	B	89,Yellow Button	71,Green Button	900.0	1150.0	1850.0	1600.0	1.0	1150.0	n/a	1.0	ITI
32342	500.0	n/a	-1	-1	500	0.0	fixation	poldrack-single-stim	597	1589135	0.0-25.5-0.5	beast_fmri_test	269	1588753,/	t	<div class = centerbox><div class = fixation>+</div></div>	none	500.0	test	n/a	n/a	n/a	n/a	n/a	n/a	n/a	n/a	n/a	n/a	n/a	n/a	n/a	n/a	n/a	n/a	n/a	n/a	fixation
31460.674767300021	1150.0	n/a	-1	-1	2750	883.3252327	stim	stop-signal	598	1591887	0.0-25.5-1.5	beast_fmri_test	269	1589433,/,1590112,/,1590792,/,1591472,/,1592152,/	t,t,t,t,t	<img class = center src='/static/experiments/beast_fmri_test/images/B.png'></img>	89,71	2750.0	test	<img class = center src='/static/experiments/beast_fmri_test/images/redB.png'></img>	stop	1600.0	2.0	5.0	stop	non-target	B	89,Yellow Button	71,Green Button	900.0	1150.0	1850.0	1600.0	0.0	1150.0	1.0	0.0	go_stim
33060.674767300021	1600.0	n/a	-1	-1	2750	883.3252327	stim	stop-signal	598	1591887	0.0-25.5-1.5	beast_fmri_test	269	1589433,/,1590112,/,1590792,/,1591472,/,1592152,/	t,t,t,t,t	<img class = center src='/static/experiments/beast_fmri_test/images/B.png'></img>	89,71	2750.0	test	<img class = center src='/static/experiments/beast_fmri_test/images/redB.png'></img>	stop	1600.0	2.0	5.0	stop	non-target	B	89,Yellow Button	71,Green Button	900.0	1150.0	1850.0	1600.0	0.0	1150.0	1.0	0.0	stop_stim
34210.674767300021	883.3252327	n/a	-1	-1	2750	883.3252327	stim	stop-signal	598	1591887	0.0-25.5-1.5	beast_fmri_test	269	1589433,/,1590112,/,1590792,/,1591472,/,1592152,/	t,t,t,t,t	<img class = center src='/static/experiments/beast_fmri_test/images/B.png'></img>	89,71	2750.0	test	<img class = center src='/static/experiments/beast_fmri_test/images/redB.png'></img>	stop	1600.0	2.0	5.0	stop	non-target	B	89,Yellow Button	71,Green Button	900.0	1150.0	1850.0	1600.0	0.0	1150.0	1.0	0.0	ITI
36498	500.0	n/a	-1	-1	500	0.0	fixation	poldrack-single-stim	599	1593291	0.0-25.6-0.6	beast_fmri_test	269	1592832,/	t	<div class = centerbox><div class = fixation>+</div></div>	none	500.0	test	n/a	n/a	n/a	n/a	n/a	n/a	n/a	n/a	n/a	n/a	n/a	n/a	n/a	n/a	n/a	n/a	n/a	n/a	fixation
36102.995391699951	900.0	n/a	-1	-1	2750	397.0046083	stim	stop-signal	600	1596043	0.0-25.6-1.6	beast_fmri_test	269	1593513,/,1594192,/,1594873,/,1595552,/,1596232,/	t,t,t,t,t	<img class = center src='/static/experiments/beast_fmri_test/images/B.png'></img>	89,71	2750.0	test	<img class = center src='/static/experiments/beast_fmri_test/images/redB.png'></img>	stop	1850.0	2.0	6.0	stop	target	B	89,Yellow Button	71,Green Button	900.0	1200.0	1850.0	1600.0	0.0	900.0	1.0	0.0	go_stim
37952.995391699951	1850.0	n/a	-1	-1	2750	397.0046083	stim	stop-signal	600	1596043	0.0-25.6-1.6	beast_fmri_test	269	1593513,/,1594192,/,1594873,/,1595552,/,1596232,/	t,t,t,t,t	<img class = center src='/static/experiments/beast_fmri_test/images/B.png'></img>	89,71	2750.0	test	<img class = center src='/static/experiments/beast_fmri_test/images/redB.png'></img>	stop	1850.0	2.0	6.0	stop	target	B	89,Yellow Button	71,Green Button	900.0	1200.0	1850.0	1600.0	0.0	900.0	1.0	0.0	stop_stim
38852.995391699951	397.0046083	n/a	-1	-1	2750	397.0046083	stim	stop-signal	600	1596043	0.0-25.6-1.6	beast_fmri_test	269	1593513,/,1594192,/,1594873,/,1595552,/,1596232,/	t,t,t,t,t	<img class = center src='/static/experiments/beast_fmri_test/images/B.png'></img>	89,71	2750.0	test	<img class = center src='/static/experiments/beast_fmri_test/images/redB.png'></img>	stop	1850.0	2.0	6.0	stop	target	B	89,Yellow Button	71,Green Button	900.0	1200.0	1850.0	1600.0	0.0	900.0	1.0	0.0	ITI
40171	500.0	n/a	-1	-1	500	0.0	fixation	poldrack-single-stim	601	1596964	0.0-25.7-0.7	beast_fmri_test	269	1596912,/	t	<div class = centerbox><div class = fixation>+</div></div>	none	500.0	test	n/a	n/a	n/a	n/a	n/a	n/a	n/a	n/a	n/a	n/a	n/a	n/a	n/a	n/a	n/a	n/a	n/a	n/a	fixation
39957.801326399902	2750.0	n/a	1606	71	2750	214.1986736	stim	stop-signal	602	1599715	0.0-25.7-1.7	beast_fmri_test	269	1597592,/,1598272,/,1598952,/,1599632,/	t,t,t,t	<img class = center src='/static/experiments/beast_fmri_test/images/T.png'></img>	89,71	2750.0	test	<img class = center src='/static/experiments/beast_fmri_test/images/redT.png'></img>	go	1550.0	2.0	7.0	go	non-target	T	89,Yellow Button	71,Green Button	950.0	1200.0	1850.0	1550.0	1.0	1200.0	n/a	1.0	go_stim
42707.801326399902	214.1986736	n/a	1606	71	2750	214.1986736	stim	stop-signal	602	1599715	0.0-25.7-1.7	beast_fmri_test	269	1597592,/,1598272,/,1598952,/,1599632,/	t,t,t,t	<img class = center src='/static/experiments/beast_fmri_test/images/T.png'></img>	89,71	2750.0	test	<img class = center src='/static/experiments/beast_fmri_test/images/redT.png'></img>	go	1550.0	2.0	7.0	go	non-target	T	89,Yellow Button	71,Green Button	950.0	1200.0	1850.0	1550.0	1.0	1200.0	n/a	1.0	ITI
43662	500.0	n/a	-1	-1	500	0.0	fixation	poldrack-single-stim	603	1600455	0.0-25.8-0.8	beast_fmri_test	269	1600312,/	t	<div class = centerbox><div class = fixation>+</div></div>	none	500.0	test	n/a	n/a	n/a	n/a	n/a	n/a	n/a	n/a	n/a	n/a	n/a	n/a	n/a	n/a	n/a	n/a	n/a	n/a	fixation
42290.452005000087	2750.0	n/a	1466	89	2750	1374.547995	stim	stop-signal	604	1603208	0.0-25.8-1.8	beast_fmri_test	269	1600992,/,1601672,/,1602352,/,1603032,/,1603713,/,1604393,/	t,t,t,t,t,t	<img class = center src='/static/experiments/beast_fmri_test/images/B.png'></img>	89,71	2750.0	test	<img class = center src='/static/experiments/beast_fmri_test/images/redB.png'></img>	go	1800.0	2.0	8.0	go	target	B	89,Yellow Button	71,Green Button	950.0	1200.0	1800.0	1550.0	1.0	950.0	n/a	1.0	go_stim
45040.452005000087	1374.547995	n/a	1466	89	2750	1374.547995	stim	stop-signal	604	1603208	0.0-25.8-1.8	beast_fmri_test	269	1600992,/,1601672,/,1602352,/,1603032,/,1603713,/,1604393,/	t,t,t,t,t,t	<img class = center src='/static/experiments/beast_fmri_test/images/B.png'></img>	89,71	2750.0	test	<img class = center src='/static/experiments/beast_fmri_test/images/redB.png'></img>	go	1800.0	2.0	8.0	go	target	B	89,Yellow Button	71,Green Button	950.0	1200.0	1800.0	1550.0	1.0	950.0	n/a	1.0	ITI
48313	500.0	n/a	-1	-1	500	0.0	fixation	poldrack-single-stim	605	1605106	0.0-25.9-0.9	beast_fmri_test	269	1605074,/	t	<div class = centerbox><div class = fixation>+</div></div>	none	500.0	test	n/a	n/a	n/a	n/a	n/a	n/a	n/a	n/a	n/a	n/a	n/a	n/a	n/a	n/a	n/a	n/a	n/a	n/a	fixation
48049.573107900098	950.0	n/a	-1	-1	2750	265.4268921	stim	stop-signal	606	1607858	0.0-25.9-1.9	beast_fmri_test	269	1605753,/,1606433,/,1607113,/,1607793,/	t,t,t,t	<img class = center src='/static/experiments/beast_fmri_test/images/T.png'></img>	89,71	2750.0	test	<img class = center src='/static/experiments/beast_fmri_test/images/redT.png'></img>	stop	1800.0	2.0	9.0	stop	target	T	89,Yellow Button	71,Green Button	950.0	1200.0	1800.0	1550.0	0.0	950.0	1.0	0.0	go_stim
49849.573107900098	1800.0	n/a	-1	-1	2750	265.4268921	stim	stop-signal	606	1607858	0.0-25.9-1.9	beast_fmri_test	269	1605753,/,1606433,/,1607113,/,1607793,/	t,t,t,t	<img class = center src='/static/experiments/beast_fmri_test/images/T.png'></img>	89,71	2750.0	test	<img class = center src='/static/experiments/beast_fmri_test/images/redT.png'></img>	stop	1800.0	2.0	9.0	stop	target	T	89,Yellow Button	71,Green Button	950.0	1200.0	1800.0	1550.0	0.0	950.0	1.0	0.0	stop_stim
50799.573107900098	265.4268921	n/a	-1	-1	2750	265.4268921	stim	stop-signal	606	1607858	0.0-25.9-1.9	beast_fmri_test	269	1605753,/,1606433,/,1607113,/,1607793,/	t,t,t,t	<img class = center src='/static/experiments/beast_fmri_test/images/T.png'></img>	89,71	2750.0	test	<img class = center src='/static/experiments/beast_fmri_test/images/redT.png'></img>	stop	1800.0	2.0	9.0	stop	target	T	89,Yellow Button	71,Green Button	950.0	1200.0	1800.0	1550.0	0.0	950.0	1.0	0.0	ITI
51851	500.0	n/a	-1	-1	500	0.0	fixation	poldrack-single-stim	607	1608644	0.0-25.10-0.10	beast_fmri_test	269	1608473,/	t	<div class = centerbox><div class = fixation>+</div></div>	none	500.0	test	n/a	n/a	n/a	n/a	n/a	n/a	n/a	n/a	n/a	n/a	n/a	n/a	n/a	n/a	n/a	n/a	n/a	n/a	fixation
46988.172259999905	2750.0	n/a	1433	71	2750	4863.82774	stim	stop-signal	608	1611395	0.0-25.10-1.10	beast_fmri_test	269	1609153,/,1609833,/,1610513,/,1611193,/,1611872,/,1612552,/,1613233,/,1613913,/,1614592,/,1615273,/,1615952,/	t,t,t,t,t,t,t,t,t,t,t	<img class = center src='/static/experiments/beast_fmri_test/images/V.png'></img>	89,71	2750.0	test	<img class = center src='/static/experiments/beast_fmri_test/images/redV.png'></img>	go	1550.0	2.0	10.0	go	non-target	V	89,Yellow Button	71,Green Button	1000.0	1200.0	1800.0	1550.0	1.0	1200.0	n/a	1.0	go_stim
49738.172259999905	4863.82774	n/a	1433	71	2750	4863.82774	stim	stop-signal	608	1611395	0.0-25.10-1.10	beast_fmri_test	269	1609153,/,1609833,/,1610513,/,1611193,/,1611872,/,1612552,/,1613233,/,1613913,/,1614592,/,1615273,/,1615952,/	t,t,t,t,t,t,t,t,t,t,t	<img class = center src='/static/experiments/beast_fmri_test/images/V.png'></img>	89,71	2750.0	test	<img class = center src='/static/experiments/beast_fmri_test/images/redV.png'></img>	go	1550.0	2.0	10.0	go	non-target	V	89,Yellow Button	71,Green Button	1000.0	1200.0	1800.0	1550.0	1.0	1200.0	n/a	1.0	ITI
59989	500.0	n/a	-1	-1	500	0.0	fixation	poldrack-single-stim	609	1616782	0.0-25.11-0.11	beast_fmri_test	269	1616633,/	t	<div class = centerbox><div class = fixation>+</div></div>	none	500.0	test	n/a	n/a	n/a	n/a	n/a	n/a	n/a	n/a	n/a	n/a	n/a	n/a	n/a	n/a	n/a	n/a	n/a	n/a	fixation
58166.720539999893	2750.0	n/a	1272	89	2750	1824.27946	stim	stop-signal	610	1619534	0.0-25.11-1.11	beast_fmri_test	269	1617312,/,1617992,/,1618672,/,1619352,/,1620032,/,1620712,/	t,t,t,t,t,t	<img class = center src='/static/experiments/beast_fmri_test/images/T.png'></img>	89,71	2750.0	test	<img class = center src='/static/experiments/beast_fmri_test/images/redT.png'></img>	go	1750.0	2.0	11.0	go	target	T	89,Yellow Button	71,Green Button	1000.0	1200.0	1750.0	1550.0	1.0	1000.0	n/a	1.0	go_stim
60916.720539999893	1824.27946	n/a	1272	89	2750	1824.27946	stim	stop-signal	610	1619534	0.0-25.11-1.11	beast_fmri_test	269	1617312,/,1617992,/,1618672,/,1619352,/,1620032,/,1620712,/	t,t,t,t,t,t	<img class = center src='/static/experiments/beast_fmri_test/images/T.png'></img>	89,71	2750.0	test	<img class = center src='/static/experiments/beast_fmri_test/images/redT.png'></img>	go	1750.0	2.0	11.0	go	target	T	89,Yellow Button	71,Green Button	1000.0	1200.0	1750.0	1550.0	1.0	1000.0	n/a	1.0	ITI
65089	500.0	n/a	-1	-1	500	0.0	fixation	poldrack-single-stim	611	1621882	0.0-25.12-0.12	beast_fmri_test	269	1621392,/	t	<div class = centerbox><div class = fixation>+</div></div>	none	500.0	test	n/a	n/a	n/a	n/a	n/a	n/a	n/a	n/a	n/a	n/a	n/a	n/a	n/a	n/a	n/a	n/a	n/a	n/a	fixation
64656.642295999918	1200.0	n/a	-1	-1	2750	434.357704	stim	stop-signal	612	1624634	0.0-25.12-1.12	beast_fmri_test	269	1622073,/,1622752,/,1623432,/,1624112,/,1624792,/	t,t,t,t,t	<img class = center src='/static/experiments/beast_fmri_test/images/T.png'></img>	89,71	2750.0	test	<img class = center src='/static/experiments/beast_fmri_test/images/redT.png'></img>	stop	1550.0	2.0	12.0	stop	non-target	T	89,Yellow Button	71,Green Button	1000.0	1200.0	1750.0	1550.0	0.0	1200.0	1.0	0.0	go_stim
66206.642295999918	1550.0	n/a	-1	-1	2750	434.357704	stim	stop-signal	612	1624634	0.0-25.12-1.12	beast_fmri_test	269	1622073,/,1622752,/,1623432,/,1624112,/,1624792,/	t,t,t,t,t	<img class = center src='/static/experiments/beast_fmri_test/images/T.png'></img>	89,71	2750.0	test	<img class = center src='/static/experiments/beast_fmri_test/images/redT.png'></img>	stop	1550.0	2.0	12.0	stop	non-target	T	89,Yellow Button	71,Green Button	1000.0	1200.0	1750.0	1550.0	0.0	1200.0	1.0	0.0	stop_stim
67406.642295999918	434.357704	n/a	-1	-1	2750	434.357704	stim	stop-signal	612	1624634	0.0-25.12-1.12	beast_fmri_test	269	1622073,/,1622752,/,1623432,/,1624112,/,1624792,/	t,t,t,t,t	<img class = center src='/static/experiments/beast_fmri_test/images/T.png'></img>	89,71	2750.0	test	<img class = center src='/static/experiments/beast_fmri_test/images/redT.png'></img>	stop	1550.0	2.0	12.0	stop	non-target	T	89,Yellow Button	71,Green Button	1000.0	1200.0	1750.0	1550.0	0.0	1200.0	1.0	0.0	ITI
68801	500.0	n/a	-1	-1	500	0.0	fixation	poldrack-single-stim	613	1625594	0.0-25.13-0.13	beast_fmri_test	269	1625473,/	t	<div class = centerbox><div class = fixation>+</div></div>	none	500.0	test	n/a	n/a	n/a	n/a	n/a	n/a	n/a	n/a	n/a	n/a	n/a	n/a	n/a	n/a	n/a	n/a	n/a	n/a	fixation
68290.273919099942	2750.0	n/a	2028	89	2750	512.7260809	stim	stop-signal	614	1628346	0.0-25.13-1.13	beast_fmri_test	269	1626152,/,1626832,/,1627512,/,1628192,/	t,t,t,t	<img class = center src='/static/experiments/beast_fmri_test/images/T.png'></img>	89,71	2750.0	test	<img class = center src='/static/experiments/beast_fmri_test/images/redT.png'></img>	go	1750.0	2.0	13.0	go	target	T	89,Yellow Button	71,Green Button	1000.0	1250.0	1750.0	1550.0	1.0	1000.0	n/a	1.0	go_stim
71040.273919099942	512.7260809	n/a	2028	89	2750	512.7260809	stim	stop-signal	614	1628346	0.0-25.13-1.13	beast_fmri_test	269	1626152,/,1626832,/,1627512,/,1628192,/	t,t,t,t	<img class = center src='/static/experiments/beast_fmri_test/images/T.png'></img>	89,71	2750.0	test	<img class = center src='/static/experiments/beast_fmri_test/images/redT.png'></img>	go	1750.0	2.0	13.0	go	target	T	89,Yellow Button	71,Green Button	1000.0	1250.0	1750.0	1550.0	1.0	1000.0	n/a	1.0	ITI
72590	500.0	n/a	-1	-1	500	0.0	fixation	poldrack-single-stim	615	1629383	0.0-25.14-0.14	beast_fmri_test	269	1628883,/	t	<div class = centerbox><div class = fixation>+</div></div>	none	500.0	test	n/a	n/a	n/a	n/a	n/a	n/a	n/a	n/a	n/a	n/a	n/a	n/a	n/a	n/a	n/a	n/a	n/a	n/a	fixation
71183.27982899989	1250.0	n/a	-1	-1	2750	1408.720171	stim	stop-signal	616	1632135	0.0-25.14-1.14	beast_fmri_test	269	1629552,/,1630232,/,1630912,/,1631592,/,1632272,/,1632952,/	t,t,t,t,t,t	<img class = center src='/static/experiments/beast_fmri_test/images/P.png'></img>	89,71	2750.0	test	<img class = center src='/static/experiments/beast_fmri_test/images/redP.png'></img>	stop	1500.0	2.0	14.0	stop	non-target	P	89,Yellow Button	71,Green Button	1000.0	1250.0	1750.0	1500.0	0.0	1250.0	1.0	0.0	go_stim
72683.27982899989	1500.0	n/a	-1	-1	2750	1408.720171	stim	stop-signal	616	1632135	0.0-25.14-1.14	beast_fmri_test	269	1629552,/,1630232,/,1630912,/,1631592,/,1632272,/,1632952,/	t,t,t,t,t,t	<img class = center src='/static/experiments/beast_fmri_test/images/P.png'></img>	89,71	2750.0	test	<img class = center src='/static/experiments/beast_fmri_test/images/redP.png'></img>	stop	1500.0	2.0	14.0	stop	non-target	P	89,Yellow Button	71,Green Button	1000.0	1250.0	1750.0	1500.0	0.0	1250.0	1.0	0.0	stop_stim
73933.27982899989	1408.720171	n/a	-1	-1	2750	1408.720171	stim	stop-signal	616	1632135	0.0-25.14-1.14	beast_fmri_test	269	1629552,/,1630232,/,1630912,/,1631592,/,1632272,/,1632952,/	t,t,t,t,t,t	<img class = center src='/static/experiments/beast_fmri_test/images/P.png'></img>	89,71	2750.0	test	<img class = center src='/static/experiments/beast_fmri_test/images/redP.png'></img>	stop	1500.0	2.0	14.0	stop	non-target	P	89,Yellow Button	71,Green Button	1000.0	1250.0	1750.0	1500.0	0.0	1250.0	1.0	0.0	ITI
77274	500.0	n/a	-1	-1	500	0.0	fixation	poldrack-single-stim	617	1634067	0.0-25.15-0.15	beast_fmri_test	269	1633632,/	t	<div class = centerbox><div class = fixation>+</div></div>	none	500.0	test	n/a	n/a	n/a	n/a	n/a	n/a	n/a	n/a	n/a	n/a	n/a	n/a	n/a	n/a	n/a	n/a	n/a	n/a	fixation
75468.729608000023	2750.0	n/a	1665	89	2750	1807.270392	stim	stop-signal	618	1636819	0.0-25.15-1.15	beast_fmri_test	269	1634312,/,1634992,/,1635673,/,1636352,/,1637032,/,1637713,/,1638393,/	t,t,t,t,t,t,t	<img class = center src='/static/experiments/beast_fmri_test/images/T.png'></img>	89,71	2750.0	test	<img class = center src='/static/experiments/beast_fmri_test/images/redT.png'></img>	go	1750.0	2.0	15.0	go	target	T	89,Yellow Button	71,Green Button	1000.0	1300.0	1750.0	1500.0	1.0	1000.0	n/a	1.0	go_stim
78218.729608000023	1807.270392	n/a	1665	89	2750	1807.270392	stim	stop-signal	618	1636819	0.0-25.15-1.15	beast_fmri_test	269	1634312,/,1634992,/,1635673,/,1636352,/,1637032,/,1637713,/,1638393,/	t,t,t,t,t,t,t	<img class = center src='/static/experiments/beast_fmri_test/images/T.png'></img>	89,71	2750.0	test	<img class = center src='/static/experiments/beast_fmri_test/images/redT.png'></img>	go	1750.0	2.0	15.0	go	target	T	89,Yellow Button	71,Green Button	1000.0	1300.0	1750.0	1500.0	1.0	1000.0	n/a	1.0	ITI
82358	500.0	n/a	-1	-1	500	0.0	fixation	poldrack-single-stim	619	1639151	0.0-25.16-0.16	beast_fmri_test	269	1639073,/	t	<div class = centerbox><div class = fixation>+</div></div>	none	500.0	test	n/a	n/a	n/a	n/a	n/a	n/a	n/a	n/a	n/a	n/a	n/a	n/a	n/a	n/a	n/a	n/a	n/a	n/a	fixation
82343.65133506991	2750.0	n/a	1112	71	2750	16.34866493	stim	stop-signal	620	1641903	0.0-25.16-1.16	beast_fmri_test	269	1639753,/,1640433,/,1641112,/,1641793,/	t,t,t,t	<img class = center src='/static/experiments/beast_fmri_test/images/V.png'></img>	89,71	2750.0	test	<img class = center src='/static/experiments/beast_fmri_test/images/redV.png'></img>	go	1450.0	2.0	16.0	go	non-target	V	89,Yellow Button	71,Green Button	1000.0	1300.0	1750.0	1450.0	1.0	1300.0	n/a	1.0	go_stim
85093.65133506991	16.34866493	n/a	1112	71	2750	16.34866493	stim	stop-signal	620	1641903	0.0-25.16-1.16	beast_fmri_test	269	1639753,/,1640433,/,1641112,/,1641793,/	t,t,t,t	<img class = center src='/static/experiments/beast_fmri_test/images/V.png'></img>	89,71	2750.0	test	<img class = center src='/static/experiments/beast_fmri_test/images/redV.png'></img>	go	1450.0	2.0	16.0	go	non-target	V	89,Yellow Button	71,Green Button	1000.0	1300.0	1750.0	1450.0	1.0	1300.0	n/a	1.0	ITI
85650	500.0	n/a	-1	-1	500	0.0	fixation	poldrack-single-stim	621	1642443	0.0-25.17-0.17	beast_fmri_test	269	n/a	n/a	<div class = centerbox><div class = fixation>+</div></div>	none	500.0	test	n/a	n/a	n/a	n/a	n/a	n/a	n/a	n/a	n/a	n/a	n/a	n/a	n/a	n/a	n/a	n/a	n/a	n/a	fixation
85422.0163720001	2750.0	n/a	1670	89	2750	228.983628	stim	stop-signal	622	1645194	0.0-25.17-1.17	beast_fmri_test	269	1642473,/,1643153,/,1643833,/,1644512,/,1645193,/	t,t,t,t,t	<img class = center src='/static/experiments/beast_fmri_test/images/T.png'></img>	89,71	2750.0	test	<img class = center src='/static/experiments/beast_fmri_test/images/redT.png'></img>	go	1750.0	2.0	17.0	go	target	T	89,Yellow Button	71,Green Button	1000.0	1300.0	1750.0	1450.0	1.0	1000.0	n/a	1.0	go_stim
88172.0163720001	228.983628	n/a	1670	89	2750	228.983628	stim	stop-signal	622	1645194	0.0-25.17-1.17	beast_fmri_test	269	1642473,/,1643153,/,1643833,/,1644512,/,1645193,/	t,t,t,t,t	<img class = center src='/static/experiments/beast_fmri_test/images/T.png'></img>	89,71	2750.0	test	<img class = center src='/static/experiments/beast_fmri_test/images/redT.png'></img>	go	1750.0	2.0	17.0	go	target	T	89,Yellow Button	71,Green Button	1000.0	1300.0	1750.0	1450.0	1.0	1000.0	n/a	1.0	ITI
89154	500.0	n/a	-1	-1	500	0.0	fixation	poldrack-single-stim	623	1645947	0.0-25.18-0.18	beast_fmri_test	269	1645874,/	t	<div class = centerbox><div class = fixation>+</div></div>	none	500.0	test	n/a	n/a	n/a	n/a	n/a	n/a	n/a	n/a	n/a	n/a	n/a	n/a	n/a	n/a	n/a	n/a	n/a	n/a	fixation
87632.16555200005	2750.0	n/a	2054	71	2750	1522.834448	stim	stop-signal	624	1648698	0.0-25.18-1.18	beast_fmri_test	269	1646553,/,1647233,/,1647913,/,1648592,/,1649272,/,1649952,/	t,t,t,t,t,t	<img class = center src='/static/experiments/beast_fmri_test/images/D.png'></img>	89,71	2750.0	test	<img class = center src='/static/experiments/beast_fmri_test/images/redD.png'></img>	go	1450.0	2.0	18.0	go	non-target	D	89,Yellow Button	71,Green Button	1000.0	1300.0	1750.0	1450.0	1.0	1300.0	n/a	1.0	go_stim
90382.16555200005	1522.834448	n/a	2054	71	2750	1522.834448	stim	stop-signal	624	1648698	0.0-25.18-1.18	beast_fmri_test	269	1646553,/,1647233,/,1647913,/,1648592,/,1649272,/,1649952,/	t,t,t,t,t,t	<img class = center src='/static/experiments/beast_fmri_test/images/D.png'></img>	89,71	2750.0	test	<img class = center src='/static/experiments/beast_fmri_test/images/redD.png'></img>	go	1450.0	2.0	18.0	go	non-target	D	89,Yellow Button	71,Green Button	1000.0	1300.0	1750.0	1450.0	1.0	1300.0	n/a	1.0	ITI
93949	500.0	n/a	-1	-1	500	0.0	fixation	poldrack-single-stim	625	1650742	0.0-25.19-0.19	beast_fmri_test	269	1650632,/	t	<div class = centerbox><div class = fixation>+</div></div>	none	500.0	test	n/a	n/a	n/a	n/a	n/a	n/a	n/a	n/a	n/a	n/a	n/a	n/a	n/a	n/a	n/a	n/a	n/a	n/a	fixation
93416.467233600095	2750.0	n/a	1715	71	2750	533.5327664	stim	stop-signal	626	1653493	0.0-25.19-1.19	beast_fmri_test	269	1651312,/,1651992,/,1652672,/,1653352,/	t,t,t,t	<img class = center src='/static/experiments/beast_fmri_test/images/P.png'></img>	89,71	2750.0	test	<img class = center src='/static/experiments/beast_fmri_test/images/redP.png'></img>	go	1450.0	2.0	19.0	go	non-target	P	89,Yellow Button	71,Green Button	1000.0	1300.0	1750.0	1450.0	1.0	1300.0	n/a	1.0	go_stim
96166.467233600095	533.5327664	n/a	1715	71	2750	533.5327664	stim	stop-signal	626	1653493	0.0-25.19-1.19	beast_fmri_test	269	1651312,/,1651992,/,1652672,/,1653352,/	t,t,t,t	<img class = center src='/static/experiments/beast_fmri_test/images/P.png'></img>	89,71	2750.0	test	<img class = center src='/static/experiments/beast_fmri_test/images/redP.png'></img>	go	1450.0	2.0	19.0	go	non-target	P	89,Yellow Button	71,Green Button	1000.0	1300.0	1750.0	1450.0	1.0	1300.0	n/a	1.0	ITI
97756	500.0	n/a	-1	-1	500	0.0	fixation	poldrack-single-stim	627	1654549	0.0-25.20-0.20	beast_fmri_test	269	1654049,/	t	<div class = centerbox><div class = fixation>+</div></div>	none	500.0	test	n/a	n/a	n/a	n/a	n/a	n/a	n/a	n/a	n/a	n/a	n/a	n/a	n/a	n/a	n/a	n/a	n/a	n/a	fixation
96191.483577999985	2750.0	n/a	1618	71	2750	1566.516422	stim	stop-signal	628	1657301	0.0-25.20-1.20	beast_fmri_test	269	1654712,/,1655393,/,1656073,/,1656752,/,1657432,/,1658112,/,1658792,/	t,t,t,t,t,t,t	<img class = center src='/static/experiments/beast_fmri_test/images/B.png'></img>	89,71	2750.0	test	<img class = center src='/static/experiments/beast_fmri_test/images/redB.png'></img>	go	1450.0	2.0	20.0	go	non-target	B	89,Yellow Button	71,Green Button	1000.0	1300.0	1750.0	1450.0	1.0	1300.0	n/a	1.0	go_stim
98941.483577999985	1566.516422	n/a	1618	71	2750	1566.516422	stim	stop-signal	628	1657301	0.0-25.20-1.20	beast_fmri_test	269	1654712,/,1655393,/,1656073,/,1656752,/,1657432,/,1658112,/,1658792,/	t,t,t,t,t,t,t	<img class = center src='/static/experiments/beast_fmri_test/images/B.png'></img>	89,71	2750.0	test	<img class = center src='/static/experiments/beast_fmri_test/images/redB.png'></img>	go	1450.0	2.0	20.0	go	non-target	B	89,Yellow Button	71,Green Button	1000.0	1300.0	1750.0	1450.0	1.0	1300.0	n/a	1.0	ITI
102599	500.0	n/a	-1	-1	500	0.0	fixation	poldrack-single-stim	629	1659392	0.0-25.21-0.21	beast_fmri_test	269	n/a	n/a	<div class = centerbox><div class = fixation>+</div></div>	none	500.0	test	n/a	n/a	n/a	n/a	n/a	n/a	n/a	n/a	n/a	n/a	n/a	n/a	n/a	n/a	n/a	n/a	n/a	n/a	fixation
101859.60101499991	1300.0	n/a	-1	-1	2750	740.398985	stim	stop-signal	630	1662143	0.0-25.21-1.21	beast_fmri_test	269	1659473,/,1660152,/,1660832,/,1661512,/,1662192,/,1662872,/	t,t,t,t,t,t	<img class = center src='/static/experiments/beast_fmri_test/images/V.png'></img>	89,71	2750.0	test	<img class = center src='/static/experiments/beast_fmri_test/images/redV.png'></img>	stop	1450.0	2.0	21.0	stop	non-target	V	89,Yellow Button	71,Green Button	1000.0	1300.0	1750.0	1450.0	0.0	1300.0	1.0	0.0	go_stim
103309.60101499991	1450.0	n/a	-1	-1	2750	740.398985	stim	stop-signal	630	1662143	0.0-25.21-1.21	beast_fmri_test	269	1659473,/,1660152,/,1660832,/,1661512,/,1662192,/,1662872,/	t,t,t,t,t,t	<img class = center src='/static/experiments/beast_fmri_test/images/V.png'></img>	89,71	2750.0	test	<img class = center src='/static/experiments/beast_fmri_test/images/redV.png'></img>	stop	1450.0	2.0	21.0	stop	non-target	V	89,Yellow Button	71,Green Button	1000.0	1300.0	1750.0	1450.0	0.0	1300.0	1.0	0.0	stop_stim
104609.60101499991	740.398985	n/a	-1	-1	2750	740.398985	stim	stop-signal	630	1662143	0.0-25.21-1.21	beast_fmri_test	269	1659473,/,1660152,/,1660832,/,1661512,/,1662192,/,1662872,/	t,t,t,t,t,t	<img class = center src='/static/experiments/beast_fmri_test/images/V.png'></img>	89,71	2750.0	test	<img class = center src='/static/experiments/beast_fmri_test/images/redV.png'></img>	stop	1450.0	2.0	21.0	stop	non-target	V	89,Yellow Button	71,Green Button	1000.0	1300.0	1750.0	1450.0	0.0	1300.0	1.0	0.0	ITI
106614	500.0	n/a	-1	-1	500	0.0	fixation	poldrack-single-stim	631	1663407	0.0-25.22-0.22	beast_fmri_test	269	n/a	n/a	<div class = centerbox><div class = fixation>+</div></div>	none	500.0	test	n/a	n/a	n/a	n/a	n/a	n/a	n/a	n/a	n/a	n/a	n/a	n/a	n/a	n/a	n/a	n/a	n/a	n/a	fixation
105648.64669559989	2750.0	n/a	1635	89	2750	967.3533044	stim	stop-signal	632	1666159	0.0-25.22-1.22	beast_fmri_test	269	1663552,/,1664232,/,1664912,/,1665592,/,1666273,/,1666952,/	t,t,t,t,t,t	<img class = center src='/static/experiments/beast_fmri_test/images/B.png'></img>	89,71	2750.0	test	<img class = center src='/static/experiments/beast_fmri_test/images/redB.png'></img>	go	1750.0	2.0	22.0	go	target	B	89,Yellow Button	71,Green Button	1000.0	1350.0	1750.0	1450.0	1.0	1000.0	n/a	1.0	go_stim
108398.64669559989	967.3533044	n/a	1635	89	2750	967.3533044	stim	stop-signal	632	1666159	0.0-25.22-1.22	beast_fmri_test	269	1663552,/,1664232,/,1664912,/,1665592,/,1666273,/,1666952,/	t,t,t,t,t,t	<img class = center src='/static/experiments/beast_fmri_test/images/B.png'></img>	89,71	2750.0	test	<img class = center src='/static/experiments/beast_fmri_test/images/redB.png'></img>	go	1750.0	2.0	22.0	go	target	B	89,Yellow Button	71,Green Button	1000.0	1350.0	1750.0	1450.0	1.0	1000.0	n/a	1.0	ITI
110856	500.0	n/a	-1	-1	500	0.0	fixation	poldrack-single-stim	633	1667649	0.0-25.23-0.23	beast_fmri_test	269	1667632,/	t	<div class = centerbox><div class = fixation>+</div></div>	none	500.0	test	n/a	n/a	n/a	n/a	n/a	n/a	n/a	n/a	n/a	n/a	n/a	n/a	n/a	n/a	n/a	n/a	n/a	n/a	fixation
110653.61593699991	1000.0	n/a	-1	-1	2750	203.384063	stim	stop-signal	634	1670400	0.0-25.23-1.23	beast_fmri_test	269	1668312,/,1668993,/,1669672,/,1670355,/	t,t,t,t	<img class = center src='/static/experiments/beast_fmri_test/images/V.png'></img>	89,71	2750.0	test	<img class = center src='/static/experiments/beast_fmri_test/images/redV.png'></img>	stop	1750.0	2.0	23.0	stop	target	V	89,Yellow Button	71,Green Button	1000.0	1350.0	1750.0	1450.0	0.0	1000.0	1.0	0.0	go_stim
112403.61593699991	1750.0	n/a	-1	-1	2750	203.384063	stim	stop-signal	634	1670400	0.0-25.23-1.23	beast_fmri_test	269	1668312,/,1668993,/,1669672,/,1670355,/	t,t,t,t	<img class = center src='/static/experiments/beast_fmri_test/images/V.png'></img>	89,71	2750.0	test	<img class = center src='/static/experiments/beast_fmri_test/images/redV.png'></img>	stop	1750.0	2.0	23.0	stop	target	V	89,Yellow Button	71,Green Button	1000.0	1350.0	1750.0	1450.0	0.0	1000.0	1.0	0.0	stop_stim
113403.61593699991	203.384063	n/a	-1	-1	2750	203.384063	stim	stop-signal	634	1670400	0.0-25.23-1.23	beast_fmri_test	269	1668312,/,1668993,/,1669672,/,1670355,/	t,t,t,t	<img class = center src='/static/experiments/beast_fmri_test/images/V.png'></img>	89,71	2750.0	test	<img class = center src='/static/experiments/beast_fmri_test/images/redV.png'></img>	stop	1750.0	2.0	23.0	stop	target	V	89,Yellow Button	71,Green Button	1000.0	1350.0	1750.0	1450.0	0.0	1000.0	1.0	0.0	ITI
114331	500.0	n/a	-1	-1	500	0.0	fixation	poldrack-single-stim	635	1671124	0.0-25.24-0.24	beast_fmri_test	269	1671033,/	t	<div class = centerbox><div class = fixation>+</div></div>	none	500.0	test	n/a	n/a	n/a	n/a	n/a	n/a	n/a	n/a	n/a	n/a	n/a	n/a	n/a	n/a	n/a	n/a	n/a	n/a	fixation
114021.50059750001	2750.0	n/a	1499	71	2750	311.4994025	stim	stop-signal	636	1673876	0.0-25.24-1.24	beast_fmri_test	269	1671713,/,1672393,/,1673073,/,1673752,/	t,t,t,t	<img class = center src='/static/experiments/beast_fmri_test/images/P.png'></img>	89,71	2750.0	test	<img class = center src='/static/experiments/beast_fmri_test/images/redP.png'></img>	go	1400.0	2.0	24.0	go	non-target	P	89,Yellow Button	71,Green Button	1050.0	1350.0	1750.0	1400.0	1.0	1350.0	n/a	1.0	go_stim
116771.50059750001	311.4994025	n/a	1499	71	2750	311.4994025	stim	stop-signal	636	1673876	0.0-25.24-1.24	beast_fmri_test	269	1671713,/,1672393,/,1673073,/,1673752,/	t,t,t,t	<img class = center src='/static/experiments/beast_fmri_test/images/P.png'></img>	89,71	2750.0	test	<img class = center src='/static/experiments/beast_fmri_test/images/redP.png'></img>	go	1400.0	2.0	24.0	go	non-target	P	89,Yellow Button	71,Green Button	1050.0	1350.0	1750.0	1400.0	1.0	1350.0	n/a	1.0	ITI
117918	500.0	n/a	-1	-1	500	0.0	fixation	poldrack-single-stim	637	1674711	0.0-25.25-0.25	beast_fmri_test	269	1674433,/	t	<div class = centerbox><div class = fixation>+</div></div>	none	500.0	test	n/a	n/a	n/a	n/a	n/a	n/a	n/a	n/a	n/a	n/a	n/a	n/a	n/a	n/a	n/a	n/a	n/a	n/a	fixation
116597.680498	2750.0	n/a	1388	71	2750	1322.319502	stim	stop-signal	638	1677463	0.0-25.25-1.25	beast_fmri_test	269	1675113,/,1675793,/,1676473,/,1677153,/,1677833,/,1678512,/	t,t,t,t,t,t	<img class = center src='/static/experiments/beast_fmri_test/images/B.png'></img>	89,71	2750.0	test	<img class = center src='/static/experiments/beast_fmri_test/images/redB.png'></img>	go	1400.0	2.0	25.0	go	non-target	B	89,Yellow Button	71,Green Button	1050.0	1350.0	1750.0	1400.0	1.0	1350.0	n/a	1.0	go_stim
119347.680498	1322.319502	n/a	1388	71	2750	1322.319502	stim	stop-signal	638	1677463	0.0-25.25-1.25	beast_fmri_test	269	1675113,/,1675793,/,1676473,/,1677153,/,1677833,/,1678512,/	t,t,t,t,t,t	<img class = center src='/static/experiments/beast_fmri_test/images/B.png'></img>	89,71	2750.0	test	<img class = center src='/static/experiments/beast_fmri_test/images/redB.png'></img>	go	1400.0	2.0	25.0	go	non-target	B	89,Yellow Button	71,Green Button	1050.0	1350.0	1750.0	1400.0	1.0	1350.0	n/a	1.0	ITI
122519	500.0	n/a	-1	-1	500	0.0	fixation	poldrack-single-stim	639	1679312	0.0-25.26-0.26	beast_fmri_test	269	1679193,/	t	<div class = centerbox><div class = fixation>+</div></div>	none	500.0	test	n/a	n/a	n/a	n/a	n/a	n/a	n/a	n/a	n/a	n/a	n/a	n/a	n/a	n/a	n/a	n/a	n/a	n/a	fixation
122287.85452000005	2750.0	n/a	1223	89	2750	233.14548	stim	stop-signal	640	1682064	0.0-25.26-1.26	beast_fmri_test	269	1679873,/,1680552,/,1681233,/,1681912,/	t,t,t,t	<img class = center src='/static/experiments/beast_fmri_test/images/P.png'></img>	89,71	2750.0	test	<img class = center src='/static/experiments/beast_fmri_test/images/redP.png'></img>	go	1700.0	2.0	26.0	go	target	P	89,Yellow Button	71,Green Button	1050.0	1350.0	1700.0	1400.0	1.0	1050.0	n/a	1.0	go_stim
125037.85452000005	233.14548	n/a	1223	89	2750	233.14548	stim	stop-signal	640	1682064	0.0-25.26-1.26	beast_fmri_test	269	1679873,/,1680552,/,1681233,/,1681912,/	t,t,t,t	<img class = center src='/static/experiments/beast_fmri_test/images/P.png'></img>	89,71	2750.0	test	<img class = center src='/static/experiments/beast_fmri_test/images/redP.png'></img>	go	1700.0	2.0	26.0	go	target	P	89,Yellow Button	71,Green Button	1050.0	1350.0	1700.0	1400.0	1.0	1050.0	n/a	1.0	ITI
126030	500.0	n/a	-1	-1	500	0.0	fixation	poldrack-single-stim	641	1682823	0.0-25.27-0.27	beast_fmri_test	269	1682593,/	t	<div class = centerbox><div class = fixation>+</div></div>	none	500.0	test	n/a	n/a	n/a	n/a	n/a	n/a	n/a	n/a	n/a	n/a	n/a	n/a	n/a	n/a	n/a	n/a	n/a	n/a	fixation
125887.51677559991	2750.0	n/a	1482	71	2750	144.4832244	stim	stop-signal	642	1685575	0.0-25.27-1.27	beast_fmri_test	269	1683273,/,1683953,/,1684632,/,1685312,/	t,t,t,t	<img class = center src='/static/experiments/beast_fmri_test/images/V.png'></img>	89,71	2750.0	test	<img class = center src='/static/experiments/beast_fmri_test/images/redV.png'></img>	go	1400.0	2.0	27.0	go	non-target	V	89,Yellow Button	71,Green Button	1050.0	1350.0	1700.0	1400.0	1.0	1350.0	n/a	1.0	go_stim
128637.51677559991	144.4832244	n/a	1482	71	2750	144.4832244	stim	stop-signal	642	1685575	0.0-25.27-1.27	beast_fmri_test	269	1683273,/,1683953,/,1684632,/,1685312,/	t,t,t,t	<img class = center src='/static/experiments/beast_fmri_test/images/V.png'></img>	89,71	2750.0	test	<img class = center src='/static/experiments/beast_fmri_test/images/redV.png'></img>	go	1400.0	2.0	27.0	go	non-target	V	89,Yellow Button	71,Green Button	1050.0	1350.0	1700.0	1400.0	1.0	1350.0	n/a	1.0	ITI
129451	500.0	n/a	-1	-1	500	0.0	fixation	poldrack-single-stim	643	1686244	0.0-25.28-0.28	beast_fmri_test	269	1685992,/	t	<div class = centerbox><div class = fixation>+</div></div>	none	500.0	test	n/a	n/a	n/a	n/a	n/a	n/a	n/a	n/a	n/a	n/a	n/a	n/a	n/a	n/a	n/a	n/a	n/a	n/a	fixation
128204.55989099992	2750.0	n/a	1857	71	2750	1248.440109	stim	stop-signal	644	1688996	0.0-25.28-1.28	beast_fmri_test	269	1686674,/,1687352,/,1688033,/,1688712,/,1689392,/,1690072,/	t,t,t,t,t,t	<img class = center src='/static/experiments/beast_fmri_test/images/V.png'></img>	89,71	2750.0	test	<img class = center src='/static/experiments/beast_fmri_test/images/redV.png'></img>	go	1400.0	2.0	28.0	go	non-target	V	89,Yellow Button	71,Green Button	1050.0	1350.0	1700.0	1400.0	1.0	1350.0	n/a	1.0	go_stim
130954.55989099992	1248.440109	n/a	1857	71	2750	1248.440109	stim	stop-signal	644	1688996	0.0-25.28-1.28	beast_fmri_test	269	1686674,/,1687352,/,1688033,/,1688712,/,1689392,/,1690072,/	t,t,t,t,t,t	<img class = center src='/static/experiments/beast_fmri_test/images/V.png'></img>	89,71	2750.0	test	<img class = center src='/static/experiments/beast_fmri_test/images/redV.png'></img>	go	1400.0	2.0	28.0	go	non-target	V	89,Yellow Button	71,Green Button	1050.0	1350.0	1700.0	1400.0	1.0	1350.0	n/a	1.0	ITI
133974	500.0	n/a	-1	-1	500	0.0	fixation	poldrack-single-stim	645	1690767	0.0-25.29-0.29	beast_fmri_test	269	1690752,/	t	<div class = centerbox><div class = fixation>+</div></div>	none	500.0	test	n/a	n/a	n/a	n/a	n/a	n/a	n/a	n/a	n/a	n/a	n/a	n/a	n/a	n/a	n/a	n/a	n/a	n/a	fixation
132746.54911500006	2750.0	n/a	1775	71	2750	1229.450885	stim	stop-signal	646	1693519	0.0-25.29-1.29	beast_fmri_test	269	1691432,/,1692112,/,1692792,/,1693472,/,1694152,/	t,t,t,t,t	<img class = center src='/static/experiments/beast_fmri_test/images/T.png'></img>	89,71	2750.0	test	<img class = center src='/static/experiments/beast_fmri_test/images/redT.png'></img>	go	1400.0	2.0	29.0	go	non-target	T	89,Yellow Button	71,Green Button	1050.0	1350.0	1700.0	1400.0	1.0	1350.0	n/a	1.0	go_stim
135496.54911500006	1229.450885	n/a	1775	71	2750	1229.450885	stim	stop-signal	646	1693519	0.0-25.29-1.29	beast_fmri_test	269	1691432,/,1692112,/,1692792,/,1693472,/,1694152,/	t,t,t,t,t	<img class = center src='/static/experiments/beast_fmri_test/images/T.png'></img>	89,71	2750.0	test	<img class = center src='/static/experiments/beast_fmri_test/images/redT.png'></img>	go	1400.0	2.0	29.0	go	non-target	T	89,Yellow Button	71,Green Button	1050.0	1350.0	1700.0	1400.0	1.0	1350.0	n/a	1.0	ITI
138478	500.0	n/a	-1	-1	500	0.0	fixation	poldrack-single-stim	647	1695271	0.0-25.30-0.30	beast_fmri_test	269	1694832,/	t	<div class = centerbox><div class = fixation>+</div></div>	none	500.0	test	n/a	n/a	n/a	n/a	n/a	n/a	n/a	n/a	n/a	n/a	n/a	n/a	n/a	n/a	n/a	n/a	n/a	n/a	fixation
137895.86736980011	1050.0	n/a	-1	-1	2750	584.1326302	stim	stop-signal	648	1698023	0.0-25.30-1.30	beast_fmri_test	269	1695512,/,1696192,/,1696873,/,1697552,/,1698232,/	t,t,t,t,t	<img class = center src='/static/experiments/beast_fmri_test/images/V.png'></img>	89,71	2750.0	test	<img class = center src='/static/experiments/beast_fmri_test/images/redV.png'></img>	stop	1700.0	2.0	30.0	stop	target	V	89,Yellow Button	71,Green Button	1050.0	1350.0	1700.0	1400.0	0.0	1050.0	1.0	0.0	go_stim
139595.86736980011	1700.0	n/a	-1	-1	2750	584.1326302	stim	stop-signal	648	1698023	0.0-25.30-1.30	beast_fmri_test	269	1695512,/,1696192,/,1696873,/,1697552,/,1698232,/	t,t,t,t,t	<img class = center src='/static/experiments/beast_fmri_test/images/V.png'></img>	89,71	2750.0	test	<img class = center src='/static/experiments/beast_fmri_test/images/redV.png'></img>	stop	1700.0	2.0	30.0	stop	target	V	89,Yellow Button	71,Green Button	1050.0	1350.0	1700.0	1400.0	0.0	1050.0	1.0	0.0	stop_stim
140645.86736980011	584.1326302	n/a	-1	-1	2750	584.1326302	stim	stop-signal	648	1698023	0.0-25.30-1.30	beast_fmri_test	269	1695512,/,1696192,/,1696873,/,1697552,/,1698232,/	t,t,t,t,t	<img class = center src='/static/experiments/beast_fmri_test/images/V.png'></img>	89,71	2750.0	test	<img class = center src='/static/experiments/beast_fmri_test/images/redV.png'></img>	stop	1700.0	2.0	30.0	stop	target	V	89,Yellow Button	71,Green Button	1050.0	1350.0	1700.0	1400.0	0.0	1050.0	1.0	0.0	ITI
142342	500.0	n/a	-1	-1	500	0.0	fixation	poldrack-single-stim	649	1699135	0.0-25.31-0.31	beast_fmri_test	269	1698912,/	t	<div class = centerbox><div class = fixation>+</div></div>	none	500.0	test	n/a	n/a	n/a	n/a	n/a	n/a	n/a	n/a	n/a	n/a	n/a	n/a	n/a	n/a	n/a	n/a	n/a	n/a	fixation
142291.00283645	2750.0	n/a	1550	71	2750	52.99716355	stim	stop-signal	650	1701887	0.0-25.31-1.31	beast_fmri_test	269	1699592,/,1700272,/,1700951,/,1701632,/	t,t,t,t	<img class = center src='/static/experiments/beast_fmri_test/images/P.png'></img>	89,71	2750.0	test	<img class = center src='/static/experiments/beast_fmri_test/images/redP.png'></img>	go	1400.0	2.0	31.0	go	non-target	P	89,Yellow Button	71,Green Button	1100.0	1350.0	1700.0	1400.0	1.0	1350.0	n/a	1.0	go_stim
145041.00283645	52.99716355	n/a	1550	71	2750	52.99716355	stim	stop-signal	650	1701887	0.0-25.31-1.31	beast_fmri_test	269	1699592,/,1700272,/,1700951,/,1701632,/	t,t,t,t	<img class = center src='/static/experiments/beast_fmri_test/images/P.png'></img>	89,71	2750.0	test	<img class = center src='/static/experiments/beast_fmri_test/images/redP.png'></img>	go	1400.0	2.0	31.0	go	non-target	P	89,Yellow Button	71,Green Button	1100.0	1350.0	1700.0	1400.0	1.0	1350.0	n/a	1.0	ITI
145667	500.0	n/a	-1	-1	500	0.0	fixation	poldrack-single-stim	651	1702460	0.0-25.32-0.32	beast_fmri_test	269	1702312,/	t	<div class = centerbox><div class = fixation>+</div></div>	none	500.0	test	n/a	n/a	n/a	n/a	n/a	n/a	n/a	n/a	n/a	n/a	n/a	n/a	n/a	n/a	n/a	n/a	n/a	n/a	fixation
140951.47558300011	2750.0	n/a	1806	71	2750	4717.524417	stim	stop-signal	652	1705212	0.0-25.32-1.32	beast_fmri_test	269	1702992,/,1703672,/,1704351,/,1705032,/,1705712,/,1706392,/,1707073,/,1707753,/,1708433,/,1709113,/,1709792,/	t,t,t,t,t,t,t,t,t,t,t	<img class = center src='/static/experiments/beast_fmri_test/images/P.png'></img>	89,71	2750.0	test	<img class = center src='/static/experiments/beast_fmri_test/images/redP.png'></img>	go	1400.0	2.0	32.0	go	non-target	P	89,Yellow Button	71,Green Button	1100.0	1350.0	1700.0	1400.0	1.0	1350.0	n/a	1.0	go_stim
143701.47558300011	4717.524417	n/a	1806	71	2750	4717.524417	stim	stop-signal	652	1705212	0.0-25.32-1.32	beast_fmri_test	269	1702992,/,1703672,/,1704351,/,1705032,/,1705712,/,1706392,/,1707073,/,1707753,/,1708433,/,1709113,/,1709792,/	t,t,t,t,t,t,t,t,t,t,t	<img class = center src='/static/experiments/beast_fmri_test/images/P.png'></img>	89,71	2750.0	test	<img class = center src='/static/experiments/beast_fmri_test/images/redP.png'></img>	go	1400.0	2.0	32.0	go	non-target	P	89,Yellow Button	71,Green Button	1100.0	1350.0	1700.0	1400.0	1.0	1350.0	n/a	1.0	ITI
153661	500.0	n/a	-1	-1	500	0.0	fixation	poldrack-single-stim	653	1710454	0.0-25.33-0.33	beast_fmri_test	269	n/a	n/a	<div class = centerbox><div class = fixation>+</div></div>	none	500.0	test	n/a	n/a	n/a	n/a	n/a	n/a	n/a	n/a	n/a	n/a	n/a	n/a	n/a	n/a	n/a	n/a	n/a	n/a	fixation
152189.54791800003	2750.0	n/a	1305	89	2750	1473.452082	stim	stop-signal	654	1713206	0.0-25.33-1.33	beast_fmri_test	269	1710473,/,1711153,/,1711832,/,1712513,/,1713192,/,1713873,/,1714552,/	t,t,t,t,t,t,t	<img class = center src='/static/experiments/beast_fmri_test/images/P.png'></img>	89,71	2750.0	test	<img class = center src='/static/experiments/beast_fmri_test/images/redP.png'></img>	go	1650.0	2.0	33.0	go	target	P	89,Yellow Button	71,Green Button	1100.0	1350.0	1650.0	1400.0	1.0	1100.0	n/a	1.0	go_stim
154939.54791800003	1473.452082	n/a	1305	89	2750	1473.452082	stim	stop-signal	654	1713206	0.0-25.33-1.33	beast_fmri_test	269	1710473,/,1711153,/,1711832,/,1712513,/,1713192,/,1713873,/,1714552,/	t,t,t,t,t,t,t	<img class = center src='/static/experiments/beast_fmri_test/images/P.png'></img>	89,71	2750.0	test	<img class = center src='/static/experiments/beast_fmri_test/images/redP.png'></img>	go	1650.0	2.0	33.0	go	target	P	89,Yellow Button	71,Green Button	1100.0	1350.0	1650.0	1400.0	1.0	1100.0	n/a	1.0	ITI
158411	500.0	n/a	-1	-1	500	0.0	fixation	poldrack-single-stim	655	1715204	0.0-25.34-0.34	beast_fmri_test	269	n/a	n/a	<div class = centerbox><div class = fixation>+</div></div>	none	500.0	test	n/a	n/a	n/a	n/a	n/a	n/a	n/a	n/a	n/a	n/a	n/a	n/a	n/a	n/a	n/a	n/a	n/a	n/a	fixation
157679.6950197001	1350.0	n/a	1496	71	2750	732.3049803	stim	stop-signal	656	1717955	0.0-25.34-1.34	beast_fmri_test	269	1715233,/,1715912,/,1716592,/,1717273,/,1717952,/,1718632,/	t,t,t,t,t,t	<img class = center src='/static/experiments/beast_fmri_test/images/B.png'></img>	89,71	2750.0	test	<img class = center src='/static/experiments/beast_fmri_test/images/redB.png'></img>	stop	1400.0	2.0	34.0	stop	non-target	B	89,Yellow Button	71,Green Button	1100.0	1350.0	1650.0	1400.0	0.0	1350.0	0.0	1.0	go_stim
159079.6950197001	1400.0	n/a	1496	71	2750	732.3049803	stim	stop-signal	656	1717955	0.0-25.34-1.34	beast_fmri_test	269	1715233,/,1715912,/,1716592,/,1717273,/,1717952,/,1718632,/	t,t,t,t,t,t	<img class = center src='/static/experiments/beast_fmri_test/images/B.png'></img>	89,71	2750.0	test	<img class = center src='/static/experiments/beast_fmri_test/images/redB.png'></img>	stop	1400.0	2.0	34.0	stop	non-target	B	89,Yellow Button	71,Green Button	1100.0	1350.0	1650.0	1400.0	0.0	1350.0	0.0	1.0	stop_stim
160429.6950197001	732.3049803	n/a	1496	71	2750	732.3049803	stim	stop-signal	656	1717955	0.0-25.34-1.34	beast_fmri_test	269	1715233,/,1715912,/,1716592,/,1717273,/,1717952,/,1718632,/	t,t,t,t,t,t	<img class = center src='/static/experiments/beast_fmri_test/images/B.png'></img>	89,71	2750.0	test	<img class = center src='/static/experiments/beast_fmri_test/images/redB.png'></img>	stop	1400.0	2.0	34.0	stop	non-target	B	89,Yellow Button	71,Green Button	1100.0	1350.0	1650.0	1400.0	0.0	1350.0	0.0	1.0	ITI
162418	500.0	n/a	-1	-1	500	0.0	fixation	poldrack-single-stim	657	1719211	0.0-25.35-0.35	beast_fmri_test	269	n/a	n/a	<div class = centerbox><div class = fixation>+</div></div>	none	500.0	test	n/a	n/a	n/a	n/a	n/a	n/a	n/a	n/a	n/a	n/a	n/a	n/a	n/a	n/a	n/a	n/a	n/a	n/a	fixation
160731.72859399999	1300.0	n/a	1437	71	2750	1687.271406	stim	stop-signal	658	1721962	0.0-25.35-1.35	beast_fmri_test	269	1719312,/,1719992,/,1720672,/,1721352,/,1722032,/,1722712,/,1723392,/	t,t,t,t,t,t,t	<img class = center src='/static/experiments/beast_fmri_test/images/T.png'></img>	89,71	2750.0	test	<img class = center src='/static/experiments/beast_fmri_test/images/redT.png'></img>	stop	1450.0	2.0	35.0	stop	non-target	T	89,Yellow Button	71,Green Button	1100.0	1300.0	1650.0	1450.0	0.0	1300.0	0.0	1.0	go_stim
162181.72859399999	1450.0	n/a	1437	71	2750	1687.271406	stim	stop-signal	658	1721962	0.0-25.35-1.35	beast_fmri_test	269	1719312,/,1719992,/,1720672,/,1721352,/,1722032,/,1722712,/,1723392,/	t,t,t,t,t,t,t	<img class = center src='/static/experiments/beast_fmri_test/images/T.png'></img>	89,71	2750.0	test	<img class = center src='/static/experiments/beast_fmri_test/images/redT.png'></img>	stop	1450.0	2.0	35.0	stop	non-target	T	89,Yellow Button	71,Green Button	1100.0	1300.0	1650.0	1450.0	0.0	1300.0	0.0	1.0	stop_stim
163481.72859399999	1687.271406	n/a	1437	71	2750	1687.271406	stim	stop-signal	658	1721962	0.0-25.35-1.35	beast_fmri_test	269	1719312,/,1719992,/,1720672,/,1721352,/,1722032,/,1722712,/,1723392,/	t,t,t,t,t,t,t	<img class = center src='/static/experiments/beast_fmri_test/images/T.png'></img>	89,71	2750.0	test	<img class = center src='/static/experiments/beast_fmri_test/images/redT.png'></img>	stop	1450.0	2.0	35.0	stop	non-target	T	89,Yellow Button	71,Green Button	1100.0	1300.0	1650.0	1450.0	0.0	1300.0	0.0	1.0	ITI
167384	500.0	n/a	-1	-1	500	0.0	fixation	poldrack-single-stim	659	1724177	0.0-25.36-0.36	beast_fmri_test	269	1724072,/	t	<div class = centerbox><div class = fixation>+</div></div>	none	500.0	test	n/a	n/a	n/a	n/a	n/a	n/a	n/a	n/a	n/a	n/a	n/a	n/a	n/a	n/a	n/a	n/a	n/a	n/a	fixation
164161.28511899989	1250.0	n/a	-1	-1	2750	3224.714881	stim	stop-signal	660	1726929	0.0-25.36-1.36	beast_fmri_test	269	1724752,/,1725432,/,1726113,/,1726792,/,1727473,/,1728152,/,1728832,/,1729512,/	t,t,t,t,t,t,t,t	<img class = center src='/static/experiments/beast_fmri_test/images/D.png'></img>	89,71	2750.0	test	<img class = center src='/static/experiments/beast_fmri_test/images/redD.png'></img>	stop	1500.0	2.0	36.0	stop	non-target	D	89,Yellow Button	71,Green Button	1100.0	1250.0	1650.0	1500.0	0.0	1250.0	1.0	0.0	go_stim
165661.28511899989	1500.0	n/a	-1	-1	2750	3224.714881	stim	stop-signal	660	1726929	0.0-25.36-1.36	beast_fmri_test	269	1724752,/,1725432,/,1726113,/,1726792,/,1727473,/,1728152,/,1728832,/,1729512,/	t,t,t,t,t,t,t,t	<img class = center src='/static/experiments/beast_fmri_test/images/D.png'></img>	89,71	2750.0	test	<img class = center src='/static/experiments/beast_fmri_test/images/redD.png'></img>	stop	1500.0	2.0	36.0	stop	non-target	D	89,Yellow Button	71,Green Button	1100.0	1250.0	1650.0	1500.0	0.0	1250.0	1.0	0.0	stop_stim
166911.28511899989	3224.714881	n/a	-1	-1	2750	3224.714881	stim	stop-signal	660	1726929	0.0-25.36-1.36	beast_fmri_test	269	1724752,/,1725432,/,1726113,/,1726792,/,1727473,/,1728152,/,1728832,/,1729512,/	t,t,t,t,t,t,t,t	<img class = center src='/static/experiments/beast_fmri_test/images/D.png'></img>	89,71	2750.0	test	<img class = center src='/static/experiments/beast_fmri_test/images/redD.png'></img>	stop	1500.0	2.0	36.0	stop	non-target	D	89,Yellow Button	71,Green Button	1100.0	1250.0	1650.0	1500.0	0.0	1250.0	1.0	0.0	ITI
173883	500.0	n/a	-1	-1	500	0.0	fixation	poldrack-single-stim	661	1730676	0.0-25.37-0.37	beast_fmri_test	269	1730192,/	t	<div class = centerbox><div class = fixation>+</div></div>	none	500.0	test	n/a	n/a	n/a	n/a	n/a	n/a	n/a	n/a	n/a	n/a	n/a	n/a	n/a	n/a	n/a	n/a	n/a	n/a	fixation
172995.15226930007	2750.0	n/a	1738	71	2750	888.8477307	stim	stop-signal	662	1733427	0.0-25.37-1.37	beast_fmri_test	269	1730872,/,1731552,/,1732232,/,1732912,/,1733591,/,1734272,/	t,t,t,t,t,t	<img class = center src='/static/experiments/beast_fmri_test/images/V.png'></img>	89,71	2750.0	test	<img class = center src='/static/experiments/beast_fmri_test/images/redV.png'></img>	go	1450.0	2.0	37.0	go	non-target	V	89,Yellow Button	71,Green Button	1100.0	1300.0	1650.0	1450.0	1.0	1300.0	n/a	1.0	go_stim
175745.15226930007	888.8477307	n/a	1738	71	2750	888.8477307	stim	stop-signal	662	1733427	0.0-25.37-1.37	beast_fmri_test	269	1730872,/,1731552,/,1732232,/,1732912,/,1733591,/,1734272,/	t,t,t,t,t,t	<img class = center src='/static/experiments/beast_fmri_test/images/V.png'></img>	89,71	2750.0	test	<img class = center src='/static/experiments/beast_fmri_test/images/redV.png'></img>	go	1450.0	2.0	37.0	go	non-target	V	89,Yellow Button	71,Green Button	1100.0	1300.0	1650.0	1450.0	1.0	1300.0	n/a	1.0	ITI
178050	500.0	n/a	-1	-1	500	0.0	fixation	poldrack-single-stim	663	1734843	0.0-25.38-0.38	beast_fmri_test	269	n/a	n/a	<div class = centerbox><div class = fixation>+</div></div>	none	500.0	test	n/a	n/a	n/a	n/a	n/a	n/a	n/a	n/a	n/a	n/a	n/a	n/a	n/a	n/a	n/a	n/a	n/a	n/a	fixation
177610.0205153001	2750.0	n/a	2081	89	2750	441.9794847	stim	stop-signal	664	1737595	0.0-25.38-1.38	beast_fmri_test	269	1734952,/,1735632,/,1736312,/,1736992,/,1737672,/	t,t,t,t,t	<img class = center src='/static/experiments/beast_fmri_test/images/T.png'></img>	89,71	2750.0	test	<img class = center src='/static/experiments/beast_fmri_test/images/redT.png'></img>	go	1450.0	2.0	38.0	go	non-target	T	89,Yellow Button	71,Green Button	1100.0	1300.0	1650.0	1450.0	0.0	1300.0	n/a	0.0	go_stim
180360.0205153001	441.9794847	n/a	2081	89	2750	441.9794847	stim	stop-signal	664	1737595	0.0-25.38-1.38	beast_fmri_test	269	1734952,/,1735632,/,1736312,/,1736992,/,1737672,/	t,t,t,t,t	<img class = center src='/static/experiments/beast_fmri_test/images/T.png'></img>	89,71	2750.0	test	<img class = center src='/static/experiments/beast_fmri_test/images/redT.png'></img>	go	1450.0	2.0	38.0	go	non-target	T	89,Yellow Button	71,Green Button	1100.0	1300.0	1650.0	1450.0	0.0	1300.0	n/a	0.0	ITI
181766	500.0	n/a	-1	-1	500	0.0	fixation	poldrack-single-stim	665	1738559	0.0-25.39-0.39	beast_fmri_test	269	1738353,/	t	<div class = centerbox><div class = fixation>+</div></div>	none	500.0	test	n/a	n/a	n/a	n/a	n/a	n/a	n/a	n/a	n/a	n/a	n/a	n/a	n/a	n/a	n/a	n/a	n/a	n/a	fixation
181013.74420100008	2750.0	n/a	1810	71	2750	753.255799	stim	stop-signal	666	1741310	0.0-25.39-1.39	beast_fmri_test	269	1739033,/,1739713,/,1740393,/,1741073,/,1741753,/	t,t,t,t,t	<img class = center src='/static/experiments/beast_fmri_test/images/B.png'></img>	89,71	2750.0	test	<img class = center src='/static/experiments/beast_fmri_test/images/redB.png'></img>	go	1450.0	2.0	39.0	go	non-target	B	89,Yellow Button	71,Green Button	1100.0	1300.0	1650.0	1450.0	1.0	1300.0	n/a	1.0	go_stim
183763.74420100008	753.255799	n/a	1810	71	2750	753.255799	stim	stop-signal	666	1741310	0.0-25.39-1.39	beast_fmri_test	269	1739033,/,1739713,/,1740393,/,1741073,/,1741753,/	t,t,t,t,t	<img class = center src='/static/experiments/beast_fmri_test/images/B.png'></img>	89,71	2750.0	test	<img class = center src='/static/experiments/beast_fmri_test/images/redB.png'></img>	go	1450.0	2.0	39.0	go	non-target	B	89,Yellow Button	71,Green Button	1100.0	1300.0	1650.0	1450.0	1.0	1300.0	n/a	1.0	ITI
185795	500.0	n/a	-1	-1	500	0.0	fixation	poldrack-single-stim	667	1742588	0.0-25.40-0.40	beast_fmri_test	269	1742433,/	t	<div class = centerbox><div class = fixation>+</div></div>	none	500.0	test	n/a	n/a	n/a	n/a	n/a	n/a	n/a	n/a	n/a	n/a	n/a	n/a	n/a	n/a	n/a	n/a	n/a	n/a	fixation
185616.38628800004	2750.0	n/a	1520	71	2750	179.613712	stim	stop-signal	668	1745339	0.0-25.40-1.40	beast_fmri_test	269	1743113,/,1743793,/,1744473,/,1745153,/	t,t,t,t	<img class = center src='/static/experiments/beast_fmri_test/images/V.png'></img>	89,71	2750.0	test	<img class = center src='/static/experiments/beast_fmri_test/images/redV.png'></img>	go	1450.0	2.0	40.0	go	non-target	V	89,Yellow Button	71,Green Button	1100.0	1300.0	1650.0	1450.0	1.0	1300.0	n/a	1.0	go_stim
188366.38628800004	179.613712	n/a	1520	71	2750	179.613712	stim	stop-signal	668	1745339	0.0-25.40-1.40	beast_fmri_test	269	1743113,/,1743793,/,1744473,/,1745153,/	t,t,t,t	<img class = center src='/static/experiments/beast_fmri_test/images/V.png'></img>	89,71	2750.0	test	<img class = center src='/static/experiments/beast_fmri_test/images/redV.png'></img>	go	1450.0	2.0	40.0	go	non-target	V	89,Yellow Button	71,Green Button	1100.0	1300.0	1650.0	1450.0	1.0	1300.0	n/a	1.0	ITI
189248	500.0	n/a	-1	-1	500	0.0	fixation	poldrack-single-stim	669	1746041	0.0-25.41-0.41	beast_fmri_test	269	1745833,/	t	<div class = centerbox><div class = fixation>+</div></div>	none	500.0	test	n/a	n/a	n/a	n/a	n/a	n/a	n/a	n/a	n/a	n/a	n/a	n/a	n/a	n/a	n/a	n/a	n/a	n/a	fixation
188460.32118039997	1100.0	n/a	-1	-1	2750	788.6788196	stim	stop-signal	670	1748792	0.0-25.41-1.41	beast_fmri_test	269	1746513,/,1747192,/,1747873,/,1748552,/,1749233,/	t,t,t,t,t	<img class = center src='/static/experiments/beast_fmri_test/images/B.png'></img>	89,71	2750.0	test	<img class = center src='/static/experiments/beast_fmri_test/images/redB.png'></img>	stop	1650.0	2.0	41.0	stop	target	B	89,Yellow Button	71,Green Button	1100.0	1300.0	1650.0	1450.0	0.0	1100.0	1.0	0.0	go_stim
190110.32118039997	1650.0	n/a	-1	-1	2750	788.6788196	stim	stop-signal	670	1748792	0.0-25.41-1.41	beast_fmri_test	269	1746513,/,1747192,/,1747873,/,1748552,/,1749233,/	t,t,t,t,t	<img class = center src='/static/experiments/beast_fmri_test/images/B.png'></img>	89,71	2750.0	test	<img class = center src='/static/experiments/beast_fmri_test/images/redB.png'></img>	stop	1650.0	2.0	41.0	stop	target	B	89,Yellow Button	71,Green Button	1100.0	1300.0	1650.0	1450.0	0.0	1100.0	1.0	0.0	stop_stim
191210.32118039997	788.6788196	n/a	-1	-1	2750	788.6788196	stim	stop-signal	670	1748792	0.0-25.41-1.41	beast_fmri_test	269	1746513,/,1747192,/,1747873,/,1748552,/,1749233,/	t,t,t,t,t	<img class = center src='/static/experiments/beast_fmri_test/images/B.png'></img>	89,71	2750.0	test	<img class = center src='/static/experiments/beast_fmri_test/images/redB.png'></img>	stop	1650.0	2.0	41.0	stop	target	B	89,Yellow Button	71,Green Button	1100.0	1300.0	1650.0	1450.0	0.0	1100.0	1.0	0.0	ITI
193311	500.0	n/a	-1	-1	500	0.0	fixation	poldrack-single-stim	671	1750104	0.0-25.42-0.42	beast_fmri_test	269	1749913,/	t	<div class = centerbox><div class = fixation>+</div></div>	none	500.0	test	n/a	n/a	n/a	n/a	n/a	n/a	n/a	n/a	n/a	n/a	n/a	n/a	n/a	n/a	n/a	n/a	n/a	n/a	fixation
192760.82707899995	1300.0	n/a	-1	-1	2750	552.172921	stim	stop-signal	672	1752856	0.0-25.42-1.42	beast_fmri_test	269	1750593,/,1751272,/,1751952,/,1752632,/,1753312,/	t,t,t,t,t	<img class = center src='/static/experiments/beast_fmri_test/images/D.png'></img>	89,71	2750.0	test	<img class = center src='/static/experiments/beast_fmri_test/images/redD.png'></img>	stop	1450.0	2.0	42.0	stop	non-target	D	89,Yellow Button	71,Green Button	1150.0	1300.0	1650.0	1450.0	0.0	1300.0	1.0	0.0	go_stim
194210.82707899995	1450.0	n/a	-1	-1	2750	552.172921	stim	stop-signal	672	1752856	0.0-25.42-1.42	beast_fmri_test	269	1750593,/,1751272,/,1751952,/,1752632,/,1753312,/	t,t,t,t,t	<img class = center src='/static/experiments/beast_fmri_test/images/D.png'></img>	89,71	2750.0	test	<img class = center src='/static/experiments/beast_fmri_test/images/redD.png'></img>	stop	1450.0	2.0	42.0	stop	non-target	D	89,Yellow Button	71,Green Button	1150.0	1300.0	1650.0	1450.0	0.0	1300.0	1.0	0.0	stop_stim
195510.82707899995	552.172921	n/a	-1	-1	2750	552.172921	stim	stop-signal	672	1752856	0.0-25.42-1.42	beast_fmri_test	269	1750593,/,1751272,/,1751952,/,1752632,/,1753312,/	t,t,t,t,t	<img class = center src='/static/experiments/beast_fmri_test/images/D.png'></img>	89,71	2750.0	test	<img class = center src='/static/experiments/beast_fmri_test/images/redD.png'></img>	stop	1450.0	2.0	42.0	stop	non-target	D	89,Yellow Button	71,Green Button	1150.0	1300.0	1650.0	1450.0	0.0	1300.0	1.0	0.0	ITI
197140	500.0	n/a	-1	-1	500	0.0	fixation	poldrack-single-stim	673	1753933	0.0-25.43-0.43	beast_fmri_test	269	n/a	n/a	<div class = centerbox><div class = fixation>+</div></div>	none	500.0	test	n/a	n/a	n/a	n/a	n/a	n/a	n/a	n/a	n/a	n/a	n/a	n/a	n/a	n/a	n/a	n/a	n/a	n/a	fixation
196745.93475880008	2750.0	n/a	1660	71	2750	395.0652412	stim	stop-signal	674	1756684	0.0-25.43-1.43	beast_fmri_test	269	1753992,/,1754672,/,1755352,/,1756032,/,1756712,/	t,t,t,t,t	<img class = center src='/static/experiments/beast_fmri_test/images/V.png'></img>	89,71	2750.0	test	<img class = center src='/static/experiments/beast_fmri_test/images/redV.png'></img>	go	1400.0	2.0	43.0	go	non-target	V	89,Yellow Button	71,Green Button	1150.0	1350.0	1650.0	1400.0	1.0	1350.0	n/a	1.0	go_stim
199495.93475880008	395.0652412	n/a	1660	71	2750	395.0652412	stim	stop-signal	674	1756684	0.0-25.43-1.43	beast_fmri_test	269	1753992,/,1754672,/,1755352,/,1756032,/,1756712,/	t,t,t,t,t	<img class = center src='/static/experiments/beast_fmri_test/images/V.png'></img>	89,71	2750.0	test	<img class = center src='/static/experiments/beast_fmri_test/images/redV.png'></img>	go	1400.0	2.0	43.0	go	non-target	V	89,Yellow Button	71,Green Button	1150.0	1350.0	1650.0	1400.0	1.0	1350.0	n/a	1.0	ITI
200813	500.0	n/a	-1	-1	500	0.0	fixation	poldrack-single-stim	675	1757606	0.0-25.44-0.44	beast_fmri_test	269	1757392,/	t	<div class = centerbox><div class = fixation>+</div></div>	none	500.0	test	n/a	n/a	n/a	n/a	n/a	n/a	n/a	n/a	n/a	n/a	n/a	n/a	n/a	n/a	n/a	n/a	n/a	n/a	fixation
200682.89337410009	1350.0	n/a	1331	71	2750	131.1066259	stim	stop-signal	676	1760357	0.0-25.44-1.44	beast_fmri_test	269	1758074,/,1758752,/,1759432,/,1760112,/	t,t,t,t	<img class = center src='/static/experiments/beast_fmri_test/images/P.png'></img>	89,71	2750.0	test	<img class = center src='/static/experiments/beast_fmri_test/images/redP.png'></img>	stop	1400.0	2.0	44.0	stop	non-target	P	89,Yellow Button	71,Green Button	1150.0	1350.0	1650.0	1400.0	0.0	1350.0	0.0	1.0	go_stim
202082.89337410009	1400.0	n/a	1331	71	2750	131.1066259	stim	stop-signal	676	1760357	0.0-25.44-1.44	beast_fmri_test	269	1758074,/,1758752,/,1759432,/,1760112,/	t,t,t,t	<img class = center src='/static/experiments/beast_fmri_test/images/P.png'></img>	89,71	2750.0	test	<img class = center src='/static/experiments/beast_fmri_test/images/redP.png'></img>	stop	1400.0	2.0	44.0	stop	non-target	P	89,Yellow Button	71,Green Button	1150.0	1350.0	1650.0	1400.0	0.0	1350.0	0.0	1.0	stop_stim
203432.89337410009	131.1066259	n/a	1331	71	2750	131.1066259	stim	stop-signal	676	1760357	0.0-25.44-1.44	beast_fmri_test	269	1758074,/,1758752,/,1759432,/,1760112,/	t,t,t,t	<img class = center src='/static/experiments/beast_fmri_test/images/P.png'></img>	89,71	2750.0	test	<img class = center src='/static/experiments/beast_fmri_test/images/redP.png'></img>	stop	1400.0	2.0	44.0	stop	non-target	P	89,Yellow Button	71,Green Button	1150.0	1350.0	1650.0	1400.0	0.0	1350.0	0.0	1.0	ITI
204218	500.0	n/a	-1	-1	500	0.0	fixation	poldrack-single-stim	677	1761011	0.0-25.45-0.45	beast_fmri_test	269	1760792,/	t	<div class = centerbox><div class = fixation>+</div></div>	none	500.0	test	n/a	n/a	n/a	n/a	n/a	n/a	n/a	n/a	n/a	n/a	n/a	n/a	n/a	n/a	n/a	n/a	n/a	n/a	fixation
202951.76684599998	2750.0	n/a	1404	89	2750	1268.233154	stim	stop-signal	678	1763763	0.0-25.45-1.45	beast_fmri_test	269	1761472,/,1762152,/,1762832,/,1763512,/,1764192,/,1764872,/	t,t,t,t,t,t	<img class = center src='/static/experiments/beast_fmri_test/images/V.png'></img>	89,71	2750.0	test	<img class = center src='/static/experiments/beast_fmri_test/images/redV.png'></img>	go	1600.0	2.0	45.0	go	target	V	89,Yellow Button	71,Green Button	1150.0	1300.0	1600.0	1400.0	1.0	1150.0	n/a	1.0	go_stim
205701.76684599998	1268.233154	n/a	1404	89	2750	1268.233154	stim	stop-signal	678	1763763	0.0-25.45-1.45	beast_fmri_test	269	1761472,/,1762152,/,1762832,/,1763512,/,1764192,/,1764872,/	t,t,t,t,t,t	<img class = center src='/static/experiments/beast_fmri_test/images/V.png'></img>	89,71	2750.0	test	<img class = center src='/static/experiments/beast_fmri_test/images/redV.png'></img>	go	1600.0	2.0	45.0	go	target	V	89,Yellow Button	71,Green Button	1150.0	1300.0	1600.0	1400.0	1.0	1150.0	n/a	1.0	ITI
208763	500.0	n/a	-1	-1	500	0.0	fixation	poldrack-single-stim	679	1765556	0.0-25.46-0.46	beast_fmri_test	269	1765552,/	t	<div class = centerbox><div class = fixation>+</div></div>	none	500.0	test	n/a	n/a	n/a	n/a	n/a	n/a	n/a	n/a	n/a	n/a	n/a	n/a	n/a	n/a	n/a	n/a	n/a	n/a	fixation
206145.6862900001	2750.0	n/a	1432	71	2750	2619.31371	stim	stop-signal	680	1768308	0.0-25.46-1.46	beast_fmri_test	269	1766232,/,1766912,/,1767592,/,1768273,/,1768952,/,1769632,/,1770312,/	t,t,t,t,t,t,t	<img class = center src='/static/experiments/beast_fmri_test/images/B.png'></img>	89,71	2750.0	test	<img class = center src='/static/experiments/beast_fmri_test/images/redB.png'></img>	go	1450.0	2.0	46.0	go	non-target	B	89,Yellow Button	71,Green Button	1150.0	1300.0	1600.0	1450.0	1.0	1300.0	n/a	1.0	go_stim
208895.6862900001	2619.31371	n/a	1432	71	2750	2619.31371	stim	stop-signal	680	1768308	0.0-25.46-1.46	beast_fmri_test	269	1766232,/,1766912,/,1767592,/,1768273,/,1768952,/,1769632,/,1770312,/	t,t,t,t,t,t,t	<img class = center src='/static/experiments/beast_fmri_test/images/B.png'></img>	89,71	2750.0	test	<img class = center src='/static/experiments/beast_fmri_test/images/redB.png'></img>	go	1450.0	2.0	46.0	go	non-target	B	89,Yellow Button	71,Green Button	1150.0	1300.0	1600.0	1450.0	1.0	1300.0	n/a	1.0	ITI
229161	15000.0	n/a	-1	-1	15000	0.0	practice-no-stop-feedback	poldrack-single-stim	681	1785954	0.0-26.0	beast_fmri_test	269	1770992,/,1771672,/,1772353,/,1773032,/,1773713,/,1774393,/,1775072,/,1775753,/,1776433,/,1777113,/,1777792,/,1778474,/,1779153,/,1779833,/,1780512,/,1781192,/,1781873,/,1782552,/,1783233,/,1783913,/,1784592,/,1785272,/,1785952,/	t,t,t,t,t,t,t,t,t,t,t,t,t,t,t,t,t,t,t,t,t,t,t	"<div class = ""centerbox""><p class = ""center-block-text"">Your delay is 3 trials.</p><p class = center-block-text>Please wait for the scanner to start the block</p></div>"	77	15000.0	n/a	n/a	n/a	n/a	n/a	n/a	n/a	n/a	n/a	n/a	n/a	n/a	n/a	n/a	n/a	n/a	n/a	n/a	n/a	practice-no-stop-feedback
229662	500.0	n/a	-1	-1	500	0.0	fixation	poldrack-single-stim	682	1786455	0.0-27.0-0.0	beast_fmri_test	269	n/a	n/a	<div class = centerbox><div class = fixation>+</div></div>	none	500.0	test	n/a	n/a	n/a	n/a	n/a	n/a	n/a	n/a	n/a	n/a	n/a	n/a	n/a	n/a	n/a	n/a	n/a	n/a	fixation
229316.38742900011	2750.0	n/a	803	71	2750	346.612571	stim	stop-signal	683	1789206	0.0-27.0-1.0	beast_fmri_test	269	1786633,/,1787312,/,1787993,/,1788673,/,1789352,/	t,t,t,t,t	<img class = center src='/static/experiments/beast_fmri_test/images/T.png'></img>	89,71	2750.0	test	<img class = center src='/static/experiments/beast_fmri_test/images/redT.png'></img>	go	-1.0	3.0	0.0	go	temp-non-target	T	89,Yellow Button	71,Green Button	1150.0	1300.0	1600.0	1450.0	0.0	n/a	n/a	n/a	go_stim
232066.38742900011	346.612571	n/a	803	71	2750	346.612571	stim	stop-signal	683	1789206	0.0-27.0-1.0	beast_fmri_test	269	1786633,/,1787312,/,1787993,/,1788673,/,1789352,/	t,t,t,t,t	<img class = center src='/static/experiments/beast_fmri_test/images/T.png'></img>	89,71	2750.0	test	<img class = center src='/static/experiments/beast_fmri_test/images/redT.png'></img>	go	-1.0	3.0	0.0	go	temp-non-target	T	89,Yellow Button	71,Green Button	1150.0	1300.0	1600.0	1450.0	0.0	n/a	n/a	n/a	ITI
233285	500.0	n/a	-1	-1	500	0.0	fixation	poldrack-single-stim	684	1790078	0.0-27.1-0.1	beast_fmri_test	269	1790032,/	t	<div class = centerbox><div class = fixation>+</div></div>	none	500.0	test	n/a	n/a	n/a	n/a	n/a	n/a	n/a	n/a	n/a	n/a	n/a	n/a	n/a	n/a	n/a	n/a	n/a	n/a	fixation
232029.81301899999	2750.0	n/a	1107	71	2750	1257.186981	stim	stop-signal	685	1792830	0.0-27.1-1.1	beast_fmri_test	269	1790713,/,1791392,/,1792072,/,1792752,/,1793432,/	t,t,t,t,t	<img class = center src='/static/experiments/beast_fmri_test/images/V.png'></img>	89,71	2750.0	test	<img class = center src='/static/experiments/beast_fmri_test/images/redV.png'></img>	go	-1.0	3.0	1.0	go	temp-non-target	V	89,Yellow Button	71,Green Button	1150.0	1300.0	1600.0	1450.0	0.0	n/a	n/a	n/a	go_stim
234779.81301899999	1257.186981	n/a	1107	71	2750	1257.186981	stim	stop-signal	685	1792830	0.0-27.1-1.1	beast_fmri_test	269	1790713,/,1791392,/,1792072,/,1792752,/,1793432,/	t,t,t,t,t	<img class = center src='/static/experiments/beast_fmri_test/images/V.png'></img>	89,71	2750.0	test	<img class = center src='/static/experiments/beast_fmri_test/images/redV.png'></img>	go	-1.0	3.0	1.0	go	temp-non-target	V	89,Yellow Button	71,Green Button	1150.0	1300.0	1600.0	1450.0	0.0	n/a	n/a	n/a	ITI
237819	500.0	n/a	-1	-1	500	0.0	fixation	poldrack-single-stim	686	1794612	0.0-27.2-0.2	beast_fmri_test	269	1794112,/	t	<div class = centerbox><div class = fixation>+</div></div>	none	500.0	test	n/a	n/a	n/a	n/a	n/a	n/a	n/a	n/a	n/a	n/a	n/a	n/a	n/a	n/a	n/a	n/a	n/a	n/a	fixation
237708.02010770002	2750.0	n/a	1462	71	2750	112.9798923	stim	stop-signal	687	1797364	0.0-27.2-1.2	beast_fmri_test	269	1794792,/,1795472,/,1796152,/,1796832,/	t,t,t,t	<img class = center src='/static/experiments/beast_fmri_test/images/P.png'></img>	89,71	2750.0	test	<img class = center src='/static/experiments/beast_fmri_test/images/redP.png'></img>	go	-1.0	3.0	2.0	go	temp-non-target	P	89,Yellow Button	71,Green Button	1150.0	1300.0	1600.0	1450.0	0.0	n/a	n/a	n/a	go_stim
240458.02010770002	112.9798923	n/a	1462	71	2750	112.9798923	stim	stop-signal	687	1797364	0.0-27.2-1.2	beast_fmri_test	269	1794792,/,1795472,/,1796152,/,1796832,/	t,t,t,t	<img class = center src='/static/experiments/beast_fmri_test/images/P.png'></img>	89,71	2750.0	test	<img class = center src='/static/experiments/beast_fmri_test/images/redP.png'></img>	go	-1.0	3.0	2.0	go	temp-non-target	P	89,Yellow Button	71,Green Button	1150.0	1300.0	1600.0	1450.0	0.0	n/a	n/a	n/a	ITI
241207	500.0	n/a	-1	-1	500	0.0	fixation	poldrack-single-stim	688	1798000	0.0-27.3-0.3	beast_fmri_test	269	1797512,/	t	<div class = centerbox><div class = fixation>+</div></div>	none	500.0	test	n/a	n/a	n/a	n/a	n/a	n/a	n/a	n/a	n/a	n/a	n/a	n/a	n/a	n/a	n/a	n/a	n/a	n/a	fixation
240207.93418699992	2750.0	n/a	1224	89	2750	1000.065813	stim	stop-signal	689	1800751	0.0-27.3-1.3	beast_fmri_test	269	1798192,/,1798873,/,1799552,/,1800232,/,1800912,/,1801592,/	t,t,t,t,t,t	<img class = center src='/static/experiments/beast_fmri_test/images/T.png'></img>	89,71	2750.0	test	<img class = center src='/static/experiments/beast_fmri_test/images/redT.png'></img>	go	1600.0	3.0	3.0	go	target	T	89,Yellow Button	71,Green Button	1150.0	1300.0	1600.0	1450.0	1.0	1150.0	n/a	1.0	go_stim
242957.93418699992	1000.065813	n/a	1224	89	2750	1000.065813	stim	stop-signal	689	1800751	0.0-27.3-1.3	beast_fmri_test	269	1798192,/,1798873,/,1799552,/,1800232,/,1800912,/,1801592,/	t,t,t,t,t,t	<img class = center src='/static/experiments/beast_fmri_test/images/T.png'></img>	89,71	2750.0	test	<img class = center src='/static/experiments/beast_fmri_test/images/redT.png'></img>	go	1600.0	3.0	3.0	go	target	T	89,Yellow Button	71,Green Button	1150.0	1300.0	1600.0	1450.0	1.0	1150.0	n/a	1.0	ITI
245482	500.0	n/a	-1	-1	500	0.0	fixation	poldrack-single-stim	690	1802275	0.0-27.4-0.4	beast_fmri_test	269	1802272,/	t	<div class = centerbox><div class = fixation>+</div></div>	none	500.0	test	n/a	n/a	n/a	n/a	n/a	n/a	n/a	n/a	n/a	n/a	n/a	n/a	n/a	n/a	n/a	n/a	n/a	n/a	fixation
245295.2430871001	2750.0	n/a	1205	71	2750	187.7569129	stim	stop-signal	691	1805026	0.0-27.4-1.4	beast_fmri_test	269	1802952,/,1803632,/,1804312,/,1804992,/	t,t,t,t	<img class = center src='/static/experiments/beast_fmri_test/images/D.png'></img>	89,71	2750.0	test	<img class = center src='/static/experiments/beast_fmri_test/images/redD.png'></img>	go	1450.0	3.0	4.0	go	non-target	D	89,Yellow Button	71,Green Button	1150.0	1300.0	1600.0	1450.0	1.0	1300.0	n/a	1.0	go_stim
248045.2430871001	187.7569129	n/a	1205	71	2750	187.7569129	stim	stop-signal	691	1805026	0.0-27.4-1.4	beast_fmri_test	269	1802952,/,1803632,/,1804312,/,1804992,/	t,t,t,t	<img class = center src='/static/experiments/beast_fmri_test/images/D.png'></img>	89,71	2750.0	test	<img class = center src='/static/experiments/beast_fmri_test/images/redD.png'></img>	go	1450.0	3.0	4.0	go	non-target	D	89,Yellow Button	71,Green Button	1150.0	1300.0	1600.0	1450.0	1.0	1300.0	n/a	1.0	ITI
248947	500.0	n/a	-1	-1	500	0.0	fixation	poldrack-single-stim	692	1805740	0.0-27.5-0.5	beast_fmri_test	269	1805674,/	t	<div class = centerbox><div class = fixation>+</div></div>	none	500.0	test	n/a	n/a	n/a	n/a	n/a	n/a	n/a	n/a	n/a	n/a	n/a	n/a	n/a	n/a	n/a	n/a	n/a	n/a	fixation
248297.89905699994	2750.0	n/a	1240	89	2750	651.100943	stim	stop-signal	693	1808492	0.0-27.5-1.5	beast_fmri_test	269	1806353,/,1807033,/,1807713,/,1808393,/,1809073,/	t,t,t,t,t	<img class = center src='/static/experiments/beast_fmri_test/images/P.png'></img>	89,71	2750.0	test	<img class = center src='/static/experiments/beast_fmri_test/images/redP.png'></img>	go	1600.0	3.0	5.0	go	target	P	89,Yellow Button	71,Green Button	1150.0	1300.0	1600.0	1450.0	1.0	1150.0	n/a	1.0	go_stim
251047.89905699994	651.100943	n/a	1240	89	2750	651.100943	stim	stop-signal	693	1808492	0.0-27.5-1.5	beast_fmri_test	269	1806353,/,1807033,/,1807713,/,1808393,/,1809073,/	t,t,t,t,t	<img class = center src='/static/experiments/beast_fmri_test/images/P.png'></img>	89,71	2750.0	test	<img class = center src='/static/experiments/beast_fmri_test/images/redP.png'></img>	go	1600.0	3.0	5.0	go	target	P	89,Yellow Button	71,Green Button	1150.0	1300.0	1600.0	1450.0	1.0	1150.0	n/a	1.0	ITI
252880	500.0	n/a	-1	-1	500	0.0	fixation	poldrack-single-stim	694	1809673	0.0-27.6-0.6	beast_fmri_test	269	n/a	n/a	<div class = centerbox><div class = fixation>+</div></div>	none	500.0	test	n/a	n/a	n/a	n/a	n/a	n/a	n/a	n/a	n/a	n/a	n/a	n/a	n/a	n/a	n/a	n/a	n/a	n/a	fixation
252373.64498590003	2750.0	n/a	2217	89	2750	508.3550141	stim	stop-signal	695	1812425	0.0-27.6-1.6	beast_fmri_test	269	1809753,/,1810433,/,1811113,/,1811792,/,1812472,/	t,t,t,t,t	<img class = center src='/static/experiments/beast_fmri_test/images/D.png'></img>	89,71	2750.0	test	<img class = center src='/static/experiments/beast_fmri_test/images/redD.png'></img>	go	1450.0	3.0	6.0	go	non-target	D	89,Yellow Button	71,Green Button	1150.0	1300.0	1600.0	1450.0	0.0	1300.0	n/a	0.0	go_stim
255123.64498590003	508.3550141	n/a	2217	89	2750	508.3550141	stim	stop-signal	695	1812425	0.0-27.6-1.6	beast_fmri_test	269	1809753,/,1810433,/,1811113,/,1811792,/,1812472,/	t,t,t,t,t	<img class = center src='/static/experiments/beast_fmri_test/images/D.png'></img>	89,71	2750.0	test	<img class = center src='/static/experiments/beast_fmri_test/images/redD.png'></img>	go	1450.0	3.0	6.0	go	non-target	D	89,Yellow Button	71,Green Button	1150.0	1300.0	1600.0	1450.0	0.0	1300.0	n/a	0.0	ITI
256666	500.0	n/a	-1	-1	500	0.0	fixation	poldrack-single-stim	696	1813459	0.0-27.7-0.7	beast_fmri_test	269	1813153,/	t	<div class = centerbox><div class = fixation>+</div></div>	none	500.0	test	n/a	n/a	n/a	n/a	n/a	n/a	n/a	n/a	n/a	n/a	n/a	n/a	n/a	n/a	n/a	n/a	n/a	n/a	fixation
256298.38672620011	2750.0	n/a	1179	71	2750	368.6132738	stim	stop-signal	697	1816210	0.0-27.7-1.7	beast_fmri_test	269	1813833,/,1814513,/,1815192,/,1815872,/,1816552,/	t,t,t,t,t	<img class = center src='/static/experiments/beast_fmri_test/images/D.png'></img>	89,71	2750.0	test	<img class = center src='/static/experiments/beast_fmri_test/images/redD.png'></img>	go	1600.0	3.0	7.0	go	target	D	89,Yellow Button	71,Green Button	1150.0	1300.0	1600.0	1450.0	0.0	1150.0	n/a	0.0	go_stim
259048.38672620011	368.6132738	n/a	1179	71	2750	368.6132738	stim	stop-signal	697	1816210	0.0-27.7-1.7	beast_fmri_test	269	1813833,/,1814513,/,1815192,/,1815872,/,1816552,/	t,t,t,t,t	<img class = center src='/static/experiments/beast_fmri_test/images/D.png'></img>	89,71	2750.0	test	<img class = center src='/static/experiments/beast_fmri_test/images/redD.png'></img>	go	1600.0	3.0	7.0	go	target	D	89,Yellow Button	71,Green Button	1150.0	1300.0	1600.0	1450.0	0.0	1150.0	n/a	0.0	ITI
260310	500.0	n/a	-1	-1	500	0.0	fixation	poldrack-single-stim	698	1817103	0.0-27.8-0.8	beast_fmri_test	269	n/a	n/a	<div class = centerbox><div class = fixation>+</div></div>	none	500.0	test	n/a	n/a	n/a	n/a	n/a	n/a	n/a	n/a	n/a	n/a	n/a	n/a	n/a	n/a	n/a	n/a	n/a	n/a	fixation
260305.20827320591	2750.0	n/a	1591	71	2750	6.791726794	stim	stop-signal	699	1819855	0.0-27.8-1.8	beast_fmri_test	269	1817232,/,1817913,/,1818592,/,1819273,/	t,t,t,t	<img class = center src='/static/experiments/beast_fmri_test/images/P.png'></img>	89,71	2750.0	test	<img class = center src='/static/experiments/beast_fmri_test/images/redP.png'></img>	go	1600.0	3.0	8.0	go	target	P	89,Yellow Button	71,Green Button	1150.0	1300.0	1600.0	1450.0	0.0	1150.0	n/a	0.0	go_stim
263055.20827320591	6.791726794	n/a	1591	71	2750	6.791726794	stim	stop-signal	699	1819855	0.0-27.8-1.8	beast_fmri_test	269	1817232,/,1817913,/,1818592,/,1819273,/	t,t,t,t	<img class = center src='/static/experiments/beast_fmri_test/images/P.png'></img>	89,71	2750.0	test	<img class = center src='/static/experiments/beast_fmri_test/images/redP.png'></img>	go	1600.0	3.0	8.0	go	target	P	89,Yellow Button	71,Green Button	1150.0	1300.0	1600.0	1450.0	0.0	1150.0	n/a	0.0	ITI
263590	500.0	n/a	-1	-1	500	0.0	fixation	poldrack-single-stim	700	1820383	0.0-27.9-0.9	beast_fmri_test	269	1819953,/	t	<div class = centerbox><div class = fixation>+</div></div>	none	500.0	test	n/a	n/a	n/a	n/a	n/a	n/a	n/a	n/a	n/a	n/a	n/a	n/a	n/a	n/a	n/a	n/a	n/a	n/a	fixation
262580.19260299997	1300.0	n/a	-1	-1	2750	1011.807397	stim	stop-signal	701	1823135	0.0-27.9-1.9	beast_fmri_test	269	1820632,/,1821312,/,1821992,/,1822672,/,1823352,/,1824032,/	t,t,t,t,t,t	<img class = center src='/static/experiments/beast_fmri_test/images/V.png'></img>	89,71	2750.0	test	<img class = center src='/static/experiments/beast_fmri_test/images/redV.png'></img>	stop	1450.0	3.0	9.0	stop	non-target	V	89,Yellow Button	71,Green Button	1150.0	1300.0	1600.0	1450.0	0.0	1300.0	1.0	0.0	go_stim
264030.19260299997	1450.0	n/a	-1	-1	2750	1011.807397	stim	stop-signal	701	1823135	0.0-27.9-1.9	beast_fmri_test	269	1820632,/,1821312,/,1821992,/,1822672,/,1823352,/,1824032,/	t,t,t,t,t,t	<img class = center src='/static/experiments/beast_fmri_test/images/V.png'></img>	89,71	2750.0	test	<img class = center src='/static/experiments/beast_fmri_test/images/redV.png'></img>	stop	1450.0	3.0	9.0	stop	non-target	V	89,Yellow Button	71,Green Button	1150.0	1300.0	1600.0	1450.0	0.0	1300.0	1.0	0.0	stop_stim
265330.19260299997	1011.807397	n/a	-1	-1	2750	1011.807397	stim	stop-signal	701	1823135	0.0-27.9-1.9	beast_fmri_test	269	1820632,/,1821312,/,1821992,/,1822672,/,1823352,/,1824032,/	t,t,t,t,t,t	<img class = center src='/static/experiments/beast_fmri_test/images/V.png'></img>	89,71	2750.0	test	<img class = center src='/static/experiments/beast_fmri_test/images/redV.png'></img>	stop	1450.0	3.0	9.0	stop	non-target	V	89,Yellow Button	71,Green Button	1150.0	1300.0	1600.0	1450.0	0.0	1300.0	1.0	0.0	ITI
267880	500.0	n/a	-1	-1	500	0.0	fixation	poldrack-single-stim	702	1824673	0.0-27.10-0.10	beast_fmri_test	269	n/a	n/a	<div class = centerbox><div class = fixation>+</div></div>	none	500.0	test	n/a	n/a	n/a	n/a	n/a	n/a	n/a	n/a	n/a	n/a	n/a	n/a	n/a	n/a	n/a	n/a	n/a	n/a	fixation
267141.49871250009	2750.0	n/a	1256	71	2750	739.5012875	stim	stop-signal	703	1827424	0.0-27.10-1.10	beast_fmri_test	269	1824712,/,1825392,/,1826072,/,1826752,/,1827432,/,1828112,/	t,t,t,t,t,t	<img class = center src='/static/experiments/beast_fmri_test/images/P.png'></img>	89,71	2750.0	test	<img class = center src='/static/experiments/beast_fmri_test/images/redP.png'></img>	go	1400.0	3.0	10.0	go	non-target	P	89,Yellow Button	71,Green Button	1150.0	1350.0	1600.0	1400.0	1.0	1350.0	n/a	1.0	go_stim
269891.49871250009	739.5012875	n/a	1256	71	2750	739.5012875	stim	stop-signal	703	1827424	0.0-27.10-1.10	beast_fmri_test	269	1824712,/,1825392,/,1826072,/,1826752,/,1827432,/,1828112,/	t,t,t,t,t,t	<img class = center src='/static/experiments/beast_fmri_test/images/P.png'></img>	89,71	2750.0	test	<img class = center src='/static/experiments/beast_fmri_test/images/redP.png'></img>	go	1400.0	3.0	10.0	go	non-target	P	89,Yellow Button	71,Green Button	1150.0	1350.0	1600.0	1400.0	1.0	1350.0	n/a	1.0	ITI
271902	500.0	n/a	-1	-1	500	0.0	fixation	poldrack-single-stim	704	1828695	0.0-27.11-0.11	beast_fmri_test	269	n/a	n/a	<div class = centerbox><div class = fixation>+</div></div>	none	500.0	test	n/a	n/a	n/a	n/a	n/a	n/a	n/a	n/a	n/a	n/a	n/a	n/a	n/a	n/a	n/a	n/a	n/a	n/a	fixation
271077.67175520002	1150.0	n/a	1228	89	2750	825.3282448	stim	stop-signal	705	1831446	0.0-27.11-1.11	beast_fmri_test	269	1828792,/,1829473,/,1830152,/,1830832,/,1831512,/,1832192,/	t,t,t,t,t,t	<img class = center src='/static/experiments/beast_fmri_test/images/P.png'></img>	89,71	2750.0	test	<img class = center src='/static/experiments/beast_fmri_test/images/redP.png'></img>	stop	1600.0	3.0	11.0	stop	target	P	89,Yellow Button	71,Green Button	1150.0	1350.0	1600.0	1400.0	0.0	1150.0	0.0	1.0	go_stim
272677.67175520002	1600.0	n/a	1228	89	2750	825.3282448	stim	stop-signal	705	1831446	0.0-27.11-1.11	beast_fmri_test	269	1828792,/,1829473,/,1830152,/,1830832,/,1831512,/,1832192,/	t,t,t,t,t,t	<img class = center src='/static/experiments/beast_fmri_test/images/P.png'></img>	89,71	2750.0	test	<img class = center src='/static/experiments/beast_fmri_test/images/redP.png'></img>	stop	1600.0	3.0	11.0	stop	target	P	89,Yellow Button	71,Green Button	1150.0	1350.0	1600.0	1400.0	0.0	1150.0	0.0	1.0	stop_stim
273827.67175520002	825.3282448	n/a	1228	89	2750	825.3282448	stim	stop-signal	705	1831446	0.0-27.11-1.11	beast_fmri_test	269	1828792,/,1829473,/,1830152,/,1830832,/,1831512,/,1832192,/	t,t,t,t,t,t	<img class = center src='/static/experiments/beast_fmri_test/images/P.png'></img>	89,71	2750.0	test	<img class = center src='/static/experiments/beast_fmri_test/images/redP.png'></img>	stop	1600.0	3.0	11.0	stop	target	P	89,Yellow Button	71,Green Button	1150.0	1350.0	1600.0	1400.0	0.0	1150.0	0.0	1.0	ITI
276005	500.0	n/a	-1	-1	500	0.0	fixation	poldrack-single-stim	706	1832798	0.0-27.12-0.12	beast_fmri_test	269	n/a	n/a	<div class = centerbox><div class = fixation>+</div></div>	none	500.0	test	n/a	n/a	n/a	n/a	n/a	n/a	n/a	n/a	n/a	n/a	n/a	n/a	n/a	n/a	n/a	n/a	n/a	n/a	fixation
275816.50640959991	2750.0	n/a	1109	71	2750	190.4935904	stim	stop-signal	707	1835550	0.0-27.12-1.12	beast_fmri_test	269	1832872,/,1833552,/,1834232,/,1834912,/,1835592,/	t,t,t,t,t	<img class = center src='/static/experiments/beast_fmri_test/images/B.png'></img>	89,71	2750.0	test	<img class = center src='/static/experiments/beast_fmri_test/images/redB.png'></img>	go	1400.0	3.0	12.0	go	non-target	B	89,Yellow Button	71,Green Button	1100.0	1350.0	1600.0	1400.0	1.0	1350.0	n/a	1.0	go_stim
278566.50640959991	190.4935904	n/a	1109	71	2750	190.4935904	stim	stop-signal	707	1835550	0.0-27.12-1.12	beast_fmri_test	269	1832872,/,1833552,/,1834232,/,1834912,/,1835592,/	t,t,t,t,t	<img class = center src='/static/experiments/beast_fmri_test/images/B.png'></img>	89,71	2750.0	test	<img class = center src='/static/experiments/beast_fmri_test/images/redB.png'></img>	go	1400.0	3.0	12.0	go	non-target	B	89,Yellow Button	71,Green Button	1100.0	1350.0	1600.0	1400.0	1.0	1350.0	n/a	1.0	ITI
279476	500.0	n/a	-1	-1	500	0.0	fixation	poldrack-single-stim	708	1836269	0.0-27.13-0.13	beast_fmri_test	269	n/a	n/a	<div class = centerbox><div class = fixation>+</div></div>	none	500.0	test	n/a	n/a	n/a	n/a	n/a	n/a	n/a	n/a	n/a	n/a	n/a	n/a	n/a	n/a	n/a	n/a	n/a	n/a	fixation
279286.46106790006	2750.0	n/a	1632	71	2750	190.5389321	stim	stop-signal	709	1839020	0.0-27.13-1.13	beast_fmri_test	269	1836272,/,1836952,/,1837632,/,1838312,/,1838992,/	t,t,t,t,t	<img class = center src='/static/experiments/beast_fmri_test/images/B.png'></img>	89,71	2750.0	test	<img class = center src='/static/experiments/beast_fmri_test/images/redB.png'></img>	go	1400.0	3.0	13.0	go	non-target	B	89,Yellow Button	71,Green Button	1100.0	1350.0	1600.0	1400.0	1.0	1350.0	n/a	1.0	go_stim
282036.46106790006	190.5389321	n/a	1632	71	2750	190.5389321	stim	stop-signal	709	1839020	0.0-27.13-1.13	beast_fmri_test	269	1836272,/,1836952,/,1837632,/,1838312,/,1838992,/	t,t,t,t,t	<img class = center src='/static/experiments/beast_fmri_test/images/B.png'></img>	89,71	2750.0	test	<img class = center src='/static/experiments/beast_fmri_test/images/redB.png'></img>	go	1400.0	3.0	13.0	go	non-target	B	89,Yellow Button	71,Green Button	1100.0	1350.0	1600.0	1400.0	1.0	1350.0	n/a	1.0	ITI
282944	500.0	n/a	-1	-1	500	0.0	fixation	poldrack-single-stim	710	1839737	0.0-27.14-0.14	beast_fmri_test	269	1839674,/	t	<div class = centerbox><div class = fixation>+</div></div>	none	500.0	test	n/a	n/a	n/a	n/a	n/a	n/a	n/a	n/a	n/a	n/a	n/a	n/a	n/a	n/a	n/a	n/a	n/a	n/a	fixation
281207.13561700005	1100.0	n/a	1309	89	2750	1737.864383	stim	stop-signal	711	1842488	0.0-27.14-1.14	beast_fmri_test	269	1840353,/,1841032,/,1841712,/,1842393,/,1843073,/,1843753,/	t,t,t,t,t,t	<img class = center src='/static/experiments/beast_fmri_test/images/P.png'></img>	89,71	2750.0	test	<img class = center src='/static/experiments/beast_fmri_test/images/redP.png'></img>	stop	1650.0	3.0	14.0	stop	target	P	89,Yellow Button	71,Green Button	1100.0	1350.0	1650.0	1400.0	0.0	1100.0	0.0	1.0	go_stim
282857.13561700005	1650.0	n/a	1309	89	2750	1737.864383	stim	stop-signal	711	1842488	0.0-27.14-1.14	beast_fmri_test	269	1840353,/,1841032,/,1841712,/,1842393,/,1843073,/,1843753,/	t,t,t,t,t,t	<img class = center src='/static/experiments/beast_fmri_test/images/P.png'></img>	89,71	2750.0	test	<img class = center src='/static/experiments/beast_fmri_test/images/redP.png'></img>	stop	1650.0	3.0	14.0	stop	target	P	89,Yellow Button	71,Green Button	1100.0	1350.0	1650.0	1400.0	0.0	1100.0	0.0	1.0	stop_stim
283957.13561700005	1737.864383	n/a	1309	89	2750	1737.864383	stim	stop-signal	711	1842488	0.0-27.14-1.14	beast_fmri_test	269	1840353,/,1841032,/,1841712,/,1842393,/,1843073,/,1843753,/	t,t,t,t,t,t	<img class = center src='/static/experiments/beast_fmri_test/images/P.png'></img>	89,71	2750.0	test	<img class = center src='/static/experiments/beast_fmri_test/images/redP.png'></img>	stop	1650.0	3.0	14.0	stop	target	P	89,Yellow Button	71,Green Button	1100.0	1350.0	1650.0	1400.0	0.0	1100.0	0.0	1.0	ITI
287957	500.0	n/a	-1	-1	500	0.0	fixation	poldrack-single-stim	712	1844750	0.0-27.15-0.15	beast_fmri_test	269	1844433,/	t	<div class = centerbox><div class = fixation>+</div></div>	none	500.0	test	n/a	n/a	n/a	n/a	n/a	n/a	n/a	n/a	n/a	n/a	n/a	n/a	n/a	n/a	n/a	n/a	n/a	n/a	fixation
287758.39219540008	2750.0	n/a	1274	71	2750	200.6078046	stim	stop-signal	713	1847502	0.0-27.15-1.15	beast_fmri_test	269	1845113,/,1845793,/,1846473,/,1847152,/	t,t,t,t	<img class = center src='/static/experiments/beast_fmri_test/images/P.png'></img>	89,71	2750.0	test	<img class = center src='/static/experiments/beast_fmri_test/images/redP.png'></img>	go	1400.0	3.0	15.0	go	non-target	P	89,Yellow Button	71,Green Button	1050.0	1350.0	1650.0	1400.0	1.0	1350.0	n/a	1.0	go_stim
290508.39219540008	200.6078046	n/a	1274	71	2750	200.6078046	stim	stop-signal	713	1847502	0.0-27.15-1.15	beast_fmri_test	269	1845113,/,1845793,/,1846473,/,1847152,/	t,t,t,t	<img class = center src='/static/experiments/beast_fmri_test/images/P.png'></img>	89,71	2750.0	test	<img class = center src='/static/experiments/beast_fmri_test/images/redP.png'></img>	go	1400.0	3.0	15.0	go	non-target	P	89,Yellow Button	71,Green Button	1050.0	1350.0	1650.0	1400.0	1.0	1350.0	n/a	1.0	ITI
291436	500.0	n/a	-1	-1	500	0.0	fixation	poldrack-single-stim	714	1848229	0.0-27.16-0.16	beast_fmri_test	269	1847833,/	t	<div class = centerbox><div class = fixation>+</div></div>	none	500.0	test	n/a	n/a	n/a	n/a	n/a	n/a	n/a	n/a	n/a	n/a	n/a	n/a	n/a	n/a	n/a	n/a	n/a	n/a	fixation
289202.76850700006	2750.0	n/a	1305	89	2750	2234.231493	stim	stop-signal	715	1850980	0.0-27.16-1.16	beast_fmri_test	269	1848513,/,1849193,/,1849873,/,1850552,/,1851232,/,1851912,/,1852592,/	t,t,t,t,t,t,t	<img class = center src='/static/experiments/beast_fmri_test/images/B.png'></img>	89,71	2750.0	test	<img class = center src='/static/experiments/beast_fmri_test/images/redB.png'></img>	go	1700.0	3.0	16.0	go	target	B	89,Yellow Button	71,Green Button	1050.0	1350.0	1700.0	1400.0	1.0	1050.0	n/a	1.0	go_stim
291952.76850700006	2234.231493	n/a	1305	89	2750	2234.231493	stim	stop-signal	715	1850980	0.0-27.16-1.16	beast_fmri_test	269	1848513,/,1849193,/,1849873,/,1850552,/,1851232,/,1851912,/,1852592,/	t,t,t,t,t,t,t	<img class = center src='/static/experiments/beast_fmri_test/images/B.png'></img>	89,71	2750.0	test	<img class = center src='/static/experiments/beast_fmri_test/images/redB.png'></img>	go	1700.0	3.0	16.0	go	target	B	89,Yellow Button	71,Green Button	1050.0	1350.0	1700.0	1400.0	1.0	1050.0	n/a	1.0	ITI
296949	500.0	n/a	-1	-1	500	0.0	fixation	poldrack-single-stim	716	1853742	0.0-27.17-0.17	beast_fmri_test	269	1853273,/	t	<div class = centerbox><div class = fixation>+</div></div>	none	500.0	test	n/a	n/a	n/a	n/a	n/a	n/a	n/a	n/a	n/a	n/a	n/a	n/a	n/a	n/a	n/a	n/a	n/a	n/a	fixation
295984.20403250004	1050.0	n/a	-1	-1	2750	966.7959675	stim	stop-signal	717	1856494	0.0-27.17-1.17	beast_fmri_test	269	1853953,/,1854633,/,1855312,/,1855992,/,1856672,/,1857352,/	t,t,t,t,t,t	<img class = center src='/static/experiments/beast_fmri_test/images/P.png'></img>	89,71	2750.0	test	<img class = center src='/static/experiments/beast_fmri_test/images/redP.png'></img>	stop	1700.0	3.0	17.0	stop	target	P	89,Yellow Button	71,Green Button	1050.0	1350.0	1700.0	1400.0	0.0	1050.0	1.0	0.0	go_stim
297684.20403250004	1700.0	n/a	-1	-1	2750	966.7959675	stim	stop-signal	717	1856494	0.0-27.17-1.17	beast_fmri_test	269	1853953,/,1854633,/,1855312,/,1855992,/,1856672,/,1857352,/	t,t,t,t,t,t	<img class = center src='/static/experiments/beast_fmri_test/images/P.png'></img>	89,71	2750.0	test	<img class = center src='/static/experiments/beast_fmri_test/images/redP.png'></img>	stop	1700.0	3.0	17.0	stop	target	P	89,Yellow Button	71,Green Button	1050.0	1350.0	1700.0	1400.0	0.0	1050.0	1.0	0.0	stop_stim
298734.20403250004	966.7959675	n/a	-1	-1	2750	966.7959675	stim	stop-signal	717	1856494	0.0-27.17-1.17	beast_fmri_test	269	1853953,/,1854633,/,1855312,/,1855992,/,1856672,/,1857352,/	t,t,t,t,t,t	<img class = center src='/static/experiments/beast_fmri_test/images/P.png'></img>	89,71	2750.0	test	<img class = center src='/static/experiments/beast_fmri_test/images/redP.png'></img>	stop	1700.0	3.0	17.0	stop	target	P	89,Yellow Button	71,Green Button	1050.0	1350.0	1700.0	1400.0	0.0	1050.0	1.0	0.0	ITI
301197	500.0	n/a	-1	-1	500	0.0	fixation	poldrack-single-stim	718	1857990	0.0-27.18-0.18	beast_fmri_test	269	n/a	n/a	<div class = centerbox><div class = fixation>+</div></div>	none	500.0	test	n/a	n/a	n/a	n/a	n/a	n/a	n/a	n/a	n/a	n/a	n/a	n/a	n/a	n/a	n/a	n/a	n/a	n/a	fixation
300953.85850060009	2750.0	n/a	1238	71	2750	244.1414994	stim	stop-signal	719	1860741	0.0-27.18-1.18	beast_fmri_test	269	1858032,/,1858713,/,1859392,/,1860073,/,1860752,/	t,t,t,t,t	<img class = center src='/static/experiments/beast_fmri_test/images/V.png'></img>	89,71	2750.0	test	<img class = center src='/static/experiments/beast_fmri_test/images/redV.png'></img>	go	1400.0	3.0	18.0	go	non-target	V	89,Yellow Button	71,Green Button	1100.0	1350.0	1700.0	1400.0	1.0	1350.0	n/a	1.0	go_stim
303703.85850060009	244.1414994	n/a	1238	71	2750	244.1414994	stim	stop-signal	719	1860741	0.0-27.18-1.18	beast_fmri_test	269	1858032,/,1858713,/,1859392,/,1860073,/,1860752,/	t,t,t,t,t	<img class = center src='/static/experiments/beast_fmri_test/images/V.png'></img>	89,71	2750.0	test	<img class = center src='/static/experiments/beast_fmri_test/images/redV.png'></img>	go	1400.0	3.0	18.0	go	non-target	V	89,Yellow Button	71,Green Button	1100.0	1350.0	1700.0	1400.0	1.0	1350.0	n/a	1.0	ITI
304719	500.0	n/a	-1	-1	500	0.0	fixation	poldrack-single-stim	720	1861512	0.0-27.19-0.19	beast_fmri_test	269	1861432,/	t	<div class = centerbox><div class = fixation>+</div></div>	none	500.0	test	n/a	n/a	n/a	n/a	n/a	n/a	n/a	n/a	n/a	n/a	n/a	n/a	n/a	n/a	n/a	n/a	n/a	n/a	fixation
304142.69833620009	1350.0	n/a	-1	-1	2750	578.3016638	stim	stop-signal	721	1864264	0.0-27.19-1.19	beast_fmri_test	269	1862112,/,1862792,/,1863472,/,1864152,/,1864832,/	t,t,t,t,t	<img class = center src='/static/experiments/beast_fmri_test/images/P.png'></img>	89,71	2750.0	test	<img class = center src='/static/experiments/beast_fmri_test/images/redP.png'></img>	stop	1400.0	3.0	19.0	stop	non-target	P	89,Yellow Button	71,Green Button	1100.0	1350.0	1700.0	1400.0	0.0	1350.0	1.0	0.0	go_stim
305542.69833620009	1400.0	n/a	-1	-1	2750	578.3016638	stim	stop-signal	721	1864264	0.0-27.19-1.19	beast_fmri_test	269	1862112,/,1862792,/,1863472,/,1864152,/,1864832,/	t,t,t,t,t	<img class = center src='/static/experiments/beast_fmri_test/images/P.png'></img>	89,71	2750.0	test	<img class = center src='/static/experiments/beast_fmri_test/images/redP.png'></img>	stop	1400.0	3.0	19.0	stop	non-target	P	89,Yellow Button	71,Green Button	1100.0	1350.0	1700.0	1400.0	0.0	1350.0	1.0	0.0	stop_stim
306892.69833620009	578.3016638	n/a	-1	-1	2750	578.3016638	stim	stop-signal	721	1864264	0.0-27.19-1.19	beast_fmri_test	269	1862112,/,1862792,/,1863472,/,1864152,/,1864832,/	t,t,t,t,t	<img class = center src='/static/experiments/beast_fmri_test/images/P.png'></img>	89,71	2750.0	test	<img class = center src='/static/experiments/beast_fmri_test/images/redP.png'></img>	stop	1400.0	3.0	19.0	stop	non-target	P	89,Yellow Button	71,Green Button	1100.0	1350.0	1700.0	1400.0	0.0	1350.0	1.0	0.0	ITI
308578	500.0	n/a	-1	-1	500	0.0	fixation	poldrack-single-stim	722	1865371	0.0-27.20-0.20	beast_fmri_test	269	n/a	n/a	<div class = centerbox><div class = fixation>+</div></div>	none	500.0	test	n/a	n/a	n/a	n/a	n/a	n/a	n/a	n/a	n/a	n/a	n/a	n/a	n/a	n/a	n/a	n/a	n/a	n/a	fixation
308403.74226319999	2750.0	n/a	1496	71	2750	175.2577368	stim	stop-signal	723	1868122	0.0-27.20-1.20	beast_fmri_test	269	1865512,/,1866192,/,1866872,/,1867552,/,1868232,/	t,t,t,t,t	<img class = center src='/static/experiments/beast_fmri_test/images/P.png'></img>	89,71	2750.0	test	<img class = center src='/static/experiments/beast_fmri_test/images/redP.png'></img>	go	1650.0	3.0	20.0	go	target	P	89,Yellow Button	71,Green Button	1100.0	1400.0	1650.0	1400.0	0.0	1100.0	n/a	0.0	go_stim
311153.74226319999	175.2577368	n/a	1496	71	2750	175.2577368	stim	stop-signal	723	1868122	0.0-27.20-1.20	beast_fmri_test	269	1865512,/,1866192,/,1866872,/,1867552,/,1868232,/	t,t,t,t,t	<img class = center src='/static/experiments/beast_fmri_test/images/P.png'></img>	89,71	2750.0	test	<img class = center src='/static/experiments/beast_fmri_test/images/redP.png'></img>	go	1650.0	3.0	20.0	go	target	P	89,Yellow Button	71,Green Button	1100.0	1400.0	1650.0	1400.0	0.0	1100.0	n/a	0.0	ITI
312031	500.0	n/a	-1	-1	500	0.0	fixation	poldrack-single-stim	724	1868824	0.0-27.21-0.21	beast_fmri_test	269	n/a	n/a	<div class = centerbox><div class = fixation>+</div></div>	none	500.0	test	n/a	n/a	n/a	n/a	n/a	n/a	n/a	n/a	n/a	n/a	n/a	n/a	n/a	n/a	n/a	n/a	n/a	n/a	fixation
311351.4473937999	1400.0	n/a	-1	-1	2750	681.5526062	stim	stop-signal	725	1871576	0.0-27.21-1.21	beast_fmri_test	269	1868912,/,1869592,/,1870272,/,1870952,/,1871632,/	t,t,t,t,t	<img class = center src='/static/experiments/beast_fmri_test/images/T.png'></img>	89,71	2750.0	test	<img class = center src='/static/experiments/beast_fmri_test/images/redT.png'></img>	stop	1350.0	3.0	21.0	stop	non-target	T	89,Yellow Button	71,Green Button	1100.0	1400.0	1650.0	1350.0	0.0	1400.0	1.0	0.0	go_stim
312701.4473937999	1350.0	n/a	-1	-1	2750	681.5526062	stim	stop-signal	725	1871576	0.0-27.21-1.21	beast_fmri_test	269	1868912,/,1869592,/,1870272,/,1870952,/,1871632,/	t,t,t,t,t	<img class = center src='/static/experiments/beast_fmri_test/images/T.png'></img>	89,71	2750.0	test	<img class = center src='/static/experiments/beast_fmri_test/images/redT.png'></img>	stop	1350.0	3.0	21.0	stop	non-target	T	89,Yellow Button	71,Green Button	1100.0	1400.0	1650.0	1350.0	0.0	1400.0	1.0	0.0	stop_stim
314101.4473937999	681.5526062	n/a	-1	-1	2750	681.5526062	stim	stop-signal	725	1871576	0.0-27.21-1.21	beast_fmri_test	269	1868912,/,1869592,/,1870272,/,1870952,/,1871632,/	t,t,t,t,t	<img class = center src='/static/experiments/beast_fmri_test/images/T.png'></img>	89,71	2750.0	test	<img class = center src='/static/experiments/beast_fmri_test/images/redT.png'></img>	stop	1350.0	3.0	21.0	stop	non-target	T	89,Yellow Button	71,Green Button	1100.0	1400.0	1650.0	1350.0	0.0	1400.0	1.0	0.0	ITI
315993	500.0	n/a	-1	-1	500	0.0	fixation	poldrack-single-stim	726	1872786	0.0-27.22-0.22	beast_fmri_test	269	1872312,/	t	<div class = centerbox><div class = fixation>+</div></div>	none	500.0	test	n/a	n/a	n/a	n/a	n/a	n/a	n/a	n/a	n/a	n/a	n/a	n/a	n/a	n/a	n/a	n/a	n/a	n/a	fixation
312407.96833600011	2750.0	n/a	1994	71	2750	3587.031664	stim	stop-signal	727	1875538	0.0-27.22-1.22	beast_fmri_test	269	1872992,/,1873673,/,1874353,/,1875032,/,1875713,/,1876392,/,1877072,/,1877753,/,1878433,/,1879113,/	t,t,t,t,t,t,t,t,t,t	<img class = center src='/static/experiments/beast_fmri_test/images/V.png'></img>	89,71	2750.0	test	<img class = center src='/static/experiments/beast_fmri_test/images/redV.png'></img>	go	1300.0	3.0	22.0	go	non-target	V	89,Yellow Button	71,Green Button	1100.0	1450.0	1650.0	1300.0	1.0	1450.0	n/a	1.0	go_stim
