onset	duration	text	rt	key_press	block_duration	timing_post_trial	trial_id	trial_type	trial_index	time_elapsed	internal_node_id	exp_id	subject_id	trigger_times	triggers	stimulus	possible_responses	stim_duration	exp_stage	SS_stimulus	SS_trial_type	SS_duration	load	trial_num	stop_trial_type	adaptive_trial_type	stim	yes_response_key	no_response_key	SSD_target	SSD_non_target	SSTarget	SSNonTarget	go_acc	SS_delay	adaptive_acc	stop_acc	new_trial_type
test	10880	n/a	-1	-1	10880	0.0	practice-no-stop-feedback	poldrack-single-stim	586	1671518	0.0-24.0	beast_fmri_test	330	1660641,/,1661319,/,1662000,/,1662678,/,1663357,/,1664037,/,1664722,/,1665397,/,1666077,/,1666757,/,1667436,/,1668115,/,1668795,/,1669474,/,1670155,/,1670835,/,1671513,/	t,t,t,t,t,t,t,t,t,t,t,t,t,t,t,t,t	"<div class = ""centerbox""><p class = ""block-text"">Your delay is 3 trials.</p><p class = block-text>Please wait for the scanner to start the block</p></div>"	77	10880.0	n/a	n/a	n/a	n/a	n/a	n/a	n/a	n/a	n/a	n/a	n/a	n/a	n/a	n/a	n/a	n/a	n/a	n/a	n/a	start_functional_block
11380	500	n/a	-1	-1	500	0.0	fixation	poldrack-single-stim	587	1672021	0.0-25.0-0.0	beast_fmri_test	330	n/a	n/a	<div class = centerbox2><div class = fixation>+</div></div>	none	500.0	test	n/a	n/a	n/a	n/a	n/a	n/a	n/a	n/a	n/a	n/a	n/a	n/a	n/a	n/a	n/a	n/a	n/a	n/a	fixation
10629.784060441889	temp_go_duration	n/a	723	89	2750	754.215939558	stim	stop-signal	588	1674775	0.0-25.0-1.0	beast_fmri_test	330	1672195,/,1672872,/,1673553,/,1674232,/,1674912,/	t,t,t,t,t	<img class = center src='/static/experiments/beast_fmri_test/images/D.png'></img>	71,89	2750.0	test	<img class = center src='/static/experiments/beast_fmri_test/images/redD.png'></img>	stop	-1.0	3.0	0.0	stop	temp-non-target	D	71,Index Finger	89,Middle Finger	100.0	0.0	2650.0	2750.0	0.0	n/a	n/a	0.0	go_stim
temp-non-target	temp_stop_duration	n/a	723	89	2750	754.215939558	stim	stop-signal	588	1674775	0.0-25.0-1.0	beast_fmri_test	330	1672195,/,1672872,/,1673553,/,1674232,/,1674912,/	t,t,t,t,t	<img class = center src='/static/experiments/beast_fmri_test/images/D.png'></img>	71,89	2750.0	test	<img class = center src='/static/experiments/beast_fmri_test/images/redD.png'></img>	stop	-1.0	3.0	0.0	stop	temp-non-target	D	71,Index Finger	89,Middle Finger	100.0	0.0	2650.0	2750.0	0.0	n/a	n/a	0.0	stop_stim
13379.784060441889	754.21593955806429	n/a	723	89	2750	754.215939558	stim	stop-signal	588	1674775	0.0-25.0-1.0	beast_fmri_test	330	1672195,/,1672872,/,1673553,/,1674232,/,1674912,/	t,t,t,t,t	<img class = center src='/static/experiments/beast_fmri_test/images/D.png'></img>	71,89	2750.0	test	<img class = center src='/static/experiments/beast_fmri_test/images/redD.png'></img>	stop	-1.0	3.0	0.0	stop	temp-non-target	D	71,Index Finger	89,Middle Finger	100.0	0.0	2650.0	2750.0	0.0	n/a	n/a	0.0	ITI
15454	500	n/a	-1	-1	500	0.0	fixation	poldrack-single-stim	589	1676095	0.0-25.1-0.1	beast_fmri_test	330	1675594,/	t	<div class = centerbox2><div class = fixation>+</div></div>	none	500.0	test	n/a	n/a	n/a	n/a	n/a	n/a	n/a	n/a	n/a	n/a	n/a	n/a	n/a	n/a	n/a	n/a	n/a	n/a	fixation
15027.607817621669	2750	n/a	924	89	2750	428.392182378	stim	stop-signal	590	1678847	0.0-25.1-1.1	beast_fmri_test	330	1676271,/,1676952,/,1677630,/,1678310,/,1678990,/	t,t,t,t,t	<img class = center src='/static/experiments/beast_fmri_test/images/T.png'></img>	71,89	2750.0	test	<img class = center src='/static/experiments/beast_fmri_test/images/redT.png'></img>	go	-1.0	3.0	1.0	go	temp-non-target	T	71,Index Finger	89,Middle Finger	100.0	0.0	2650.0	2750.0	0.0	n/a	n/a	n/a	go_stim
17777.607817621669	428.39218237833421	n/a	924	89	2750	428.392182378	stim	stop-signal	590	1678847	0.0-25.1-1.1	beast_fmri_test	330	1676271,/,1676952,/,1677630,/,1678310,/,1678990,/	t,t,t,t,t	<img class = center src='/static/experiments/beast_fmri_test/images/T.png'></img>	71,89	2750.0	test	<img class = center src='/static/experiments/beast_fmri_test/images/redT.png'></img>	go	-1.0	3.0	1.0	go	temp-non-target	T	71,Index Finger	89,Middle Finger	100.0	0.0	2650.0	2750.0	0.0	n/a	n/a	n/a	ITI
19217	500	n/a	-1	-1	500	0.0	fixation	poldrack-single-stim	591	1679858	0.0-25.2-0.2	beast_fmri_test	330	1679670,/	t	<div class = centerbox2><div class = fixation>+</div></div>	none	500.0	test	n/a	n/a	n/a	n/a	n/a	n/a	n/a	n/a	n/a	n/a	n/a	n/a	n/a	n/a	n/a	n/a	n/a	n/a	fixation
17752.159394500079	2750	n/a	835	89	2750	1465.8406055	stim	stop-signal	592	1682609	0.0-25.2-1.2	beast_fmri_test	330	1680350,/,1681029,/,1681713,/,1682390,/,1683069,/,1683750,/	t,t,t,t,t,t	<img class = center src='/static/experiments/beast_fmri_test/images/D.png'></img>	71,89	2750.0	test	<img class = center src='/static/experiments/beast_fmri_test/images/redD.png'></img>	go	-1.0	3.0	2.0	go	temp-non-target	D	71,Index Finger	89,Middle Finger	100.0	0.0	2650.0	2750.0	0.0	n/a	n/a	n/a	go_stim
20502.159394500079	1465.8406054998352	n/a	835	89	2750	1465.8406055	stim	stop-signal	592	1682609	0.0-25.2-1.2	beast_fmri_test	330	1680350,/,1681029,/,1681713,/,1682390,/,1683069,/,1683750,/	t,t,t,t,t,t	<img class = center src='/static/experiments/beast_fmri_test/images/D.png'></img>	71,89	2750.0	test	<img class = center src='/static/experiments/beast_fmri_test/images/redD.png'></img>	go	-1.0	3.0	2.0	go	temp-non-target	D	71,Index Finger	89,Middle Finger	100.0	0.0	2650.0	2750.0	0.0	n/a	n/a	n/a	ITI
24010	500	n/a	-1	-1	500	0.0	fixation	poldrack-single-stim	593	1684651	0.0-25.3-0.3	beast_fmri_test	330	1684428,/	t	<div class = centerbox2><div class = fixation>+</div></div>	none	500.0	test	n/a	n/a	n/a	n/a	n/a	n/a	n/a	n/a	n/a	n/a	n/a	n/a	n/a	n/a	n/a	n/a	n/a	n/a	fixation
23985.06550195138	100.0	n/a	-1	-1	2750	26.9344980487	stim	stop-signal	594	1687403	0.0-25.3-1.3	beast_fmri_test	330	1685108,/,1685788,/,1686467,/,1687147,/	t,t,t,t	<img class = center src='/static/experiments/beast_fmri_test/images/D.png'></img>	71,89	2750.0	test	<img class = center src='/static/experiments/beast_fmri_test/images/redD.png'></img>	stop	2650.0	3.0	3.0	stop	target	D	71,Index Finger	89,Middle Finger	100.0	0.0	2650.0	2750.0	0.0	100.0	n/a	1.0	go_stim
26635.06550195138	2650.0	n/a	-1	-1	2750	26.9344980487	stim	stop-signal	594	1687403	0.0-25.3-1.3	beast_fmri_test	330	1685108,/,1685788,/,1686467,/,1687147,/	t,t,t,t	<img class = center src='/static/experiments/beast_fmri_test/images/D.png'></img>	71,89	2750.0	test	<img class = center src='/static/experiments/beast_fmri_test/images/redD.png'></img>	stop	2650.0	3.0	3.0	stop	target	D	71,Index Finger	89,Middle Finger	100.0	0.0	2650.0	2750.0	0.0	100.0	n/a	1.0	stop_stim
26735.06550195138	26.93449804866713	n/a	-1	-1	2750	26.9344980487	stim	stop-signal	594	1687403	0.0-25.3-1.3	beast_fmri_test	330	1685108,/,1685788,/,1686467,/,1687147,/	t,t,t,t	<img class = center src='/static/experiments/beast_fmri_test/images/D.png'></img>	71,89	2750.0	test	<img class = center src='/static/experiments/beast_fmri_test/images/redD.png'></img>	stop	2650.0	3.0	3.0	stop	target	D	71,Index Finger	89,Middle Finger	100.0	0.0	2650.0	2750.0	0.0	100.0	n/a	1.0	ITI
27366	500	n/a	-1	-1	500	0.0	fixation	poldrack-single-stim	595	1688007	0.0-25.4-0.4	beast_fmri_test	330	1687826,/	t	<div class = centerbox2><div class = fixation>+</div></div>	none	500.0	test	n/a	n/a	n/a	n/a	n/a	n/a	n/a	n/a	n/a	n/a	n/a	n/a	n/a	n/a	n/a	n/a	n/a	n/a	fixation
26644.688336166553	2750	n/a	1367	89	2750	723.311663834	stim	stop-signal	596	1690759	0.0-25.4-1.4	beast_fmri_test	330	1688507,/,1689187,/,1689867,/,1690545,/,1691225,/	t,t,t,t,t	<img class = center src='/static/experiments/beast_fmri_test/images/D.png'></img>	71,89	2750.0	test	<img class = center src='/static/experiments/beast_fmri_test/images/redD.png'></img>	go	2750.0	3.0	4.0	go	non-target	D	71,Index Finger	89,Middle Finger	150.0	0.0	2650.0	2750.0	1.0	0.0	1.0	n/a	go_stim
29394.688336166553	723.31166383350217	n/a	1367	89	2750	723.311663834	stim	stop-signal	596	1690759	0.0-25.4-1.4	beast_fmri_test	330	1688507,/,1689187,/,1689867,/,1690545,/,1691225,/	t,t,t,t,t	<img class = center src='/static/experiments/beast_fmri_test/images/D.png'></img>	71,89	2750.0	test	<img class = center src='/static/experiments/beast_fmri_test/images/redD.png'></img>	go	2750.0	3.0	4.0	go	non-target	D	71,Index Finger	89,Middle Finger	150.0	0.0	2650.0	2750.0	1.0	0.0	1.0	n/a	ITI
31420	500	n/a	-1	-1	500	0.0	fixation	poldrack-single-stim	597	1692061	0.0-25.5-0.5	beast_fmri_test	330	1691982,/	t	<div class = centerbox2><div class = fixation>+</div></div>	none	500.0	test	n/a	n/a	n/a	n/a	n/a	n/a	n/a	n/a	n/a	n/a	n/a	n/a	n/a	n/a	n/a	n/a	n/a	n/a	fixation
30077.118233186891	2750	n/a	723	71	2750	1345.88176681	stim	stop-signal	598	1694814	0.0-25.5-1.5	beast_fmri_test	330	1692583,/,1693263,/,1693944,/,1694623,/,1695303,/,1695982,/	t,t,t,t,t,t	<img class = center src='/static/experiments/beast_fmri_test/images/D.png'></img>	71,89	2750.0	test	<img class = center src='/static/experiments/beast_fmri_test/images/redD.png'></img>	go	2600.0	3.0	5.0	go	target	D	71,Index Finger	89,Middle Finger	150.0	0.0	2600.0	2750.0	1.0	150.0	1.0	n/a	go_stim
32827.118233186891	1345.8817668130228	n/a	723	71	2750	1345.88176681	stim	stop-signal	598	1694814	0.0-25.5-1.5	beast_fmri_test	330	1692583,/,1693263,/,1693944,/,1694623,/,1695303,/,1695982,/	t,t,t,t,t,t	<img class = center src='/static/experiments/beast_fmri_test/images/D.png'></img>	71,89	2750.0	test	<img class = center src='/static/experiments/beast_fmri_test/images/redD.png'></img>	go	2600.0	3.0	5.0	go	target	D	71,Index Finger	89,Middle Finger	150.0	0.0	2600.0	2750.0	1.0	150.0	1.0	n/a	ITI
36085	500	n/a	-1	-1	500	0.0	fixation	poldrack-single-stim	599	1696726	0.0-25.6-0.6	beast_fmri_test	330	1696662,/	t	<div class = centerbox2><div class = fixation>+</div></div>	none	500.0	test	n/a	n/a	n/a	n/a	n/a	n/a	n/a	n/a	n/a	n/a	n/a	n/a	n/a	n/a	n/a	n/a	n/a	n/a	fixation
35584.945911604213	2750	n/a	551	89	2750	501.054088396	stim	stop-signal	600	1699477	0.0-25.6-1.6	beast_fmri_test	330	1697376,/,1698023,/,1698705,/,1699381,/	t,t,t,t	<img class = center src='/static/experiments/beast_fmri_test/images/B.png'></img>	71,89	2750.0	test	<img class = center src='/static/experiments/beast_fmri_test/images/redB.png'></img>	go	2750.0	3.0	6.0	go	non-target	B	71,Index Finger	89,Middle Finger	150.0	0.0	2600.0	2750.0	1.0	0.0	1.0	n/a	go_stim
38334.945911604213	501.05408839576279	n/a	551	89	2750	501.054088396	stim	stop-signal	600	1699477	0.0-25.6-1.6	beast_fmri_test	330	1697376,/,1698023,/,1698705,/,1699381,/	t,t,t,t	<img class = center src='/static/experiments/beast_fmri_test/images/B.png'></img>	71,89	2750.0	test	<img class = center src='/static/experiments/beast_fmri_test/images/redB.png'></img>	go	2750.0	3.0	6.0	go	non-target	B	71,Index Finger	89,Middle Finger	150.0	0.0	2600.0	2750.0	1.0	0.0	1.0	n/a	ITI
39902	500	n/a	-1	-1	500	0.0	fixation	poldrack-single-stim	601	1700543	0.0-25.7-0.7	beast_fmri_test	330	1700062,/	t	<div class = centerbox2><div class = fixation>+</div></div>	none	500.0	test	n/a	n/a	n/a	n/a	n/a	n/a	n/a	n/a	n/a	n/a	n/a	n/a	n/a	n/a	n/a	n/a	n/a	n/a	fixation
39644.444548190571	0.0	n/a	812	89	2750	259.555451809	stim	stop-signal	602	1703295	0.0-25.7-1.7	beast_fmri_test	330	1700740,/,1701419,/,1702100,/,1702779,/,1703460,/	t,t,t,t,t	<img class = center src='/static/experiments/beast_fmri_test/images/V.png'></img>	71,89	2750.0	test	<img class = center src='/static/experiments/beast_fmri_test/images/redV.png'></img>	stop	2750.0	3.0	7.0	stop	non-target	V	71,Index Finger	89,Middle Finger	150.0	0.0	2600.0	2750.0	0.0	0.0	n/a	0.0	go_stim
42394.444548190571	2750.0	n/a	812	89	2750	259.555451809	stim	stop-signal	602	1703295	0.0-25.7-1.7	beast_fmri_test	330	1700740,/,1701419,/,1702100,/,1702779,/,1703460,/	t,t,t,t,t	<img class = center src='/static/experiments/beast_fmri_test/images/V.png'></img>	71,89	2750.0	test	<img class = center src='/static/experiments/beast_fmri_test/images/redV.png'></img>	stop	2750.0	3.0	7.0	stop	non-target	V	71,Index Finger	89,Middle Finger	150.0	0.0	2600.0	2750.0	0.0	0.0	n/a	0.0	stop_stim
42394.444548190571	259.55545180933728	n/a	812	89	2750	259.555451809	stim	stop-signal	602	1703295	0.0-25.7-1.7	beast_fmri_test	330	1700740,/,1701419,/,1702100,/,1702779,/,1703460,/	t,t,t,t,t	<img class = center src='/static/experiments/beast_fmri_test/images/V.png'></img>	71,89	2750.0	test	<img class = center src='/static/experiments/beast_fmri_test/images/redV.png'></img>	stop	2750.0	3.0	7.0	stop	non-target	V	71,Index Finger	89,Middle Finger	150.0	0.0	2600.0	2750.0	0.0	0.0	n/a	0.0	ITI
43481	500	n/a	-1	-1	500	0.0	fixation	poldrack-single-stim	603	1704122	0.0-25.8-0.8	beast_fmri_test	330	n/a	n/a	<div class = centerbox2><div class = fixation>+</div></div>	none	500.0	test	n/a	n/a	n/a	n/a	n/a	n/a	n/a	n/a	n/a	n/a	n/a	n/a	n/a	n/a	n/a	n/a	n/a	n/a	fixation
42081.541926203761	2750	n/a	708	71	2750	1401.4580738	stim	stop-signal	604	1706874	0.0-25.8-1.8	beast_fmri_test	330	1704139,/,1704818,/,1705497,/,1706177,/,1706857,/,1707536,/,1708217,/	t,t,t,t,t,t,t	<img class = center src='/static/experiments/beast_fmri_test/images/D.png'></img>	71,89	2750.0	test	<img class = center src='/static/experiments/beast_fmri_test/images/redD.png'></img>	go	2600.0	3.0	8.0	go	target	D	71,Index Finger	89,Middle Finger	150.0	0.0	2600.0	2750.0	1.0	150.0	1.0	n/a	go_stim
44831.541926203761	1401.4580737961264	n/a	708	71	2750	1401.4580738	stim	stop-signal	604	1706874	0.0-25.8-1.8	beast_fmri_test	330	1704139,/,1704818,/,1705497,/,1706177,/,1706857,/,1707536,/,1708217,/	t,t,t,t,t,t,t	<img class = center src='/static/experiments/beast_fmri_test/images/D.png'></img>	71,89	2750.0	test	<img class = center src='/static/experiments/beast_fmri_test/images/redD.png'></img>	go	2600.0	3.0	8.0	go	target	D	71,Index Finger	89,Middle Finger	150.0	0.0	2600.0	2750.0	1.0	150.0	1.0	n/a	ITI
48205	500	n/a	-1	-1	500	0.0	fixation	poldrack-single-stim	605	1708846	0.0-25.9-0.9	beast_fmri_test	330	n/a	n/a	<div class = centerbox2><div class = fixation>+</div></div>	none	500.0	test	n/a	n/a	n/a	n/a	n/a	n/a	n/a	n/a	n/a	n/a	n/a	n/a	n/a	n/a	n/a	n/a	n/a	n/a	fixation
46509.264893877087	2750	n/a	647	71	2750	1698.73510612	stim	stop-signal	606	1711599	0.0-25.9-1.9	beast_fmri_test	330	1708896,/,1709576,/,1710255,/,1710936,/,1711625,/,1712294,/,1712974,/	t,t,t,t,t,t,t	<img class = center src='/static/experiments/beast_fmri_test/images/T.png'></img>	71,89	2750.0	test	<img class = center src='/static/experiments/beast_fmri_test/images/redT.png'></img>	go	2750.0	3.0	9.0	go	non-target	T	71,Index Finger	89,Middle Finger	150.0	0.0	2600.0	2750.0	0.0	0.0	0.0	n/a	go_stim
49259.264893877087	1698.7351061228492	n/a	647	71	2750	1698.73510612	stim	stop-signal	606	1711599	0.0-25.9-1.9	beast_fmri_test	330	1708896,/,1709576,/,1710255,/,1710936,/,1711625,/,1712294,/,1712974,/	t,t,t,t,t,t,t	<img class = center src='/static/experiments/beast_fmri_test/images/T.png'></img>	71,89	2750.0	test	<img class = center src='/static/experiments/beast_fmri_test/images/redT.png'></img>	go	2750.0	3.0	9.0	go	non-target	T	71,Index Finger	89,Middle Finger	150.0	0.0	2600.0	2750.0	0.0	0.0	0.0	n/a	ITI
53227	500	n/a	-1	-1	500	0.0	fixation	poldrack-single-stim	607	1713868	0.0-25.10-0.10	beast_fmri_test	330	1713655,/	t	<div class = centerbox2><div class = fixation>+</div></div>	none	500.0	test	n/a	n/a	n/a	n/a	n/a	n/a	n/a	n/a	n/a	n/a	n/a	n/a	n/a	n/a	n/a	n/a	n/a	n/a	fixation
53183.126443360001	0.0	n/a	-1	-1	2750	44.87355664	stim	stop-signal	608	1716619	0.0-25.10-1.10	beast_fmri_test	330	1714334,/,1715014,/,1715694,/,1716373,/	t,t,t,t	<img class = center src='/static/experiments/beast_fmri_test/images/B.png'></img>	71,89	2750.0	test	<img class = center src='/static/experiments/beast_fmri_test/images/redB.png'></img>	stop	2750.0	3.0	10.0	stop	non-target	B	71,Index Finger	89,Middle Finger	150.0	0.0	2600.0	2750.0	0.0	0.0	n/a	1.0	go_stim
55933.126443360001	2750.0	n/a	-1	-1	2750	44.87355664	stim	stop-signal	608	1716619	0.0-25.10-1.10	beast_fmri_test	330	1714334,/,1715014,/,1715694,/,1716373,/	t,t,t,t	<img class = center src='/static/experiments/beast_fmri_test/images/B.png'></img>	71,89	2750.0	test	<img class = center src='/static/experiments/beast_fmri_test/images/redB.png'></img>	stop	2750.0	3.0	10.0	stop	non-target	B	71,Index Finger	89,Middle Finger	150.0	0.0	2600.0	2750.0	0.0	0.0	n/a	1.0	stop_stim
55933.126443360001	44.873556640039709	n/a	-1	-1	2750	44.87355664	stim	stop-signal	608	1716619	0.0-25.10-1.10	beast_fmri_test	330	1714334,/,1715014,/,1715694,/,1716373,/	t,t,t,t	<img class = center src='/static/experiments/beast_fmri_test/images/B.png'></img>	71,89	2750.0	test	<img class = center src='/static/experiments/beast_fmri_test/images/redB.png'></img>	stop	2750.0	3.0	10.0	stop	non-target	B	71,Index Finger	89,Middle Finger	150.0	0.0	2600.0	2750.0	0.0	0.0	n/a	1.0	ITI
56598	500	n/a	-1	-1	500	0.0	fixation	poldrack-single-stim	609	1717239	0.0-25.11-0.11	beast_fmri_test	330	1717054,/	t	<div class = centerbox2><div class = fixation>+</div></div>	none	500.0	test	n/a	n/a	n/a	n/a	n/a	n/a	n/a	n/a	n/a	n/a	n/a	n/a	n/a	n/a	n/a	n/a	n/a	n/a	fixation
56150.459326474927	2750	n/a	1053	89	2750	449.540673525	stim	stop-signal	610	1719991	0.0-25.11-1.11	beast_fmri_test	330	1717733,/,1718412,/,1719092,/,1719771,/	t,t,t,t	<img class = center src='/static/experiments/beast_fmri_test/images/T.png'></img>	71,89	2750.0	test	<img class = center src='/static/experiments/beast_fmri_test/images/redT.png'></img>	go	2700.0	3.0	11.0	go	non-target	T	71,Index Finger	89,Middle Finger	150.0	50.0	2600.0	2700.0	1.0	50.0	1.0	n/a	go_stim
58900.459326474927	449.54067352515938	n/a	1053	89	2750	449.540673525	stim	stop-signal	610	1719991	0.0-25.11-1.11	beast_fmri_test	330	1717733,/,1718412,/,1719092,/,1719771,/	t,t,t,t	<img class = center src='/static/experiments/beast_fmri_test/images/T.png'></img>	71,89	2750.0	test	<img class = center src='/static/experiments/beast_fmri_test/images/redT.png'></img>	go	2700.0	3.0	11.0	go	non-target	T	71,Index Finger	89,Middle Finger	150.0	50.0	2600.0	2700.0	1.0	50.0	1.0	n/a	ITI
60376	500	n/a	-1	-1	500	0.0	fixation	poldrack-single-stim	611	1721017	0.0-25.12-0.12	beast_fmri_test	330	1720515,/	t	<div class = centerbox2><div class = fixation>+</div></div>	none	500.0	test	n/a	n/a	n/a	n/a	n/a	n/a	n/a	n/a	n/a	n/a	n/a	n/a	n/a	n/a	n/a	n/a	n/a	n/a	fixation
60035.604803632712	150.0	n/a	-1	-1	2750	341.395196367	stim	stop-signal	612	1723768	0.0-25.12-1.12	beast_fmri_test	330	1721133,/,1721811,/,1722490,/,1723171,/,1723850,/	t,t,t,t,t	<img class = center src='/static/experiments/beast_fmri_test/images/T.png'></img>	71,89	2750.0	test	<img class = center src='/static/experiments/beast_fmri_test/images/redT.png'></img>	stop	2600.0	3.0	12.0	stop	target	T	71,Index Finger	89,Middle Finger	150.0	50.0	2600.0	2700.0	0.0	150.0	n/a	1.0	go_stim
62635.604803632712	2600.0	n/a	-1	-1	2750	341.395196367	stim	stop-signal	612	1723768	0.0-25.12-1.12	beast_fmri_test	330	1721133,/,1721811,/,1722490,/,1723171,/,1723850,/	t,t,t,t,t	<img class = center src='/static/experiments/beast_fmri_test/images/T.png'></img>	71,89	2750.0	test	<img class = center src='/static/experiments/beast_fmri_test/images/redT.png'></img>	stop	2600.0	3.0	12.0	stop	target	T	71,Index Finger	89,Middle Finger	150.0	50.0	2600.0	2700.0	0.0	150.0	n/a	1.0	stop_stim
62785.604803632712	341.39519636737305	n/a	-1	-1	2750	341.395196367	stim	stop-signal	612	1723768	0.0-25.12-1.12	beast_fmri_test	330	1721133,/,1721811,/,1722490,/,1723171,/,1723850,/	t,t,t,t,t	<img class = center src='/static/experiments/beast_fmri_test/images/T.png'></img>	71,89	2750.0	test	<img class = center src='/static/experiments/beast_fmri_test/images/redT.png'></img>	stop	2600.0	3.0	12.0	stop	target	T	71,Index Finger	89,Middle Finger	150.0	50.0	2600.0	2700.0	0.0	150.0	n/a	1.0	ITI
64037	500	n/a	-1	-1	500	0.0	fixation	poldrack-single-stim	613	1724678	0.0-25.13-0.13	beast_fmri_test	330	1724529,/	t	<div class = centerbox2><div class = fixation>+</div></div>	none	500.0	test	n/a	n/a	n/a	n/a	n/a	n/a	n/a	n/a	n/a	n/a	n/a	n/a	n/a	n/a	n/a	n/a	n/a	n/a	fixation
63929.791334219975	50.0	n/a	-1	-1	2750	107.20866578	stim	stop-signal	614	1727428	0.0-25.13-1.13	beast_fmri_test	330	1725209,/,1725888,/,1726569,/,1727249,/	t,t,t,t	<img class = center src='/static/experiments/beast_fmri_test/images/P.png'></img>	71,89	2750.0	test	<img class = center src='/static/experiments/beast_fmri_test/images/redP.png'></img>	stop	2700.0	3.0	13.0	stop	non-target	P	71,Index Finger	89,Middle Finger	200.0	50.0	2600.0	2700.0	0.0	50.0	n/a	1.0	go_stim
66629.791334219975	2700.0	n/a	-1	-1	2750	107.20866578	stim	stop-signal	614	1727428	0.0-25.13-1.13	beast_fmri_test	330	1725209,/,1725888,/,1726569,/,1727249,/	t,t,t,t	<img class = center src='/static/experiments/beast_fmri_test/images/P.png'></img>	71,89	2750.0	test	<img class = center src='/static/experiments/beast_fmri_test/images/redP.png'></img>	stop	2700.0	3.0	13.0	stop	non-target	P	71,Index Finger	89,Middle Finger	200.0	50.0	2600.0	2700.0	0.0	50.0	n/a	1.0	stop_stim
66679.791334219975	107.20866577996237	n/a	-1	-1	2750	107.20866578	stim	stop-signal	614	1727428	0.0-25.13-1.13	beast_fmri_test	330	1725209,/,1725888,/,1726569,/,1727249,/	t,t,t,t	<img class = center src='/static/experiments/beast_fmri_test/images/P.png'></img>	71,89	2750.0	test	<img class = center src='/static/experiments/beast_fmri_test/images/redP.png'></img>	stop	2700.0	3.0	13.0	stop	non-target	P	71,Index Finger	89,Middle Finger	200.0	50.0	2600.0	2700.0	0.0	50.0	n/a	1.0	ITI
67474	500	n/a	-1	-1	500	0.0	fixation	poldrack-single-stim	615	1728115	0.0-25.14-0.14	beast_fmri_test	330	1727928,/	t	<div class = centerbox2><div class = fixation>+</div></div>	none	500.0	test	n/a	n/a	n/a	n/a	n/a	n/a	n/a	n/a	n/a	n/a	n/a	n/a	n/a	n/a	n/a	n/a	n/a	n/a	fixation
66766.366903703194	100.0	n/a	-1	-1	2750	710.633096297	stim	stop-signal	616	1730868	0.0-25.14-1.14	beast_fmri_test	330	1728608,/,1729286,/,1729967,/,1730646,/,1731326,/	t,t,t,t,t	<img class = center src='/static/experiments/beast_fmri_test/images/D.png'></img>	71,89	2750.0	test	<img class = center src='/static/experiments/beast_fmri_test/images/redD.png'></img>	stop	2650.0	3.0	14.0	stop	non-target	D	71,Index Finger	89,Middle Finger	200.0	100.0	2600.0	2650.0	0.0	100.0	n/a	1.0	go_stim
69416.366903703194	2650.0	n/a	-1	-1	2750	710.633096297	stim	stop-signal	616	1730868	0.0-25.14-1.14	beast_fmri_test	330	1728608,/,1729286,/,1729967,/,1730646,/,1731326,/	t,t,t,t,t	<img class = center src='/static/experiments/beast_fmri_test/images/D.png'></img>	71,89	2750.0	test	<img class = center src='/static/experiments/beast_fmri_test/images/redD.png'></img>	stop	2650.0	3.0	14.0	stop	non-target	D	71,Index Finger	89,Middle Finger	200.0	100.0	2600.0	2650.0	0.0	100.0	n/a	1.0	stop_stim
69516.366903703194	710.63309629669573	n/a	-1	-1	2750	710.633096297	stim	stop-signal	616	1730868	0.0-25.14-1.14	beast_fmri_test	330	1728608,/,1729286,/,1729967,/,1730646,/,1731326,/	t,t,t,t,t	<img class = center src='/static/experiments/beast_fmri_test/images/D.png'></img>	71,89	2750.0	test	<img class = center src='/static/experiments/beast_fmri_test/images/redD.png'></img>	stop	2650.0	3.0	14.0	stop	non-target	D	71,Index Finger	89,Middle Finger	200.0	100.0	2600.0	2650.0	0.0	100.0	n/a	1.0	ITI
71515	500	n/a	-1	-1	500	0.0	fixation	poldrack-single-stim	617	1732156	0.0-25.15-0.15	beast_fmri_test	330	1732006,/	t	<div class = centerbox2><div class = fixation>+</div></div>	none	500.0	test	n/a	n/a	n/a	n/a	n/a	n/a	n/a	n/a	n/a	n/a	n/a	n/a	n/a	n/a	n/a	n/a	n/a	n/a	fixation
66809.480760982726	2750	n/a	534	71	2750	4706.51923902	stim	stop-signal	618	1734907	0.0-25.15-1.15	beast_fmri_test	330	1732689,/,1733365,/,1734044,/,1734725,/,1735403,/,1736084,/,1736763,/,1737443,/,1738123,/,1738802,/,1739481,/	t,t,t,t,t,t,t,t,t,t,t	<img class = center src='/static/experiments/beast_fmri_test/images/T.png'></img>	71,89	2750.0	test	<img class = center src='/static/experiments/beast_fmri_test/images/redT.png'></img>	go	2550.0	3.0	15.0	go	target	T	71,Index Finger	89,Middle Finger	200.0	150.0	2550.0	2650.0	1.0	200.0	1.0	n/a	go_stim
69559.480760982726	4706.5192390173861	n/a	534	71	2750	4706.51923902	stim	stop-signal	618	1734907	0.0-25.15-1.15	beast_fmri_test	330	1732689,/,1733365,/,1734044,/,1734725,/,1735403,/,1736084,/,1736763,/,1737443,/,1738123,/,1738802,/,1739481,/	t,t,t,t,t,t,t,t,t,t,t	<img class = center src='/static/experiments/beast_fmri_test/images/T.png'></img>	71,89	2750.0	test	<img class = center src='/static/experiments/beast_fmri_test/images/redT.png'></img>	go	2550.0	3.0	15.0	go	target	T	71,Index Finger	89,Middle Finger	200.0	150.0	2550.0	2650.0	1.0	200.0	1.0	n/a	ITI
79541	500	n/a	-1	-1	500	0.0	fixation	poldrack-single-stim	619	1740182	0.0-25.16-0.16	beast_fmri_test	330	1740161,/	t	<div class = centerbox2><div class = fixation>+</div></div>	none	500.0	test	n/a	n/a	n/a	n/a	n/a	n/a	n/a	n/a	n/a	n/a	n/a	n/a	n/a	n/a	n/a	n/a	n/a	n/a	fixation
76671.414239721838	2750	n/a	418	71	2750	2871.58576028	stim	stop-signal	620	1742934	0.0-25.16-1.16	beast_fmri_test	330	1740842,/,1741521,/,1742201,/,1742881,/,1743560,/,1744240,/,1744920,/,1745601,/	t,t,t,t,t,t,t,t	<img class = center src='/static/experiments/beast_fmri_test/images/V.png'></img>	71,89	2750.0	test	<img class = center src='/static/experiments/beast_fmri_test/images/redV.png'></img>	go	2600.0	3.0	16.0	go	non-target	V	71,Index Finger	89,Middle Finger	200.0	150.0	2550.0	2600.0	0.0	150.0	0.0	n/a	go_stim
79421.414239721838	2871.5857602782039	n/a	418	71	2750	2871.58576028	stim	stop-signal	620	1742934	0.0-25.16-1.16	beast_fmri_test	330	1740842,/,1741521,/,1742201,/,1742881,/,1743560,/,1744240,/,1744920,/,1745601,/	t,t,t,t,t,t,t,t	<img class = center src='/static/experiments/beast_fmri_test/images/V.png'></img>	71,89	2750.0	test	<img class = center src='/static/experiments/beast_fmri_test/images/redV.png'></img>	go	2600.0	3.0	16.0	go	non-target	V	71,Index Finger	89,Middle Finger	200.0	150.0	2550.0	2600.0	0.0	150.0	0.0	n/a	ITI
85739	500	n/a	-1	-1	500	0.0	fixation	poldrack-single-stim	621	1746380	0.0-25.17-0.17	beast_fmri_test	330	1746279,/	t	<div class = centerbox2><div class = fixation>+</div></div>	none	500.0	test	n/a	n/a	n/a	n/a	n/a	n/a	n/a	n/a	n/a	n/a	n/a	n/a	n/a	n/a	n/a	n/a	n/a	n/a	fixation
84626.6980403997	2750	n/a	365	71	2750	1116.3019596	stim	stop-signal	622	1749134	0.0-25.17-1.17	beast_fmri_test	330	1746959,/,1747638,/,1748319,/,1748997,/,1749680,/	t,t,t,t,t	<img class = center src='/static/experiments/beast_fmri_test/images/B.png'></img>	71,89	2750.0	test	<img class = center src='/static/experiments/beast_fmri_test/images/redB.png'></img>	go	2600.0	3.0	17.0	go	non-target	B	71,Index Finger	89,Middle Finger	200.0	150.0	2550.0	2600.0	0.0	150.0	0.0	n/a	go_stim
87376.6980403997	1116.3019596002853	n/a	365	71	2750	1116.3019596	stim	stop-signal	622	1749134	0.0-25.17-1.17	beast_fmri_test	330	1746959,/,1747638,/,1748319,/,1748997,/,1749680,/	t,t,t,t,t	<img class = center src='/static/experiments/beast_fmri_test/images/B.png'></img>	71,89	2750.0	test	<img class = center src='/static/experiments/beast_fmri_test/images/redB.png'></img>	go	2600.0	3.0	17.0	go	non-target	B	71,Index Finger	89,Middle Finger	200.0	150.0	2550.0	2600.0	0.0	150.0	0.0	n/a	ITI
90181	500	n/a	-1	-1	500	0.0	fixation	poldrack-single-stim	623	1750822	0.0-25.18-0.18	beast_fmri_test	330	1750357,/	t	<div class = centerbox2><div class = fixation>+</div></div>	none	500.0	test	n/a	n/a	n/a	n/a	n/a	n/a	n/a	n/a	n/a	n/a	n/a	n/a	n/a	n/a	n/a	n/a	n/a	n/a	fixation
89907.304589108564	150.0	n/a	837	89	2750	274.695410891	stim	stop-signal	624	1753573	0.0-25.18-1.18	beast_fmri_test	330	1751037,/,1751716,/,1752396,/,1753076,/,1753756,/	t,t,t,t,t	<img class = center src='/static/experiments/beast_fmri_test/images/P.png'></img>	71,89	2750.0	test	<img class = center src='/static/experiments/beast_fmri_test/images/redP.png'></img>	stop	2600.0	3.0	18.0	stop	non-target	P	71,Index Finger	89,Middle Finger	200.0	150.0	2550.0	2600.0	0.0	150.0	n/a	0.0	go_stim
92507.304589108564	2600.0	n/a	837	89	2750	274.695410891	stim	stop-signal	624	1753573	0.0-25.18-1.18	beast_fmri_test	330	1751037,/,1751716,/,1752396,/,1753076,/,1753756,/	t,t,t,t,t	<img class = center src='/static/experiments/beast_fmri_test/images/P.png'></img>	71,89	2750.0	test	<img class = center src='/static/experiments/beast_fmri_test/images/redP.png'></img>	stop	2600.0	3.0	18.0	stop	non-target	P	71,Index Finger	89,Middle Finger	200.0	150.0	2550.0	2600.0	0.0	150.0	n/a	0.0	stop_stim
92657.304589108564	274.69541089139983	n/a	837	89	2750	274.695410891	stim	stop-signal	624	1753573	0.0-25.18-1.18	beast_fmri_test	330	1751037,/,1751716,/,1752396,/,1753076,/,1753756,/	t,t,t,t,t	<img class = center src='/static/experiments/beast_fmri_test/images/P.png'></img>	71,89	2750.0	test	<img class = center src='/static/experiments/beast_fmri_test/images/redP.png'></img>	stop	2600.0	3.0	18.0	stop	non-target	P	71,Index Finger	89,Middle Finger	200.0	150.0	2550.0	2600.0	0.0	150.0	n/a	0.0	ITI
93780	500	n/a	-1	-1	500	0.0	fixation	poldrack-single-stim	625	1754421	0.0-25.19-0.19	beast_fmri_test	330	n/a	n/a	<div class = centerbox2><div class = fixation>+</div></div>	none	500.0	test	n/a	n/a	n/a	n/a	n/a	n/a	n/a	n/a	n/a	n/a	n/a	n/a	n/a	n/a	n/a	n/a	n/a	n/a	fixation
92589.433683128795	200.0	n/a	-1	-1	2750	1192.56631687	stim	stop-signal	626	1757173	0.0-25.19-1.19	beast_fmri_test	330	1754437,/,1755116,/,1755795,/,1756474,/,1757154,/,1757833,/	t,t,t,t,t,t	<img class = center src='/static/experiments/beast_fmri_test/images/V.png'></img>	71,89	2750.0	test	<img class = center src='/static/experiments/beast_fmri_test/images/redV.png'></img>	stop	2550.0	3.0	19.0	stop	target	V	71,Index Finger	89,Middle Finger	200.0	100.0	2550.0	2600.0	0.0	200.0	n/a	1.0	go_stim
95139.433683128795	2550.0	n/a	-1	-1	2750	1192.56631687	stim	stop-signal	626	1757173	0.0-25.19-1.19	beast_fmri_test	330	1754437,/,1755116,/,1755795,/,1756474,/,1757154,/,1757833,/	t,t,t,t,t,t	<img class = center src='/static/experiments/beast_fmri_test/images/V.png'></img>	71,89	2750.0	test	<img class = center src='/static/experiments/beast_fmri_test/images/redV.png'></img>	stop	2550.0	3.0	19.0	stop	target	V	71,Index Finger	89,Middle Finger	200.0	100.0	2550.0	2600.0	0.0	200.0	n/a	1.0	stop_stim
95339.433683128795	1192.5663168712422	n/a	-1	-1	2750	1192.56631687	stim	stop-signal	626	1757173	0.0-25.19-1.19	beast_fmri_test	330	1754437,/,1755116,/,1755795,/,1756474,/,1757154,/,1757833,/	t,t,t,t,t,t	<img class = center src='/static/experiments/beast_fmri_test/images/V.png'></img>	71,89	2750.0	test	<img class = center src='/static/experiments/beast_fmri_test/images/redV.png'></img>	stop	2550.0	3.0	19.0	stop	target	V	71,Index Finger	89,Middle Finger	200.0	100.0	2550.0	2600.0	0.0	200.0	n/a	1.0	ITI
98304	500	n/a	-1	-1	500	0.0	fixation	poldrack-single-stim	627	1758945	0.0-25.20-0.20	beast_fmri_test	330	1758513,/	t	<div class = centerbox2><div class = fixation>+</div></div>	none	500.0	test	n/a	n/a	n/a	n/a	n/a	n/a	n/a	n/a	n/a	n/a	n/a	n/a	n/a	n/a	n/a	n/a	n/a	n/a	fixation
97894.924528225092	100.0	n/a	-1	-1	2750	410.075471775	stim	stop-signal	628	1761696	0.0-25.20-1.20	beast_fmri_test	330	1759194,/,1759873,/,1760554,/,1761232,/,1761911,/	t,t,t,t,t	<img class = center src='/static/experiments/beast_fmri_test/images/V.png'></img>	71,89	2750.0	test	<img class = center src='/static/experiments/beast_fmri_test/images/redV.png'></img>	stop	2650.0	3.0	20.0	stop	non-target	V	71,Index Finger	89,Middle Finger	250.0	100.0	2550.0	2650.0	0.0	100.0	n/a	1.0	go_stim
100544.92452822509	2650.0	n/a	-1	-1	2750	410.075471775	stim	stop-signal	628	1761696	0.0-25.20-1.20	beast_fmri_test	330	1759194,/,1759873,/,1760554,/,1761232,/,1761911,/	t,t,t,t,t	<img class = center src='/static/experiments/beast_fmri_test/images/V.png'></img>	71,89	2750.0	test	<img class = center src='/static/experiments/beast_fmri_test/images/redV.png'></img>	stop	2650.0	3.0	20.0	stop	non-target	V	71,Index Finger	89,Middle Finger	250.0	100.0	2550.0	2650.0	0.0	100.0	n/a	1.0	stop_stim
100644.92452822509	410.07547177483264	n/a	-1	-1	2750	410.075471775	stim	stop-signal	628	1761696	0.0-25.20-1.20	beast_fmri_test	330	1759194,/,1759873,/,1760554,/,1761232,/,1761911,/	t,t,t,t,t	<img class = center src='/static/experiments/beast_fmri_test/images/V.png'></img>	71,89	2750.0	test	<img class = center src='/static/experiments/beast_fmri_test/images/redV.png'></img>	stop	2650.0	3.0	20.0	stop	non-target	V	71,Index Finger	89,Middle Finger	250.0	100.0	2550.0	2650.0	0.0	100.0	n/a	1.0	ITI
102041	500	n/a	-1	-1	500	0.0	fixation	poldrack-single-stim	629	1762682	0.0-25.21-0.21	beast_fmri_test	330	1762595,/	t	<div class = centerbox2><div class = fixation>+</div></div>	none	500.0	test	n/a	n/a	n/a	n/a	n/a	n/a	n/a	n/a	n/a	n/a	n/a	n/a	n/a	n/a	n/a	n/a	n/a	n/a	fixation
101809.45793295023	150.0	n/a	-1	-1	2750	233.54206705	stim	stop-signal	630	1765434	0.0-25.21-1.21	beast_fmri_test	330	1763272,/,1763952,/,1764631,/,1765310,/	t,t,t,t	<img class = center src='/static/experiments/beast_fmri_test/images/D.png'></img>	71,89	2750.0	test	<img class = center src='/static/experiments/beast_fmri_test/images/redD.png'></img>	stop	2600.0	3.0	21.0	stop	non-target	D	71,Index Finger	89,Middle Finger	250.0	150.0	2550.0	2600.0	0.0	150.0	n/a	1.0	go_stim
104409.45793295023	2600.0	n/a	-1	-1	2750	233.54206705	stim	stop-signal	630	1765434	0.0-25.21-1.21	beast_fmri_test	330	1763272,/,1763952,/,1764631,/,1765310,/	t,t,t,t	<img class = center src='/static/experiments/beast_fmri_test/images/D.png'></img>	71,89	2750.0	test	<img class = center src='/static/experiments/beast_fmri_test/images/redD.png'></img>	stop	2600.0	3.0	21.0	stop	non-target	D	71,Index Finger	89,Middle Finger	250.0	150.0	2550.0	2600.0	0.0	150.0	n/a	1.0	stop_stim
104559.45793295023	233.54206704976997	n/a	-1	-1	2750	233.54206705	stim	stop-signal	630	1765434	0.0-25.21-1.21	beast_fmri_test	330	1763272,/,1763952,/,1764631,/,1765310,/	t,t,t,t	<img class = center src='/static/experiments/beast_fmri_test/images/D.png'></img>	71,89	2750.0	test	<img class = center src='/static/experiments/beast_fmri_test/images/redD.png'></img>	stop	2600.0	3.0	21.0	stop	non-target	D	71,Index Finger	89,Middle Finger	250.0	150.0	2550.0	2600.0	0.0	150.0	n/a	1.0	ITI
105597	500	n/a	-1	-1	500	0.0	fixation	poldrack-single-stim	631	1766238	0.0-25.22-0.22	beast_fmri_test	330	1765991,/	t	<div class = centerbox2><div class = fixation>+</div></div>	none	500.0	test	n/a	n/a	n/a	n/a	n/a	n/a	n/a	n/a	n/a	n/a	n/a	n/a	n/a	n/a	n/a	n/a	n/a	n/a	fixation
105403.15566546656	2750	n/a	919	71	2750	195.844334534	stim	stop-signal	632	1768990	0.0-25.22-1.22	beast_fmri_test	330	1766674,/,1767348,/,1768028,/,1768709,/	t,t,t,t	<img class = center src='/static/experiments/beast_fmri_test/images/V.png'></img>	71,89	2750.0	test	<img class = center src='/static/experiments/beast_fmri_test/images/redV.png'></img>	go	2500.0	3.0	22.0	go	target	V	71,Index Finger	89,Middle Finger	250.0	200.0	2500.0	2600.0	1.0	250.0	1.0	n/a	go_stim
108153.15566546656	195.84433453353611	n/a	919	71	2750	195.844334534	stim	stop-signal	632	1768990	0.0-25.22-1.22	beast_fmri_test	330	1766674,/,1767348,/,1768028,/,1768709,/	t,t,t,t	<img class = center src='/static/experiments/beast_fmri_test/images/V.png'></img>	71,89	2750.0	test	<img class = center src='/static/experiments/beast_fmri_test/images/redV.png'></img>	go	2500.0	3.0	22.0	go	target	V	71,Index Finger	89,Middle Finger	250.0	200.0	2500.0	2600.0	1.0	250.0	1.0	n/a	ITI
109119	500	n/a	-1	-1	500	0.0	fixation	poldrack-single-stim	633	1769760	0.0-25.23-0.23	beast_fmri_test	330	1769408,/	t	<div class = centerbox2><div class = fixation>+</div></div>	none	500.0	test	n/a	n/a	n/a	n/a	n/a	n/a	n/a	n/a	n/a	n/a	n/a	n/a	n/a	n/a	n/a	n/a	n/a	n/a	fixation
107464.41838952317	2750	n/a	1299	89	2750	1655.58161048	stim	stop-signal	634	1772511	0.0-25.23-1.23	beast_fmri_test	330	1770068,/,1770748,/,1771427,/,1772107,/,1772787,/,1773467,/,1774146,/	t,t,t,t,t,t,t	<img class = center src='/static/experiments/beast_fmri_test/images/V.png'></img>	71,89	2750.0	test	<img class = center src='/static/experiments/beast_fmri_test/images/redV.png'></img>	go	2500.0	3.0	23.0	go	target	V	71,Index Finger	89,Middle Finger	250.0	200.0	2500.0	2600.0	0.0	250.0	0.0	n/a	go_stim
110214.41838952317	1655.5816104769199	n/a	1299	89	2750	1655.58161048	stim	stop-signal	634	1772511	0.0-25.23-1.23	beast_fmri_test	330	1770068,/,1770748,/,1771427,/,1772107,/,1772787,/,1773467,/,1774146,/	t,t,t,t,t,t,t	<img class = center src='/static/experiments/beast_fmri_test/images/V.png'></img>	71,89	2750.0	test	<img class = center src='/static/experiments/beast_fmri_test/images/redV.png'></img>	go	2500.0	3.0	23.0	go	target	V	71,Index Finger	89,Middle Finger	250.0	200.0	2500.0	2600.0	0.0	250.0	0.0	n/a	ITI
114089	500	n/a	-1	-1	500	0.0	fixation	poldrack-single-stim	635	1774730	0.0-25.24-0.24	beast_fmri_test	330	n/a	n/a	<div class = centerbox2><div class = fixation>+</div></div>	none	500.0	test	n/a	n/a	n/a	n/a	n/a	n/a	n/a	n/a	n/a	n/a	n/a	n/a	n/a	n/a	n/a	n/a	n/a	n/a	fixation
113525.4243907819	2750	n/a	1417	89	2750	566.575609218	stim	stop-signal	636	1777483	0.0-25.24-1.24	beast_fmri_test	330	1774827,/,1775505,/,1776185,/,1776865,/,1777544,/	t,t,t,t,t	<img class = center src='/static/experiments/beast_fmri_test/images/P.png'></img>	71,89	2750.0	test	<img class = center src='/static/experiments/beast_fmri_test/images/redP.png'></img>	go	2550.0	3.0	24.0	go	non-target	P	71,Index Finger	89,Middle Finger	250.0	200.0	2500.0	2550.0	1.0	200.0	1.0	n/a	go_stim
116275.4243907819	566.57560921820709	n/a	1417	89	2750	566.575609218	stim	stop-signal	636	1777483	0.0-25.24-1.24	beast_fmri_test	330	1774827,/,1775505,/,1776185,/,1776865,/,1777544,/	t,t,t,t,t	<img class = center src='/static/experiments/beast_fmri_test/images/P.png'></img>	71,89	2750.0	test	<img class = center src='/static/experiments/beast_fmri_test/images/redP.png'></img>	go	2550.0	3.0	24.0	go	non-target	P	71,Index Finger	89,Middle Finger	250.0	200.0	2500.0	2550.0	1.0	200.0	1.0	n/a	ITI
117972	500	n/a	-1	-1	500	0.0	fixation	poldrack-single-stim	637	1778613	0.0-25.25-0.25	beast_fmri_test	330	1778225,/	t	<div class = centerbox2><div class = fixation>+</div></div>	none	500.0	test	n/a	n/a	n/a	n/a	n/a	n/a	n/a	n/a	n/a	n/a	n/a	n/a	n/a	n/a	n/a	n/a	n/a	n/a	fixation
117167.90373933967	2750	n/a	402	71	2750	806.09626066	stim	stop-signal	638	1781365	0.0-25.25-1.25	beast_fmri_test	330	1778905,/,1779584,/,1780263,/,1780943,/,1781622,/	t,t,t,t,t	<img class = center src='/static/experiments/beast_fmri_test/images/V.png'></img>	71,89	2750.0	test	<img class = center src='/static/experiments/beast_fmri_test/images/redV.png'></img>	go	2500.0	3.0	25.0	go	target	V	71,Index Finger	89,Middle Finger	250.0	200.0	2500.0	2550.0	1.0	250.0	1.0	n/a	go_stim
119917.90373933967	806.09626066024032	n/a	402	71	2750	806.09626066	stim	stop-signal	638	1781365	0.0-25.25-1.25	beast_fmri_test	330	1778905,/,1779584,/,1780263,/,1780943,/,1781622,/	t,t,t,t,t	<img class = center src='/static/experiments/beast_fmri_test/images/V.png'></img>	71,89	2750.0	test	<img class = center src='/static/experiments/beast_fmri_test/images/redV.png'></img>	go	2500.0	3.0	25.0	go	target	V	71,Index Finger	89,Middle Finger	250.0	200.0	2500.0	2550.0	1.0	250.0	1.0	n/a	ITI
122096	500	n/a	-1	-1	500	0.0	fixation	poldrack-single-stim	639	1782737	0.0-25.26-0.26	beast_fmri_test	330	1782302,/	t	<div class = centerbox2><div class = fixation>+</div></div>	none	500.0	test	n/a	n/a	n/a	n/a	n/a	n/a	n/a	n/a	n/a	n/a	n/a	n/a	n/a	n/a	n/a	n/a	n/a	n/a	fixation
121809.79836823419	2750	n/a	1168	89	2750	288.201631766	stim	stop-signal	640	1785489	0.0-25.26-1.26	beast_fmri_test	330	1782983,/,1783662,/,1784343,/,1785022,/,1785700,/	t,t,t,t,t	<img class = center src='/static/experiments/beast_fmri_test/images/P.png'></img>	71,89	2750.0	test	<img class = center src='/static/experiments/beast_fmri_test/images/redP.png'></img>	go	2550.0	3.0	26.0	go	non-target	P	71,Index Finger	89,Middle Finger	250.0	200.0	2500.0	2550.0	1.0	200.0	1.0	n/a	go_stim
124559.79836823419	288.20163176580348	n/a	1168	89	2750	288.201631766	stim	stop-signal	640	1785489	0.0-25.26-1.26	beast_fmri_test	330	1782983,/,1783662,/,1784343,/,1785022,/,1785700,/	t,t,t,t,t	<img class = center src='/static/experiments/beast_fmri_test/images/P.png'></img>	71,89	2750.0	test	<img class = center src='/static/experiments/beast_fmri_test/images/redP.png'></img>	go	2550.0	3.0	26.0	go	non-target	P	71,Index Finger	89,Middle Finger	250.0	200.0	2500.0	2550.0	1.0	200.0	1.0	n/a	ITI
125708	500	n/a	-1	-1	500	0.0	fixation	poldrack-single-stim	641	1786349	0.0-25.27-0.27	beast_fmri_test	330	n/a	n/a	<div class = centerbox2><div class = fixation>+</div></div>	none	500.0	test	n/a	n/a	n/a	n/a	n/a	n/a	n/a	n/a	n/a	n/a	n/a	n/a	n/a	n/a	n/a	n/a	n/a	n/a	fixation
124831.52585163503	2750	n/a	502	71	2750	877.474148365	stim	stop-signal	642	1789100	0.0-25.27-1.27	beast_fmri_test	330	1786380,/,1787059,/,1787740,/,1788420,/,1789099,/,1789778,/	t,t,t,t,t,t	<img class = center src='/static/experiments/beast_fmri_test/images/P.png'></img>	71,89	2750.0	test	<img class = center src='/static/experiments/beast_fmri_test/images/redP.png'></img>	go	2500.0	3.0	27.0	go	target	P	71,Index Finger	89,Middle Finger	250.0	200.0	2500.0	2550.0	1.0	250.0	1.0	n/a	go_stim
127581.52585163503	877.47414836491851	n/a	502	71	2750	877.474148365	stim	stop-signal	642	1789100	0.0-25.27-1.27	beast_fmri_test	330	1786380,/,1787059,/,1787740,/,1788420,/,1789099,/,1789778,/	t,t,t,t,t,t	<img class = center src='/static/experiments/beast_fmri_test/images/P.png'></img>	71,89	2750.0	test	<img class = center src='/static/experiments/beast_fmri_test/images/redP.png'></img>	go	2500.0	3.0	27.0	go	target	P	71,Index Finger	89,Middle Finger	250.0	200.0	2500.0	2550.0	1.0	250.0	1.0	n/a	ITI
129902	500	n/a	-1	-1	500	0.0	fixation	poldrack-single-stim	643	1790543	0.0-25.28-0.28	beast_fmri_test	330	1790458,/	t	<div class = centerbox2><div class = fixation>+</div></div>	none	500.0	test	n/a	n/a	n/a	n/a	n/a	n/a	n/a	n/a	n/a	n/a	n/a	n/a	n/a	n/a	n/a	n/a	n/a	n/a	fixation
129492.98799376073	2750	n/a	1882	89	2750	409.012006239	stim	stop-signal	644	1793293	0.0-25.28-1.28	beast_fmri_test	330	1791138,/,1791817,/,1792498,/,1793177,/	t,t,t,t	<img class = center src='/static/experiments/beast_fmri_test/images/P.png'></img>	71,89	2750.0	test	<img class = center src='/static/experiments/beast_fmri_test/images/redP.png'></img>	go	2550.0	3.0	28.0	go	non-target	P	71,Index Finger	89,Middle Finger	250.0	200.0	2500.0	2550.0	1.0	200.0	1.0	n/a	go_stim
132242.98799376073	409.01200623932311	n/a	1882	89	2750	409.012006239	stim	stop-signal	644	1793293	0.0-25.28-1.28	beast_fmri_test	330	1791138,/,1791817,/,1792498,/,1793177,/	t,t,t,t	<img class = center src='/static/experiments/beast_fmri_test/images/P.png'></img>	71,89	2750.0	test	<img class = center src='/static/experiments/beast_fmri_test/images/redP.png'></img>	go	2550.0	3.0	28.0	go	non-target	P	71,Index Finger	89,Middle Finger	250.0	200.0	2500.0	2550.0	1.0	200.0	1.0	n/a	ITI
133651	500	n/a	-1	-1	500	0.0	fixation	poldrack-single-stim	645	1794292	0.0-25.29-0.29	beast_fmri_test	330	1793865,/	t	<div class = centerbox2><div class = fixation>+</div></div>	none	500.0	test	n/a	n/a	n/a	n/a	n/a	n/a	n/a	n/a	n/a	n/a	n/a	n/a	n/a	n/a	n/a	n/a	n/a	n/a	fixation
133596.07153770071	2750	n/a	1084	89	2750	55.9284622993	stim	stop-signal	646	1797043	0.0-25.29-1.29	beast_fmri_test	330	1794537,/,1795216,/,1795895,/,1796575,/	t,t,t,t	<img class = center src='/static/experiments/beast_fmri_test/images/B.png'></img>	71,89	2750.0	test	<img class = center src='/static/experiments/beast_fmri_test/images/redB.png'></img>	go	2550.0	3.0	29.0	go	non-target	B	71,Index Finger	89,Middle Finger	250.0	200.0	2500.0	2550.0	1.0	200.0	1.0	n/a	go_stim
136346.07153770071	55.928462299304428	n/a	1084	89	2750	55.9284622993	stim	stop-signal	646	1797043	0.0-25.29-1.29	beast_fmri_test	330	1794537,/,1795216,/,1795895,/,1796575,/	t,t,t,t	<img class = center src='/static/experiments/beast_fmri_test/images/B.png'></img>	71,89	2750.0	test	<img class = center src='/static/experiments/beast_fmri_test/images/redB.png'></img>	go	2550.0	3.0	29.0	go	non-target	B	71,Index Finger	89,Middle Finger	250.0	200.0	2500.0	2550.0	1.0	200.0	1.0	n/a	ITI
137053	500	n/a	-1	-1	500	0.0	fixation	poldrack-single-stim	647	1797694	0.0-25.30-0.30	beast_fmri_test	330	1797256,/	t	<div class = centerbox2><div class = fixation>+</div></div>	none	500.0	test	n/a	n/a	n/a	n/a	n/a	n/a	n/a	n/a	n/a	n/a	n/a	n/a	n/a	n/a	n/a	n/a	n/a	n/a	fixation
135023.15189965302	2750	n/a	1368	89	2750	2030.84810035	stim	stop-signal	648	1800445	0.0-25.30-1.30	beast_fmri_test	330	1797935,/,1798615,/,1799294,/,1799974,/,1800654,/,1801333,/,1802014,/	t,t,t,t,t,t,t	<img class = center src='/static/experiments/beast_fmri_test/images/B.png'></img>	71,89	2750.0	test	<img class = center src='/static/experiments/beast_fmri_test/images/redB.png'></img>	go	2550.0	3.0	30.0	go	non-target	B	71,Index Finger	89,Middle Finger	250.0	200.0	2500.0	2550.0	1.0	200.0	1.0	n/a	go_stim
137773.15189965302	2030.848100346991	n/a	1368	89	2750	2030.84810035	stim	stop-signal	648	1800445	0.0-25.30-1.30	beast_fmri_test	330	1797935,/,1798615,/,1799294,/,1799974,/,1800654,/,1801333,/,1802014,/	t,t,t,t,t,t,t	<img class = center src='/static/experiments/beast_fmri_test/images/B.png'></img>	71,89	2750.0	test	<img class = center src='/static/experiments/beast_fmri_test/images/redB.png'></img>	go	2550.0	3.0	30.0	go	non-target	B	71,Index Finger	89,Middle Finger	250.0	200.0	2500.0	2550.0	1.0	200.0	1.0	n/a	ITI
142406	500	n/a	-1	-1	500	0.0	fixation	poldrack-single-stim	649	1803047	0.0-25.31-0.31	beast_fmri_test	330	1802694,/	t	<div class = centerbox2><div class = fixation>+</div></div>	none	500.0	test	n/a	n/a	n/a	n/a	n/a	n/a	n/a	n/a	n/a	n/a	n/a	n/a	n/a	n/a	n/a	n/a	n/a	n/a	fixation
141943.37019906566	2750	n/a	907	89	2750	463.629800934	stim	stop-signal	650	1805798	0.0-25.31-1.31	beast_fmri_test	330	1803373,/,1804052,/,1804732,/,1805411,/,1806092,/	t,t,t,t,t	<img class = center src='/static/experiments/beast_fmri_test/images/T.png'></img>	71,89	2750.0	test	<img class = center src='/static/experiments/beast_fmri_test/images/redT.png'></img>	go	2550.0	3.0	31.0	go	non-target	T	71,Index Finger	89,Middle Finger	250.0	200.0	2500.0	2550.0	1.0	200.0	1.0	n/a	go_stim
144693.37019906566	463.629800934353	n/a	907	89	2750	463.629800934	stim	stop-signal	650	1805798	0.0-25.31-1.31	beast_fmri_test	330	1803373,/,1804052,/,1804732,/,1805411,/,1806092,/	t,t,t,t,t	<img class = center src='/static/experiments/beast_fmri_test/images/T.png'></img>	71,89	2750.0	test	<img class = center src='/static/experiments/beast_fmri_test/images/redT.png'></img>	go	2550.0	3.0	31.0	go	non-target	T	71,Index Finger	89,Middle Finger	250.0	200.0	2500.0	2550.0	1.0	200.0	1.0	n/a	ITI
146194	500	n/a	-1	-1	500	0.0	fixation	poldrack-single-stim	651	1806835	0.0-25.32-0.32	beast_fmri_test	330	1806772,/	t	<div class = centerbox2><div class = fixation>+</div></div>	none	500.0	test	n/a	n/a	n/a	n/a	n/a	n/a	n/a	n/a	n/a	n/a	n/a	n/a	n/a	n/a	n/a	n/a	n/a	n/a	fixation
144418.65070169186	2750	n/a	1336	89	2750	1776.34929831	stim	stop-signal	652	1809586	0.0-25.32-1.32	beast_fmri_test	330	1807452,/,1808131,/,1808810,/,1809489,/,1810169,/,1810850,/	t,t,t,t,t,t	<img class = center src='/static/experiments/beast_fmri_test/images/T.png'></img>	71,89	2750.0	test	<img class = center src='/static/experiments/beast_fmri_test/images/redT.png'></img>	go	2550.0	3.0	32.0	go	non-target	T	71,Index Finger	89,Middle Finger	250.0	200.0	2500.0	2550.0	1.0	200.0	1.0	n/a	go_stim
147168.65070169186	1776.3492983081424	n/a	1336	89	2750	1776.34929831	stim	stop-signal	652	1809586	0.0-25.32-1.32	beast_fmri_test	330	1807452,/,1808131,/,1808810,/,1809489,/,1810169,/,1810850,/	t,t,t,t,t,t	<img class = center src='/static/experiments/beast_fmri_test/images/T.png'></img>	71,89	2750.0	test	<img class = center src='/static/experiments/beast_fmri_test/images/redT.png'></img>	go	2550.0	3.0	32.0	go	non-target	T	71,Index Finger	89,Middle Finger	250.0	200.0	2500.0	2550.0	1.0	200.0	1.0	n/a	ITI
151299	500	n/a	-1	-1	500	0.0	fixation	poldrack-single-stim	653	1811940	0.0-25.33-0.33	beast_fmri_test	330	1811529,/	t	<div class = centerbox2><div class = fixation>+</div></div>	none	500.0	test	n/a	n/a	n/a	n/a	n/a	n/a	n/a	n/a	n/a	n/a	n/a	n/a	n/a	n/a	n/a	n/a	n/a	n/a	fixation
150444.40801947168	200.0	n/a	-1	-1	2750	856.591980528	stim	stop-signal	654	1814692	0.0-25.33-1.33	beast_fmri_test	330	1812208,/,1812890,/,1813568,/,1814247,/,1814927,/	t,t,t,t,t	<img class = center src='/static/experiments/beast_fmri_test/images/T.png'></img>	71,89	2750.0	test	<img class = center src='/static/experiments/beast_fmri_test/images/redT.png'></img>	stop	2550.0	3.0	33.0	stop	non-target	T	71,Index Finger	89,Middle Finger	250.0	200.0	2500.0	2550.0	0.0	200.0	n/a	1.0	go_stim
152994.40801947168	2550.0	n/a	-1	-1	2750	856.591980528	stim	stop-signal	654	1814692	0.0-25.33-1.33	beast_fmri_test	330	1812208,/,1812890,/,1813568,/,1814247,/,1814927,/	t,t,t,t,t	<img class = center src='/static/experiments/beast_fmri_test/images/T.png'></img>	71,89	2750.0	test	<img class = center src='/static/experiments/beast_fmri_test/images/redT.png'></img>	stop	2550.0	3.0	33.0	stop	non-target	T	71,Index Finger	89,Middle Finger	250.0	200.0	2500.0	2550.0	0.0	200.0	n/a	1.0	stop_stim
153194.40801947168	856.5919805282781	n/a	-1	-1	2750	856.591980528	stim	stop-signal	654	1814692	0.0-25.33-1.33	beast_fmri_test	330	1812208,/,1812890,/,1813568,/,1814247,/,1814927,/	t,t,t,t,t	<img class = center src='/static/experiments/beast_fmri_test/images/T.png'></img>	71,89	2750.0	test	<img class = center src='/static/experiments/beast_fmri_test/images/redT.png'></img>	stop	2550.0	3.0	33.0	stop	non-target	T	71,Index Finger	89,Middle Finger	250.0	200.0	2500.0	2550.0	0.0	200.0	n/a	1.0	ITI
155481	500	n/a	-1	-1	500	0.0	fixation	poldrack-single-stim	655	1816122	0.0-25.34-0.34	beast_fmri_test	330	1815621,/	t	<div class = centerbox2><div class = fixation>+</div></div>	none	500.0	test	n/a	n/a	n/a	n/a	n/a	n/a	n/a	n/a	n/a	n/a	n/a	n/a	n/a	n/a	n/a	n/a	n/a	n/a	fixation
155154.38388682273	250.0	n/a	-1	-1	2750	329.616113177	stim	stop-signal	656	1818875	0.0-25.34-1.34	beast_fmri_test	330	1816286,/,1816967,/,1817646,/,1818325,/,1819005,/	t,t,t,t,t	<img class = center src='/static/experiments/beast_fmri_test/images/D.png'></img>	71,89	2750.0	test	<img class = center src='/static/experiments/beast_fmri_test/images/redD.png'></img>	stop	2500.0	3.0	34.0	stop	non-target	D	71,Index Finger	89,Middle Finger	250.0	250.0	2500.0	2500.0	0.0	250.0	n/a	1.0	go_stim
157654.38388682273	2500.0	n/a	-1	-1	2750	329.616113177	stim	stop-signal	656	1818875	0.0-25.34-1.34	beast_fmri_test	330	1816286,/,1816967,/,1817646,/,1818325,/,1819005,/	t,t,t,t,t	<img class = center src='/static/experiments/beast_fmri_test/images/D.png'></img>	71,89	2750.0	test	<img class = center src='/static/experiments/beast_fmri_test/images/redD.png'></img>	stop	2500.0	3.0	34.0	stop	non-target	D	71,Index Finger	89,Middle Finger	250.0	250.0	2500.0	2500.0	0.0	250.0	n/a	1.0	stop_stim
157904.38388682273	329.61611317734702	n/a	-1	-1	2750	329.616113177	stim	stop-signal	656	1818875	0.0-25.34-1.34	beast_fmri_test	330	1816286,/,1816967,/,1817646,/,1818325,/,1819005,/	t,t,t,t,t	<img class = center src='/static/experiments/beast_fmri_test/images/D.png'></img>	71,89	2750.0	test	<img class = center src='/static/experiments/beast_fmri_test/images/redD.png'></img>	stop	2500.0	3.0	34.0	stop	non-target	D	71,Index Finger	89,Middle Finger	250.0	250.0	2500.0	2500.0	0.0	250.0	n/a	1.0	ITI
159137	500	n/a	-1	-1	500	0.0	fixation	poldrack-single-stim	657	1819778	0.0-25.35-0.35	beast_fmri_test	330	1819685,/	t	<div class = centerbox2><div class = fixation>+</div></div>	none	500.0	test	n/a	n/a	n/a	n/a	n/a	n/a	n/a	n/a	n/a	n/a	n/a	n/a	n/a	n/a	n/a	n/a	n/a	n/a	fixation
157868.79068855708	2750	n/a	506	71	2750	1270.20931144	stim	stop-signal	658	1822530	0.0-25.35-1.35	beast_fmri_test	330	1820364,/,1821045,/,1821724,/,1822404,/,1823084,/,1823763,/	t,t,t,t,t,t	<img class = center src='/static/experiments/beast_fmri_test/images/T.png'></img>	71,89	2750.0	test	<img class = center src='/static/experiments/beast_fmri_test/images/redT.png'></img>	go	2500.0	3.0	35.0	go	target	T	71,Index Finger	89,Middle Finger	250.0	300.0	2500.0	2500.0	1.0	250.0	1.0	n/a	go_stim
160618.79068855708	1270.2093114428924	n/a	506	71	2750	1270.20931144	stim	stop-signal	658	1822530	0.0-25.35-1.35	beast_fmri_test	330	1820364,/,1821045,/,1821724,/,1822404,/,1823084,/,1823763,/	t,t,t,t,t,t	<img class = center src='/static/experiments/beast_fmri_test/images/T.png'></img>	71,89	2750.0	test	<img class = center src='/static/experiments/beast_fmri_test/images/redT.png'></img>	go	2500.0	3.0	35.0	go	target	T	71,Index Finger	89,Middle Finger	250.0	300.0	2500.0	2500.0	1.0	250.0	1.0	n/a	ITI
163734	500	n/a	-1	-1	500	0.0	fixation	poldrack-single-stim	659	1824375	0.0-25.36-0.36	beast_fmri_test	330	n/a	n/a	<div class = centerbox2><div class = fixation>+</div></div>	none	500.0	test	n/a	n/a	n/a	n/a	n/a	n/a	n/a	n/a	n/a	n/a	n/a	n/a	n/a	n/a	n/a	n/a	n/a	n/a	fixation
163410.35869384464	2750	n/a	765	89	2750	324.641306155	stim	stop-signal	660	1827126	0.0-25.36-1.36	beast_fmri_test	330	1824443,/,1825122,/,1825802,/,1826483,/,1827161,/	t,t,t,t,t	<img class = center src='/static/experiments/beast_fmri_test/images/B.png'></img>	71,89	2750.0	test	<img class = center src='/static/experiments/beast_fmri_test/images/redB.png'></img>	go	2450.0	3.0	36.0	go	non-target	B	71,Index Finger	89,Middle Finger	250.0	300.0	2500.0	2450.0	1.0	300.0	1.0	n/a	go_stim
166160.35869384464	324.64130615540824	n/a	765	89	2750	324.641306155	stim	stop-signal	660	1827126	0.0-25.36-1.36	beast_fmri_test	330	1824443,/,1825122,/,1825802,/,1826483,/,1827161,/	t,t,t,t,t	<img class = center src='/static/experiments/beast_fmri_test/images/B.png'></img>	71,89	2750.0	test	<img class = center src='/static/experiments/beast_fmri_test/images/redB.png'></img>	go	2450.0	3.0	36.0	go	non-target	B	71,Index Finger	89,Middle Finger	250.0	300.0	2500.0	2450.0	1.0	300.0	1.0	n/a	ITI
167389	500	n/a	-1	-1	500	0.0	fixation	poldrack-single-stim	661	1828030	0.0-25.37-0.37	beast_fmri_test	330	1827841,/	t	<div class = centerbox2><div class = fixation>+</div></div>	none	500.0	test	n/a	n/a	n/a	n/a	n/a	n/a	n/a	n/a	n/a	n/a	n/a	n/a	n/a	n/a	n/a	n/a	n/a	n/a	fixation
167374.77818048908	2750	n/a	1423	71	2750	15.221819511	stim	stop-signal	662	1830781	0.0-25.37-1.37	beast_fmri_test	330	1828521,/,1829200,/,1829881,/,1830561,/	t,t,t,t	<img class = center src='/static/experiments/beast_fmri_test/images/T.png'></img>	71,89	2750.0	test	<img class = center src='/static/experiments/beast_fmri_test/images/redT.png'></img>	go	2450.0	3.0	37.0	go	non-target	T	71,Index Finger	89,Middle Finger	250.0	300.0	2500.0	2450.0	0.0	300.0	0.0	n/a	go_stim
170124.77818048908	15.221819511028855	n/a	1423	71	2750	15.221819511	stim	stop-signal	662	1830781	0.0-25.37-1.37	beast_fmri_test	330	1828521,/,1829200,/,1829881,/,1830561,/	t,t,t,t	<img class = center src='/static/experiments/beast_fmri_test/images/T.png'></img>	71,89	2750.0	test	<img class = center src='/static/experiments/beast_fmri_test/images/redT.png'></img>	go	2450.0	3.0	37.0	go	non-target	T	71,Index Finger	89,Middle Finger	250.0	300.0	2500.0	2450.0	0.0	300.0	0.0	n/a	ITI
170726	500	n/a	-1	-1	500	0.0	fixation	poldrack-single-stim	663	1831367	0.0-25.38-0.38	beast_fmri_test	330	1831241,/	t	<div class = centerbox2><div class = fixation>+</div></div>	none	500.0	test	n/a	n/a	n/a	n/a	n/a	n/a	n/a	n/a	n/a	n/a	n/a	n/a	n/a	n/a	n/a	n/a	n/a	n/a	fixation
170590.52294653608	2750	n/a	748	89	2750	136.477053464	stim	stop-signal	664	1834118	0.0-25.38-1.38	beast_fmri_test	330	1831919,/,1832599,/,1833278,/,1833958,/	t,t,t,t	<img class = center src='/static/experiments/beast_fmri_test/images/P.png'></img>	71,89	2750.0	test	<img class = center src='/static/experiments/beast_fmri_test/images/redP.png'></img>	go	2450.0	3.0	38.0	go	non-target	P	71,Index Finger	89,Middle Finger	250.0	300.0	2500.0	2450.0	1.0	300.0	1.0	n/a	go_stim
173340.52294653608	136.47705346402554	n/a	748	89	2750	136.477053464	stim	stop-signal	664	1834118	0.0-25.38-1.38	beast_fmri_test	330	1831919,/,1832599,/,1833278,/,1833958,/	t,t,t,t	<img class = center src='/static/experiments/beast_fmri_test/images/P.png'></img>	71,89	2750.0	test	<img class = center src='/static/experiments/beast_fmri_test/images/redP.png'></img>	go	2450.0	3.0	38.0	go	non-target	P	71,Index Finger	89,Middle Finger	250.0	300.0	2500.0	2450.0	1.0	300.0	1.0	n/a	ITI
174182	500	n/a	-1	-1	500	0.0	fixation	poldrack-single-stim	665	1834823	0.0-25.39-0.39	beast_fmri_test	330	1834638,/	t	<div class = centerbox2><div class = fixation>+</div></div>	none	500.0	test	n/a	n/a	n/a	n/a	n/a	n/a	n/a	n/a	n/a	n/a	n/a	n/a	n/a	n/a	n/a	n/a	n/a	n/a	fixation
173229.58903825469	2750	n/a	1285	89	2750	954.410961745	stim	stop-signal	666	1837575	0.0-25.39-1.39	beast_fmri_test	330	1835318,/,1835999,/,1836677,/,1837356,/,1838036,/	t,t,t,t,t	<img class = center src='/static/experiments/beast_fmri_test/images/T.png'></img>	71,89	2750.0	test	<img class = center src='/static/experiments/beast_fmri_test/images/redT.png'></img>	go	2450.0	3.0	39.0	go	non-target	T	71,Index Finger	89,Middle Finger	250.0	300.0	2500.0	2450.0	1.0	300.0	1.0	n/a	go_stim
175979.58903825469	954.41096174525831	n/a	1285	89	2750	954.410961745	stim	stop-signal	666	1837575	0.0-25.39-1.39	beast_fmri_test	330	1835318,/,1835999,/,1836677,/,1837356,/,1838036,/	t,t,t,t,t	<img class = center src='/static/experiments/beast_fmri_test/images/T.png'></img>	71,89	2750.0	test	<img class = center src='/static/experiments/beast_fmri_test/images/redT.png'></img>	go	2450.0	3.0	39.0	go	non-target	T	71,Index Finger	89,Middle Finger	250.0	300.0	2500.0	2450.0	1.0	300.0	1.0	n/a	ITI
178462	500	n/a	-1	-1	500	0.0	fixation	poldrack-single-stim	667	1839103	0.0-25.40-0.40	beast_fmri_test	330	1838716,/	t	<div class = centerbox2><div class = fixation>+</div></div>	none	500.0	test	n/a	n/a	n/a	n/a	n/a	n/a	n/a	n/a	n/a	n/a	n/a	n/a	n/a	n/a	n/a	n/a	n/a	n/a	fixation
177483.90450325306	2750	n/a	759	89	2750	979.095496747	stim	stop-signal	668	1841854	0.0-25.40-1.40	beast_fmri_test	330	1839397,/,1840077,/,1840756,/,1841435,/,1842114,/,1842795,/	t,t,t,t,t,t	<img class = center src='/static/experiments/beast_fmri_test/images/B.png'></img>	71,89	2750.0	test	<img class = center src='/static/experiments/beast_fmri_test/images/redB.png'></img>	go	2450.0	3.0	40.0	go	non-target	B	71,Index Finger	89,Middle Finger	250.0	300.0	2500.0	2450.0	1.0	300.0	1.0	n/a	go_stim
180233.90450325306	979.09549674684354	n/a	759	89	2750	979.095496747	stim	stop-signal	668	1841854	0.0-25.40-1.40	beast_fmri_test	330	1839397,/,1840077,/,1840756,/,1841435,/,1842114,/,1842795,/	t,t,t,t,t,t	<img class = center src='/static/experiments/beast_fmri_test/images/B.png'></img>	71,89	2750.0	test	<img class = center src='/static/experiments/beast_fmri_test/images/redB.png'></img>	go	2450.0	3.0	40.0	go	non-target	B	71,Index Finger	89,Middle Finger	250.0	300.0	2500.0	2450.0	1.0	300.0	1.0	n/a	ITI
182785	500	n/a	-1	-1	500	0.0	fixation	poldrack-single-stim	669	1843426	0.0-25.41-0.41	beast_fmri_test	330	n/a	n/a	<div class = centerbox2><div class = fixation>+</div></div>	none	500.0	test	n/a	n/a	n/a	n/a	n/a	n/a	n/a	n/a	n/a	n/a	n/a	n/a	n/a	n/a	n/a	n/a	n/a	n/a	fixation
182653.74030182394	2750	n/a	972	89	2750	134.259698176	stim	stop-signal	670	1846179	0.0-25.41-1.41	beast_fmri_test	330	1843475,/,1844154,/,1844834,/,1845513,/,1846192,/	t,t,t,t,t	<img class = center src='/static/experiments/beast_fmri_test/images/P.png'></img>	71,89	2750.0	test	<img class = center src='/static/experiments/beast_fmri_test/images/redP.png'></img>	go	2500.0	3.0	41.0	go	target	P	71,Index Finger	89,Middle Finger	250.0	300.0	2500.0	2450.0	0.0	250.0	0.0	n/a	go_stim
185403.74030182394	134.25969817606151	n/a	972	89	2750	134.259698176	stim	stop-signal	670	1846179	0.0-25.41-1.41	beast_fmri_test	330	1843475,/,1844154,/,1844834,/,1845513,/,1846192,/	t,t,t,t,t	<img class = center src='/static/experiments/beast_fmri_test/images/P.png'></img>	71,89	2750.0	test	<img class = center src='/static/experiments/beast_fmri_test/images/redP.png'></img>	go	2500.0	3.0	41.0	go	target	P	71,Index Finger	89,Middle Finger	250.0	300.0	2500.0	2450.0	0.0	250.0	0.0	n/a	ITI
186246	500	n/a	-1	-1	500	0.0	fixation	poldrack-single-stim	671	1846887	0.0-25.42-0.42	beast_fmri_test	330	1846872,/	t	<div class = centerbox2><div class = fixation>+</div></div>	none	500.0	test	n/a	n/a	n/a	n/a	n/a	n/a	n/a	n/a	n/a	n/a	n/a	n/a	n/a	n/a	n/a	n/a	n/a	n/a	fixation
185571.40561540797	2750	n/a	1933	71	2750	675.594384592	stim	stop-signal	672	1849638	0.0-25.42-1.42	beast_fmri_test	330	1847552,/,1848231,/,1848913,/,1849592,/,1850272,/	t,t,t,t,t	<img class = center src='/static/experiments/beast_fmri_test/images/D.png'></img>	71,89	2750.0	test	<img class = center src='/static/experiments/beast_fmri_test/images/redD.png'></img>	go	2450.0	3.0	42.0	go	non-target	D	71,Index Finger	89,Middle Finger	250.0	300.0	2500.0	2450.0	0.0	300.0	0.0	n/a	go_stim
188321.40561540797	675.5943845920217	n/a	1933	71	2750	675.594384592	stim	stop-signal	672	1849638	0.0-25.42-1.42	beast_fmri_test	330	1847552,/,1848231,/,1848913,/,1849592,/,1850272,/	t,t,t,t,t	<img class = center src='/static/experiments/beast_fmri_test/images/D.png'></img>	71,89	2750.0	test	<img class = center src='/static/experiments/beast_fmri_test/images/redD.png'></img>	go	2450.0	3.0	42.0	go	non-target	D	71,Index Finger	89,Middle Finger	250.0	300.0	2500.0	2450.0	0.0	300.0	0.0	n/a	ITI
190250	500	n/a	-1	-1	500	0.0	fixation	poldrack-single-stim	673	1850891	0.0-25.43-0.43	beast_fmri_test	330	n/a	n/a	<div class = centerbox2><div class = fixation>+</div></div>	none	500.0	test	n/a	n/a	n/a	n/a	n/a	n/a	n/a	n/a	n/a	n/a	n/a	n/a	n/a	n/a	n/a	n/a	n/a	n/a	fixation
189384.98749146587	2750	n/a	1545	71	2750	866.012508534	stim	stop-signal	674	1853642	0.0-25.43-1.43	beast_fmri_test	330	1850950,/,1851629,/,1852309,/,1852989,/,1853669,/,1854349,/	t,t,t,t,t,t	<img class = center src='/static/experiments/beast_fmri_test/images/T.png'></img>	71,89	2750.0	test	<img class = center src='/static/experiments/beast_fmri_test/images/redT.png'></img>	go	2450.0	3.0	43.0	go	non-target	T	71,Index Finger	89,Middle Finger	250.0	300.0	2500.0	2450.0	0.0	300.0	0.0	n/a	go_stim
192134.98749146587	866.01250853421016	n/a	1545	71	2750	866.012508534	stim	stop-signal	674	1853642	0.0-25.43-1.43	beast_fmri_test	330	1850950,/,1851629,/,1852309,/,1852989,/,1853669,/,1854349,/	t,t,t,t,t,t	<img class = center src='/static/experiments/beast_fmri_test/images/T.png'></img>	71,89	2750.0	test	<img class = center src='/static/experiments/beast_fmri_test/images/redT.png'></img>	go	2450.0	3.0	43.0	go	non-target	T	71,Index Finger	89,Middle Finger	250.0	300.0	2500.0	2450.0	0.0	300.0	0.0	n/a	ITI
194437	500	n/a	-1	-1	500	0.0	fixation	poldrack-single-stim	675	1855078	0.0-25.44-0.44	beast_fmri_test	330	1855028,/	t	<div class = centerbox2><div class = fixation>+</div></div>	none	500.0	test	n/a	n/a	n/a	n/a	n/a	n/a	n/a	n/a	n/a	n/a	n/a	n/a	n/a	n/a	n/a	n/a	n/a	n/a	fixation
191679.08532416401	250.0	n/a	-1	-1	2750	2760.91467584	stim	stop-signal	676	1857831	0.0-25.44-1.44	beast_fmri_test	330	1855709,/,1856388,/,1857070,/,1857746,/,1858427,/,1859107,/,1859786,/,1860466,/	t,t,t,t,t,t,t,t	<img class = center src='/static/experiments/beast_fmri_test/images/P.png'></img>	71,89	2750.0	test	<img class = center src='/static/experiments/beast_fmri_test/images/redP.png'></img>	stop	2500.0	3.0	44.0	stop	target	P	71,Index Finger	89,Middle Finger	250.0	300.0	2500.0	2450.0	0.0	250.0	n/a	1.0	go_stim
194179.08532416401	2500.0	n/a	-1	-1	2750	2760.91467584	stim	stop-signal	676	1857831	0.0-25.44-1.44	beast_fmri_test	330	1855709,/,1856388,/,1857070,/,1857746,/,1858427,/,1859107,/,1859786,/,1860466,/	t,t,t,t,t,t,t,t	<img class = center src='/static/experiments/beast_fmri_test/images/P.png'></img>	71,89	2750.0	test	<img class = center src='/static/experiments/beast_fmri_test/images/redP.png'></img>	stop	2500.0	3.0	44.0	stop	target	P	71,Index Finger	89,Middle Finger	250.0	300.0	2500.0	2450.0	0.0	250.0	n/a	1.0	stop_stim
194429.08532416401	2760.9146758360657	n/a	-1	-1	2750	2760.91467584	stim	stop-signal	676	1857831	0.0-25.44-1.44	beast_fmri_test	330	1855709,/,1856388,/,1857070,/,1857746,/,1858427,/,1859107,/,1859786,/,1860466,/	t,t,t,t,t,t,t,t	<img class = center src='/static/experiments/beast_fmri_test/images/P.png'></img>	71,89	2750.0	test	<img class = center src='/static/experiments/beast_fmri_test/images/redP.png'></img>	stop	2500.0	3.0	44.0	stop	target	P	71,Index Finger	89,Middle Finger	250.0	300.0	2500.0	2450.0	0.0	250.0	n/a	1.0	ITI
200522	500	n/a	-1	-1	500	0.0	fixation	poldrack-single-stim	677	1861163	0.0-25.45-0.45	beast_fmri_test	330	1861146,/	t	<div class = centerbox2><div class = fixation>+</div></div>	none	500.0	test	n/a	n/a	n/a	n/a	n/a	n/a	n/a	n/a	n/a	n/a	n/a	n/a	n/a	n/a	n/a	n/a	n/a	n/a	fixation
198310.40061458619	300.0	n/a	1128	89	2750	2214.59938541	stim	stop-signal	678	1863916	0.0-25.45-1.45	beast_fmri_test	330	1861827,/,1862506,/,1863186,/,1863865,/,1864544,/,1865224,/,1865905,/	t,t,t,t,t,t,t	<img class = center src='/static/experiments/beast_fmri_test/images/V.png'></img>	71,89	2750.0	test	<img class = center src='/static/experiments/beast_fmri_test/images/redV.png'></img>	stop	2450.0	3.0	45.0	stop	non-target	V	71,Index Finger	89,Middle Finger	300.0	300.0	2500.0	2450.0	0.0	300.0	n/a	0.0	go_stim
200760.40061458619	2450.0	n/a	1128	89	2750	2214.59938541	stim	stop-signal	678	1863916	0.0-25.45-1.45	beast_fmri_test	330	1861827,/,1862506,/,1863186,/,1863865,/,1864544,/,1865224,/,1865905,/	t,t,t,t,t,t,t	<img class = center src='/static/experiments/beast_fmri_test/images/V.png'></img>	71,89	2750.0	test	<img class = center src='/static/experiments/beast_fmri_test/images/redV.png'></img>	stop	2450.0	3.0	45.0	stop	non-target	V	71,Index Finger	89,Middle Finger	300.0	300.0	2500.0	2450.0	0.0	300.0	n/a	0.0	stop_stim
201060.40061458619	2214.5993854139192	n/a	1128	89	2750	2214.59938541	stim	stop-signal	678	1863916	0.0-25.45-1.45	beast_fmri_test	330	1861827,/,1862506,/,1863186,/,1863865,/,1864544,/,1865224,/,1865905,/	t,t,t,t,t,t,t	<img class = center src='/static/experiments/beast_fmri_test/images/V.png'></img>	71,89	2750.0	test	<img class = center src='/static/experiments/beast_fmri_test/images/redV.png'></img>	stop	2450.0	3.0	45.0	stop	non-target	V	71,Index Finger	89,Middle Finger	300.0	300.0	2500.0	2450.0	0.0	300.0	n/a	0.0	ITI
206067	500	n/a	-1	-1	500	0.0	fixation	poldrack-single-stim	679	1866708	0.0-25.46-0.46	beast_fmri_test	330	1866585,/	t	<div class = centerbox2><div class = fixation>+</div></div>	none	500.0	test	n/a	n/a	n/a	n/a	n/a	n/a	n/a	n/a	n/a	n/a	n/a	n/a	n/a	n/a	n/a	n/a	n/a	n/a	fixation
205823.47640430229	300.0	n/a	338	71	2750	243.523595698	stim	stop-signal	680	1869458	0.0-25.46-1.46	beast_fmri_test	330	1867263,/,1867944,/,1868624,/,1869303,/	t,t,t,t	<img class = center src='/static/experiments/beast_fmri_test/images/T.png'></img>	71,89	2750.0	test	<img class = center src='/static/experiments/beast_fmri_test/images/redT.png'></img>	stop	2450.0	3.0	46.0	stop	target	T	71,Index Finger	89,Middle Finger	300.0	250.0	2450.0	2450.0	0.0	300.0	n/a	0.0	go_stim
208273.47640430229	2450.0	n/a	338	71	2750	243.523595698	stim	stop-signal	680	1869458	0.0-25.46-1.46	beast_fmri_test	330	1867263,/,1867944,/,1868624,/,1869303,/	t,t,t,t	<img class = center src='/static/experiments/beast_fmri_test/images/T.png'></img>	71,89	2750.0	test	<img class = center src='/static/experiments/beast_fmri_test/images/redT.png'></img>	stop	2450.0	3.0	46.0	stop	target	T	71,Index Finger	89,Middle Finger	300.0	250.0	2450.0	2450.0	0.0	300.0	n/a	0.0	stop_stim
208573.47640430229	243.52359569761657	n/a	338	71	2750	243.523595698	stim	stop-signal	680	1869458	0.0-25.46-1.46	beast_fmri_test	330	1867263,/,1867944,/,1868624,/,1869303,/	t,t,t,t	<img class = center src='/static/experiments/beast_fmri_test/images/T.png'></img>	71,89	2750.0	test	<img class = center src='/static/experiments/beast_fmri_test/images/redT.png'></img>	stop	2450.0	3.0	46.0	stop	target	T	71,Index Finger	89,Middle Finger	300.0	250.0	2450.0	2450.0	0.0	300.0	n/a	0.0	ITI
209643	500	n/a	-1	-1	500	0.0	fixation	poldrack-single-stim	681	1870284	0.0-25.47-0.47	beast_fmri_test	330	1869982,/	t	<div class = centerbox2><div class = fixation>+</div></div>	none	500.0	test	n/a	n/a	n/a	n/a	n/a	n/a	n/a	n/a	n/a	n/a	n/a	n/a	n/a	n/a	n/a	n/a	n/a	n/a	fixation
205254.5530041731	2750	n/a	456	71	2750	4392.44699583	stim	stop-signal	682	1873038	0.0-25.47-1.47	beast_fmri_test	330	1870661,/,1871340,/,1872021,/,1872701,/,1873380,/,1874060,/,1874739,/,1875419,/,1876100,/,1876780,/	t,t,t,t,t,t,t,t,t,t	<img class = center src='/static/experiments/beast_fmri_test/images/P.png'></img>	71,89	2750.0	test	<img class = center src='/static/experiments/beast_fmri_test/images/redP.png'></img>	go	2500.0	3.0	47.0	go	target	P	71,Index Finger	89,Middle Finger	250.0	250.0	2500.0	2450.0	1.0	250.0	1.0	n/a	go_stim
208004.5530041731	4392.4469958268992	n/a	456	71	2750	4392.44699583	stim	stop-signal	682	1873038	0.0-25.47-1.47	beast_fmri_test	330	1870661,/,1871340,/,1872021,/,1872701,/,1873380,/,1874060,/,1874739,/,1875419,/,1876100,/,1876780,/	t,t,t,t,t,t,t,t,t,t	<img class = center src='/static/experiments/beast_fmri_test/images/P.png'></img>	71,89	2750.0	test	<img class = center src='/static/experiments/beast_fmri_test/images/redP.png'></img>	go	2500.0	3.0	47.0	go	target	P	71,Index Finger	89,Middle Finger	250.0	250.0	2500.0	2450.0	1.0	250.0	1.0	n/a	ITI
231868	15000	n/a	-1	-1	15000	0.0	practice-no-stop-feedback	poldrack-single-stim	683	1892509	0.0-26.0	beast_fmri_test	330	1877514,/,1878139,/,1878818,/,1879498,/,1880178,/,1880856,/,1881536,/,1882217,/,1882896,/,1883575,/,1884254,/,1884935,/,1885614,/,1886294,/,1886974,/,1887655,/,1888333,/,1889014,/,1889694,/,1890374,/,1891053,/,1891732,/,1892413,/	t,t,t,t,t,t,t,t,t,t,t,t,t,t,t,t,t,t,t,t,t,t,t	"<div class = ""centerbox""><p class = ""block-text"">Your delay is 2 trials.</p><p class = block-text>Please wait for the scanner to start the block</p></div>"	77	15000.0	n/a	n/a	n/a	n/a	n/a	n/a	n/a	n/a	n/a	n/a	n/a	n/a	n/a	n/a	n/a	n/a	n/a	n/a	n/a	practice-no-stop-feedback
232371	500	n/a	-1	-1	500	0.0	fixation	poldrack-single-stim	684	1893012	0.0-27.0-0.0	beast_fmri_test	330	n/a	n/a	<div class = centerbox2><div class = fixation>+</div></div>	none	500.0	test	n/a	n/a	n/a	n/a	n/a	n/a	n/a	n/a	n/a	n/a	n/a	n/a	n/a	n/a	n/a	n/a	n/a	n/a	fixation
232130.18921742775	temp_go_duration	n/a	898	89	2750	242.810782572	stim	stop-signal	685	1895764	0.0-27.0-1.0	beast_fmri_test	330	1893091,/,1893771,/,1894450,/,1895132,/,1895810,/	t,t,t,t,t	<img class = center src='/static/experiments/beast_fmri_test/images/B.png'></img>	71,89	2750.0	test	<img class = center src='/static/experiments/beast_fmri_test/images/redB.png'></img>	stop	-1.0	2.0	0.0	stop	temp-non-target	B	71,Index Finger	89,Middle Finger	250.0	250.0	2500.0	2450.0	0.0	n/a	n/a	0.0	go_stim
temp-non-target	temp_stop_duration	n/a	898	89	2750	242.810782572	stim	stop-signal	685	1895764	0.0-27.0-1.0	beast_fmri_test	330	1893091,/,1893771,/,1894450,/,1895132,/,1895810,/	t,t,t,t,t	<img class = center src='/static/experiments/beast_fmri_test/images/B.png'></img>	71,89	2750.0	test	<img class = center src='/static/experiments/beast_fmri_test/images/redB.png'></img>	stop	-1.0	2.0	0.0	stop	temp-non-target	B	71,Index Finger	89,Middle Finger	250.0	250.0	2500.0	2450.0	0.0	n/a	n/a	0.0	stop_stim
234880.18921742775	242.81078257235504	n/a	898	89	2750	242.810782572	stim	stop-signal	685	1895764	0.0-27.0-1.0	beast_fmri_test	330	1893091,/,1893771,/,1894450,/,1895132,/,1895810,/	t,t,t,t,t	<img class = center src='/static/experiments/beast_fmri_test/images/B.png'></img>	71,89	2750.0	test	<img class = center src='/static/experiments/beast_fmri_test/images/redB.png'></img>	stop	-1.0	2.0	0.0	stop	temp-non-target	B	71,Index Finger	89,Middle Finger	250.0	250.0	2500.0	2450.0	0.0	n/a	n/a	0.0	ITI
235950	500	n/a	-1	-1	500	0.0	fixation	poldrack-single-stim	686	1896591	0.0-27.1-0.1	beast_fmri_test	330	1896490,/	t	<div class = centerbox2><div class = fixation>+</div></div>	none	500.0	test	n/a	n/a	n/a	n/a	n/a	n/a	n/a	n/a	n/a	n/a	n/a	n/a	n/a	n/a	n/a	n/a	n/a	n/a	fixation
235884.84541362128	2750	n/a	1258	89	2750	66.1545863786	stim	stop-signal	687	1899342	0.0-27.1-1.1	beast_fmri_test	330	1897169,/,1897849,/,1898529,/,1899208,/	t,t,t,t	<img class = center src='/static/experiments/beast_fmri_test/images/T.png'></img>	71,89	2750.0	test	<img class = center src='/static/experiments/beast_fmri_test/images/redT.png'></img>	go	-1.0	2.0	1.0	go	temp-non-target	T	71,Index Finger	89,Middle Finger	250.0	250.0	2500.0	2450.0	0.0	n/a	n/a	n/a	go_stim
238634.84541362128	66.15458637862524	n/a	1258	89	2750	66.1545863786	stim	stop-signal	687	1899342	0.0-27.1-1.1	beast_fmri_test	330	1897169,/,1897849,/,1898529,/,1899208,/	t,t,t,t	<img class = center src='/static/experiments/beast_fmri_test/images/T.png'></img>	71,89	2750.0	test	<img class = center src='/static/experiments/beast_fmri_test/images/redT.png'></img>	go	-1.0	2.0	1.0	go	temp-non-target	T	71,Index Finger	89,Middle Finger	250.0	250.0	2500.0	2450.0	0.0	n/a	n/a	n/a	ITI
239354	500	n/a	-1	-1	500	0.0	fixation	poldrack-single-stim	688	1899995	0.0-27.2-0.2	beast_fmri_test	330	1899888,/	t	<div class = centerbox2><div class = fixation>+</div></div>	none	500.0	test	n/a	n/a	n/a	n/a	n/a	n/a	n/a	n/a	n/a	n/a	n/a	n/a	n/a	n/a	n/a	n/a	n/a	n/a	fixation
235313.46254399163	2750	n/a	731	89	2750	4041.53745601	stim	stop-signal	689	1902746	0.0-27.2-1.2	beast_fmri_test	330	1900568,/,1901247,/,1901927,/,1902606,/,1903285,/,1903966,/,1904647,/,1905325,/,1906005,/,1906685,/	t,t,t,t,t,t,t,t,t,t	<img class = center src='/static/experiments/beast_fmri_test/images/T.png'></img>	71,89	2750.0	test	<img class = center src='/static/experiments/beast_fmri_test/images/redT.png'></img>	go	2500.0	2.0	2.0	go	non-target	T	71,Index Finger	89,Middle Finger	250.0	250.0	2500.0	2500.0	1.0	250.0	1.0	n/a	go_stim
238063.46254399163	4041.5374560083333	n/a	731	89	2750	4041.53745601	stim	stop-signal	689	1902746	0.0-27.2-1.2	beast_fmri_test	330	1900568,/,1901247,/,1901927,/,1902606,/,1903285,/,1903966,/,1904647,/,1905325,/,1906005,/,1906685,/	t,t,t,t,t,t,t,t,t,t	<img class = center src='/static/experiments/beast_fmri_test/images/T.png'></img>	71,89	2750.0	test	<img class = center src='/static/experiments/beast_fmri_test/images/redT.png'></img>	go	2500.0	2.0	2.0	go	non-target	T	71,Index Finger	89,Middle Finger	250.0	250.0	2500.0	2500.0	1.0	250.0	1.0	n/a	ITI
246725	500	n/a	-1	-1	500	0.0	fixation	poldrack-single-stim	690	1907366	0.0-27.3-0.3	beast_fmri_test	330	1907364,/	t	<div class = centerbox2><div class = fixation>+</div></div>	none	500.0	test	n/a	n/a	n/a	n/a	n/a	n/a	n/a	n/a	n/a	n/a	n/a	n/a	n/a	n/a	n/a	n/a	n/a	n/a	fixation
246624.18464338104	250.0	n/a	403	71	2750	103.815356619	stim	stop-signal	691	1910119	0.0-27.3-1.3	beast_fmri_test	330	1908044,/,1908723,/,1909404,/,1910083,/	t,t,t,t	<img class = center src='/static/experiments/beast_fmri_test/images/T.png'></img>	71,89	2750.0	test	<img class = center src='/static/experiments/beast_fmri_test/images/redT.png'></img>	stop	2500.0	2.0	3.0	stop	target	T	71,Index Finger	89,Middle Finger	250.0	250.0	2500.0	2500.0	0.0	250.0	n/a	0.0	go_stim
249124.18464338104	2500.0	n/a	403	71	2750	103.815356619	stim	stop-signal	691	1910119	0.0-27.3-1.3	beast_fmri_test	330	1908044,/,1908723,/,1909404,/,1910083,/	t,t,t,t	<img class = center src='/static/experiments/beast_fmri_test/images/T.png'></img>	71,89	2750.0	test	<img class = center src='/static/experiments/beast_fmri_test/images/redT.png'></img>	stop	2500.0	2.0	3.0	stop	target	T	71,Index Finger	89,Middle Finger	250.0	250.0	2500.0	2500.0	0.0	250.0	n/a	0.0	stop_stim
249374.18464338104	103.81535661896912	n/a	403	71	2750	103.815356619	stim	stop-signal	691	1910119	0.0-27.3-1.3	beast_fmri_test	330	1908044,/,1908723,/,1909404,/,1910083,/	t,t,t,t	<img class = center src='/static/experiments/beast_fmri_test/images/T.png'></img>	71,89	2750.0	test	<img class = center src='/static/experiments/beast_fmri_test/images/redT.png'></img>	stop	2500.0	2.0	3.0	stop	target	T	71,Index Finger	89,Middle Finger	250.0	250.0	2500.0	2500.0	0.0	250.0	n/a	0.0	ITI
250163	500	n/a	-1	-1	500	0.0	fixation	poldrack-single-stim	692	1910804	0.0-27.4-0.4	beast_fmri_test	330	1910763,/	t	<div class = centerbox2><div class = fixation>+</div></div>	none	500.0	test	n/a	n/a	n/a	n/a	n/a	n/a	n/a	n/a	n/a	n/a	n/a	n/a	n/a	n/a	n/a	n/a	n/a	n/a	fixation
250091.79802006925	2750	n/a	465	71	2750	72.2019799307	stim	stop-signal	693	1913555	0.0-27.4-1.4	beast_fmri_test	330	1911443,/,1912122,/,1912801,/,1913481,/	t,t,t,t	<img class = center src='/static/experiments/beast_fmri_test/images/T.png'></img>	71,89	2750.0	test	<img class = center src='/static/experiments/beast_fmri_test/images/redT.png'></img>	go	2550.0	2.0	4.0	go	target	T	71,Index Finger	89,Middle Finger	200.0	250.0	2550.0	2500.0	1.0	200.0	1.0	n/a	go_stim
252841.79802006925	72.201979930698528	n/a	465	71	2750	72.2019799307	stim	stop-signal	693	1913555	0.0-27.4-1.4	beast_fmri_test	330	1911443,/,1912122,/,1912801,/,1913481,/	t,t,t,t	<img class = center src='/static/experiments/beast_fmri_test/images/T.png'></img>	71,89	2750.0	test	<img class = center src='/static/experiments/beast_fmri_test/images/redT.png'></img>	go	2550.0	2.0	4.0	go	target	T	71,Index Finger	89,Middle Finger	200.0	250.0	2550.0	2500.0	1.0	200.0	1.0	n/a	ITI
253568	500	n/a	-1	-1	500	0.0	fixation	poldrack-single-stim	694	1914209	0.0-27.5-0.5	beast_fmri_test	330	1914160,/	t	<div class = centerbox2><div class = fixation>+</div></div>	none	500.0	test	n/a	n/a	n/a	n/a	n/a	n/a	n/a	n/a	n/a	n/a	n/a	n/a	n/a	n/a	n/a	n/a	n/a	n/a	fixation
253214.18516646721	2750	n/a	496	89	2750	354.814833533	stim	stop-signal	695	1916960	0.0-27.5-1.5	beast_fmri_test	330	1914841,/,1915521,/,1916201,/,1916879,/	t,t,t,t	<img class = center src='/static/experiments/beast_fmri_test/images/V.png'></img>	71,89	2750.0	test	<img class = center src='/static/experiments/beast_fmri_test/images/redV.png'></img>	go	2500.0	2.0	5.0	go	non-target	V	71,Index Finger	89,Middle Finger	200.0	250.0	2550.0	2500.0	1.0	250.0	1.0	n/a	go_stim
255964.18516646721	354.81483353288729	n/a	496	89	2750	354.814833533	stim	stop-signal	695	1916960	0.0-27.5-1.5	beast_fmri_test	330	1914841,/,1915521,/,1916201,/,1916879,/	t,t,t,t	<img class = center src='/static/experiments/beast_fmri_test/images/V.png'></img>	71,89	2750.0	test	<img class = center src='/static/experiments/beast_fmri_test/images/redV.png'></img>	go	2500.0	2.0	5.0	go	non-target	V	71,Index Finger	89,Middle Finger	200.0	250.0	2550.0	2500.0	1.0	250.0	1.0	n/a	ITI
257255	500	n/a	-1	-1	500	0.0	fixation	poldrack-single-stim	696	1917896	0.0-27.6-0.6	beast_fmri_test	330	1917560,/	t	<div class = centerbox2><div class = fixation>+</div></div>	none	500.0	test	n/a	n/a	n/a	n/a	n/a	n/a	n/a	n/a	n/a	n/a	n/a	n/a	n/a	n/a	n/a	n/a	n/a	n/a	fixation
256733.08100692346	250.0	n/a	484	89	2750	522.918993076	stim	stop-signal	697	1920647	0.0-27.6-1.6	beast_fmri_test	330	1918239,/,1918920,/,1919599,/,1920279,/,1920959,/	t,t,t,t,t	<img class = center src='/static/experiments/beast_fmri_test/images/B.png'></img>	71,89	2750.0	test	<img class = center src='/static/experiments/beast_fmri_test/images/redB.png'></img>	stop	2500.0	2.0	6.0	stop	non-target	B	71,Index Finger	89,Middle Finger	200.0	250.0	2550.0	2500.0	0.0	250.0	n/a	0.0	go_stim
259233.08100692346	2500.0	n/a	484	89	2750	522.918993076	stim	stop-signal	697	1920647	0.0-27.6-1.6	beast_fmri_test	330	1918239,/,1918920,/,1919599,/,1920279,/,1920959,/	t,t,t,t,t	<img class = center src='/static/experiments/beast_fmri_test/images/B.png'></img>	71,89	2750.0	test	<img class = center src='/static/experiments/beast_fmri_test/images/redB.png'></img>	stop	2500.0	2.0	6.0	stop	non-target	B	71,Index Finger	89,Middle Finger	200.0	250.0	2550.0	2500.0	0.0	250.0	n/a	0.0	stop_stim
259483.08100692346	522.91899307647793	n/a	484	89	2750	522.918993076	stim	stop-signal	697	1920647	0.0-27.6-1.6	beast_fmri_test	330	1918239,/,1918920,/,1919599,/,1920279,/,1920959,/	t,t,t,t,t	<img class = center src='/static/experiments/beast_fmri_test/images/B.png'></img>	71,89	2750.0	test	<img class = center src='/static/experiments/beast_fmri_test/images/redB.png'></img>	stop	2500.0	2.0	6.0	stop	non-target	B	71,Index Finger	89,Middle Finger	200.0	250.0	2550.0	2500.0	0.0	250.0	n/a	0.0	ITI
261105	500	n/a	-1	-1	500	0.0	fixation	poldrack-single-stim	698	1921746	0.0-27.7-0.7	beast_fmri_test	330	1921638,/	t	<div class = centerbox2><div class = fixation>+</div></div>	none	500.0	test	n/a	n/a	n/a	n/a	n/a	n/a	n/a	n/a	n/a	n/a	n/a	n/a	n/a	n/a	n/a	n/a	n/a	n/a	fixation
260884.10696592112	2750	n/a	397	71	2750	221.893034079	stim	stop-signal	699	1924497	0.0-27.7-1.7	beast_fmri_test	330	1922317,/,1922997,/,1923676,/,1924357,/	t,t,t,t	<img class = center src='/static/experiments/beast_fmri_test/images/V.png'></img>	71,89	2750.0	test	<img class = center src='/static/experiments/beast_fmri_test/images/redV.png'></img>	go	2550.0	2.0	7.0	go	target	V	71,Index Finger	89,Middle Finger	200.0	200.0	2550.0	2500.0	1.0	200.0	1.0	n/a	go_stim
263634.10696592112	221.89303407882454	n/a	397	71	2750	221.893034079	stim	stop-signal	699	1924497	0.0-27.7-1.7	beast_fmri_test	330	1922317,/,1922997,/,1923676,/,1924357,/	t,t,t,t	<img class = center src='/static/experiments/beast_fmri_test/images/V.png'></img>	71,89	2750.0	test	<img class = center src='/static/experiments/beast_fmri_test/images/redV.png'></img>	go	2550.0	2.0	7.0	go	target	V	71,Index Finger	89,Middle Finger	200.0	200.0	2550.0	2500.0	1.0	200.0	1.0	n/a	ITI
264662	500	n/a	-1	-1	500	0.0	fixation	poldrack-single-stim	700	1925303	0.0-27.8-0.8	beast_fmri_test	330	1925037,/	t	<div class = centerbox2><div class = fixation>+</div></div>	none	500.0	test	n/a	n/a	n/a	n/a	n/a	n/a	n/a	n/a	n/a	n/a	n/a	n/a	n/a	n/a	n/a	n/a	n/a	n/a	fixation
262367.82929760288	200.0	n/a	-1	-1	2750	2296.1707024	stim	stop-signal	701	1928055	0.0-27.8-1.8	beast_fmri_test	330	1925717,/,1926396,/,1927076,/,1927755,/,1928435,/,1929128,/,1929794,/	t,t,t,t,t,t,t	<img class = center src='/static/experiments/beast_fmri_test/images/B.png'></img>	71,89	2750.0	test	<img class = center src='/static/experiments/beast_fmri_test/images/redB.png'></img>	stop	2550.0	2.0	8.0	stop	target	B	71,Index Finger	89,Middle Finger	200.0	200.0	2550.0	2500.0	0.0	200.0	n/a	1.0	go_stim
264917.82929760288	2550.0	n/a	-1	-1	2750	2296.1707024	stim	stop-signal	701	1928055	0.0-27.8-1.8	beast_fmri_test	330	1925717,/,1926396,/,1927076,/,1927755,/,1928435,/,1929128,/,1929794,/	t,t,t,t,t,t,t	<img class = center src='/static/experiments/beast_fmri_test/images/B.png'></img>	71,89	2750.0	test	<img class = center src='/static/experiments/beast_fmri_test/images/redB.png'></img>	stop	2550.0	2.0	8.0	stop	target	B	71,Index Finger	89,Middle Finger	200.0	200.0	2550.0	2500.0	0.0	200.0	n/a	1.0	stop_stim
265117.82929760288	2296.170702397168	n/a	-1	-1	2750	2296.1707024	stim	stop-signal	701	1928055	0.0-27.8-1.8	beast_fmri_test	330	1925717,/,1926396,/,1927076,/,1927755,/,1928435,/,1929128,/,1929794,/	t,t,t,t,t,t,t	<img class = center src='/static/experiments/beast_fmri_test/images/B.png'></img>	71,89	2750.0	test	<img class = center src='/static/experiments/beast_fmri_test/images/redB.png'></img>	stop	2550.0	2.0	8.0	stop	target	B	71,Index Finger	89,Middle Finger	200.0	200.0	2550.0	2500.0	0.0	200.0	n/a	1.0	ITI
270288	500	n/a	-1	-1	500	0.0	fixation	poldrack-single-stim	702	1930929	0.0-27.9-0.9	beast_fmri_test	330	1930473,/	t	<div class = centerbox2><div class = fixation>+</div></div>	none	500.0	test	n/a	n/a	n/a	n/a	n/a	n/a	n/a	n/a	n/a	n/a	n/a	n/a	n/a	n/a	n/a	n/a	n/a	n/a	fixation
269282.05277716555	200.0	n/a	457	89	2750	1007.94722283	stim	stop-signal	703	1933681	0.0-27.9-1.9	beast_fmri_test	330	1931153,/,1931834,/,1932512,/,1933193,/,1933873,/,1934552,/	t,t,t,t,t,t	<img class = center src='/static/experiments/beast_fmri_test/images/D.png'></img>	71,89	2750.0	test	<img class = center src='/static/experiments/beast_fmri_test/images/redD.png'></img>	stop	2550.0	2.0	9.0	stop	non-target	D	71,Index Finger	89,Middle Finger	250.0	200.0	2550.0	2550.0	0.0	200.0	n/a	0.0	go_stim
271832.05277716555	2550.0	n/a	457	89	2750	1007.94722283	stim	stop-signal	703	1933681	0.0-27.9-1.9	beast_fmri_test	330	1931153,/,1931834,/,1932512,/,1933193,/,1933873,/,1934552,/	t,t,t,t,t,t	<img class = center src='/static/experiments/beast_fmri_test/images/D.png'></img>	71,89	2750.0	test	<img class = center src='/static/experiments/beast_fmri_test/images/redD.png'></img>	stop	2550.0	2.0	9.0	stop	non-target	D	71,Index Finger	89,Middle Finger	250.0	200.0	2550.0	2550.0	0.0	200.0	n/a	0.0	stop_stim
272032.05277716555	1007.9472228344148	n/a	457	89	2750	1007.94722283	stim	stop-signal	703	1933681	0.0-27.9-1.9	beast_fmri_test	330	1931153,/,1931834,/,1932512,/,1933193,/,1933873,/,1934552,/	t,t,t,t,t,t	<img class = center src='/static/experiments/beast_fmri_test/images/D.png'></img>	71,89	2750.0	test	<img class = center src='/static/experiments/beast_fmri_test/images/redD.png'></img>	stop	2550.0	2.0	9.0	stop	non-target	D	71,Index Finger	89,Middle Finger	250.0	200.0	2550.0	2550.0	0.0	200.0	n/a	0.0	ITI
274642	500	n/a	-1	-1	500	0.0	fixation	poldrack-single-stim	704	1935283	0.0-27.10-0.10	beast_fmri_test	330	1935232,/	t	<div class = centerbox2><div class = fixation>+</div></div>	none	500.0	test	n/a	n/a	n/a	n/a	n/a	n/a	n/a	n/a	n/a	n/a	n/a	n/a	n/a	n/a	n/a	n/a	n/a	n/a	fixation
274483.92513001594	2750	n/a	613	89	2750	161.074869984	stim	stop-signal	705	1938036	0.0-27.10-1.10	beast_fmri_test	330	1935947,/,1936590,/,1937270,/,1937949,/	t,t,t,t	<img class = center src='/static/experiments/beast_fmri_test/images/P.png'></img>	71,89	2750.0	test	<img class = center src='/static/experiments/beast_fmri_test/images/redP.png'></img>	go	2600.0	2.0	10.0	go	non-target	P	71,Index Finger	89,Middle Finger	250.0	150.0	2550.0	2600.0	1.0	150.0	1.0	n/a	go_stim
277233.92513001594	161.0748699840436	n/a	613	89	2750	161.074869984	stim	stop-signal	705	1938036	0.0-27.10-1.10	beast_fmri_test	330	1935947,/,1936590,/,1937270,/,1937949,/	t,t,t,t	<img class = center src='/static/experiments/beast_fmri_test/images/P.png'></img>	71,89	2750.0	test	<img class = center src='/static/experiments/beast_fmri_test/images/redP.png'></img>	go	2600.0	2.0	10.0	go	non-target	P	71,Index Finger	89,Middle Finger	250.0	150.0	2550.0	2600.0	1.0	150.0	1.0	n/a	ITI
278129	500	n/a	-1	-1	500	0.0	fixation	poldrack-single-stim	706	1938770	0.0-27.11-0.11	beast_fmri_test	330	1938631,/	t	<div class = centerbox2><div class = fixation>+</div></div>	none	500.0	test	n/a	n/a	n/a	n/a	n/a	n/a	n/a	n/a	n/a	n/a	n/a	n/a	n/a	n/a	n/a	n/a	n/a	n/a	fixation
277812.23070880817	2750	n/a	332	71	2750	318.769291192	stim	stop-signal	707	1941522	0.0-27.11-1.11	beast_fmri_test	330	1939309,/,1939989,/,1940669,/,1941348,/	t,t,t,t	<img class = center src='/static/experiments/beast_fmri_test/images/D.png'></img>	71,89	2750.0	test	<img class = center src='/static/experiments/beast_fmri_test/images/redD.png'></img>	go	2500.0	2.0	11.0	go	target	D	71,Index Finger	89,Middle Finger	250.0	150.0	2500.0	2600.0	1.0	250.0	1.0	n/a	go_stim
280562.23070880817	318.7692911918885	n/a	332	71	2750	318.769291192	stim	stop-signal	707	1941522	0.0-27.11-1.11	beast_fmri_test	330	1939309,/,1939989,/,1940669,/,1941348,/	t,t,t,t	<img class = center src='/static/experiments/beast_fmri_test/images/D.png'></img>	71,89	2750.0	test	<img class = center src='/static/experiments/beast_fmri_test/images/redD.png'></img>	go	2500.0	2.0	11.0	go	target	D	71,Index Finger	89,Middle Finger	250.0	150.0	2500.0	2600.0	1.0	250.0	1.0	n/a	ITI
281766	500	n/a	-1	-1	500	0.0	fixation	poldrack-single-stim	708	1942407	0.0-27.12-0.12	beast_fmri_test	330	1942028,/	t	<div class = centerbox2><div class = fixation>+</div></div>	none	500.0	test	n/a	n/a	n/a	n/a	n/a	n/a	n/a	n/a	n/a	n/a	n/a	n/a	n/a	n/a	n/a	n/a	n/a	n/a	fixation
281389.15363733214	2750	n/a	414	71	2750	378.846362668	stim	stop-signal	709	1945159	0.0-27.12-1.12	beast_fmri_test	330	1942707,/,1943389,/,1944068,/,1944747,/,1945426,/	t,t,t,t,t	<img class = center src='/static/experiments/beast_fmri_test/images/P.png'></img>	71,89	2750.0	test	<img class = center src='/static/experiments/beast_fmri_test/images/redP.png'></img>	go	2500.0	2.0	12.0	go	target	P	71,Index Finger	89,Middle Finger	250.0	150.0	2500.0	2600.0	1.0	250.0	1.0	n/a	go_stim
284139.15363733214	378.84636266793279	n/a	414	71	2750	378.846362668	stim	stop-signal	709	1945159	0.0-27.12-1.12	beast_fmri_test	330	1942707,/,1943389,/,1944068,/,1944747,/,1945426,/	t,t,t,t,t	<img class = center src='/static/experiments/beast_fmri_test/images/P.png'></img>	71,89	2750.0	test	<img class = center src='/static/experiments/beast_fmri_test/images/redP.png'></img>	go	2500.0	2.0	12.0	go	target	P	71,Index Finger	89,Middle Finger	250.0	150.0	2500.0	2600.0	1.0	250.0	1.0	n/a	ITI
285471	500	n/a	-1	-1	500	0.0	fixation	poldrack-single-stim	710	1946112	0.0-27.13-0.13	beast_fmri_test	330	1946106,/	t	<div class = centerbox2><div class = fixation>+</div></div>	none	500.0	test	n/a	n/a	n/a	n/a	n/a	n/a	n/a	n/a	n/a	n/a	n/a	n/a	n/a	n/a	n/a	n/a	n/a	n/a	fixation
284590.23283024458	2750	n/a	846	71	2750	882.767169755	stim	stop-signal	711	1948864	0.0-27.13-1.13	beast_fmri_test	330	1946785,/,1947467,/,1948146,/,1948826,/,1949505,/	t,t,t,t,t	<img class = center src='/static/experiments/beast_fmri_test/images/B.png'></img>	71,89	2750.0	test	<img class = center src='/static/experiments/beast_fmri_test/images/redB.png'></img>	go	2600.0	2.0	13.0	go	non-target	B	71,Index Finger	89,Middle Finger	250.0	150.0	2500.0	2600.0	0.0	150.0	0.0	n/a	go_stim
287340.23283024458	882.76716975545048	n/a	846	71	2750	882.767169755	stim	stop-signal	711	1948864	0.0-27.13-1.13	beast_fmri_test	330	1946785,/,1947467,/,1948146,/,1948826,/,1949505,/	t,t,t,t,t	<img class = center src='/static/experiments/beast_fmri_test/images/B.png'></img>	71,89	2750.0	test	<img class = center src='/static/experiments/beast_fmri_test/images/redB.png'></img>	go	2600.0	2.0	13.0	go	non-target	B	71,Index Finger	89,Middle Finger	250.0	150.0	2500.0	2600.0	0.0	150.0	0.0	n/a	ITI
289666	500	n/a	-1	-1	500	0.0	fixation	poldrack-single-stim	712	1950307	0.0-27.14-0.14	beast_fmri_test	330	1950185,/	t	<div class = centerbox2><div class = fixation>+</div></div>	none	500.0	test	n/a	n/a	n/a	n/a	n/a	n/a	n/a	n/a	n/a	n/a	n/a	n/a	n/a	n/a	n/a	n/a	n/a	n/a	fixation
288433.85691960156	2750	n/a	438	89	2750	1233.1430804	stim	stop-signal	713	1953058	0.0-27.14-1.14	beast_fmri_test	330	1950864,/,1951544,/,1952224,/,1952904,/,1953583,/,1954262,/	t,t,t,t,t,t	<img class = center src='/static/experiments/beast_fmri_test/images/T.png'></img>	71,89	2750.0	test	<img class = center src='/static/experiments/beast_fmri_test/images/redT.png'></img>	go	2600.0	2.0	14.0	go	non-target	T	71,Index Finger	89,Middle Finger	250.0	150.0	2500.0	2600.0	1.0	150.0	1.0	n/a	go_stim
291183.85691960156	1233.1430803984074	n/a	438	89	2750	1233.1430804	stim	stop-signal	713	1953058	0.0-27.14-1.14	beast_fmri_test	330	1950864,/,1951544,/,1952224,/,1952904,/,1953583,/,1954262,/	t,t,t,t,t,t	<img class = center src='/static/experiments/beast_fmri_test/images/T.png'></img>	71,89	2750.0	test	<img class = center src='/static/experiments/beast_fmri_test/images/redT.png'></img>	go	2600.0	2.0	14.0	go	non-target	T	71,Index Finger	89,Middle Finger	250.0	150.0	2500.0	2600.0	1.0	150.0	1.0	n/a	ITI
294229	500	n/a	-1	-1	500	0.0	fixation	poldrack-single-stim	714	1954870	0.0-27.15-0.15	beast_fmri_test	330	n/a	n/a	<div class = centerbox2><div class = fixation>+</div></div>	none	500.0	test	n/a	n/a	n/a	n/a	n/a	n/a	n/a	n/a	n/a	n/a	n/a	n/a	n/a	n/a	n/a	n/a	n/a	n/a	fixation
292075.99684610055	2750	n/a	557	89	2750	2154.0031539	stim	stop-signal	715	1957621	0.0-27.15-1.15	beast_fmri_test	330	1954942,/,1955623,/,1956301,/,1956982,/,1957661,/,1958341,/,1959020,/,1959700,/	t,t,t,t,t,t,t,t	<img class = center src='/static/experiments/beast_fmri_test/images/D.png'></img>	71,89	2750.0	test	<img class = center src='/static/experiments/beast_fmri_test/images/redD.png'></img>	go	2600.0	2.0	15.0	go	non-target	D	71,Index Finger	89,Middle Finger	250.0	150.0	2500.0	2600.0	1.0	150.0	1.0	n/a	go_stim
294825.99684610055	2154.0031538994062	n/a	557	89	2750	2154.0031539	stim	stop-signal	715	1957621	0.0-27.15-1.15	beast_fmri_test	330	1954942,/,1955623,/,1956301,/,1956982,/,1957661,/,1958341,/,1959020,/,1959700,/	t,t,t,t,t,t,t,t	<img class = center src='/static/experiments/beast_fmri_test/images/D.png'></img>	71,89	2750.0	test	<img class = center src='/static/experiments/beast_fmri_test/images/redD.png'></img>	go	2600.0	2.0	15.0	go	non-target	D	71,Index Finger	89,Middle Finger	250.0	150.0	2500.0	2600.0	1.0	150.0	1.0	n/a	ITI
299714	500	n/a	-1	-1	500	0.0	fixation	poldrack-single-stim	716	1960355	0.0-27.16-0.16	beast_fmri_test	330	n/a	n/a	<div class = centerbox2><div class = fixation>+</div></div>	none	500.0	test	n/a	n/a	n/a	n/a	n/a	n/a	n/a	n/a	n/a	n/a	n/a	n/a	n/a	n/a	n/a	n/a	n/a	n/a	fixation
299036.86579855857	150.0	n/a	-1	-1	2750	678.134201441	stim	stop-signal	717	1963106	0.0-27.16-1.16	beast_fmri_test	330	1960380,/,1961059,/,1961739,/,1962419,/,1963100,/,1963778,/	t,t,t,t,t,t	<img class = center src='/static/experiments/beast_fmri_test/images/D.png'></img>	71,89	2750.0	test	<img class = center src='/static/experiments/beast_fmri_test/images/redD.png'></img>	stop	2600.0	2.0	16.0	stop	non-target	D	71,Index Finger	89,Middle Finger	250.0	150.0	2500.0	2600.0	0.0	150.0	n/a	1.0	go_stim
301636.86579855857	2600.0	n/a	-1	-1	2750	678.134201441	stim	stop-signal	717	1963106	0.0-27.16-1.16	beast_fmri_test	330	1960380,/,1961059,/,1961739,/,1962419,/,1963100,/,1963778,/	t,t,t,t,t,t	<img class = center src='/static/experiments/beast_fmri_test/images/D.png'></img>	71,89	2750.0	test	<img class = center src='/static/experiments/beast_fmri_test/images/redD.png'></img>	stop	2600.0	2.0	16.0	stop	non-target	D	71,Index Finger	89,Middle Finger	250.0	150.0	2500.0	2600.0	0.0	150.0	n/a	1.0	stop_stim
301786.86579855857	678.13420144137217	n/a	-1	-1	2750	678.134201441	stim	stop-signal	717	1963106	0.0-27.16-1.16	beast_fmri_test	330	1960380,/,1961059,/,1961739,/,1962419,/,1963100,/,1963778,/	t,t,t,t,t,t	<img class = center src='/static/experiments/beast_fmri_test/images/D.png'></img>	71,89	2750.0	test	<img class = center src='/static/experiments/beast_fmri_test/images/redD.png'></img>	stop	2600.0	2.0	16.0	stop	non-target	D	71,Index Finger	89,Middle Finger	250.0	150.0	2500.0	2600.0	0.0	150.0	n/a	1.0	ITI
303724	500	n/a	-1	-1	500	0.0	fixation	poldrack-single-stim	718	1964365	0.0-27.17-0.17	beast_fmri_test	330	n/a	n/a	<div class = centerbox2><div class = fixation>+</div></div>	none	500.0	test	n/a	n/a	n/a	n/a	n/a	n/a	n/a	n/a	n/a	n/a	n/a	n/a	n/a	n/a	n/a	n/a	n/a	n/a	fixation
301819.02115542442	2750	n/a	632	89	2750	1905.97884458	stim	stop-signal	719	1967116	0.0-27.17-1.17	beast_fmri_test	330	1964457,/,1965137,/,1965817,/,1966497,/,1967177,/,1967856,/,1968536,/	t,t,t,t,t,t,t	<img class = center src='/static/experiments/beast_fmri_test/images/B.png'></img>	71,89	2750.0	test	<img class = center src='/static/experiments/beast_fmri_test/images/redB.png'></img>	go	2550.0	2.0	17.0	go	non-target	B	71,Index Finger	89,Middle Finger	250.0	200.0	2500.0	2550.0	1.0	200.0	1.0	n/a	go_stim
304569.02115542442	1905.9788445755569	n/a	632	89	2750	1905.97884458	stim	stop-signal	719	1967116	0.0-27.17-1.17	beast_fmri_test	330	1964457,/,1965137,/,1965817,/,1966497,/,1967177,/,1967856,/,1968536,/	t,t,t,t,t,t,t	<img class = center src='/static/experiments/beast_fmri_test/images/B.png'></img>	71,89	2750.0	test	<img class = center src='/static/experiments/beast_fmri_test/images/redB.png'></img>	go	2550.0	2.0	17.0	go	non-target	B	71,Index Finger	89,Middle Finger	250.0	200.0	2500.0	2550.0	1.0	200.0	1.0	n/a	ITI
308961	500	n/a	-1	-1	500	0.0	fixation	poldrack-single-stim	720	1969602	0.0-27.18-0.18	beast_fmri_test	330	1969215,/	t	<div class = centerbox2><div class = fixation>+</div></div>	none	500.0	test	n/a	n/a	n/a	n/a	n/a	n/a	n/a	n/a	n/a	n/a	n/a	n/a	n/a	n/a	n/a	n/a	n/a	n/a	fixation
308613.47043218836	2750	n/a	471	89	2750	348.529567812	stim	stop-signal	721	1972353	0.0-27.18-1.18	beast_fmri_test	330	1969895,/,1970577,/,1971255,/,1971934,/,1972615,/	t,t,t,t,t	<img class = center src='/static/experiments/beast_fmri_test/images/P.png'></img>	71,89	2750.0	test	<img class = center src='/static/experiments/beast_fmri_test/images/redP.png'></img>	go	2550.0	2.0	18.0	go	non-target	P	71,Index Finger	89,Middle Finger	250.0	200.0	2500.0	2550.0	1.0	200.0	1.0	n/a	go_stim
311363.47043218836	348.52956781157553	n/a	471	89	2750	348.529567812	stim	stop-signal	721	1972353	0.0-27.18-1.18	beast_fmri_test	330	1969895,/,1970577,/,1971255,/,1971934,/,1972615,/	t,t,t,t,t	<img class = center src='/static/experiments/beast_fmri_test/images/P.png'></img>	71,89	2750.0	test	<img class = center src='/static/experiments/beast_fmri_test/images/redP.png'></img>	go	2550.0	2.0	18.0	go	non-target	P	71,Index Finger	89,Middle Finger	250.0	200.0	2500.0	2550.0	1.0	200.0	1.0	n/a	ITI
312639	500	n/a	-1	-1	500	0.0	fixation	poldrack-single-stim	722	1973280	0.0-27.19-0.19	beast_fmri_test	330	n/a	n/a	<div class = centerbox2><div class = fixation>+</div></div>	none	500.0	test	n/a	n/a	n/a	n/a	n/a	n/a	n/a	n/a	n/a	n/a	n/a	n/a	n/a	n/a	n/a	n/a	n/a	n/a	fixation
311351.37417843472	2750	n/a	460	89	2750	1289.62582157	stim	stop-signal	723	1976032	0.0-27.19-1.19	beast_fmri_test	330	1973298,/,1973974,/,1974653,/,1975334,/,1976014,/,1976694,/	t,t,t,t,t,t	<img class = center src='/static/experiments/beast_fmri_test/images/P.png'></img>	71,89	2750.0	test	<img class = center src='/static/experiments/beast_fmri_test/images/redP.png'></img>	go	2550.0	2.0	19.0	go	non-target	P	71,Index Finger	89,Middle Finger	250.0	200.0	2500.0	2550.0	1.0	200.0	1.0	n/a	go_stim
314101.37417843472	1289.6258215652576	n/a	460	89	2750	1289.62582157	stim	stop-signal	723	1976032	0.0-27.19-1.19	beast_fmri_test	330	1973298,/,1973974,/,1974653,/,1975334,/,1976014,/,1976694,/	t,t,t,t,t,t	<img class = center src='/static/experiments/beast_fmri_test/images/P.png'></img>	71,89	2750.0	test	<img class = center src='/static/experiments/beast_fmri_test/images/redP.png'></img>	go	2550.0	2.0	19.0	go	non-target	P	71,Index Finger	89,Middle Finger	250.0	200.0	2500.0	2550.0	1.0	200.0	1.0	n/a	ITI
317265	500	n/a	-1	-1	500	0.0	fixation	poldrack-single-stim	724	1977906	0.0-27.20-0.20	beast_fmri_test	330	1977405,/	t	<div class = centerbox2><div class = fixation>+</div></div>	none	500.0	test	n/a	n/a	n/a	n/a	n/a	n/a	n/a	n/a	n/a	n/a	n/a	n/a	n/a	n/a	n/a	n/a	n/a	n/a	fixation
316814.81314457906	200.0	n/a	498	89	2750	452.186855421	stim	stop-signal	725	1980658	0.0-27.20-1.20	beast_fmri_test	330	1978052,/,1978731,/,1979412,/,1980091,/,1980771,/	t,t,t,t,t	<img class = center src='/static/experiments/beast_fmri_test/images/T.png'></img>	71,89	2750.0	test	<img class = center src='/static/experiments/beast_fmri_test/images/redT.png'></img>	stop	2550.0	2.0	20.0	stop	non-target	T	71,Index Finger	89,Middle Finger	250.0	200.0	2500.0	2550.0	0.0	200.0	n/a	0.0	go_stim
319364.81314457906	2550.0	n/a	498	89	2750	452.186855421	stim	stop-signal	725	1980658	0.0-27.20-1.20	beast_fmri_test	330	1978052,/,1978731,/,1979412,/,1980091,/,1980771,/	t,t,t,t,t	<img class = center src='/static/experiments/beast_fmri_test/images/T.png'></img>	71,89	2750.0	test	<img class = center src='/static/experiments/beast_fmri_test/images/redT.png'></img>	stop	2550.0	2.0	20.0	stop	non-target	T	71,Index Finger	89,Middle Finger	250.0	200.0	2500.0	2550.0	0.0	200.0	n/a	0.0	stop_stim
319564.81314457906	452.18685542088502	n/a	498	89	2750	452.186855421	stim	stop-signal	725	1980658	0.0-27.20-1.20	beast_fmri_test	330	1978052,/,1978731,/,1979412,/,1980091,/,1980771,/	t,t,t,t,t	<img class = center src='/static/experiments/beast_fmri_test/images/T.png'></img>	71,89	2750.0	test	<img class = center src='/static/experiments/beast_fmri_test/images/redT.png'></img>	stop	2550.0	2.0	20.0	stop	non-target	T	71,Index Finger	89,Middle Finger	250.0	200.0	2500.0	2550.0	0.0	200.0	n/a	0.0	ITI
