onset	duration	text	rt	key_press	block_duration	timing_post_trial	trial_id	trial_type	trial_index	time_elapsed	internal_node_id	exp_id	subject_id	trigger_times	triggers	stimulus	possible_responses	stim_duration	exp_stage	SS_stimulus	SS_trial_type	SS_duration	load	trial_num	stop_trial_type	adaptive_trial_type	stim	yes_response_key	no_response_key	SSD_target	SSD_non_target	SSTarget	SSNonTarget	go_acc	stop_acc	SS_delay	adaptive_acc	Unnamed: 36	new_trial_type
test	10880.0	n/a	-1	-1	10880	0.0	practice-no-stop-feedback	poldrack-single-stim	590	1654407	0.0-24.0	beast_fmri_test	119	1643526,/,1646925,/,1651685,/	t,t,t	"<div class = ""centerbox""><p class = ""center-block-text"">Your delay is 2 trials.</p><p class = center-block-text>Please wait for the scanner to start the block</p></div>"	77	10880.0	n/a	n/a	n/a	n/a	n/a	n/a	n/a	n/a	n/a	n/a	n/a	n/a	n/a	n/a	n/a	n/a	n/a	n/a	n/a	n/a	start_functional_block
11383	500.0	n/a	-1	-1	500	0.0	fixation	poldrack-single-stim	591	1654909	0.0-25.0-0.0	beast_fmri_test	119	n/a	n/a	<div class = centerbox><div class = fixation>+</div></div>	none	500.0	test	n/a	n/a	n/a	n/a	n/a	n/a	n/a	n/a	n/a	n/a	n/a	n/a	n/a	n/a	n/a	n/a	n/a	n/a	n/a	fixation
10627.845708713401	2750.0	n/a	1708	71	2750	757.154291287	stim	stop-signal	592	1657661	0.0-25.0-1.0	beast_fmri_test	119	n/a	n/a	<img class = center src='/static/experiments/beast_fmri_test/images/P.png'></img>	89,71	2750.0	test	<img class = center src='/static/experiments/beast_fmri_test/images/redP.png'></img>	go	-1.0	2.0	0.0	go	temp-non-target	P	89,Yellow Button	71,Green Button	900.0	700.0	1900.0	2000.0	0.0	n/a	n/a	n/a	n/a	go_stim
13377.845708713401	757.154291287	n/a	1708	71	2750	757.154291287	stim	stop-signal	592	1657661	0.0-25.0-1.0	beast_fmri_test	119	n/a	n/a	<img class = center src='/static/experiments/beast_fmri_test/images/P.png'></img>	89,71	2750.0	test	<img class = center src='/static/experiments/beast_fmri_test/images/redP.png'></img>	go	-1.0	2.0	0.0	go	temp-non-target	P	89,Yellow Button	71,Green Button	900.0	700.0	1900.0	2000.0	0.0	n/a	n/a	n/a	n/a	ITI
15414	500.0	n/a	-1	-1	500	0.0	fixation	poldrack-single-stim	593	1658940	0.0-25.1-0.1	beast_fmri_test	119	n/a	n/a	<div class = centerbox><div class = fixation>+</div></div>	none	500.0	test	n/a	n/a	n/a	n/a	n/a	n/a	n/a	n/a	n/a	n/a	n/a	n/a	n/a	n/a	n/a	n/a	n/a	n/a	n/a	fixation
15248.277757829987	2750.0	n/a	1494	71	2750	167.72224217	stim	stop-signal	594	1661692	0.0-25.1-1.1	beast_fmri_test	119	n/a	n/a	<img class = center src='/static/experiments/beast_fmri_test/images/T.png'></img>	89,71	2750.0	test	<img class = center src='/static/experiments/beast_fmri_test/images/redT.png'></img>	go	-1.0	2.0	1.0	go	temp-non-target	T	89,Yellow Button	71,Green Button	900.0	700.0	1900.0	2000.0	0.0	n/a	n/a	n/a	n/a	go_stim
17998.277757829987	167.72224217	n/a	1494	71	2750	167.72224217	stim	stop-signal	594	1661692	0.0-25.1-1.1	beast_fmri_test	119	n/a	n/a	<img class = center src='/static/experiments/beast_fmri_test/images/T.png'></img>	89,71	2750.0	test	<img class = center src='/static/experiments/beast_fmri_test/images/redT.png'></img>	go	-1.0	2.0	1.0	go	temp-non-target	T	89,Yellow Button	71,Green Button	900.0	700.0	1900.0	2000.0	0.0	n/a	n/a	n/a	n/a	ITI
18856	500.0	n/a	-1	-1	500	0.0	fixation	poldrack-single-stim	595	1662382	0.0-25.2-0.2	beast_fmri_test	119	n/a	n/a	<div class = centerbox><div class = fixation>+</div></div>	none	500.0	test	n/a	n/a	n/a	n/a	n/a	n/a	n/a	n/a	n/a	n/a	n/a	n/a	n/a	n/a	n/a	n/a	n/a	n/a	n/a	fixation
15485.20634778426	2750.0	n/a	978	71	2750	3372.79365222	stim	stop-signal	596	1665134	0.0-25.2-1.2	beast_fmri_test	119	n/a	n/a	<img class = center src='/static/experiments/beast_fmri_test/images/T.png'></img>	89,71	2750.0	test	<img class = center src='/static/experiments/beast_fmri_test/images/redT.png'></img>	go	2050.0	2.0	2.0	go	non-target	T	89,Yellow Button	71,Green Button	900.0	700.0	1900.0	2050.0	1.0	n/a	700.0	1.0	n/a	go_stim
18235.20634778426	3372.79365222	n/a	978	71	2750	3372.79365222	stim	stop-signal	596	1665134	0.0-25.2-1.2	beast_fmri_test	119	n/a	n/a	<img class = center src='/static/experiments/beast_fmri_test/images/T.png'></img>	89,71	2750.0	test	<img class = center src='/static/experiments/beast_fmri_test/images/redT.png'></img>	go	2050.0	2.0	2.0	go	non-target	T	89,Yellow Button	71,Green Button	900.0	700.0	1900.0	2050.0	1.0	n/a	700.0	1.0	n/a	ITI
25503	500.0	n/a	-1	-1	500	0.0	fixation	poldrack-single-stim	597	1669029	0.0-25.3-0.3	beast_fmri_test	119	n/a	n/a	<div class = centerbox><div class = fixation>+</div></div>	none	500.0	test	n/a	n/a	n/a	n/a	n/a	n/a	n/a	n/a	n/a	n/a	n/a	n/a	n/a	n/a	n/a	n/a	n/a	n/a	n/a	fixation
25447.944104701513	700.0	n/a	704	71	2750	57.0558952985	stim	stop-signal	598	1671781	0.0-25.3-1.3	beast_fmri_test	119	n/a	n/a	<img class = center src='/static/experiments/beast_fmri_test/images/B.png'></img>	89,71	2750.0	test	<img class = center src='/static/experiments/beast_fmri_test/images/redB.png'></img>	stop	2050.0	2.0	3.0	stop	non-target	B	89,Yellow Button	71,Green Button	900.0	700.0	1900.0	2050.0	0.0	0.0	700.0	1.0	n/a	go_stim
27497.944104701513	2050.0	n/a	704	71	2750	57.0558952985	stim	stop-signal	598	1671781	0.0-25.3-1.3	beast_fmri_test	119	n/a	n/a	<img class = center src='/static/experiments/beast_fmri_test/images/B.png'></img>	89,71	2750.0	test	<img class = center src='/static/experiments/beast_fmri_test/images/redB.png'></img>	stop	2050.0	2.0	3.0	stop	non-target	B	89,Yellow Button	71,Green Button	900.0	700.0	1900.0	2050.0	0.0	0.0	700.0	1.0	n/a	stop_stim
28197.944104701513	57.0558952985	n/a	704	71	2750	57.0558952985	stim	stop-signal	598	1671781	0.0-25.3-1.3	beast_fmri_test	119	n/a	n/a	<img class = center src='/static/experiments/beast_fmri_test/images/B.png'></img>	89,71	2750.0	test	<img class = center src='/static/experiments/beast_fmri_test/images/redB.png'></img>	stop	2050.0	2.0	3.0	stop	non-target	B	89,Yellow Button	71,Green Button	900.0	700.0	1900.0	2050.0	0.0	0.0	700.0	1.0	n/a	ITI
28834	500.0	n/a	-1	-1	500	0.0	fixation	poldrack-single-stim	599	1672360	0.0-25.4-0.4	beast_fmri_test	119	n/a	n/a	<div class = centerbox><div class = fixation>+</div></div>	none	500.0	test	n/a	n/a	n/a	n/a	n/a	n/a	n/a	n/a	n/a	n/a	n/a	n/a	n/a	n/a	n/a	n/a	n/a	n/a	n/a	fixation
27346.65297217411	2750.0	n/a	1504	89	2750	1489.34702783	stim	stop-signal	600	1675112	0.0-25.4-1.4	beast_fmri_test	119	1674125,/	t	<img class = center src='/static/experiments/beast_fmri_test/images/T.png'></img>	89,71	2750.0	test	<img class = center src='/static/experiments/beast_fmri_test/images/redT.png'></img>	go	1850.0	2.0	4.0	go	target	T	89,Yellow Button	71,Green Button	900.0	650.0	1850.0	2050.0	1.0	n/a	900.0	1.0	n/a	go_stim
30096.65297217411	1489.34702783	n/a	1504	89	2750	1489.34702783	stim	stop-signal	600	1675112	0.0-25.4-1.4	beast_fmri_test	119	1674125,/	t	<img class = center src='/static/experiments/beast_fmri_test/images/T.png'></img>	89,71	2750.0	test	<img class = center src='/static/experiments/beast_fmri_test/images/redT.png'></img>	go	1850.0	2.0	4.0	go	target	T	89,Yellow Button	71,Green Button	900.0	650.0	1850.0	2050.0	1.0	n/a	900.0	1.0	n/a	ITI
33599	500.0	n/a	-1	-1	500	0.0	fixation	poldrack-single-stim	601	1677125	0.0-25.5-0.5	beast_fmri_test	119	n/a	n/a	<div class = centerbox><div class = fixation>+</div></div>	none	500.0	test	n/a	n/a	n/a	n/a	n/a	n/a	n/a	n/a	n/a	n/a	n/a	n/a	n/a	n/a	n/a	n/a	n/a	n/a	n/a	fixation
33065.850815291982	2750.0	n/a	2168	71	2750	535.149184708	stim	stop-signal	602	1679877	0.0-25.5-1.5	beast_fmri_test	119	n/a	n/a	<img class = center src='/static/experiments/beast_fmri_test/images/B.png'></img>	89,71	2750.0	test	<img class = center src='/static/experiments/beast_fmri_test/images/redB.png'></img>	go	1850.0	2.0	5.0	go	target	B	89,Yellow Button	71,Green Button	900.0	650.0	1850.0	2050.0	0.0	n/a	900.0	0.0	n/a	go_stim
35815.850815291982	535.149184708	n/a	2168	71	2750	535.149184708	stim	stop-signal	602	1679877	0.0-25.5-1.5	beast_fmri_test	119	n/a	n/a	<img class = center src='/static/experiments/beast_fmri_test/images/B.png'></img>	89,71	2750.0	test	<img class = center src='/static/experiments/beast_fmri_test/images/redB.png'></img>	go	1850.0	2.0	5.0	go	target	B	89,Yellow Button	71,Green Button	900.0	650.0	1850.0	2050.0	0.0	n/a	900.0	0.0	n/a	ITI
37407	500.0	n/a	-1	-1	500	0.0	fixation	poldrack-single-stim	603	1680933	0.0-25.6-0.6	beast_fmri_test	119	n/a	n/a	<div class = centerbox><div class = fixation>+</div></div>	none	500.0	test	n/a	n/a	n/a	n/a	n/a	n/a	n/a	n/a	n/a	n/a	n/a	n/a	n/a	n/a	n/a	n/a	n/a	n/a	n/a	fixation
37300.673639702844	2750.0	n/a	986	89	2750	108.326360297	stim	stop-signal	604	1683685	0.0-25.6-1.6	beast_fmri_test	119	n/a	n/a	<img class = center src='/static/experiments/beast_fmri_test/images/B.png'></img>	89,71	2750.0	test	<img class = center src='/static/experiments/beast_fmri_test/images/redB.png'></img>	go	2100.0	2.0	6.0	go	non-target	B	89,Yellow Button	71,Green Button	900.0	650.0	1850.0	2100.0	0.0	n/a	650.0	0.0	n/a	go_stim
40050.673639702844	108.326360297	n/a	986	89	2750	108.326360297	stim	stop-signal	604	1683685	0.0-25.6-1.6	beast_fmri_test	119	n/a	n/a	<img class = center src='/static/experiments/beast_fmri_test/images/B.png'></img>	89,71	2750.0	test	<img class = center src='/static/experiments/beast_fmri_test/images/redB.png'></img>	go	2100.0	2.0	6.0	go	non-target	B	89,Yellow Button	71,Green Button	900.0	650.0	1850.0	2100.0	0.0	n/a	650.0	0.0	n/a	ITI
40788	500.0	n/a	-1	-1	500	0.0	fixation	poldrack-single-stim	605	1684314	0.0-25.7-0.7	beast_fmri_test	119	n/a	n/a	<div class = centerbox><div class = fixation>+</div></div>	none	500.0	test	n/a	n/a	n/a	n/a	n/a	n/a	n/a	n/a	n/a	n/a	n/a	n/a	n/a	n/a	n/a	n/a	n/a	n/a	n/a	fixation
37932.375036637764	2750.0	n/a	1119	71	2750	2857.62496336	stim	stop-signal	606	1687066	0.0-25.7-1.7	beast_fmri_test	119	n/a	n/a	<img class = center src='/static/experiments/beast_fmri_test/images/B.png'></img>	89,71	2750.0	test	<img class = center src='/static/experiments/beast_fmri_test/images/redB.png'></img>	go	1850.0	2.0	7.0	go	target	B	89,Yellow Button	71,Green Button	900.0	650.0	1850.0	2100.0	0.0	n/a	900.0	0.0	n/a	go_stim
40682.375036637764	2857.62496336	n/a	1119	71	2750	2857.62496336	stim	stop-signal	606	1687066	0.0-25.7-1.7	beast_fmri_test	119	n/a	n/a	<img class = center src='/static/experiments/beast_fmri_test/images/B.png'></img>	89,71	2750.0	test	<img class = center src='/static/experiments/beast_fmri_test/images/redB.png'></img>	go	1850.0	2.0	7.0	go	target	B	89,Yellow Button	71,Green Button	900.0	650.0	1850.0	2100.0	0.0	n/a	900.0	0.0	n/a	ITI
46918	500.0	n/a	-1	-1	500	0.0	fixation	poldrack-single-stim	607	1690444	0.0-25.8-0.8	beast_fmri_test	119	n/a	n/a	<div class = centerbox><div class = fixation>+</div></div>	none	500.0	test	n/a	n/a	n/a	n/a	n/a	n/a	n/a	n/a	n/a	n/a	n/a	n/a	n/a	n/a	n/a	n/a	n/a	n/a	n/a	fixation
45866.49874894158	900.0	n/a	881	89	2750	1053.50125106	stim	stop-signal	608	1693196	0.0-25.8-1.8	beast_fmri_test	119	n/a	n/a	<img class = center src='/static/experiments/beast_fmri_test/images/B.png'></img>	89,71	2750.0	test	<img class = center src='/static/experiments/beast_fmri_test/images/redB.png'></img>	stop	1850.0	2.0	8.0	stop	target	B	89,Yellow Button	71,Green Button	900.0	650.0	1850.0	2100.0	0.0	0.0	900.0	1.0	n/a	go_stim
47716.49874894158	1850.0	n/a	881	89	2750	1053.50125106	stim	stop-signal	608	1693196	0.0-25.8-1.8	beast_fmri_test	119	n/a	n/a	<img class = center src='/static/experiments/beast_fmri_test/images/B.png'></img>	89,71	2750.0	test	<img class = center src='/static/experiments/beast_fmri_test/images/redB.png'></img>	stop	1850.0	2.0	8.0	stop	target	B	89,Yellow Button	71,Green Button	900.0	650.0	1850.0	2100.0	0.0	0.0	900.0	1.0	n/a	stop_stim
48616.49874894158	1053.50125106	n/a	881	89	2750	1053.50125106	stim	stop-signal	608	1693196	0.0-25.8-1.8	beast_fmri_test	119	n/a	n/a	<img class = center src='/static/experiments/beast_fmri_test/images/B.png'></img>	89,71	2750.0	test	<img class = center src='/static/experiments/beast_fmri_test/images/redB.png'></img>	stop	1850.0	2.0	8.0	stop	target	B	89,Yellow Button	71,Green Button	900.0	650.0	1850.0	2100.0	0.0	0.0	900.0	1.0	n/a	ITI
51246	500.0	n/a	-1	-1	500	0.0	fixation	poldrack-single-stim	609	1694772	0.0-25.9-0.9	beast_fmri_test	119	n/a	n/a	<div class = centerbox><div class = fixation>+</div></div>	none	500.0	test	n/a	n/a	n/a	n/a	n/a	n/a	n/a	n/a	n/a	n/a	n/a	n/a	n/a	n/a	n/a	n/a	n/a	n/a	n/a	fixation
50872.809224626981	2750.0	n/a	1653	71	2750	375.190775373	stim	stop-signal	610	1697524	0.0-25.9-1.9	beast_fmri_test	119	n/a	n/a	<img class = center src='/static/experiments/beast_fmri_test/images/P.png'></img>	89,71	2750.0	test	<img class = center src='/static/experiments/beast_fmri_test/images/redP.png'></img>	go	2100.0	2.0	9.0	go	non-target	P	89,Yellow Button	71,Green Button	850.0	650.0	1850.0	2100.0	1.0	n/a	650.0	1.0	n/a	go_stim
53622.809224626981	375.190775373	n/a	1653	71	2750	375.190775373	stim	stop-signal	610	1697524	0.0-25.9-1.9	beast_fmri_test	119	n/a	n/a	<img class = center src='/static/experiments/beast_fmri_test/images/P.png'></img>	89,71	2750.0	test	<img class = center src='/static/experiments/beast_fmri_test/images/redP.png'></img>	go	2100.0	2.0	9.0	go	non-target	P	89,Yellow Button	71,Green Button	850.0	650.0	1850.0	2100.0	1.0	n/a	650.0	1.0	n/a	ITI
54895	500.0	n/a	-1	-1	500	0.0	fixation	poldrack-single-stim	611	1698421	0.0-25.10-0.10	beast_fmri_test	119	n/a	n/a	<div class = centerbox><div class = fixation>+</div></div>	none	500.0	test	n/a	n/a	n/a	n/a	n/a	n/a	n/a	n/a	n/a	n/a	n/a	n/a	n/a	n/a	n/a	n/a	n/a	n/a	n/a	fixation
53942.687286338769	2750.0	n/a	2170	89	2750	954.312713661	stim	stop-signal	612	1701173	0.0-25.10-1.10	beast_fmri_test	119	n/a	n/a	<img class = center src='/static/experiments/beast_fmri_test/images/B.png'></img>	89,71	2750.0	test	<img class = center src='/static/experiments/beast_fmri_test/images/redB.png'></img>	go	1900.0	2.0	10.0	go	target	B	89,Yellow Button	71,Green Button	850.0	650.0	1900.0	2100.0	1.0	n/a	850.0	1.0	n/a	go_stim
56692.687286338769	954.312713661	n/a	2170	89	2750	954.312713661	stim	stop-signal	612	1701173	0.0-25.10-1.10	beast_fmri_test	119	n/a	n/a	<img class = center src='/static/experiments/beast_fmri_test/images/B.png'></img>	89,71	2750.0	test	<img class = center src='/static/experiments/beast_fmri_test/images/redB.png'></img>	go	1900.0	2.0	10.0	go	target	B	89,Yellow Button	71,Green Button	850.0	650.0	1900.0	2100.0	1.0	n/a	850.0	1.0	n/a	ITI
59119	500.0	n/a	-1	-1	500	0.0	fixation	poldrack-single-stim	613	1702645	0.0-25.11-0.11	beast_fmri_test	119	n/a	n/a	<div class = centerbox><div class = fixation>+</div></div>	none	500.0	test	n/a	n/a	n/a	n/a	n/a	n/a	n/a	n/a	n/a	n/a	n/a	n/a	n/a	n/a	n/a	n/a	n/a	n/a	n/a	fixation
58955.750762840966	2750.0	n/a	2345	71	2750	165.249237159	stim	stop-signal	614	1705397	0.0-25.11-1.11	beast_fmri_test	119	1702686,/	t	<img class = center src='/static/experiments/beast_fmri_test/images/D.png'></img>	89,71	2750.0	test	<img class = center src='/static/experiments/beast_fmri_test/images/redD.png'></img>	go	2100.0	2.0	11.0	go	non-target	D	89,Yellow Button	71,Green Button	850.0	650.0	1900.0	2100.0	1.0	n/a	650.0	1.0	n/a	go_stim
61705.750762840966	165.249237159	n/a	2345	71	2750	165.249237159	stim	stop-signal	614	1705397	0.0-25.11-1.11	beast_fmri_test	119	1702686,/	t	<img class = center src='/static/experiments/beast_fmri_test/images/D.png'></img>	89,71	2750.0	test	<img class = center src='/static/experiments/beast_fmri_test/images/redD.png'></img>	go	2100.0	2.0	11.0	go	non-target	D	89,Yellow Button	71,Green Button	850.0	650.0	1900.0	2100.0	1.0	n/a	650.0	1.0	n/a	ITI
62558	500.0	n/a	-1	-1	500	0.0	fixation	poldrack-single-stim	615	1706084	0.0-25.12-0.12	beast_fmri_test	119	n/a	n/a	<div class = centerbox><div class = fixation>+</div></div>	none	500.0	test	n/a	n/a	n/a	n/a	n/a	n/a	n/a	n/a	n/a	n/a	n/a	n/a	n/a	n/a	n/a	n/a	n/a	n/a	n/a	fixation
61868.0019299821	850.0	n/a	-1	-1	2750	691.998070018	stim	stop-signal	616	1708836	0.0-25.12-1.12	beast_fmri_test	119	n/a	n/a	<img class = center src='/static/experiments/beast_fmri_test/images/B.png'></img>	89,71	2750.0	test	<img class = center src='/static/experiments/beast_fmri_test/images/redB.png'></img>	stop	1900.0	2.0	12.0	stop	target	B	89,Yellow Button	71,Green Button	850.0	650.0	1900.0	2100.0	0.0	1.0	850.0	0.0	n/a	go_stim
63768.0019299821	1900.0	n/a	-1	-1	2750	691.998070018	stim	stop-signal	616	1708836	0.0-25.12-1.12	beast_fmri_test	119	n/a	n/a	<img class = center src='/static/experiments/beast_fmri_test/images/B.png'></img>	89,71	2750.0	test	<img class = center src='/static/experiments/beast_fmri_test/images/redB.png'></img>	stop	1900.0	2.0	12.0	stop	target	B	89,Yellow Button	71,Green Button	850.0	650.0	1900.0	2100.0	0.0	1.0	850.0	0.0	n/a	stop_stim
64618.0019299821	691.998070018	n/a	-1	-1	2750	691.998070018	stim	stop-signal	616	1708836	0.0-25.12-1.12	beast_fmri_test	119	n/a	n/a	<img class = center src='/static/experiments/beast_fmri_test/images/B.png'></img>	89,71	2750.0	test	<img class = center src='/static/experiments/beast_fmri_test/images/redB.png'></img>	stop	1900.0	2.0	12.0	stop	target	B	89,Yellow Button	71,Green Button	850.0	650.0	1900.0	2100.0	0.0	1.0	850.0	0.0	n/a	ITI
66522	500.0	n/a	-1	-1	500	0.0	fixation	poldrack-single-stim	617	1710048	0.0-25.13-0.13	beast_fmri_test	119	n/a	n/a	<div class = centerbox><div class = fixation>+</div></div>	none	500.0	test	n/a	n/a	n/a	n/a	n/a	n/a	n/a	n/a	n/a	n/a	n/a	n/a	n/a	n/a	n/a	n/a	n/a	n/a	n/a	fixation
66401.334646668052	2750.0	n/a	667	71	2750	121.665353332	stim	stop-signal	618	1712799	0.0-25.13-1.13	beast_fmri_test	119	n/a	n/a	<img class = center src='/static/experiments/beast_fmri_test/images/V.png'></img>	89,71	2750.0	test	<img class = center src='/static/experiments/beast_fmri_test/images/redV.png'></img>	go	2100.0	2.0	13.0	go	non-target	V	89,Yellow Button	71,Green Button	900.0	650.0	1900.0	2100.0	1.0	n/a	650.0	1.0	n/a	go_stim
69151.334646668052	121.665353332	n/a	667	71	2750	121.665353332	stim	stop-signal	618	1712799	0.0-25.13-1.13	beast_fmri_test	119	n/a	n/a	<img class = center src='/static/experiments/beast_fmri_test/images/V.png'></img>	89,71	2750.0	test	<img class = center src='/static/experiments/beast_fmri_test/images/redV.png'></img>	go	2100.0	2.0	13.0	go	non-target	V	89,Yellow Button	71,Green Button	900.0	650.0	1900.0	2100.0	1.0	n/a	650.0	1.0	n/a	ITI
69916	500.0	n/a	-1	-1	500	0.0	fixation	poldrack-single-stim	619	1713442	0.0-25.14-0.14	beast_fmri_test	119	n/a	n/a	<div class = centerbox><div class = fixation>+</div></div>	none	500.0	test	n/a	n/a	n/a	n/a	n/a	n/a	n/a	n/a	n/a	n/a	n/a	n/a	n/a	n/a	n/a	n/a	n/a	n/a	n/a	fixation
68292.222890445963	650.0	n/a	-1	-1	2750	1625.77710955	stim	stop-signal	620	1716194	0.0-25.14-1.14	beast_fmri_test	119	1716966,/	t	<img class = center src='/static/experiments/beast_fmri_test/images/T.png'></img>	89,71	2750.0	test	<img class = center src='/static/experiments/beast_fmri_test/images/redT.png'></img>	stop	2100.0	2.0	14.0	stop	non-target	T	89,Yellow Button	71,Green Button	900.0	650.0	1900.0	2100.0	0.0	1.0	650.0	0.0	n/a	go_stim
70392.222890445963	2100.0	n/a	-1	-1	2750	1625.77710955	stim	stop-signal	620	1716194	0.0-25.14-1.14	beast_fmri_test	119	1716966,/	t	<img class = center src='/static/experiments/beast_fmri_test/images/T.png'></img>	89,71	2750.0	test	<img class = center src='/static/experiments/beast_fmri_test/images/redT.png'></img>	stop	2100.0	2.0	14.0	stop	non-target	T	89,Yellow Button	71,Green Button	900.0	650.0	1900.0	2100.0	0.0	1.0	650.0	0.0	n/a	stop_stim
71042.222890445963	1625.77710955	n/a	-1	-1	2750	1625.77710955	stim	stop-signal	620	1716194	0.0-25.14-1.14	beast_fmri_test	119	1716966,/	t	<img class = center src='/static/experiments/beast_fmri_test/images/T.png'></img>	89,71	2750.0	test	<img class = center src='/static/experiments/beast_fmri_test/images/redT.png'></img>	stop	2100.0	2.0	14.0	stop	non-target	T	89,Yellow Button	71,Green Button	900.0	650.0	1900.0	2100.0	0.0	1.0	650.0	0.0	n/a	ITI
74814	500.0	n/a	-1	-1	500	0.0	fixation	poldrack-single-stim	621	1718340	0.0-25.15-0.15	beast_fmri_test	119	n/a	n/a	<div class = centerbox><div class = fixation>+</div></div>	none	500.0	test	n/a	n/a	n/a	n/a	n/a	n/a	n/a	n/a	n/a	n/a	n/a	n/a	n/a	n/a	n/a	n/a	n/a	n/a	n/a	fixation
74025.452300222125	2750.0	n/a	1020	71	2750	790.547699778	stim	stop-signal	622	1721092	0.0-25.15-1.15	beast_fmri_test	119	1720366,/	t	<img class = center src='/static/experiments/beast_fmri_test/images/T.png'></img>	89,71	2750.0	test	<img class = center src='/static/experiments/beast_fmri_test/images/redT.png'></img>	go	2050.0	2.0	15.0	go	non-target	T	89,Yellow Button	71,Green Button	900.0	700.0	1900.0	2050.0	1.0	n/a	700.0	1.0	n/a	go_stim
76775.452300222125	790.547699778	n/a	1020	71	2750	790.547699778	stim	stop-signal	622	1721092	0.0-25.15-1.15	beast_fmri_test	119	1720366,/	t	<img class = center src='/static/experiments/beast_fmri_test/images/T.png'></img>	89,71	2750.0	test	<img class = center src='/static/experiments/beast_fmri_test/images/redT.png'></img>	go	2050.0	2.0	15.0	go	non-target	T	89,Yellow Button	71,Green Button	900.0	700.0	1900.0	2050.0	1.0	n/a	700.0	1.0	n/a	ITI
78876	500.0	n/a	-1	-1	500	0.0	fixation	poldrack-single-stim	623	1722402	0.0-25.16-0.16	beast_fmri_test	119	n/a	n/a	<div class = centerbox><div class = fixation>+</div></div>	none	500.0	test	n/a	n/a	n/a	n/a	n/a	n/a	n/a	n/a	n/a	n/a	n/a	n/a	n/a	n/a	n/a	n/a	n/a	n/a	n/a	fixation
78802.133302466944	700.0	n/a	864	89	2750	75.8666975331	stim	stop-signal	624	1725154	0.0-25.16-1.16	beast_fmri_test	119	n/a	n/a	<img class = center src='/static/experiments/beast_fmri_test/images/V.png'></img>	89,71	2750.0	test	<img class = center src='/static/experiments/beast_fmri_test/images/redV.png'></img>	stop	2050.0	2.0	16.0	stop	non-target	V	89,Yellow Button	71,Green Button	900.0	700.0	1900.0	2050.0	0.0	0.0	700.0	0.0	n/a	go_stim
80852.133302466944	2050.0	n/a	864	89	2750	75.8666975331	stim	stop-signal	624	1725154	0.0-25.16-1.16	beast_fmri_test	119	n/a	n/a	<img class = center src='/static/experiments/beast_fmri_test/images/V.png'></img>	89,71	2750.0	test	<img class = center src='/static/experiments/beast_fmri_test/images/redV.png'></img>	stop	2050.0	2.0	16.0	stop	non-target	V	89,Yellow Button	71,Green Button	900.0	700.0	1900.0	2050.0	0.0	0.0	700.0	0.0	n/a	stop_stim
81552.133302466944	75.8666975331	n/a	864	89	2750	75.8666975331	stim	stop-signal	624	1725154	0.0-25.16-1.16	beast_fmri_test	119	n/a	n/a	<img class = center src='/static/experiments/beast_fmri_test/images/V.png'></img>	89,71	2750.0	test	<img class = center src='/static/experiments/beast_fmri_test/images/redV.png'></img>	stop	2050.0	2.0	16.0	stop	non-target	V	89,Yellow Button	71,Green Button	900.0	700.0	1900.0	2050.0	0.0	0.0	700.0	0.0	n/a	ITI
82224	500.0	n/a	-1	-1	500	0.0	fixation	poldrack-single-stim	625	1725750	0.0-25.17-0.17	beast_fmri_test	119	n/a	n/a	<div class = centerbox><div class = fixation>+</div></div>	none	500.0	test	n/a	n/a	n/a	n/a	n/a	n/a	n/a	n/a	n/a	n/a	n/a	n/a	n/a	n/a	n/a	n/a	n/a	n/a	n/a	fixation
79146.541364393663	2750.0	n/a	1678	71	2750	3079.45863561	stim	stop-signal	626	1728502	0.0-25.17-1.17	beast_fmri_test	119	n/a	n/a	<img class = center src='/static/experiments/beast_fmri_test/images/V.png'></img>	89,71	2750.0	test	<img class = center src='/static/experiments/beast_fmri_test/images/redV.png'></img>	go	2100.0	2.0	17.0	go	non-target	V	89,Yellow Button	71,Green Button	900.0	650.0	1900.0	2100.0	1.0	n/a	650.0	1.0	n/a	go_stim
81896.541364393663	3079.45863561	n/a	1678	71	2750	3079.45863561	stim	stop-signal	626	1728502	0.0-25.17-1.17	beast_fmri_test	119	n/a	n/a	<img class = center src='/static/experiments/beast_fmri_test/images/V.png'></img>	89,71	2750.0	test	<img class = center src='/static/experiments/beast_fmri_test/images/redV.png'></img>	go	2100.0	2.0	17.0	go	non-target	V	89,Yellow Button	71,Green Button	900.0	650.0	1900.0	2100.0	1.0	n/a	650.0	1.0	n/a	ITI
88577	500.0	n/a	-1	-1	500	0.0	fixation	poldrack-single-stim	627	1732103	0.0-25.18-0.18	beast_fmri_test	119	n/a	n/a	<div class = centerbox><div class = fixation>+</div></div>	none	500.0	test	n/a	n/a	n/a	n/a	n/a	n/a	n/a	n/a	n/a	n/a	n/a	n/a	n/a	n/a	n/a	n/a	n/a	n/a	n/a	fixation
87486.01739402418	2750.0	n/a	690	89	2750	1091.98260598	stim	stop-signal	628	1734854	0.0-25.18-1.18	beast_fmri_test	119	n/a	n/a	<img class = center src='/static/experiments/beast_fmri_test/images/T.png'></img>	89,71	2750.0	test	<img class = center src='/static/experiments/beast_fmri_test/images/redT.png'></img>	go	2100.0	2.0	18.0	go	non-target	T	89,Yellow Button	71,Green Button	900.0	650.0	1900.0	2100.0	0.0	n/a	650.0	0.0	n/a	go_stim
90236.01739402418	1091.98260598	n/a	690	89	2750	1091.98260598	stim	stop-signal	628	1734854	0.0-25.18-1.18	beast_fmri_test	119	n/a	n/a	<img class = center src='/static/experiments/beast_fmri_test/images/T.png'></img>	89,71	2750.0	test	<img class = center src='/static/experiments/beast_fmri_test/images/redT.png'></img>	go	2100.0	2.0	18.0	go	non-target	T	89,Yellow Button	71,Green Button	900.0	650.0	1900.0	2100.0	0.0	n/a	650.0	0.0	n/a	ITI
92941	500.0	n/a	-1	-1	500	0.0	fixation	poldrack-single-stim	629	1736467	0.0-25.19-0.19	beast_fmri_test	119	n/a	n/a	<div class = centerbox><div class = fixation>+</div></div>	none	500.0	test	n/a	n/a	n/a	n/a	n/a	n/a	n/a	n/a	n/a	n/a	n/a	n/a	n/a	n/a	n/a	n/a	n/a	n/a	n/a	fixation
92881.770142922644	900.0	n/a	-1	-1	2750	60.2298570774	stim	stop-signal	630	1739218	0.0-25.19-1.19	beast_fmri_test	119	n/a	n/a	<img class = center src='/static/experiments/beast_fmri_test/images/V.png'></img>	89,71	2750.0	test	<img class = center src='/static/experiments/beast_fmri_test/images/redV.png'></img>	stop	1850.0	2.0	19.0	stop	target	V	89,Yellow Button	71,Green Button	900.0	650.0	1850.0	2100.0	0.0	1.0	900.0	0.0	n/a	go_stim
94731.770142922644	1850.0	n/a	-1	-1	2750	60.2298570774	stim	stop-signal	630	1739218	0.0-25.19-1.19	beast_fmri_test	119	n/a	n/a	<img class = center src='/static/experiments/beast_fmri_test/images/V.png'></img>	89,71	2750.0	test	<img class = center src='/static/experiments/beast_fmri_test/images/redV.png'></img>	stop	1850.0	2.0	19.0	stop	target	V	89,Yellow Button	71,Green Button	900.0	650.0	1850.0	2100.0	0.0	1.0	900.0	0.0	n/a	stop_stim
95631.770142922644	60.2298570774	n/a	-1	-1	2750	60.2298570774	stim	stop-signal	630	1739218	0.0-25.19-1.19	beast_fmri_test	119	n/a	n/a	<img class = center src='/static/experiments/beast_fmri_test/images/V.png'></img>	89,71	2750.0	test	<img class = center src='/static/experiments/beast_fmri_test/images/redV.png'></img>	stop	1850.0	2.0	19.0	stop	target	V	89,Yellow Button	71,Green Button	900.0	650.0	1850.0	2100.0	0.0	1.0	900.0	0.0	n/a	ITI
96276	500.0	n/a	-1	-1	500	0.0	fixation	poldrack-single-stim	631	1739802	0.0-25.20-0.20	beast_fmri_test	119	n/a	n/a	<div class = centerbox><div class = fixation>+</div></div>	none	500.0	test	n/a	n/a	n/a	n/a	n/a	n/a	n/a	n/a	n/a	n/a	n/a	n/a	n/a	n/a	n/a	n/a	n/a	n/a	n/a	fixation
94938.484321821481	2750.0	n/a	1102	71	2750	1338.51567818	stim	stop-signal	632	1742553	0.0-25.20-1.20	beast_fmri_test	119	n/a	n/a	<img class = center src='/static/experiments/beast_fmri_test/images/B.png'></img>	89,71	2750.0	test	<img class = center src='/static/experiments/beast_fmri_test/images/redB.png'></img>	go	2100.0	2.0	20.0	go	non-target	B	89,Yellow Button	71,Green Button	950.0	650.0	1850.0	2100.0	1.0	n/a	650.0	1.0	n/a	go_stim
97688.484321821481	1338.51567818	n/a	1102	71	2750	1338.51567818	stim	stop-signal	632	1742553	0.0-25.20-1.20	beast_fmri_test	119	n/a	n/a	<img class = center src='/static/experiments/beast_fmri_test/images/B.png'></img>	89,71	2750.0	test	<img class = center src='/static/experiments/beast_fmri_test/images/redB.png'></img>	go	2100.0	2.0	20.0	go	non-target	B	89,Yellow Button	71,Green Button	950.0	650.0	1850.0	2100.0	1.0	n/a	650.0	1.0	n/a	ITI
100884	500.0	n/a	-1	-1	500	0.0	fixation	poldrack-single-stim	633	1744410	0.0-25.21-0.21	beast_fmri_test	119	n/a	n/a	<div class = centerbox><div class = fixation>+</div></div>	none	500.0	test	n/a	n/a	n/a	n/a	n/a	n/a	n/a	n/a	n/a	n/a	n/a	n/a	n/a	n/a	n/a	n/a	n/a	n/a	n/a	fixation
99938.782551936107	2750.0	n/a	794	71	2750	946.217448064	stim	stop-signal	634	1747161	0.0-25.21-1.21	beast_fmri_test	119	n/a	n/a	<img class = center src='/static/experiments/beast_fmri_test/images/V.png'></img>	89,71	2750.0	test	<img class = center src='/static/experiments/beast_fmri_test/images/redV.png'></img>	go	1800.0	2.0	21.0	go	target	V	89,Yellow Button	71,Green Button	950.0	650.0	1800.0	2100.0	0.0	n/a	950.0	0.0	n/a	go_stim
102688.78255193611	946.217448064	n/a	794	71	2750	946.217448064	stim	stop-signal	634	1747161	0.0-25.21-1.21	beast_fmri_test	119	n/a	n/a	<img class = center src='/static/experiments/beast_fmri_test/images/V.png'></img>	89,71	2750.0	test	<img class = center src='/static/experiments/beast_fmri_test/images/redV.png'></img>	go	1800.0	2.0	21.0	go	target	V	89,Yellow Button	71,Green Button	950.0	650.0	1800.0	2100.0	0.0	n/a	950.0	0.0	n/a	ITI
105102	500.0	n/a	-1	-1	500	0.0	fixation	poldrack-single-stim	635	1748628	0.0-25.22-0.22	beast_fmri_test	119	n/a	n/a	<div class = centerbox><div class = fixation>+</div></div>	none	500.0	test	n/a	n/a	n/a	n/a	n/a	n/a	n/a	n/a	n/a	n/a	n/a	n/a	n/a	n/a	n/a	n/a	n/a	n/a	n/a	fixation
105063.63322011963	650.0	n/a	-1	-1	2750	40.3667798805	stim	stop-signal	636	1751380	0.0-25.22-1.22	beast_fmri_test	119	n/a	n/a	<img class = center src='/static/experiments/beast_fmri_test/images/D.png'></img>	89,71	2750.0	test	<img class = center src='/static/experiments/beast_fmri_test/images/redD.png'></img>	stop	2100.0	2.0	22.0	stop	non-target	D	89,Yellow Button	71,Green Button	950.0	650.0	1800.0	2100.0	0.0	1.0	650.0	0.0	n/a	go_stim
107163.63322011963	2100.0	n/a	-1	-1	2750	40.3667798805	stim	stop-signal	636	1751380	0.0-25.22-1.22	beast_fmri_test	119	n/a	n/a	<img class = center src='/static/experiments/beast_fmri_test/images/D.png'></img>	89,71	2750.0	test	<img class = center src='/static/experiments/beast_fmri_test/images/redD.png'></img>	stop	2100.0	2.0	22.0	stop	non-target	D	89,Yellow Button	71,Green Button	950.0	650.0	1800.0	2100.0	0.0	1.0	650.0	0.0	n/a	stop_stim
107813.63322011963	40.3667798805	n/a	-1	-1	2750	40.3667798805	stim	stop-signal	636	1751380	0.0-25.22-1.22	beast_fmri_test	119	n/a	n/a	<img class = center src='/static/experiments/beast_fmri_test/images/D.png'></img>	89,71	2750.0	test	<img class = center src='/static/experiments/beast_fmri_test/images/redD.png'></img>	stop	2100.0	2.0	22.0	stop	non-target	D	89,Yellow Button	71,Green Button	950.0	650.0	1800.0	2100.0	0.0	1.0	650.0	0.0	n/a	ITI
108416	500.0	n/a	-1	-1	500	0.0	fixation	poldrack-single-stim	637	1751942	0.0-25.23-0.23	beast_fmri_test	119	n/a	n/a	<div class = centerbox><div class = fixation>+</div></div>	none	500.0	test	n/a	n/a	n/a	n/a	n/a	n/a	n/a	n/a	n/a	n/a	n/a	n/a	n/a	n/a	n/a	n/a	n/a	n/a	n/a	fixation
108409.04416912352	2750.0	n/a	1226	89	2750	9.95583087642	stim	stop-signal	638	1754695	0.0-25.23-1.23	beast_fmri_test	119	n/a	n/a	<img class = center src='/static/experiments/beast_fmri_test/images/B.png'></img>	89,71	2750.0	test	<img class = center src='/static/experiments/beast_fmri_test/images/redB.png'></img>	go	2050.0	2.0	23.0	go	non-target	B	89,Yellow Button	71,Green Button	950.0	700.0	1800.0	2050.0	0.0	n/a	700.0	0.0	n/a	go_stim
111159.04416912352	9.95583087642	n/a	1226	89	2750	9.95583087642	stim	stop-signal	638	1754695	0.0-25.23-1.23	beast_fmri_test	119	n/a	n/a	<img class = center src='/static/experiments/beast_fmri_test/images/B.png'></img>	89,71	2750.0	test	<img class = center src='/static/experiments/beast_fmri_test/images/redB.png'></img>	go	2050.0	2.0	23.0	go	non-target	B	89,Yellow Button	71,Green Button	950.0	700.0	1800.0	2050.0	0.0	n/a	700.0	0.0	n/a	ITI
111698	500.0	n/a	-1	-1	500	0.0	fixation	poldrack-single-stim	639	1755224	0.0-25.24-0.24	beast_fmri_test	119	n/a	n/a	<div class = centerbox><div class = fixation>+</div></div>	none	500.0	test	n/a	n/a	n/a	n/a	n/a	n/a	n/a	n/a	n/a	n/a	n/a	n/a	n/a	n/a	n/a	n/a	n/a	n/a	n/a	fixation
111543.09366434859	2750.0	n/a	2362	71	2750	157.906335651	stim	stop-signal	640	1757977	0.0-25.24-1.24	beast_fmri_test	119	n/a	n/a	<img class = center src='/static/experiments/beast_fmri_test/images/P.png'></img>	89,71	2750.0	test	<img class = center src='/static/experiments/beast_fmri_test/images/redP.png'></img>	go	2050.0	2.0	24.0	go	non-target	P	89,Yellow Button	71,Green Button	950.0	700.0	1800.0	2050.0	1.0	n/a	700.0	1.0	n/a	go_stim
114293.09366434859	157.906335651	n/a	2362	71	2750	157.906335651	stim	stop-signal	640	1757977	0.0-25.24-1.24	beast_fmri_test	119	n/a	n/a	<img class = center src='/static/experiments/beast_fmri_test/images/P.png'></img>	89,71	2750.0	test	<img class = center src='/static/experiments/beast_fmri_test/images/redP.png'></img>	go	2050.0	2.0	24.0	go	non-target	P	89,Yellow Button	71,Green Button	950.0	700.0	1800.0	2050.0	1.0	n/a	700.0	1.0	n/a	ITI
115128	500.0	n/a	-1	-1	500	0.0	fixation	poldrack-single-stim	641	1758654	0.0-25.25-0.25	beast_fmri_test	119	n/a	n/a	<div class = centerbox><div class = fixation>+</div></div>	none	500.0	test	n/a	n/a	n/a	n/a	n/a	n/a	n/a	n/a	n/a	n/a	n/a	n/a	n/a	n/a	n/a	n/a	n/a	n/a	n/a	fixation
112998.05034180777	2750.0	n/a	1467	89	2750	2131.94965819	stim	stop-signal	642	1761406	0.0-25.25-1.25	beast_fmri_test	119	n/a	n/a	<img class = center src='/static/experiments/beast_fmri_test/images/V.png'></img>	89,71	2750.0	test	<img class = center src='/static/experiments/beast_fmri_test/images/redV.png'></img>	go	2050.0	2.0	25.0	go	non-target	V	89,Yellow Button	71,Green Button	950.0	700.0	1800.0	2050.0	0.0	n/a	700.0	0.0	n/a	go_stim
115748.05034180777	2131.94965819	n/a	1467	89	2750	2131.94965819	stim	stop-signal	642	1761406	0.0-25.25-1.25	beast_fmri_test	119	n/a	n/a	<img class = center src='/static/experiments/beast_fmri_test/images/V.png'></img>	89,71	2750.0	test	<img class = center src='/static/experiments/beast_fmri_test/images/redV.png'></img>	go	2050.0	2.0	25.0	go	non-target	V	89,Yellow Button	71,Green Button	950.0	700.0	1800.0	2050.0	0.0	n/a	700.0	0.0	n/a	ITI
120532	500.0	n/a	-1	-1	500	0.0	fixation	poldrack-single-stim	643	1764058	0.0-25.26-0.26	beast_fmri_test	119	n/a	n/a	<div class = centerbox><div class = fixation>+</div></div>	none	500.0	test	n/a	n/a	n/a	n/a	n/a	n/a	n/a	n/a	n/a	n/a	n/a	n/a	n/a	n/a	n/a	n/a	n/a	n/a	n/a	fixation
120401.3480957991	2750.0	n/a	960	71	2750	131.651904201	stim	stop-signal	644	1766809	0.0-25.26-1.26	beast_fmri_test	119	n/a	n/a	<img class = center src='/static/experiments/beast_fmri_test/images/T.png'></img>	89,71	2750.0	test	<img class = center src='/static/experiments/beast_fmri_test/images/redT.png'></img>	go	2050.0	2.0	26.0	go	non-target	T	89,Yellow Button	71,Green Button	950.0	700.0	1800.0	2050.0	1.0	n/a	700.0	1.0	n/a	go_stim
123151.3480957991	131.651904201	n/a	960	71	2750	131.651904201	stim	stop-signal	644	1766809	0.0-25.26-1.26	beast_fmri_test	119	n/a	n/a	<img class = center src='/static/experiments/beast_fmri_test/images/T.png'></img>	89,71	2750.0	test	<img class = center src='/static/experiments/beast_fmri_test/images/redT.png'></img>	go	2050.0	2.0	26.0	go	non-target	T	89,Yellow Button	71,Green Button	950.0	700.0	1800.0	2050.0	1.0	n/a	700.0	1.0	n/a	ITI
123936	500.0	n/a	-1	-1	500	0.0	fixation	poldrack-single-stim	645	1767462	0.0-25.27-0.27	beast_fmri_test	119	n/a	n/a	<div class = centerbox><div class = fixation>+</div></div>	none	500.0	test	n/a	n/a	n/a	n/a	n/a	n/a	n/a	n/a	n/a	n/a	n/a	n/a	n/a	n/a	n/a	n/a	n/a	n/a	n/a	fixation
123231.34978584037	2750.0	n/a	2166	71	2750	706.65021416	stim	stop-signal	646	1770214	0.0-25.27-1.27	beast_fmri_test	119	n/a	n/a	<img class = center src='/static/experiments/beast_fmri_test/images/V.png'></img>	89,71	2750.0	test	<img class = center src='/static/experiments/beast_fmri_test/images/redV.png'></img>	go	1800.0	2.0	27.0	go	target	V	89,Yellow Button	71,Green Button	950.0	700.0	1800.0	2050.0	0.0	n/a	950.0	0.0	n/a	go_stim
125981.34978584037	706.65021416	n/a	2166	71	2750	706.65021416	stim	stop-signal	646	1770214	0.0-25.27-1.27	beast_fmri_test	119	n/a	n/a	<img class = center src='/static/experiments/beast_fmri_test/images/V.png'></img>	89,71	2750.0	test	<img class = center src='/static/experiments/beast_fmri_test/images/redV.png'></img>	go	1800.0	2.0	27.0	go	target	V	89,Yellow Button	71,Green Button	950.0	700.0	1800.0	2050.0	0.0	n/a	950.0	0.0	n/a	ITI
127916	500.0	n/a	-1	-1	500	0.0	fixation	poldrack-single-stim	647	1771442	0.0-25.28-0.28	beast_fmri_test	119	n/a	n/a	<div class = centerbox><div class = fixation>+</div></div>	none	500.0	test	n/a	n/a	n/a	n/a	n/a	n/a	n/a	n/a	n/a	n/a	n/a	n/a	n/a	n/a	n/a	n/a	n/a	n/a	n/a	fixation
127728.87632336048	2750.0	n/a	1922	89	2750	189.12367664	stim	stop-signal	648	1774194	0.0-25.28-1.28	beast_fmri_test	119	n/a	n/a	<img class = center src='/static/experiments/beast_fmri_test/images/T.png'></img>	89,71	2750.0	test	<img class = center src='/static/experiments/beast_fmri_test/images/redT.png'></img>	go	1800.0	2.0	28.0	go	target	T	89,Yellow Button	71,Green Button	950.0	700.0	1800.0	2050.0	1.0	n/a	950.0	1.0	n/a	go_stim
130478.87632336048	189.12367664	n/a	1922	89	2750	189.12367664	stim	stop-signal	648	1774194	0.0-25.28-1.28	beast_fmri_test	119	n/a	n/a	<img class = center src='/static/experiments/beast_fmri_test/images/T.png'></img>	89,71	2750.0	test	<img class = center src='/static/experiments/beast_fmri_test/images/redT.png'></img>	go	1800.0	2.0	28.0	go	target	T	89,Yellow Button	71,Green Button	950.0	700.0	1800.0	2050.0	1.0	n/a	950.0	1.0	n/a	ITI
131379	500.0	n/a	-1	-1	500	0.0	fixation	poldrack-single-stim	649	1774905	0.0-25.29-0.29	beast_fmri_test	119	n/a	n/a	<div class = centerbox><div class = fixation>+</div></div>	none	500.0	test	n/a	n/a	n/a	n/a	n/a	n/a	n/a	n/a	n/a	n/a	n/a	n/a	n/a	n/a	n/a	n/a	n/a	n/a	n/a	fixation
129879.0343669604	700.0	n/a	908	71	2750	1501.96563304	stim	stop-signal	650	1777657	0.0-25.29-1.29	beast_fmri_test	119	n/a	n/a	<img class = center src='/static/experiments/beast_fmri_test/images/T.png'></img>	89,71	2750.0	test	<img class = center src='/static/experiments/beast_fmri_test/images/redT.png'></img>	stop	2050.0	2.0	29.0	stop	non-target	T	89,Yellow Button	71,Green Button	950.0	700.0	1800.0	2050.0	0.0	0.0	700.0	1.0	n/a	go_stim
131929.0343669604	2050.0	n/a	908	71	2750	1501.96563304	stim	stop-signal	650	1777657	0.0-25.29-1.29	beast_fmri_test	119	n/a	n/a	<img class = center src='/static/experiments/beast_fmri_test/images/T.png'></img>	89,71	2750.0	test	<img class = center src='/static/experiments/beast_fmri_test/images/redT.png'></img>	stop	2050.0	2.0	29.0	stop	non-target	T	89,Yellow Button	71,Green Button	950.0	700.0	1800.0	2050.0	0.0	0.0	700.0	1.0	n/a	stop_stim
132629.0343669604	1501.96563304	n/a	908	71	2750	1501.96563304	stim	stop-signal	650	1777657	0.0-25.29-1.29	beast_fmri_test	119	n/a	n/a	<img class = center src='/static/experiments/beast_fmri_test/images/T.png'></img>	89,71	2750.0	test	<img class = center src='/static/experiments/beast_fmri_test/images/redT.png'></img>	stop	2050.0	2.0	29.0	stop	non-target	T	89,Yellow Button	71,Green Button	950.0	700.0	1800.0	2050.0	0.0	0.0	700.0	1.0	n/a	ITI
136155	500.0	n/a	-1	-1	500	0.0	fixation	poldrack-single-stim	651	1779681	0.0-25.30-0.30	beast_fmri_test	119	n/a	n/a	<div class = centerbox><div class = fixation>+</div></div>	none	500.0	test	n/a	n/a	n/a	n/a	n/a	n/a	n/a	n/a	n/a	n/a	n/a	n/a	n/a	n/a	n/a	n/a	n/a	n/a	n/a	fixation
135569.1459048586	2750.0	n/a	1488	89	2750	587.854095141	stim	stop-signal	652	1782433	0.0-25.30-1.30	beast_fmri_test	119	n/a	n/a	<img class = center src='/static/experiments/beast_fmri_test/images/T.png'></img>	89,71	2750.0	test	<img class = center src='/static/experiments/beast_fmri_test/images/redT.png'></img>	go	1800.0	2.0	30.0	go	target	T	89,Yellow Button	71,Green Button	950.0	650.0	1800.0	2050.0	1.0	n/a	950.0	1.0	n/a	go_stim
138319.1459048586	587.854095141	n/a	1488	89	2750	587.854095141	stim	stop-signal	652	1782433	0.0-25.30-1.30	beast_fmri_test	119	n/a	n/a	<img class = center src='/static/experiments/beast_fmri_test/images/T.png'></img>	89,71	2750.0	test	<img class = center src='/static/experiments/beast_fmri_test/images/redT.png'></img>	go	1800.0	2.0	30.0	go	target	T	89,Yellow Button	71,Green Button	950.0	650.0	1800.0	2050.0	1.0	n/a	950.0	1.0	n/a	ITI
140016	500.0	n/a	-1	-1	500	0.0	fixation	poldrack-single-stim	653	1783542	0.0-25.31-0.31	beast_fmri_test	119	n/a	n/a	<div class = centerbox><div class = fixation>+</div></div>	none	500.0	test	n/a	n/a	n/a	n/a	n/a	n/a	n/a	n/a	n/a	n/a	n/a	n/a	n/a	n/a	n/a	n/a	n/a	n/a	n/a	fixation
138139.17251454107	2750.0	n/a	900	89	2750	1878.82748546	stim	stop-signal	654	1786294	0.0-25.31-1.31	beast_fmri_test	119	n/a	n/a	<img class = center src='/static/experiments/beast_fmri_test/images/T.png'></img>	89,71	2750.0	test	<img class = center src='/static/experiments/beast_fmri_test/images/redT.png'></img>	go	1800.0	2.0	31.0	go	target	T	89,Yellow Button	71,Green Button	950.0	650.0	1800.0	2050.0	1.0	n/a	950.0	1.0	n/a	go_stim
140889.17251454107	1878.82748546	n/a	900	89	2750	1878.82748546	stim	stop-signal	654	1786294	0.0-25.31-1.31	beast_fmri_test	119	n/a	n/a	<img class = center src='/static/experiments/beast_fmri_test/images/T.png'></img>	89,71	2750.0	test	<img class = center src='/static/experiments/beast_fmri_test/images/redT.png'></img>	go	1800.0	2.0	31.0	go	target	T	89,Yellow Button	71,Green Button	950.0	650.0	1800.0	2050.0	1.0	n/a	950.0	1.0	n/a	ITI
145168	500.0	n/a	-1	-1	500	0.0	fixation	poldrack-single-stim	655	1788694	0.0-25.32-0.32	beast_fmri_test	119	n/a	n/a	<div class = centerbox><div class = fixation>+</div></div>	none	500.0	test	n/a	n/a	n/a	n/a	n/a	n/a	n/a	n/a	n/a	n/a	n/a	n/a	n/a	n/a	n/a	n/a	n/a	n/a	n/a	fixation
143964.42698338837	2750.0	n/a	1391	71	2750	1205.57301661	stim	stop-signal	656	1791446	0.0-25.32-1.32	beast_fmri_test	119	n/a	n/a	<img class = center src='/static/experiments/beast_fmri_test/images/V.png'></img>	89,71	2750.0	test	<img class = center src='/static/experiments/beast_fmri_test/images/redV.png'></img>	go	2100.0	2.0	32.0	go	non-target	V	89,Yellow Button	71,Green Button	950.0	650.0	1800.0	2100.0	1.0	n/a	650.0	1.0	n/a	go_stim
146714.42698338837	1205.57301661	n/a	1391	71	2750	1205.57301661	stim	stop-signal	656	1791446	0.0-25.32-1.32	beast_fmri_test	119	n/a	n/a	<img class = center src='/static/experiments/beast_fmri_test/images/V.png'></img>	89,71	2750.0	test	<img class = center src='/static/experiments/beast_fmri_test/images/redV.png'></img>	go	2100.0	2.0	32.0	go	non-target	V	89,Yellow Button	71,Green Button	950.0	650.0	1800.0	2100.0	1.0	n/a	650.0	1.0	n/a	ITI
149647	500.0	n/a	-1	-1	500	0.0	fixation	poldrack-single-stim	657	1793173	0.0-25.33-0.33	beast_fmri_test	119	n/a	n/a	<div class = centerbox><div class = fixation>+</div></div>	none	500.0	test	n/a	n/a	n/a	n/a	n/a	n/a	n/a	n/a	n/a	n/a	n/a	n/a	n/a	n/a	n/a	n/a	n/a	n/a	n/a	fixation
148096.6196045496	2750.0	n/a	720	89	2750	1553.38039545	stim	stop-signal	658	1795926	0.0-25.33-1.33	beast_fmri_test	119	n/a	n/a	<img class = center src='/static/experiments/beast_fmri_test/images/T.png'></img>	89,71	2750.0	test	<img class = center src='/static/experiments/beast_fmri_test/images/redT.png'></img>	go	1800.0	2.0	33.0	go	target	T	89,Yellow Button	71,Green Button	950.0	650.0	1800.0	2100.0	1.0	n/a	950.0	1.0	n/a	go_stim
150846.6196045496	1553.38039545	n/a	720	89	2750	1553.38039545	stim	stop-signal	658	1795926	0.0-25.33-1.33	beast_fmri_test	119	n/a	n/a	<img class = center src='/static/experiments/beast_fmri_test/images/T.png'></img>	89,71	2750.0	test	<img class = center src='/static/experiments/beast_fmri_test/images/redT.png'></img>	go	1800.0	2.0	33.0	go	target	T	89,Yellow Button	71,Green Button	950.0	650.0	1800.0	2100.0	1.0	n/a	950.0	1.0	n/a	ITI
154476	500.0	n/a	-1	-1	500	0.0	fixation	poldrack-single-stim	659	1798002	0.0-25.34-0.34	beast_fmri_test	119	n/a	n/a	<div class = centerbox><div class = fixation>+</div></div>	none	500.0	test	n/a	n/a	n/a	n/a	n/a	n/a	n/a	n/a	n/a	n/a	n/a	n/a	n/a	n/a	n/a	n/a	n/a	n/a	n/a	fixation
151314.76429653214	650.0	n/a	754	71	2750	3164.23570347	stim	stop-signal	660	1800755	0.0-25.34-1.34	beast_fmri_test	119	n/a	n/a	<img class = center src='/static/experiments/beast_fmri_test/images/D.png'></img>	89,71	2750.0	test	<img class = center src='/static/experiments/beast_fmri_test/images/redD.png'></img>	stop	2100.0	2.0	34.0	stop	non-target	D	89,Yellow Button	71,Green Button	950.0	650.0	1800.0	2100.0	0.0	0.0	650.0	1.0	n/a	go_stim
153414.76429653214	2100.0	n/a	754	71	2750	3164.23570347	stim	stop-signal	660	1800755	0.0-25.34-1.34	beast_fmri_test	119	n/a	n/a	<img class = center src='/static/experiments/beast_fmri_test/images/D.png'></img>	89,71	2750.0	test	<img class = center src='/static/experiments/beast_fmri_test/images/redD.png'></img>	stop	2100.0	2.0	34.0	stop	non-target	D	89,Yellow Button	71,Green Button	950.0	650.0	1800.0	2100.0	0.0	0.0	650.0	1.0	n/a	stop_stim
154064.76429653214	3164.23570347	n/a	754	71	2750	3164.23570347	stim	stop-signal	660	1800755	0.0-25.34-1.34	beast_fmri_test	119	n/a	n/a	<img class = center src='/static/experiments/beast_fmri_test/images/D.png'></img>	89,71	2750.0	test	<img class = center src='/static/experiments/beast_fmri_test/images/redD.png'></img>	stop	2100.0	2.0	34.0	stop	non-target	D	89,Yellow Button	71,Green Button	950.0	650.0	1800.0	2100.0	0.0	0.0	650.0	1.0	n/a	ITI
160915	500.0	n/a	-1	-1	500	0.0	fixation	poldrack-single-stim	661	1804441	0.0-25.35-0.35	beast_fmri_test	119	n/a	n/a	<div class = centerbox><div class = fixation>+</div></div>	none	500.0	test	n/a	n/a	n/a	n/a	n/a	n/a	n/a	n/a	n/a	n/a	n/a	n/a	n/a	n/a	n/a	n/a	n/a	n/a	n/a	fixation
160767.57190138591	2750.0	n/a	966	71	2750	149.428098614	stim	stop-signal	662	1807193	0.0-25.35-1.35	beast_fmri_test	119	n/a	n/a	<img class = center src='/static/experiments/beast_fmri_test/images/P.png'></img>	89,71	2750.0	test	<img class = center src='/static/experiments/beast_fmri_test/images/redP.png'></img>	go	2150.0	2.0	35.0	go	non-target	P	89,Yellow Button	71,Green Button	950.0	600.0	1800.0	2150.0	1.0	n/a	600.0	1.0	n/a	go_stim
163517.57190138591	149.428098614	n/a	966	71	2750	149.428098614	stim	stop-signal	662	1807193	0.0-25.35-1.35	beast_fmri_test	119	n/a	n/a	<img class = center src='/static/experiments/beast_fmri_test/images/P.png'></img>	89,71	2750.0	test	<img class = center src='/static/experiments/beast_fmri_test/images/redP.png'></img>	go	2150.0	2.0	35.0	go	non-target	P	89,Yellow Button	71,Green Button	950.0	600.0	1800.0	2150.0	1.0	n/a	600.0	1.0	n/a	ITI
164336	500.0	n/a	-1	-1	500	0.0	fixation	poldrack-single-stim	663	1807862	0.0-25.36-0.36	beast_fmri_test	119	n/a	n/a	<div class = centerbox><div class = fixation>+</div></div>	none	500.0	test	n/a	n/a	n/a	n/a	n/a	n/a	n/a	n/a	n/a	n/a	n/a	n/a	n/a	n/a	n/a	n/a	n/a	n/a	n/a	fixation
163891.90372659964	2750.0	n/a	1306	71	2750	447.0962734	stim	stop-signal	664	1810615	0.0-25.36-1.36	beast_fmri_test	119	1808767,/	t	<img class = center src='/static/experiments/beast_fmri_test/images/B.png'></img>	89,71	2750.0	test	<img class = center src='/static/experiments/beast_fmri_test/images/redB.png'></img>	go	2150.0	2.0	36.0	go	non-target	B	89,Yellow Button	71,Green Button	950.0	600.0	1800.0	2150.0	1.0	n/a	600.0	1.0	n/a	go_stim
166641.90372659964	447.0962734	n/a	1306	71	2750	447.0962734	stim	stop-signal	664	1810615	0.0-25.36-1.36	beast_fmri_test	119	1808767,/	t	<img class = center src='/static/experiments/beast_fmri_test/images/B.png'></img>	89,71	2750.0	test	<img class = center src='/static/experiments/beast_fmri_test/images/redB.png'></img>	go	2150.0	2.0	36.0	go	non-target	B	89,Yellow Button	71,Green Button	950.0	600.0	1800.0	2150.0	1.0	n/a	600.0	1.0	n/a	ITI
168056	500.0	n/a	-1	-1	500	0.0	fixation	poldrack-single-stim	665	1811582	0.0-25.37-0.37	beast_fmri_test	119	n/a	n/a	<div class = centerbox><div class = fixation>+</div></div>	none	500.0	test	n/a	n/a	n/a	n/a	n/a	n/a	n/a	n/a	n/a	n/a	n/a	n/a	n/a	n/a	n/a	n/a	n/a	n/a	n/a	fixation
167890.62690569833	2750.0	n/a	752	89	2750	167.373094302	stim	stop-signal	666	1814334	0.0-25.37-1.37	beast_fmri_test	119	n/a	n/a	<img class = center src='/static/experiments/beast_fmri_test/images/D.png'></img>	89,71	2750.0	test	<img class = center src='/static/experiments/beast_fmri_test/images/redD.png'></img>	go	2150.0	2.0	37.0	go	non-target	D	89,Yellow Button	71,Green Button	950.0	600.0	1800.0	2150.0	0.0	n/a	600.0	0.0	n/a	go_stim
170640.62690569833	167.373094302	n/a	752	89	2750	167.373094302	stim	stop-signal	666	1814334	0.0-25.37-1.37	beast_fmri_test	119	n/a	n/a	<img class = center src='/static/experiments/beast_fmri_test/images/D.png'></img>	89,71	2750.0	test	<img class = center src='/static/experiments/beast_fmri_test/images/redD.png'></img>	go	2150.0	2.0	37.0	go	non-target	D	89,Yellow Button	71,Green Button	950.0	600.0	1800.0	2150.0	0.0	n/a	600.0	0.0	n/a	ITI
171496	500.0	n/a	-1	-1	500	0.0	fixation	poldrack-single-stim	667	1815022	0.0-25.38-0.38	beast_fmri_test	119	n/a	n/a	<div class = centerbox><div class = fixation>+</div></div>	none	500.0	test	n/a	n/a	n/a	n/a	n/a	n/a	n/a	n/a	n/a	n/a	n/a	n/a	n/a	n/a	n/a	n/a	n/a	n/a	n/a	fixation
168005.62537846994	950.0	n/a	1243	71	2750	3492.37462153	stim	stop-signal	668	1817774	0.0-25.38-1.38	beast_fmri_test	119	n/a	n/a	<img class = center src='/static/experiments/beast_fmri_test/images/B.png'></img>	89,71	2750.0	test	<img class = center src='/static/experiments/beast_fmri_test/images/redB.png'></img>	stop	1800.0	2.0	38.0	stop	target	B	89,Yellow Button	71,Green Button	950.0	600.0	1800.0	2150.0	0.0	0.0	950.0	0.0	n/a	go_stim
169805.62537846994	1800.0	n/a	1243	71	2750	3492.37462153	stim	stop-signal	668	1817774	0.0-25.38-1.38	beast_fmri_test	119	n/a	n/a	<img class = center src='/static/experiments/beast_fmri_test/images/B.png'></img>	89,71	2750.0	test	<img class = center src='/static/experiments/beast_fmri_test/images/redB.png'></img>	stop	1800.0	2.0	38.0	stop	target	B	89,Yellow Button	71,Green Button	950.0	600.0	1800.0	2150.0	0.0	0.0	950.0	0.0	n/a	stop_stim
170755.62537846994	3492.37462153	n/a	1243	71	2750	3492.37462153	stim	stop-signal	668	1817774	0.0-25.38-1.38	beast_fmri_test	119	n/a	n/a	<img class = center src='/static/experiments/beast_fmri_test/images/B.png'></img>	89,71	2750.0	test	<img class = center src='/static/experiments/beast_fmri_test/images/redB.png'></img>	stop	1800.0	2.0	38.0	stop	target	B	89,Yellow Button	71,Green Button	950.0	600.0	1800.0	2150.0	0.0	0.0	950.0	0.0	n/a	ITI
178262	500.0	n/a	-1	-1	500	0.0	fixation	poldrack-single-stim	669	1821788	0.0-25.39-0.39	beast_fmri_test	119	n/a	n/a	<div class = centerbox><div class = fixation>+</div></div>	none	500.0	test	n/a	n/a	n/a	n/a	n/a	n/a	n/a	n/a	n/a	n/a	n/a	n/a	n/a	n/a	n/a	n/a	n/a	n/a	n/a	fixation
178190.15850556805	600.0	n/a	679	89	2750	73.841494432	stim	stop-signal	670	1824540	0.0-25.39-1.39	beast_fmri_test	119	1822368,/	t	<img class = center src='/static/experiments/beast_fmri_test/images/B.png'></img>	89,71	2750.0	test	<img class = center src='/static/experiments/beast_fmri_test/images/redB.png'></img>	stop	2150.0	2.0	39.0	stop	non-target	B	89,Yellow Button	71,Green Button	900.0	600.0	1800.0	2150.0	0.0	0.0	600.0	0.0	n/a	go_stim
180340.15850556805	2150.0	n/a	679	89	2750	73.841494432	stim	stop-signal	670	1824540	0.0-25.39-1.39	beast_fmri_test	119	1822368,/	t	<img class = center src='/static/experiments/beast_fmri_test/images/B.png'></img>	89,71	2750.0	test	<img class = center src='/static/experiments/beast_fmri_test/images/redB.png'></img>	stop	2150.0	2.0	39.0	stop	non-target	B	89,Yellow Button	71,Green Button	900.0	600.0	1800.0	2150.0	0.0	0.0	600.0	0.0	n/a	stop_stim
180940.15850556805	73.841494432	n/a	679	89	2750	73.841494432	stim	stop-signal	670	1824540	0.0-25.39-1.39	beast_fmri_test	119	1822368,/	t	<img class = center src='/static/experiments/beast_fmri_test/images/B.png'></img>	89,71	2750.0	test	<img class = center src='/static/experiments/beast_fmri_test/images/redB.png'></img>	stop	2150.0	2.0	39.0	stop	non-target	B	89,Yellow Button	71,Green Button	900.0	600.0	1800.0	2150.0	0.0	0.0	600.0	0.0	n/a	ITI
181608	500.0	n/a	-1	-1	500	0.0	fixation	poldrack-single-stim	671	1825134	0.0-25.40-0.40	beast_fmri_test	119	n/a	n/a	<div class = centerbox><div class = fixation>+</div></div>	none	500.0	test	n/a	n/a	n/a	n/a	n/a	n/a	n/a	n/a	n/a	n/a	n/a	n/a	n/a	n/a	n/a	n/a	n/a	n/a	n/a	fixation
181068.95117967832	900.0	n/a	-1	-1	2750	541.048820322	stim	stop-signal	672	1827886	0.0-25.40-1.40	beast_fmri_test	119	n/a	n/a	<img class = center src='/static/experiments/beast_fmri_test/images/B.png'></img>	89,71	2750.0	test	<img class = center src='/static/experiments/beast_fmri_test/images/redB.png'></img>	stop	1850.0	2.0	40.0	stop	target	B	89,Yellow Button	71,Green Button	900.0	550.0	1850.0	2150.0	0.0	1.0	900.0	0.0	n/a	go_stim
182918.95117967832	1850.0	n/a	-1	-1	2750	541.048820322	stim	stop-signal	672	1827886	0.0-25.40-1.40	beast_fmri_test	119	n/a	n/a	<img class = center src='/static/experiments/beast_fmri_test/images/B.png'></img>	89,71	2750.0	test	<img class = center src='/static/experiments/beast_fmri_test/images/redB.png'></img>	stop	1850.0	2.0	40.0	stop	target	B	89,Yellow Button	71,Green Button	900.0	550.0	1850.0	2150.0	0.0	1.0	900.0	0.0	n/a	stop_stim
183818.95117967832	541.048820322	n/a	-1	-1	2750	541.048820322	stim	stop-signal	672	1827886	0.0-25.40-1.40	beast_fmri_test	119	n/a	n/a	<img class = center src='/static/experiments/beast_fmri_test/images/B.png'></img>	89,71	2750.0	test	<img class = center src='/static/experiments/beast_fmri_test/images/redB.png'></img>	stop	1850.0	2.0	40.0	stop	target	B	89,Yellow Button	71,Green Button	900.0	550.0	1850.0	2150.0	0.0	1.0	900.0	0.0	n/a	ITI
185420	500.0	n/a	-1	-1	500	0.0	fixation	poldrack-single-stim	673	1828946	0.0-25.41-0.41	beast_fmri_test	119	n/a	n/a	<div class = centerbox><div class = fixation>+</div></div>	none	500.0	test	n/a	n/a	n/a	n/a	n/a	n/a	n/a	n/a	n/a	n/a	n/a	n/a	n/a	n/a	n/a	n/a	n/a	n/a	n/a	fixation
184248.12721082824	2750.0	n/a	847	71	2750	1173.87278917	stim	stop-signal	674	1831698	0.0-25.41-1.41	beast_fmri_test	119	n/a	n/a	<img class = center src='/static/experiments/beast_fmri_test/images/T.png'></img>	89,71	2750.0	test	<img class = center src='/static/experiments/beast_fmri_test/images/redT.png'></img>	go	2200.0	2.0	41.0	go	non-target	T	89,Yellow Button	71,Green Button	950.0	550.0	1850.0	2200.0	1.0	n/a	550.0	1.0	n/a	go_stim
186998.12721082824	1173.87278917	n/a	847	71	2750	1173.87278917	stim	stop-signal	674	1831698	0.0-25.41-1.41	beast_fmri_test	119	n/a	n/a	<img class = center src='/static/experiments/beast_fmri_test/images/T.png'></img>	89,71	2750.0	test	<img class = center src='/static/experiments/beast_fmri_test/images/redT.png'></img>	go	2200.0	2.0	41.0	go	non-target	T	89,Yellow Button	71,Green Button	950.0	550.0	1850.0	2200.0	1.0	n/a	550.0	1.0	n/a	ITI
189864	500.0	n/a	-1	-1	500	0.0	fixation	poldrack-single-stim	675	1833390	0.0-25.42-0.42	beast_fmri_test	119	n/a	n/a	<div class = centerbox><div class = fixation>+</div></div>	none	500.0	test	n/a	n/a	n/a	n/a	n/a	n/a	n/a	n/a	n/a	n/a	n/a	n/a	n/a	n/a	n/a	n/a	n/a	n/a	n/a	fixation
189264.95571828005	550.0	n/a	1030	71	2750	601.04428172	stim	stop-signal	676	1836142	0.0-25.42-1.42	beast_fmri_test	119	n/a	n/a	<img class = center src='/static/experiments/beast_fmri_test/images/V.png'></img>	89,71	2750.0	test	<img class = center src='/static/experiments/beast_fmri_test/images/redV.png'></img>	stop	2200.0	2.0	42.0	stop	non-target	V	89,Yellow Button	71,Green Button	950.0	550.0	1850.0	2200.0	0.0	0.0	550.0	1.0	n/a	go_stim
191464.95571828005	2200.0	n/a	1030	71	2750	601.04428172	stim	stop-signal	676	1836142	0.0-25.42-1.42	beast_fmri_test	119	n/a	n/a	<img class = center src='/static/experiments/beast_fmri_test/images/V.png'></img>	89,71	2750.0	test	<img class = center src='/static/experiments/beast_fmri_test/images/redV.png'></img>	stop	2200.0	2.0	42.0	stop	non-target	V	89,Yellow Button	71,Green Button	950.0	550.0	1850.0	2200.0	0.0	0.0	550.0	1.0	n/a	stop_stim
192014.95571828005	601.04428172	n/a	1030	71	2750	601.04428172	stim	stop-signal	676	1836142	0.0-25.42-1.42	beast_fmri_test	119	n/a	n/a	<img class = center src='/static/experiments/beast_fmri_test/images/V.png'></img>	89,71	2750.0	test	<img class = center src='/static/experiments/beast_fmri_test/images/redV.png'></img>	stop	2200.0	2.0	42.0	stop	non-target	V	89,Yellow Button	71,Green Button	950.0	550.0	1850.0	2200.0	0.0	0.0	550.0	1.0	n/a	ITI
193738	500.0	n/a	-1	-1	500	0.0	fixation	poldrack-single-stim	677	1837264	0.0-25.43-0.43	beast_fmri_test	119	n/a	n/a	<div class = centerbox><div class = fixation>+</div></div>	none	500.0	test	n/a	n/a	n/a	n/a	n/a	n/a	n/a	n/a	n/a	n/a	n/a	n/a	n/a	n/a	n/a	n/a	n/a	n/a	n/a	fixation
193333.55732571613	2750.0	n/a	-1	-1	2750	405.442674284	stim	stop-signal	678	1840015	0.0-25.43-1.43	beast_fmri_test	119	n/a	n/a	<img class = center src='/static/experiments/beast_fmri_test/images/V.png'></img>	89,71	2750.0	test	<img class = center src='/static/experiments/beast_fmri_test/images/redV.png'></img>	go	2250.0	2.0	43.0	go	non-target	V	89,Yellow Button	71,Green Button	950.0	500.0	1850.0	2250.0	0.0	n/a	500.0	0.0	n/a	go_stim
196083.55732571613	405.442674284	n/a	-1	-1	2750	405.442674284	stim	stop-signal	678	1840015	0.0-25.43-1.43	beast_fmri_test	119	n/a	n/a	<img class = center src='/static/experiments/beast_fmri_test/images/V.png'></img>	89,71	2750.0	test	<img class = center src='/static/experiments/beast_fmri_test/images/redV.png'></img>	go	2250.0	2.0	43.0	go	non-target	V	89,Yellow Button	71,Green Button	950.0	500.0	1850.0	2250.0	0.0	n/a	500.0	0.0	n/a	ITI
197413	500.0	n/a	-1	-1	500	0.0	fixation	poldrack-single-stim	679	1840939	0.0-25.44-0.44	beast_fmri_test	119	n/a	n/a	<div class = centerbox><div class = fixation>+</div></div>	none	500.0	test	n/a	n/a	n/a	n/a	n/a	n/a	n/a	n/a	n/a	n/a	n/a	n/a	n/a	n/a	n/a	n/a	n/a	n/a	n/a	fixation
197146.28104568389	500.0	n/a	-1	-1	2750	268.718954316	stim	stop-signal	680	1843691	0.0-25.44-1.44	beast_fmri_test	119	n/a	n/a	<img class = center src='/static/experiments/beast_fmri_test/images/B.png'></img>	89,71	2750.0	test	<img class = center src='/static/experiments/beast_fmri_test/images/redB.png'></img>	stop	2250.0	2.0	44.0	stop	non-target	B	89,Yellow Button	71,Green Button	950.0	500.0	1850.0	2250.0	0.0	1.0	500.0	0.0	n/a	go_stim
199396.28104568389	2250.0	n/a	-1	-1	2750	268.718954316	stim	stop-signal	680	1843691	0.0-25.44-1.44	beast_fmri_test	119	n/a	n/a	<img class = center src='/static/experiments/beast_fmri_test/images/B.png'></img>	89,71	2750.0	test	<img class = center src='/static/experiments/beast_fmri_test/images/redB.png'></img>	stop	2250.0	2.0	44.0	stop	non-target	B	89,Yellow Button	71,Green Button	950.0	500.0	1850.0	2250.0	0.0	1.0	500.0	0.0	n/a	stop_stim
199896.28104568389	268.718954316	n/a	-1	-1	2750	268.718954316	stim	stop-signal	680	1843691	0.0-25.44-1.44	beast_fmri_test	119	n/a	n/a	<img class = center src='/static/experiments/beast_fmri_test/images/B.png'></img>	89,71	2750.0	test	<img class = center src='/static/experiments/beast_fmri_test/images/redB.png'></img>	stop	2250.0	2.0	44.0	stop	non-target	B	89,Yellow Button	71,Green Button	950.0	500.0	1850.0	2250.0	0.0	1.0	500.0	0.0	n/a	ITI
200952	500.0	n/a	-1	-1	500	0.0	fixation	poldrack-single-stim	681	1844478	0.0-25.45-0.45	beast_fmri_test	119	n/a	n/a	<div class = centerbox><div class = fixation>+</div></div>	none	500.0	test	n/a	n/a	n/a	n/a	n/a	n/a	n/a	n/a	n/a	n/a	n/a	n/a	n/a	n/a	n/a	n/a	n/a	n/a	n/a	fixation
200368.48874661396	550.0	n/a	-1	-1	2750	585.511253386	stim	stop-signal	682	1847230	0.0-25.45-1.45	beast_fmri_test	119	n/a	n/a	<img class = center src='/static/experiments/beast_fmri_test/images/T.png'></img>	89,71	2750.0	test	<img class = center src='/static/experiments/beast_fmri_test/images/redT.png'></img>	stop	2200.0	2.0	45.0	stop	non-target	T	89,Yellow Button	71,Green Button	950.0	550.0	1850.0	2200.0	0.0	1.0	550.0	0.0	n/a	go_stim
202568.48874661396	2200.0	n/a	-1	-1	2750	585.511253386	stim	stop-signal	682	1847230	0.0-25.45-1.45	beast_fmri_test	119	n/a	n/a	<img class = center src='/static/experiments/beast_fmri_test/images/T.png'></img>	89,71	2750.0	test	<img class = center src='/static/experiments/beast_fmri_test/images/redT.png'></img>	stop	2200.0	2.0	45.0	stop	non-target	T	89,Yellow Button	71,Green Button	950.0	550.0	1850.0	2200.0	0.0	1.0	550.0	0.0	n/a	stop_stim
203118.48874661396	585.511253386	n/a	-1	-1	2750	585.511253386	stim	stop-signal	682	1847230	0.0-25.45-1.45	beast_fmri_test	119	n/a	n/a	<img class = center src='/static/experiments/beast_fmri_test/images/T.png'></img>	89,71	2750.0	test	<img class = center src='/static/experiments/beast_fmri_test/images/redT.png'></img>	stop	2200.0	2.0	45.0	stop	non-target	T	89,Yellow Button	71,Green Button	950.0	550.0	1850.0	2200.0	0.0	1.0	550.0	0.0	n/a	ITI
204812	500.0	n/a	-1	-1	500	0.0	fixation	poldrack-single-stim	683	1848338	0.0-25.46-0.46	beast_fmri_test	119	n/a	n/a	<div class = centerbox><div class = fixation>+</div></div>	none	500.0	test	n/a	n/a	n/a	n/a	n/a	n/a	n/a	n/a	n/a	n/a	n/a	n/a	n/a	n/a	n/a	n/a	n/a	n/a	n/a	fixation
204377.52137316321	2750.0	n/a	787	71	2750	437.478626837	stim	stop-signal	684	1851091	0.0-25.46-1.46	beast_fmri_test	119	n/a	n/a	<img class = center src='/static/experiments/beast_fmri_test/images/V.png'></img>	89,71	2750.0	test	<img class = center src='/static/experiments/beast_fmri_test/images/redV.png'></img>	go	2150.0	2.0	46.0	go	non-target	V	89,Yellow Button	71,Green Button	950.0	600.0	1850.0	2150.0	1.0	n/a	600.0	1.0	n/a	go_stim
207127.52137316321	437.478626837	n/a	787	71	2750	437.478626837	stim	stop-signal	684	1851091	0.0-25.46-1.46	beast_fmri_test	119	n/a	n/a	<img class = center src='/static/experiments/beast_fmri_test/images/V.png'></img>	89,71	2750.0	test	<img class = center src='/static/experiments/beast_fmri_test/images/redV.png'></img>	go	2150.0	2.0	46.0	go	non-target	V	89,Yellow Button	71,Green Button	950.0	600.0	1850.0	2150.0	1.0	n/a	600.0	1.0	n/a	ITI
223019	15000.0	n/a	-1	-1	15000	0.0	practice-no-stop-feedback	poldrack-single-stim	685	1866545	0.0-26.0	beast_fmri_test	119	1865889,/	t	"<div class = ""centerbox""><p class = ""center-block-text"">Your delay is 1 trials.</p><p class = center-block-text>Please wait for the scanner to start the block</p></div>"	77	15000.0	n/a	n/a	n/a	n/a	n/a	n/a	n/a	n/a	n/a	n/a	n/a	n/a	n/a	n/a	n/a	n/a	n/a	n/a	n/a	n/a	practice-no-stop-feedback
223521	500.0	n/a	-1	-1	500	0.0	fixation	poldrack-single-stim	686	1867047	0.0-27.0-0.0	beast_fmri_test	119	n/a	n/a	<div class = centerbox><div class = fixation>+</div></div>	none	500.0	test	n/a	n/a	n/a	n/a	n/a	n/a	n/a	n/a	n/a	n/a	n/a	n/a	n/a	n/a	n/a	n/a	n/a	n/a	n/a	fixation
223011.43951754691	2750.0	n/a	1550	71	2750	511.560482453	stim	stop-signal	687	1869799	0.0-27.0-1.0	beast_fmri_test	119	n/a	n/a	<img class = center src='/static/experiments/beast_fmri_test/images/V.png'></img>	89,71	2750.0	test	<img class = center src='/static/experiments/beast_fmri_test/images/redV.png'></img>	go	-1.0	1.0	0.0	go	temp-non-target	V	89,Yellow Button	71,Green Button	950.0	600.0	1850.0	2150.0	0.0	n/a	n/a	n/a	n/a	go_stim
225761.43951754691	511.560482453	n/a	1550	71	2750	511.560482453	stim	stop-signal	687	1869799	0.0-27.0-1.0	beast_fmri_test	119	n/a	n/a	<img class = center src='/static/experiments/beast_fmri_test/images/V.png'></img>	89,71	2750.0	test	<img class = center src='/static/experiments/beast_fmri_test/images/redV.png'></img>	go	-1.0	1.0	0.0	go	temp-non-target	V	89,Yellow Button	71,Green Button	950.0	600.0	1850.0	2150.0	0.0	n/a	n/a	n/a	n/a	ITI
227307	500.0	n/a	-1	-1	500	0.0	fixation	poldrack-single-stim	688	1870833	0.0-27.1-0.1	beast_fmri_test	119	n/a	n/a	<div class = centerbox><div class = fixation>+</div></div>	none	500.0	test	n/a	n/a	n/a	n/a	n/a	n/a	n/a	n/a	n/a	n/a	n/a	n/a	n/a	n/a	n/a	n/a	n/a	n/a	n/a	fixation
227064.53676940105	600.0	n/a	600	71	2750	244.463230599	stim	stop-signal	689	1873585	0.0-27.1-1.1	beast_fmri_test	119	n/a	n/a	<img class = center src='/static/experiments/beast_fmri_test/images/D.png'></img>	89,71	2750.0	test	<img class = center src='/static/experiments/beast_fmri_test/images/redD.png'></img>	stop	2150.0	1.0	1.0	stop	non-target	D	89,Yellow Button	71,Green Button	950.0	600.0	1850.0	2150.0	0.0	0.0	600.0	1.0	n/a	go_stim
229214.53676940105	2150.0	n/a	600	71	2750	244.463230599	stim	stop-signal	689	1873585	0.0-27.1-1.1	beast_fmri_test	119	n/a	n/a	<img class = center src='/static/experiments/beast_fmri_test/images/D.png'></img>	89,71	2750.0	test	<img class = center src='/static/experiments/beast_fmri_test/images/redD.png'></img>	stop	2150.0	1.0	1.0	stop	non-target	D	89,Yellow Button	71,Green Button	950.0	600.0	1850.0	2150.0	0.0	0.0	600.0	1.0	n/a	stop_stim
229814.53676940105	244.463230599	n/a	600	71	2750	244.463230599	stim	stop-signal	689	1873585	0.0-27.1-1.1	beast_fmri_test	119	n/a	n/a	<img class = center src='/static/experiments/beast_fmri_test/images/D.png'></img>	89,71	2750.0	test	<img class = center src='/static/experiments/beast_fmri_test/images/redD.png'></img>	stop	2150.0	1.0	1.0	stop	non-target	D	89,Yellow Button	71,Green Button	950.0	600.0	1850.0	2150.0	0.0	0.0	600.0	1.0	n/a	ITI
230824	500.0	n/a	-1	-1	500	0.0	fixation	poldrack-single-stim	690	1874350	0.0-27.2-0.2	beast_fmri_test	119	n/a	n/a	<div class = centerbox><div class = fixation>+</div></div>	none	500.0	test	n/a	n/a	n/a	n/a	n/a	n/a	n/a	n/a	n/a	n/a	n/a	n/a	n/a	n/a	n/a	n/a	n/a	n/a	n/a	fixation
230262.5644407568	2750.0	n/a	1322	71	2750	563.435559243	stim	stop-signal	691	1877102	0.0-27.2-1.2	beast_fmri_test	119	1875408,/	t	<img class = center src='/static/experiments/beast_fmri_test/images/B.png'></img>	89,71	2750.0	test	<img class = center src='/static/experiments/beast_fmri_test/images/redB.png'></img>	go	2200.0	1.0	2.0	go	non-target	B	89,Yellow Button	71,Green Button	950.0	550.0	1850.0	2200.0	1.0	n/a	550.0	1.0	n/a	go_stim
233012.5644407568	563.435559243	n/a	1322	71	2750	563.435559243	stim	stop-signal	691	1877102	0.0-27.2-1.2	beast_fmri_test	119	1875408,/	t	<img class = center src='/static/experiments/beast_fmri_test/images/B.png'></img>	89,71	2750.0	test	<img class = center src='/static/experiments/beast_fmri_test/images/redB.png'></img>	go	2200.0	1.0	2.0	go	non-target	B	89,Yellow Button	71,Green Button	950.0	550.0	1850.0	2200.0	1.0	n/a	550.0	1.0	n/a	ITI
234664	500.0	n/a	-1	-1	500	0.0	fixation	poldrack-single-stim	692	1878190	0.0-27.3-0.3	beast_fmri_test	119	n/a	n/a	<div class = centerbox><div class = fixation>+</div></div>	none	500.0	test	n/a	n/a	n/a	n/a	n/a	n/a	n/a	n/a	n/a	n/a	n/a	n/a	n/a	n/a	n/a	n/a	n/a	n/a	n/a	fixation
233018.92022087984	2750.0	n/a	1188	89	2750	1647.07977912	stim	stop-signal	693	1880942	0.0-27.3-1.3	beast_fmri_test	119	n/a	n/a	<img class = center src='/static/experiments/beast_fmri_test/images/B.png'></img>	89,71	2750.0	test	<img class = center src='/static/experiments/beast_fmri_test/images/redB.png'></img>	go	1800.0	1.0	3.0	go	target	B	89,Yellow Button	71,Green Button	950.0	550.0	1800.0	2200.0	1.0	n/a	950.0	1.0	n/a	go_stim
235768.92022087984	1647.07977912	n/a	1188	89	2750	1647.07977912	stim	stop-signal	693	1880942	0.0-27.3-1.3	beast_fmri_test	119	n/a	n/a	<img class = center src='/static/experiments/beast_fmri_test/images/B.png'></img>	89,71	2750.0	test	<img class = center src='/static/experiments/beast_fmri_test/images/redB.png'></img>	go	1800.0	1.0	3.0	go	target	B	89,Yellow Button	71,Green Button	950.0	550.0	1800.0	2200.0	1.0	n/a	950.0	1.0	n/a	ITI
239585	500.0	n/a	-1	-1	500	0.0	fixation	poldrack-single-stim	694	1883111	0.0-27.4-0.4	beast_fmri_test	119	n/a	n/a	<div class = centerbox><div class = fixation>+</div></div>	none	500.0	test	n/a	n/a	n/a	n/a	n/a	n/a	n/a	n/a	n/a	n/a	n/a	n/a	n/a	n/a	n/a	n/a	n/a	n/a	n/a	fixation
238094.63857136155	2750.0	n/a	686	89	2750	1493.36142864	stim	stop-signal	695	1885864	0.0-27.4-1.4	beast_fmri_test	119	1884929,/	t	<img class = center src='/static/experiments/beast_fmri_test/images/B.png'></img>	89,71	2750.0	test	<img class = center src='/static/experiments/beast_fmri_test/images/redB.png'></img>	go	1800.0	1.0	4.0	go	target	B	89,Yellow Button	71,Green Button	950.0	550.0	1800.0	2200.0	1.0	n/a	950.0	1.0	n/a	go_stim
240844.63857136155	1493.36142864	n/a	686	89	2750	1493.36142864	stim	stop-signal	695	1885864	0.0-27.4-1.4	beast_fmri_test	119	1884929,/	t	<img class = center src='/static/experiments/beast_fmri_test/images/B.png'></img>	89,71	2750.0	test	<img class = center src='/static/experiments/beast_fmri_test/images/redB.png'></img>	go	1800.0	1.0	4.0	go	target	B	89,Yellow Button	71,Green Button	950.0	550.0	1800.0	2200.0	1.0	n/a	950.0	1.0	n/a	ITI
244353	500.0	n/a	-1	-1	500	0.0	fixation	poldrack-single-stim	696	1887879	0.0-27.5-0.5	beast_fmri_test	119	n/a	n/a	<div class = centerbox><div class = fixation>+</div></div>	none	500.0	test	n/a	n/a	n/a	n/a	n/a	n/a	n/a	n/a	n/a	n/a	n/a	n/a	n/a	n/a	n/a	n/a	n/a	n/a	n/a	fixation
240956.30107094115	2750.0	n/a	929	71	2750	3399.69892906	stim	stop-signal	697	1890632	0.0-27.5-1.5	beast_fmri_test	119	n/a	n/a	<img class = center src='/static/experiments/beast_fmri_test/images/P.png'></img>	89,71	2750.0	test	<img class = center src='/static/experiments/beast_fmri_test/images/redP.png'></img>	go	2200.0	1.0	5.0	go	non-target	P	89,Yellow Button	71,Green Button	950.0	550.0	1800.0	2200.0	1.0	n/a	550.0	1.0	n/a	go_stim
243706.30107094115	3399.69892906	n/a	929	71	2750	3399.69892906	stim	stop-signal	697	1890632	0.0-27.5-1.5	beast_fmri_test	119	n/a	n/a	<img class = center src='/static/experiments/beast_fmri_test/images/P.png'></img>	89,71	2750.0	test	<img class = center src='/static/experiments/beast_fmri_test/images/redP.png'></img>	go	2200.0	1.0	5.0	go	non-target	P	89,Yellow Button	71,Green Button	950.0	550.0	1800.0	2200.0	1.0	n/a	550.0	1.0	n/a	ITI
251026	500.0	n/a	-1	-1	500	0.0	fixation	poldrack-single-stim	698	1894552	0.0-27.6-0.6	beast_fmri_test	119	n/a	n/a	<div class = centerbox><div class = fixation>+</div></div>	none	500.0	test	n/a	n/a	n/a	n/a	n/a	n/a	n/a	n/a	n/a	n/a	n/a	n/a	n/a	n/a	n/a	n/a	n/a	n/a	n/a	fixation
247435.56405803235	550.0	n/a	736	71	2750	3591.43594197	stim	stop-signal	699	1897303	0.0-27.6-1.6	beast_fmri_test	119	n/a	n/a	<img class = center src='/static/experiments/beast_fmri_test/images/B.png'></img>	89,71	2750.0	test	<img class = center src='/static/experiments/beast_fmri_test/images/redB.png'></img>	stop	2200.0	1.0	6.0	stop	non-target	B	89,Yellow Button	71,Green Button	950.0	550.0	1800.0	2200.0	0.0	0.0	550.0	1.0	n/a	go_stim
249635.56405803235	2200.0	n/a	736	71	2750	3591.43594197	stim	stop-signal	699	1897303	0.0-27.6-1.6	beast_fmri_test	119	n/a	n/a	<img class = center src='/static/experiments/beast_fmri_test/images/B.png'></img>	89,71	2750.0	test	<img class = center src='/static/experiments/beast_fmri_test/images/redB.png'></img>	stop	2200.0	1.0	6.0	stop	non-target	B	89,Yellow Button	71,Green Button	950.0	550.0	1800.0	2200.0	0.0	0.0	550.0	1.0	n/a	stop_stim
250185.56405803235	3591.43594197	n/a	736	71	2750	3591.43594197	stim	stop-signal	699	1897303	0.0-27.6-1.6	beast_fmri_test	119	n/a	n/a	<img class = center src='/static/experiments/beast_fmri_test/images/B.png'></img>	89,71	2750.0	test	<img class = center src='/static/experiments/beast_fmri_test/images/redB.png'></img>	stop	2200.0	1.0	6.0	stop	non-target	B	89,Yellow Button	71,Green Button	950.0	550.0	1800.0	2200.0	0.0	0.0	550.0	1.0	n/a	ITI
257889	500.0	n/a	-1	-1	500	0.0	fixation	poldrack-single-stim	700	1901415	0.0-27.7-0.7	beast_fmri_test	119	n/a	n/a	<div class = centerbox><div class = fixation>+</div></div>	none	500.0	test	n/a	n/a	n/a	n/a	n/a	n/a	n/a	n/a	n/a	n/a	n/a	n/a	n/a	n/a	n/a	n/a	n/a	n/a	n/a	fixation
254294.92065210245	2750.0	n/a	659	71	2750	3596.0793479	stim	stop-signal	701	1904167	0.0-27.7-1.7	beast_fmri_test	119	n/a	n/a	<img class = center src='/static/experiments/beast_fmri_test/images/D.png'></img>	89,71	2750.0	test	<img class = center src='/static/experiments/beast_fmri_test/images/redD.png'></img>	go	2250.0	1.0	7.0	go	non-target	D	89,Yellow Button	71,Green Button	950.0	500.0	1800.0	2250.0	1.0	n/a	500.0	1.0	n/a	go_stim
257044.92065210245	3596.0793479	n/a	659	71	2750	3596.0793479	stim	stop-signal	701	1904167	0.0-27.7-1.7	beast_fmri_test	119	n/a	n/a	<img class = center src='/static/experiments/beast_fmri_test/images/D.png'></img>	89,71	2750.0	test	<img class = center src='/static/experiments/beast_fmri_test/images/redD.png'></img>	go	2250.0	1.0	7.0	go	non-target	D	89,Yellow Button	71,Green Button	950.0	500.0	1800.0	2250.0	1.0	n/a	500.0	1.0	n/a	ITI
264760	500.0	n/a	-1	-1	500	0.0	fixation	poldrack-single-stim	702	1908286	0.0-27.8-0.8	beast_fmri_test	119	n/a	n/a	<div class = centerbox><div class = fixation>+</div></div>	none	500.0	test	n/a	n/a	n/a	n/a	n/a	n/a	n/a	n/a	n/a	n/a	n/a	n/a	n/a	n/a	n/a	n/a	n/a	n/a	n/a	fixation
264139.7650855924	950.0	n/a	1466	89	2750	621.234914408	stim	stop-signal	703	1911037	0.0-27.8-1.8	beast_fmri_test	119	1908729,/	t	<img class = center src='/static/experiments/beast_fmri_test/images/D.png'></img>	89,71	2750.0	test	<img class = center src='/static/experiments/beast_fmri_test/images/redD.png'></img>	stop	1800.0	1.0	8.0	stop	target	D	89,Yellow Button	71,Green Button	950.0	500.0	1800.0	2250.0	0.0	0.0	950.0	1.0	n/a	go_stim
265939.7650855924	1800.0	n/a	1466	89	2750	621.234914408	stim	stop-signal	703	1911037	0.0-27.8-1.8	beast_fmri_test	119	1908729,/	t	<img class = center src='/static/experiments/beast_fmri_test/images/D.png'></img>	89,71	2750.0	test	<img class = center src='/static/experiments/beast_fmri_test/images/redD.png'></img>	stop	1800.0	1.0	8.0	stop	target	D	89,Yellow Button	71,Green Button	950.0	500.0	1800.0	2250.0	0.0	0.0	950.0	1.0	n/a	stop_stim
266889.7650855924	621.234914408	n/a	1466	89	2750	621.234914408	stim	stop-signal	703	1911037	0.0-27.8-1.8	beast_fmri_test	119	1908729,/	t	<img class = center src='/static/experiments/beast_fmri_test/images/D.png'></img>	89,71	2750.0	test	<img class = center src='/static/experiments/beast_fmri_test/images/redD.png'></img>	stop	1800.0	1.0	8.0	stop	target	D	89,Yellow Button	71,Green Button	950.0	500.0	1800.0	2250.0	0.0	0.0	950.0	1.0	n/a	ITI
268653	500.0	n/a	-1	-1	500	0.0	fixation	poldrack-single-stim	704	1912179	0.0-27.9-0.9	beast_fmri_test	119	n/a	n/a	<div class = centerbox><div class = fixation>+</div></div>	none	500.0	test	n/a	n/a	n/a	n/a	n/a	n/a	n/a	n/a	n/a	n/a	n/a	n/a	n/a	n/a	n/a	n/a	n/a	n/a	n/a	fixation
267901.64948079619	2750.0	n/a	2226	71	2750	753.350519204	stim	stop-signal	705	1914931	0.0-27.9-1.9	beast_fmri_test	119	n/a	n/a	<img class = center src='/static/experiments/beast_fmri_test/images/B.png'></img>	89,71	2750.0	test	<img class = center src='/static/experiments/beast_fmri_test/images/redB.png'></img>	go	2250.0	1.0	9.0	go	non-target	B	89,Yellow Button	71,Green Button	900.0	500.0	1800.0	2250.0	1.0	n/a	500.0	1.0	n/a	go_stim
270651.64948079619	753.350519204	n/a	2226	71	2750	753.350519204	stim	stop-signal	705	1914931	0.0-27.9-1.9	beast_fmri_test	119	n/a	n/a	<img class = center src='/static/experiments/beast_fmri_test/images/B.png'></img>	89,71	2750.0	test	<img class = center src='/static/experiments/beast_fmri_test/images/redB.png'></img>	go	2250.0	1.0	9.0	go	non-target	B	89,Yellow Button	71,Green Button	900.0	500.0	1800.0	2250.0	1.0	n/a	500.0	1.0	n/a	ITI
272681	500.0	n/a	-1	-1	500	0.0	fixation	poldrack-single-stim	706	1916207	0.0-27.10-0.10	beast_fmri_test	119	n/a	n/a	<div class = centerbox><div class = fixation>+</div></div>	none	500.0	test	n/a	n/a	n/a	n/a	n/a	n/a	n/a	n/a	n/a	n/a	n/a	n/a	n/a	n/a	n/a	n/a	n/a	n/a	n/a	fixation
271459.58756370982	2750.0	n/a	1252	89	2750	1223.41243629	stim	stop-signal	707	1918959	0.0-27.10-1.10	beast_fmri_test	119	n/a	n/a	<img class = center src='/static/experiments/beast_fmri_test/images/B.png'></img>	89,71	2750.0	test	<img class = center src='/static/experiments/beast_fmri_test/images/redB.png'></img>	go	1850.0	1.0	10.0	go	target	B	89,Yellow Button	71,Green Button	900.0	500.0	1850.0	2250.0	1.0	n/a	900.0	1.0	n/a	go_stim
274209.58756370982	1223.41243629	n/a	1252	89	2750	1223.41243629	stim	stop-signal	707	1918959	0.0-27.10-1.10	beast_fmri_test	119	n/a	n/a	<img class = center src='/static/experiments/beast_fmri_test/images/B.png'></img>	89,71	2750.0	test	<img class = center src='/static/experiments/beast_fmri_test/images/redB.png'></img>	go	1850.0	1.0	10.0	go	target	B	89,Yellow Button	71,Green Button	900.0	500.0	1850.0	2250.0	1.0	n/a	900.0	1.0	n/a	ITI
277178	500.0	n/a	-1	-1	500	0.0	fixation	poldrack-single-stim	708	1920704	0.0-27.11-0.11	beast_fmri_test	119	n/a	n/a	<div class = centerbox><div class = fixation>+</div></div>	none	500.0	test	n/a	n/a	n/a	n/a	n/a	n/a	n/a	n/a	n/a	n/a	n/a	n/a	n/a	n/a	n/a	n/a	n/a	n/a	n/a	fixation
276337.50348848221	900.0	n/a	989	89	2750	842.496511518	stim	stop-signal	709	1923456	0.0-27.11-1.11	beast_fmri_test	119	n/a	n/a	<img class = center src='/static/experiments/beast_fmri_test/images/B.png'></img>	89,71	2750.0	test	<img class = center src='/static/experiments/beast_fmri_test/images/redB.png'></img>	stop	1850.0	1.0	11.0	stop	target	B	89,Yellow Button	71,Green Button	900.0	500.0	1850.0	2250.0	0.0	0.0	900.0	1.0	n/a	go_stim
278187.50348848221	1850.0	n/a	989	89	2750	842.496511518	stim	stop-signal	709	1923456	0.0-27.11-1.11	beast_fmri_test	119	n/a	n/a	<img class = center src='/static/experiments/beast_fmri_test/images/B.png'></img>	89,71	2750.0	test	<img class = center src='/static/experiments/beast_fmri_test/images/redB.png'></img>	stop	1850.0	1.0	11.0	stop	target	B	89,Yellow Button	71,Green Button	900.0	500.0	1850.0	2250.0	0.0	0.0	900.0	1.0	n/a	stop_stim
279087.50348848221	842.496511518	n/a	989	89	2750	842.496511518	stim	stop-signal	709	1923456	0.0-27.11-1.11	beast_fmri_test	119	n/a	n/a	<img class = center src='/static/experiments/beast_fmri_test/images/B.png'></img>	89,71	2750.0	test	<img class = center src='/static/experiments/beast_fmri_test/images/redB.png'></img>	stop	1850.0	1.0	11.0	stop	target	B	89,Yellow Button	71,Green Button	900.0	500.0	1850.0	2250.0	0.0	0.0	900.0	1.0	n/a	ITI
281296	500.0	n/a	-1	-1	500	0.0	fixation	poldrack-single-stim	710	1924822	0.0-27.12-0.12	beast_fmri_test	119	n/a	n/a	<div class = centerbox><div class = fixation>+</div></div>	none	500.0	test	n/a	n/a	n/a	n/a	n/a	n/a	n/a	n/a	n/a	n/a	n/a	n/a	n/a	n/a	n/a	n/a	n/a	n/a	n/a	fixation
281175.07077699946	2750.0	n/a	1219	89	2750	122.929223	stim	stop-signal	711	1927574	0.0-27.12-1.12	beast_fmri_test	119	n/a	n/a	<img class = center src='/static/experiments/beast_fmri_test/images/B.png'></img>	89,71	2750.0	test	<img class = center src='/static/experiments/beast_fmri_test/images/redB.png'></img>	go	1900.0	1.0	12.0	go	target	B	89,Yellow Button	71,Green Button	850.0	500.0	1900.0	2250.0	1.0	n/a	850.0	1.0	n/a	go_stim
283925.07077699946	122.929223	n/a	1219	89	2750	122.929223	stim	stop-signal	711	1927574	0.0-27.12-1.12	beast_fmri_test	119	n/a	n/a	<img class = center src='/static/experiments/beast_fmri_test/images/B.png'></img>	89,71	2750.0	test	<img class = center src='/static/experiments/beast_fmri_test/images/redB.png'></img>	go	1900.0	1.0	12.0	go	target	B	89,Yellow Button	71,Green Button	850.0	500.0	1900.0	2250.0	1.0	n/a	850.0	1.0	n/a	ITI
284694	500.0	n/a	-1	-1	500	0.0	fixation	poldrack-single-stim	712	1928220	0.0-27.13-0.13	beast_fmri_test	119	n/a	n/a	<div class = centerbox><div class = fixation>+</div></div>	none	500.0	test	n/a	n/a	n/a	n/a	n/a	n/a	n/a	n/a	n/a	n/a	n/a	n/a	n/a	n/a	n/a	n/a	n/a	n/a	n/a	fixation
284587.92523586261	2750.0	n/a	851	89	2750	109.074764137	stim	stop-signal	713	1930973	0.0-27.13-1.13	beast_fmri_test	119	n/a	n/a	<img class = center src='/static/experiments/beast_fmri_test/images/B.png'></img>	89,71	2750.0	test	<img class = center src='/static/experiments/beast_fmri_test/images/redB.png'></img>	go	1900.0	1.0	13.0	go	target	B	89,Yellow Button	71,Green Button	850.0	500.0	1900.0	2250.0	1.0	n/a	850.0	1.0	n/a	go_stim
287337.92523586261	109.074764137	n/a	851	89	2750	109.074764137	stim	stop-signal	713	1930973	0.0-27.13-1.13	beast_fmri_test	119	n/a	n/a	<img class = center src='/static/experiments/beast_fmri_test/images/B.png'></img>	89,71	2750.0	test	<img class = center src='/static/experiments/beast_fmri_test/images/redB.png'></img>	go	1900.0	1.0	13.0	go	target	B	89,Yellow Button	71,Green Button	850.0	500.0	1900.0	2250.0	1.0	n/a	850.0	1.0	n/a	ITI
288079	500.0	n/a	-1	-1	500	0.0	fixation	poldrack-single-stim	714	1931605	0.0-27.14-0.14	beast_fmri_test	119	n/a	n/a	<div class = centerbox><div class = fixation>+</div></div>	none	500.0	test	n/a	n/a	n/a	n/a	n/a	n/a	n/a	n/a	n/a	n/a	n/a	n/a	n/a	n/a	n/a	n/a	n/a	n/a	n/a	fixation
287189.08991483436	2750.0	n/a	1685	71	2750	891.910085166	stim	stop-signal	715	1934357	0.0-27.14-1.14	beast_fmri_test	119	n/a	n/a	<img class = center src='/static/experiments/beast_fmri_test/images/P.png'></img>	89,71	2750.0	test	<img class = center src='/static/experiments/beast_fmri_test/images/redP.png'></img>	go	2250.0	1.0	14.0	go	non-target	P	89,Yellow Button	71,Green Button	850.0	500.0	1900.0	2250.0	1.0	n/a	500.0	1.0	n/a	go_stim
289939.08991483436	891.910085166	n/a	1685	71	2750	891.910085166	stim	stop-signal	715	1934357	0.0-27.14-1.14	beast_fmri_test	119	n/a	n/a	<img class = center src='/static/experiments/beast_fmri_test/images/P.png'></img>	89,71	2750.0	test	<img class = center src='/static/experiments/beast_fmri_test/images/redP.png'></img>	go	2250.0	1.0	14.0	go	non-target	P	89,Yellow Button	71,Green Button	850.0	500.0	1900.0	2250.0	1.0	n/a	500.0	1.0	n/a	ITI
292245	500.0	n/a	-1	-1	500	0.0	fixation	poldrack-single-stim	716	1935771	0.0-27.15-0.15	beast_fmri_test	119	n/a	n/a	<div class = centerbox><div class = fixation>+</div></div>	none	500.0	test	n/a	n/a	n/a	n/a	n/a	n/a	n/a	n/a	n/a	n/a	n/a	n/a	n/a	n/a	n/a	n/a	n/a	n/a	n/a	fixation
290162.25269346847	2750.0	n/a	780	71	2750	2084.74730653	stim	stop-signal	717	1938523	0.0-27.15-1.15	beast_fmri_test	119	n/a	n/a	<img class = center src='/static/experiments/beast_fmri_test/images/V.png'></img>	89,71	2750.0	test	<img class = center src='/static/experiments/beast_fmri_test/images/redV.png'></img>	go	2250.0	1.0	15.0	go	non-target	V	89,Yellow Button	71,Green Button	850.0	500.0	1900.0	2250.0	1.0	n/a	500.0	1.0	n/a	go_stim
292912.25269346847	2084.74730653	n/a	780	71	2750	2084.74730653	stim	stop-signal	717	1938523	0.0-27.15-1.15	beast_fmri_test	119	n/a	n/a	<img class = center src='/static/experiments/beast_fmri_test/images/V.png'></img>	89,71	2750.0	test	<img class = center src='/static/experiments/beast_fmri_test/images/redV.png'></img>	go	2250.0	1.0	15.0	go	non-target	V	89,Yellow Button	71,Green Button	850.0	500.0	1900.0	2250.0	1.0	n/a	500.0	1.0	n/a	ITI
297602	500.0	n/a	-1	-1	500	0.0	fixation	poldrack-single-stim	718	1941128	0.0-27.16-0.16	beast_fmri_test	119	n/a	n/a	<div class = centerbox><div class = fixation>+</div></div>	none	500.0	test	n/a	n/a	n/a	n/a	n/a	n/a	n/a	n/a	n/a	n/a	n/a	n/a	n/a	n/a	n/a	n/a	n/a	n/a	n/a	fixation
295489.33851895877	500.0	n/a	759	71	2750	2114.66148104	stim	stop-signal	719	1943880	0.0-27.16-1.16	beast_fmri_test	119	n/a	n/a	<img class = center src='/static/experiments/beast_fmri_test/images/T.png'></img>	89,71	2750.0	test	<img class = center src='/static/experiments/beast_fmri_test/images/redT.png'></img>	stop	2250.0	1.0	16.0	stop	non-target	T	89,Yellow Button	71,Green Button	850.0	500.0	1900.0	2250.0	0.0	0.0	500.0	1.0	n/a	go_stim
297739.33851895877	2250.0	n/a	759	71	2750	2114.66148104	stim	stop-signal	719	1943880	0.0-27.16-1.16	beast_fmri_test	119	n/a	n/a	<img class = center src='/static/experiments/beast_fmri_test/images/T.png'></img>	89,71	2750.0	test	<img class = center src='/static/experiments/beast_fmri_test/images/redT.png'></img>	stop	2250.0	1.0	16.0	stop	non-target	T	89,Yellow Button	71,Green Button	850.0	500.0	1900.0	2250.0	0.0	0.0	500.0	1.0	n/a	stop_stim
298239.33851895877	2114.66148104	n/a	759	71	2750	2114.66148104	stim	stop-signal	719	1943880	0.0-27.16-1.16	beast_fmri_test	119	n/a	n/a	<img class = center src='/static/experiments/beast_fmri_test/images/T.png'></img>	89,71	2750.0	test	<img class = center src='/static/experiments/beast_fmri_test/images/redT.png'></img>	stop	2250.0	1.0	16.0	stop	non-target	T	89,Yellow Button	71,Green Button	850.0	500.0	1900.0	2250.0	0.0	0.0	500.0	1.0	n/a	ITI
302992	500.0	n/a	-1	-1	500	0.0	fixation	poldrack-single-stim	720	1946518	0.0-27.17-0.17	beast_fmri_test	119	n/a	n/a	<div class = centerbox><div class = fixation>+</div></div>	none	500.0	test	n/a	n/a	n/a	n/a	n/a	n/a	n/a	n/a	n/a	n/a	n/a	n/a	n/a	n/a	n/a	n/a	n/a	n/a	n/a	fixation
301647.81032157247	2750.0	n/a	732	71	2750	1346.18967843	stim	stop-signal	721	1949270	0.0-27.17-1.17	beast_fmri_test	119	n/a	n/a	<img class = center src='/static/experiments/beast_fmri_test/images/D.png'></img>	89,71	2750.0	test	<img class = center src='/static/experiments/beast_fmri_test/images/redD.png'></img>	go	2300.0	1.0	17.0	go	non-target	D	89,Yellow Button	71,Green Button	850.0	450.0	1900.0	2300.0	1.0	n/a	450.0	1.0	n/a	go_stim
304397.81032157247	1346.18967843	n/a	732	71	2750	1346.18967843	stim	stop-signal	721	1949270	0.0-27.17-1.17	beast_fmri_test	119	n/a	n/a	<img class = center src='/static/experiments/beast_fmri_test/images/D.png'></img>	89,71	2750.0	test	<img class = center src='/static/experiments/beast_fmri_test/images/redD.png'></img>	go	2300.0	1.0	17.0	go	non-target	D	89,Yellow Button	71,Green Button	850.0	450.0	1900.0	2300.0	1.0	n/a	450.0	1.0	n/a	ITI
307612	500.0	n/a	-1	-1	500	0.0	fixation	poldrack-single-stim	722	1951138	0.0-27.18-0.18	beast_fmri_test	119	n/a	n/a	<div class = centerbox><div class = fixation>+</div></div>	none	500.0	test	n/a	n/a	n/a	n/a	n/a	n/a	n/a	n/a	n/a	n/a	n/a	n/a	n/a	n/a	n/a	n/a	n/a	n/a	n/a	fixation
307507.67232193355	2750.0	n/a	1373	71	2750	106.327678066	stim	stop-signal	723	1953890	0.0-27.18-1.18	beast_fmri_test	119	n/a	n/a	<img class = center src='/static/experiments/beast_fmri_test/images/T.png'></img>	89,71	2750.0	test	<img class = center src='/static/experiments/beast_fmri_test/images/redT.png'></img>	go	2300.0	1.0	18.0	go	non-target	T	89,Yellow Button	71,Green Button	850.0	450.0	1900.0	2300.0	1.0	n/a	450.0	1.0	n/a	go_stim
310257.67232193355	106.327678066	n/a	1373	71	2750	106.327678066	stim	stop-signal	723	1953890	0.0-27.18-1.18	beast_fmri_test	119	n/a	n/a	<img class = center src='/static/experiments/beast_fmri_test/images/T.png'></img>	89,71	2750.0	test	<img class = center src='/static/experiments/beast_fmri_test/images/redT.png'></img>	go	2300.0	1.0	18.0	go	non-target	T	89,Yellow Button	71,Green Button	850.0	450.0	1900.0	2300.0	1.0	n/a	450.0	1.0	n/a	ITI
310992	500.0	n/a	-1	-1	500	0.0	fixation	poldrack-single-stim	724	1954518	0.0-27.19-0.19	beast_fmri_test	119	n/a	n/a	<div class = centerbox><div class = fixation>+</div></div>	none	500.0	test	n/a	n/a	n/a	n/a	n/a	n/a	n/a	n/a	n/a	n/a	n/a	n/a	n/a	n/a	n/a	n/a	n/a	n/a	n/a	fixation
309916.43536235439	450.0	n/a	778	71	2750	1078.56463765	stim	stop-signal	725	1957271	0.0-27.19-1.19	beast_fmri_test	119	n/a	n/a	<img class = center src='/static/experiments/beast_fmri_test/images/D.png'></img>	89,71	2750.0	test	<img class = center src='/static/experiments/beast_fmri_test/images/redD.png'></img>	stop	2300.0	1.0	19.0	stop	non-target	D	89,Yellow Button	71,Green Button	850.0	450.0	1900.0	2300.0	0.0	0.0	450.0	1.0	n/a	go_stim
312216.43536235439	2300.0	n/a	778	71	2750	1078.56463765	stim	stop-signal	725	1957271	0.0-27.19-1.19	beast_fmri_test	119	n/a	n/a	<img class = center src='/static/experiments/beast_fmri_test/images/D.png'></img>	89,71	2750.0	test	<img class = center src='/static/experiments/beast_fmri_test/images/redD.png'></img>	stop	2300.0	1.0	19.0	stop	non-target	D	89,Yellow Button	71,Green Button	850.0	450.0	1900.0	2300.0	0.0	0.0	450.0	1.0	n/a	stop_stim
312666.43536235439	1078.56463765	n/a	778	71	2750	1078.56463765	stim	stop-signal	725	1957271	0.0-27.19-1.19	beast_fmri_test	119	n/a	n/a	<img class = center src='/static/experiments/beast_fmri_test/images/D.png'></img>	89,71	2750.0	test	<img class = center src='/static/experiments/beast_fmri_test/images/redD.png'></img>	stop	2300.0	1.0	19.0	stop	non-target	D	89,Yellow Button	71,Green Button	850.0	450.0	1900.0	2300.0	0.0	0.0	450.0	1.0	n/a	ITI
315351	500.0	n/a	-1	-1	500	0.0	fixation	poldrack-single-stim	726	1958877	0.0-27.20-0.20	beast_fmri_test	119	n/a	n/a	<div class = centerbox><div class = fixation>+</div></div>	none	500.0	test	n/a	n/a	n/a	n/a	n/a	n/a	n/a	n/a	n/a	n/a	n/a	n/a	n/a	n/a	n/a	n/a	n/a	n/a	n/a	fixation
314936.26494561625	2750.0	n/a	879	71	2750	416.735054384	stim	stop-signal	727	1961629	0.0-27.20-1.20	beast_fmri_test	119	n/a	n/a	<img class = center src='/static/experiments/beast_fmri_test/images/B.png'></img>	89,71	2750.0	test	<img class = center src='/static/experiments/beast_fmri_test/images/redB.png'></img>	go	2350.0	1.0	20.0	go	non-target	B	89,Yellow Button	71,Green Button	850.0	400.0	1900.0	2350.0	1.0	n/a	400.0	1.0	n/a	go_stim
317686.26494561625	416.735054384	n/a	879	71	2750	416.735054384	stim	stop-signal	727	1961629	0.0-27.20-1.20	beast_fmri_test	119	n/a	n/a	<img class = center src='/static/experiments/beast_fmri_test/images/B.png'></img>	89,71	2750.0	test	<img class = center src='/static/experiments/beast_fmri_test/images/redB.png'></img>	go	2350.0	1.0	20.0	go	non-target	B	89,Yellow Button	71,Green Button	850.0	400.0	1900.0	2350.0	1.0	n/a	400.0	1.0	n/a	ITI
319041	500.0	n/a	-1	-1	500	0.0	fixation	poldrack-single-stim	728	1962567	0.0-27.21-0.21	beast_fmri_test	119	n/a	n/a	<div class = centerbox><div class = fixation>+</div></div>	none	500.0	test	n/a	n/a	n/a	n/a	n/a	n/a	n/a	n/a	n/a	n/a	n/a	n/a	n/a	n/a	n/a	n/a	n/a	n/a	n/a	fixation
317839.86086626328	2750.0	n/a	660	71	2750	1204.13913374	stim	stop-signal	729	1965320	0.0-27.21-1.21	beast_fmri_test	119	n/a	n/a	<img class = center src='/static/experiments/beast_fmri_test/images/T.png'></img>	89,71	2750.0	test	<img class = center src='/static/experiments/beast_fmri_test/images/redT.png'></img>	go	2350.0	1.0	21.0	go	non-target	T	89,Yellow Button	71,Green Button	850.0	400.0	1900.0	2350.0	1.0	n/a	400.0	1.0	n/a	go_stim
320589.86086626328	1204.13913374	n/a	660	71	2750	1204.13913374	stim	stop-signal	729	1965320	0.0-27.21-1.21	beast_fmri_test	119	n/a	n/a	<img class = center src='/static/experiments/beast_fmri_test/images/T.png'></img>	89,71	2750.0	test	<img class = center src='/static/experiments/beast_fmri_test/images/redT.png'></img>	go	2350.0	1.0	21.0	go	non-target	T	89,Yellow Button	71,Green Button	850.0	400.0	1900.0	2350.0	1.0	n/a	400.0	1.0	n/a	ITI
323526	500.0	n/a	-1	-1	500	0.0	fixation	poldrack-single-stim	730	1967052	0.0-27.22-0.22	beast_fmri_test	119	n/a	n/a	<div class = centerbox><div class = fixation>+</div></div>	none	500.0	test	n/a	n/a	n/a	n/a	n/a	n/a	n/a	n/a	n/a	n/a	n/a	n/a	n/a	n/a	n/a	n/a	n/a	n/a	n/a	fixation
323379.64143093419	2750.0	n/a	828	89	2750	149.358569066	stim	stop-signal	731	1969805	0.0-27.22-1.22	beast_fmri_test	119	n/a	n/a	<img class = center src='/static/experiments/beast_fmri_test/images/T.png'></img>	89,71	2750.0	test	<img class = center src='/static/experiments/beast_fmri_test/images/redT.png'></img>	go	1900.0	1.0	22.0	go	target	T	89,Yellow Button	71,Green Button	850.0	400.0	1900.0	2350.0	1.0	n/a	850.0	1.0	n/a	go_stim
326129.64143093419	149.358569066	n/a	828	89	2750	149.358569066	stim	stop-signal	731	1969805	0.0-27.22-1.22	beast_fmri_test	119	n/a	n/a	<img class = center src='/static/experiments/beast_fmri_test/images/T.png'></img>	89,71	2750.0	test	<img class = center src='/static/experiments/beast_fmri_test/images/redT.png'></img>	go	1900.0	1.0	22.0	go	target	T	89,Yellow Button	71,Green Button	850.0	400.0	1900.0	2350.0	1.0	n/a	850.0	1.0	n/a	ITI
326950	500.0	n/a	-1	-1	500	0.0	fixation	poldrack-single-stim	732	1970476	0.0-27.23-0.23	beast_fmri_test	119	n/a	n/a	<div class = centerbox><div class = fixation>+</div></div>	none	500.0	test	n/a	n/a	n/a	n/a	n/a	n/a	n/a	n/a	n/a	n/a	n/a	n/a	n/a	n/a	n/a	n/a	n/a	n/a	n/a	fixation
325502.85968877561	2750.0	n/a	1727	71	2750	1449.14031122	stim	stop-signal	733	1973228	0.0-27.23-1.23	beast_fmri_test	119	n/a	n/a	<img class = center src='/static/experiments/beast_fmri_test/images/D.png'></img>	89,71	2750.0	test	<img class = center src='/static/experiments/beast_fmri_test/images/redD.png'></img>	go	2350.0	1.0	23.0	go	non-target	D	89,Yellow Button	71,Green Button	850.0	400.0	1900.0	2350.0	1.0	n/a	400.0	1.0	n/a	go_stim
328252.85968877561	1449.14031122	n/a	1727	71	2750	1449.14031122	stim	stop-signal	733	1973228	0.0-27.23-1.23	beast_fmri_test	119	n/a	n/a	<img class = center src='/static/experiments/beast_fmri_test/images/D.png'></img>	89,71	2750.0	test	<img class = center src='/static/experiments/beast_fmri_test/images/redD.png'></img>	go	2350.0	1.0	23.0	go	non-target	D	89,Yellow Button	71,Green Button	850.0	400.0	1900.0	2350.0	1.0	n/a	400.0	1.0	n/a	ITI
331676	500.0	n/a	-1	-1	500	0.0	fixation	poldrack-single-stim	734	1975202	0.0-27.24-0.24	beast_fmri_test	119	n/a	n/a	<div class = centerbox><div class = fixation>+</div></div>	none	500.0	test	n/a	n/a	n/a	n/a	n/a	n/a	n/a	n/a	n/a	n/a	n/a	n/a	n/a	n/a	n/a	n/a	n/a	n/a	n/a	fixation
331042.05740049668	2750.0	n/a	783	71	2750	635.942599503	stim	stop-signal	735	1977954	0.0-27.24-1.24	beast_fmri_test	119	n/a	n/a	<img class = center src='/static/experiments/beast_fmri_test/images/V.png'></img>	89,71	2750.0	test	<img class = center src='/static/experiments/beast_fmri_test/images/redV.png'></img>	go	2350.0	1.0	24.0	go	non-target	V	89,Yellow Button	71,Green Button	850.0	400.0	1900.0	2350.0	1.0	n/a	400.0	1.0	n/a	go_stim
333792.05740049668	635.942599503	n/a	783	71	2750	635.942599503	stim	stop-signal	735	1977954	0.0-27.24-1.24	beast_fmri_test	119	n/a	n/a	<img class = center src='/static/experiments/beast_fmri_test/images/V.png'></img>	89,71	2750.0	test	<img class = center src='/static/experiments/beast_fmri_test/images/redV.png'></img>	go	2350.0	1.0	24.0	go	non-target	V	89,Yellow Button	71,Green Button	850.0	400.0	1900.0	2350.0	1.0	n/a	400.0	1.0	n/a	ITI
335586	500.0	n/a	-1	-1	500	0.0	fixation	poldrack-single-stim	736	1979112	0.0-27.25-0.25	beast_fmri_test	119	n/a	n/a	<div class = centerbox><div class = fixation>+</div></div>	none	500.0	test	n/a	n/a	n/a	n/a	n/a	n/a	n/a	n/a	n/a	n/a	n/a	n/a	n/a	n/a	n/a	n/a	n/a	n/a	n/a	fixation
334558.4676626788	400.0	n/a	662	71	2750	1028.53233732	stim	stop-signal	737	1981863	0.0-27.25-1.25	beast_fmri_test	119	n/a	n/a	<img class = center src='/static/experiments/beast_fmri_test/images/P.png'></img>	89,71	2750.0	test	<img class = center src='/static/experiments/beast_fmri_test/images/redP.png'></img>	stop	2350.0	1.0	25.0	stop	non-target	P	89,Yellow Button	71,Green Button	850.0	400.0	1900.0	2350.0	0.0	0.0	400.0	1.0	n/a	go_stim
336908.4676626788	2350.0	n/a	662	71	2750	1028.53233732	stim	stop-signal	737	1981863	0.0-27.25-1.25	beast_fmri_test	119	n/a	n/a	<img class = center src='/static/experiments/beast_fmri_test/images/P.png'></img>	89,71	2750.0	test	<img class = center src='/static/experiments/beast_fmri_test/images/redP.png'></img>	stop	2350.0	1.0	25.0	stop	non-target	P	89,Yellow Button	71,Green Button	850.0	400.0	1900.0	2350.0	0.0	0.0	400.0	1.0	n/a	stop_stim
337308.4676626788	1028.53233732	n/a	662	71	2750	1028.53233732	stim	stop-signal	737	1981863	0.0-27.25-1.25	beast_fmri_test	119	n/a	n/a	<img class = center src='/static/experiments/beast_fmri_test/images/P.png'></img>	89,71	2750.0	test	<img class = center src='/static/experiments/beast_fmri_test/images/redP.png'></img>	stop	2350.0	1.0	25.0	stop	non-target	P	89,Yellow Button	71,Green Button	850.0	400.0	1900.0	2350.0	0.0	0.0	400.0	1.0	n/a	ITI
339890	500.0	n/a	-1	-1	500	0.0	fixation	poldrack-single-stim	738	1983416	0.0-27.26-0.26	beast_fmri_test	119	n/a	n/a	<div class = centerbox><div class = fixation>+</div></div>	none	500.0	test	n/a	n/a	n/a	n/a	n/a	n/a	n/a	n/a	n/a	n/a	n/a	n/a	n/a	n/a	n/a	n/a	n/a	n/a	n/a	fixation
339751.22398903244	2750.0	n/a	1484	71	2750	139.776010968	stim	stop-signal	739	1986167	0.0-27.26-1.26	beast_fmri_test	119	n/a	n/a	<img class = center src='/static/experiments/beast_fmri_test/images/P.png'></img>	89,71	2750.0	test	<img class = center src='/static/experiments/beast_fmri_test/images/redP.png'></img>	go	1900.0	1.0	26.0	go	target	P	89,Yellow Button	71,Green Button	850.0	350.0	1900.0	2350.0	0.0	n/a	850.0	0.0	n/a	go_stim
342501.22398903244	139.776010968	n/a	1484	71	2750	139.776010968	stim	stop-signal	739	1986167	0.0-27.26-1.26	beast_fmri_test	119	n/a	n/a	<img class = center src='/static/experiments/beast_fmri_test/images/P.png'></img>	89,71	2750.0	test	<img class = center src='/static/experiments/beast_fmri_test/images/redP.png'></img>	go	1900.0	1.0	26.0	go	target	P	89,Yellow Button	71,Green Button	850.0	350.0	1900.0	2350.0	0.0	n/a	850.0	0.0	n/a	ITI
343306	500.0	n/a	-1	-1	500	0.0	fixation	poldrack-single-stim	740	1986832	0.0-27.27-0.27	beast_fmri_test	119	n/a	n/a	<div class = centerbox><div class = fixation>+</div></div>	none	500.0	test	n/a	n/a	n/a	n/a	n/a	n/a	n/a	n/a	n/a	n/a	n/a	n/a	n/a	n/a	n/a	n/a	n/a	n/a	n/a	fixation
342984.46607688139	850.0	n/a	1144	89	2750	322.533923119	stim	stop-signal	741	1989583	0.0-27.27-1.27	beast_fmri_test	119	n/a	n/a	<img class = center src='/static/experiments/beast_fmri_test/images/P.png'></img>	89,71	2750.0	test	<img class = center src='/static/experiments/beast_fmri_test/images/redP.png'></img>	stop	1900.0	1.0	27.0	stop	target	P	89,Yellow Button	71,Green Button	850.0	350.0	1900.0	2350.0	0.0	0.0	850.0	1.0	n/a	go_stim
344884.46607688139	1900.0	n/a	1144	89	2750	322.533923119	stim	stop-signal	741	1989583	0.0-27.27-1.27	beast_fmri_test	119	n/a	n/a	<img class = center src='/static/experiments/beast_fmri_test/images/P.png'></img>	89,71	2750.0	test	<img class = center src='/static/experiments/beast_fmri_test/images/redP.png'></img>	stop	1900.0	1.0	27.0	stop	target	P	89,Yellow Button	71,Green Button	850.0	350.0	1900.0	2350.0	0.0	0.0	850.0	1.0	n/a	stop_stim
345734.46607688139	322.533923119	n/a	1144	89	2750	322.533923119	stim	stop-signal	741	1989583	0.0-27.27-1.27	beast_fmri_test	119	n/a	n/a	<img class = center src='/static/experiments/beast_fmri_test/images/P.png'></img>	89,71	2750.0	test	<img class = center src='/static/experiments/beast_fmri_test/images/redP.png'></img>	stop	1900.0	1.0	27.0	stop	target	P	89,Yellow Button	71,Green Button	850.0	350.0	1900.0	2350.0	0.0	0.0	850.0	1.0	n/a	ITI
346906	500.0	n/a	-1	-1	500	0.0	fixation	poldrack-single-stim	742	1990432	0.0-27.28-0.28	beast_fmri_test	119	n/a	n/a	<div class = centerbox><div class = fixation>+</div></div>	none	500.0	test	n/a	n/a	n/a	n/a	n/a	n/a	n/a	n/a	n/a	n/a	n/a	n/a	n/a	n/a	n/a	n/a	n/a	n/a	n/a	fixation
346798.62089241948	2750.0	n/a	618	71	2750	109.379107581	stim	stop-signal	743	1993184	0.0-27.28-1.28	beast_fmri_test	119	n/a	n/a	<img class = center src='/static/experiments/beast_fmri_test/images/V.png'></img>	89,71	2750.0	test	<img class = center src='/static/experiments/beast_fmri_test/images/redV.png'></img>	go	2400.0	1.0	28.0	go	non-target	V	89,Yellow Button	71,Green Button	800.0	350.0	1900.0	2400.0	1.0	n/a	350.0	1.0	n/a	go_stim
349548.62089241948	109.379107581	n/a	618	71	2750	109.379107581	stim	stop-signal	743	1993184	0.0-27.28-1.28	beast_fmri_test	119	n/a	n/a	<img class = center src='/static/experiments/beast_fmri_test/images/V.png'></img>	89,71	2750.0	test	<img class = center src='/static/experiments/beast_fmri_test/images/redV.png'></img>	go	2400.0	1.0	28.0	go	non-target	V	89,Yellow Button	71,Green Button	800.0	350.0	1900.0	2400.0	1.0	n/a	350.0	1.0	n/a	ITI
350291	500.0	n/a	-1	-1	500	0.0	fixation	poldrack-single-stim	744	1993817	0.0-27.29-0.29	beast_fmri_test	119	n/a	n/a	<div class = centerbox><div class = fixation>+</div></div>	none	500.0	test	n/a	n/a	n/a	n/a	n/a	n/a	n/a	n/a	n/a	n/a	n/a	n/a	n/a	n/a	n/a	n/a	n/a	n/a	n/a	fixation
349684.66748777358	2750.0	n/a	1135	71	2750	607.332512226	stim	stop-signal	745	1996568	0.0-27.29-1.29	beast_fmri_test	119	n/a	n/a	<img class = center src='/static/experiments/beast_fmri_test/images/B.png'></img>	89,71	2750.0	test	<img class = center src='/static/experiments/beast_fmri_test/images/redB.png'></img>	go	2400.0	1.0	29.0	go	non-target	B	89,Yellow Button	71,Green Button	800.0	350.0	1900.0	2400.0	1.0	n/a	350.0	1.0	n/a	go_stim
