onset	duration	text	rt	key_press	block_duration	timing_post_trial	trial_id	trial_type	trial_index	time_elapsed	internal_node_id	exp_id	subject_id	trigger_times	triggers	stimulus	possible_responses	stim_duration	exp_stage	SS_stimulus	SS_trial_type	SS_duration	load	trial_num	stop_trial_type	adaptive_trial_type	stim	yes_response_key	no_response_key	SSD_target	SSD_non_target	SSTarget	SSNonTarget	go_acc	stop_acc	SS_delay	adaptive_acc	Unnamed: 36	new_trial_type
test	10880	n/a	-1	-1	10880	0.0	practice-no-stop-feedback	poldrack-single-stim	6	34004	0.0-6.0	beast_fmri_test	119	23122,/	t	"<div class = ""centerbox""><p class = ""center-block-text"">Your delay is 2 trials.</p><p class = center-block-text>Please wait for the scanner to start the block</p></div>"	77	10880.0	n/a	n/a	n/a	n/a	n/a	n/a	n/a	n/a	n/a	n/a	n/a	n/a	n/a	n/a	n/a	n/a	n/a	n/a	n/a	n/a	start_functional_block
-1387285494.0	500	n/a	-1	-1	500	0.0	fixation	poldrack-single-stim	7	34506	0.0-7.0-0.0	beast_fmri_test	119	n/a	n/a	<div class = centerbox><div class = fixation>+</div></div>	none	500.0	test	n/a	n/a	n/a	n/a	n/a	n/a	n/a	n/a	n/a	n/a	n/a	n/a	n/a	n/a	n/a	n/a	n/a	n/a	n/a	fixation
-1387285783.2935042	temp_go_duration	n/a	-1	-1	2750	294.293504271	stim	stop-signal	8	37261	0.0-7.0-1.0	beast_fmri_test	119	n/a	n/a	<img class = center src='/static/experiments/beast_fmri_test/images/T.png'></img>	89,71	2750.0	test	<img class = center src='/static/experiments/beast_fmri_test/images/redT.png'></img>	stop	-1.0	2.0	0.0	stop	temp-non-target	T	89,Yellow Button	71,Green Button	500.0	500.0	0.0	0.0	0.0	1.0	n/a	n/a	n/a	go_stim
temp-non-target	temp_stop_duration	n/a	-1	-1	2750	294.293504271	stim	stop-signal	8	37261	0.0-7.0-1.0	beast_fmri_test	119	n/a	n/a	<img class = center src='/static/experiments/beast_fmri_test/images/T.png'></img>	89,71	2750.0	test	<img class = center src='/static/experiments/beast_fmri_test/images/redT.png'></img>	stop	-1.0	2.0	0.0	stop	temp-non-target	T	89,Yellow Button	71,Green Button	500.0	500.0	0.0	0.0	0.0	1.0	n/a	n/a	n/a	stop_stim
-1387283033.2935042	294.29350427144198	n/a	-1	-1	2750	294.293504271	stim	stop-signal	8	37261	0.0-7.0-1.0	beast_fmri_test	119	n/a	n/a	<img class = center src='/static/experiments/beast_fmri_test/images/T.png'></img>	89,71	2750.0	test	<img class = center src='/static/experiments/beast_fmri_test/images/redT.png'></img>	stop	-1.0	2.0	0.0	stop	temp-non-target	T	89,Yellow Button	71,Green Button	500.0	500.0	0.0	0.0	0.0	1.0	n/a	n/a	n/a	ITI
-1387281938.0	500	n/a	-1	-1	500	0.0	fixation	poldrack-single-stim	9	38062	0.0-7.1-0.1	beast_fmri_test	119	n/a	n/a	<div class = centerbox><div class = fixation>+</div></div>	none	500.0	test	n/a	n/a	n/a	n/a	n/a	n/a	n/a	n/a	n/a	n/a	n/a	n/a	n/a	n/a	n/a	n/a	n/a	n/a	n/a	fixation
-1387282443.1197164	2750	n/a	1391	71	2750	507.119716383	stim	stop-signal	10	40814	0.0-7.1-1.1	beast_fmri_test	119	n/a	n/a	<img class = center src='/static/experiments/beast_fmri_test/images/T.png'></img>	89,71	2750.0	test	<img class = center src='/static/experiments/beast_fmri_test/images/redT.png'></img>	go	-1.0	2.0	1.0	go	temp-non-target	T	89,Yellow Button	71,Green Button	500.0	500.0	0.0	0.0	0.0	n/a	n/a	n/a	n/a	go_stim
-1387279693.1197164	507.11971638296802	n/a	1391	71	2750	507.119716383	stim	stop-signal	10	40814	0.0-7.1-1.1	beast_fmri_test	119	n/a	n/a	<img class = center src='/static/experiments/beast_fmri_test/images/T.png'></img>	89,71	2750.0	test	<img class = center src='/static/experiments/beast_fmri_test/images/redT.png'></img>	go	-1.0	2.0	1.0	go	temp-non-target	T	89,Yellow Button	71,Green Button	500.0	500.0	0.0	0.0	0.0	n/a	n/a	n/a	n/a	ITI
-1387278175.0	500	n/a	-1	-1	500	0.0	fixation	poldrack-single-stim	11	41825	0.0-7.2-0.2	beast_fmri_test	119	n/a	n/a	<div class = centerbox><div class = fixation>+</div></div>	none	500.0	test	n/a	n/a	n/a	n/a	n/a	n/a	n/a	n/a	n/a	n/a	n/a	n/a	n/a	n/a	n/a	n/a	n/a	n/a	n/a	fixation
-1387280033.5464637	2750	n/a	595	71	2750	1860.54646377	stim	stop-signal	12	44577	0.0-7.2-1.2	beast_fmri_test	119	n/a	n/a	<img class = center src='/static/experiments/beast_fmri_test/images/T.png'></img>	89,71	2750.0	test	<img class = center src='/static/experiments/beast_fmri_test/images/redT.png'></img>	go	2250.0	2.0	2.0	go	target	T	89,Yellow Button	71,Green Button	500.0	500.0	2250.0	0.0	0.0	n/a	500.0	0.0	n/a	go_stim
-1387277283.5464637	1860.5464637733	n/a	595	71	2750	1860.54646377	stim	stop-signal	12	44577	0.0-7.2-1.2	beast_fmri_test	119	n/a	n/a	<img class = center src='/static/experiments/beast_fmri_test/images/T.png'></img>	89,71	2750.0	test	<img class = center src='/static/experiments/beast_fmri_test/images/redT.png'></img>	go	2250.0	2.0	2.0	go	target	T	89,Yellow Button	71,Green Button	500.0	500.0	2250.0	0.0	0.0	n/a	500.0	0.0	n/a	ITI
-1387273058.0	500	n/a	-1	-1	500	0.0	fixation	poldrack-single-stim	13	46942	0.0-7.3-0.3	beast_fmri_test	119	n/a	n/a	<div class = centerbox><div class = fixation>+</div></div>	none	500.0	test	n/a	n/a	n/a	n/a	n/a	n/a	n/a	n/a	n/a	n/a	n/a	n/a	n/a	n/a	n/a	n/a	n/a	n/a	n/a	fixation
-1387274841.0943186	2750	n/a	1785	71	2750	1785.09431862	stim	stop-signal	14	49694	0.0-7.3-1.3	beast_fmri_test	119	n/a	n/a	<img class = center src='/static/experiments/beast_fmri_test/images/B.png'></img>	89,71	2750.0	test	<img class = center src='/static/experiments/beast_fmri_test/images/redB.png'></img>	go	2250.0	2.0	3.0	go	non-target	B	89,Yellow Button	71,Green Button	500.0	500.0	2250.0	2250.0	1.0	n/a	500.0	1.0	n/a	go_stim
-1387272091.0943186	1785.09431862113	n/a	1785	71	2750	1785.09431862	stim	stop-signal	14	49694	0.0-7.3-1.3	beast_fmri_test	119	n/a	n/a	<img class = center src='/static/experiments/beast_fmri_test/images/B.png'></img>	89,71	2750.0	test	<img class = center src='/static/experiments/beast_fmri_test/images/redB.png'></img>	go	2250.0	2.0	3.0	go	non-target	B	89,Yellow Button	71,Green Button	500.0	500.0	2250.0	2250.0	1.0	n/a	500.0	1.0	n/a	ITI
-1387268018.0	500	n/a	-1	-1	500	0.0	fixation	poldrack-single-stim	15	51982	0.0-7.4-0.4	beast_fmri_test	119	n/a	n/a	<div class = centerbox><div class = fixation>+</div></div>	none	500.0	test	n/a	n/a	n/a	n/a	n/a	n/a	n/a	n/a	n/a	n/a	n/a	n/a	n/a	n/a	n/a	n/a	n/a	n/a	n/a	fixation
-1387272598.5855227	2750	n/a	1157	89	2750	4582.58552261	stim	stop-signal	16	54734	0.0-7.4-1.4	beast_fmri_test	119	n/a	n/a	<img class = center src='/static/experiments/beast_fmri_test/images/T.png'></img>	89,71	2750.0	test	<img class = center src='/static/experiments/beast_fmri_test/images/redT.png'></img>	go	2250.0	2.0	4.0	go	target	T	89,Yellow Button	71,Green Button	500.0	500.0	2250.0	2250.0	1.0	n/a	500.0	1.0	n/a	go_stim
-1387269848.5855227	4582.5855226123904	n/a	1157	89	2750	4582.58552261	stim	stop-signal	16	54734	0.0-7.4-1.4	beast_fmri_test	119	n/a	n/a	<img class = center src='/static/experiments/beast_fmri_test/images/T.png'></img>	89,71	2750.0	test	<img class = center src='/static/experiments/beast_fmri_test/images/redT.png'></img>	go	2250.0	2.0	4.0	go	target	T	89,Yellow Button	71,Green Button	500.0	500.0	2250.0	2250.0	1.0	n/a	500.0	1.0	n/a	ITI
-1387260180.0	500	n/a	-1	-1	500	0.0	fixation	poldrack-single-stim	17	59820	0.0-7.5-0.5	beast_fmri_test	119	n/a	n/a	<div class = centerbox><div class = fixation>+</div></div>	none	500.0	test	n/a	n/a	n/a	n/a	n/a	n/a	n/a	n/a	n/a	n/a	n/a	n/a	n/a	n/a	n/a	n/a	n/a	n/a	n/a	fixation
-1387260396.6406729	2750	n/a	903	89	2750	219.640672966	stim	stop-signal	18	62573	0.0-7.5-1.5	beast_fmri_test	119	60520,/	t	<img class = center src='/static/experiments/beast_fmri_test/images/B.png'></img>	89,71	2750.0	test	<img class = center src='/static/experiments/beast_fmri_test/images/redB.png'></img>	go	2250.0	2.0	5.0	go	target	B	89,Yellow Button	71,Green Button	500.0	500.0	2250.0	2250.0	1.0	n/a	500.0	1.0	n/a	go_stim
-1387257646.6406729	219.640672966159	n/a	903	89	2750	219.640672966	stim	stop-signal	18	62573	0.0-7.5-1.5	beast_fmri_test	119	60520,/	t	<img class = center src='/static/experiments/beast_fmri_test/images/B.png'></img>	89,71	2750.0	test	<img class = center src='/static/experiments/beast_fmri_test/images/redB.png'></img>	go	2250.0	2.0	5.0	go	target	B	89,Yellow Button	71,Green Button	500.0	500.0	2250.0	2250.0	1.0	n/a	500.0	1.0	n/a	ITI
-1387256704.0	500	n/a	-1	-1	500	0.0	fixation	poldrack-single-stim	19	63296	0.0-7.6-0.6	beast_fmri_test	119	n/a	n/a	<div class = centerbox><div class = fixation>+</div></div>	none	500.0	test	n/a	n/a	n/a	n/a	n/a	n/a	n/a	n/a	n/a	n/a	n/a	n/a	n/a	n/a	n/a	n/a	n/a	n/a	n/a	fixation
-1387256744.9352946	500.0	n/a	-1	-1	2750	42.935294643	stim	stop-signal	20	66048	0.0-7.6-1.6	beast_fmri_test	119	n/a	n/a	<img class = center src='/static/experiments/beast_fmri_test/images/D.png'></img>	89,71	2750.0	test	<img class = center src='/static/experiments/beast_fmri_test/images/redD.png'></img>	stop	2250.0	2.0	6.0	stop	non-target	D	89,Yellow Button	71,Green Button	500.0	500.0	2250.0	2250.0	0.0	1.0	500.0	0.0	n/a	go_stim
-1387254494.9352946	2250.0	n/a	-1	-1	2750	42.935294643	stim	stop-signal	20	66048	0.0-7.6-1.6	beast_fmri_test	119	n/a	n/a	<img class = center src='/static/experiments/beast_fmri_test/images/D.png'></img>	89,71	2750.0	test	<img class = center src='/static/experiments/beast_fmri_test/images/redD.png'></img>	stop	2250.0	2.0	6.0	stop	non-target	D	89,Yellow Button	71,Green Button	500.0	500.0	2250.0	2250.0	0.0	1.0	500.0	0.0	n/a	stop_stim
-1387253994.9352946	42.935294642962802	n/a	-1	-1	2750	42.935294643	stim	stop-signal	20	66048	0.0-7.6-1.6	beast_fmri_test	119	n/a	n/a	<img class = center src='/static/experiments/beast_fmri_test/images/D.png'></img>	89,71	2750.0	test	<img class = center src='/static/experiments/beast_fmri_test/images/redD.png'></img>	stop	2250.0	2.0	6.0	stop	non-target	D	89,Yellow Button	71,Green Button	500.0	500.0	2250.0	2250.0	0.0	1.0	500.0	0.0	n/a	ITI
-1387253405.0	500	n/a	-1	-1	500	0.0	fixation	poldrack-single-stim	21	66595	0.0-7.7-0.7	beast_fmri_test	119	n/a	n/a	<div class = centerbox><div class = fixation>+</div></div>	none	500.0	test	n/a	n/a	n/a	n/a	n/a	n/a	n/a	n/a	n/a	n/a	n/a	n/a	n/a	n/a	n/a	n/a	n/a	n/a	n/a	fixation
-1387253825.1765411	550.0	n/a	-1	-1	2750	422.176541083	stim	stop-signal	22	69347	0.0-7.7-1.7	beast_fmri_test	119	n/a	n/a	<img class = center src='/static/experiments/beast_fmri_test/images/T.png'></img>	89,71	2750.0	test	<img class = center src='/static/experiments/beast_fmri_test/images/redT.png'></img>	stop	2200.0	2.0	7.0	stop	non-target	T	89,Yellow Button	71,Green Button	500.0	550.0	2250.0	2200.0	0.0	1.0	550.0	0.0	n/a	go_stim
-1387251625.1765411	2200.0	n/a	-1	-1	2750	422.176541083	stim	stop-signal	22	69347	0.0-7.7-1.7	beast_fmri_test	119	n/a	n/a	<img class = center src='/static/experiments/beast_fmri_test/images/T.png'></img>	89,71	2750.0	test	<img class = center src='/static/experiments/beast_fmri_test/images/redT.png'></img>	stop	2200.0	2.0	7.0	stop	non-target	T	89,Yellow Button	71,Green Button	500.0	550.0	2250.0	2200.0	0.0	1.0	550.0	0.0	n/a	stop_stim
-1387251075.1765411	422.176541082965	n/a	-1	-1	2750	422.176541083	stim	stop-signal	22	69347	0.0-7.7-1.7	beast_fmri_test	119	n/a	n/a	<img class = center src='/static/experiments/beast_fmri_test/images/T.png'></img>	89,71	2750.0	test	<img class = center src='/static/experiments/beast_fmri_test/images/redT.png'></img>	stop	2200.0	2.0	7.0	stop	non-target	T	89,Yellow Button	71,Green Button	500.0	550.0	2250.0	2200.0	0.0	1.0	550.0	0.0	n/a	ITI
-1387249727.0	500	n/a	-1	-1	500	0.0	fixation	poldrack-single-stim	23	70273	0.0-7.8-0.8	beast_fmri_test	119	n/a	n/a	<div class = centerbox><div class = fixation>+</div></div>	none	500.0	test	n/a	n/a	n/a	n/a	n/a	n/a	n/a	n/a	n/a	n/a	n/a	n/a	n/a	n/a	n/a	n/a	n/a	n/a	n/a	fixation
-1387250136.6030142	2750	n/a	2315	71	2750	412.60301424	stim	stop-signal	24	73026	0.0-7.8-1.8	beast_fmri_test	119	n/a	n/a	<img class = center src='/static/experiments/beast_fmri_test/images/P.png'></img>	89,71	2750.0	test	<img class = center src='/static/experiments/beast_fmri_test/images/redP.png'></img>	go	2150.0	2.0	8.0	go	non-target	P	89,Yellow Button	71,Green Button	500.0	600.0	2250.0	2150.0	1.0	n/a	600.0	1.0	n/a	go_stim
-1387247386.6030142	412.60301424028302	n/a	2315	71	2750	412.60301424	stim	stop-signal	24	73026	0.0-7.8-1.8	beast_fmri_test	119	n/a	n/a	<img class = center src='/static/experiments/beast_fmri_test/images/P.png'></img>	89,71	2750.0	test	<img class = center src='/static/experiments/beast_fmri_test/images/redP.png'></img>	go	2150.0	2.0	8.0	go	non-target	P	89,Yellow Button	71,Green Button	500.0	600.0	2250.0	2150.0	1.0	n/a	600.0	1.0	n/a	ITI
-1387246057.0	500	n/a	-1	-1	500	0.0	fixation	poldrack-single-stim	25	73943	0.0-7.9-0.9	beast_fmri_test	119	n/a	n/a	<div class = centerbox><div class = fixation>+</div></div>	none	500.0	test	n/a	n/a	n/a	n/a	n/a	n/a	n/a	n/a	n/a	n/a	n/a	n/a	n/a	n/a	n/a	n/a	n/a	n/a	n/a	fixation
-1387246301.1382871	2750	n/a	1424	89	2750	246.138287003	stim	stop-signal	26	76695	0.0-7.9-1.9	beast_fmri_test	119	n/a	n/a	<img class = center src='/static/experiments/beast_fmri_test/images/T.png'></img>	89,71	2750.0	test	<img class = center src='/static/experiments/beast_fmri_test/images/redT.png'></img>	go	2250.0	2.0	9.0	go	target	T	89,Yellow Button	71,Green Button	500.0	600.0	2250.0	2150.0	1.0	n/a	500.0	1.0	n/a	go_stim
-1387243551.1382871	246.138287003275	n/a	1424	89	2750	246.138287003	stim	stop-signal	26	76695	0.0-7.9-1.9	beast_fmri_test	119	n/a	n/a	<img class = center src='/static/experiments/beast_fmri_test/images/T.png'></img>	89,71	2750.0	test	<img class = center src='/static/experiments/beast_fmri_test/images/redT.png'></img>	go	2250.0	2.0	9.0	go	target	T	89,Yellow Button	71,Green Button	500.0	600.0	2250.0	2150.0	1.0	n/a	500.0	1.0	n/a	ITI
-1387242554.0	500	n/a	-1	-1	500	0.0	fixation	poldrack-single-stim	27	77446	0.0-7.10-0.10	beast_fmri_test	119	n/a	n/a	<div class = centerbox><div class = fixation>+</div></div>	none	500.0	test	n/a	n/a	n/a	n/a	n/a	n/a	n/a	n/a	n/a	n/a	n/a	n/a	n/a	n/a	n/a	n/a	n/a	n/a	n/a	fixation
-1387243280.3401296	600.0	n/a	-1	-1	2750	728.340129501	stim	stop-signal	28	80198	0.0-7.10-1.10	beast_fmri_test	119	n/a	n/a	<img class = center src='/static/experiments/beast_fmri_test/images/V.png'></img>	89,71	2750.0	test	<img class = center src='/static/experiments/beast_fmri_test/images/redV.png'></img>	stop	2150.0	2.0	10.0	stop	non-target	V	89,Yellow Button	71,Green Button	500.0	600.0	2250.0	2150.0	0.0	1.0	600.0	0.0	n/a	go_stim
-1387241130.3401296	2150.0	n/a	-1	-1	2750	728.340129501	stim	stop-signal	28	80198	0.0-7.10-1.10	beast_fmri_test	119	n/a	n/a	<img class = center src='/static/experiments/beast_fmri_test/images/V.png'></img>	89,71	2750.0	test	<img class = center src='/static/experiments/beast_fmri_test/images/redV.png'></img>	stop	2150.0	2.0	10.0	stop	non-target	V	89,Yellow Button	71,Green Button	500.0	600.0	2250.0	2150.0	0.0	1.0	600.0	0.0	n/a	stop_stim
-1387240530.3401296	728.34012950085696	n/a	-1	-1	2750	728.340129501	stim	stop-signal	28	80198	0.0-7.10-1.10	beast_fmri_test	119	n/a	n/a	<img class = center src='/static/experiments/beast_fmri_test/images/V.png'></img>	89,71	2750.0	test	<img class = center src='/static/experiments/beast_fmri_test/images/redV.png'></img>	stop	2150.0	2.0	10.0	stop	non-target	V	89,Yellow Button	71,Green Button	500.0	600.0	2250.0	2150.0	0.0	1.0	600.0	0.0	n/a	ITI
-1387238569.0	500	n/a	-1	-1	500	0.0	fixation	poldrack-single-stim	29	81431	0.0-7.11-0.11	beast_fmri_test	119	n/a	n/a	<div class = centerbox><div class = fixation>+</div></div>	none	500.0	test	n/a	n/a	n/a	n/a	n/a	n/a	n/a	n/a	n/a	n/a	n/a	n/a	n/a	n/a	n/a	n/a	n/a	n/a	n/a	fixation
-1387239458.936995	2750	n/a	1898	71	2750	891.93699503	stim	stop-signal	30	84183	0.0-7.11-1.11	beast_fmri_test	119	n/a	n/a	<img class = center src='/static/experiments/beast_fmri_test/images/V.png'></img>	89,71	2750.0	test	<img class = center src='/static/experiments/beast_fmri_test/images/redV.png'></img>	go	2100.0	2.0	11.0	go	non-target	V	89,Yellow Button	71,Green Button	500.0	650.0	2250.0	2100.0	1.0	n/a	650.0	1.0	n/a	go_stim
-1387236708.936995	891.93699503049402	n/a	1898	71	2750	891.93699503	stim	stop-signal	30	84183	0.0-7.11-1.11	beast_fmri_test	119	n/a	n/a	<img class = center src='/static/experiments/beast_fmri_test/images/V.png'></img>	89,71	2750.0	test	<img class = center src='/static/experiments/beast_fmri_test/images/redV.png'></img>	go	2100.0	2.0	11.0	go	non-target	V	89,Yellow Button	71,Green Button	500.0	650.0	2250.0	2100.0	1.0	n/a	650.0	1.0	n/a	ITI
-1387234420.0	500	n/a	-1	-1	500	0.0	fixation	poldrack-single-stim	31	85580	0.0-7.12-0.12	beast_fmri_test	119	n/a	n/a	<div class = centerbox><div class = fixation>+</div></div>	none	500.0	test	n/a	n/a	n/a	n/a	n/a	n/a	n/a	n/a	n/a	n/a	n/a	n/a	n/a	n/a	n/a	n/a	n/a	n/a	n/a	fixation
-1387236120.2468283	2750	n/a	1565	71	2750	1702.24682827	stim	stop-signal	32	88332	0.0-7.12-1.12	beast_fmri_test	119	n/a	n/a	<img class = center src='/static/experiments/beast_fmri_test/images/P.png'></img>	89,71	2750.0	test	<img class = center src='/static/experiments/beast_fmri_test/images/redP.png'></img>	go	2100.0	2.0	12.0	go	non-target	P	89,Yellow Button	71,Green Button	500.0	650.0	2250.0	2100.0	1.0	n/a	650.0	1.0	n/a	go_stim
-1387233370.2468283	1702.24682827276	n/a	1565	71	2750	1702.24682827	stim	stop-signal	32	88332	0.0-7.12-1.12	beast_fmri_test	119	n/a	n/a	<img class = center src='/static/experiments/beast_fmri_test/images/P.png'></img>	89,71	2750.0	test	<img class = center src='/static/experiments/beast_fmri_test/images/redP.png'></img>	go	2100.0	2.0	12.0	go	non-target	P	89,Yellow Button	71,Green Button	500.0	650.0	2250.0	2100.0	1.0	n/a	650.0	1.0	n/a	ITI
-1387229460.0	500	n/a	-1	-1	500	0.0	fixation	poldrack-single-stim	33	90540	0.0-7.13-0.13	beast_fmri_test	119	n/a	n/a	<div class = centerbox><div class = fixation>+</div></div>	none	500.0	test	n/a	n/a	n/a	n/a	n/a	n/a	n/a	n/a	n/a	n/a	n/a	n/a	n/a	n/a	n/a	n/a	n/a	n/a	n/a	fixation
-1387229798.7775517	500.0	n/a	-1	-1	2750	340.777551548	stim	stop-signal	34	93292	0.0-7.13-1.13	beast_fmri_test	119	n/a	n/a	<img class = center src='/static/experiments/beast_fmri_test/images/V.png'></img>	89,71	2750.0	test	<img class = center src='/static/experiments/beast_fmri_test/images/redV.png'></img>	stop	2250.0	2.0	13.0	stop	target	V	89,Yellow Button	71,Green Button	500.0	650.0	2250.0	2100.0	0.0	1.0	500.0	0.0	n/a	go_stim
-1387227548.7775517	2250.0	n/a	-1	-1	2750	340.777551548	stim	stop-signal	34	93292	0.0-7.13-1.13	beast_fmri_test	119	n/a	n/a	<img class = center src='/static/experiments/beast_fmri_test/images/V.png'></img>	89,71	2750.0	test	<img class = center src='/static/experiments/beast_fmri_test/images/redV.png'></img>	stop	2250.0	2.0	13.0	stop	target	V	89,Yellow Button	71,Green Button	500.0	650.0	2250.0	2100.0	0.0	1.0	500.0	0.0	n/a	stop_stim
-1387227048.7775517	340.777551548286	n/a	-1	-1	2750	340.777551548	stim	stop-signal	34	93292	0.0-7.13-1.13	beast_fmri_test	119	n/a	n/a	<img class = center src='/static/experiments/beast_fmri_test/images/V.png'></img>	89,71	2750.0	test	<img class = center src='/static/experiments/beast_fmri_test/images/redV.png'></img>	stop	2250.0	2.0	13.0	stop	target	V	89,Yellow Button	71,Green Button	500.0	650.0	2250.0	2100.0	0.0	1.0	500.0	0.0	n/a	ITI
-1387225864.0	500	n/a	-1	-1	500	0.0	fixation	poldrack-single-stim	35	94136	0.0-7.14-0.14	beast_fmri_test	119	n/a	n/a	<div class = centerbox><div class = fixation>+</div></div>	none	500.0	test	n/a	n/a	n/a	n/a	n/a	n/a	n/a	n/a	n/a	n/a	n/a	n/a	n/a	n/a	n/a	n/a	n/a	n/a	n/a	fixation
-1387227736.5467739	2750	n/a	2087	89	2750	1874.54677379	stim	stop-signal	36	96888	0.0-7.14-1.14	beast_fmri_test	119	96561,/	t	<img class = center src='/static/experiments/beast_fmri_test/images/P.png'></img>	89,71	2750.0	test	<img class = center src='/static/experiments/beast_fmri_test/images/redP.png'></img>	go	2200.0	2.0	14.0	go	target	P	89,Yellow Button	71,Green Button	550.0	650.0	2200.0	2100.0	1.0	n/a	550.0	1.0	n/a	go_stim
-1387224986.5467739	1874.54677379196	n/a	2087	89	2750	1874.54677379	stim	stop-signal	36	96888	0.0-7.14-1.14	beast_fmri_test	119	96561,/	t	<img class = center src='/static/experiments/beast_fmri_test/images/P.png'></img>	89,71	2750.0	test	<img class = center src='/static/experiments/beast_fmri_test/images/redP.png'></img>	go	2200.0	2.0	14.0	go	target	P	89,Yellow Button	71,Green Button	550.0	650.0	2200.0	2100.0	1.0	n/a	550.0	1.0	n/a	ITI
-1387220733.0	500	n/a	-1	-1	500	0.0	fixation	poldrack-single-stim	37	99267	0.0-7.15-0.15	beast_fmri_test	119	n/a	n/a	<div class = centerbox><div class = fixation>+</div></div>	none	500.0	test	n/a	n/a	n/a	n/a	n/a	n/a	n/a	n/a	n/a	n/a	n/a	n/a	n/a	n/a	n/a	n/a	n/a	n/a	n/a	fixation
-1387221149.8379347	2750	n/a	1677	71	2750	417.837934804	stim	stop-signal	38	102018	0.0-7.15-1.15	beast_fmri_test	119	101321,/	t	<img class = center src='/static/experiments/beast_fmri_test/images/D.png'></img>	89,71	2750.0	test	<img class = center src='/static/experiments/beast_fmri_test/images/redD.png'></img>	go	2100.0	2.0	15.0	go	non-target	D	89,Yellow Button	71,Green Button	550.0	650.0	2200.0	2100.0	1.0	n/a	650.0	1.0	n/a	go_stim
-1387218399.8379347	417.83793480375198	n/a	1677	71	2750	417.837934804	stim	stop-signal	38	102018	0.0-7.15-1.15	beast_fmri_test	119	101321,/	t	<img class = center src='/static/experiments/beast_fmri_test/images/D.png'></img>	89,71	2750.0	test	<img class = center src='/static/experiments/beast_fmri_test/images/redD.png'></img>	go	2100.0	2.0	15.0	go	non-target	D	89,Yellow Button	71,Green Button	550.0	650.0	2200.0	2100.0	1.0	n/a	650.0	1.0	n/a	ITI
-1387217059.0	500	n/a	-1	-1	500	0.0	fixation	poldrack-single-stim	39	102941	0.0-7.16-0.16	beast_fmri_test	119	n/a	n/a	<div class = centerbox><div class = fixation>+</div></div>	none	500.0	test	n/a	n/a	n/a	n/a	n/a	n/a	n/a	n/a	n/a	n/a	n/a	n/a	n/a	n/a	n/a	n/a	n/a	n/a	n/a	fixation
-1387217100.2637453	650.0	n/a	-1	-1	2750	43.2637453536	stim	stop-signal	40	105693	0.0-7.16-1.16	beast_fmri_test	119	n/a	n/a	<img class = center src='/static/experiments/beast_fmri_test/images/B.png'></img>	89,71	2750.0	test	<img class = center src='/static/experiments/beast_fmri_test/images/redB.png'></img>	stop	2100.0	2.0	16.0	stop	non-target	B	89,Yellow Button	71,Green Button	550.0	650.0	2200.0	2100.0	0.0	1.0	650.0	0.0	n/a	go_stim
-1387215000.2637453	2100.0	n/a	-1	-1	2750	43.2637453536	stim	stop-signal	40	105693	0.0-7.16-1.16	beast_fmri_test	119	n/a	n/a	<img class = center src='/static/experiments/beast_fmri_test/images/B.png'></img>	89,71	2750.0	test	<img class = center src='/static/experiments/beast_fmri_test/images/redB.png'></img>	stop	2100.0	2.0	16.0	stop	non-target	B	89,Yellow Button	71,Green Button	550.0	650.0	2200.0	2100.0	0.0	1.0	650.0	0.0	n/a	stop_stim
-1387214350.2637453	43.2637453535703	n/a	-1	-1	2750	43.2637453536	stim	stop-signal	40	105693	0.0-7.16-1.16	beast_fmri_test	119	n/a	n/a	<img class = center src='/static/experiments/beast_fmri_test/images/B.png'></img>	89,71	2750.0	test	<img class = center src='/static/experiments/beast_fmri_test/images/redB.png'></img>	stop	2100.0	2.0	16.0	stop	non-target	B	89,Yellow Button	71,Green Button	550.0	650.0	2200.0	2100.0	0.0	1.0	650.0	0.0	n/a	ITI
-1387213758.0	500	n/a	-1	-1	500	0.0	fixation	poldrack-single-stim	41	106242	0.0-7.17-0.17	beast_fmri_test	119	106082,/	t	<div class = centerbox><div class = fixation>+</div></div>	none	500.0	test	n/a	n/a	n/a	n/a	n/a	n/a	n/a	n/a	n/a	n/a	n/a	n/a	n/a	n/a	n/a	n/a	n/a	n/a	n/a	fixation
-1387214101.0069649	2750	n/a	1870	71	2750	345.006964975	stim	stop-signal	42	108994	0.0-7.17-1.17	beast_fmri_test	119	n/a	n/a	<img class = center src='/static/experiments/beast_fmri_test/images/T.png'></img>	89,71	2750.0	test	<img class = center src='/static/experiments/beast_fmri_test/images/redT.png'></img>	go	2050.0	2.0	17.0	go	non-target	T	89,Yellow Button	71,Green Button	550.0	700.0	2200.0	2050.0	1.0	n/a	700.0	1.0	n/a	go_stim
-1387211351.0069649	345.00696497501701	n/a	1870	71	2750	345.006964975	stim	stop-signal	42	108994	0.0-7.17-1.17	beast_fmri_test	119	n/a	n/a	<img class = center src='/static/experiments/beast_fmri_test/images/T.png'></img>	89,71	2750.0	test	<img class = center src='/static/experiments/beast_fmri_test/images/redT.png'></img>	go	2050.0	2.0	17.0	go	non-target	T	89,Yellow Button	71,Green Button	550.0	700.0	2200.0	2050.0	1.0	n/a	700.0	1.0	n/a	ITI
-1387210155.0	500	n/a	-1	-1	500	0.0	fixation	poldrack-single-stim	43	109845	0.0-7.18-0.18	beast_fmri_test	119	n/a	n/a	<div class = centerbox><div class = fixation>+</div></div>	none	500.0	test	n/a	n/a	n/a	n/a	n/a	n/a	n/a	n/a	n/a	n/a	n/a	n/a	n/a	n/a	n/a	n/a	n/a	n/a	n/a	fixation
-1387211873.7593489	2750	n/a	1306	71	2750	1720.75934882	stim	stop-signal	44	112597	0.0-7.18-1.18	beast_fmri_test	119	112881,/	t	<img class = center src='/static/experiments/beast_fmri_test/images/B.png'></img>	89,71	2750.0	test	<img class = center src='/static/experiments/beast_fmri_test/images/redB.png'></img>	go	2200.0	2.0	18.0	go	target	B	89,Yellow Button	71,Green Button	550.0	700.0	2200.0	2050.0	0.0	n/a	550.0	0.0	n/a	go_stim
-1387209123.7593489	1720.759348818	n/a	1306	71	2750	1720.75934882	stim	stop-signal	44	112597	0.0-7.18-1.18	beast_fmri_test	119	112881,/	t	<img class = center src='/static/experiments/beast_fmri_test/images/B.png'></img>	89,71	2750.0	test	<img class = center src='/static/experiments/beast_fmri_test/images/redB.png'></img>	go	2200.0	2.0	18.0	go	target	B	89,Yellow Button	71,Green Button	550.0	700.0	2200.0	2050.0	0.0	n/a	550.0	0.0	n/a	ITI
-1387205176.0	500	n/a	-1	-1	500	0.0	fixation	poldrack-single-stim	45	114824	0.0-7.19-0.19	beast_fmri_test	119	n/a	n/a	<div class = centerbox><div class = fixation>+</div></div>	none	500.0	test	n/a	n/a	n/a	n/a	n/a	n/a	n/a	n/a	n/a	n/a	n/a	n/a	n/a	n/a	n/a	n/a	n/a	n/a	n/a	fixation
-1387205527.5500412	2750	n/a	1072	71	2750	353.550041237	stim	stop-signal	46	117576	0.0-7.19-1.19	beast_fmri_test	119	n/a	n/a	<img class = center src='/static/experiments/beast_fmri_test/images/D.png'></img>	89,71	2750.0	test	<img class = center src='/static/experiments/beast_fmri_test/images/redD.png'></img>	go	2050.0	2.0	19.0	go	non-target	D	89,Yellow Button	71,Green Button	550.0	700.0	2200.0	2050.0	1.0	n/a	700.0	1.0	n/a	go_stim
-1387202777.5500412	353.55004123652901	n/a	1072	71	2750	353.550041237	stim	stop-signal	46	117576	0.0-7.19-1.19	beast_fmri_test	119	n/a	n/a	<img class = center src='/static/experiments/beast_fmri_test/images/D.png'></img>	89,71	2750.0	test	<img class = center src='/static/experiments/beast_fmri_test/images/redD.png'></img>	go	2050.0	2.0	19.0	go	non-target	D	89,Yellow Button	71,Green Button	550.0	700.0	2200.0	2050.0	1.0	n/a	700.0	1.0	n/a	ITI
-1387201566.0	500	n/a	-1	-1	500	0.0	fixation	poldrack-single-stim	47	118434	0.0-7.20-0.20	beast_fmri_test	119	n/a	n/a	<div class = centerbox><div class = fixation>+</div></div>	none	500.0	test	n/a	n/a	n/a	n/a	n/a	n/a	n/a	n/a	n/a	n/a	n/a	n/a	n/a	n/a	n/a	n/a	n/a	n/a	n/a	fixation
-1387202161.7034512	2750	n/a	1289	71	2750	598.703451103	stim	stop-signal	48	121187	0.0-7.20-1.20	beast_fmri_test	119	n/a	n/a	<img class = center src='/static/experiments/beast_fmri_test/images/P.png'></img>	89,71	2750.0	test	<img class = center src='/static/experiments/beast_fmri_test/images/redP.png'></img>	go	2050.0	2.0	20.0	go	non-target	P	89,Yellow Button	71,Green Button	550.0	700.0	2200.0	2050.0	1.0	n/a	700.0	1.0	n/a	go_stim
-1387199411.7034512	598.70345110349001	n/a	1289	71	2750	598.703451103	stim	stop-signal	48	121187	0.0-7.20-1.20	beast_fmri_test	119	n/a	n/a	<img class = center src='/static/experiments/beast_fmri_test/images/P.png'></img>	89,71	2750.0	test	<img class = center src='/static/experiments/beast_fmri_test/images/redP.png'></img>	go	2050.0	2.0	20.0	go	non-target	P	89,Yellow Button	71,Green Button	550.0	700.0	2200.0	2050.0	1.0	n/a	700.0	1.0	n/a	ITI
-1387197710.0	500	n/a	-1	-1	500	0.0	fixation	poldrack-single-stim	49	122290	0.0-7.21-0.21	beast_fmri_test	119	n/a	n/a	<div class = centerbox><div class = fixation>+</div></div>	none	500.0	test	n/a	n/a	n/a	n/a	n/a	n/a	n/a	n/a	n/a	n/a	n/a	n/a	n/a	n/a	n/a	n/a	n/a	n/a	n/a	fixation
-1387197732.1457529	2750	n/a	1208	71	2750	24.1457528221	stim	stop-signal	50	125042	0.0-7.21-1.21	beast_fmri_test	119	n/a	n/a	<img class = center src='/static/experiments/beast_fmri_test/images/B.png'></img>	89,71	2750.0	test	<img class = center src='/static/experiments/beast_fmri_test/images/redB.png'></img>	go	2050.0	2.0	21.0	go	non-target	B	89,Yellow Button	71,Green Button	550.0	700.0	2200.0	2050.0	1.0	n/a	700.0	1.0	n/a	go_stim
-1387194982.1457529	24.1457528221258	n/a	1208	71	2750	24.1457528221	stim	stop-signal	50	125042	0.0-7.21-1.21	beast_fmri_test	119	n/a	n/a	<img class = center src='/static/experiments/beast_fmri_test/images/B.png'></img>	89,71	2750.0	test	<img class = center src='/static/experiments/beast_fmri_test/images/redB.png'></img>	go	2050.0	2.0	21.0	go	non-target	B	89,Yellow Button	71,Green Button	550.0	700.0	2200.0	2050.0	1.0	n/a	700.0	1.0	n/a	ITI
-1387194428.0	500	n/a	-1	-1	500	0.0	fixation	poldrack-single-stim	51	125572	0.0-7.22-0.22	beast_fmri_test	119	n/a	n/a	<div class = centerbox><div class = fixation>+</div></div>	none	500.0	test	n/a	n/a	n/a	n/a	n/a	n/a	n/a	n/a	n/a	n/a	n/a	n/a	n/a	n/a	n/a	n/a	n/a	n/a	n/a	fixation
-1387198547.1825569	2750	n/a	1281	71	2750	4121.1825568	stim	stop-signal	52	128324	0.0-7.22-1.22	beast_fmri_test	119	n/a	n/a	<img class = center src='/static/experiments/beast_fmri_test/images/V.png'></img>	89,71	2750.0	test	<img class = center src='/static/experiments/beast_fmri_test/images/redV.png'></img>	go	2050.0	2.0	22.0	go	non-target	V	89,Yellow Button	71,Green Button	550.0	700.0	2200.0	2050.0	1.0	n/a	700.0	1.0	n/a	go_stim
-1387195797.1825569	4121.1825567989199	n/a	1281	71	2750	4121.1825568	stim	stop-signal	52	128324	0.0-7.22-1.22	beast_fmri_test	119	n/a	n/a	<img class = center src='/static/experiments/beast_fmri_test/images/V.png'></img>	89,71	2750.0	test	<img class = center src='/static/experiments/beast_fmri_test/images/redV.png'></img>	go	2050.0	2.0	22.0	go	non-target	V	89,Yellow Button	71,Green Button	550.0	700.0	2200.0	2050.0	1.0	n/a	700.0	1.0	n/a	ITI
-1387187048.0	500	n/a	-1	-1	500	0.0	fixation	poldrack-single-stim	53	132952	0.0-7.23-0.23	beast_fmri_test	119	n/a	n/a	<div class = centerbox><div class = fixation>+</div></div>	none	500.0	test	n/a	n/a	n/a	n/a	n/a	n/a	n/a	n/a	n/a	n/a	n/a	n/a	n/a	n/a	n/a	n/a	n/a	n/a	n/a	fixation
-1387187253.6845407	2750	n/a	921	71	2750	207.684540754	stim	stop-signal	54	135704	0.0-7.23-1.23	beast_fmri_test	119	n/a	n/a	<img class = center src='/static/experiments/beast_fmri_test/images/T.png'></img>	89,71	2750.0	test	<img class = center src='/static/experiments/beast_fmri_test/images/redT.png'></img>	go	2050.0	2.0	23.0	go	non-target	T	89,Yellow Button	71,Green Button	550.0	700.0	2200.0	2050.0	1.0	n/a	700.0	1.0	n/a	go_stim
-1387184503.6845407	207.684540753736	n/a	921	71	2750	207.684540754	stim	stop-signal	54	135704	0.0-7.23-1.23	beast_fmri_test	119	n/a	n/a	<img class = center src='/static/experiments/beast_fmri_test/images/T.png'></img>	89,71	2750.0	test	<img class = center src='/static/experiments/beast_fmri_test/images/redT.png'></img>	go	2050.0	2.0	23.0	go	non-target	T	89,Yellow Button	71,Green Button	550.0	700.0	2200.0	2050.0	1.0	n/a	700.0	1.0	n/a	ITI
-1387183582.0	500	n/a	-1	-1	500	0.0	fixation	poldrack-single-stim	55	136418	0.0-7.24-0.24	beast_fmri_test	119	n/a	n/a	<div class = centerbox><div class = fixation>+</div></div>	none	500.0	test	n/a	n/a	n/a	n/a	n/a	n/a	n/a	n/a	n/a	n/a	n/a	n/a	n/a	n/a	n/a	n/a	n/a	n/a	n/a	fixation
-1387183947.7962105	700.0	n/a	1009	71	2750	367.796210425	stim	stop-signal	56	139170	0.0-7.24-1.24	beast_fmri_test	119	138722,/	t	<img class = center src='/static/experiments/beast_fmri_test/images/B.png'></img>	89,71	2750.0	test	<img class = center src='/static/experiments/beast_fmri_test/images/redB.png'></img>	stop	2050.0	2.0	24.0	stop	non-target	B	89,Yellow Button	71,Green Button	550.0	700.0	2200.0	2050.0	0.0	0.0	700.0	1.0	n/a	go_stim
-1387181897.7962105	2050.0	n/a	1009	71	2750	367.796210425	stim	stop-signal	56	139170	0.0-7.24-1.24	beast_fmri_test	119	138722,/	t	<img class = center src='/static/experiments/beast_fmri_test/images/B.png'></img>	89,71	2750.0	test	<img class = center src='/static/experiments/beast_fmri_test/images/redB.png'></img>	stop	2050.0	2.0	24.0	stop	non-target	B	89,Yellow Button	71,Green Button	550.0	700.0	2200.0	2050.0	0.0	0.0	700.0	1.0	n/a	stop_stim
-1387181197.7962105	367.79621042545801	n/a	1009	71	2750	367.796210425	stim	stop-signal	56	139170	0.0-7.24-1.24	beast_fmri_test	119	138722,/	t	<img class = center src='/static/experiments/beast_fmri_test/images/B.png'></img>	89,71	2750.0	test	<img class = center src='/static/experiments/beast_fmri_test/images/redB.png'></img>	stop	2050.0	2.0	24.0	stop	non-target	B	89,Yellow Button	71,Green Button	550.0	700.0	2200.0	2050.0	0.0	0.0	700.0	1.0	n/a	ITI
-1387179957.0	500	n/a	-1	-1	500	0.0	fixation	poldrack-single-stim	57	140043	0.0-7.25-0.25	beast_fmri_test	119	n/a	n/a	<div class = centerbox><div class = fixation>+</div></div>	none	500.0	test	n/a	n/a	n/a	n/a	n/a	n/a	n/a	n/a	n/a	n/a	n/a	n/a	n/a	n/a	n/a	n/a	n/a	n/a	n/a	fixation
-1387180001.9976301	650.0	n/a	-1	-1	2750	46.9976301674	stim	stop-signal	58	142795	0.0-7.25-1.25	beast_fmri_test	119	n/a	n/a	<img class = center src='/static/experiments/beast_fmri_test/images/D.png'></img>	89,71	2750.0	test	<img class = center src='/static/experiments/beast_fmri_test/images/redD.png'></img>	stop	2100.0	2.0	25.0	stop	non-target	D	89,Yellow Button	71,Green Button	550.0	650.0	2200.0	2100.0	0.0	1.0	650.0	0.0	n/a	go_stim
-1387177901.9976301	2100.0	n/a	-1	-1	2750	46.9976301674	stim	stop-signal	58	142795	0.0-7.25-1.25	beast_fmri_test	119	n/a	n/a	<img class = center src='/static/experiments/beast_fmri_test/images/D.png'></img>	89,71	2750.0	test	<img class = center src='/static/experiments/beast_fmri_test/images/redD.png'></img>	stop	2100.0	2.0	25.0	stop	non-target	D	89,Yellow Button	71,Green Button	550.0	650.0	2200.0	2100.0	0.0	1.0	650.0	0.0	n/a	stop_stim
-1387177251.9976301	46.997630167382702	n/a	-1	-1	2750	46.9976301674	stim	stop-signal	58	142795	0.0-7.25-1.25	beast_fmri_test	119	n/a	n/a	<img class = center src='/static/experiments/beast_fmri_test/images/D.png'></img>	89,71	2750.0	test	<img class = center src='/static/experiments/beast_fmri_test/images/redD.png'></img>	stop	2100.0	2.0	25.0	stop	non-target	D	89,Yellow Button	71,Green Button	550.0	650.0	2200.0	2100.0	0.0	1.0	650.0	0.0	n/a	ITI
-1387176652.0	500	n/a	-1	-1	500	0.0	fixation	poldrack-single-stim	59	143348	0.0-7.26-0.26	beast_fmri_test	119	n/a	n/a	<div class = centerbox><div class = fixation>+</div></div>	none	500.0	test	n/a	n/a	n/a	n/a	n/a	n/a	n/a	n/a	n/a	n/a	n/a	n/a	n/a	n/a	n/a	n/a	n/a	n/a	n/a	fixation
-1387178561.0019593	2750	n/a	1433	71	2750	1911.0019593	stim	stop-signal	60	146100	0.0-7.26-1.26	beast_fmri_test	119	n/a	n/a	<img class = center src='/static/experiments/beast_fmri_test/images/V.png'></img>	89,71	2750.0	test	<img class = center src='/static/experiments/beast_fmri_test/images/redV.png'></img>	go	2050.0	2.0	26.0	go	non-target	V	89,Yellow Button	71,Green Button	550.0	700.0	2200.0	2050.0	1.0	n/a	700.0	1.0	n/a	go_stim
-1387175811.0019593	1911.00195930419	n/a	1433	71	2750	1911.0019593	stim	stop-signal	60	146100	0.0-7.26-1.26	beast_fmri_test	119	n/a	n/a	<img class = center src='/static/experiments/beast_fmri_test/images/V.png'></img>	89,71	2750.0	test	<img class = center src='/static/experiments/beast_fmri_test/images/redV.png'></img>	go	2050.0	2.0	26.0	go	non-target	V	89,Yellow Button	71,Green Button	550.0	700.0	2200.0	2050.0	1.0	n/a	700.0	1.0	n/a	ITI
-1387171484.0	500	n/a	-1	-1	500	0.0	fixation	poldrack-single-stim	61	148516	0.0-7.27-0.27	beast_fmri_test	119	n/a	n/a	<div class = centerbox><div class = fixation>+</div></div>	none	500.0	test	n/a	n/a	n/a	n/a	n/a	n/a	n/a	n/a	n/a	n/a	n/a	n/a	n/a	n/a	n/a	n/a	n/a	n/a	n/a	fixation
-1387173501.0720935	2750	n/a	899	71	2750	2019.07209353	stim	stop-signal	62	151268	0.0-7.27-1.27	beast_fmri_test	119	n/a	n/a	<img class = center src='/static/experiments/beast_fmri_test/images/T.png'></img>	89,71	2750.0	test	<img class = center src='/static/experiments/beast_fmri_test/images/redT.png'></img>	go	2050.0	2.0	27.0	go	non-target	T	89,Yellow Button	71,Green Button	550.0	700.0	2200.0	2050.0	1.0	n/a	700.0	1.0	n/a	go_stim
-1387170751.0720935	2019.0720935250199	n/a	899	71	2750	2019.07209353	stim	stop-signal	62	151268	0.0-7.27-1.27	beast_fmri_test	119	n/a	n/a	<img class = center src='/static/experiments/beast_fmri_test/images/T.png'></img>	89,71	2750.0	test	<img class = center src='/static/experiments/beast_fmri_test/images/redT.png'></img>	go	2050.0	2.0	27.0	go	non-target	T	89,Yellow Button	71,Green Button	550.0	700.0	2200.0	2050.0	1.0	n/a	700.0	1.0	n/a	ITI
-1387166208.0	500	n/a	-1	-1	500	0.0	fixation	poldrack-single-stim	63	153792	0.0-7.28-0.28	beast_fmri_test	119	n/a	n/a	<div class = centerbox><div class = fixation>+</div></div>	none	500.0	test	n/a	n/a	n/a	n/a	n/a	n/a	n/a	n/a	n/a	n/a	n/a	n/a	n/a	n/a	n/a	n/a	n/a	n/a	n/a	fixation
-1387166227.1562247	550.0	n/a	-1	-1	2750	21.1562246693	stim	stop-signal	64	156544	0.0-7.28-1.28	beast_fmri_test	119	n/a	n/a	<img class = center src='/static/experiments/beast_fmri_test/images/V.png'></img>	89,71	2750.0	test	<img class = center src='/static/experiments/beast_fmri_test/images/redV.png'></img>	stop	2200.0	2.0	28.0	stop	target	V	89,Yellow Button	71,Green Button	550.0	700.0	2200.0	2050.0	0.0	1.0	550.0	0.0	n/a	go_stim
-1387164027.1562247	2200.0	n/a	-1	-1	2750	21.1562246693	stim	stop-signal	64	156544	0.0-7.28-1.28	beast_fmri_test	119	n/a	n/a	<img class = center src='/static/experiments/beast_fmri_test/images/V.png'></img>	89,71	2750.0	test	<img class = center src='/static/experiments/beast_fmri_test/images/redV.png'></img>	stop	2200.0	2.0	28.0	stop	target	V	89,Yellow Button	71,Green Button	550.0	700.0	2200.0	2050.0	0.0	1.0	550.0	0.0	n/a	stop_stim
-1387163477.1562247	21.156224669322	n/a	-1	-1	2750	21.1562246693	stim	stop-signal	64	156544	0.0-7.28-1.28	beast_fmri_test	119	n/a	n/a	<img class = center src='/static/experiments/beast_fmri_test/images/V.png'></img>	89,71	2750.0	test	<img class = center src='/static/experiments/beast_fmri_test/images/redV.png'></img>	stop	2200.0	2.0	28.0	stop	target	V	89,Yellow Button	71,Green Button	550.0	700.0	2200.0	2050.0	0.0	1.0	550.0	0.0	n/a	ITI
-1387162930.0	500	n/a	-1	-1	500	0.0	fixation	poldrack-single-stim	65	157070	0.0-7.29-0.29	beast_fmri_test	119	n/a	n/a	<div class = centerbox><div class = fixation>+</div></div>	none	500.0	test	n/a	n/a	n/a	n/a	n/a	n/a	n/a	n/a	n/a	n/a	n/a	n/a	n/a	n/a	n/a	n/a	n/a	n/a	n/a	fixation
-1387166240.1604266	600.0	n/a	-1	-1	2750	3312.16042661	stim	stop-signal	66	159822	0.0-7.29-1.29	beast_fmri_test	119	n/a	n/a	<img class = center src='/static/experiments/beast_fmri_test/images/T.png'></img>	89,71	2750.0	test	<img class = center src='/static/experiments/beast_fmri_test/images/redT.png'></img>	stop	2150.0	2.0	29.0	stop	target	T	89,Yellow Button	71,Green Button	600.0	700.0	2150.0	2050.0	0.0	1.0	600.0	0.0	n/a	go_stim
-1387164090.1604266	2150.0	n/a	-1	-1	2750	3312.16042661	stim	stop-signal	66	159822	0.0-7.29-1.29	beast_fmri_test	119	n/a	n/a	<img class = center src='/static/experiments/beast_fmri_test/images/T.png'></img>	89,71	2750.0	test	<img class = center src='/static/experiments/beast_fmri_test/images/redT.png'></img>	stop	2150.0	2.0	29.0	stop	target	T	89,Yellow Button	71,Green Button	600.0	700.0	2150.0	2050.0	0.0	1.0	600.0	0.0	n/a	stop_stim
-1387163490.1604266	3312.1604266071099	n/a	-1	-1	2750	3312.16042661	stim	stop-signal	66	159822	0.0-7.29-1.29	beast_fmri_test	119	n/a	n/a	<img class = center src='/static/experiments/beast_fmri_test/images/T.png'></img>	89,71	2750.0	test	<img class = center src='/static/experiments/beast_fmri_test/images/redT.png'></img>	stop	2150.0	2.0	29.0	stop	target	T	89,Yellow Button	71,Green Button	600.0	700.0	2150.0	2050.0	0.0	1.0	600.0	0.0	n/a	ITI
-1387156358.0	500	n/a	-1	-1	500	0.0	fixation	poldrack-single-stim	67	163642	0.0-7.30-0.30	beast_fmri_test	119	n/a	n/a	<div class = centerbox><div class = fixation>+</div></div>	none	500.0	test	n/a	n/a	n/a	n/a	n/a	n/a	n/a	n/a	n/a	n/a	n/a	n/a	n/a	n/a	n/a	n/a	n/a	n/a	n/a	fixation
-1387156376.8991089	2750	n/a	1207	71	2750	20.8991089267	stim	stop-signal	68	166394	0.0-7.30-1.30	beast_fmri_test	119	165921,/	t	<img class = center src='/static/experiments/beast_fmri_test/images/T.png'></img>	89,71	2750.0	test	<img class = center src='/static/experiments/beast_fmri_test/images/redT.png'></img>	go	2050.0	2.0	30.0	go	non-target	T	89,Yellow Button	71,Green Button	650.0	700.0	2150.0	2050.0	1.0	n/a	700.0	1.0	n/a	go_stim
-1387153626.8991089	20.899108926704201	n/a	1207	71	2750	20.8991089267	stim	stop-signal	68	166394	0.0-7.30-1.30	beast_fmri_test	119	165921,/	t	<img class = center src='/static/experiments/beast_fmri_test/images/T.png'></img>	89,71	2750.0	test	<img class = center src='/static/experiments/beast_fmri_test/images/redT.png'></img>	go	2050.0	2.0	30.0	go	non-target	T	89,Yellow Button	71,Green Button	650.0	700.0	2150.0	2050.0	1.0	n/a	700.0	1.0	n/a	ITI
-1387153081.0	500	n/a	-1	-1	500	0.0	fixation	poldrack-single-stim	69	166919	0.0-7.31-0.31	beast_fmri_test	119	n/a	n/a	<div class = centerbox><div class = fixation>+</div></div>	none	500.0	test	n/a	n/a	n/a	n/a	n/a	n/a	n/a	n/a	n/a	n/a	n/a	n/a	n/a	n/a	n/a	n/a	n/a	n/a	n/a	fixation
-1387153260.2476993	700.0	n/a	-1	-1	2750	181.247699264	stim	stop-signal	70	169671	0.0-7.31-1.31	beast_fmri_test	119	169322,/	t	<img class = center src='/static/experiments/beast_fmri_test/images/B.png'></img>	89,71	2750.0	test	<img class = center src='/static/experiments/beast_fmri_test/images/redB.png'></img>	stop	2050.0	2.0	31.0	stop	non-target	B	89,Yellow Button	71,Green Button	650.0	700.0	2150.0	2050.0	0.0	1.0	700.0	0.0	n/a	go_stim
-1387151210.2476993	2050.0	n/a	-1	-1	2750	181.247699264	stim	stop-signal	70	169671	0.0-7.31-1.31	beast_fmri_test	119	169322,/	t	<img class = center src='/static/experiments/beast_fmri_test/images/B.png'></img>	89,71	2750.0	test	<img class = center src='/static/experiments/beast_fmri_test/images/redB.png'></img>	stop	2050.0	2.0	31.0	stop	non-target	B	89,Yellow Button	71,Green Button	650.0	700.0	2150.0	2050.0	0.0	1.0	700.0	0.0	n/a	stop_stim
-1387150510.2476993	181.24769926351701	n/a	-1	-1	2750	181.247699264	stim	stop-signal	70	169671	0.0-7.31-1.31	beast_fmri_test	119	169322,/	t	<img class = center src='/static/experiments/beast_fmri_test/images/B.png'></img>	89,71	2750.0	test	<img class = center src='/static/experiments/beast_fmri_test/images/redB.png'></img>	stop	2050.0	2.0	31.0	stop	non-target	B	89,Yellow Button	71,Green Button	650.0	700.0	2150.0	2050.0	0.0	1.0	700.0	0.0	n/a	ITI
-1387149641.0	500	n/a	-1	-1	500	0.0	fixation	poldrack-single-stim	71	170359	0.0-7.32-0.32	beast_fmri_test	119	n/a	n/a	<div class = centerbox><div class = fixation>+</div></div>	none	500.0	test	n/a	n/a	n/a	n/a	n/a	n/a	n/a	n/a	n/a	n/a	n/a	n/a	n/a	n/a	n/a	n/a	n/a	n/a	n/a	fixation
-1387150304.2552502	2750	n/a	1716	71	2750	665.255250295	stim	stop-signal	72	173111	0.0-7.32-1.32	beast_fmri_test	119	n/a	n/a	<img class = center src='/static/experiments/beast_fmri_test/images/T.png'></img>	89,71	2750.0	test	<img class = center src='/static/experiments/beast_fmri_test/images/redT.png'></img>	go	2100.0	2.0	32.0	go	target	T	89,Yellow Button	71,Green Button	650.0	750.0	2100.0	2050.0	0.0	n/a	650.0	0.0	n/a	go_stim
-1387147554.2552502	665.255250294907	n/a	1716	71	2750	665.255250295	stim	stop-signal	72	173111	0.0-7.32-1.32	beast_fmri_test	119	n/a	n/a	<img class = center src='/static/experiments/beast_fmri_test/images/T.png'></img>	89,71	2750.0	test	<img class = center src='/static/experiments/beast_fmri_test/images/redT.png'></img>	go	2100.0	2.0	32.0	go	target	T	89,Yellow Button	71,Green Button	650.0	750.0	2100.0	2050.0	0.0	n/a	650.0	0.0	n/a	ITI
-1387145717.0	500	n/a	-1	-1	500	0.0	fixation	poldrack-single-stim	73	174283	0.0-7.33-0.33	beast_fmri_test	119	n/a	n/a	<div class = centerbox><div class = fixation>+</div></div>	none	500.0	test	n/a	n/a	n/a	n/a	n/a	n/a	n/a	n/a	n/a	n/a	n/a	n/a	n/a	n/a	n/a	n/a	n/a	n/a	n/a	fixation
-1387146275.976212	750.0	n/a	-1	-1	2750	560.976212132	stim	stop-signal	74	177035	0.0-7.33-1.33	beast_fmri_test	119	n/a	n/a	<img class = center src='/static/experiments/beast_fmri_test/images/D.png'></img>	89,71	2750.0	test	<img class = center src='/static/experiments/beast_fmri_test/images/redD.png'></img>	stop	2000.0	2.0	33.0	stop	non-target	D	89,Yellow Button	71,Green Button	650.0	750.0	2100.0	2000.0	0.0	1.0	750.0	0.0	n/a	go_stim
-1387144275.976212	2000.0	n/a	-1	-1	2750	560.976212132	stim	stop-signal	74	177035	0.0-7.33-1.33	beast_fmri_test	119	n/a	n/a	<img class = center src='/static/experiments/beast_fmri_test/images/D.png'></img>	89,71	2750.0	test	<img class = center src='/static/experiments/beast_fmri_test/images/redD.png'></img>	stop	2000.0	2.0	33.0	stop	non-target	D	89,Yellow Button	71,Green Button	650.0	750.0	2100.0	2000.0	0.0	1.0	750.0	0.0	n/a	stop_stim
-1387143525.976212	560.976212132466	n/a	-1	-1	2750	560.976212132	stim	stop-signal	74	177035	0.0-7.33-1.33	beast_fmri_test	119	n/a	n/a	<img class = center src='/static/experiments/beast_fmri_test/images/D.png'></img>	89,71	2750.0	test	<img class = center src='/static/experiments/beast_fmri_test/images/redD.png'></img>	stop	2000.0	2.0	33.0	stop	non-target	D	89,Yellow Button	71,Green Button	650.0	750.0	2100.0	2000.0	0.0	1.0	750.0	0.0	n/a	ITI
-1387141900.0	500	n/a	-1	-1	500	0.0	fixation	poldrack-single-stim	75	178100	0.0-7.34-0.34	beast_fmri_test	119	n/a	n/a	<div class = centerbox><div class = fixation>+</div></div>	none	500.0	test	n/a	n/a	n/a	n/a	n/a	n/a	n/a	n/a	n/a	n/a	n/a	n/a	n/a	n/a	n/a	n/a	n/a	n/a	n/a	fixation
-1387143700.0518568	2750	n/a	1310	71	2750	1803.05185672	stim	stop-signal	76	180853	0.0-7.34-1.34	beast_fmri_test	119	n/a	n/a	<img class = center src='/static/experiments/beast_fmri_test/images/P.png'></img>	89,71	2750.0	test	<img class = center src='/static/experiments/beast_fmri_test/images/redP.png'></img>	go	1950.0	2.0	34.0	go	non-target	P	89,Yellow Button	71,Green Button	650.0	800.0	2100.0	1950.0	1.0	n/a	800.0	1.0	n/a	go_stim
-1387140950.0518568	1803.0518567183899	n/a	1310	71	2750	1803.05185672	stim	stop-signal	76	180853	0.0-7.34-1.34	beast_fmri_test	119	n/a	n/a	<img class = center src='/static/experiments/beast_fmri_test/images/P.png'></img>	89,71	2750.0	test	<img class = center src='/static/experiments/beast_fmri_test/images/redP.png'></img>	go	1950.0	2.0	34.0	go	non-target	P	89,Yellow Button	71,Green Button	650.0	800.0	2100.0	1950.0	1.0	n/a	800.0	1.0	n/a	ITI
-1387136838.0	500	n/a	-1	-1	500	0.0	fixation	poldrack-single-stim	77	183162	0.0-7.35-0.35	beast_fmri_test	119	n/a	n/a	<div class = centerbox><div class = fixation>+</div></div>	none	500.0	test	n/a	n/a	n/a	n/a	n/a	n/a	n/a	n/a	n/a	n/a	n/a	n/a	n/a	n/a	n/a	n/a	n/a	n/a	n/a	fixation
-1387137195.9885025	2750	n/a	1038	71	2750	359.988502496	stim	stop-signal	78	185914	0.0-7.35-1.35	beast_fmri_test	119	n/a	n/a	<img class = center src='/static/experiments/beast_fmri_test/images/D.png'></img>	89,71	2750.0	test	<img class = center src='/static/experiments/beast_fmri_test/images/redD.png'></img>	go	2100.0	2.0	35.0	go	target	D	89,Yellow Button	71,Green Button	650.0	800.0	2100.0	1950.0	0.0	n/a	650.0	0.0	n/a	go_stim
-1387134445.9885025	359.98850249626702	n/a	1038	71	2750	359.988502496	stim	stop-signal	78	185914	0.0-7.35-1.35	beast_fmri_test	119	n/a	n/a	<img class = center src='/static/experiments/beast_fmri_test/images/D.png'></img>	89,71	2750.0	test	<img class = center src='/static/experiments/beast_fmri_test/images/redD.png'></img>	go	2100.0	2.0	35.0	go	target	D	89,Yellow Button	71,Green Button	650.0	800.0	2100.0	1950.0	0.0	n/a	650.0	0.0	n/a	ITI
-1387133220.0	500	n/a	-1	-1	500	0.0	fixation	poldrack-single-stim	79	186780	0.0-7.36-0.36	beast_fmri_test	119	n/a	n/a	<div class = centerbox><div class = fixation>+</div></div>	none	500.0	test	n/a	n/a	n/a	n/a	n/a	n/a	n/a	n/a	n/a	n/a	n/a	n/a	n/a	n/a	n/a	n/a	n/a	n/a	n/a	fixation
-1387134651.0037994	2750	n/a	1157	71	2750	1433.00379935	stim	stop-signal	80	189532	0.0-7.36-1.36	beast_fmri_test	119	190403,/	t	<img class = center src='/static/experiments/beast_fmri_test/images/P.png'></img>	89,71	2750.0	test	<img class = center src='/static/experiments/beast_fmri_test/images/redP.png'></img>	go	2100.0	2.0	36.0	go	target	P	89,Yellow Button	71,Green Button	650.0	800.0	2100.0	1950.0	0.0	n/a	650.0	0.0	n/a	go_stim
-1387131901.0037994	1433.0037993533001	n/a	1157	71	2750	1433.00379935	stim	stop-signal	80	189532	0.0-7.36-1.36	beast_fmri_test	119	190403,/	t	<img class = center src='/static/experiments/beast_fmri_test/images/P.png'></img>	89,71	2750.0	test	<img class = center src='/static/experiments/beast_fmri_test/images/redP.png'></img>	go	2100.0	2.0	36.0	go	target	P	89,Yellow Button	71,Green Button	650.0	800.0	2100.0	1950.0	0.0	n/a	650.0	0.0	n/a	ITI
-1387128527.0	500	n/a	-1	-1	500	0.0	fixation	poldrack-single-stim	81	191473	0.0-7.37-0.37	beast_fmri_test	119	n/a	n/a	<div class = centerbox><div class = fixation>+</div></div>	none	500.0	test	n/a	n/a	n/a	n/a	n/a	n/a	n/a	n/a	n/a	n/a	n/a	n/a	n/a	n/a	n/a	n/a	n/a	n/a	n/a	fixation
-1387129485.2743282	650.0	n/a	-1	-1	2750	960.274328303	stim	stop-signal	82	194225	0.0-7.37-1.37	beast_fmri_test	119	n/a	n/a	<img class = center src='/static/experiments/beast_fmri_test/images/D.png'></img>	89,71	2750.0	test	<img class = center src='/static/experiments/beast_fmri_test/images/redD.png'></img>	stop	2100.0	2.0	37.0	stop	target	D	89,Yellow Button	71,Green Button	650.0	800.0	2100.0	1950.0	0.0	1.0	650.0	0.0	n/a	go_stim
-1387127385.2743282	2100.0	n/a	-1	-1	2750	960.274328303	stim	stop-signal	82	194225	0.0-7.37-1.37	beast_fmri_test	119	n/a	n/a	<img class = center src='/static/experiments/beast_fmri_test/images/D.png'></img>	89,71	2750.0	test	<img class = center src='/static/experiments/beast_fmri_test/images/redD.png'></img>	stop	2100.0	2.0	37.0	stop	target	D	89,Yellow Button	71,Green Button	650.0	800.0	2100.0	1950.0	0.0	1.0	650.0	0.0	n/a	stop_stim
-1387126735.2743282	960.27432830277405	n/a	-1	-1	2750	960.274328303	stim	stop-signal	82	194225	0.0-7.37-1.37	beast_fmri_test	119	n/a	n/a	<img class = center src='/static/experiments/beast_fmri_test/images/D.png'></img>	89,71	2750.0	test	<img class = center src='/static/experiments/beast_fmri_test/images/redD.png'></img>	stop	2100.0	2.0	37.0	stop	target	D	89,Yellow Button	71,Green Button	650.0	800.0	2100.0	1950.0	0.0	1.0	650.0	0.0	n/a	ITI
-1387124308.0	500	n/a	-1	-1	500	0.0	fixation	poldrack-single-stim	83	195692	0.0-7.38-0.38	beast_fmri_test	119	n/a	n/a	<div class = centerbox><div class = fixation>+</div></div>	none	500.0	test	n/a	n/a	n/a	n/a	n/a	n/a	n/a	n/a	n/a	n/a	n/a	n/a	n/a	n/a	n/a	n/a	n/a	n/a	n/a	fixation
-1387128212.7487681	700.0	n/a	-1	-1	2750	3906.74876817	stim	stop-signal	84	198444	0.0-7.38-1.38	beast_fmri_test	119	n/a	n/a	<img class = center src='/static/experiments/beast_fmri_test/images/P.png'></img>	89,71	2750.0	test	<img class = center src='/static/experiments/beast_fmri_test/images/redP.png'></img>	stop	2050.0	2.0	38.0	stop	target	P	89,Yellow Button	71,Green Button	700.0	800.0	2050.0	1950.0	0.0	1.0	700.0	0.0	n/a	go_stim
-1387126162.7487681	2050.0	n/a	-1	-1	2750	3906.74876817	stim	stop-signal	84	198444	0.0-7.38-1.38	beast_fmri_test	119	n/a	n/a	<img class = center src='/static/experiments/beast_fmri_test/images/P.png'></img>	89,71	2750.0	test	<img class = center src='/static/experiments/beast_fmri_test/images/redP.png'></img>	stop	2050.0	2.0	38.0	stop	target	P	89,Yellow Button	71,Green Button	700.0	800.0	2050.0	1950.0	0.0	1.0	700.0	0.0	n/a	stop_stim
-1387125462.7487681	3906.7487681672901	n/a	-1	-1	2750	3906.74876817	stim	stop-signal	84	198444	0.0-7.38-1.38	beast_fmri_test	119	n/a	n/a	<img class = center src='/static/experiments/beast_fmri_test/images/P.png'></img>	89,71	2750.0	test	<img class = center src='/static/experiments/beast_fmri_test/images/redP.png'></img>	stop	2050.0	2.0	38.0	stop	target	P	89,Yellow Button	71,Green Button	700.0	800.0	2050.0	1950.0	0.0	1.0	700.0	0.0	n/a	ITI
-1387117143.0	500	n/a	-1	-1	500	0.0	fixation	poldrack-single-stim	85	202857	0.0-7.39-0.39	beast_fmri_test	119	n/a	n/a	<div class = centerbox><div class = fixation>+</div></div>	none	500.0	test	n/a	n/a	n/a	n/a	n/a	n/a	n/a	n/a	n/a	n/a	n/a	n/a	n/a	n/a	n/a	n/a	n/a	n/a	n/a	fixation
-1387117443.9986508	2750	n/a	1041	71	2750	302.998650904	stim	stop-signal	86	205609	0.0-7.39-1.39	beast_fmri_test	119	n/a	n/a	<img class = center src='/static/experiments/beast_fmri_test/images/B.png'></img>	89,71	2750.0	test	<img class = center src='/static/experiments/beast_fmri_test/images/redB.png'></img>	go	1950.0	2.0	39.0	go	non-target	B	89,Yellow Button	71,Green Button	750.0	800.0	2050.0	1950.0	1.0	n/a	800.0	1.0	n/a	go_stim
-1387114693.9986508	302.99865090428102	n/a	1041	71	2750	302.998650904	stim	stop-signal	86	205609	0.0-7.39-1.39	beast_fmri_test	119	n/a	n/a	<img class = center src='/static/experiments/beast_fmri_test/images/B.png'></img>	89,71	2750.0	test	<img class = center src='/static/experiments/beast_fmri_test/images/redB.png'></img>	go	1950.0	2.0	39.0	go	non-target	B	89,Yellow Button	71,Green Button	750.0	800.0	2050.0	1950.0	1.0	n/a	800.0	1.0	n/a	ITI
-1387113582.0	500	n/a	-1	-1	500	0.0	fixation	poldrack-single-stim	87	206418	0.0-7.40-0.40	beast_fmri_test	119	n/a	n/a	<div class = centerbox><div class = fixation>+</div></div>	none	500.0	test	n/a	n/a	n/a	n/a	n/a	n/a	n/a	n/a	n/a	n/a	n/a	n/a	n/a	n/a	n/a	n/a	n/a	n/a	n/a	fixation
-1387114259.2921271	2750	n/a	2555	71	2750	678.292127177	stim	stop-signal	88	209169	0.0-7.40-1.40	beast_fmri_test	119	n/a	n/a	<img class = center src='/static/experiments/beast_fmri_test/images/B.png'></img>	89,71	2750.0	test	<img class = center src='/static/experiments/beast_fmri_test/images/redB.png'></img>	go	1950.0	2.0	40.0	go	non-target	B	89,Yellow Button	71,Green Button	750.0	800.0	2050.0	1950.0	1.0	n/a	800.0	1.0	n/a	go_stim
-1387111509.2921271	678.29212717717905	n/a	2555	71	2750	678.292127177	stim	stop-signal	88	209169	0.0-7.40-1.40	beast_fmri_test	119	n/a	n/a	<img class = center src='/static/experiments/beast_fmri_test/images/B.png'></img>	89,71	2750.0	test	<img class = center src='/static/experiments/beast_fmri_test/images/redB.png'></img>	go	1950.0	2.0	40.0	go	non-target	B	89,Yellow Button	71,Green Button	750.0	800.0	2050.0	1950.0	1.0	n/a	800.0	1.0	n/a	ITI
-1387109645.0	500	n/a	-1	-1	500	0.0	fixation	poldrack-single-stim	89	210355	0.0-7.41-0.41	beast_fmri_test	119	n/a	n/a	<div class = centerbox><div class = fixation>+</div></div>	none	500.0	test	n/a	n/a	n/a	n/a	n/a	n/a	n/a	n/a	n/a	n/a	n/a	n/a	n/a	n/a	n/a	n/a	n/a	n/a	n/a	fixation
-1387110914.47563	2750	n/a	1110	71	2750	1271.47562995	stim	stop-signal	90	213107	0.0-7.41-1.41	beast_fmri_test	119	n/a	n/a	<img class = center src='/static/experiments/beast_fmri_test/images/V.png'></img>	89,71	2750.0	test	<img class = center src='/static/experiments/beast_fmri_test/images/redV.png'></img>	go	1950.0	2.0	41.0	go	non-target	V	89,Yellow Button	71,Green Button	750.0	800.0	2050.0	1950.0	1.0	n/a	800.0	1.0	n/a	go_stim
-1387108164.47563	1271.47562994854	n/a	1110	71	2750	1271.47562995	stim	stop-signal	90	213107	0.0-7.41-1.41	beast_fmri_test	119	n/a	n/a	<img class = center src='/static/experiments/beast_fmri_test/images/V.png'></img>	89,71	2750.0	test	<img class = center src='/static/experiments/beast_fmri_test/images/redV.png'></img>	go	1950.0	2.0	41.0	go	non-target	V	89,Yellow Button	71,Green Button	750.0	800.0	2050.0	1950.0	1.0	n/a	800.0	1.0	n/a	ITI
-1387105116.0	500	n/a	-1	-1	500	0.0	fixation	poldrack-single-stim	91	214884	0.0-7.42-0.42	beast_fmri_test	119	n/a	n/a	<div class = centerbox><div class = fixation>+</div></div>	none	500.0	test	n/a	n/a	n/a	n/a	n/a	n/a	n/a	n/a	n/a	n/a	n/a	n/a	n/a	n/a	n/a	n/a	n/a	n/a	n/a	fixation
-1387105773.3026195	800.0	n/a	-1	-1	2750	658.30261938	stim	stop-signal	92	217635	0.0-7.42-1.42	beast_fmri_test	119	n/a	n/a	<img class = center src='/static/experiments/beast_fmri_test/images/D.png'></img>	89,71	2750.0	test	<img class = center src='/static/experiments/beast_fmri_test/images/redD.png'></img>	stop	1950.0	2.0	42.0	stop	non-target	D	89,Yellow Button	71,Green Button	750.0	800.0	2050.0	1950.0	0.0	1.0	800.0	0.0	n/a	go_stim
-1387103823.3026195	1950.0	n/a	-1	-1	2750	658.30261938	stim	stop-signal	92	217635	0.0-7.42-1.42	beast_fmri_test	119	n/a	n/a	<img class = center src='/static/experiments/beast_fmri_test/images/D.png'></img>	89,71	2750.0	test	<img class = center src='/static/experiments/beast_fmri_test/images/redD.png'></img>	stop	1950.0	2.0	42.0	stop	non-target	D	89,Yellow Button	71,Green Button	750.0	800.0	2050.0	1950.0	0.0	1.0	800.0	0.0	n/a	stop_stim
-1387103023.3026195	658.302619379833	n/a	-1	-1	2750	658.30261938	stim	stop-signal	92	217635	0.0-7.42-1.42	beast_fmri_test	119	n/a	n/a	<img class = center src='/static/experiments/beast_fmri_test/images/D.png'></img>	89,71	2750.0	test	<img class = center src='/static/experiments/beast_fmri_test/images/redD.png'></img>	stop	1950.0	2.0	42.0	stop	non-target	D	89,Yellow Button	71,Green Button	750.0	800.0	2050.0	1950.0	0.0	1.0	800.0	0.0	n/a	ITI
-1387101202.0	500	n/a	-1	-1	500	0.0	fixation	poldrack-single-stim	93	218798	0.0-7.43-0.43	beast_fmri_test	119	n/a	n/a	<div class = centerbox><div class = fixation>+</div></div>	none	500.0	test	n/a	n/a	n/a	n/a	n/a	n/a	n/a	n/a	n/a	n/a	n/a	n/a	n/a	n/a	n/a	n/a	n/a	n/a	n/a	fixation
-1387101423.74613	2750	n/a	1040	89	2750	224.746129978	stim	stop-signal	94	221551	0.0-7.43-1.43	beast_fmri_test	119	n/a	n/a	<img class = center src='/static/experiments/beast_fmri_test/images/V.png'></img>	89,71	2750.0	test	<img class = center src='/static/experiments/beast_fmri_test/images/redV.png'></img>	go	2000.0	2.0	43.0	go	target	V	89,Yellow Button	71,Green Button	750.0	850.0	2000.0	1950.0	1.0	n/a	750.0	1.0	n/a	go_stim
-1387098673.74613	224.74612997801199	n/a	1040	89	2750	224.746129978	stim	stop-signal	94	221551	0.0-7.43-1.43	beast_fmri_test	119	n/a	n/a	<img class = center src='/static/experiments/beast_fmri_test/images/V.png'></img>	89,71	2750.0	test	<img class = center src='/static/experiments/beast_fmri_test/images/redV.png'></img>	go	2000.0	2.0	43.0	go	target	V	89,Yellow Button	71,Green Button	750.0	850.0	2000.0	1950.0	1.0	n/a	750.0	1.0	n/a	ITI
-1387097720.0	500	n/a	-1	-1	500	0.0	fixation	poldrack-single-stim	95	222280	0.0-7.44-0.44	beast_fmri_test	119	n/a	n/a	<div class = centerbox><div class = fixation>+</div></div>	none	500.0	test	n/a	n/a	n/a	n/a	n/a	n/a	n/a	n/a	n/a	n/a	n/a	n/a	n/a	n/a	n/a	n/a	n/a	n/a	n/a	fixation
-1387098607.6963334	850.0	n/a	-1	-1	2750	889.696333441	stim	stop-signal	96	225032	0.0-7.44-1.44	beast_fmri_test	119	n/a	n/a	<img class = center src='/static/experiments/beast_fmri_test/images/V.png'></img>	89,71	2750.0	test	<img class = center src='/static/experiments/beast_fmri_test/images/redV.png'></img>	stop	1900.0	2.0	44.0	stop	non-target	V	89,Yellow Button	71,Green Button	750.0	850.0	2000.0	1900.0	0.0	1.0	850.0	0.0	n/a	go_stim
-1387096707.6963334	1900.0	n/a	-1	-1	2750	889.696333441	stim	stop-signal	96	225032	0.0-7.44-1.44	beast_fmri_test	119	n/a	n/a	<img class = center src='/static/experiments/beast_fmri_test/images/V.png'></img>	89,71	2750.0	test	<img class = center src='/static/experiments/beast_fmri_test/images/redV.png'></img>	stop	1900.0	2.0	44.0	stop	non-target	V	89,Yellow Button	71,Green Button	750.0	850.0	2000.0	1900.0	0.0	1.0	850.0	0.0	n/a	stop_stim
-1387095857.6963334	889.69633344116801	n/a	-1	-1	2750	889.696333441	stim	stop-signal	96	225032	0.0-7.44-1.44	beast_fmri_test	119	n/a	n/a	<img class = center src='/static/experiments/beast_fmri_test/images/V.png'></img>	89,71	2750.0	test	<img class = center src='/static/experiments/beast_fmri_test/images/redV.png'></img>	stop	1900.0	2.0	44.0	stop	non-target	V	89,Yellow Button	71,Green Button	750.0	850.0	2000.0	1900.0	0.0	1.0	850.0	0.0	n/a	ITI
-1387093572.0	500	n/a	-1	-1	500	0.0	fixation	poldrack-single-stim	97	226428	0.0-7.45-0.45	beast_fmri_test	119	n/a	n/a	<div class = centerbox><div class = fixation>+</div></div>	none	500.0	test	n/a	n/a	n/a	n/a	n/a	n/a	n/a	n/a	n/a	n/a	n/a	n/a	n/a	n/a	n/a	n/a	n/a	n/a	n/a	fixation
-1387097416.901633	2750	n/a	779	71	2750	3846.90163293	stim	stop-signal	98	229180	0.0-7.45-1.45	beast_fmri_test	119	n/a	n/a	<img class = center src='/static/experiments/beast_fmri_test/images/T.png'></img>	89,71	2750.0	test	<img class = center src='/static/experiments/beast_fmri_test/images/redT.png'></img>	go	1850.0	2.0	45.0	go	non-target	T	89,Yellow Button	71,Green Button	750.0	900.0	2000.0	1850.0	1.0	n/a	900.0	1.0	n/a	go_stim
-1387094666.901633	3846.90163293153	n/a	779	71	2750	3846.90163293	stim	stop-signal	98	229180	0.0-7.45-1.45	beast_fmri_test	119	n/a	n/a	<img class = center src='/static/experiments/beast_fmri_test/images/T.png'></img>	89,71	2750.0	test	<img class = center src='/static/experiments/beast_fmri_test/images/redT.png'></img>	go	1850.0	2.0	45.0	go	non-target	T	89,Yellow Button	71,Green Button	750.0	900.0	2000.0	1850.0	1.0	n/a	900.0	1.0	n/a	ITI
-1387086466.0	500	n/a	-1	-1	500	0.0	fixation	poldrack-single-stim	99	233534	0.0-7.46-0.46	beast_fmri_test	119	n/a	n/a	<div class = centerbox><div class = fixation>+</div></div>	none	500.0	test	n/a	n/a	n/a	n/a	n/a	n/a	n/a	n/a	n/a	n/a	n/a	n/a	n/a	n/a	n/a	n/a	n/a	n/a	n/a	fixation
-1387087585.6222978	2750	n/a	1004	71	2750	1121.62229774	stim	stop-signal	100	236286	0.0-7.46-1.46	beast_fmri_test	119	237323,/	t	<img class = center src='/static/experiments/beast_fmri_test/images/D.png'></img>	89,71	2750.0	test	<img class = center src='/static/experiments/beast_fmri_test/images/redD.png'></img>	go	1850.0	2.0	46.0	go	non-target	D	89,Yellow Button	71,Green Button	750.0	900.0	2000.0	1850.0	1.0	n/a	900.0	1.0	n/a	go_stim
-1387084835.6222978	1121.6222977395601	n/a	1004	71	2750	1121.62229774	stim	stop-signal	100	236286	0.0-7.46-1.46	beast_fmri_test	119	237323,/	t	<img class = center src='/static/experiments/beast_fmri_test/images/D.png'></img>	89,71	2750.0	test	<img class = center src='/static/experiments/beast_fmri_test/images/redD.png'></img>	go	1850.0	2.0	46.0	go	non-target	D	89,Yellow Button	71,Green Button	750.0	900.0	2000.0	1850.0	1.0	n/a	900.0	1.0	n/a	ITI
-1387067586.0	15000	n/a	-1	-1	15000	0.0	practice-no-stop-feedback	poldrack-single-stim	101	252414	0.0-8.0	beast_fmri_test	119	n/a	n/a	"<div class = ""centerbox""><p class = ""center-block-text"">Your delay is 2 trials.</p><p class = center-block-text>Please wait for the scanner to start the block</p></div>"	77	15000.0	n/a	n/a	n/a	n/a	n/a	n/a	n/a	n/a	n/a	n/a	n/a	n/a	n/a	n/a	n/a	n/a	n/a	n/a	n/a	n/a	practice-no-stop-feedback
-1387067084.0	500	n/a	-1	-1	500	0.0	fixation	poldrack-single-stim	102	252916	0.0-9.0-0.0	beast_fmri_test	119	n/a	n/a	<div class = centerbox><div class = fixation>+</div></div>	none	500.0	test	n/a	n/a	n/a	n/a	n/a	n/a	n/a	n/a	n/a	n/a	n/a	n/a	n/a	n/a	n/a	n/a	n/a	n/a	n/a	fixation
-1387067399.5018556	temp_go_duration	n/a	1128	71	2750	317.501855673	stim	stop-signal	103	255668	0.0-9.0-1.0	beast_fmri_test	119	n/a	n/a	<img class = center src='/static/experiments/beast_fmri_test/images/T.png'></img>	89,71	2750.0	test	<img class = center src='/static/experiments/beast_fmri_test/images/redT.png'></img>	stop	-1.0	2.0	0.0	stop	temp-non-target	T	89,Yellow Button	71,Green Button	750.0	900.0	2000.0	1850.0	0.0	0.0	n/a	n/a	n/a	go_stim
temp-non-target	temp_stop_duration	n/a	1128	71	2750	317.501855673	stim	stop-signal	103	255668	0.0-9.0-1.0	beast_fmri_test	119	n/a	n/a	<img class = center src='/static/experiments/beast_fmri_test/images/T.png'></img>	89,71	2750.0	test	<img class = center src='/static/experiments/beast_fmri_test/images/redT.png'></img>	stop	-1.0	2.0	0.0	stop	temp-non-target	T	89,Yellow Button	71,Green Button	750.0	900.0	2000.0	1850.0	0.0	0.0	n/a	n/a	n/a	stop_stim
-1387064649.5018556	317.50185567335802	n/a	1128	71	2750	317.501855673	stim	stop-signal	103	255668	0.0-9.0-1.0	beast_fmri_test	119	n/a	n/a	<img class = center src='/static/experiments/beast_fmri_test/images/T.png'></img>	89,71	2750.0	test	<img class = center src='/static/experiments/beast_fmri_test/images/redT.png'></img>	stop	-1.0	2.0	0.0	stop	temp-non-target	T	89,Yellow Button	71,Green Button	750.0	900.0	2000.0	1850.0	0.0	0.0	n/a	n/a	n/a	ITI
-1387063510.0	500	n/a	-1	-1	500	0.0	fixation	poldrack-single-stim	104	256490	0.0-9.1-0.1	beast_fmri_test	119	n/a	n/a	<div class = centerbox><div class = fixation>+</div></div>	none	500.0	test	n/a	n/a	n/a	n/a	n/a	n/a	n/a	n/a	n/a	n/a	n/a	n/a	n/a	n/a	n/a	n/a	n/a	n/a	n/a	fixation
-1387063671.49964	2750	n/a	1278	71	2750	163.499640071	stim	stop-signal	105	259242	0.0-9.1-1.1	beast_fmri_test	119	n/a	n/a	<img class = center src='/static/experiments/beast_fmri_test/images/T.png'></img>	89,71	2750.0	test	<img class = center src='/static/experiments/beast_fmri_test/images/redT.png'></img>	go	-1.0	2.0	1.0	go	temp-non-target	T	89,Yellow Button	71,Green Button	750.0	900.0	2000.0	1850.0	0.0	n/a	n/a	n/a	n/a	go_stim
-1387060921.49964	163.49964007110401	n/a	1278	71	2750	163.499640071	stim	stop-signal	105	259242	0.0-9.1-1.1	beast_fmri_test	119	n/a	n/a	<img class = center src='/static/experiments/beast_fmri_test/images/T.png'></img>	89,71	2750.0	test	<img class = center src='/static/experiments/beast_fmri_test/images/redT.png'></img>	go	-1.0	2.0	1.0	go	temp-non-target	T	89,Yellow Button	71,Green Button	750.0	900.0	2000.0	1850.0	0.0	n/a	n/a	n/a	n/a	ITI
-1387060087.0	500	n/a	-1	-1	500	0.0	fixation	poldrack-single-stim	106	259913	0.0-9.2-0.2	beast_fmri_test	119	n/a	n/a	<div class = centerbox><div class = fixation>+</div></div>	none	500.0	test	n/a	n/a	n/a	n/a	n/a	n/a	n/a	n/a	n/a	n/a	n/a	n/a	n/a	n/a	n/a	n/a	n/a	n/a	n/a	fixation
-1387061507.2913074	2750	n/a	1143	89	2750	1422.29130746	stim	stop-signal	107	262665	0.0-9.2-1.2	beast_fmri_test	119	n/a	n/a	<img class = center src='/static/experiments/beast_fmri_test/images/T.png'></img>	89,71	2750.0	test	<img class = center src='/static/experiments/beast_fmri_test/images/redT.png'></img>	go	2000.0	2.0	2.0	go	target	T	89,Yellow Button	71,Green Button	750.0	900.0	2000.0	1850.0	1.0	n/a	750.0	1.0	n/a	go_stim
-1387058757.2913074	1422.2913074641799	n/a	1143	89	2750	1422.29130746	stim	stop-signal	107	262665	0.0-9.2-1.2	beast_fmri_test	119	n/a	n/a	<img class = center src='/static/experiments/beast_fmri_test/images/T.png'></img>	89,71	2750.0	test	<img class = center src='/static/experiments/beast_fmri_test/images/redT.png'></img>	go	2000.0	2.0	2.0	go	target	T	89,Yellow Button	71,Green Button	750.0	900.0	2000.0	1850.0	1.0	n/a	750.0	1.0	n/a	ITI
-1387055406.0	500	n/a	-1	-1	500	0.0	fixation	poldrack-single-stim	108	264594	0.0-9.3-0.3	beast_fmri_test	119	n/a	n/a	<div class = centerbox><div class = fixation>+</div></div>	none	500.0	test	n/a	n/a	n/a	n/a	n/a	n/a	n/a	n/a	n/a	n/a	n/a	n/a	n/a	n/a	n/a	n/a	n/a	n/a	n/a	fixation
-1387057413.2675586	2750	n/a	1134	89	2750	2010.26755852	stim	stop-signal	109	267347	0.0-9.3-1.3	beast_fmri_test	119	n/a	n/a	<img class = center src='/static/experiments/beast_fmri_test/images/T.png'></img>	89,71	2750.0	test	<img class = center src='/static/experiments/beast_fmri_test/images/redT.png'></img>	go	2000.0	2.0	3.0	go	target	T	89,Yellow Button	71,Green Button	750.0	900.0	2000.0	1850.0	1.0	n/a	750.0	1.0	n/a	go_stim
-1387054663.2675586	2010.2675585197301	n/a	1134	89	2750	2010.26755852	stim	stop-signal	109	267347	0.0-9.3-1.3	beast_fmri_test	119	n/a	n/a	<img class = center src='/static/experiments/beast_fmri_test/images/T.png'></img>	89,71	2750.0	test	<img class = center src='/static/experiments/beast_fmri_test/images/redT.png'></img>	go	2000.0	2.0	3.0	go	target	T	89,Yellow Button	71,Green Button	750.0	900.0	2000.0	1850.0	1.0	n/a	750.0	1.0	n/a	ITI
-1387050136.0	500	n/a	-1	-1	500	0.0	fixation	poldrack-single-stim	110	269864	0.0-9.4-0.4	beast_fmri_test	119	n/a	n/a	<div class = centerbox><div class = fixation>+</div></div>	none	500.0	test	n/a	n/a	n/a	n/a	n/a	n/a	n/a	n/a	n/a	n/a	n/a	n/a	n/a	n/a	n/a	n/a	n/a	n/a	n/a	fixation
-1387051069.8893137	2750	n/a	1096	89	2750	935.889313676	stim	stop-signal	111	272616	0.0-9.4-1.4	beast_fmri_test	119	n/a	n/a	<img class = center src='/static/experiments/beast_fmri_test/images/T.png'></img>	89,71	2750.0	test	<img class = center src='/static/experiments/beast_fmri_test/images/redT.png'></img>	go	2000.0	2.0	4.0	go	target	T	89,Yellow Button	71,Green Button	750.0	900.0	2000.0	1850.0	1.0	n/a	750.0	1.0	n/a	go_stim
-1387048319.8893137	935.88931367647206	n/a	1096	89	2750	935.889313676	stim	stop-signal	111	272616	0.0-9.4-1.4	beast_fmri_test	119	n/a	n/a	<img class = center src='/static/experiments/beast_fmri_test/images/T.png'></img>	89,71	2750.0	test	<img class = center src='/static/experiments/beast_fmri_test/images/redT.png'></img>	go	2000.0	2.0	4.0	go	target	T	89,Yellow Button	71,Green Button	750.0	900.0	2000.0	1850.0	1.0	n/a	750.0	1.0	n/a	ITI
-1387045940.0	500	n/a	-1	-1	500	0.0	fixation	poldrack-single-stim	112	274060	0.0-9.5-0.5	beast_fmri_test	119	n/a	n/a	<div class = centerbox><div class = fixation>+</div></div>	none	500.0	test	n/a	n/a	n/a	n/a	n/a	n/a	n/a	n/a	n/a	n/a	n/a	n/a	n/a	n/a	n/a	n/a	n/a	n/a	n/a	fixation
-1387048249.1378431	900.0	n/a	902	71	2750	2311.13784304	stim	stop-signal	113	276812	0.0-9.5-1.5	beast_fmri_test	119	n/a	n/a	<img class = center src='/static/experiments/beast_fmri_test/images/P.png'></img>	89,71	2750.0	test	<img class = center src='/static/experiments/beast_fmri_test/images/redP.png'></img>	stop	1850.0	2.0	5.0	stop	non-target	P	89,Yellow Button	71,Green Button	750.0	900.0	2000.0	1850.0	0.0	0.0	900.0	1.0	n/a	go_stim
-1387046399.1378431	1850.0	n/a	902	71	2750	2311.13784304	stim	stop-signal	113	276812	0.0-9.5-1.5	beast_fmri_test	119	n/a	n/a	<img class = center src='/static/experiments/beast_fmri_test/images/P.png'></img>	89,71	2750.0	test	<img class = center src='/static/experiments/beast_fmri_test/images/redP.png'></img>	stop	1850.0	2.0	5.0	stop	non-target	P	89,Yellow Button	71,Green Button	750.0	900.0	2000.0	1850.0	0.0	0.0	900.0	1.0	n/a	stop_stim
-1387045499.1378431	2311.1378430381101	n/a	902	71	2750	2311.13784304	stim	stop-signal	113	276812	0.0-9.5-1.5	beast_fmri_test	119	n/a	n/a	<img class = center src='/static/experiments/beast_fmri_test/images/P.png'></img>	89,71	2750.0	test	<img class = center src='/static/experiments/beast_fmri_test/images/redP.png'></img>	stop	1850.0	2.0	5.0	stop	non-target	P	89,Yellow Button	71,Green Button	750.0	900.0	2000.0	1850.0	0.0	0.0	900.0	1.0	n/a	ITI
-1387040368.0	500	n/a	-1	-1	500	0.0	fixation	poldrack-single-stim	114	279632	0.0-9.6-0.6	beast_fmri_test	119	n/a	n/a	<div class = centerbox><div class = fixation>+</div></div>	none	500.0	test	n/a	n/a	n/a	n/a	n/a	n/a	n/a	n/a	n/a	n/a	n/a	n/a	n/a	n/a	n/a	n/a	n/a	n/a	n/a	fixation
-1387041262.163898	2750	n/a	2249	89	2750	896.163897895	stim	stop-signal	115	282384	0.0-9.6-1.6	beast_fmri_test	119	n/a	n/a	<img class = center src='/static/experiments/beast_fmri_test/images/T.png'></img>	89,71	2750.0	test	<img class = center src='/static/experiments/beast_fmri_test/images/redT.png'></img>	go	2000.0	2.0	6.0	go	target	T	89,Yellow Button	71,Green Button	750.0	850.0	2000.0	1850.0	1.0	n/a	750.0	1.0	n/a	go_stim
-1387038512.163898	896.16389789509003	n/a	2249	89	2750	896.163897895	stim	stop-signal	115	282384	0.0-9.6-1.6	beast_fmri_test	119	n/a	n/a	<img class = center src='/static/experiments/beast_fmri_test/images/T.png'></img>	89,71	2750.0	test	<img class = center src='/static/experiments/beast_fmri_test/images/redT.png'></img>	go	2000.0	2.0	6.0	go	target	T	89,Yellow Button	71,Green Button	750.0	850.0	2000.0	1850.0	1.0	n/a	750.0	1.0	n/a	ITI
-1387036211.0	500	n/a	-1	-1	500	0.0	fixation	poldrack-single-stim	116	283789	0.0-9.7-0.7	beast_fmri_test	119	283564,/	t	<div class = centerbox><div class = fixation>+</div></div>	none	500.0	test	n/a	n/a	n/a	n/a	n/a	n/a	n/a	n/a	n/a	n/a	n/a	n/a	n/a	n/a	n/a	n/a	n/a	n/a	n/a	fixation
-1387037030.3725526	850.0	n/a	-1	-1	2750	821.372552721	stim	stop-signal	117	286541	0.0-9.7-1.7	beast_fmri_test	119	n/a	n/a	<img class = center src='/static/experiments/beast_fmri_test/images/T.png'></img>	89,71	2750.0	test	<img class = center src='/static/experiments/beast_fmri_test/images/redT.png'></img>	stop	1900.0	2.0	7.0	stop	non-target	T	89,Yellow Button	71,Green Button	750.0	850.0	2000.0	1900.0	0.0	1.0	850.0	0.0	n/a	go_stim
-1387035130.3725526	1900.0	n/a	-1	-1	2750	821.372552721	stim	stop-signal	117	286541	0.0-9.7-1.7	beast_fmri_test	119	n/a	n/a	<img class = center src='/static/experiments/beast_fmri_test/images/T.png'></img>	89,71	2750.0	test	<img class = center src='/static/experiments/beast_fmri_test/images/redT.png'></img>	stop	1900.0	2.0	7.0	stop	non-target	T	89,Yellow Button	71,Green Button	750.0	850.0	2000.0	1900.0	0.0	1.0	850.0	0.0	n/a	stop_stim
-1387034280.3725526	821.37255272121695	n/a	-1	-1	2750	821.372552721	stim	stop-signal	117	286541	0.0-9.7-1.7	beast_fmri_test	119	n/a	n/a	<img class = center src='/static/experiments/beast_fmri_test/images/T.png'></img>	89,71	2750.0	test	<img class = center src='/static/experiments/beast_fmri_test/images/redT.png'></img>	stop	1900.0	2.0	7.0	stop	non-target	T	89,Yellow Button	71,Green Button	750.0	850.0	2000.0	1900.0	0.0	1.0	850.0	0.0	n/a	ITI
-1387032130.0	500	n/a	-1	-1	500	0.0	fixation	poldrack-single-stim	118	287870	0.0-9.8-0.8	beast_fmri_test	119	n/a	n/a	<div class = centerbox><div class = fixation>+</div></div>	none	500.0	test	n/a	n/a	n/a	n/a	n/a	n/a	n/a	n/a	n/a	n/a	n/a	n/a	n/a	n/a	n/a	n/a	n/a	n/a	n/a	fixation
-1387032243.0875728	2750	n/a	1533	89	2750	115.087572771	stim	stop-signal	119	290622	0.0-9.8-1.8	beast_fmri_test	119	289683,/	t	<img class = center src='/static/experiments/beast_fmri_test/images/T.png'></img>	89,71	2750.0	test	<img class = center src='/static/experiments/beast_fmri_test/images/redT.png'></img>	go	2000.0	2.0	8.0	go	target	T	89,Yellow Button	71,Green Button	750.0	900.0	2000.0	1900.0	1.0	n/a	750.0	1.0	n/a	go_stim
-1387029493.0875728	115.087572771048	n/a	1533	89	2750	115.087572771	stim	stop-signal	119	290622	0.0-9.8-1.8	beast_fmri_test	119	289683,/	t	<img class = center src='/static/experiments/beast_fmri_test/images/T.png'></img>	89,71	2750.0	test	<img class = center src='/static/experiments/beast_fmri_test/images/redT.png'></img>	go	2000.0	2.0	8.0	go	target	T	89,Yellow Button	71,Green Button	750.0	900.0	2000.0	1900.0	1.0	n/a	750.0	1.0	n/a	ITI
-1387028755.0	500	n/a	-1	-1	500	0.0	fixation	poldrack-single-stim	120	291245	0.0-9.9-0.9	beast_fmri_test	119	n/a	n/a	<div class = centerbox><div class = fixation>+</div></div>	none	500.0	test	n/a	n/a	n/a	n/a	n/a	n/a	n/a	n/a	n/a	n/a	n/a	n/a	n/a	n/a	n/a	n/a	n/a	n/a	n/a	fixation
-1387029833.1498451	750.0	n/a	1589	89	2750	1080.14984503	stim	stop-signal	121	293997	0.0-9.9-1.9	beast_fmri_test	119	291723,/	t	<img class = center src='/static/experiments/beast_fmri_test/images/T.png'></img>	89,71	2750.0	test	<img class = center src='/static/experiments/beast_fmri_test/images/redT.png'></img>	stop	2000.0	2.0	9.0	stop	target	T	89,Yellow Button	71,Green Button	750.0	900.0	2000.0	1900.0	0.0	0.0	750.0	1.0	n/a	go_stim
-1387027833.1498451	2000.0	n/a	1589	89	2750	1080.14984503	stim	stop-signal	121	293997	0.0-9.9-1.9	beast_fmri_test	119	291723,/	t	<img class = center src='/static/experiments/beast_fmri_test/images/T.png'></img>	89,71	2750.0	test	<img class = center src='/static/experiments/beast_fmri_test/images/redT.png'></img>	stop	2000.0	2.0	9.0	stop	target	T	89,Yellow Button	71,Green Button	750.0	900.0	2000.0	1900.0	0.0	0.0	750.0	1.0	n/a	stop_stim
-1387027083.1498451	1080.14984503403	n/a	1589	89	2750	1080.14984503	stim	stop-signal	121	293997	0.0-9.9-1.9	beast_fmri_test	119	291723,/	t	<img class = center src='/static/experiments/beast_fmri_test/images/T.png'></img>	89,71	2750.0	test	<img class = center src='/static/experiments/beast_fmri_test/images/redT.png'></img>	stop	2000.0	2.0	9.0	stop	target	T	89,Yellow Button	71,Green Button	750.0	900.0	2000.0	1900.0	0.0	0.0	750.0	1.0	n/a	ITI
-1387024418.0	500	n/a	-1	-1	500	0.0	fixation	poldrack-single-stim	122	295582	0.0-9.10-0.10	beast_fmri_test	119	n/a	n/a	<div class = centerbox><div class = fixation>+</div></div>	none	500.0	test	n/a	n/a	n/a	n/a	n/a	n/a	n/a	n/a	n/a	n/a	n/a	n/a	n/a	n/a	n/a	n/a	n/a	n/a	n/a	fixation
-1387027008.4740977	900.0	n/a	1087	71	2750	2593.47409774	stim	stop-signal	123	298335	0.0-9.10-1.10	beast_fmri_test	119	n/a	n/a	<img class = center src='/static/experiments/beast_fmri_test/images/V.png'></img>	89,71	2750.0	test	<img class = center src='/static/experiments/beast_fmri_test/images/redV.png'></img>	stop	1850.0	2.0	10.0	stop	non-target	V	89,Yellow Button	71,Green Button	700.0	900.0	2000.0	1850.0	0.0	0.0	900.0	1.0	n/a	go_stim
-1387025158.4740977	1850.0	n/a	1087	71	2750	2593.47409774	stim	stop-signal	123	298335	0.0-9.10-1.10	beast_fmri_test	119	n/a	n/a	<img class = center src='/static/experiments/beast_fmri_test/images/V.png'></img>	89,71	2750.0	test	<img class = center src='/static/experiments/beast_fmri_test/images/redV.png'></img>	stop	1850.0	2.0	10.0	stop	non-target	V	89,Yellow Button	71,Green Button	700.0	900.0	2000.0	1850.0	0.0	0.0	900.0	1.0	n/a	stop_stim
-1387024258.4740977	2593.4740977362599	n/a	1087	71	2750	2593.47409774	stim	stop-signal	123	298335	0.0-9.10-1.10	beast_fmri_test	119	n/a	n/a	<img class = center src='/static/experiments/beast_fmri_test/images/V.png'></img>	89,71	2750.0	test	<img class = center src='/static/experiments/beast_fmri_test/images/redV.png'></img>	stop	1850.0	2.0	10.0	stop	non-target	V	89,Yellow Button	71,Green Button	700.0	900.0	2000.0	1850.0	0.0	0.0	900.0	1.0	n/a	ITI
-1387018565.0	500	n/a	-1	-1	500	0.0	fixation	poldrack-single-stim	124	301435	0.0-9.11-0.11	beast_fmri_test	119	n/a	n/a	<div class = centerbox><div class = fixation>+</div></div>	none	500.0	test	n/a	n/a	n/a	n/a	n/a	n/a	n/a	n/a	n/a	n/a	n/a	n/a	n/a	n/a	n/a	n/a	n/a	n/a	n/a	fixation
-1387019419.8427241	2750	n/a	1735	71	2750	856.842724204	stim	stop-signal	125	304187	0.0-9.11-1.11	beast_fmri_test	119	n/a	n/a	<img class = center src='/static/experiments/beast_fmri_test/images/B.png'></img>	89,71	2750.0	test	<img class = center src='/static/experiments/beast_fmri_test/images/redB.png'></img>	go	1900.0	2.0	11.0	go	non-target	B	89,Yellow Button	71,Green Button	700.0	850.0	2000.0	1900.0	1.0	n/a	850.0	1.0	n/a	go_stim
-1387016669.8427241	856.84272420394802	n/a	1735	71	2750	856.842724204	stim	stop-signal	125	304187	0.0-9.11-1.11	beast_fmri_test	119	n/a	n/a	<img class = center src='/static/experiments/beast_fmri_test/images/B.png'></img>	89,71	2750.0	test	<img class = center src='/static/experiments/beast_fmri_test/images/redB.png'></img>	go	1900.0	2.0	11.0	go	non-target	B	89,Yellow Button	71,Green Button	700.0	850.0	2000.0	1900.0	1.0	n/a	850.0	1.0	n/a	ITI
-1387014451.0	500	n/a	-1	-1	500	0.0	fixation	poldrack-single-stim	126	305549	0.0-9.12-0.12	beast_fmri_test	119	n/a	n/a	<div class = centerbox><div class = fixation>+</div></div>	none	500.0	test	n/a	n/a	n/a	n/a	n/a	n/a	n/a	n/a	n/a	n/a	n/a	n/a	n/a	n/a	n/a	n/a	n/a	n/a	n/a	fixation
-1387014810.8277609	2750	n/a	1512	71	2750	362.827760858	stim	stop-signal	127	308302	0.0-9.12-1.12	beast_fmri_test	119	n/a	n/a	<img class = center src='/static/experiments/beast_fmri_test/images/T.png'></img>	89,71	2750.0	test	<img class = center src='/static/experiments/beast_fmri_test/images/redT.png'></img>	go	1900.0	2.0	12.0	go	non-target	T	89,Yellow Button	71,Green Button	700.0	850.0	2000.0	1900.0	1.0	n/a	850.0	1.0	n/a	go_stim
-1387012060.8277609	362.82776085844102	n/a	1512	71	2750	362.827760858	stim	stop-signal	127	308302	0.0-9.12-1.12	beast_fmri_test	119	n/a	n/a	<img class = center src='/static/experiments/beast_fmri_test/images/T.png'></img>	89,71	2750.0	test	<img class = center src='/static/experiments/beast_fmri_test/images/redT.png'></img>	go	1900.0	2.0	12.0	go	non-target	T	89,Yellow Button	71,Green Button	700.0	850.0	2000.0	1900.0	1.0	n/a	850.0	1.0	n/a	ITI
-1387010829.0	500	n/a	-1	-1	500	0.0	fixation	poldrack-single-stim	128	309171	0.0-9.13-0.13	beast_fmri_test	119	n/a	n/a	<div class = centerbox><div class = fixation>+</div></div>	none	500.0	test	n/a	n/a	n/a	n/a	n/a	n/a	n/a	n/a	n/a	n/a	n/a	n/a	n/a	n/a	n/a	n/a	n/a	n/a	n/a	fixation
-1387011929.919142	700.0	n/a	-1	-1	2750	1102.9191421	stim	stop-signal	129	311923	0.0-9.13-1.13	beast_fmri_test	119	n/a	n/a	<img class = center src='/static/experiments/beast_fmri_test/images/B.png'></img>	89,71	2750.0	test	<img class = center src='/static/experiments/beast_fmri_test/images/redB.png'></img>	stop	2050.0	2.0	13.0	stop	target	B	89,Yellow Button	71,Green Button	700.0	850.0	2050.0	1900.0	0.0	1.0	700.0	0.0	n/a	go_stim
-1387009879.919142	2050.0	n/a	-1	-1	2750	1102.9191421	stim	stop-signal	129	311923	0.0-9.13-1.13	beast_fmri_test	119	n/a	n/a	<img class = center src='/static/experiments/beast_fmri_test/images/B.png'></img>	89,71	2750.0	test	<img class = center src='/static/experiments/beast_fmri_test/images/redB.png'></img>	stop	2050.0	2.0	13.0	stop	target	B	89,Yellow Button	71,Green Button	700.0	850.0	2050.0	1900.0	0.0	1.0	700.0	0.0	n/a	stop_stim
-1387009179.919142	1102.9191420968	n/a	-1	-1	2750	1102.9191421	stim	stop-signal	129	311923	0.0-9.13-1.13	beast_fmri_test	119	n/a	n/a	<img class = center src='/static/experiments/beast_fmri_test/images/B.png'></img>	89,71	2750.0	test	<img class = center src='/static/experiments/beast_fmri_test/images/redB.png'></img>	stop	2050.0	2.0	13.0	stop	target	B	89,Yellow Button	71,Green Button	700.0	850.0	2050.0	1900.0	0.0	1.0	700.0	0.0	n/a	ITI
-1387006469.0	500	n/a	-1	-1	500	0.0	fixation	poldrack-single-stim	130	313531	0.0-9.14-0.14	beast_fmri_test	119	n/a	n/a	<div class = centerbox><div class = fixation>+</div></div>	none	500.0	test	n/a	n/a	n/a	n/a	n/a	n/a	n/a	n/a	n/a	n/a	n/a	n/a	n/a	n/a	n/a	n/a	n/a	n/a	n/a	fixation
-1387007620.9067242	2750	n/a	1686	89	2750	1153.90672414	stim	stop-signal	131	316283	0.0-9.14-1.14	beast_fmri_test	119	n/a	n/a	<img class = center src='/static/experiments/beast_fmri_test/images/T.png'></img>	89,71	2750.0	test	<img class = center src='/static/experiments/beast_fmri_test/images/redT.png'></img>	go	2000.0	2.0	14.0	go	target	T	89,Yellow Button	71,Green Button	750.0	850.0	2000.0	1900.0	1.0	n/a	750.0	1.0	n/a	go_stim
-1387004870.9067242	1153.90672414246	n/a	1686	89	2750	1153.90672414	stim	stop-signal	131	316283	0.0-9.14-1.14	beast_fmri_test	119	n/a	n/a	<img class = center src='/static/experiments/beast_fmri_test/images/T.png'></img>	89,71	2750.0	test	<img class = center src='/static/experiments/beast_fmri_test/images/redT.png'></img>	go	2000.0	2.0	14.0	go	target	T	89,Yellow Button	71,Green Button	750.0	850.0	2000.0	1900.0	1.0	n/a	750.0	1.0	n/a	ITI
-1387002056.0	500	n/a	-1	-1	500	0.0	fixation	poldrack-single-stim	132	317944	0.0-9.15-0.15	beast_fmri_test	119	n/a	n/a	<div class = centerbox><div class = fixation>+</div></div>	none	500.0	test	n/a	n/a	n/a	n/a	n/a	n/a	n/a	n/a	n/a	n/a	n/a	n/a	n/a	n/a	n/a	n/a	n/a	n/a	n/a	fixation
-1387003238.8802326	850.0	n/a	-1	-1	2750	1184.88023247	stim	stop-signal	133	320696	0.0-9.15-1.15	beast_fmri_test	119	n/a	n/a	<img class = center src='/static/experiments/beast_fmri_test/images/D.png'></img>	89,71	2750.0	test	<img class = center src='/static/experiments/beast_fmri_test/images/redD.png'></img>	stop	1900.0	2.0	15.0	stop	non-target	D	89,Yellow Button	71,Green Button	750.0	850.0	2000.0	1900.0	0.0	1.0	850.0	0.0	n/a	go_stim
-1387001338.8802326	1900.0	n/a	-1	-1	2750	1184.88023247	stim	stop-signal	133	320696	0.0-9.15-1.15	beast_fmri_test	119	n/a	n/a	<img class = center src='/static/experiments/beast_fmri_test/images/D.png'></img>	89,71	2750.0	test	<img class = center src='/static/experiments/beast_fmri_test/images/redD.png'></img>	stop	1900.0	2.0	15.0	stop	non-target	D	89,Yellow Button	71,Green Button	750.0	850.0	2000.0	1900.0	0.0	1.0	850.0	0.0	n/a	stop_stim
-1387000488.8802326	1184.8802324661201	n/a	-1	-1	2750	1184.88023247	stim	stop-signal	133	320696	0.0-9.15-1.15	beast_fmri_test	119	n/a	n/a	<img class = center src='/static/experiments/beast_fmri_test/images/D.png'></img>	89,71	2750.0	test	<img class = center src='/static/experiments/beast_fmri_test/images/redD.png'></img>	stop	1900.0	2.0	15.0	stop	non-target	D	89,Yellow Button	71,Green Button	750.0	850.0	2000.0	1900.0	0.0	1.0	850.0	0.0	n/a	ITI
-1386997612.0	500	n/a	-1	-1	500	0.0	fixation	poldrack-single-stim	134	322388	0.0-9.16-0.16	beast_fmri_test	119	n/a	n/a	<div class = centerbox><div class = fixation>+</div></div>	none	500.0	test	n/a	n/a	n/a	n/a	n/a	n/a	n/a	n/a	n/a	n/a	n/a	n/a	n/a	n/a	n/a	n/a	n/a	n/a	n/a	fixation
-1386997840.5769806	2750	n/a	1693	71	2750	230.57698062	stim	stop-signal	135	325140	0.0-9.16-1.16	beast_fmri_test	119	n/a	n/a	<img class = center src='/static/experiments/beast_fmri_test/images/D.png'></img>	89,71	2750.0	test	<img class = center src='/static/experiments/beast_fmri_test/images/redD.png'></img>	go	1850.0	2.0	16.0	go	non-target	D	89,Yellow Button	71,Green Button	750.0	900.0	2000.0	1850.0	1.0	n/a	900.0	1.0	n/a	go_stim
-1386995090.5769806	230.57698061993901	n/a	1693	71	2750	230.57698062	stim	stop-signal	135	325140	0.0-9.16-1.16	beast_fmri_test	119	n/a	n/a	<img class = center src='/static/experiments/beast_fmri_test/images/D.png'></img>	89,71	2750.0	test	<img class = center src='/static/experiments/beast_fmri_test/images/redD.png'></img>	go	1850.0	2.0	16.0	go	non-target	D	89,Yellow Button	71,Green Button	750.0	900.0	2000.0	1850.0	1.0	n/a	900.0	1.0	n/a	ITI
-1386994123.0	500	n/a	-1	-1	500	0.0	fixation	poldrack-single-stim	136	325877	0.0-9.17-0.17	beast_fmri_test	119	n/a	n/a	<div class = centerbox><div class = fixation>+</div></div>	none	500.0	test	n/a	n/a	n/a	n/a	n/a	n/a	n/a	n/a	n/a	n/a	n/a	n/a	n/a	n/a	n/a	n/a	n/a	n/a	n/a	fixation
-1386997122.0157239	2750	n/a	1300	89	2750	3002.01572402	stim	stop-signal	137	328630	0.0-9.17-1.17	beast_fmri_test	119	326405,/,331163,/	t,t	<img class = center src='/static/experiments/beast_fmri_test/images/D.png'></img>	89,71	2750.0	test	<img class = center src='/static/experiments/beast_fmri_test/images/redD.png'></img>	go	2000.0	2.0	17.0	go	target	D	89,Yellow Button	71,Green Button	750.0	900.0	2000.0	1850.0	1.0	n/a	750.0	1.0	n/a	go_stim
-1386994372.0157239	3002.0157240172098	n/a	1300	89	2750	3002.01572402	stim	stop-signal	137	328630	0.0-9.17-1.17	beast_fmri_test	119	326405,/,331163,/	t,t	<img class = center src='/static/experiments/beast_fmri_test/images/D.png'></img>	89,71	2750.0	test	<img class = center src='/static/experiments/beast_fmri_test/images/redD.png'></img>	go	2000.0	2.0	17.0	go	target	D	89,Yellow Button	71,Green Button	750.0	900.0	2000.0	1850.0	1.0	n/a	750.0	1.0	n/a	ITI
-1386987862.0	500	n/a	-1	-1	500	0.0	fixation	poldrack-single-stim	138	332138	0.0-9.18-0.18	beast_fmri_test	119	n/a	n/a	<div class = centerbox><div class = fixation>+</div></div>	none	500.0	test	n/a	n/a	n/a	n/a	n/a	n/a	n/a	n/a	n/a	n/a	n/a	n/a	n/a	n/a	n/a	n/a	n/a	n/a	n/a	fixation
-1386992860.0	900.0	n/a	-1	-1	2750	5000.0	stim	stop-signal	139	334890	0.0-9.18-1.18	beast_fmri_test	119	333205,/,334565,/	t,t	<img class = center src='/static/experiments/beast_fmri_test/images/B.png'></img>	89,71	2750.0	test	<img class = center src='/static/experiments/beast_fmri_test/images/redB.png'></img>	stop	1850.0	2.0	18.0	stop	non-target	B	89,Yellow Button	71,Green Button	750.0	900.0	2000.0	1850.0	0.0	1.0	900.0	0.0	n/a	go_stim
-1386991010.0	1850.0	n/a	-1	-1	2750	5000.0	stim	stop-signal	139	334890	0.0-9.18-1.18	beast_fmri_test	119	333205,/,334565,/	t,t	<img class = center src='/static/experiments/beast_fmri_test/images/B.png'></img>	89,71	2750.0	test	<img class = center src='/static/experiments/beast_fmri_test/images/redB.png'></img>	stop	1850.0	2.0	18.0	stop	non-target	B	89,Yellow Button	71,Green Button	750.0	900.0	2000.0	1850.0	0.0	1.0	900.0	0.0	n/a	stop_stim
-1386990110.0	5000.0	n/a	-1	-1	2750	5000.0	stim	stop-signal	139	334890	0.0-9.18-1.18	beast_fmri_test	119	333205,/,334565,/	t,t	<img class = center src='/static/experiments/beast_fmri_test/images/B.png'></img>	89,71	2750.0	test	<img class = center src='/static/experiments/beast_fmri_test/images/redB.png'></img>	stop	1850.0	2.0	18.0	stop	non-target	B	89,Yellow Button	71,Green Button	750.0	900.0	2000.0	1850.0	0.0	1.0	900.0	0.0	n/a	ITI
-1386979602.0	500	n/a	-1	-1	500	0.0	fixation	poldrack-single-stim	140	340398	0.0-9.19-0.19	beast_fmri_test	119	n/a	n/a	<div class = centerbox><div class = fixation>+</div></div>	none	500.0	test	n/a	n/a	n/a	n/a	n/a	n/a	n/a	n/a	n/a	n/a	n/a	n/a	n/a	n/a	n/a	n/a	n/a	n/a	n/a	fixation
-1386980199.3778009	2750	n/a	1482	71	2750	599.3778009	stim	stop-signal	141	343150	0.0-9.19-1.19	beast_fmri_test	119	342725,/	t	<img class = center src='/static/experiments/beast_fmri_test/images/V.png'></img>	89,71	2750.0	test	<img class = center src='/static/experiments/beast_fmri_test/images/redV.png'></img>	go	1800.0	2.0	19.0	go	non-target	V	89,Yellow Button	71,Green Button	750.0	950.0	2000.0	1800.0	1.0	n/a	950.0	1.0	n/a	go_stim
-1386977449.3778009	599.37780090016497	n/a	1482	71	2750	599.3778009	stim	stop-signal	141	343150	0.0-9.19-1.19	beast_fmri_test	119	342725,/	t	<img class = center src='/static/experiments/beast_fmri_test/images/V.png'></img>	89,71	2750.0	test	<img class = center src='/static/experiments/beast_fmri_test/images/redV.png'></img>	go	1800.0	2.0	19.0	go	non-target	V	89,Yellow Button	71,Green Button	750.0	950.0	2000.0	1800.0	1.0	n/a	950.0	1.0	n/a	ITI
-1386975744.0	500	n/a	-1	-1	500	0.0	fixation	poldrack-single-stim	142	344256	0.0-9.20-0.20	beast_fmri_test	119	n/a	n/a	<div class = centerbox><div class = fixation>+</div></div>	none	500.0	test	n/a	n/a	n/a	n/a	n/a	n/a	n/a	n/a	n/a	n/a	n/a	n/a	n/a	n/a	n/a	n/a	n/a	n/a	n/a	fixation
-1386976037.743912	950.0	n/a	-1	-1	2750	294.743911902	stim	stop-signal	143	347007	0.0-9.20-1.20	beast_fmri_test	119	n/a	n/a	<img class = center src='/static/experiments/beast_fmri_test/images/D.png'></img>	89,71	2750.0	test	<img class = center src='/static/experiments/beast_fmri_test/images/redD.png'></img>	stop	1800.0	2.0	20.0	stop	non-target	D	89,Yellow Button	71,Green Button	750.0	950.0	2000.0	1800.0	0.0	1.0	950.0	0.0	n/a	go_stim
-1386974237.743912	1800.0	n/a	-1	-1	2750	294.743911902	stim	stop-signal	143	347007	0.0-9.20-1.20	beast_fmri_test	119	n/a	n/a	<img class = center src='/static/experiments/beast_fmri_test/images/D.png'></img>	89,71	2750.0	test	<img class = center src='/static/experiments/beast_fmri_test/images/redD.png'></img>	stop	1800.0	2.0	20.0	stop	non-target	D	89,Yellow Button	71,Green Button	750.0	950.0	2000.0	1800.0	0.0	1.0	950.0	0.0	n/a	stop_stim
-1386973287.743912	294.74391190242699	n/a	-1	-1	2750	294.743911902	stim	stop-signal	143	347007	0.0-9.20-1.20	beast_fmri_test	119	n/a	n/a	<img class = center src='/static/experiments/beast_fmri_test/images/D.png'></img>	89,71	2750.0	test	<img class = center src='/static/experiments/beast_fmri_test/images/redD.png'></img>	stop	1800.0	2.0	20.0	stop	non-target	D	89,Yellow Button	71,Green Button	750.0	950.0	2000.0	1800.0	0.0	1.0	950.0	0.0	n/a	ITI
-1386972192.0	500	n/a	-1	-1	500	0.0	fixation	poldrack-single-stim	144	347808	0.0-9.21-0.21	beast_fmri_test	119	n/a	n/a	<div class = centerbox><div class = fixation>+</div></div>	none	500.0	test	n/a	n/a	n/a	n/a	n/a	n/a	n/a	n/a	n/a	n/a	n/a	n/a	n/a	n/a	n/a	n/a	n/a	n/a	n/a	fixation
-1386972285.5743983	2750	n/a	2575	71	2750	95.5743981718	stim	stop-signal	145	350560	0.0-9.21-1.21	beast_fmri_test	119	n/a	n/a	<img class = center src='/static/experiments/beast_fmri_test/images/D.png'></img>	89,71	2750.0	test	<img class = center src='/static/experiments/beast_fmri_test/images/redD.png'></img>	go	1750.0	2.0	21.0	go	non-target	D	89,Yellow Button	71,Green Button	750.0	1000.0	2000.0	1750.0	1.0	n/a	1000.0	1.0	n/a	go_stim
-1386969535.5743983	95.574398171793106	n/a	2575	71	2750	95.5743981718	stim	stop-signal	145	350560	0.0-9.21-1.21	beast_fmri_test	119	n/a	n/a	<img class = center src='/static/experiments/beast_fmri_test/images/D.png'></img>	89,71	2750.0	test	<img class = center src='/static/experiments/beast_fmri_test/images/redD.png'></img>	go	1750.0	2.0	21.0	go	non-target	D	89,Yellow Button	71,Green Button	750.0	1000.0	2000.0	1750.0	1.0	n/a	1000.0	1.0	n/a	ITI
-1386968838.0	500	n/a	-1	-1	500	0.0	fixation	poldrack-single-stim	146	351162	0.0-9.22-0.22	beast_fmri_test	119	n/a	n/a	<div class = centerbox><div class = fixation>+</div></div>	none	500.0	test	n/a	n/a	n/a	n/a	n/a	n/a	n/a	n/a	n/a	n/a	n/a	n/a	n/a	n/a	n/a	n/a	n/a	n/a	n/a	fixation
-1386969815.5321343	2750	n/a	1786	71	2750	979.532134404	stim	stop-signal	147	353914	0.0-9.22-1.22	beast_fmri_test	119	352245,/	t	<img class = center src='/static/experiments/beast_fmri_test/images/T.png'></img>	89,71	2750.0	test	<img class = center src='/static/experiments/beast_fmri_test/images/redT.png'></img>	go	1750.0	2.0	22.0	go	non-target	T	89,Yellow Button	71,Green Button	750.0	1000.0	2000.0	1750.0	1.0	n/a	1000.0	1.0	n/a	go_stim
-1386967065.5321343	979.53213440372997	n/a	1786	71	2750	979.532134404	stim	stop-signal	147	353914	0.0-9.22-1.22	beast_fmri_test	119	352245,/	t	<img class = center src='/static/experiments/beast_fmri_test/images/T.png'></img>	89,71	2750.0	test	<img class = center src='/static/experiments/beast_fmri_test/images/redT.png'></img>	go	1750.0	2.0	22.0	go	non-target	T	89,Yellow Button	71,Green Button	750.0	1000.0	2000.0	1750.0	1.0	n/a	1000.0	1.0	n/a	ITI
-1386964599.0	500	n/a	-1	-1	500	0.0	fixation	poldrack-single-stim	148	355401	0.0-9.23-0.23	beast_fmri_test	119	n/a	n/a	<div class = centerbox><div class = fixation>+</div></div>	none	500.0	test	n/a	n/a	n/a	n/a	n/a	n/a	n/a	n/a	n/a	n/a	n/a	n/a	n/a	n/a	n/a	n/a	n/a	n/a	n/a	fixation
-1386965797.2006774	2750	n/a	1209	71	2750	1201.20067748	stim	stop-signal	149	358154	0.0-9.23-1.23	beast_fmri_test	119	n/a	n/a	<img class = center src='/static/experiments/beast_fmri_test/images/T.png'></img>	89,71	2750.0	test	<img class = center src='/static/experiments/beast_fmri_test/images/redT.png'></img>	go	1750.0	2.0	23.0	go	non-target	T	89,Yellow Button	71,Green Button	750.0	1000.0	2000.0	1750.0	1.0	n/a	1000.0	1.0	n/a	go_stim
-1386963047.2006774	1201.2006774808001	n/a	1209	71	2750	1201.20067748	stim	stop-signal	149	358154	0.0-9.23-1.23	beast_fmri_test	119	n/a	n/a	<img class = center src='/static/experiments/beast_fmri_test/images/T.png'></img>	89,71	2750.0	test	<img class = center src='/static/experiments/beast_fmri_test/images/redT.png'></img>	go	1750.0	2.0	23.0	go	non-target	T	89,Yellow Button	71,Green Button	750.0	1000.0	2000.0	1750.0	1.0	n/a	1000.0	1.0	n/a	ITI
-1386960136.0	500	n/a	-1	-1	500	0.0	fixation	poldrack-single-stim	150	359864	0.0-9.24-0.24	beast_fmri_test	119	n/a	n/a	<div class = centerbox><div class = fixation>+</div></div>	none	500.0	test	n/a	n/a	n/a	n/a	n/a	n/a	n/a	n/a	n/a	n/a	n/a	n/a	n/a	n/a	n/a	n/a	n/a	n/a	n/a	fixation
-1386961244.7830462	2750	n/a	1171	89	2750	1110.78304623	stim	stop-signal	151	362616	0.0-9.24-1.24	beast_fmri_test	119	n/a	n/a	<img class = center src='/static/experiments/beast_fmri_test/images/T.png'></img>	89,71	2750.0	test	<img class = center src='/static/experiments/beast_fmri_test/images/redT.png'></img>	go	2000.0	2.0	24.0	go	target	T	89,Yellow Button	71,Green Button	750.0	1000.0	2000.0	1750.0	1.0	n/a	750.0	1.0	n/a	go_stim
-1386958494.7830462	1110.78304623294	n/a	1171	89	2750	1110.78304623	stim	stop-signal	151	362616	0.0-9.24-1.24	beast_fmri_test	119	n/a	n/a	<img class = center src='/static/experiments/beast_fmri_test/images/T.png'></img>	89,71	2750.0	test	<img class = center src='/static/experiments/beast_fmri_test/images/redT.png'></img>	go	2000.0	2.0	24.0	go	target	T	89,Yellow Button	71,Green Button	750.0	1000.0	2000.0	1750.0	1.0	n/a	750.0	1.0	n/a	ITI
-1386955766.0	500	n/a	-1	-1	500	0.0	fixation	poldrack-single-stim	152	364234	0.0-9.25-0.25	beast_fmri_test	119	n/a	n/a	<div class = centerbox><div class = fixation>+</div></div>	none	500.0	test	n/a	n/a	n/a	n/a	n/a	n/a	n/a	n/a	n/a	n/a	n/a	n/a	n/a	n/a	n/a	n/a	n/a	n/a	n/a	fixation
-1386956274.7080595	750.0	n/a	1153	89	2750	510.708059449	stim	stop-signal	153	366986	0.0-9.25-1.25	beast_fmri_test	119	n/a	n/a	<img class = center src='/static/experiments/beast_fmri_test/images/T.png'></img>	89,71	2750.0	test	<img class = center src='/static/experiments/beast_fmri_test/images/redT.png'></img>	stop	2000.0	2.0	25.0	stop	target	T	89,Yellow Button	71,Green Button	750.0	1000.0	2000.0	1750.0	0.0	0.0	750.0	1.0	n/a	go_stim
-1386954274.7080595	2000.0	n/a	1153	89	2750	510.708059449	stim	stop-signal	153	366986	0.0-9.25-1.25	beast_fmri_test	119	n/a	n/a	<img class = center src='/static/experiments/beast_fmri_test/images/T.png'></img>	89,71	2750.0	test	<img class = center src='/static/experiments/beast_fmri_test/images/redT.png'></img>	stop	2000.0	2.0	25.0	stop	target	T	89,Yellow Button	71,Green Button	750.0	1000.0	2000.0	1750.0	0.0	0.0	750.0	1.0	n/a	stop_stim
-1386953524.7080595	510.708059448516	n/a	1153	89	2750	510.708059449	stim	stop-signal	153	366986	0.0-9.25-1.25	beast_fmri_test	119	n/a	n/a	<img class = center src='/static/experiments/beast_fmri_test/images/T.png'></img>	89,71	2750.0	test	<img class = center src='/static/experiments/beast_fmri_test/images/redT.png'></img>	stop	2000.0	2.0	25.0	stop	target	T	89,Yellow Button	71,Green Button	750.0	1000.0	2000.0	1750.0	0.0	0.0	750.0	1.0	n/a	ITI
-1386951996.0	500	n/a	-1	-1	500	0.0	fixation	poldrack-single-stim	154	368004	0.0-9.26-0.26	beast_fmri_test	119	n/a	n/a	<div class = centerbox><div class = fixation>+</div></div>	none	500.0	test	n/a	n/a	n/a	n/a	n/a	n/a	n/a	n/a	n/a	n/a	n/a	n/a	n/a	n/a	n/a	n/a	n/a	n/a	n/a	fixation
-1386952934.8558605	2750	n/a	1507	71	2750	940.855860539	stim	stop-signal	155	370756	0.0-9.26-1.26	beast_fmri_test	119	n/a	n/a	<img class = center src='/static/experiments/beast_fmri_test/images/B.png'></img>	89,71	2750.0	test	<img class = center src='/static/experiments/beast_fmri_test/images/redB.png'></img>	go	1750.0	2.0	26.0	go	non-target	B	89,Yellow Button	71,Green Button	700.0	1000.0	2000.0	1750.0	1.0	n/a	1000.0	1.0	n/a	go_stim
-1386950184.8558605	940.85586053857799	n/a	1507	71	2750	940.855860539	stim	stop-signal	155	370756	0.0-9.26-1.26	beast_fmri_test	119	n/a	n/a	<img class = center src='/static/experiments/beast_fmri_test/images/B.png'></img>	89,71	2750.0	test	<img class = center src='/static/experiments/beast_fmri_test/images/redB.png'></img>	go	1750.0	2.0	26.0	go	non-target	B	89,Yellow Button	71,Green Button	700.0	1000.0	2000.0	1750.0	1.0	n/a	1000.0	1.0	n/a	ITI
-1386947795.0	500	n/a	-1	-1	500	0.0	fixation	poldrack-single-stim	156	372205	0.0-9.27-0.27	beast_fmri_test	119	n/a	n/a	<div class = centerbox><div class = fixation>+</div></div>	none	500.0	test	n/a	n/a	n/a	n/a	n/a	n/a	n/a	n/a	n/a	n/a	n/a	n/a	n/a	n/a	n/a	n/a	n/a	n/a	n/a	fixation
-1386948225.4861281	2750	n/a	1294	89	2750	432.486128122	stim	stop-signal	157	374957	0.0-9.27-1.27	beast_fmri_test	119	374685,/	t	<img class = center src='/static/experiments/beast_fmri_test/images/T.png'></img>	89,71	2750.0	test	<img class = center src='/static/experiments/beast_fmri_test/images/redT.png'></img>	go	2050.0	2.0	27.0	go	target	T	89,Yellow Button	71,Green Button	700.0	1000.0	2050.0	1750.0	1.0	n/a	700.0	1.0	n/a	go_stim
-1386945475.4861281	432.486128122038	n/a	1294	89	2750	432.486128122	stim	stop-signal	157	374957	0.0-9.27-1.27	beast_fmri_test	119	374685,/	t	<img class = center src='/static/experiments/beast_fmri_test/images/T.png'></img>	89,71	2750.0	test	<img class = center src='/static/experiments/beast_fmri_test/images/redT.png'></img>	go	2050.0	2.0	27.0	go	target	T	89,Yellow Button	71,Green Button	700.0	1000.0	2050.0	1750.0	1.0	n/a	700.0	1.0	n/a	ITI
-1386944101.0	500	n/a	-1	-1	500	0.0	fixation	poldrack-single-stim	158	375899	0.0-9.28-0.28	beast_fmri_test	119	n/a	n/a	<div class = centerbox><div class = fixation>+</div></div>	none	500.0	test	n/a	n/a	n/a	n/a	n/a	n/a	n/a	n/a	n/a	n/a	n/a	n/a	n/a	n/a	n/a	n/a	n/a	n/a	n/a	fixation
-1386944694.5946906	2750	n/a	1887	71	2750	595.594690511	stim	stop-signal	159	378651	0.0-9.28-1.28	beast_fmri_test	119	n/a	n/a	<img class = center src='/static/experiments/beast_fmri_test/images/D.png'></img>	89,71	2750.0	test	<img class = center src='/static/experiments/beast_fmri_test/images/redD.png'></img>	go	1750.0	2.0	28.0	go	non-target	D	89,Yellow Button	71,Green Button	700.0	1000.0	2050.0	1750.0	1.0	n/a	1000.0	1.0	n/a	go_stim
