onset	duration	text	rt	key_press	block_duration	timing_post_trial	trial_id	trial_type	trial_index	time_elapsed	internal_node_id	exp_id	subject_id	trigger_times	triggers	stimulus	possible_responses	stim_duration	exp_stage	SS_stimulus	SS_trial_type	SS_duration	load	trial_num	stop_trial_type	adaptive_trial_type	stim	yes_response_key	no_response_key	SSD_target	SSD_non_target	SSTarget	SSNonTarget	go_acc	stop_acc	SS_delay	adaptive_acc	Unnamed: 36	new_trial_type
test	10880	n/a	-1	-1	10880	0.0	practice-no-stop-feedback	poldrack-single-stim	198	531665	0.0-12.0	beast_fmri_test	119	520783,/	t	"<div class = ""centerbox""><p class = ""center-block-text"">Your delay is 3 trials.</p><p class = center-block-text>Please wait for the scanner to start the block</p></div>"	77	10880.0	n/a	n/a	n/a	n/a	n/a	n/a	n/a	n/a	n/a	n/a	n/a	n/a	n/a	n/a	n/a	n/a	n/a	n/a	n/a	n/a	start_functional_block
-31246447834.0	500	n/a	-1	-1	500	0.0	fixation	poldrack-single-stim	199	532166	0.0-13.0-0.0	beast_fmri_test	119	n/a	n/a	<div class = centerbox><div class = fixation>+</div></div>	none	500.0	test	n/a	n/a	n/a	n/a	n/a	n/a	n/a	n/a	n/a	n/a	n/a	n/a	n/a	n/a	n/a	n/a	n/a	n/a	n/a	fixation
-31246448036.989536	temp_go_duration	n/a	1710	71	2750	204.989538048	stim	stop-signal	200	534918	0.0-13.0-1.0	beast_fmri_test	119	n/a	n/a	<img class = center src='/static/experiments/beast_fmri_test/images/V.png'></img>	89,71	2750.0	test	<img class = center src='/static/experiments/beast_fmri_test/images/redV.png'></img>	stop	-1.0	3.0	0.0	stop	temp-non-target	V	89,Yellow Button	71,Green Button	700.0	900.0	2050.0	1850.0	0.0	0.0	n/a	n/a	n/a	go_stim
temp-non-target	temp_stop_duration	n/a	1710	71	2750	204.989538048	stim	stop-signal	200	534918	0.0-13.0-1.0	beast_fmri_test	119	n/a	n/a	<img class = center src='/static/experiments/beast_fmri_test/images/V.png'></img>	89,71	2750.0	test	<img class = center src='/static/experiments/beast_fmri_test/images/redV.png'></img>	stop	-1.0	3.0	0.0	stop	temp-non-target	V	89,Yellow Button	71,Green Button	700.0	900.0	2050.0	1850.0	0.0	0.0	n/a	n/a	n/a	stop_stim
-31246445286.989536	204.989538047612	n/a	1710	71	2750	204.989538048	stim	stop-signal	200	534918	0.0-13.0-1.0	beast_fmri_test	119	n/a	n/a	<img class = center src='/static/experiments/beast_fmri_test/images/V.png'></img>	89,71	2750.0	test	<img class = center src='/static/experiments/beast_fmri_test/images/redV.png'></img>	stop	-1.0	3.0	0.0	stop	temp-non-target	V	89,Yellow Button	71,Green Button	700.0	900.0	2050.0	1850.0	0.0	0.0	n/a	n/a	n/a	ITI
-31246444367.0	500	n/a	-1	-1	500	0.0	fixation	poldrack-single-stim	201	535633	0.0-13.1-0.1	beast_fmri_test	119	n/a	n/a	<div class = centerbox><div class = fixation>+</div></div>	none	500.0	test	n/a	n/a	n/a	n/a	n/a	n/a	n/a	n/a	n/a	n/a	n/a	n/a	n/a	n/a	n/a	n/a	n/a	n/a	n/a	fixation
-31246444649.857559	temp_go_duration	n/a	1036	71	2750	284.85755777	stim	stop-signal	202	538385	0.0-13.1-1.1	beast_fmri_test	119	n/a	n/a	<img class = center src='/static/experiments/beast_fmri_test/images/P.png'></img>	89,71	2750.0	test	<img class = center src='/static/experiments/beast_fmri_test/images/redP.png'></img>	stop	-1.0	3.0	1.0	stop	temp-non-target	P	89,Yellow Button	71,Green Button	700.0	900.0	2050.0	1850.0	0.0	0.0	n/a	n/a	n/a	go_stim
temp-non-target	temp_stop_duration	n/a	1036	71	2750	284.85755777	stim	stop-signal	202	538385	0.0-13.1-1.1	beast_fmri_test	119	n/a	n/a	<img class = center src='/static/experiments/beast_fmri_test/images/P.png'></img>	89,71	2750.0	test	<img class = center src='/static/experiments/beast_fmri_test/images/redP.png'></img>	stop	-1.0	3.0	1.0	stop	temp-non-target	P	89,Yellow Button	71,Green Button	700.0	900.0	2050.0	1850.0	0.0	0.0	n/a	n/a	n/a	stop_stim
-31246441899.857559	284.85755776983899	n/a	1036	71	2750	284.85755777	stim	stop-signal	202	538385	0.0-13.1-1.1	beast_fmri_test	119	n/a	n/a	<img class = center src='/static/experiments/beast_fmri_test/images/P.png'></img>	89,71	2750.0	test	<img class = center src='/static/experiments/beast_fmri_test/images/redP.png'></img>	stop	-1.0	3.0	1.0	stop	temp-non-target	P	89,Yellow Button	71,Green Button	700.0	900.0	2050.0	1850.0	0.0	0.0	n/a	n/a	n/a	ITI
-31246440822.0	500	n/a	-1	-1	500	0.0	fixation	poldrack-single-stim	203	539178	0.0-13.2-0.2	beast_fmri_test	119	n/a	n/a	<div class = centerbox><div class = fixation>+</div></div>	none	500.0	test	n/a	n/a	n/a	n/a	n/a	n/a	n/a	n/a	n/a	n/a	n/a	n/a	n/a	n/a	n/a	n/a	n/a	n/a	n/a	fixation
-31246441727.195637	temp_go_duration	n/a	897	71	2750	906.195635539	stim	stop-signal	204	541929	0.0-13.2-1.2	beast_fmri_test	119	n/a	n/a	<img class = center src='/static/experiments/beast_fmri_test/images/B.png'></img>	89,71	2750.0	test	<img class = center src='/static/experiments/beast_fmri_test/images/redB.png'></img>	stop	-1.0	3.0	2.0	stop	temp-non-target	B	89,Yellow Button	71,Green Button	700.0	900.0	2050.0	1850.0	0.0	0.0	n/a	n/a	n/a	go_stim
temp-non-target	temp_stop_duration	n/a	897	71	2750	906.195635539	stim	stop-signal	204	541929	0.0-13.2-1.2	beast_fmri_test	119	n/a	n/a	<img class = center src='/static/experiments/beast_fmri_test/images/B.png'></img>	89,71	2750.0	test	<img class = center src='/static/experiments/beast_fmri_test/images/redB.png'></img>	stop	-1.0	3.0	2.0	stop	temp-non-target	B	89,Yellow Button	71,Green Button	700.0	900.0	2050.0	1850.0	0.0	0.0	n/a	n/a	n/a	stop_stim
-31246438977.195637	906.195635538744	n/a	897	71	2750	906.195635539	stim	stop-signal	204	541929	0.0-13.2-1.2	beast_fmri_test	119	n/a	n/a	<img class = center src='/static/experiments/beast_fmri_test/images/B.png'></img>	89,71	2750.0	test	<img class = center src='/static/experiments/beast_fmri_test/images/redB.png'></img>	stop	-1.0	3.0	2.0	stop	temp-non-target	B	89,Yellow Button	71,Green Button	700.0	900.0	2050.0	1850.0	0.0	0.0	n/a	n/a	n/a	ITI
-31246436655.0	500	n/a	-1	-1	500	0.0	fixation	poldrack-single-stim	205	543345	0.0-13.3-0.3	beast_fmri_test	119	n/a	n/a	<div class = centerbox><div class = fixation>+</div></div>	none	500.0	test	n/a	n/a	n/a	n/a	n/a	n/a	n/a	n/a	n/a	n/a	n/a	n/a	n/a	n/a	n/a	n/a	n/a	n/a	n/a	fixation
-31246438049.667412	2750	n/a	1452	71	2750	1395.66741036	stim	stop-signal	206	546096	0.0-13.3-1.3	beast_fmri_test	119	n/a	n/a	<img class = center src='/static/experiments/beast_fmri_test/images/D.png'></img>	89,71	2750.0	test	<img class = center src='/static/experiments/beast_fmri_test/images/redD.png'></img>	go	1850.0	3.0	3.0	go	non-target	D	89,Yellow Button	71,Green Button	700.0	900.0	2050.0	1850.0	1.0	n/a	900.0	1.0	n/a	go_stim
-31246435299.667412	1395.66741035886	n/a	1452	71	2750	1395.66741036	stim	stop-signal	206	546096	0.0-13.3-1.3	beast_fmri_test	119	n/a	n/a	<img class = center src='/static/experiments/beast_fmri_test/images/D.png'></img>	89,71	2750.0	test	<img class = center src='/static/experiments/beast_fmri_test/images/redD.png'></img>	go	1850.0	3.0	3.0	go	non-target	D	89,Yellow Button	71,Green Button	700.0	900.0	2050.0	1850.0	1.0	n/a	900.0	1.0	n/a	ITI
-31246431996.0	500	n/a	-1	-1	500	0.0	fixation	poldrack-single-stim	207	548004	0.0-13.4-0.4	beast_fmri_test	119	n/a	n/a	<div class = centerbox><div class = fixation>+</div></div>	none	500.0	test	n/a	n/a	n/a	n/a	n/a	n/a	n/a	n/a	n/a	n/a	n/a	n/a	n/a	n/a	n/a	n/a	n/a	n/a	n/a	fixation
-31246433456.125469	2750	n/a	1506	71	2750	1462.12546889	stim	stop-signal	208	550756	0.0-13.4-1.4	beast_fmri_test	119	n/a	n/a	<img class = center src='/static/experiments/beast_fmri_test/images/B.png'></img>	89,71	2750.0	test	<img class = center src='/static/experiments/beast_fmri_test/images/redB.png'></img>	go	1850.0	3.0	4.0	go	non-target	B	89,Yellow Button	71,Green Button	700.0	900.0	2050.0	1850.0	1.0	n/a	900.0	1.0	n/a	go_stim
-31246430706.125469	1462.1254688865899	n/a	1506	71	2750	1462.12546889	stim	stop-signal	208	550756	0.0-13.4-1.4	beast_fmri_test	119	n/a	n/a	<img class = center src='/static/experiments/beast_fmri_test/images/B.png'></img>	89,71	2750.0	test	<img class = center src='/static/experiments/beast_fmri_test/images/redB.png'></img>	go	1850.0	3.0	4.0	go	non-target	B	89,Yellow Button	71,Green Button	700.0	900.0	2050.0	1850.0	1.0	n/a	900.0	1.0	n/a	ITI
-31246427271.0	500	n/a	-1	-1	500	0.0	fixation	poldrack-single-stim	209	552729	0.0-13.5-0.5	beast_fmri_test	119	n/a	n/a	<div class = centerbox><div class = fixation>+</div></div>	none	500.0	test	n/a	n/a	n/a	n/a	n/a	n/a	n/a	n/a	n/a	n/a	n/a	n/a	n/a	n/a	n/a	n/a	n/a	n/a	n/a	fixation
-31246427535.175247	2750	n/a	840	71	2750	266.175247993	stim	stop-signal	210	555481	0.0-13.5-1.5	beast_fmri_test	119	n/a	n/a	<img class = center src='/static/experiments/beast_fmri_test/images/T.png'></img>	89,71	2750.0	test	<img class = center src='/static/experiments/beast_fmri_test/images/redT.png'></img>	go	1850.0	3.0	5.0	go	non-target	T	89,Yellow Button	71,Green Button	700.0	900.0	2050.0	1850.0	1.0	n/a	900.0	1.0	n/a	go_stim
-31246424785.175247	266.175247993065	n/a	840	71	2750	266.175247993	stim	stop-signal	210	555481	0.0-13.5-1.5	beast_fmri_test	119	n/a	n/a	<img class = center src='/static/experiments/beast_fmri_test/images/T.png'></img>	89,71	2750.0	test	<img class = center src='/static/experiments/beast_fmri_test/images/redT.png'></img>	go	1850.0	3.0	5.0	go	non-target	T	89,Yellow Button	71,Green Button	700.0	900.0	2050.0	1850.0	1.0	n/a	900.0	1.0	n/a	ITI
-31246423742.0	500	n/a	-1	-1	500	0.0	fixation	poldrack-single-stim	211	556258	0.0-13.6-0.6	beast_fmri_test	119	n/a	n/a	<div class = centerbox><div class = fixation>+</div></div>	none	500.0	test	n/a	n/a	n/a	n/a	n/a	n/a	n/a	n/a	n/a	n/a	n/a	n/a	n/a	n/a	n/a	n/a	n/a	n/a	n/a	fixation
-31246423918.713959	2750	n/a	1663	71	2750	178.713959752	stim	stop-signal	212	559010	0.0-13.6-1.6	beast_fmri_test	119	n/a	n/a	<img class = center src='/static/experiments/beast_fmri_test/images/V.png'></img>	89,71	2750.0	test	<img class = center src='/static/experiments/beast_fmri_test/images/redV.png'></img>	go	1850.0	3.0	6.0	go	non-target	V	89,Yellow Button	71,Green Button	700.0	900.0	2050.0	1850.0	1.0	n/a	900.0	1.0	n/a	go_stim
-31246421168.713959	178.713959752043	n/a	1663	71	2750	178.713959752	stim	stop-signal	212	559010	0.0-13.6-1.6	beast_fmri_test	119	n/a	n/a	<img class = center src='/static/experiments/beast_fmri_test/images/V.png'></img>	89,71	2750.0	test	<img class = center src='/static/experiments/beast_fmri_test/images/redV.png'></img>	go	1850.0	3.0	6.0	go	non-target	V	89,Yellow Button	71,Green Button	700.0	900.0	2050.0	1850.0	1.0	n/a	900.0	1.0	n/a	ITI
-31246420301.0	500	n/a	-1	-1	500	0.0	fixation	poldrack-single-stim	213	559699	0.0-13.7-0.7	beast_fmri_test	119	n/a	n/a	<div class = centerbox><div class = fixation>+</div></div>	none	500.0	test	n/a	n/a	n/a	n/a	n/a	n/a	n/a	n/a	n/a	n/a	n/a	n/a	n/a	n/a	n/a	n/a	n/a	n/a	n/a	fixation
-31246421567.671242	2750	n/a	2504	71	2750	1269.6712402	stim	stop-signal	214	562452	0.0-13.7-1.7	beast_fmri_test	119	n/a	n/a	<img class = center src='/static/experiments/beast_fmri_test/images/T.png'></img>	89,71	2750.0	test	<img class = center src='/static/experiments/beast_fmri_test/images/redT.png'></img>	go	1850.0	3.0	7.0	go	non-target	T	89,Yellow Button	71,Green Button	700.0	900.0	2050.0	1850.0	1.0	n/a	900.0	1.0	n/a	go_stim
-31246418817.671242	1269.6712402015801	n/a	2504	71	2750	1269.6712402	stim	stop-signal	214	562452	0.0-13.7-1.7	beast_fmri_test	119	n/a	n/a	<img class = center src='/static/experiments/beast_fmri_test/images/T.png'></img>	89,71	2750.0	test	<img class = center src='/static/experiments/beast_fmri_test/images/redT.png'></img>	go	1850.0	3.0	7.0	go	non-target	T	89,Yellow Button	71,Green Button	700.0	900.0	2050.0	1850.0	1.0	n/a	900.0	1.0	n/a	ITI
-31246415769.0	500	n/a	-1	-1	500	0.0	fixation	poldrack-single-stim	215	564231	0.0-13.8-0.8	beast_fmri_test	119	n/a	n/a	<div class = centerbox><div class = fixation>+</div></div>	none	500.0	test	n/a	n/a	n/a	n/a	n/a	n/a	n/a	n/a	n/a	n/a	n/a	n/a	n/a	n/a	n/a	n/a	n/a	n/a	n/a	fixation
-31246418171.084518	900.0	n/a	1000	71	2750	2404.08451716	stim	stop-signal	216	566983	0.0-13.8-1.8	beast_fmri_test	119	n/a	n/a	<img class = center src='/static/experiments/beast_fmri_test/images/D.png'></img>	89,71	2750.0	test	<img class = center src='/static/experiments/beast_fmri_test/images/redD.png'></img>	stop	1850.0	3.0	8.0	stop	non-target	D	89,Yellow Button	71,Green Button	700.0	900.0	2050.0	1850.0	0.0	0.0	900.0	1.0	n/a	go_stim
-31246416321.084518	1850.0	n/a	1000	71	2750	2404.08451716	stim	stop-signal	216	566983	0.0-13.8-1.8	beast_fmri_test	119	n/a	n/a	<img class = center src='/static/experiments/beast_fmri_test/images/D.png'></img>	89,71	2750.0	test	<img class = center src='/static/experiments/beast_fmri_test/images/redD.png'></img>	stop	1850.0	3.0	8.0	stop	non-target	D	89,Yellow Button	71,Green Button	700.0	900.0	2050.0	1850.0	0.0	0.0	900.0	1.0	n/a	stop_stim
-31246415421.084518	2404.0845171583801	n/a	1000	71	2750	2404.08451716	stim	stop-signal	216	566983	0.0-13.8-1.8	beast_fmri_test	119	n/a	n/a	<img class = center src='/static/experiments/beast_fmri_test/images/D.png'></img>	89,71	2750.0	test	<img class = center src='/static/experiments/beast_fmri_test/images/redD.png'></img>	stop	1850.0	3.0	8.0	stop	non-target	D	89,Yellow Button	71,Green Button	700.0	900.0	2050.0	1850.0	0.0	0.0	900.0	1.0	n/a	ITI
-31246410103.0	500	n/a	-1	-1	500	0.0	fixation	poldrack-single-stim	217	569897	0.0-13.9-0.9	beast_fmri_test	119	n/a	n/a	<div class = centerbox><div class = fixation>+</div></div>	none	500.0	test	n/a	n/a	n/a	n/a	n/a	n/a	n/a	n/a	n/a	n/a	n/a	n/a	n/a	n/a	n/a	n/a	n/a	n/a	n/a	fixation
-31246411111.580544	2750	n/a	594	89	2750	1010.58054182	stim	stop-signal	218	572649	0.0-13.9-1.9	beast_fmri_test	119	n/a	n/a	<img class = center src='/static/experiments/beast_fmri_test/images/V.png'></img>	89,71	2750.0	test	<img class = center src='/static/experiments/beast_fmri_test/images/redV.png'></img>	go	2050.0	3.0	9.0	go	target	V	89,Yellow Button	71,Green Button	700.0	850.0	2050.0	1850.0	1.0	n/a	700.0	1.0	n/a	go_stim
-31246408361.580544	1010.58054182039	n/a	594	89	2750	1010.58054182	stim	stop-signal	218	572649	0.0-13.9-1.9	beast_fmri_test	119	n/a	n/a	<img class = center src='/static/experiments/beast_fmri_test/images/V.png'></img>	89,71	2750.0	test	<img class = center src='/static/experiments/beast_fmri_test/images/redV.png'></img>	go	2050.0	3.0	9.0	go	target	V	89,Yellow Button	71,Green Button	700.0	850.0	2050.0	1850.0	1.0	n/a	700.0	1.0	n/a	ITI
-31246405833.0	500	n/a	-1	-1	500	0.0	fixation	poldrack-single-stim	219	574167	0.0-13.10-0.10	beast_fmri_test	119	n/a	n/a	<div class = centerbox><div class = fixation>+</div></div>	none	500.0	test	n/a	n/a	n/a	n/a	n/a	n/a	n/a	n/a	n/a	n/a	n/a	n/a	n/a	n/a	n/a	n/a	n/a	n/a	n/a	fixation
-31246406545.754845	2750	n/a	1961	71	2750	714.754846091	stim	stop-signal	220	576919	0.0-13.10-1.10	beast_fmri_test	119	n/a	n/a	<img class = center src='/static/experiments/beast_fmri_test/images/P.png'></img>	89,71	2750.0	test	<img class = center src='/static/experiments/beast_fmri_test/images/redP.png'></img>	go	1900.0	3.0	10.0	go	non-target	P	89,Yellow Button	71,Green Button	700.0	850.0	2050.0	1900.0	1.0	n/a	850.0	1.0	n/a	go_stim
-31246403795.754845	714.75484609121997	n/a	1961	71	2750	714.754846091	stim	stop-signal	220	576919	0.0-13.10-1.10	beast_fmri_test	119	n/a	n/a	<img class = center src='/static/experiments/beast_fmri_test/images/P.png'></img>	89,71	2750.0	test	<img class = center src='/static/experiments/beast_fmri_test/images/redP.png'></img>	go	1900.0	3.0	10.0	go	non-target	P	89,Yellow Button	71,Green Button	700.0	850.0	2050.0	1900.0	1.0	n/a	850.0	1.0	n/a	ITI
-31246401859.0	500	n/a	-1	-1	500	0.0	fixation	poldrack-single-stim	221	578141	0.0-13.11-0.11	beast_fmri_test	119	n/a	n/a	<div class = centerbox><div class = fixation>+</div></div>	none	500.0	test	n/a	n/a	n/a	n/a	n/a	n/a	n/a	n/a	n/a	n/a	n/a	n/a	n/a	n/a	n/a	n/a	n/a	n/a	n/a	fixation
-31246403126.341454	700.0	n/a	-1	-1	2750	1269.34145405	stim	stop-signal	222	580893	0.0-13.11-1.11	beast_fmri_test	119	n/a	n/a	<img class = center src='/static/experiments/beast_fmri_test/images/D.png'></img>	89,71	2750.0	test	<img class = center src='/static/experiments/beast_fmri_test/images/redD.png'></img>	stop	2050.0	3.0	11.0	stop	target	D	89,Yellow Button	71,Green Button	700.0	850.0	2050.0	1900.0	0.0	1.0	700.0	0.0	n/a	go_stim
-31246401076.341454	2050.0	n/a	-1	-1	2750	1269.34145405	stim	stop-signal	222	580893	0.0-13.11-1.11	beast_fmri_test	119	n/a	n/a	<img class = center src='/static/experiments/beast_fmri_test/images/D.png'></img>	89,71	2750.0	test	<img class = center src='/static/experiments/beast_fmri_test/images/redD.png'></img>	stop	2050.0	3.0	11.0	stop	target	D	89,Yellow Button	71,Green Button	700.0	850.0	2050.0	1900.0	0.0	1.0	700.0	0.0	n/a	stop_stim
-31246400376.341454	1269.34145405186	n/a	-1	-1	2750	1269.34145405	stim	stop-signal	222	580893	0.0-13.11-1.11	beast_fmri_test	119	n/a	n/a	<img class = center src='/static/experiments/beast_fmri_test/images/D.png'></img>	89,71	2750.0	test	<img class = center src='/static/experiments/beast_fmri_test/images/redD.png'></img>	stop	2050.0	3.0	11.0	stop	target	D	89,Yellow Button	71,Green Button	700.0	850.0	2050.0	1900.0	0.0	1.0	700.0	0.0	n/a	ITI
-31246397329.0	500	n/a	-1	-1	500	0.0	fixation	poldrack-single-stim	223	582671	0.0-13.12-0.12	beast_fmri_test	119	n/a	n/a	<div class = centerbox><div class = fixation>+</div></div>	none	500.0	test	n/a	n/a	n/a	n/a	n/a	n/a	n/a	n/a	n/a	n/a	n/a	n/a	n/a	n/a	n/a	n/a	n/a	n/a	n/a	fixation
-31246397486.658772	2750	n/a	860	89	2750	159.658773286	stim	stop-signal	224	585423	0.0-13.12-1.12	beast_fmri_test	119	n/a	n/a	<img class = center src='/static/experiments/beast_fmri_test/images/V.png'></img>	89,71	2750.0	test	<img class = center src='/static/experiments/beast_fmri_test/images/redV.png'></img>	go	2000.0	3.0	12.0	go	target	V	89,Yellow Button	71,Green Button	750.0	850.0	2000.0	1900.0	1.0	n/a	750.0	1.0	n/a	go_stim
-31246394736.658772	159.658773285889	n/a	860	89	2750	159.658773286	stim	stop-signal	224	585423	0.0-13.12-1.12	beast_fmri_test	119	n/a	n/a	<img class = center src='/static/experiments/beast_fmri_test/images/V.png'></img>	89,71	2750.0	test	<img class = center src='/static/experiments/beast_fmri_test/images/redV.png'></img>	go	2000.0	3.0	12.0	go	target	V	89,Yellow Button	71,Green Button	750.0	850.0	2000.0	1900.0	1.0	n/a	750.0	1.0	n/a	ITI
-31246393908.0	500	n/a	-1	-1	500	0.0	fixation	poldrack-single-stim	225	586092	0.0-13.13-0.13	beast_fmri_test	119	586064,/	t	<div class = centerbox><div class = fixation>+</div></div>	none	500.0	test	n/a	n/a	n/a	n/a	n/a	n/a	n/a	n/a	n/a	n/a	n/a	n/a	n/a	n/a	n/a	n/a	n/a	n/a	n/a	fixation
-31246394328.885471	850.0	n/a	-1	-1	2750	422.885472762	stim	stop-signal	226	588844	0.0-13.13-1.13	beast_fmri_test	119	n/a	n/a	<img class = center src='/static/experiments/beast_fmri_test/images/V.png'></img>	89,71	2750.0	test	<img class = center src='/static/experiments/beast_fmri_test/images/redV.png'></img>	stop	1900.0	3.0	13.0	stop	non-target	V	89,Yellow Button	71,Green Button	750.0	850.0	2000.0	1900.0	0.0	1.0	850.0	0.0	n/a	go_stim
-31246392428.885471	1900.0	n/a	-1	-1	2750	422.885472762	stim	stop-signal	226	588844	0.0-13.13-1.13	beast_fmri_test	119	n/a	n/a	<img class = center src='/static/experiments/beast_fmri_test/images/V.png'></img>	89,71	2750.0	test	<img class = center src='/static/experiments/beast_fmri_test/images/redV.png'></img>	stop	1900.0	3.0	13.0	stop	non-target	V	89,Yellow Button	71,Green Button	750.0	850.0	2000.0	1900.0	0.0	1.0	850.0	0.0	n/a	stop_stim
-31246391578.885471	422.885472762039	n/a	-1	-1	2750	422.885472762	stim	stop-signal	226	588844	0.0-13.13-1.13	beast_fmri_test	119	n/a	n/a	<img class = center src='/static/experiments/beast_fmri_test/images/V.png'></img>	89,71	2750.0	test	<img class = center src='/static/experiments/beast_fmri_test/images/redV.png'></img>	stop	1900.0	3.0	13.0	stop	non-target	V	89,Yellow Button	71,Green Button	750.0	850.0	2000.0	1900.0	0.0	1.0	850.0	0.0	n/a	ITI
-31246390221.0	500	n/a	-1	-1	500	0.0	fixation	poldrack-single-stim	227	589779	0.0-13.14-0.14	beast_fmri_test	119	n/a	n/a	<div class = centerbox><div class = fixation>+</div></div>	none	500.0	test	n/a	n/a	n/a	n/a	n/a	n/a	n/a	n/a	n/a	n/a	n/a	n/a	n/a	n/a	n/a	n/a	n/a	n/a	n/a	fixation
-31246391349.517052	900.0	n/a	-1	-1	2750	1130.51705313	stim	stop-signal	228	592531	0.0-13.14-1.14	beast_fmri_test	119	n/a	n/a	<img class = center src='/static/experiments/beast_fmri_test/images/P.png'></img>	89,71	2750.0	test	<img class = center src='/static/experiments/beast_fmri_test/images/redP.png'></img>	stop	1850.0	3.0	14.0	stop	non-target	P	89,Yellow Button	71,Green Button	750.0	900.0	2000.0	1850.0	0.0	1.0	900.0	0.0	n/a	go_stim
-31246389499.517052	1850.0	n/a	-1	-1	2750	1130.51705313	stim	stop-signal	228	592531	0.0-13.14-1.14	beast_fmri_test	119	n/a	n/a	<img class = center src='/static/experiments/beast_fmri_test/images/P.png'></img>	89,71	2750.0	test	<img class = center src='/static/experiments/beast_fmri_test/images/redP.png'></img>	stop	1850.0	3.0	14.0	stop	non-target	P	89,Yellow Button	71,Green Button	750.0	900.0	2000.0	1850.0	0.0	1.0	900.0	0.0	n/a	stop_stim
-31246388599.517052	1130.5170531266399	n/a	-1	-1	2750	1130.51705313	stim	stop-signal	228	592531	0.0-13.14-1.14	beast_fmri_test	119	n/a	n/a	<img class = center src='/static/experiments/beast_fmri_test/images/P.png'></img>	89,71	2750.0	test	<img class = center src='/static/experiments/beast_fmri_test/images/redP.png'></img>	stop	1850.0	3.0	14.0	stop	non-target	P	89,Yellow Button	71,Green Button	750.0	900.0	2000.0	1850.0	0.0	1.0	900.0	0.0	n/a	ITI
-31246385828.0	500	n/a	-1	-1	500	0.0	fixation	poldrack-single-stim	229	594172	0.0-13.15-0.15	beast_fmri_test	119	n/a	n/a	<div class = centerbox><div class = fixation>+</div></div>	none	500.0	test	n/a	n/a	n/a	n/a	n/a	n/a	n/a	n/a	n/a	n/a	n/a	n/a	n/a	n/a	n/a	n/a	n/a	n/a	n/a	fixation
-31246385883.901794	2750	n/a	1548	71	2750	56.9017957201	stim	stop-signal	230	596923	0.0-13.15-1.15	beast_fmri_test	119	n/a	n/a	<img class = center src='/static/experiments/beast_fmri_test/images/P.png'></img>	89,71	2750.0	test	<img class = center src='/static/experiments/beast_fmri_test/images/redP.png'></img>	go	1800.0	3.0	15.0	go	non-target	P	89,Yellow Button	71,Green Button	750.0	950.0	2000.0	1800.0	1.0	n/a	950.0	1.0	n/a	go_stim
-31246383133.901794	56.901795720147199	n/a	1548	71	2750	56.9017957201	stim	stop-signal	230	596923	0.0-13.15-1.15	beast_fmri_test	119	n/a	n/a	<img class = center src='/static/experiments/beast_fmri_test/images/P.png'></img>	89,71	2750.0	test	<img class = center src='/static/experiments/beast_fmri_test/images/redP.png'></img>	go	1800.0	3.0	15.0	go	non-target	P	89,Yellow Button	71,Green Button	750.0	950.0	2000.0	1800.0	1.0	n/a	950.0	1.0	n/a	ITI
-31246382512.0	500	n/a	-1	-1	500	0.0	fixation	poldrack-single-stim	231	597488	0.0-13.16-0.16	beast_fmri_test	119	n/a	n/a	<div class = centerbox><div class = fixation>+</div></div>	none	500.0	test	n/a	n/a	n/a	n/a	n/a	n/a	n/a	n/a	n/a	n/a	n/a	n/a	n/a	n/a	n/a	n/a	n/a	n/a	n/a	fixation
-31246382841.373066	2750	n/a	1945	89	2750	331.373066358	stim	stop-signal	232	600240	0.0-13.16-1.16	beast_fmri_test	119	n/a	n/a	<img class = center src='/static/experiments/beast_fmri_test/images/V.png'></img>	89,71	2750.0	test	<img class = center src='/static/experiments/beast_fmri_test/images/redV.png'></img>	go	2000.0	3.0	16.0	go	target	V	89,Yellow Button	71,Green Button	750.0	950.0	2000.0	1800.0	1.0	n/a	750.0	1.0	n/a	go_stim
-31246380091.373066	331.37306635808602	n/a	1945	89	2750	331.373066358	stim	stop-signal	232	600240	0.0-13.16-1.16	beast_fmri_test	119	n/a	n/a	<img class = center src='/static/experiments/beast_fmri_test/images/V.png'></img>	89,71	2750.0	test	<img class = center src='/static/experiments/beast_fmri_test/images/redV.png'></img>	go	2000.0	3.0	16.0	go	target	V	89,Yellow Button	71,Green Button	750.0	950.0	2000.0	1800.0	1.0	n/a	750.0	1.0	n/a	ITI
-31246378919.0	500	n/a	-1	-1	500	0.0	fixation	poldrack-single-stim	233	601081	0.0-13.17-0.17	beast_fmri_test	119	n/a	n/a	<div class = centerbox><div class = fixation>+</div></div>	none	500.0	test	n/a	n/a	n/a	n/a	n/a	n/a	n/a	n/a	n/a	n/a	n/a	n/a	n/a	n/a	n/a	n/a	n/a	n/a	n/a	fixation
-31246380195.63694	2750	n/a	1647	71	2750	1277.63693879	stim	stop-signal	234	603832	0.0-13.17-1.17	beast_fmri_test	119	n/a	n/a	<img class = center src='/static/experiments/beast_fmri_test/images/P.png'></img>	89,71	2750.0	test	<img class = center src='/static/experiments/beast_fmri_test/images/redP.png'></img>	go	2000.0	3.0	17.0	go	target	P	89,Yellow Button	71,Green Button	750.0	950.0	2000.0	1800.0	0.0	n/a	750.0	0.0	n/a	go_stim
-31246377445.63694	1277.6369387933401	n/a	1647	71	2750	1277.63693879	stim	stop-signal	234	603832	0.0-13.17-1.17	beast_fmri_test	119	n/a	n/a	<img class = center src='/static/experiments/beast_fmri_test/images/P.png'></img>	89,71	2750.0	test	<img class = center src='/static/experiments/beast_fmri_test/images/redP.png'></img>	go	2000.0	3.0	17.0	go	target	P	89,Yellow Button	71,Green Button	750.0	950.0	2000.0	1800.0	0.0	n/a	750.0	0.0	n/a	ITI
-31246374382.0	500	n/a	-1	-1	500	0.0	fixation	poldrack-single-stim	235	605618	0.0-13.18-0.18	beast_fmri_test	119	n/a	n/a	<div class = centerbox><div class = fixation>+</div></div>	none	500.0	test	n/a	n/a	n/a	n/a	n/a	n/a	n/a	n/a	n/a	n/a	n/a	n/a	n/a	n/a	n/a	n/a	n/a	n/a	n/a	fixation
-31246376006.8325	750.0	n/a	965	89	2750	1626.83250066	stim	stop-signal	236	608370	0.0-13.18-1.18	beast_fmri_test	119	609864,/	t	<img class = center src='/static/experiments/beast_fmri_test/images/P.png'></img>	89,71	2750.0	test	<img class = center src='/static/experiments/beast_fmri_test/images/redP.png'></img>	stop	2000.0	3.0	18.0	stop	target	P	89,Yellow Button	71,Green Button	750.0	950.0	2000.0	1800.0	0.0	0.0	750.0	1.0	n/a	go_stim
-31246374006.8325	2000.0	n/a	965	89	2750	1626.83250066	stim	stop-signal	236	608370	0.0-13.18-1.18	beast_fmri_test	119	609864,/	t	<img class = center src='/static/experiments/beast_fmri_test/images/P.png'></img>	89,71	2750.0	test	<img class = center src='/static/experiments/beast_fmri_test/images/redP.png'></img>	stop	2000.0	3.0	18.0	stop	target	P	89,Yellow Button	71,Green Button	750.0	950.0	2000.0	1800.0	0.0	0.0	750.0	1.0	n/a	stop_stim
-31246373256.8325	1626.8325006627001	n/a	965	89	2750	1626.83250066	stim	stop-signal	236	608370	0.0-13.18-1.18	beast_fmri_test	119	609864,/	t	<img class = center src='/static/experiments/beast_fmri_test/images/P.png'></img>	89,71	2750.0	test	<img class = center src='/static/experiments/beast_fmri_test/images/redP.png'></img>	stop	2000.0	3.0	18.0	stop	target	P	89,Yellow Button	71,Green Button	750.0	950.0	2000.0	1800.0	0.0	0.0	750.0	1.0	n/a	ITI
-31246369495.0	500	n/a	-1	-1	500	0.0	fixation	poldrack-single-stim	237	610505	0.0-13.19-0.19	beast_fmri_test	119	n/a	n/a	<div class = centerbox><div class = fixation>+</div></div>	none	500.0	test	n/a	n/a	n/a	n/a	n/a	n/a	n/a	n/a	n/a	n/a	n/a	n/a	n/a	n/a	n/a	n/a	n/a	n/a	n/a	fixation
-31246369658.195538	2750	n/a	754	89	2750	164.195536264	stim	stop-signal	238	613256	0.0-13.19-1.19	beast_fmri_test	119	n/a	n/a	<img class = center src='/static/experiments/beast_fmri_test/images/V.png'></img>	89,71	2750.0	test	<img class = center src='/static/experiments/beast_fmri_test/images/redV.png'></img>	go	2050.0	3.0	19.0	go	target	V	89,Yellow Button	71,Green Button	700.0	950.0	2050.0	1800.0	1.0	n/a	700.0	1.0	n/a	go_stim
-31246366908.195538	164.19553626392201	n/a	754	89	2750	164.195536264	stim	stop-signal	238	613256	0.0-13.19-1.19	beast_fmri_test	119	n/a	n/a	<img class = center src='/static/experiments/beast_fmri_test/images/V.png'></img>	89,71	2750.0	test	<img class = center src='/static/experiments/beast_fmri_test/images/redV.png'></img>	go	2050.0	3.0	19.0	go	target	V	89,Yellow Button	71,Green Button	700.0	950.0	2050.0	1800.0	1.0	n/a	700.0	1.0	n/a	ITI
-31246366068.0	500	n/a	-1	-1	500	0.0	fixation	poldrack-single-stim	239	613932	0.0-13.20-0.20	beast_fmri_test	119	n/a	n/a	<div class = centerbox><div class = fixation>+</div></div>	none	500.0	test	n/a	n/a	n/a	n/a	n/a	n/a	n/a	n/a	n/a	n/a	n/a	n/a	n/a	n/a	n/a	n/a	n/a	n/a	n/a	fixation
-31246366212.047169	2750	n/a	2448	89	2750	146.047167968	stim	stop-signal	240	616684	0.0-13.20-1.20	beast_fmri_test	119	n/a	n/a	<img class = center src='/static/experiments/beast_fmri_test/images/P.png'></img>	89,71	2750.0	test	<img class = center src='/static/experiments/beast_fmri_test/images/redP.png'></img>	go	2050.0	3.0	20.0	go	target	P	89,Yellow Button	71,Green Button	700.0	950.0	2050.0	1800.0	1.0	n/a	700.0	1.0	n/a	go_stim
-31246363462.047169	146.04716796777899	n/a	2448	89	2750	146.047167968	stim	stop-signal	240	616684	0.0-13.20-1.20	beast_fmri_test	119	n/a	n/a	<img class = center src='/static/experiments/beast_fmri_test/images/P.png'></img>	89,71	2750.0	test	<img class = center src='/static/experiments/beast_fmri_test/images/redP.png'></img>	go	2050.0	3.0	20.0	go	target	P	89,Yellow Button	71,Green Button	700.0	950.0	2050.0	1800.0	1.0	n/a	700.0	1.0	n/a	ITI
-31246362659.0	500	n/a	-1	-1	500	0.0	fixation	poldrack-single-stim	241	617341	0.0-13.21-0.21	beast_fmri_test	119	n/a	n/a	<div class = centerbox><div class = fixation>+</div></div>	none	500.0	test	n/a	n/a	n/a	n/a	n/a	n/a	n/a	n/a	n/a	n/a	n/a	n/a	n/a	n/a	n/a	n/a	n/a	n/a	n/a	fixation
-31246362836.119305	2750	n/a	690	89	2750	179.119305495	stim	stop-signal	242	620093	0.0-13.21-1.21	beast_fmri_test	119	n/a	n/a	<img class = center src='/static/experiments/beast_fmri_test/images/P.png'></img>	89,71	2750.0	test	<img class = center src='/static/experiments/beast_fmri_test/images/redP.png'></img>	go	2050.0	3.0	21.0	go	target	P	89,Yellow Button	71,Green Button	700.0	950.0	2050.0	1800.0	1.0	n/a	700.0	1.0	n/a	go_stim
-31246360086.119305	179.11930549511999	n/a	690	89	2750	179.119305495	stim	stop-signal	242	620093	0.0-13.21-1.21	beast_fmri_test	119	n/a	n/a	<img class = center src='/static/experiments/beast_fmri_test/images/P.png'></img>	89,71	2750.0	test	<img class = center src='/static/experiments/beast_fmri_test/images/redP.png'></img>	go	2050.0	3.0	21.0	go	target	P	89,Yellow Button	71,Green Button	700.0	950.0	2050.0	1800.0	1.0	n/a	700.0	1.0	n/a	ITI
-31246359216.0	500	n/a	-1	-1	500	0.0	fixation	poldrack-single-stim	243	620784	0.0-13.22-0.22	beast_fmri_test	119	n/a	n/a	<div class = centerbox><div class = fixation>+</div></div>	none	500.0	test	n/a	n/a	n/a	n/a	n/a	n/a	n/a	n/a	n/a	n/a	n/a	n/a	n/a	n/a	n/a	n/a	n/a	n/a	n/a	fixation
-31246360870.6208	2750	n/a	1357	89	2750	1656.62079992	stim	stop-signal	244	623536	0.0-13.22-1.22	beast_fmri_test	119	n/a	n/a	<img class = center src='/static/experiments/beast_fmri_test/images/V.png'></img>	89,71	2750.0	test	<img class = center src='/static/experiments/beast_fmri_test/images/redV.png'></img>	go	2050.0	3.0	22.0	go	target	V	89,Yellow Button	71,Green Button	700.0	950.0	2050.0	1800.0	1.0	n/a	700.0	1.0	n/a	go_stim
-31246358120.6208	1656.6207999225401	n/a	1357	89	2750	1656.62079992	stim	stop-signal	244	623536	0.0-13.22-1.22	beast_fmri_test	119	n/a	n/a	<img class = center src='/static/experiments/beast_fmri_test/images/V.png'></img>	89,71	2750.0	test	<img class = center src='/static/experiments/beast_fmri_test/images/redV.png'></img>	go	2050.0	3.0	22.0	go	target	V	89,Yellow Button	71,Green Button	700.0	950.0	2050.0	1800.0	1.0	n/a	700.0	1.0	n/a	ITI
-31246354299.0	500	n/a	-1	-1	500	0.0	fixation	poldrack-single-stim	245	625701	0.0-13.23-0.23	beast_fmri_test	119	n/a	n/a	<div class = centerbox><div class = fixation>+</div></div>	none	500.0	test	n/a	n/a	n/a	n/a	n/a	n/a	n/a	n/a	n/a	n/a	n/a	n/a	n/a	n/a	n/a	n/a	n/a	n/a	n/a	fixation
-31246354560.94371	2750	n/a	2524	71	2750	263.943708866	stim	stop-signal	246	628453	0.0-13.23-1.23	beast_fmri_test	119	n/a	n/a	<img class = center src='/static/experiments/beast_fmri_test/images/V.png'></img>	89,71	2750.0	test	<img class = center src='/static/experiments/beast_fmri_test/images/redV.png'></img>	go	1800.0	3.0	23.0	go	non-target	V	89,Yellow Button	71,Green Button	700.0	950.0	2050.0	1800.0	1.0	n/a	950.0	1.0	n/a	go_stim
-31246351810.94371	263.94370886604401	n/a	2524	71	2750	263.943708866	stim	stop-signal	246	628453	0.0-13.23-1.23	beast_fmri_test	119	n/a	n/a	<img class = center src='/static/experiments/beast_fmri_test/images/V.png'></img>	89,71	2750.0	test	<img class = center src='/static/experiments/beast_fmri_test/images/redV.png'></img>	go	1800.0	3.0	23.0	go	non-target	V	89,Yellow Button	71,Green Button	700.0	950.0	2050.0	1800.0	1.0	n/a	950.0	1.0	n/a	ITI
-31246350773.0	500	n/a	-1	-1	500	0.0	fixation	poldrack-single-stim	247	629227	0.0-13.24-0.24	beast_fmri_test	119	628904,/	t	<div class = centerbox><div class = fixation>+</div></div>	none	500.0	test	n/a	n/a	n/a	n/a	n/a	n/a	n/a	n/a	n/a	n/a	n/a	n/a	n/a	n/a	n/a	n/a	n/a	n/a	n/a	fixation
-31246351807.066963	700.0	n/a	-1	-1	2750	1036.06696483	stim	stop-signal	248	631979	0.0-13.24-1.24	beast_fmri_test	119	n/a	n/a	<img class = center src='/static/experiments/beast_fmri_test/images/P.png'></img>	89,71	2750.0	test	<img class = center src='/static/experiments/beast_fmri_test/images/redP.png'></img>	stop	2050.0	3.0	24.0	stop	target	P	89,Yellow Button	71,Green Button	700.0	950.0	2050.0	1800.0	0.0	1.0	700.0	0.0	n/a	go_stim
-31246349757.066963	2050.0	n/a	-1	-1	2750	1036.06696483	stim	stop-signal	248	631979	0.0-13.24-1.24	beast_fmri_test	119	n/a	n/a	<img class = center src='/static/experiments/beast_fmri_test/images/P.png'></img>	89,71	2750.0	test	<img class = center src='/static/experiments/beast_fmri_test/images/redP.png'></img>	stop	2050.0	3.0	24.0	stop	target	P	89,Yellow Button	71,Green Button	700.0	950.0	2050.0	1800.0	0.0	1.0	700.0	0.0	n/a	stop_stim
-31246349057.066963	1036.06696483004	n/a	-1	-1	2750	1036.06696483	stim	stop-signal	248	631979	0.0-13.24-1.24	beast_fmri_test	119	n/a	n/a	<img class = center src='/static/experiments/beast_fmri_test/images/P.png'></img>	89,71	2750.0	test	<img class = center src='/static/experiments/beast_fmri_test/images/redP.png'></img>	stop	2050.0	3.0	24.0	stop	target	P	89,Yellow Button	71,Green Button	700.0	950.0	2050.0	1800.0	0.0	1.0	700.0	0.0	n/a	ITI
-31246346472.0	500	n/a	-1	-1	500	0.0	fixation	poldrack-single-stim	249	633528	0.0-13.25-0.25	beast_fmri_test	119	n/a	n/a	<div class = centerbox><div class = fixation>+</div></div>	none	500.0	test	n/a	n/a	n/a	n/a	n/a	n/a	n/a	n/a	n/a	n/a	n/a	n/a	n/a	n/a	n/a	n/a	n/a	n/a	n/a	fixation
-31246346567.331978	2750	n/a	872	89	2750	97.331978778	stim	stop-signal	250	636280	0.0-13.25-1.25	beast_fmri_test	119	n/a	n/a	<img class = center src='/static/experiments/beast_fmri_test/images/V.png'></img>	89,71	2750.0	test	<img class = center src='/static/experiments/beast_fmri_test/images/redV.png'></img>	go	2000.0	3.0	25.0	go	target	V	89,Yellow Button	71,Green Button	750.0	950.0	2000.0	1800.0	1.0	n/a	750.0	1.0	n/a	go_stim
-31246343817.331978	97.331978778038405	n/a	872	89	2750	97.331978778	stim	stop-signal	250	636280	0.0-13.25-1.25	beast_fmri_test	119	n/a	n/a	<img class = center src='/static/experiments/beast_fmri_test/images/V.png'></img>	89,71	2750.0	test	<img class = center src='/static/experiments/beast_fmri_test/images/redV.png'></img>	go	2000.0	3.0	25.0	go	target	V	89,Yellow Button	71,Green Button	750.0	950.0	2000.0	1800.0	1.0	n/a	750.0	1.0	n/a	ITI
-31246343114.0	500	n/a	-1	-1	500	0.0	fixation	poldrack-single-stim	251	636886	0.0-13.26-0.26	beast_fmri_test	119	n/a	n/a	<div class = centerbox><div class = fixation>+</div></div>	none	500.0	test	n/a	n/a	n/a	n/a	n/a	n/a	n/a	n/a	n/a	n/a	n/a	n/a	n/a	n/a	n/a	n/a	n/a	n/a	n/a	fixation
-31246343372.548752	750.0	n/a	1779	89	2750	260.548752736	stim	stop-signal	252	639638	0.0-13.26-1.26	beast_fmri_test	119	n/a	n/a	<img class = center src='/static/experiments/beast_fmri_test/images/V.png'></img>	89,71	2750.0	test	<img class = center src='/static/experiments/beast_fmri_test/images/redV.png'></img>	stop	2000.0	3.0	26.0	stop	target	V	89,Yellow Button	71,Green Button	750.0	950.0	2000.0	1800.0	0.0	0.0	750.0	1.0	n/a	go_stim
-31246341372.548752	2000.0	n/a	1779	89	2750	260.548752736	stim	stop-signal	252	639638	0.0-13.26-1.26	beast_fmri_test	119	n/a	n/a	<img class = center src='/static/experiments/beast_fmri_test/images/V.png'></img>	89,71	2750.0	test	<img class = center src='/static/experiments/beast_fmri_test/images/redV.png'></img>	stop	2000.0	3.0	26.0	stop	target	V	89,Yellow Button	71,Green Button	750.0	950.0	2000.0	1800.0	0.0	0.0	750.0	1.0	n/a	stop_stim
-31246340622.548752	260.54875273591	n/a	1779	89	2750	260.548752736	stim	stop-signal	252	639638	0.0-13.26-1.26	beast_fmri_test	119	n/a	n/a	<img class = center src='/static/experiments/beast_fmri_test/images/V.png'></img>	89,71	2750.0	test	<img class = center src='/static/experiments/beast_fmri_test/images/redV.png'></img>	stop	2000.0	3.0	26.0	stop	target	V	89,Yellow Button	71,Green Button	750.0	950.0	2000.0	1800.0	0.0	0.0	750.0	1.0	n/a	ITI
-31246339590.0	500	n/a	-1	-1	500	0.0	fixation	poldrack-single-stim	253	640410	0.0-13.27-0.27	beast_fmri_test	119	n/a	n/a	<div class = centerbox><div class = fixation>+</div></div>	none	500.0	test	n/a	n/a	n/a	n/a	n/a	n/a	n/a	n/a	n/a	n/a	n/a	n/a	n/a	n/a	n/a	n/a	n/a	n/a	n/a	fixation
-31246341573.119099	950.0	n/a	-1	-1	2750	1985.11909961	stim	stop-signal	254	643162	0.0-13.27-1.27	beast_fmri_test	119	n/a	n/a	<img class = center src='/static/experiments/beast_fmri_test/images/V.png'></img>	89,71	2750.0	test	<img class = center src='/static/experiments/beast_fmri_test/images/redV.png'></img>	stop	1800.0	3.0	27.0	stop	non-target	V	89,Yellow Button	71,Green Button	700.0	950.0	2000.0	1800.0	0.0	1.0	950.0	0.0	n/a	go_stim
-31246339773.119099	1800.0	n/a	-1	-1	2750	1985.11909961	stim	stop-signal	254	643162	0.0-13.27-1.27	beast_fmri_test	119	n/a	n/a	<img class = center src='/static/experiments/beast_fmri_test/images/V.png'></img>	89,71	2750.0	test	<img class = center src='/static/experiments/beast_fmri_test/images/redV.png'></img>	stop	1800.0	3.0	27.0	stop	non-target	V	89,Yellow Button	71,Green Button	700.0	950.0	2000.0	1800.0	0.0	1.0	950.0	0.0	n/a	stop_stim
-31246338823.119099	1985.1190996093001	n/a	-1	-1	2750	1985.11909961	stim	stop-signal	254	643162	0.0-13.27-1.27	beast_fmri_test	119	n/a	n/a	<img class = center src='/static/experiments/beast_fmri_test/images/V.png'></img>	89,71	2750.0	test	<img class = center src='/static/experiments/beast_fmri_test/images/redV.png'></img>	stop	1800.0	3.0	27.0	stop	non-target	V	89,Yellow Button	71,Green Button	700.0	950.0	2000.0	1800.0	0.0	1.0	950.0	0.0	n/a	ITI
-31246334339.0	500	n/a	-1	-1	500	0.0	fixation	poldrack-single-stim	255	645661	0.0-13.28-0.28	beast_fmri_test	119	n/a	n/a	<div class = centerbox><div class = fixation>+</div></div>	none	500.0	test	n/a	n/a	n/a	n/a	n/a	n/a	n/a	n/a	n/a	n/a	n/a	n/a	n/a	n/a	n/a	n/a	n/a	n/a	n/a	fixation
-31246334500.551273	1000.0	n/a	1378	89	2750	163.551273157	stim	stop-signal	256	648413	0.0-13.28-1.28	beast_fmri_test	119	n/a	n/a	<img class = center src='/static/experiments/beast_fmri_test/images/P.png'></img>	89,71	2750.0	test	<img class = center src='/static/experiments/beast_fmri_test/images/redP.png'></img>	stop	1750.0	3.0	28.0	stop	non-target	P	89,Yellow Button	71,Green Button	700.0	1000.0	2000.0	1750.0	0.0	0.0	1000.0	0.0	n/a	go_stim
-31246332750.551273	1750.0	n/a	1378	89	2750	163.551273157	stim	stop-signal	256	648413	0.0-13.28-1.28	beast_fmri_test	119	n/a	n/a	<img class = center src='/static/experiments/beast_fmri_test/images/P.png'></img>	89,71	2750.0	test	<img class = center src='/static/experiments/beast_fmri_test/images/redP.png'></img>	stop	1750.0	3.0	28.0	stop	non-target	P	89,Yellow Button	71,Green Button	700.0	1000.0	2000.0	1750.0	0.0	0.0	1000.0	0.0	n/a	stop_stim
-31246331750.551273	163.55127315675699	n/a	1378	89	2750	163.551273157	stim	stop-signal	256	648413	0.0-13.28-1.28	beast_fmri_test	119	n/a	n/a	<img class = center src='/static/experiments/beast_fmri_test/images/P.png'></img>	89,71	2750.0	test	<img class = center src='/static/experiments/beast_fmri_test/images/redP.png'></img>	stop	1750.0	3.0	28.0	stop	non-target	P	89,Yellow Button	71,Green Button	700.0	1000.0	2000.0	1750.0	0.0	0.0	1000.0	0.0	n/a	ITI
-31246330912.0	500	n/a	-1	-1	500	0.0	fixation	poldrack-single-stim	257	649088	0.0-13.29-0.29	beast_fmri_test	119	n/a	n/a	<div class = centerbox><div class = fixation>+</div></div>	none	500.0	test	n/a	n/a	n/a	n/a	n/a	n/a	n/a	n/a	n/a	n/a	n/a	n/a	n/a	n/a	n/a	n/a	n/a	n/a	n/a	fixation
-31246332152.887535	2750	n/a	-1	-1	2750	1242.88753618	stim	stop-signal	258	651840	0.0-13.29-1.29	beast_fmri_test	119	649305,/,652705,/	t,t	<img class = center src='/static/experiments/beast_fmri_test/images/P.png'></img>	89,71	2750.0	test	<img class = center src='/static/experiments/beast_fmri_test/images/redP.png'></img>	go	1800.0	3.0	29.0	go	non-target	P	89,Yellow Button	71,Green Button	700.0	950.0	2000.0	1800.0	0.0	n/a	950.0	0.0	n/a	go_stim
-31246329402.887535	1242.8875361826099	n/a	-1	-1	2750	1242.88753618	stim	stop-signal	258	651840	0.0-13.29-1.29	beast_fmri_test	119	649305,/,652705,/	t,t	<img class = center src='/static/experiments/beast_fmri_test/images/P.png'></img>	89,71	2750.0	test	<img class = center src='/static/experiments/beast_fmri_test/images/redP.png'></img>	go	1800.0	3.0	29.0	go	non-target	P	89,Yellow Button	71,Green Button	700.0	950.0	2000.0	1800.0	0.0	n/a	950.0	0.0	n/a	ITI
-31246326405.0	500	n/a	-1	-1	500	0.0	fixation	poldrack-single-stim	259	653595	0.0-13.30-0.30	beast_fmri_test	119	n/a	n/a	<div class = centerbox><div class = fixation>+</div></div>	none	500.0	test	n/a	n/a	n/a	n/a	n/a	n/a	n/a	n/a	n/a	n/a	n/a	n/a	n/a	n/a	n/a	n/a	n/a	n/a	n/a	fixation
-31246326853.081467	2750	n/a	1486	71	2750	450.081466952	stim	stop-signal	260	656347	0.0-13.30-1.30	beast_fmri_test	119	n/a	n/a	<img class = center src='/static/experiments/beast_fmri_test/images/T.png'></img>	89,71	2750.0	test	<img class = center src='/static/experiments/beast_fmri_test/images/redT.png'></img>	go	1800.0	3.0	30.0	go	non-target	T	89,Yellow Button	71,Green Button	700.0	950.0	2000.0	1800.0	1.0	n/a	950.0	1.0	n/a	go_stim
-31246324103.081467	450.08146695191499	n/a	1486	71	2750	450.081466952	stim	stop-signal	260	656347	0.0-13.30-1.30	beast_fmri_test	119	n/a	n/a	<img class = center src='/static/experiments/beast_fmri_test/images/T.png'></img>	89,71	2750.0	test	<img class = center src='/static/experiments/beast_fmri_test/images/redT.png'></img>	go	1800.0	3.0	30.0	go	non-target	T	89,Yellow Button	71,Green Button	700.0	950.0	2000.0	1800.0	1.0	n/a	950.0	1.0	n/a	ITI
-31246322693.0	500	n/a	-1	-1	500	0.0	fixation	poldrack-single-stim	261	657307	0.0-13.31-0.31	beast_fmri_test	119	n/a	n/a	<div class = centerbox><div class = fixation>+</div></div>	none	500.0	test	n/a	n/a	n/a	n/a	n/a	n/a	n/a	n/a	n/a	n/a	n/a	n/a	n/a	n/a	n/a	n/a	n/a	n/a	n/a	fixation
-31246324425.952374	950.0	n/a	-1	-1	2750	1735.95237219	stim	stop-signal	262	660060	0.0-13.31-1.31	beast_fmri_test	119	n/a	n/a	<img class = center src='/static/experiments/beast_fmri_test/images/V.png'></img>	89,71	2750.0	test	<img class = center src='/static/experiments/beast_fmri_test/images/redV.png'></img>	stop	1800.0	3.0	31.0	stop	non-target	V	89,Yellow Button	71,Green Button	700.0	950.0	2000.0	1800.0	0.0	1.0	950.0	0.0	n/a	go_stim
-31246322625.952374	1800.0	n/a	-1	-1	2750	1735.95237219	stim	stop-signal	262	660060	0.0-13.31-1.31	beast_fmri_test	119	n/a	n/a	<img class = center src='/static/experiments/beast_fmri_test/images/V.png'></img>	89,71	2750.0	test	<img class = center src='/static/experiments/beast_fmri_test/images/redV.png'></img>	stop	1800.0	3.0	31.0	stop	non-target	V	89,Yellow Button	71,Green Button	700.0	950.0	2000.0	1800.0	0.0	1.0	950.0	0.0	n/a	stop_stim
-31246321675.952374	1735.9523721876601	n/a	-1	-1	2750	1735.95237219	stim	stop-signal	262	660060	0.0-13.31-1.31	beast_fmri_test	119	n/a	n/a	<img class = center src='/static/experiments/beast_fmri_test/images/V.png'></img>	89,71	2750.0	test	<img class = center src='/static/experiments/beast_fmri_test/images/redV.png'></img>	stop	1800.0	3.0	31.0	stop	non-target	V	89,Yellow Button	71,Green Button	700.0	950.0	2000.0	1800.0	0.0	1.0	950.0	0.0	n/a	ITI
-31246317693.0	500	n/a	-1	-1	500	0.0	fixation	poldrack-single-stim	263	662307	0.0-13.32-0.32	beast_fmri_test	119	n/a	n/a	<div class = centerbox><div class = fixation>+</div></div>	none	500.0	test	n/a	n/a	n/a	n/a	n/a	n/a	n/a	n/a	n/a	n/a	n/a	n/a	n/a	n/a	n/a	n/a	n/a	n/a	n/a	fixation
-31246318813.665718	2750	n/a	1667	71	2750	1122.66571675	stim	stop-signal	264	665059	0.0-13.32-1.32	beast_fmri_test	119	n/a	n/a	<img class = center src='/static/experiments/beast_fmri_test/images/B.png'></img>	89,71	2750.0	test	<img class = center src='/static/experiments/beast_fmri_test/images/redB.png'></img>	go	1750.0	3.0	32.0	go	non-target	B	89,Yellow Button	71,Green Button	700.0	1000.0	2000.0	1750.0	1.0	n/a	1000.0	1.0	n/a	go_stim
-31246316063.665718	1122.66571675416	n/a	1667	71	2750	1122.66571675	stim	stop-signal	264	665059	0.0-13.32-1.32	beast_fmri_test	119	n/a	n/a	<img class = center src='/static/experiments/beast_fmri_test/images/B.png'></img>	89,71	2750.0	test	<img class = center src='/static/experiments/beast_fmri_test/images/redB.png'></img>	go	1750.0	3.0	32.0	go	non-target	B	89,Yellow Button	71,Green Button	700.0	1000.0	2000.0	1750.0	1.0	n/a	1000.0	1.0	n/a	ITI
-31246313306.0	500	n/a	-1	-1	500	0.0	fixation	poldrack-single-stim	265	666694	0.0-13.33-0.33	beast_fmri_test	119	n/a	n/a	<div class = centerbox><div class = fixation>+</div></div>	none	500.0	test	n/a	n/a	n/a	n/a	n/a	n/a	n/a	n/a	n/a	n/a	n/a	n/a	n/a	n/a	n/a	n/a	n/a	n/a	n/a	fixation
-31246314548.974342	1000.0	n/a	-1	-1	2750	1244.97434368	stim	stop-signal	266	669446	0.0-13.33-1.33	beast_fmri_test	119	666984,/	t	<img class = center src='/static/experiments/beast_fmri_test/images/V.png'></img>	89,71	2750.0	test	<img class = center src='/static/experiments/beast_fmri_test/images/redV.png'></img>	stop	1750.0	3.0	33.0	stop	non-target	V	89,Yellow Button	71,Green Button	700.0	1000.0	2000.0	1750.0	0.0	1.0	1000.0	0.0	n/a	go_stim
-31246312798.974342	1750.0	n/a	-1	-1	2750	1244.97434368	stim	stop-signal	266	669446	0.0-13.33-1.33	beast_fmri_test	119	666984,/	t	<img class = center src='/static/experiments/beast_fmri_test/images/V.png'></img>	89,71	2750.0	test	<img class = center src='/static/experiments/beast_fmri_test/images/redV.png'></img>	stop	1750.0	3.0	33.0	stop	non-target	V	89,Yellow Button	71,Green Button	700.0	1000.0	2000.0	1750.0	0.0	1.0	1000.0	0.0	n/a	stop_stim
-31246311798.974342	1244.9743436845799	n/a	-1	-1	2750	1244.97434368	stim	stop-signal	266	669446	0.0-13.33-1.33	beast_fmri_test	119	666984,/	t	<img class = center src='/static/experiments/beast_fmri_test/images/V.png'></img>	89,71	2750.0	test	<img class = center src='/static/experiments/beast_fmri_test/images/redV.png'></img>	stop	1750.0	3.0	33.0	stop	non-target	V	89,Yellow Button	71,Green Button	700.0	1000.0	2000.0	1750.0	0.0	1.0	1000.0	0.0	n/a	ITI
-31246308797.0	500	n/a	-1	-1	500	0.0	fixation	poldrack-single-stim	267	671203	0.0-13.34-0.34	beast_fmri_test	119	n/a	n/a	<div class = centerbox><div class = fixation>+</div></div>	none	500.0	test	n/a	n/a	n/a	n/a	n/a	n/a	n/a	n/a	n/a	n/a	n/a	n/a	n/a	n/a	n/a	n/a	n/a	n/a	n/a	fixation
-31246309023.285042	1050.0	n/a	1292	71	2750	227.285041639	stim	stop-signal	268	673954	0.0-13.34-1.34	beast_fmri_test	119	673104,/	t	<img class = center src='/static/experiments/beast_fmri_test/images/P.png'></img>	89,71	2750.0	test	<img class = center src='/static/experiments/beast_fmri_test/images/redP.png'></img>	stop	1700.0	3.0	34.0	stop	non-target	P	89,Yellow Button	71,Green Button	700.0	1050.0	2000.0	1700.0	0.0	0.0	1050.0	1.0	n/a	go_stim
-31246307323.285042	1700.0	n/a	1292	71	2750	227.285041639	stim	stop-signal	268	673954	0.0-13.34-1.34	beast_fmri_test	119	673104,/	t	<img class = center src='/static/experiments/beast_fmri_test/images/P.png'></img>	89,71	2750.0	test	<img class = center src='/static/experiments/beast_fmri_test/images/redP.png'></img>	stop	1700.0	3.0	34.0	stop	non-target	P	89,Yellow Button	71,Green Button	700.0	1050.0	2000.0	1700.0	0.0	0.0	1050.0	1.0	n/a	stop_stim
-31246306273.285042	227.28504163858199	n/a	1292	71	2750	227.285041639	stim	stop-signal	268	673954	0.0-13.34-1.34	beast_fmri_test	119	673104,/	t	<img class = center src='/static/experiments/beast_fmri_test/images/P.png'></img>	89,71	2750.0	test	<img class = center src='/static/experiments/beast_fmri_test/images/redP.png'></img>	stop	1700.0	3.0	34.0	stop	non-target	P	89,Yellow Button	71,Green Button	700.0	1050.0	2000.0	1700.0	0.0	0.0	1050.0	1.0	n/a	ITI
-31246305306.0	500	n/a	-1	-1	500	0.0	fixation	poldrack-single-stim	269	674694	0.0-13.35-0.35	beast_fmri_test	119	n/a	n/a	<div class = centerbox><div class = fixation>+</div></div>	none	500.0	test	n/a	n/a	n/a	n/a	n/a	n/a	n/a	n/a	n/a	n/a	n/a	n/a	n/a	n/a	n/a	n/a	n/a	n/a	n/a	fixation
-31246305714.284203	2750	n/a	2561	71	2750	410.28420306	stim	stop-signal	270	677446	0.0-13.35-1.35	beast_fmri_test	119	n/a	n/a	<img class = center src='/static/experiments/beast_fmri_test/images/P.png'></img>	89,71	2750.0	test	<img class = center src='/static/experiments/beast_fmri_test/images/redP.png'></img>	go	1750.0	3.0	35.0	go	non-target	P	89,Yellow Button	71,Green Button	700.0	1000.0	2000.0	1750.0	1.0	n/a	1000.0	1.0	n/a	go_stim
-31246302964.284203	410.28420305987697	n/a	2561	71	2750	410.28420306	stim	stop-signal	270	677446	0.0-13.35-1.35	beast_fmri_test	119	n/a	n/a	<img class = center src='/static/experiments/beast_fmri_test/images/P.png'></img>	89,71	2750.0	test	<img class = center src='/static/experiments/beast_fmri_test/images/redP.png'></img>	go	1750.0	3.0	35.0	go	non-target	P	89,Yellow Button	71,Green Button	700.0	1000.0	2000.0	1750.0	1.0	n/a	1000.0	1.0	n/a	ITI
-31246301632.0	500	n/a	-1	-1	500	0.0	fixation	poldrack-single-stim	271	678368	0.0-13.36-0.36	beast_fmri_test	119	n/a	n/a	<div class = centerbox><div class = fixation>+</div></div>	none	500.0	test	n/a	n/a	n/a	n/a	n/a	n/a	n/a	n/a	n/a	n/a	n/a	n/a	n/a	n/a	n/a	n/a	n/a	n/a	n/a	fixation
-31246303456.330681	2750	n/a	2722	71	2750	1827.33067899	stim	stop-signal	272	681121	0.0-13.36-1.36	beast_fmri_test	119	682625,/	t	<img class = center src='/static/experiments/beast_fmri_test/images/T.png'></img>	89,71	2750.0	test	<img class = center src='/static/experiments/beast_fmri_test/images/redT.png'></img>	go	1750.0	3.0	36.0	go	non-target	T	89,Yellow Button	71,Green Button	700.0	1000.0	2000.0	1750.0	1.0	n/a	1000.0	1.0	n/a	go_stim
-31246300706.330681	1827.3306789860101	n/a	2722	71	2750	1827.33067899	stim	stop-signal	272	681121	0.0-13.36-1.36	beast_fmri_test	119	682625,/	t	<img class = center src='/static/experiments/beast_fmri_test/images/T.png'></img>	89,71	2750.0	test	<img class = center src='/static/experiments/beast_fmri_test/images/redT.png'></img>	go	1750.0	3.0	36.0	go	non-target	T	89,Yellow Button	71,Green Button	700.0	1000.0	2000.0	1750.0	1.0	n/a	1000.0	1.0	n/a	ITI
-31246296539.0	500	n/a	-1	-1	500	0.0	fixation	poldrack-single-stim	273	683461	0.0-13.37-0.37	beast_fmri_test	119	n/a	n/a	<div class = centerbox><div class = fixation>+</div></div>	none	500.0	test	n/a	n/a	n/a	n/a	n/a	n/a	n/a	n/a	n/a	n/a	n/a	n/a	n/a	n/a	n/a	n/a	n/a	n/a	n/a	fixation
-31246296701.261303	2750	n/a	795	71	2750	165.261304562	stim	stop-signal	274	686214	0.0-13.37-1.37	beast_fmri_test	119	n/a	n/a	<img class = center src='/static/experiments/beast_fmri_test/images/B.png'></img>	89,71	2750.0	test	<img class = center src='/static/experiments/beast_fmri_test/images/redB.png'></img>	go	1750.0	3.0	37.0	go	non-target	B	89,Yellow Button	71,Green Button	700.0	1000.0	2000.0	1750.0	1.0	n/a	1000.0	1.0	n/a	go_stim
-31246293951.261303	165.26130456165299	n/a	795	71	2750	165.261304562	stim	stop-signal	274	686214	0.0-13.37-1.37	beast_fmri_test	119	n/a	n/a	<img class = center src='/static/experiments/beast_fmri_test/images/B.png'></img>	89,71	2750.0	test	<img class = center src='/static/experiments/beast_fmri_test/images/redB.png'></img>	go	1750.0	3.0	37.0	go	non-target	B	89,Yellow Button	71,Green Button	700.0	1000.0	2000.0	1750.0	1.0	n/a	1000.0	1.0	n/a	ITI
-31246293107.0	500	n/a	-1	-1	500	0.0	fixation	poldrack-single-stim	275	686893	0.0-13.38-0.38	beast_fmri_test	119	n/a	n/a	<div class = centerbox><div class = fixation>+</div></div>	none	500.0	test	n/a	n/a	n/a	n/a	n/a	n/a	n/a	n/a	n/a	n/a	n/a	n/a	n/a	n/a	n/a	n/a	n/a	n/a	n/a	fixation
-31246293411.154591	2750	n/a	1466	71	2750	305.154591698	stim	stop-signal	276	689644	0.0-13.38-1.38	beast_fmri_test	119	n/a	n/a	<img class = center src='/static/experiments/beast_fmri_test/images/B.png'></img>	89,71	2750.0	test	<img class = center src='/static/experiments/beast_fmri_test/images/redB.png'></img>	go	1750.0	3.0	38.0	go	non-target	B	89,Yellow Button	71,Green Button	700.0	1000.0	2000.0	1750.0	1.0	n/a	1000.0	1.0	n/a	go_stim
-31246290661.154591	305.15459169759799	n/a	1466	71	2750	305.154591698	stim	stop-signal	276	689644	0.0-13.38-1.38	beast_fmri_test	119	n/a	n/a	<img class = center src='/static/experiments/beast_fmri_test/images/B.png'></img>	89,71	2750.0	test	<img class = center src='/static/experiments/beast_fmri_test/images/redB.png'></img>	go	1750.0	3.0	38.0	go	non-target	B	89,Yellow Button	71,Green Button	700.0	1000.0	2000.0	1750.0	1.0	n/a	1000.0	1.0	n/a	ITI
-31246289539.0	500	n/a	-1	-1	500	0.0	fixation	poldrack-single-stim	277	690461	0.0-13.39-0.39	beast_fmri_test	119	n/a	n/a	<div class = centerbox><div class = fixation>+</div></div>	none	500.0	test	n/a	n/a	n/a	n/a	n/a	n/a	n/a	n/a	n/a	n/a	n/a	n/a	n/a	n/a	n/a	n/a	n/a	n/a	n/a	fixation
-31246290593.010532	2750	n/a	1246	71	2750	1056.01053242	stim	stop-signal	278	693213	0.0-13.39-1.39	beast_fmri_test	119	n/a	n/a	<img class = center src='/static/experiments/beast_fmri_test/images/P.png'></img>	89,71	2750.0	test	<img class = center src='/static/experiments/beast_fmri_test/images/redP.png'></img>	go	1750.0	3.0	39.0	go	non-target	P	89,Yellow Button	71,Green Button	700.0	1000.0	2000.0	1750.0	1.0	n/a	1000.0	1.0	n/a	go_stim
-31246287843.010532	1056.01053241671	n/a	1246	71	2750	1056.01053242	stim	stop-signal	278	693213	0.0-13.39-1.39	beast_fmri_test	119	n/a	n/a	<img class = center src='/static/experiments/beast_fmri_test/images/P.png'></img>	89,71	2750.0	test	<img class = center src='/static/experiments/beast_fmri_test/images/redP.png'></img>	go	1750.0	3.0	39.0	go	non-target	P	89,Yellow Button	71,Green Button	700.0	1000.0	2000.0	1750.0	1.0	n/a	1000.0	1.0	n/a	ITI
-31246285219.0	500	n/a	-1	-1	500	0.0	fixation	poldrack-single-stim	279	694781	0.0-13.40-0.40	beast_fmri_test	119	n/a	n/a	<div class = centerbox><div class = fixation>+</div></div>	none	500.0	test	n/a	n/a	n/a	n/a	n/a	n/a	n/a	n/a	n/a	n/a	n/a	n/a	n/a	n/a	n/a	n/a	n/a	n/a	n/a	fixation
-31246285759.397583	2750	n/a	715	71	2750	541.397581287	stim	stop-signal	280	697532	0.0-13.40-1.40	beast_fmri_test	119	n/a	n/a	<img class = center src='/static/experiments/beast_fmri_test/images/V.png'></img>	89,71	2750.0	test	<img class = center src='/static/experiments/beast_fmri_test/images/redV.png'></img>	go	1750.0	3.0	40.0	go	non-target	V	89,Yellow Button	71,Green Button	700.0	1000.0	2000.0	1750.0	1.0	n/a	1000.0	1.0	n/a	go_stim
-31246283009.397583	541.39758128695098	n/a	715	71	2750	541.397581287	stim	stop-signal	280	697532	0.0-13.40-1.40	beast_fmri_test	119	n/a	n/a	<img class = center src='/static/experiments/beast_fmri_test/images/V.png'></img>	89,71	2750.0	test	<img class = center src='/static/experiments/beast_fmri_test/images/redV.png'></img>	go	1750.0	3.0	40.0	go	non-target	V	89,Yellow Button	71,Green Button	700.0	1000.0	2000.0	1750.0	1.0	n/a	1000.0	1.0	n/a	ITI
-31246281415.0	500	n/a	-1	-1	500	0.0	fixation	poldrack-single-stim	281	698585	0.0-13.41-0.41	beast_fmri_test	119	n/a	n/a	<div class = centerbox><div class = fixation>+</div></div>	none	500.0	test	n/a	n/a	n/a	n/a	n/a	n/a	n/a	n/a	n/a	n/a	n/a	n/a	n/a	n/a	n/a	n/a	n/a	n/a	n/a	fixation
-31246281633.700253	2750	n/a	1575	89	2750	220.700252795	stim	stop-signal	282	701337	0.0-13.41-1.41	beast_fmri_test	119	n/a	n/a	<img class = center src='/static/experiments/beast_fmri_test/images/B.png'></img>	89,71	2750.0	test	<img class = center src='/static/experiments/beast_fmri_test/images/redB.png'></img>	go	2050.0	3.0	41.0	go	target	B	89,Yellow Button	71,Green Button	700.0	1000.0	2050.0	1750.0	1.0	n/a	700.0	1.0	n/a	go_stim
-31246278883.700253	220.70025279494499	n/a	1575	89	2750	220.700252795	stim	stop-signal	282	701337	0.0-13.41-1.41	beast_fmri_test	119	n/a	n/a	<img class = center src='/static/experiments/beast_fmri_test/images/B.png'></img>	89,71	2750.0	test	<img class = center src='/static/experiments/beast_fmri_test/images/redB.png'></img>	go	2050.0	3.0	41.0	go	target	B	89,Yellow Button	71,Green Button	700.0	1000.0	2050.0	1750.0	1.0	n/a	700.0	1.0	n/a	ITI
-31246277932.0	500	n/a	-1	-1	500	0.0	fixation	poldrack-single-stim	283	702068	0.0-13.42-0.42	beast_fmri_test	119	n/a	n/a	<div class = centerbox><div class = fixation>+</div></div>	none	500.0	test	n/a	n/a	n/a	n/a	n/a	n/a	n/a	n/a	n/a	n/a	n/a	n/a	n/a	n/a	n/a	n/a	n/a	n/a	n/a	fixation
-31246280244.750919	2750	n/a	857	71	2750	2314.75091928	stim	stop-signal	284	704820	0.0-13.42-1.42	beast_fmri_test	119	n/a	n/a	<img class = center src='/static/experiments/beast_fmri_test/images/B.png'></img>	89,71	2750.0	test	<img class = center src='/static/experiments/beast_fmri_test/images/redB.png'></img>	go	1750.0	3.0	42.0	go	non-target	B	89,Yellow Button	71,Green Button	700.0	1000.0	2050.0	1750.0	1.0	n/a	1000.0	1.0	n/a	go_stim
-31246277494.750919	2314.7509192756902	n/a	857	71	2750	2314.75091928	stim	stop-signal	284	704820	0.0-13.42-1.42	beast_fmri_test	119	n/a	n/a	<img class = center src='/static/experiments/beast_fmri_test/images/B.png'></img>	89,71	2750.0	test	<img class = center src='/static/experiments/beast_fmri_test/images/redB.png'></img>	go	1750.0	3.0	42.0	go	non-target	B	89,Yellow Button	71,Green Button	700.0	1000.0	2050.0	1750.0	1.0	n/a	1000.0	1.0	n/a	ITI
-31246272354.0	500	n/a	-1	-1	500	0.0	fixation	poldrack-single-stim	285	707646	0.0-13.43-0.43	beast_fmri_test	119	n/a	n/a	<div class = centerbox><div class = fixation>+</div></div>	none	500.0	test	n/a	n/a	n/a	n/a	n/a	n/a	n/a	n/a	n/a	n/a	n/a	n/a	n/a	n/a	n/a	n/a	n/a	n/a	n/a	fixation
-31246272550.767731	1000.0	n/a	1665	71	2750	197.767731063	stim	stop-signal	286	710397	0.0-13.43-1.43	beast_fmri_test	119	n/a	n/a	<img class = center src='/static/experiments/beast_fmri_test/images/T.png'></img>	89,71	2750.0	test	<img class = center src='/static/experiments/beast_fmri_test/images/redT.png'></img>	stop	1750.0	3.0	43.0	stop	non-target	T	89,Yellow Button	71,Green Button	700.0	1000.0	2050.0	1750.0	0.0	0.0	1000.0	1.0	n/a	go_stim
-31246270800.767731	1750.0	n/a	1665	71	2750	197.767731063	stim	stop-signal	286	710397	0.0-13.43-1.43	beast_fmri_test	119	n/a	n/a	<img class = center src='/static/experiments/beast_fmri_test/images/T.png'></img>	89,71	2750.0	test	<img class = center src='/static/experiments/beast_fmri_test/images/redT.png'></img>	stop	1750.0	3.0	43.0	stop	non-target	T	89,Yellow Button	71,Green Button	700.0	1000.0	2050.0	1750.0	0.0	0.0	1000.0	1.0	n/a	stop_stim
-31246269800.767731	197.76773106272699	n/a	1665	71	2750	197.767731063	stim	stop-signal	286	710397	0.0-13.43-1.43	beast_fmri_test	119	n/a	n/a	<img class = center src='/static/experiments/beast_fmri_test/images/T.png'></img>	89,71	2750.0	test	<img class = center src='/static/experiments/beast_fmri_test/images/redT.png'></img>	stop	1750.0	3.0	43.0	stop	non-target	T	89,Yellow Button	71,Green Button	700.0	1000.0	2050.0	1750.0	0.0	0.0	1000.0	1.0	n/a	ITI
-31246268896.0	500	n/a	-1	-1	500	0.0	fixation	poldrack-single-stim	287	711104	0.0-13.44-0.44	beast_fmri_test	119	n/a	n/a	<div class = centerbox><div class = fixation>+</div></div>	none	500.0	test	n/a	n/a	n/a	n/a	n/a	n/a	n/a	n/a	n/a	n/a	n/a	n/a	n/a	n/a	n/a	n/a	n/a	n/a	n/a	fixation
-31246269411.482086	950.0	n/a	-1	-1	2750	518.482086222	stim	stop-signal	288	713857	0.0-13.44-1.44	beast_fmri_test	119	n/a	n/a	<img class = center src='/static/experiments/beast_fmri_test/images/T.png'></img>	89,71	2750.0	test	<img class = center src='/static/experiments/beast_fmri_test/images/redT.png'></img>	stop	1800.0	3.0	44.0	stop	non-target	T	89,Yellow Button	71,Green Button	700.0	950.0	2050.0	1800.0	0.0	1.0	950.0	0.0	n/a	go_stim
-31246267611.482086	1800.0	n/a	-1	-1	2750	518.482086222	stim	stop-signal	288	713857	0.0-13.44-1.44	beast_fmri_test	119	n/a	n/a	<img class = center src='/static/experiments/beast_fmri_test/images/T.png'></img>	89,71	2750.0	test	<img class = center src='/static/experiments/beast_fmri_test/images/redT.png'></img>	stop	1800.0	3.0	44.0	stop	non-target	T	89,Yellow Button	71,Green Button	700.0	950.0	2050.0	1800.0	0.0	1.0	950.0	0.0	n/a	stop_stim
-31246266661.482086	518.48208622152595	n/a	-1	-1	2750	518.482086222	stim	stop-signal	288	713857	0.0-13.44-1.44	beast_fmri_test	119	n/a	n/a	<img class = center src='/static/experiments/beast_fmri_test/images/T.png'></img>	89,71	2750.0	test	<img class = center src='/static/experiments/beast_fmri_test/images/redT.png'></img>	stop	1800.0	3.0	44.0	stop	non-target	T	89,Yellow Button	71,Green Button	700.0	950.0	2050.0	1800.0	0.0	1.0	950.0	0.0	n/a	ITI
-31246265112.0	500	n/a	-1	-1	500	0.0	fixation	poldrack-single-stim	289	714888	0.0-13.45-0.45	beast_fmri_test	119	n/a	n/a	<div class = centerbox><div class = fixation>+</div></div>	none	500.0	test	n/a	n/a	n/a	n/a	n/a	n/a	n/a	n/a	n/a	n/a	n/a	n/a	n/a	n/a	n/a	n/a	n/a	n/a	n/a	fixation
-31246266616.370979	700.0	n/a	881	89	2750	1505.37098051	stim	stop-signal	290	717639	0.0-13.45-1.45	beast_fmri_test	119	n/a	n/a	<img class = center src='/static/experiments/beast_fmri_test/images/B.png'></img>	89,71	2750.0	test	<img class = center src='/static/experiments/beast_fmri_test/images/redB.png'></img>	stop	2050.0	3.0	45.0	stop	target	B	89,Yellow Button	71,Green Button	700.0	1000.0	2050.0	1800.0	0.0	0.0	700.0	1.0	n/a	go_stim
-31246264566.370979	2050.0	n/a	881	89	2750	1505.37098051	stim	stop-signal	290	717639	0.0-13.45-1.45	beast_fmri_test	119	n/a	n/a	<img class = center src='/static/experiments/beast_fmri_test/images/B.png'></img>	89,71	2750.0	test	<img class = center src='/static/experiments/beast_fmri_test/images/redB.png'></img>	stop	2050.0	3.0	45.0	stop	target	B	89,Yellow Button	71,Green Button	700.0	1000.0	2050.0	1800.0	0.0	0.0	700.0	1.0	n/a	stop_stim
-31246263866.370979	1505.37098050644	n/a	881	89	2750	1505.37098051	stim	stop-signal	290	717639	0.0-13.45-1.45	beast_fmri_test	119	n/a	n/a	<img class = center src='/static/experiments/beast_fmri_test/images/B.png'></img>	89,71	2750.0	test	<img class = center src='/static/experiments/beast_fmri_test/images/redB.png'></img>	stop	2050.0	3.0	45.0	stop	target	B	89,Yellow Button	71,Green Button	700.0	1000.0	2050.0	1800.0	0.0	0.0	700.0	1.0	n/a	ITI
-31246260343.0	500	n/a	-1	-1	500	0.0	fixation	poldrack-single-stim	291	719657	0.0-13.46-0.46	beast_fmri_test	119	n/a	n/a	<div class = centerbox><div class = fixation>+</div></div>	none	500.0	test	n/a	n/a	n/a	n/a	n/a	n/a	n/a	n/a	n/a	n/a	n/a	n/a	n/a	n/a	n/a	n/a	n/a	n/a	n/a	fixation
-31246260732.618641	2750	n/a	1081	71	2750	391.618642775	stim	stop-signal	292	722409	0.0-13.46-1.46	beast_fmri_test	119	n/a	n/a	<img class = center src='/static/experiments/beast_fmri_test/images/P.png'></img>	89,71	2750.0	test	<img class = center src='/static/experiments/beast_fmri_test/images/redP.png'></img>	go	1750.0	3.0	46.0	go	non-target	P	89,Yellow Button	71,Green Button	650.0	1000.0	2050.0	1750.0	1.0	n/a	1000.0	1.0	n/a	go_stim
-31246257982.618641	391.618642775448	n/a	1081	71	2750	391.618642775	stim	stop-signal	292	722409	0.0-13.46-1.46	beast_fmri_test	119	n/a	n/a	<img class = center src='/static/experiments/beast_fmri_test/images/P.png'></img>	89,71	2750.0	test	<img class = center src='/static/experiments/beast_fmri_test/images/redP.png'></img>	go	1750.0	3.0	46.0	go	non-target	P	89,Yellow Button	71,Green Button	650.0	1000.0	2050.0	1750.0	1.0	n/a	1000.0	1.0	n/a	ITI
-31246256686.0	500	n/a	-1	-1	500	0.0	fixation	poldrack-single-stim	293	723314	0.0-13.47-0.47	beast_fmri_test	119	n/a	n/a	<div class = centerbox><div class = fixation>+</div></div>	none	500.0	test	n/a	n/a	n/a	n/a	n/a	n/a	n/a	n/a	n/a	n/a	n/a	n/a	n/a	n/a	n/a	n/a	n/a	n/a	n/a	fixation
-31246257740.697052	2750	n/a	1646	71	2750	1056.69705283	stim	stop-signal	294	726066	0.0-13.47-1.47	beast_fmri_test	119	n/a	n/a	<img class = center src='/static/experiments/beast_fmri_test/images/V.png'></img>	89,71	2750.0	test	<img class = center src='/static/experiments/beast_fmri_test/images/redV.png'></img>	go	1750.0	3.0	47.0	go	non-target	V	89,Yellow Button	71,Green Button	650.0	1000.0	2050.0	1750.0	1.0	n/a	1000.0	1.0	n/a	go_stim
-31246254990.697052	1056.69705283485	n/a	1646	71	2750	1056.69705283	stim	stop-signal	294	726066	0.0-13.47-1.47	beast_fmri_test	119	n/a	n/a	<img class = center src='/static/experiments/beast_fmri_test/images/V.png'></img>	89,71	2750.0	test	<img class = center src='/static/experiments/beast_fmri_test/images/redV.png'></img>	go	1750.0	3.0	47.0	go	non-target	V	89,Yellow Button	71,Green Button	650.0	1000.0	2050.0	1750.0	1.0	n/a	1000.0	1.0	n/a	ITI
-31246237865.0	15000	n/a	-1	-1	15000	0.0	practice-no-stop-feedback	poldrack-single-stim	295	742135	0.0-14.0	beast_fmri_test	119	727506,/	t	"<div class = ""centerbox""><p class = ""center-block-text"">Your delay is 4 trials.</p><p class = center-block-text>Please wait for the scanner to start the block</p></div>"	77	15000.0	n/a	n/a	n/a	n/a	n/a	n/a	n/a	n/a	n/a	n/a	n/a	n/a	n/a	n/a	n/a	n/a	n/a	n/a	n/a	n/a	practice-no-stop-feedback
-31246237364.0	500	n/a	-1	-1	500	0.0	fixation	poldrack-single-stim	296	742636	0.0-15.0-0.0	beast_fmri_test	119	n/a	n/a	<div class = centerbox><div class = fixation>+</div></div>	none	500.0	test	n/a	n/a	n/a	n/a	n/a	n/a	n/a	n/a	n/a	n/a	n/a	n/a	n/a	n/a	n/a	n/a	n/a	n/a	n/a	fixation
-31246237451.67704	2750	n/a	1692	71	2750	89.6770393673	stim	stop-signal	297	745388	0.0-15.0-1.0	beast_fmri_test	119	n/a	n/a	<img class = center src='/static/experiments/beast_fmri_test/images/T.png'></img>	89,71	2750.0	test	<img class = center src='/static/experiments/beast_fmri_test/images/redT.png'></img>	go	-1.0	4.0	0.0	go	temp-non-target	T	89,Yellow Button	71,Green Button	650.0	1000.0	2050.0	1750.0	0.0	n/a	n/a	n/a	n/a	go_stim
-31246234701.67704	89.677039367300495	n/a	1692	71	2750	89.6770393673	stim	stop-signal	297	745388	0.0-15.0-1.0	beast_fmri_test	119	n/a	n/a	<img class = center src='/static/experiments/beast_fmri_test/images/T.png'></img>	89,71	2750.0	test	<img class = center src='/static/experiments/beast_fmri_test/images/redT.png'></img>	go	-1.0	4.0	0.0	go	temp-non-target	T	89,Yellow Button	71,Green Button	650.0	1000.0	2050.0	1750.0	0.0	n/a	n/a	n/a	n/a	ITI
-31246234010.0	500	n/a	-1	-1	500	0.0	fixation	poldrack-single-stim	298	745990	0.0-15.1-0.1	beast_fmri_test	119	n/a	n/a	<div class = centerbox><div class = fixation>+</div></div>	none	500.0	test	n/a	n/a	n/a	n/a	n/a	n/a	n/a	n/a	n/a	n/a	n/a	n/a	n/a	n/a	n/a	n/a	n/a	n/a	n/a	fixation
-31246234997.685753	temp_go_duration	n/a	714	71	2750	989.685753951	stim	stop-signal	299	748742	0.0-15.1-1.1	beast_fmri_test	119	n/a	n/a	<img class = center src='/static/experiments/beast_fmri_test/images/D.png'></img>	89,71	2750.0	test	<img class = center src='/static/experiments/beast_fmri_test/images/redD.png'></img>	stop	-1.0	4.0	1.0	stop	temp-non-target	D	89,Yellow Button	71,Green Button	650.0	1000.0	2050.0	1750.0	0.0	0.0	n/a	n/a	n/a	go_stim
temp-non-target	temp_stop_duration	n/a	714	71	2750	989.685753951	stim	stop-signal	299	748742	0.0-15.1-1.1	beast_fmri_test	119	n/a	n/a	<img class = center src='/static/experiments/beast_fmri_test/images/D.png'></img>	89,71	2750.0	test	<img class = center src='/static/experiments/beast_fmri_test/images/redD.png'></img>	stop	-1.0	4.0	1.0	stop	temp-non-target	D	89,Yellow Button	71,Green Button	650.0	1000.0	2050.0	1750.0	0.0	0.0	n/a	n/a	n/a	stop_stim
-31246232247.685753	989.68575395146104	n/a	714	71	2750	989.685753951	stim	stop-signal	299	748742	0.0-15.1-1.1	beast_fmri_test	119	n/a	n/a	<img class = center src='/static/experiments/beast_fmri_test/images/D.png'></img>	89,71	2750.0	test	<img class = center src='/static/experiments/beast_fmri_test/images/redD.png'></img>	stop	-1.0	4.0	1.0	stop	temp-non-target	D	89,Yellow Button	71,Green Button	650.0	1000.0	2050.0	1750.0	0.0	0.0	n/a	n/a	n/a	ITI
-31246229758.0	500	n/a	-1	-1	500	0.0	fixation	poldrack-single-stim	300	750242	0.0-15.2-0.2	beast_fmri_test	119	n/a	n/a	<div class = centerbox><div class = fixation>+</div></div>	none	500.0	test	n/a	n/a	n/a	n/a	n/a	n/a	n/a	n/a	n/a	n/a	n/a	n/a	n/a	n/a	n/a	n/a	n/a	n/a	n/a	fixation
-31246230314.906853	2750	n/a	865	71	2750	558.906850843	stim	stop-signal	301	752994	0.0-15.2-1.2	beast_fmri_test	119	n/a	n/a	<img class = center src='/static/experiments/beast_fmri_test/images/T.png'></img>	89,71	2750.0	test	<img class = center src='/static/experiments/beast_fmri_test/images/redT.png'></img>	go	-1.0	4.0	2.0	go	temp-non-target	T	89,Yellow Button	71,Green Button	650.0	1000.0	2050.0	1750.0	0.0	n/a	n/a	n/a	n/a	go_stim
-31246227564.906853	558.90685084334302	n/a	865	71	2750	558.906850843	stim	stop-signal	301	752994	0.0-15.2-1.2	beast_fmri_test	119	n/a	n/a	<img class = center src='/static/experiments/beast_fmri_test/images/T.png'></img>	89,71	2750.0	test	<img class = center src='/static/experiments/beast_fmri_test/images/redT.png'></img>	go	-1.0	4.0	2.0	go	temp-non-target	T	89,Yellow Button	71,Green Button	650.0	1000.0	2050.0	1750.0	0.0	n/a	n/a	n/a	n/a	ITI
-31246225939.0	500	n/a	-1	-1	500	0.0	fixation	poldrack-single-stim	302	754061	0.0-15.3-0.3	beast_fmri_test	119	n/a	n/a	<div class = centerbox><div class = fixation>+</div></div>	none	500.0	test	n/a	n/a	n/a	n/a	n/a	n/a	n/a	n/a	n/a	n/a	n/a	n/a	n/a	n/a	n/a	n/a	n/a	n/a	n/a	fixation
-31246225987.856632	2750	n/a	953	71	2750	49.8566311174	stim	stop-signal	303	756812	0.0-15.3-1.3	beast_fmri_test	119	n/a	n/a	<img class = center src='/static/experiments/beast_fmri_test/images/T.png'></img>	89,71	2750.0	test	<img class = center src='/static/experiments/beast_fmri_test/images/redT.png'></img>	go	-1.0	4.0	3.0	go	temp-non-target	T	89,Yellow Button	71,Green Button	650.0	1000.0	2050.0	1750.0	0.0	n/a	n/a	n/a	n/a	go_stim
-31246223237.856632	49.856631117403502	n/a	953	71	2750	49.8566311174	stim	stop-signal	303	756812	0.0-15.3-1.3	beast_fmri_test	119	n/a	n/a	<img class = center src='/static/experiments/beast_fmri_test/images/T.png'></img>	89,71	2750.0	test	<img class = center src='/static/experiments/beast_fmri_test/images/redT.png'></img>	go	-1.0	4.0	3.0	go	temp-non-target	T	89,Yellow Button	71,Green Button	650.0	1000.0	2050.0	1750.0	0.0	n/a	n/a	n/a	n/a	ITI
-31246222623.0	500	n/a	-1	-1	500	0.0	fixation	poldrack-single-stim	304	757377	0.0-15.4-0.4	beast_fmri_test	119	n/a	n/a	<div class = centerbox><div class = fixation>+</div></div>	none	500.0	test	n/a	n/a	n/a	n/a	n/a	n/a	n/a	n/a	n/a	n/a	n/a	n/a	n/a	n/a	n/a	n/a	n/a	n/a	n/a	fixation
-31246222869.124969	2750	n/a	1435	71	2750	248.124969836	stim	stop-signal	305	760129	0.0-15.4-1.4	beast_fmri_test	119	n/a	n/a	<img class = center src='/static/experiments/beast_fmri_test/images/P.png'></img>	89,71	2750.0	test	<img class = center src='/static/experiments/beast_fmri_test/images/redP.png'></img>	go	1750.0	4.0	4.0	go	non-target	P	89,Yellow Button	71,Green Button	650.0	1000.0	2050.0	1750.0	1.0	n/a	1000.0	1.0	n/a	go_stim
-31246220119.124969	248.12496983573001	n/a	1435	71	2750	248.124969836	stim	stop-signal	305	760129	0.0-15.4-1.4	beast_fmri_test	119	n/a	n/a	<img class = center src='/static/experiments/beast_fmri_test/images/P.png'></img>	89,71	2750.0	test	<img class = center src='/static/experiments/beast_fmri_test/images/redP.png'></img>	go	1750.0	4.0	4.0	go	non-target	P	89,Yellow Button	71,Green Button	650.0	1000.0	2050.0	1750.0	1.0	n/a	1000.0	1.0	n/a	ITI
-31246219109.0	500	n/a	-1	-1	500	0.0	fixation	poldrack-single-stim	306	760891	0.0-15.5-0.5	beast_fmri_test	119	n/a	n/a	<div class = centerbox><div class = fixation>+</div></div>	none	500.0	test	n/a	n/a	n/a	n/a	n/a	n/a	n/a	n/a	n/a	n/a	n/a	n/a	n/a	n/a	n/a	n/a	n/a	n/a	n/a	fixation
-31246219129.712292	1000.0	n/a	-1	-1	2750	21.7122905933	stim	stop-signal	307	763642	0.0-15.5-1.5	beast_fmri_test	119	n/a	n/a	<img class = center src='/static/experiments/beast_fmri_test/images/T.png'></img>	89,71	2750.0	test	<img class = center src='/static/experiments/beast_fmri_test/images/redT.png'></img>	stop	1750.0	4.0	5.0	stop	non-target	T	89,Yellow Button	71,Green Button	650.0	1000.0	2050.0	1750.0	0.0	1.0	1000.0	0.0	n/a	go_stim
-31246217379.712292	1750.0	n/a	-1	-1	2750	21.7122905933	stim	stop-signal	307	763642	0.0-15.5-1.5	beast_fmri_test	119	n/a	n/a	<img class = center src='/static/experiments/beast_fmri_test/images/T.png'></img>	89,71	2750.0	test	<img class = center src='/static/experiments/beast_fmri_test/images/redT.png'></img>	stop	1750.0	4.0	5.0	stop	non-target	T	89,Yellow Button	71,Green Button	650.0	1000.0	2050.0	1750.0	0.0	1.0	1000.0	0.0	n/a	stop_stim
-31246216379.712292	21.712290593329399	n/a	-1	-1	2750	21.7122905933	stim	stop-signal	307	763642	0.0-15.5-1.5	beast_fmri_test	119	n/a	n/a	<img class = center src='/static/experiments/beast_fmri_test/images/T.png'></img>	89,71	2750.0	test	<img class = center src='/static/experiments/beast_fmri_test/images/redT.png'></img>	stop	1750.0	4.0	5.0	stop	non-target	T	89,Yellow Button	71,Green Button	650.0	1000.0	2050.0	1750.0	0.0	1.0	1000.0	0.0	n/a	ITI
-31246215828.0	500	n/a	-1	-1	500	0.0	fixation	poldrack-single-stim	308	764172	0.0-15.6-0.6	beast_fmri_test	119	n/a	n/a	<div class = centerbox><div class = fixation>+</div></div>	none	500.0	test	n/a	n/a	n/a	n/a	n/a	n/a	n/a	n/a	n/a	n/a	n/a	n/a	n/a	n/a	n/a	n/a	n/a	n/a	n/a	fixation
-31246216485.862354	2750	n/a	1489	71	2750	659.862356174	stim	stop-signal	309	766924	0.0-15.6-1.6	beast_fmri_test	119	n/a	n/a	<img class = center src='/static/experiments/beast_fmri_test/images/B.png'></img>	89,71	2750.0	test	<img class = center src='/static/experiments/beast_fmri_test/images/redB.png'></img>	go	1700.0	4.0	6.0	go	non-target	B	89,Yellow Button	71,Green Button	650.0	1050.0	2050.0	1700.0	1.0	n/a	1050.0	1.0	n/a	go_stim
-31246213735.862354	659.86235617401906	n/a	1489	71	2750	659.862356174	stim	stop-signal	309	766924	0.0-15.6-1.6	beast_fmri_test	119	n/a	n/a	<img class = center src='/static/experiments/beast_fmri_test/images/B.png'></img>	89,71	2750.0	test	<img class = center src='/static/experiments/beast_fmri_test/images/redB.png'></img>	go	1700.0	4.0	6.0	go	non-target	B	89,Yellow Button	71,Green Button	650.0	1050.0	2050.0	1700.0	1.0	n/a	1050.0	1.0	n/a	ITI
-31246211905.0	500	n/a	-1	-1	500	0.0	fixation	poldrack-single-stim	310	768095	0.0-15.7-0.7	beast_fmri_test	119	n/a	n/a	<div class = centerbox><div class = fixation>+</div></div>	none	500.0	test	n/a	n/a	n/a	n/a	n/a	n/a	n/a	n/a	n/a	n/a	n/a	n/a	n/a	n/a	n/a	n/a	n/a	n/a	n/a	fixation
-31246213279.407291	2750	n/a	1484	71	2750	1376.40729009	stim	stop-signal	311	770847	0.0-15.7-1.7	beast_fmri_test	119	769665,/	t	<img class = center src='/static/experiments/beast_fmri_test/images/V.png'></img>	89,71	2750.0	test	<img class = center src='/static/experiments/beast_fmri_test/images/redV.png'></img>	go	1700.0	4.0	7.0	go	non-target	V	89,Yellow Button	71,Green Button	650.0	1050.0	2050.0	1700.0	1.0	n/a	1050.0	1.0	n/a	go_stim
-31246210529.407291	1376.40729009336	n/a	1484	71	2750	1376.40729009	stim	stop-signal	311	770847	0.0-15.7-1.7	beast_fmri_test	119	769665,/	t	<img class = center src='/static/experiments/beast_fmri_test/images/V.png'></img>	89,71	2750.0	test	<img class = center src='/static/experiments/beast_fmri_test/images/redV.png'></img>	go	1700.0	4.0	7.0	go	non-target	V	89,Yellow Button	71,Green Button	650.0	1050.0	2050.0	1700.0	1.0	n/a	1050.0	1.0	n/a	ITI
-31246207264.0	500	n/a	-1	-1	500	0.0	fixation	poldrack-single-stim	312	772736	0.0-15.8-0.8	beast_fmri_test	119	n/a	n/a	<div class = centerbox><div class = fixation>+</div></div>	none	500.0	test	n/a	n/a	n/a	n/a	n/a	n/a	n/a	n/a	n/a	n/a	n/a	n/a	n/a	n/a	n/a	n/a	n/a	n/a	n/a	fixation
-31246207906.621735	2750	n/a	2119	89	2750	644.62173546	stim	stop-signal	313	775488	0.0-15.8-1.8	beast_fmri_test	119	n/a	n/a	<img class = center src='/static/experiments/beast_fmri_test/images/P.png'></img>	89,71	2750.0	test	<img class = center src='/static/experiments/beast_fmri_test/images/redP.png'></img>	go	2100.0	4.0	8.0	go	target	P	89,Yellow Button	71,Green Button	650.0	1050.0	2100.0	1700.0	1.0	n/a	650.0	1.0	n/a	go_stim
-31246205156.621735	644.62173546011604	n/a	2119	89	2750	644.62173546	stim	stop-signal	313	775488	0.0-15.8-1.8	beast_fmri_test	119	n/a	n/a	<img class = center src='/static/experiments/beast_fmri_test/images/P.png'></img>	89,71	2750.0	test	<img class = center src='/static/experiments/beast_fmri_test/images/redP.png'></img>	go	2100.0	4.0	8.0	go	target	P	89,Yellow Button	71,Green Button	650.0	1050.0	2100.0	1700.0	1.0	n/a	650.0	1.0	n/a	ITI
-31246203354.0	500	n/a	-1	-1	500	0.0	fixation	poldrack-single-stim	314	776646	0.0-15.9-0.9	beast_fmri_test	119	n/a	n/a	<div class = centerbox><div class = fixation>+</div></div>	none	500.0	test	n/a	n/a	n/a	n/a	n/a	n/a	n/a	n/a	n/a	n/a	n/a	n/a	n/a	n/a	n/a	n/a	n/a	n/a	n/a	fixation
-31246207375.353046	2750	n/a	863	89	2750	4023.35304694	stim	stop-signal	315	779398	0.0-15.9-1.9	beast_fmri_test	119	n/a	n/a	<img class = center src='/static/experiments/beast_fmri_test/images/T.png'></img>	89,71	2750.0	test	<img class = center src='/static/experiments/beast_fmri_test/images/redT.png'></img>	go	2100.0	4.0	9.0	go	target	T	89,Yellow Button	71,Green Button	650.0	1050.0	2100.0	1700.0	1.0	n/a	650.0	1.0	n/a	go_stim
-31246204625.353046	4023.35304694452	n/a	863	89	2750	4023.35304694	stim	stop-signal	315	779398	0.0-15.9-1.9	beast_fmri_test	119	n/a	n/a	<img class = center src='/static/experiments/beast_fmri_test/images/T.png'></img>	89,71	2750.0	test	<img class = center src='/static/experiments/beast_fmri_test/images/redT.png'></img>	go	2100.0	4.0	9.0	go	target	T	89,Yellow Button	71,Green Button	650.0	1050.0	2100.0	1700.0	1.0	n/a	650.0	1.0	n/a	ITI
-31246196066.0	500	n/a	-1	-1	500	0.0	fixation	poldrack-single-stim	316	783934	0.0-15.10-0.10	beast_fmri_test	119	n/a	n/a	<div class = centerbox><div class = fixation>+</div></div>	none	500.0	test	n/a	n/a	n/a	n/a	n/a	n/a	n/a	n/a	n/a	n/a	n/a	n/a	n/a	n/a	n/a	n/a	n/a	n/a	n/a	fixation
-31246197519.096428	2750	n/a	697	89	2750	1455.09642884	stim	stop-signal	317	786686	0.0-15.10-1.10	beast_fmri_test	119	n/a	n/a	<img class = center src='/static/experiments/beast_fmri_test/images/P.png'></img>	89,71	2750.0	test	<img class = center src='/static/experiments/beast_fmri_test/images/redP.png'></img>	go	1700.0	4.0	10.0	go	non-target	P	89,Yellow Button	71,Green Button	650.0	1050.0	2100.0	1700.0	0.0	n/a	1050.0	0.0	n/a	go_stim
-31246194769.096428	1455.09642883529	n/a	697	89	2750	1455.09642884	stim	stop-signal	317	786686	0.0-15.10-1.10	beast_fmri_test	119	n/a	n/a	<img class = center src='/static/experiments/beast_fmri_test/images/P.png'></img>	89,71	2750.0	test	<img class = center src='/static/experiments/beast_fmri_test/images/redP.png'></img>	go	1700.0	4.0	10.0	go	non-target	P	89,Yellow Button	71,Green Button	650.0	1050.0	2100.0	1700.0	0.0	n/a	1050.0	0.0	n/a	ITI
-31246191343.0	500	n/a	-1	-1	500	0.0	fixation	poldrack-single-stim	318	788657	0.0-15.11-0.11	beast_fmri_test	119	n/a	n/a	<div class = centerbox><div class = fixation>+</div></div>	none	500.0	test	n/a	n/a	n/a	n/a	n/a	n/a	n/a	n/a	n/a	n/a	n/a	n/a	n/a	n/a	n/a	n/a	n/a	n/a	n/a	fixation
-31246191371.333443	2750	n/a	908	71	2750	30.3334409987	stim	stop-signal	319	791409	0.0-15.11-1.11	beast_fmri_test	119	n/a	n/a	<img class = center src='/static/experiments/beast_fmri_test/images/T.png'></img>	89,71	2750.0	test	<img class = center src='/static/experiments/beast_fmri_test/images/redT.png'></img>	go	1700.0	4.0	11.0	go	non-target	T	89,Yellow Button	71,Green Button	650.0	1050.0	2100.0	1700.0	1.0	n/a	1050.0	1.0	n/a	go_stim
-31246188621.333443	30.3334409987018	n/a	908	71	2750	30.3334409987	stim	stop-signal	319	791409	0.0-15.11-1.11	beast_fmri_test	119	n/a	n/a	<img class = center src='/static/experiments/beast_fmri_test/images/T.png'></img>	89,71	2750.0	test	<img class = center src='/static/experiments/beast_fmri_test/images/redT.png'></img>	go	1700.0	4.0	11.0	go	non-target	T	89,Yellow Button	71,Green Button	650.0	1050.0	2100.0	1700.0	1.0	n/a	1050.0	1.0	n/a	ITI
-31246188046.0	500	n/a	-1	-1	500	0.0	fixation	poldrack-single-stim	320	791954	0.0-15.12-0.12	beast_fmri_test	119	n/a	n/a	<div class = centerbox><div class = fixation>+</div></div>	none	500.0	test	n/a	n/a	n/a	n/a	n/a	n/a	n/a	n/a	n/a	n/a	n/a	n/a	n/a	n/a	n/a	n/a	n/a	n/a	n/a	fixation
-31246189420.681259	2750	n/a	-1	-1	2750	1375.68125915	stim	stop-signal	321	794705	0.0-15.12-1.12	beast_fmri_test	119	792786,/	t	<img class = center src='/static/experiments/beast_fmri_test/images/V.png'></img>	89,71	2750.0	test	<img class = center src='/static/experiments/beast_fmri_test/images/redV.png'></img>	go	1700.0	4.0	12.0	go	non-target	V	89,Yellow Button	71,Green Button	650.0	1050.0	2100.0	1700.0	0.0	n/a	1050.0	0.0	n/a	go_stim
-31246186670.681259	1375.68125915203	n/a	-1	-1	2750	1375.68125915	stim	stop-signal	321	794705	0.0-15.12-1.12	beast_fmri_test	119	792786,/	t	<img class = center src='/static/experiments/beast_fmri_test/images/V.png'></img>	89,71	2750.0	test	<img class = center src='/static/experiments/beast_fmri_test/images/redV.png'></img>	go	1700.0	4.0	12.0	go	non-target	V	89,Yellow Button	71,Green Button	650.0	1050.0	2100.0	1700.0	0.0	n/a	1050.0	0.0	n/a	ITI
-31246183407.0	500	n/a	-1	-1	500	0.0	fixation	poldrack-single-stim	322	796593	0.0-15.13-0.13	beast_fmri_test	119	n/a	n/a	<div class = centerbox><div class = fixation>+</div></div>	none	500.0	test	n/a	n/a	n/a	n/a	n/a	n/a	n/a	n/a	n/a	n/a	n/a	n/a	n/a	n/a	n/a	n/a	n/a	n/a	n/a	fixation
-31246183824.925545	1050.0	n/a	-1	-1	2750	419.925543248	stim	stop-signal	323	799345	0.0-15.13-1.13	beast_fmri_test	119	797546,/	t	<img class = center src='/static/experiments/beast_fmri_test/images/D.png'></img>	89,71	2750.0	test	<img class = center src='/static/experiments/beast_fmri_test/images/redD.png'></img>	stop	1700.0	4.0	13.0	stop	non-target	D	89,Yellow Button	71,Green Button	650.0	1050.0	2100.0	1700.0	0.0	1.0	1050.0	0.0	n/a	go_stim
-31246182124.925545	1700.0	n/a	-1	-1	2750	419.925543248	stim	stop-signal	323	799345	0.0-15.13-1.13	beast_fmri_test	119	797546,/	t	<img class = center src='/static/experiments/beast_fmri_test/images/D.png'></img>	89,71	2750.0	test	<img class = center src='/static/experiments/beast_fmri_test/images/redD.png'></img>	stop	1700.0	4.0	13.0	stop	non-target	D	89,Yellow Button	71,Green Button	650.0	1050.0	2100.0	1700.0	0.0	1.0	1050.0	0.0	n/a	stop_stim
-31246181074.925545	419.92554324757901	n/a	-1	-1	2750	419.925543248	stim	stop-signal	323	799345	0.0-15.13-1.13	beast_fmri_test	119	797546,/	t	<img class = center src='/static/experiments/beast_fmri_test/images/D.png'></img>	89,71	2750.0	test	<img class = center src='/static/experiments/beast_fmri_test/images/redD.png'></img>	stop	1700.0	4.0	13.0	stop	non-target	D	89,Yellow Button	71,Green Button	650.0	1050.0	2100.0	1700.0	0.0	1.0	1050.0	0.0	n/a	ITI
-31246179722.0	500	n/a	-1	-1	500	0.0	fixation	poldrack-single-stim	324	800278	0.0-15.14-0.14	beast_fmri_test	119	n/a	n/a	<div class = centerbox><div class = fixation>+</div></div>	none	500.0	test	n/a	n/a	n/a	n/a	n/a	n/a	n/a	n/a	n/a	n/a	n/a	n/a	n/a	n/a	n/a	n/a	n/a	n/a	n/a	fixation
-31246180772.49073	2750	n/a	976	71	2750	1051.49072899	stim	stop-signal	325	803029	0.0-15.14-1.14	beast_fmri_test	119	n/a	n/a	<img class = center src='/static/experiments/beast_fmri_test/images/D.png'></img>	89,71	2750.0	test	<img class = center src='/static/experiments/beast_fmri_test/images/redD.png'></img>	go	1650.0	4.0	14.0	go	non-target	D	89,Yellow Button	71,Green Button	650.0	1100.0	2100.0	1650.0	1.0	n/a	1100.0	1.0	n/a	go_stim
-31246178022.49073	1051.49072899007	n/a	976	71	2750	1051.49072899	stim	stop-signal	325	803029	0.0-15.14-1.14	beast_fmri_test	119	n/a	n/a	<img class = center src='/static/experiments/beast_fmri_test/images/D.png'></img>	89,71	2750.0	test	<img class = center src='/static/experiments/beast_fmri_test/images/redD.png'></img>	go	1650.0	4.0	14.0	go	non-target	D	89,Yellow Button	71,Green Button	650.0	1100.0	2100.0	1650.0	1.0	n/a	1100.0	1.0	n/a	ITI
-31246175404.0	500	n/a	-1	-1	500	0.0	fixation	poldrack-single-stim	326	804596	0.0-15.15-0.15	beast_fmri_test	119	n/a	n/a	<div class = centerbox><div class = fixation>+</div></div>	none	500.0	test	n/a	n/a	n/a	n/a	n/a	n/a	n/a	n/a	n/a	n/a	n/a	n/a	n/a	n/a	n/a	n/a	n/a	n/a	n/a	fixation
-31246175664.083725	1100.0	n/a	1413	71	2750	261.083723118	stim	stop-signal	327	807347	0.0-15.15-1.15	beast_fmri_test	119	n/a	n/a	<img class = center src='/static/experiments/beast_fmri_test/images/B.png'></img>	89,71	2750.0	test	<img class = center src='/static/experiments/beast_fmri_test/images/redB.png'></img>	stop	1650.0	4.0	15.0	stop	non-target	B	89,Yellow Button	71,Green Button	650.0	1100.0	2100.0	1650.0	0.0	0.0	1100.0	1.0	n/a	go_stim
-31246174014.083725	1650.0	n/a	1413	71	2750	261.083723118	stim	stop-signal	327	807347	0.0-15.15-1.15	beast_fmri_test	119	n/a	n/a	<img class = center src='/static/experiments/beast_fmri_test/images/B.png'></img>	89,71	2750.0	test	<img class = center src='/static/experiments/beast_fmri_test/images/redB.png'></img>	stop	1650.0	4.0	15.0	stop	non-target	B	89,Yellow Button	71,Green Button	650.0	1100.0	2100.0	1650.0	0.0	0.0	1100.0	1.0	n/a	stop_stim
-31246172914.083725	261.083723117565	n/a	1413	71	2750	261.083723118	stim	stop-signal	327	807347	0.0-15.15-1.15	beast_fmri_test	119	n/a	n/a	<img class = center src='/static/experiments/beast_fmri_test/images/B.png'></img>	89,71	2750.0	test	<img class = center src='/static/experiments/beast_fmri_test/images/redB.png'></img>	stop	1650.0	4.0	15.0	stop	non-target	B	89,Yellow Button	71,Green Button	650.0	1100.0	2100.0	1650.0	0.0	0.0	1100.0	1.0	n/a	ITI
-31246171876.0	500	n/a	-1	-1	500	0.0	fixation	poldrack-single-stim	328	808124	0.0-15.16-0.16	beast_fmri_test	119	n/a	n/a	<div class = centerbox><div class = fixation>+</div></div>	none	500.0	test	n/a	n/a	n/a	n/a	n/a	n/a	n/a	n/a	n/a	n/a	n/a	n/a	n/a	n/a	n/a	n/a	n/a	n/a	n/a	fixation
-31246172777.275318	1050.0	n/a	-1	-1	2750	903.275316895	stim	stop-signal	329	810876	0.0-15.16-1.16	beast_fmri_test	119	n/a	n/a	<img class = center src='/static/experiments/beast_fmri_test/images/B.png'></img>	89,71	2750.0	test	<img class = center src='/static/experiments/beast_fmri_test/images/redB.png'></img>	stop	1700.0	4.0	16.0	stop	non-target	B	89,Yellow Button	71,Green Button	650.0	1050.0	2100.0	1700.0	0.0	1.0	1050.0	0.0	n/a	go_stim
-31246171077.275318	1700.0	n/a	-1	-1	2750	903.275316895	stim	stop-signal	329	810876	0.0-15.16-1.16	beast_fmri_test	119	n/a	n/a	<img class = center src='/static/experiments/beast_fmri_test/images/B.png'></img>	89,71	2750.0	test	<img class = center src='/static/experiments/beast_fmri_test/images/redB.png'></img>	stop	1700.0	4.0	16.0	stop	non-target	B	89,Yellow Button	71,Green Button	650.0	1050.0	2100.0	1700.0	0.0	1.0	1050.0	0.0	n/a	stop_stim
-31246170027.275318	903.27531689492002	n/a	-1	-1	2750	903.275316895	stim	stop-signal	329	810876	0.0-15.16-1.16	beast_fmri_test	119	n/a	n/a	<img class = center src='/static/experiments/beast_fmri_test/images/B.png'></img>	89,71	2750.0	test	<img class = center src='/static/experiments/beast_fmri_test/images/redB.png'></img>	stop	1700.0	4.0	16.0	stop	non-target	B	89,Yellow Button	71,Green Button	650.0	1050.0	2100.0	1700.0	0.0	1.0	1050.0	0.0	n/a	ITI
-31246167707.0	500	n/a	-1	-1	500	0.0	fixation	poldrack-single-stim	330	812293	0.0-15.17-0.17	beast_fmri_test	119	n/a	n/a	<div class = centerbox><div class = fixation>+</div></div>	none	500.0	test	n/a	n/a	n/a	n/a	n/a	n/a	n/a	n/a	n/a	n/a	n/a	n/a	n/a	n/a	n/a	n/a	n/a	n/a	n/a	fixation
-31246168290.855541	2750	n/a	1587	89	2750	585.855539324	stim	stop-signal	331	815045	0.0-15.17-1.17	beast_fmri_test	119	n/a	n/a	<img class = center src='/static/experiments/beast_fmri_test/images/V.png'></img>	89,71	2750.0	test	<img class = center src='/static/experiments/beast_fmri_test/images/redV.png'></img>	go	1650.0	4.0	17.0	go	non-target	V	89,Yellow Button	71,Green Button	650.0	1100.0	2100.0	1650.0	0.0	n/a	1100.0	0.0	n/a	go_stim
-31246165540.855541	585.85553932364405	n/a	1587	89	2750	585.855539324	stim	stop-signal	331	815045	0.0-15.17-1.17	beast_fmri_test	119	n/a	n/a	<img class = center src='/static/experiments/beast_fmri_test/images/V.png'></img>	89,71	2750.0	test	<img class = center src='/static/experiments/beast_fmri_test/images/redV.png'></img>	go	1650.0	4.0	17.0	go	non-target	V	89,Yellow Button	71,Green Button	650.0	1100.0	2100.0	1650.0	0.0	n/a	1100.0	0.0	n/a	ITI
-31246163856.0	500	n/a	-1	-1	500	0.0	fixation	poldrack-single-stim	332	816144	0.0-15.18-0.18	beast_fmri_test	119	n/a	n/a	<div class = centerbox><div class = fixation>+</div></div>	none	500.0	test	n/a	n/a	n/a	n/a	n/a	n/a	n/a	n/a	n/a	n/a	n/a	n/a	n/a	n/a	n/a	n/a	n/a	n/a	n/a	fixation
-31246164077.533924	2750	n/a	2227	71	2750	223.53392574	stim	stop-signal	333	818896	0.0-15.18-1.18	beast_fmri_test	119	n/a	n/a	<img class = center src='/static/experiments/beast_fmri_test/images/V.png'></img>	89,71	2750.0	test	<img class = center src='/static/experiments/beast_fmri_test/images/redV.png'></img>	go	1650.0	4.0	18.0	go	non-target	V	89,Yellow Button	71,Green Button	650.0	1100.0	2100.0	1650.0	1.0	n/a	1100.0	1.0	n/a	go_stim
-31246161327.533924	223.53392574005699	n/a	2227	71	2750	223.53392574	stim	stop-signal	333	818896	0.0-15.18-1.18	beast_fmri_test	119	n/a	n/a	<img class = center src='/static/experiments/beast_fmri_test/images/V.png'></img>	89,71	2750.0	test	<img class = center src='/static/experiments/beast_fmri_test/images/redV.png'></img>	go	1650.0	4.0	18.0	go	non-target	V	89,Yellow Button	71,Green Button	650.0	1100.0	2100.0	1650.0	1.0	n/a	1100.0	1.0	n/a	ITI
-31246160367.0	500	n/a	-1	-1	500	0.0	fixation	poldrack-single-stim	334	819633	0.0-15.19-0.19	beast_fmri_test	119	n/a	n/a	<div class = centerbox><div class = fixation>+</div></div>	none	500.0	test	n/a	n/a	n/a	n/a	n/a	n/a	n/a	n/a	n/a	n/a	n/a	n/a	n/a	n/a	n/a	n/a	n/a	n/a	n/a	fixation
-31246160855.922867	1100.0	n/a	-1	-1	2750	490.922866463	stim	stop-signal	335	822385	0.0-15.19-1.19	beast_fmri_test	119	n/a	n/a	<img class = center src='/static/experiments/beast_fmri_test/images/T.png'></img>	89,71	2750.0	test	<img class = center src='/static/experiments/beast_fmri_test/images/redT.png'></img>	stop	1650.0	4.0	19.0	stop	non-target	T	89,Yellow Button	71,Green Button	650.0	1100.0	2100.0	1650.0	0.0	1.0	1100.0	0.0	n/a	go_stim
-31246159205.922867	1650.0	n/a	-1	-1	2750	490.922866463	stim	stop-signal	335	822385	0.0-15.19-1.19	beast_fmri_test	119	n/a	n/a	<img class = center src='/static/experiments/beast_fmri_test/images/T.png'></img>	89,71	2750.0	test	<img class = center src='/static/experiments/beast_fmri_test/images/redT.png'></img>	stop	1650.0	4.0	19.0	stop	non-target	T	89,Yellow Button	71,Green Button	650.0	1100.0	2100.0	1650.0	0.0	1.0	1100.0	0.0	n/a	stop_stim
-31246158105.922867	490.92286646262397	n/a	-1	-1	2750	490.922866463	stim	stop-signal	335	822385	0.0-15.19-1.19	beast_fmri_test	119	n/a	n/a	<img class = center src='/static/experiments/beast_fmri_test/images/T.png'></img>	89,71	2750.0	test	<img class = center src='/static/experiments/beast_fmri_test/images/redT.png'></img>	stop	1650.0	4.0	19.0	stop	non-target	T	89,Yellow Button	71,Green Button	650.0	1100.0	2100.0	1650.0	0.0	1.0	1100.0	0.0	n/a	ITI
-31246156611.0	500	n/a	-1	-1	500	0.0	fixation	poldrack-single-stim	336	823389	0.0-15.20-0.20	beast_fmri_test	119	n/a	n/a	<div class = centerbox><div class = fixation>+</div></div>	none	500.0	test	n/a	n/a	n/a	n/a	n/a	n/a	n/a	n/a	n/a	n/a	n/a	n/a	n/a	n/a	n/a	n/a	n/a	n/a	n/a	fixation
-31246157442.446762	2750	n/a	975	71	2750	832.446761447	stim	stop-signal	337	826140	0.0-15.20-1.20	beast_fmri_test	119	n/a	n/a	<img class = center src='/static/experiments/beast_fmri_test/images/D.png'></img>	89,71	2750.0	test	<img class = center src='/static/experiments/beast_fmri_test/images/redD.png'></img>	go	1600.0	4.0	20.0	go	non-target	D	89,Yellow Button	71,Green Button	650.0	1150.0	2100.0	1600.0	1.0	n/a	1150.0	1.0	n/a	go_stim
-31246154692.446762	832.44676144652703	n/a	975	71	2750	832.446761447	stim	stop-signal	337	826140	0.0-15.20-1.20	beast_fmri_test	119	n/a	n/a	<img class = center src='/static/experiments/beast_fmri_test/images/D.png'></img>	89,71	2750.0	test	<img class = center src='/static/experiments/beast_fmri_test/images/redD.png'></img>	go	1600.0	4.0	20.0	go	non-target	D	89,Yellow Button	71,Green Button	650.0	1150.0	2100.0	1600.0	1.0	n/a	1150.0	1.0	n/a	ITI
-31246152513.0	500	n/a	-1	-1	500	0.0	fixation	poldrack-single-stim	338	827487	0.0-15.21-0.21	beast_fmri_test	119	n/a	n/a	<div class = centerbox><div class = fixation>+</div></div>	none	500.0	test	n/a	n/a	n/a	n/a	n/a	n/a	n/a	n/a	n/a	n/a	n/a	n/a	n/a	n/a	n/a	n/a	n/a	n/a	n/a	fixation
-31246153416.090328	2750	n/a	2129	71	2750	905.090329573	stim	stop-signal	339	830239	0.0-15.21-1.21	beast_fmri_test	119	n/a	n/a	<img class = center src='/static/experiments/beast_fmri_test/images/D.png'></img>	89,71	2750.0	test	<img class = center src='/static/experiments/beast_fmri_test/images/redD.png'></img>	go	1600.0	4.0	21.0	go	non-target	D	89,Yellow Button	71,Green Button	650.0	1150.0	2100.0	1600.0	1.0	n/a	1150.0	1.0	n/a	go_stim
-31246150666.090328	905.09032957265197	n/a	2129	71	2750	905.090329573	stim	stop-signal	339	830239	0.0-15.21-1.21	beast_fmri_test	119	n/a	n/a	<img class = center src='/static/experiments/beast_fmri_test/images/D.png'></img>	89,71	2750.0	test	<img class = center src='/static/experiments/beast_fmri_test/images/redD.png'></img>	go	1600.0	4.0	21.0	go	non-target	D	89,Yellow Button	71,Green Button	650.0	1150.0	2100.0	1600.0	1.0	n/a	1150.0	1.0	n/a	ITI
-31246148341.0	500	n/a	-1	-1	500	0.0	fixation	poldrack-single-stim	340	831659	0.0-15.22-0.22	beast_fmri_test	119	n/a	n/a	<div class = centerbox><div class = fixation>+</div></div>	none	500.0	test	n/a	n/a	n/a	n/a	n/a	n/a	n/a	n/a	n/a	n/a	n/a	n/a	n/a	n/a	n/a	n/a	n/a	n/a	n/a	fixation
-31246149473.361931	1150.0	n/a	1256	89	2750	1135.36192987	stim	stop-signal	341	834412	0.0-15.22-1.22	beast_fmri_test	119	n/a	n/a	<img class = center src='/static/experiments/beast_fmri_test/images/T.png'></img>	89,71	2750.0	test	<img class = center src='/static/experiments/beast_fmri_test/images/redT.png'></img>	stop	1600.0	4.0	22.0	stop	non-target	T	89,Yellow Button	71,Green Button	650.0	1150.0	2100.0	1600.0	0.0	0.0	1150.0	0.0	n/a	go_stim
-31246147873.361931	1600.0	n/a	1256	89	2750	1135.36192987	stim	stop-signal	341	834412	0.0-15.22-1.22	beast_fmri_test	119	n/a	n/a	<img class = center src='/static/experiments/beast_fmri_test/images/T.png'></img>	89,71	2750.0	test	<img class = center src='/static/experiments/beast_fmri_test/images/redT.png'></img>	stop	1600.0	4.0	22.0	stop	non-target	T	89,Yellow Button	71,Green Button	650.0	1150.0	2100.0	1600.0	0.0	0.0	1150.0	0.0	n/a	stop_stim
-31246146723.361931	1135.36192987497	n/a	1256	89	2750	1135.36192987	stim	stop-signal	341	834412	0.0-15.22-1.22	beast_fmri_test	119	n/a	n/a	<img class = center src='/static/experiments/beast_fmri_test/images/T.png'></img>	89,71	2750.0	test	<img class = center src='/static/experiments/beast_fmri_test/images/redT.png'></img>	stop	1600.0	4.0	22.0	stop	non-target	T	89,Yellow Button	71,Green Button	650.0	1150.0	2100.0	1600.0	0.0	0.0	1150.0	0.0	n/a	ITI
-31246143941.0	500	n/a	-1	-1	500	0.0	fixation	poldrack-single-stim	342	836059	0.0-15.23-0.23	beast_fmri_test	119	n/a	n/a	<div class = centerbox><div class = fixation>+</div></div>	none	500.0	test	n/a	n/a	n/a	n/a	n/a	n/a	n/a	n/a	n/a	n/a	n/a	n/a	n/a	n/a	n/a	n/a	n/a	n/a	n/a	fixation
-31246144933.353695	1100.0	n/a	1236	71	2750	995.353694701	stim	stop-signal	343	838812	0.0-15.23-1.23	beast_fmri_test	119	n/a	n/a	<img class = center src='/static/experiments/beast_fmri_test/images/P.png'></img>	89,71	2750.0	test	<img class = center src='/static/experiments/beast_fmri_test/images/redP.png'></img>	stop	1650.0	4.0	23.0	stop	non-target	P	89,Yellow Button	71,Green Button	650.0	1100.0	2100.0	1650.0	0.0	0.0	1100.0	1.0	n/a	go_stim
-31246143283.353695	1650.0	n/a	1236	71	2750	995.353694701	stim	stop-signal	343	838812	0.0-15.23-1.23	beast_fmri_test	119	n/a	n/a	<img class = center src='/static/experiments/beast_fmri_test/images/P.png'></img>	89,71	2750.0	test	<img class = center src='/static/experiments/beast_fmri_test/images/redP.png'></img>	stop	1650.0	4.0	23.0	stop	non-target	P	89,Yellow Button	71,Green Button	650.0	1100.0	2100.0	1650.0	0.0	0.0	1100.0	1.0	n/a	stop_stim
-31246142183.353695	995.35369470061005	n/a	1236	71	2750	995.353694701	stim	stop-signal	343	838812	0.0-15.23-1.23	beast_fmri_test	119	n/a	n/a	<img class = center src='/static/experiments/beast_fmri_test/images/P.png'></img>	89,71	2750.0	test	<img class = center src='/static/experiments/beast_fmri_test/images/redP.png'></img>	stop	1650.0	4.0	23.0	stop	non-target	P	89,Yellow Button	71,Green Button	650.0	1100.0	2100.0	1650.0	0.0	0.0	1100.0	1.0	n/a	ITI
-31246139679.0	500	n/a	-1	-1	500	0.0	fixation	poldrack-single-stim	344	840321	0.0-15.24-0.24	beast_fmri_test	119	n/a	n/a	<div class = centerbox><div class = fixation>+</div></div>	none	500.0	test	n/a	n/a	n/a	n/a	n/a	n/a	n/a	n/a	n/a	n/a	n/a	n/a	n/a	n/a	n/a	n/a	n/a	n/a	n/a	fixation
-31246140541.328857	2750	n/a	1060	89	2750	864.328855802	stim	stop-signal	345	843073	0.0-15.24-1.24	beast_fmri_test	119	n/a	n/a	<img class = center src='/static/experiments/beast_fmri_test/images/B.png'></img>	89,71	2750.0	test	<img class = center src='/static/experiments/beast_fmri_test/images/redB.png'></img>	go	1700.0	4.0	24.0	go	non-target	B	89,Yellow Button	71,Green Button	650.0	1050.0	2100.0	1700.0	0.0	n/a	1050.0	0.0	n/a	go_stim
-31246137791.328857	864.32885580202401	n/a	1060	89	2750	864.328855802	stim	stop-signal	345	843073	0.0-15.24-1.24	beast_fmri_test	119	n/a	n/a	<img class = center src='/static/experiments/beast_fmri_test/images/B.png'></img>	89,71	2750.0	test	<img class = center src='/static/experiments/beast_fmri_test/images/redB.png'></img>	go	1700.0	4.0	24.0	go	non-target	B	89,Yellow Button	71,Green Button	650.0	1050.0	2100.0	1700.0	0.0	n/a	1050.0	0.0	n/a	ITI
-31246135551.0	500	n/a	-1	-1	500	0.0	fixation	poldrack-single-stim	346	844449	0.0-15.25-0.25	beast_fmri_test	119	n/a	n/a	<div class = centerbox><div class = fixation>+</div></div>	none	500.0	test	n/a	n/a	n/a	n/a	n/a	n/a	n/a	n/a	n/a	n/a	n/a	n/a	n/a	n/a	n/a	n/a	n/a	n/a	n/a	fixation
-31246136823.251961	2750	n/a	812	89	2750	1274.25195988	stim	stop-signal	347	847201	0.0-15.25-1.25	beast_fmri_test	119	n/a	n/a	<img class = center src='/static/experiments/beast_fmri_test/images/B.png'></img>	89,71	2750.0	test	<img class = center src='/static/experiments/beast_fmri_test/images/redB.png'></img>	go	1700.0	4.0	25.0	go	non-target	B	89,Yellow Button	71,Green Button	650.0	1050.0	2100.0	1700.0	0.0	n/a	1050.0	0.0	n/a	go_stim
-31246134073.251961	1274.2519598771701	n/a	812	89	2750	1274.25195988	stim	stop-signal	347	847201	0.0-15.25-1.25	beast_fmri_test	119	n/a	n/a	<img class = center src='/static/experiments/beast_fmri_test/images/B.png'></img>	89,71	2750.0	test	<img class = center src='/static/experiments/beast_fmri_test/images/redB.png'></img>	go	1700.0	4.0	25.0	go	non-target	B	89,Yellow Button	71,Green Button	650.0	1050.0	2100.0	1700.0	0.0	n/a	1050.0	0.0	n/a	ITI
-31246131013.0	500	n/a	-1	-1	500	0.0	fixation	poldrack-single-stim	348	848987	0.0-15.26-0.26	beast_fmri_test	119	n/a	n/a	<div class = centerbox><div class = fixation>+</div></div>	none	500.0	test	n/a	n/a	n/a	n/a	n/a	n/a	n/a	n/a	n/a	n/a	n/a	n/a	n/a	n/a	n/a	n/a	n/a	n/a	n/a	fixation
-31246132035.14357	1050.0	n/a	1290	71	2750	1023.14357093	stim	stop-signal	349	851738	0.0-15.26-1.26	beast_fmri_test	119	n/a	n/a	<img class = center src='/static/experiments/beast_fmri_test/images/V.png'></img>	89,71	2750.0	test	<img class = center src='/static/experiments/beast_fmri_test/images/redV.png'></img>	stop	1700.0	4.0	26.0	stop	non-target	V	89,Yellow Button	71,Green Button	650.0	1050.0	2100.0	1700.0	0.0	0.0	1050.0	1.0	n/a	go_stim
