onset	duration	text	rt	key_press	block_duration	timing_post_trial	trial_id	trial_type	trial_index	time_elapsed	internal_node_id	exp_id	subject_id	trigger_times	triggers	stimulus	possible_responses	stim_duration	exp_stage	SS_stimulus	SS_trial_type	SS_duration	load	trial_num	stop_trial_type	adaptive_trial_type	stim	yes_response_key	no_response_key	SSD_target	SSD_non_target	SSTarget	SSNonTarget	go_acc	stop_acc	SS_delay	adaptive_acc	new_trial_type
test	10880	n/a	-1	-1	10880	0.0	practice-no-stop-feedback	poldrack-single-stim	6	27217	0.0-6.0	beast_fmri_test	314	16336,/,17015,/,17695,/,18375,/,19055,/,19736,/,20416,/,21096,/,21776,/,22456,/,23135,/,23816,/,24496,/,25176,/,25855,/,26537,/,27216,/	t,t,t,t,t,t,t,t,t,t,t,t,t,t,t,t,t	"<div class = ""centerbox""><p class = ""center-block-text"">Your delay is 2 trials.</p><p class = center-block-text>Please wait for the scanner to start the block</p></div>"	77	10880.0	n/a	n/a	n/a	n/a	n/a	n/a	n/a	n/a	n/a	n/a	n/a	n/a	n/a	n/a	n/a	n/a	n/a	n/a	n/a	start_functional_block
11383	500	n/a	-1	-1	500	0.0	fixation	poldrack-single-stim	7	27719	0.0-7.0-0.0	beast_fmri_test	314	n/a	n/a	<div class = centerbox><div class = fixation>+</div></div>	none	500.0	test	n/a	n/a	n/a	n/a	n/a	n/a	n/a	n/a	n/a	n/a	n/a	n/a	n/a	n/a	n/a	n/a	n/a	n/a	fixation
10779.1031558	2750	n/a	1229	89	2750	607.8968442	stim	stop-signal	8	30473	0.0-7.0-1.0	beast_fmri_test	314	27896,/,28576,/,29256,/,29935,/,30615,/	t,t,t,t,t	<img class = center src='/static/experiments/beast_fmri_test/images/D.png'></img>	71,89	2750.0	test	<img class = center src='/static/experiments/beast_fmri_test/images/redD.png'></img>	go	-1.0	2.0	0.0	go	temp-non-target	D	71,Green Button	89,Yellow Button	500.0	500.0	0.0	0.0	0.0	n/a	n/a	n/a	go_stim
13529.1031558	607.89684420000003	n/a	1229	89	2750	607.8968442	stim	stop-signal	8	30473	0.0-7.0-1.0	beast_fmri_test	314	27896,/,28576,/,29256,/,29935,/,30615,/	t,t,t,t,t	<img class = center src='/static/experiments/beast_fmri_test/images/D.png'></img>	71,89	2750.0	test	<img class = center src='/static/experiments/beast_fmri_test/images/redD.png'></img>	go	-1.0	2.0	0.0	go	temp-non-target	D	71,Green Button	89,Yellow Button	500.0	500.0	0.0	0.0	0.0	n/a	n/a	n/a	ITI
15250	500	n/a	-1	-1	500	0.0	fixation	poldrack-single-stim	9	31586	0.0-7.1-0.1	beast_fmri_test	314	31296,/	t	<div class = centerbox><div class = fixation>+</div></div>	none	500.0	test	n/a	n/a	n/a	n/a	n/a	n/a	n/a	n/a	n/a	n/a	n/a	n/a	n/a	n/a	n/a	n/a	n/a	n/a	fixation
15085.560881500001	temp_go_duration	n/a	1005	89	2750	167.4391185	stim	stop-signal	10	34339	0.0-7.1-1.1	beast_fmri_test	314	31976,/,32655,/,33335,/,34015,/	t,t,t,t	<img class = center src='/static/experiments/beast_fmri_test/images/P.png'></img>	71,89	2750.0	test	<img class = center src='/static/experiments/beast_fmri_test/images/redP.png'></img>	stop	-1.0	2.0	1.0	stop	temp-non-target	P	71,Green Button	89,Yellow Button	500.0	500.0	0.0	0.0	0.0	0.0	n/a	n/a	go_stim
temp-non-target	temp_stop_duration	n/a	1005	89	2750	167.4391185	stim	stop-signal	10	34339	0.0-7.1-1.1	beast_fmri_test	314	31976,/,32655,/,33335,/,34015,/	t,t,t,t	<img class = center src='/static/experiments/beast_fmri_test/images/P.png'></img>	71,89	2750.0	test	<img class = center src='/static/experiments/beast_fmri_test/images/redP.png'></img>	stop	-1.0	2.0	1.0	stop	temp-non-target	P	71,Green Button	89,Yellow Button	500.0	500.0	0.0	0.0	0.0	0.0	n/a	n/a	stop_stim
17835.560881500001	167.43911850000001	n/a	1005	89	2750	167.4391185	stim	stop-signal	10	34339	0.0-7.1-1.1	beast_fmri_test	314	31976,/,32655,/,33335,/,34015,/	t,t,t,t	<img class = center src='/static/experiments/beast_fmri_test/images/P.png'></img>	71,89	2750.0	test	<img class = center src='/static/experiments/beast_fmri_test/images/redP.png'></img>	stop	-1.0	2.0	1.0	stop	temp-non-target	P	71,Green Button	89,Yellow Button	500.0	500.0	0.0	0.0	0.0	0.0	n/a	n/a	ITI
18672	500	n/a	-1	-1	500	0.0	fixation	poldrack-single-stim	11	35008	0.0-7.2-0.2	beast_fmri_test	314	34695,/	t	<div class = centerbox><div class = fixation>+</div></div>	none	500.0	test	n/a	n/a	n/a	n/a	n/a	n/a	n/a	n/a	n/a	n/a	n/a	n/a	n/a	n/a	n/a	n/a	n/a	n/a	fixation
16459.375337999998	2750	n/a	1276	89	2750	2214.624662	stim	stop-signal	12	37760	0.0-7.2-1.2	beast_fmri_test	314	35375,/,36055,/,36736,/,37416,/,38095,/,38775,/,39455,/	t,t,t,t,t,t,t	<img class = center src='/static/experiments/beast_fmri_test/images/T.png'></img>	71,89	2750.0	test	<img class = center src='/static/experiments/beast_fmri_test/images/redT.png'></img>	go	2250.0	2.0	2.0	go	non-target	T	71,Green Button	89,Yellow Button	500.0	500.0	0.0	2250.0	1.0	n/a	500.0	1.0	go_stim
19209.375337999998	2214.6246620000002	n/a	1276	89	2750	2214.624662	stim	stop-signal	12	37760	0.0-7.2-1.2	beast_fmri_test	314	35375,/,36055,/,36736,/,37416,/,38095,/,38775,/,39455,/	t,t,t,t,t,t,t	<img class = center src='/static/experiments/beast_fmri_test/images/T.png'></img>	71,89	2750.0	test	<img class = center src='/static/experiments/beast_fmri_test/images/redT.png'></img>	go	2250.0	2.0	2.0	go	non-target	T	71,Green Button	89,Yellow Button	500.0	500.0	0.0	2250.0	1.0	n/a	500.0	1.0	ITI
24142	500	n/a	-1	-1	500	0.0	fixation	poldrack-single-stim	13	40478	0.0-7.3-0.3	beast_fmri_test	314	40135,/	t	<div class = centerbox><div class = fixation>+</div></div>	none	500.0	test	n/a	n/a	n/a	n/a	n/a	n/a	n/a	n/a	n/a	n/a	n/a	n/a	n/a	n/a	n/a	n/a	n/a	n/a	fixation
24139.097493522997	2750	n/a	884	89	2750	3.902506477	stim	stop-signal	14	43229	0.0-7.3-1.3	beast_fmri_test	314	40815,/,41495,/,42175,/,42855,/	t,t,t,t	<img class = center src='/static/experiments/beast_fmri_test/images/D.png'></img>	71,89	2750.0	test	<img class = center src='/static/experiments/beast_fmri_test/images/redD.png'></img>	go	2250.0	2.0	3.0	go	non-target	D	71,Green Button	89,Yellow Button	500.0	500.0	0.0	2250.0	1.0	n/a	500.0	1.0	go_stim
26889.097493522997	3.9025064769999998	n/a	884	89	2750	3.902506477	stim	stop-signal	14	43229	0.0-7.3-1.3	beast_fmri_test	314	40815,/,41495,/,42175,/,42855,/	t,t,t,t	<img class = center src='/static/experiments/beast_fmri_test/images/D.png'></img>	71,89	2750.0	test	<img class = center src='/static/experiments/beast_fmri_test/images/redD.png'></img>	go	2250.0	2.0	3.0	go	non-target	D	71,Green Button	89,Yellow Button	500.0	500.0	0.0	2250.0	1.0	n/a	500.0	1.0	ITI
27400	500	n/a	-1	-1	500	0.0	fixation	poldrack-single-stim	15	43736	0.0-7.4-0.4	beast_fmri_test	314	43535,/	t	<div class = centerbox><div class = fixation>+</div></div>	none	500.0	test	n/a	n/a	n/a	n/a	n/a	n/a	n/a	n/a	n/a	n/a	n/a	n/a	n/a	n/a	n/a	n/a	n/a	n/a	fixation
26536.6645211	2750	n/a	-1	-1	2750	865.3354789	stim	stop-signal	16	46488	0.0-7.4-1.4	beast_fmri_test	314	44215,/,44895,/,45575,/,46255,/,46936,/	t,t,t,t,t	<img class = center src='/static/experiments/beast_fmri_test/images/D.png'></img>	71,89	2750.0	test	<img class = center src='/static/experiments/beast_fmri_test/images/redD.png'></img>	go	2250.0	2.0	4.0	go	non-target	D	71,Green Button	89,Yellow Button	500.0	500.0	0.0	2250.0	0.0	n/a	500.0	0.0	go_stim
29286.6645211	865.33547889999988	n/a	-1	-1	2750	865.3354789	stim	stop-signal	16	46488	0.0-7.4-1.4	beast_fmri_test	314	44215,/,44895,/,45575,/,46255,/,46936,/	t,t,t,t,t	<img class = center src='/static/experiments/beast_fmri_test/images/D.png'></img>	71,89	2750.0	test	<img class = center src='/static/experiments/beast_fmri_test/images/redD.png'></img>	go	2250.0	2.0	4.0	go	non-target	D	71,Green Button	89,Yellow Button	500.0	500.0	0.0	2250.0	0.0	n/a	500.0	0.0	ITI
31520	500	n/a	-1	-1	500	0.0	fixation	poldrack-single-stim	17	47856	0.0-7.5-0.5	beast_fmri_test	314	47615,/	t	<div class = centerbox><div class = fixation>+</div></div>	none	500.0	test	n/a	n/a	n/a	n/a	n/a	n/a	n/a	n/a	n/a	n/a	n/a	n/a	n/a	n/a	n/a	n/a	n/a	n/a	fixation
30671.505420900001	500.0	n/a	-1	-1	2750	850.4945791	stim	stop-signal	18	50608	0.0-7.5-1.5	beast_fmri_test	314	48295,/,48975,/,49655,/,50335,/,51015,/	t,t,t,t,t	<img class = center src='/static/experiments/beast_fmri_test/images/T.png'></img>	71,89	2750.0	test	<img class = center src='/static/experiments/beast_fmri_test/images/redT.png'></img>	stop	2250.0	2.0	5.0	stop	non-target	T	71,Green Button	89,Yellow Button	500.0	500.0	0.0	2250.0	0.0	1.0	500.0	0.0	go_stim
32921.505420900001	2250.0	n/a	-1	-1	2750	850.4945791	stim	stop-signal	18	50608	0.0-7.5-1.5	beast_fmri_test	314	48295,/,48975,/,49655,/,50335,/,51015,/	t,t,t,t,t	<img class = center src='/static/experiments/beast_fmri_test/images/T.png'></img>	71,89	2750.0	test	<img class = center src='/static/experiments/beast_fmri_test/images/redT.png'></img>	stop	2250.0	2.0	5.0	stop	non-target	T	71,Green Button	89,Yellow Button	500.0	500.0	0.0	2250.0	0.0	1.0	500.0	0.0	stop_stim
33421.505420900001	850.49457910000012	n/a	-1	-1	2750	850.4945791	stim	stop-signal	18	50608	0.0-7.5-1.5	beast_fmri_test	314	48295,/,48975,/,49655,/,50335,/,51015,/	t,t,t,t,t	<img class = center src='/static/experiments/beast_fmri_test/images/T.png'></img>	71,89	2750.0	test	<img class = center src='/static/experiments/beast_fmri_test/images/redT.png'></img>	stop	2250.0	2.0	5.0	stop	non-target	T	71,Green Button	89,Yellow Button	500.0	500.0	0.0	2250.0	0.0	1.0	500.0	0.0	ITI
35624	500	n/a	-1	-1	500	0.0	fixation	poldrack-single-stim	19	51960	0.0-7.6-0.6	beast_fmri_test	314	51695,/	t	<div class = centerbox><div class = fixation>+</div></div>	none	500.0	test	n/a	n/a	n/a	n/a	n/a	n/a	n/a	n/a	n/a	n/a	n/a	n/a	n/a	n/a	n/a	n/a	n/a	n/a	fixation
35066.827995300002	550.0	n/a	752	89	2750	559.1720047	stim	stop-signal	20	54712	0.0-7.6-1.6	beast_fmri_test	314	52375,/,53056,/,53736,/,54416,/,55096,/	t,t,t,t,t	<img class = center src='/static/experiments/beast_fmri_test/images/V.png'></img>	71,89	2750.0	test	<img class = center src='/static/experiments/beast_fmri_test/images/redV.png'></img>	stop	2200.0	2.0	6.0	stop	non-target	V	71,Green Button	89,Yellow Button	500.0	550.0	0.0	2200.0	0.0	0.0	550.0	1.0	go_stim
37266.827995300002	2200.0	n/a	752	89	2750	559.1720047	stim	stop-signal	20	54712	0.0-7.6-1.6	beast_fmri_test	314	52375,/,53056,/,53736,/,54416,/,55096,/	t,t,t,t,t	<img class = center src='/static/experiments/beast_fmri_test/images/V.png'></img>	71,89	2750.0	test	<img class = center src='/static/experiments/beast_fmri_test/images/redV.png'></img>	stop	2200.0	2.0	6.0	stop	non-target	V	71,Green Button	89,Yellow Button	500.0	550.0	0.0	2200.0	0.0	0.0	550.0	1.0	stop_stim
37816.827995300002	559.1720047	n/a	752	89	2750	559.1720047	stim	stop-signal	20	54712	0.0-7.6-1.6	beast_fmri_test	314	52375,/,53056,/,53736,/,54416,/,55096,/	t,t,t,t,t	<img class = center src='/static/experiments/beast_fmri_test/images/V.png'></img>	71,89	2750.0	test	<img class = center src='/static/experiments/beast_fmri_test/images/redV.png'></img>	stop	2200.0	2.0	6.0	stop	non-target	V	71,Green Button	89,Yellow Button	500.0	550.0	0.0	2200.0	0.0	0.0	550.0	1.0	ITI
39438	500	n/a	-1	-1	500	0.0	fixation	poldrack-single-stim	21	55774	0.0-7.7-0.7	beast_fmri_test	314	n/a	n/a	<div class = centerbox><div class = fixation>+</div></div>	none	500.0	test	n/a	n/a	n/a	n/a	n/a	n/a	n/a	n/a	n/a	n/a	n/a	n/a	n/a	n/a	n/a	n/a	n/a	n/a	fixation
38906.430372900002	500.0	n/a	-1	-1	2750	532.5696271	stim	stop-signal	22	58525	0.0-7.7-1.7	beast_fmri_test	314	55776,/,56456,/,57136,/,57816,/,58496,/	t,t,t,t,t	<img class = center src='/static/experiments/beast_fmri_test/images/V.png'></img>	71,89	2750.0	test	<img class = center src='/static/experiments/beast_fmri_test/images/redV.png'></img>	stop	2250.0	2.0	7.0	stop	non-target	V	71,Green Button	89,Yellow Button	500.0	500.0	0.0	2250.0	0.0	1.0	500.0	0.0	go_stim
41156.430372900002	2250.0	n/a	-1	-1	2750	532.5696271	stim	stop-signal	22	58525	0.0-7.7-1.7	beast_fmri_test	314	55776,/,56456,/,57136,/,57816,/,58496,/	t,t,t,t,t	<img class = center src='/static/experiments/beast_fmri_test/images/V.png'></img>	71,89	2750.0	test	<img class = center src='/static/experiments/beast_fmri_test/images/redV.png'></img>	stop	2250.0	2.0	7.0	stop	non-target	V	71,Green Button	89,Yellow Button	500.0	500.0	0.0	2250.0	0.0	1.0	500.0	0.0	stop_stim
41656.430372900002	532.56962710000005	n/a	-1	-1	2750	532.5696271	stim	stop-signal	22	58525	0.0-7.7-1.7	beast_fmri_test	314	55776,/,56456,/,57136,/,57816,/,58496,/	t,t,t,t,t	<img class = center src='/static/experiments/beast_fmri_test/images/V.png'></img>	71,89	2750.0	test	<img class = center src='/static/experiments/beast_fmri_test/images/redV.png'></img>	stop	2250.0	2.0	7.0	stop	non-target	V	71,Green Button	89,Yellow Button	500.0	500.0	0.0	2250.0	0.0	1.0	500.0	0.0	ITI
43225	500	n/a	-1	-1	500	0.0	fixation	poldrack-single-stim	23	59561	0.0-7.8-0.8	beast_fmri_test	314	59176,/	t	<div class = centerbox><div class = fixation>+</div></div>	none	500.0	test	n/a	n/a	n/a	n/a	n/a	n/a	n/a	n/a	n/a	n/a	n/a	n/a	n/a	n/a	n/a	n/a	n/a	n/a	fixation
42422.564075200004	2750	n/a	1314	71	2750	805.4359248	stim	stop-signal	24	62314	0.0-7.8-1.8	beast_fmri_test	314	59856,/,60536,/,61215,/,61896,/,62575,/	t,t,t,t,t	<img class = center src='/static/experiments/beast_fmri_test/images/V.png'></img>	71,89	2750.0	test	<img class = center src='/static/experiments/beast_fmri_test/images/redV.png'></img>	go	2250.0	2.0	8.0	go	target	V	71,Green Button	89,Yellow Button	500.0	550.0	2250.0	2250.0	1.0	n/a	500.0	1.0	go_stim
45172.564075200004	805.43592479999995	n/a	1314	71	2750	805.4359248	stim	stop-signal	24	62314	0.0-7.8-1.8	beast_fmri_test	314	59856,/,60536,/,61215,/,61896,/,62575,/	t,t,t,t,t	<img class = center src='/static/experiments/beast_fmri_test/images/V.png'></img>	71,89	2750.0	test	<img class = center src='/static/experiments/beast_fmri_test/images/redV.png'></img>	go	2250.0	2.0	8.0	go	target	V	71,Green Button	89,Yellow Button	500.0	550.0	2250.0	2250.0	1.0	n/a	500.0	1.0	ITI
47288	500	n/a	-1	-1	500	0.0	fixation	poldrack-single-stim	25	63624	0.0-7.9-0.9	beast_fmri_test	314	63256,/	t	<div class = centerbox><div class = fixation>+</div></div>	none	500.0	test	n/a	n/a	n/a	n/a	n/a	n/a	n/a	n/a	n/a	n/a	n/a	n/a	n/a	n/a	n/a	n/a	n/a	n/a	fixation
44957.435320999997	550.0	n/a	-1	-1	2750	2331.564679	stim	stop-signal	26	66375	0.0-7.9-1.9	beast_fmri_test	314	63935,/,64616,/,65295,/,65975,/,66655,/,67336,/,68015,/,68696,/	t,t,t,t,t,t,t,t	<img class = center src='/static/experiments/beast_fmri_test/images/B.png'></img>	71,89	2750.0	test	<img class = center src='/static/experiments/beast_fmri_test/images/redB.png'></img>	stop	2200.0	2.0	9.0	stop	non-target	B	71,Green Button	89,Yellow Button	500.0	550.0	2250.0	2200.0	0.0	1.0	550.0	0.0	go_stim
47157.435320999997	2200.0	n/a	-1	-1	2750	2331.564679	stim	stop-signal	26	66375	0.0-7.9-1.9	beast_fmri_test	314	63935,/,64616,/,65295,/,65975,/,66655,/,67336,/,68015,/,68696,/	t,t,t,t,t,t,t,t	<img class = center src='/static/experiments/beast_fmri_test/images/B.png'></img>	71,89	2750.0	test	<img class = center src='/static/experiments/beast_fmri_test/images/redB.png'></img>	stop	2200.0	2.0	9.0	stop	non-target	B	71,Green Button	89,Yellow Button	500.0	550.0	2250.0	2200.0	0.0	1.0	550.0	0.0	stop_stim
47707.435320999997	2331.5646790000001	n/a	-1	-1	2750	2331.564679	stim	stop-signal	26	66375	0.0-7.9-1.9	beast_fmri_test	314	63935,/,64616,/,65295,/,65975,/,66655,/,67336,/,68015,/,68696,/	t,t,t,t,t,t,t,t	<img class = center src='/static/experiments/beast_fmri_test/images/B.png'></img>	71,89	2750.0	test	<img class = center src='/static/experiments/beast_fmri_test/images/redB.png'></img>	stop	2200.0	2.0	9.0	stop	non-target	B	71,Green Button	89,Yellow Button	500.0	550.0	2250.0	2200.0	0.0	1.0	550.0	0.0	ITI
52875	500	n/a	-1	-1	500	0.0	fixation	poldrack-single-stim	27	69211	0.0-7.10-0.10	beast_fmri_test	314	n/a	n/a	<div class = centerbox><div class = fixation>+</div></div>	none	500.0	test	n/a	n/a	n/a	n/a	n/a	n/a	n/a	n/a	n/a	n/a	n/a	n/a	n/a	n/a	n/a	n/a	n/a	n/a	fixation
51194.494781999994	600.0	n/a	-1	-1	2750	1681.505218	stim	stop-signal	28	71962	0.0-7.10-1.10	beast_fmri_test	314	69376,/,70055,/,70735,/,71415,/,72095,/,72775,/,73456,/	t,t,t,t,t,t,t	<img class = center src='/static/experiments/beast_fmri_test/images/P.png'></img>	71,89	2750.0	test	<img class = center src='/static/experiments/beast_fmri_test/images/redP.png'></img>	stop	2150.0	2.0	10.0	stop	non-target	P	71,Green Button	89,Yellow Button	500.0	600.0	2250.0	2150.0	0.0	1.0	600.0	0.0	go_stim
53344.494781999994	2150.0	n/a	-1	-1	2750	1681.505218	stim	stop-signal	28	71962	0.0-7.10-1.10	beast_fmri_test	314	69376,/,70055,/,70735,/,71415,/,72095,/,72775,/,73456,/	t,t,t,t,t,t,t	<img class = center src='/static/experiments/beast_fmri_test/images/P.png'></img>	71,89	2750.0	test	<img class = center src='/static/experiments/beast_fmri_test/images/redP.png'></img>	stop	2150.0	2.0	10.0	stop	non-target	P	71,Green Button	89,Yellow Button	500.0	600.0	2250.0	2150.0	0.0	1.0	600.0	0.0	stop_stim
53944.494781999994	1681.505218	n/a	-1	-1	2750	1681.505218	stim	stop-signal	28	71962	0.0-7.10-1.10	beast_fmri_test	314	69376,/,70055,/,70735,/,71415,/,72095,/,72775,/,73456,/	t,t,t,t,t,t,t	<img class = center src='/static/experiments/beast_fmri_test/images/P.png'></img>	71,89	2750.0	test	<img class = center src='/static/experiments/beast_fmri_test/images/redP.png'></img>	stop	2150.0	2.0	10.0	stop	non-target	P	71,Green Button	89,Yellow Button	500.0	600.0	2250.0	2150.0	0.0	1.0	600.0	0.0	ITI
57810	500	n/a	-1	-1	500	0.0	fixation	poldrack-single-stim	29	74146	0.0-7.11-0.11	beast_fmri_test	314	74135,/	t	<div class = centerbox><div class = fixation>+</div></div>	none	500.0	test	n/a	n/a	n/a	n/a	n/a	n/a	n/a	n/a	n/a	n/a	n/a	n/a	n/a	n/a	n/a	n/a	n/a	n/a	fixation
57079.367932299996	2750	n/a	1774	71	2750	732.6320677	stim	stop-signal	30	76898	0.0-7.11-1.11	beast_fmri_test	314	74816,/,75495,/,76175,/,76855,/,77536,/	t,t,t,t,t	<img class = center src='/static/experiments/beast_fmri_test/images/B.png'></img>	71,89	2750.0	test	<img class = center src='/static/experiments/beast_fmri_test/images/redB.png'></img>	go	2250.0	2.0	11.0	go	target	B	71,Green Button	89,Yellow Button	500.0	650.0	2250.0	2150.0	1.0	n/a	500.0	1.0	go_stim
59829.367932299996	732.63206769999999	n/a	1774	71	2750	732.6320677	stim	stop-signal	30	76898	0.0-7.11-1.11	beast_fmri_test	314	74816,/,75495,/,76175,/,76855,/,77536,/	t,t,t,t,t	<img class = center src='/static/experiments/beast_fmri_test/images/B.png'></img>	71,89	2750.0	test	<img class = center src='/static/experiments/beast_fmri_test/images/redB.png'></img>	go	2250.0	2.0	11.0	go	target	B	71,Green Button	89,Yellow Button	500.0	650.0	2250.0	2150.0	1.0	n/a	500.0	1.0	ITI
61798	500	n/a	-1	-1	500	0.0	fixation	poldrack-single-stim	31	78134	0.0-7.12-0.12	beast_fmri_test	314	n/a	n/a	<div class = centerbox><div class = fixation>+</div></div>	none	500.0	test	n/a	n/a	n/a	n/a	n/a	n/a	n/a	n/a	n/a	n/a	n/a	n/a	n/a	n/a	n/a	n/a	n/a	n/a	fixation
57694.319621999995	2750	n/a	1945	89	2750	4105.680378	stim	stop-signal	32	80886	0.0-7.12-1.12	beast_fmri_test	314	78215,/,78895,/,79575,/,80255,/,80935,/,81615,/,82295,/,82975,/,83655,/,84335,/	t,t,t,t,t,t,t,t,t,t	<img class = center src='/static/experiments/beast_fmri_test/images/T.png'></img>	71,89	2750.0	test	<img class = center src='/static/experiments/beast_fmri_test/images/redT.png'></img>	go	2100.0	2.0	12.0	go	non-target	T	71,Green Button	89,Yellow Button	500.0	650.0	2250.0	2100.0	1.0	n/a	650.0	1.0	go_stim
60444.319621999995	4105.680378	n/a	1945	89	2750	4105.680378	stim	stop-signal	32	80886	0.0-7.12-1.12	beast_fmri_test	314	78215,/,78895,/,79575,/,80255,/,80935,/,81615,/,82295,/,82975,/,83655,/,84335,/	t,t,t,t,t,t,t,t,t,t	<img class = center src='/static/experiments/beast_fmri_test/images/T.png'></img>	71,89	2750.0	test	<img class = center src='/static/experiments/beast_fmri_test/images/redT.png'></img>	go	2100.0	2.0	12.0	go	non-target	T	71,Green Button	89,Yellow Button	500.0	650.0	2250.0	2100.0	1.0	n/a	650.0	1.0	ITI
69159	500	n/a	-1	-1	500	0.0	fixation	poldrack-single-stim	33	85495	0.0-7.13-0.13	beast_fmri_test	314	85015,/	t	<div class = centerbox><div class = fixation>+</div></div>	none	500.0	test	n/a	n/a	n/a	n/a	n/a	n/a	n/a	n/a	n/a	n/a	n/a	n/a	n/a	n/a	n/a	n/a	n/a	n/a	fixation
68829.718145100007	2750	n/a	1898	89	2750	330.2818549	stim	stop-signal	34	88246	0.0-7.13-1.13	beast_fmri_test	314	85695,/,86376,/,87056,/,87737,/,88416,/	t,t,t,t,t	<img class = center src='/static/experiments/beast_fmri_test/images/T.png'></img>	71,89	2750.0	test	<img class = center src='/static/experiments/beast_fmri_test/images/redT.png'></img>	go	2100.0	2.0	13.0	go	non-target	T	71,Green Button	89,Yellow Button	500.0	650.0	2250.0	2100.0	1.0	n/a	650.0	1.0	go_stim
71579.718145100007	330.28185489999998	n/a	1898	89	2750	330.2818549	stim	stop-signal	34	88246	0.0-7.13-1.13	beast_fmri_test	314	85695,/,86376,/,87056,/,87737,/,88416,/	t,t,t,t,t	<img class = center src='/static/experiments/beast_fmri_test/images/T.png'></img>	71,89	2750.0	test	<img class = center src='/static/experiments/beast_fmri_test/images/redT.png'></img>	go	2100.0	2.0	13.0	go	non-target	T	71,Green Button	89,Yellow Button	500.0	650.0	2250.0	2100.0	1.0	n/a	650.0	1.0	ITI
72744	500	n/a	-1	-1	500	0.0	fixation	poldrack-single-stim	35	89080	0.0-7.14-0.14	beast_fmri_test	314	n/a	n/a	<div class = centerbox><div class = fixation>+</div></div>	none	500.0	test	n/a	n/a	n/a	n/a	n/a	n/a	n/a	n/a	n/a	n/a	n/a	n/a	n/a	n/a	n/a	n/a	n/a	n/a	fixation
71552.921069000004	2750	n/a	793	71	2750	1192.078931	stim	stop-signal	36	91831	0.0-7.14-1.14	beast_fmri_test	314	89096,/,89776,/,90456,/,91136,/,91816,/,92496,/	t,t,t,t,t,t	<img class = center src='/static/experiments/beast_fmri_test/images/T.png'></img>	71,89	2750.0	test	<img class = center src='/static/experiments/beast_fmri_test/images/redT.png'></img>	go	2250.0	2.0	14.0	go	target	T	71,Green Button	89,Yellow Button	500.0	650.0	2250.0	2100.0	1.0	n/a	500.0	1.0	go_stim
74302.921069000004	1192.078931	n/a	793	71	2750	1192.078931	stim	stop-signal	36	91831	0.0-7.14-1.14	beast_fmri_test	314	89096,/,89776,/,90456,/,91136,/,91816,/,92496,/	t,t,t,t,t,t	<img class = center src='/static/experiments/beast_fmri_test/images/T.png'></img>	71,89	2750.0	test	<img class = center src='/static/experiments/beast_fmri_test/images/redT.png'></img>	go	2250.0	2.0	14.0	go	target	T	71,Green Button	89,Yellow Button	500.0	650.0	2250.0	2100.0	1.0	n/a	500.0	1.0	ITI
77193	500	n/a	-1	-1	500	0.0	fixation	poldrack-single-stim	37	93529	0.0-7.15-0.15	beast_fmri_test	314	93175,/	t	<div class = centerbox><div class = fixation>+</div></div>	none	500.0	test	n/a	n/a	n/a	n/a	n/a	n/a	n/a	n/a	n/a	n/a	n/a	n/a	n/a	n/a	n/a	n/a	n/a	n/a	fixation
76621.097357999999	500.0	n/a	-1	-1	2750	572.902642	stim	stop-signal	38	96280	0.0-7.15-1.15	beast_fmri_test	314	93856,/,94535,/,95216,/,95895,/,96576,/	t,t,t,t,t	<img class = center src='/static/experiments/beast_fmri_test/images/T.png'></img>	71,89	2750.0	test	<img class = center src='/static/experiments/beast_fmri_test/images/redT.png'></img>	stop	2250.0	2.0	15.0	stop	target	T	71,Green Button	89,Yellow Button	500.0	650.0	2250.0	2100.0	0.0	1.0	500.0	0.0	go_stim
78871.097357999999	2250.0	n/a	-1	-1	2750	572.902642	stim	stop-signal	38	96280	0.0-7.15-1.15	beast_fmri_test	314	93856,/,94535,/,95216,/,95895,/,96576,/	t,t,t,t,t	<img class = center src='/static/experiments/beast_fmri_test/images/T.png'></img>	71,89	2750.0	test	<img class = center src='/static/experiments/beast_fmri_test/images/redT.png'></img>	stop	2250.0	2.0	15.0	stop	target	T	71,Green Button	89,Yellow Button	500.0	650.0	2250.0	2100.0	0.0	1.0	500.0	0.0	stop_stim
79371.097357999999	572.90264200000001	n/a	-1	-1	2750	572.902642	stim	stop-signal	38	96280	0.0-7.15-1.15	beast_fmri_test	314	93856,/,94535,/,95216,/,95895,/,96576,/	t,t,t,t,t	<img class = center src='/static/experiments/beast_fmri_test/images/T.png'></img>	71,89	2750.0	test	<img class = center src='/static/experiments/beast_fmri_test/images/redT.png'></img>	stop	2250.0	2.0	15.0	stop	target	T	71,Green Button	89,Yellow Button	500.0	650.0	2250.0	2100.0	0.0	1.0	500.0	0.0	ITI
81022	500	n/a	-1	-1	500	0.0	fixation	poldrack-single-stim	39	97358	0.0-7.16-0.16	beast_fmri_test	314	97256,/	t	<div class = centerbox><div class = fixation>+</div></div>	none	500.0	test	n/a	n/a	n/a	n/a	n/a	n/a	n/a	n/a	n/a	n/a	n/a	n/a	n/a	n/a	n/a	n/a	n/a	n/a	fixation
80516.247223600003	2750	n/a	1924	89	2750	506.7527764	stim	stop-signal	40	100109	0.0-7.16-1.16	beast_fmri_test	314	97937,/,98615,/,99295,/,99975,/	t,t,t,t	<img class = center src='/static/experiments/beast_fmri_test/images/V.png'></img>	71,89	2750.0	test	<img class = center src='/static/experiments/beast_fmri_test/images/redV.png'></img>	go	2100.0	2.0	16.0	go	non-target	V	71,Green Button	89,Yellow Button	550.0	650.0	2250.0	2100.0	1.0	n/a	650.0	1.0	go_stim
83266.247223600003	506.75277639999996	n/a	1924	89	2750	506.7527764	stim	stop-signal	40	100109	0.0-7.16-1.16	beast_fmri_test	314	97937,/,98615,/,99295,/,99975,/	t,t,t,t	<img class = center src='/static/experiments/beast_fmri_test/images/V.png'></img>	71,89	2750.0	test	<img class = center src='/static/experiments/beast_fmri_test/images/redV.png'></img>	go	2100.0	2.0	16.0	go	non-target	V	71,Green Button	89,Yellow Button	550.0	650.0	2250.0	2100.0	1.0	n/a	650.0	1.0	ITI
84784	500	n/a	-1	-1	500	0.0	fixation	poldrack-single-stim	41	101120	0.0-7.17-0.17	beast_fmri_test	314	100656,/	t	<div class = centerbox><div class = fixation>+</div></div>	none	500.0	test	n/a	n/a	n/a	n/a	n/a	n/a	n/a	n/a	n/a	n/a	n/a	n/a	n/a	n/a	n/a	n/a	n/a	n/a	fixation
83941.971328700005	550.0	n/a	-1	-1	2750	844.0286713	stim	stop-signal	42	103872	0.0-7.17-1.17	beast_fmri_test	314	101335,/,102015,/,102695,/,103375,/,104055,/	t,t,t,t,t	<img class = center src='/static/experiments/beast_fmri_test/images/T.png'></img>	71,89	2750.0	test	<img class = center src='/static/experiments/beast_fmri_test/images/redT.png'></img>	stop	2200.0	2.0	17.0	stop	target	T	71,Green Button	89,Yellow Button	550.0	650.0	2200.0	2100.0	0.0	1.0	550.0	0.0	go_stim
86141.971328700005	2200.0	n/a	-1	-1	2750	844.0286713	stim	stop-signal	42	103872	0.0-7.17-1.17	beast_fmri_test	314	101335,/,102015,/,102695,/,103375,/,104055,/	t,t,t,t,t	<img class = center src='/static/experiments/beast_fmri_test/images/T.png'></img>	71,89	2750.0	test	<img class = center src='/static/experiments/beast_fmri_test/images/redT.png'></img>	stop	2200.0	2.0	17.0	stop	target	T	71,Green Button	89,Yellow Button	550.0	650.0	2200.0	2100.0	0.0	1.0	550.0	0.0	stop_stim
86691.971328700005	844.02867129999993	n/a	-1	-1	2750	844.0286713	stim	stop-signal	42	103872	0.0-7.17-1.17	beast_fmri_test	314	101335,/,102015,/,102695,/,103375,/,104055,/	t,t,t,t,t	<img class = center src='/static/experiments/beast_fmri_test/images/T.png'></img>	71,89	2750.0	test	<img class = center src='/static/experiments/beast_fmri_test/images/redT.png'></img>	stop	2200.0	2.0	17.0	stop	target	T	71,Green Button	89,Yellow Button	550.0	650.0	2200.0	2100.0	0.0	1.0	550.0	0.0	ITI
88885	500	n/a	-1	-1	500	0.0	fixation	poldrack-single-stim	43	105221	0.0-7.18-0.18	beast_fmri_test	314	104735,/	t	<div class = centerbox><div class = fixation>+</div></div>	none	500.0	test	n/a	n/a	n/a	n/a	n/a	n/a	n/a	n/a	n/a	n/a	n/a	n/a	n/a	n/a	n/a	n/a	n/a	n/a	fixation
88866.859470859999	2750	n/a	1277	89	2750	21.14052914	stim	stop-signal	44	107974	0.0-7.18-1.18	beast_fmri_test	314	105416,/,106096,/,106775,/,107455,/	t,t,t,t	<img class = center src='/static/experiments/beast_fmri_test/images/T.png'></img>	71,89	2750.0	test	<img class = center src='/static/experiments/beast_fmri_test/images/redT.png'></img>	go	2100.0	2.0	18.0	go	non-target	T	71,Green Button	89,Yellow Button	600.0	650.0	2200.0	2100.0	1.0	n/a	650.0	1.0	go_stim
91616.859470859999	21.140529140000002	n/a	1277	89	2750	21.14052914	stim	stop-signal	44	107974	0.0-7.18-1.18	beast_fmri_test	314	105416,/,106096,/,106775,/,107455,/	t,t,t,t	<img class = center src='/static/experiments/beast_fmri_test/images/T.png'></img>	71,89	2750.0	test	<img class = center src='/static/experiments/beast_fmri_test/images/redT.png'></img>	go	2100.0	2.0	18.0	go	non-target	T	71,Green Button	89,Yellow Button	600.0	650.0	2200.0	2100.0	1.0	n/a	650.0	1.0	ITI
92164	500	n/a	-1	-1	500	0.0	fixation	poldrack-single-stim	45	108500	0.0-7.19-0.19	beast_fmri_test	314	108136,/	t	<div class = centerbox><div class = fixation>+</div></div>	none	500.0	test	n/a	n/a	n/a	n/a	n/a	n/a	n/a	n/a	n/a	n/a	n/a	n/a	n/a	n/a	n/a	n/a	n/a	n/a	fixation
89810.019350999995	600.0	n/a	-1	-1	2750	2355.980649	stim	stop-signal	46	111252	0.0-7.19-1.19	beast_fmri_test	314	108815,/,109495,/,110175,/,110855,/,111535,/,112215,/,112895,/,113575,/	t,t,t,t,t,t,t,t	<img class = center src='/static/experiments/beast_fmri_test/images/T.png'></img>	71,89	2750.0	test	<img class = center src='/static/experiments/beast_fmri_test/images/redT.png'></img>	stop	2150.0	2.0	19.0	stop	target	T	71,Green Button	89,Yellow Button	600.0	650.0	2150.0	2100.0	0.0	1.0	600.0	0.0	go_stim
91960.019350999995	2150.0	n/a	-1	-1	2750	2355.980649	stim	stop-signal	46	111252	0.0-7.19-1.19	beast_fmri_test	314	108815,/,109495,/,110175,/,110855,/,111535,/,112215,/,112895,/,113575,/	t,t,t,t,t,t,t,t	<img class = center src='/static/experiments/beast_fmri_test/images/T.png'></img>	71,89	2750.0	test	<img class = center src='/static/experiments/beast_fmri_test/images/redT.png'></img>	stop	2150.0	2.0	19.0	stop	target	T	71,Green Button	89,Yellow Button	600.0	650.0	2150.0	2100.0	0.0	1.0	600.0	0.0	stop_stim
92560.019350999995	2355.9806489999996	n/a	-1	-1	2750	2355.980649	stim	stop-signal	46	111252	0.0-7.19-1.19	beast_fmri_test	314	108815,/,109495,/,110175,/,110855,/,111535,/,112215,/,112895,/,113575,/	t,t,t,t,t,t,t,t	<img class = center src='/static/experiments/beast_fmri_test/images/T.png'></img>	71,89	2750.0	test	<img class = center src='/static/experiments/beast_fmri_test/images/redT.png'></img>	stop	2150.0	2.0	19.0	stop	target	T	71,Green Button	89,Yellow Button	600.0	650.0	2150.0	2100.0	0.0	1.0	600.0	0.0	ITI
97777	500	n/a	-1	-1	500	0.0	fixation	poldrack-single-stim	47	114113	0.0-7.20-0.20	beast_fmri_test	314	n/a	n/a	<div class = centerbox><div class = fixation>+</div></div>	none	500.0	test	n/a	n/a	n/a	n/a	n/a	n/a	n/a	n/a	n/a	n/a	n/a	n/a	n/a	n/a	n/a	n/a	n/a	n/a	fixation
97705.858070899994	2750	n/a	1253	89	2750	73.1419291	stim	stop-signal	48	116865	0.0-7.20-1.20	beast_fmri_test	314	114255,/,114935,/,115615,/,116295,/	t,t,t,t	<img class = center src='/static/experiments/beast_fmri_test/images/P.png'></img>	71,89	2750.0	test	<img class = center src='/static/experiments/beast_fmri_test/images/redP.png'></img>	go	2100.0	2.0	20.0	go	non-target	P	71,Green Button	89,Yellow Button	650.0	650.0	2150.0	2100.0	1.0	n/a	650.0	1.0	go_stim
100455.85807089999	73.141929099999999	n/a	1253	89	2750	73.1419291	stim	stop-signal	48	116865	0.0-7.20-1.20	beast_fmri_test	314	114255,/,114935,/,115615,/,116295,/	t,t,t,t	<img class = center src='/static/experiments/beast_fmri_test/images/P.png'></img>	71,89	2750.0	test	<img class = center src='/static/experiments/beast_fmri_test/images/redP.png'></img>	go	2100.0	2.0	20.0	go	non-target	P	71,Green Button	89,Yellow Button	650.0	650.0	2150.0	2100.0	1.0	n/a	650.0	1.0	ITI
101108	500	n/a	-1	-1	500	0.0	fixation	poldrack-single-stim	49	117444	0.0-7.21-0.21	beast_fmri_test	314	116975,/	t	<div class = centerbox><div class = fixation>+</div></div>	none	500.0	test	n/a	n/a	n/a	n/a	n/a	n/a	n/a	n/a	n/a	n/a	n/a	n/a	n/a	n/a	n/a	n/a	n/a	n/a	fixation
100875.1953165	650.0	n/a	-1	-1	2750	234.8046835	stim	stop-signal	50	120196	0.0-7.21-1.21	beast_fmri_test	314	117655,/,118336,/,119015,/,119696,/,120376,/	t,t,t,t,t	<img class = center src='/static/experiments/beast_fmri_test/images/T.png'></img>	71,89	2750.0	test	<img class = center src='/static/experiments/beast_fmri_test/images/redT.png'></img>	stop	2100.0	2.0	21.0	stop	target	T	71,Green Button	89,Yellow Button	650.0	650.0	2100.0	2100.0	0.0	1.0	650.0	0.0	go_stim
102975.1953165	2100.0	n/a	-1	-1	2750	234.8046835	stim	stop-signal	50	120196	0.0-7.21-1.21	beast_fmri_test	314	117655,/,118336,/,119015,/,119696,/,120376,/	t,t,t,t,t	<img class = center src='/static/experiments/beast_fmri_test/images/T.png'></img>	71,89	2750.0	test	<img class = center src='/static/experiments/beast_fmri_test/images/redT.png'></img>	stop	2100.0	2.0	21.0	stop	target	T	71,Green Button	89,Yellow Button	650.0	650.0	2100.0	2100.0	0.0	1.0	650.0	0.0	stop_stim
103625.1953165	234.80468350000001	n/a	-1	-1	2750	234.8046835	stim	stop-signal	50	120196	0.0-7.21-1.21	beast_fmri_test	314	117655,/,118336,/,119015,/,119696,/,120376,/	t,t,t,t,t	<img class = center src='/static/experiments/beast_fmri_test/images/T.png'></img>	71,89	2750.0	test	<img class = center src='/static/experiments/beast_fmri_test/images/redT.png'></img>	stop	2100.0	2.0	21.0	stop	target	T	71,Green Button	89,Yellow Button	650.0	650.0	2100.0	2100.0	0.0	1.0	650.0	0.0	ITI
104599	500	n/a	-1	-1	500	0.0	fixation	poldrack-single-stim	51	120935	0.0-7.22-0.22	beast_fmri_test	314	n/a	n/a	<div class = centerbox><div class = fixation>+</div></div>	none	500.0	test	n/a	n/a	n/a	n/a	n/a	n/a	n/a	n/a	n/a	n/a	n/a	n/a	n/a	n/a	n/a	n/a	n/a	n/a	fixation
103973.53321340001	2750	n/a	1043	89	2750	626.4667866	stim	stop-signal	52	123686	0.0-7.22-1.22	beast_fmri_test	314	121056,/,121736,/,122416,/,123096,/,123776,/	t,t,t,t,t	<img class = center src='/static/experiments/beast_fmri_test/images/T.png'></img>	71,89	2750.0	test	<img class = center src='/static/experiments/beast_fmri_test/images/redT.png'></img>	go	2100.0	2.0	22.0	go	non-target	T	71,Green Button	89,Yellow Button	700.0	650.0	2100.0	2100.0	1.0	n/a	650.0	1.0	go_stim
106723.53321340001	626.46678660000009	n/a	1043	89	2750	626.4667866	stim	stop-signal	52	123686	0.0-7.22-1.22	beast_fmri_test	314	121056,/,121736,/,122416,/,123096,/,123776,/	t,t,t,t,t	<img class = center src='/static/experiments/beast_fmri_test/images/T.png'></img>	71,89	2750.0	test	<img class = center src='/static/experiments/beast_fmri_test/images/redT.png'></img>	go	2100.0	2.0	22.0	go	non-target	T	71,Green Button	89,Yellow Button	700.0	650.0	2100.0	2100.0	1.0	n/a	650.0	1.0	ITI
108481	500	n/a	-1	-1	500	0.0	fixation	poldrack-single-stim	53	124817	0.0-7.23-0.23	beast_fmri_test	314	124455,/	t	<div class = centerbox><div class = fixation>+</div></div>	none	500.0	test	n/a	n/a	n/a	n/a	n/a	n/a	n/a	n/a	n/a	n/a	n/a	n/a	n/a	n/a	n/a	n/a	n/a	n/a	fixation
108392.54395558999	2750	n/a	1325	89	2750	89.45604441	stim	stop-signal	54	127568	0.0-7.23-1.23	beast_fmri_test	314	125136,/,125816,/,126496,/,127175,/	t,t,t,t	<img class = center src='/static/experiments/beast_fmri_test/images/D.png'></img>	71,89	2750.0	test	<img class = center src='/static/experiments/beast_fmri_test/images/redD.png'></img>	go	2100.0	2.0	23.0	go	non-target	D	71,Green Button	89,Yellow Button	700.0	650.0	2100.0	2100.0	1.0	n/a	650.0	1.0	go_stim
111142.54395558999	89.456044410000004	n/a	1325	89	2750	89.45604441	stim	stop-signal	54	127568	0.0-7.23-1.23	beast_fmri_test	314	125136,/,125816,/,126496,/,127175,/	t,t,t,t	<img class = center src='/static/experiments/beast_fmri_test/images/D.png'></img>	71,89	2750.0	test	<img class = center src='/static/experiments/beast_fmri_test/images/redD.png'></img>	go	2100.0	2.0	23.0	go	non-target	D	71,Green Button	89,Yellow Button	700.0	650.0	2100.0	2100.0	1.0	n/a	650.0	1.0	ITI
111828	500	n/a	-1	-1	500	0.0	fixation	poldrack-single-stim	55	128164	0.0-7.24-0.24	beast_fmri_test	314	127856,/	t	<div class = centerbox><div class = fixation>+</div></div>	none	500.0	test	n/a	n/a	n/a	n/a	n/a	n/a	n/a	n/a	n/a	n/a	n/a	n/a	n/a	n/a	n/a	n/a	n/a	n/a	fixation
111511.79413710001	2750	n/a	1986	89	2750	318.2058629	stim	stop-signal	56	130916	0.0-7.24-1.24	beast_fmri_test	314	128536,/,129216,/,129896,/,130575,/	t,t,t,t	<img class = center src='/static/experiments/beast_fmri_test/images/P.png'></img>	71,89	2750.0	test	<img class = center src='/static/experiments/beast_fmri_test/images/redP.png'></img>	go	2100.0	2.0	24.0	go	non-target	P	71,Green Button	89,Yellow Button	700.0	650.0	2100.0	2100.0	1.0	n/a	650.0	1.0	go_stim
114261.79413710001	318.2058629	n/a	1986	89	2750	318.2058629	stim	stop-signal	56	130916	0.0-7.24-1.24	beast_fmri_test	314	128536,/,129216,/,129896,/,130575,/	t,t,t,t	<img class = center src='/static/experiments/beast_fmri_test/images/P.png'></img>	71,89	2750.0	test	<img class = center src='/static/experiments/beast_fmri_test/images/redP.png'></img>	go	2100.0	2.0	24.0	go	non-target	P	71,Green Button	89,Yellow Button	700.0	650.0	2100.0	2100.0	1.0	n/a	650.0	1.0	ITI
115403	500	n/a	-1	-1	500	0.0	fixation	poldrack-single-stim	57	131739	0.0-7.25-0.25	beast_fmri_test	314	131255,/	t	<div class = centerbox><div class = fixation>+</div></div>	none	500.0	test	n/a	n/a	n/a	n/a	n/a	n/a	n/a	n/a	n/a	n/a	n/a	n/a	n/a	n/a	n/a	n/a	n/a	n/a	fixation
114213.35530600001	2750	n/a	2109	89	2750	1191.644694	stim	stop-signal	58	134491	0.0-7.25-1.25	beast_fmri_test	314	131935,/,132615,/,133296,/,133975,/,134655,/,135335,/	t,t,t,t,t,t	<img class = center src='/static/experiments/beast_fmri_test/images/P.png'></img>	71,89	2750.0	test	<img class = center src='/static/experiments/beast_fmri_test/images/redP.png'></img>	go	2100.0	2.0	25.0	go	non-target	P	71,Green Button	89,Yellow Button	700.0	650.0	2100.0	2100.0	1.0	n/a	650.0	1.0	go_stim
116963.35530600001	1191.6446939999998	n/a	2109	89	2750	1191.644694	stim	stop-signal	58	134491	0.0-7.25-1.25	beast_fmri_test	314	131935,/,132615,/,133296,/,133975,/,134655,/,135335,/	t,t,t,t,t,t	<img class = center src='/static/experiments/beast_fmri_test/images/P.png'></img>	71,89	2750.0	test	<img class = center src='/static/experiments/beast_fmri_test/images/redP.png'></img>	go	2100.0	2.0	25.0	go	non-target	P	71,Green Button	89,Yellow Button	700.0	650.0	2100.0	2100.0	1.0	n/a	650.0	1.0	ITI
119851	500	n/a	-1	-1	500	0.0	fixation	poldrack-single-stim	59	136187	0.0-7.26-0.26	beast_fmri_test	314	136015,/	t	<div class = centerbox><div class = fixation>+</div></div>	none	500.0	test	n/a	n/a	n/a	n/a	n/a	n/a	n/a	n/a	n/a	n/a	n/a	n/a	n/a	n/a	n/a	n/a	n/a	n/a	fixation
118703.07885300001	2750	n/a	1014	71	2750	1149.921147	stim	stop-signal	60	138939	0.0-7.26-1.26	beast_fmri_test	314	136695,/,137375,/,138055,/,138736,/,139415,/	t,t,t,t,t	<img class = center src='/static/experiments/beast_fmri_test/images/P.png'></img>	71,89	2750.0	test	<img class = center src='/static/experiments/beast_fmri_test/images/redP.png'></img>	go	2050.0	2.0	26.0	go	target	P	71,Green Button	89,Yellow Button	700.0	650.0	2050.0	2100.0	1.0	n/a	700.0	1.0	go_stim
121453.07885300001	1149.921147	n/a	1014	71	2750	1149.921147	stim	stop-signal	60	138939	0.0-7.26-1.26	beast_fmri_test	314	136695,/,137375,/,138055,/,138736,/,139415,/	t,t,t,t,t	<img class = center src='/static/experiments/beast_fmri_test/images/P.png'></img>	71,89	2750.0	test	<img class = center src='/static/experiments/beast_fmri_test/images/redP.png'></img>	go	2050.0	2.0	26.0	go	target	P	71,Green Button	89,Yellow Button	700.0	650.0	2050.0	2100.0	1.0	n/a	700.0	1.0	ITI
124256	500	n/a	-1	-1	500	0.0	fixation	poldrack-single-stim	61	140592	0.0-7.27-0.27	beast_fmri_test	314	140095,/	t	<div class = centerbox><div class = fixation>+</div></div>	none	500.0	test	n/a	n/a	n/a	n/a	n/a	n/a	n/a	n/a	n/a	n/a	n/a	n/a	n/a	n/a	n/a	n/a	n/a	n/a	fixation
123720.2778255	650.0	n/a	-1	-1	2750	537.7221745	stim	stop-signal	62	143344	0.0-7.27-1.27	beast_fmri_test	314	140775,/,141455,/,142135,/,142815,/,143495,/	t,t,t,t,t	<img class = center src='/static/experiments/beast_fmri_test/images/T.png'></img>	71,89	2750.0	test	<img class = center src='/static/experiments/beast_fmri_test/images/redT.png'></img>	stop	2100.0	2.0	27.0	stop	non-target	T	71,Green Button	89,Yellow Button	700.0	650.0	2050.0	2100.0	0.0	1.0	650.0	0.0	go_stim
125820.2778255	2100.0	n/a	-1	-1	2750	537.7221745	stim	stop-signal	62	143344	0.0-7.27-1.27	beast_fmri_test	314	140775,/,141455,/,142135,/,142815,/,143495,/	t,t,t,t,t	<img class = center src='/static/experiments/beast_fmri_test/images/T.png'></img>	71,89	2750.0	test	<img class = center src='/static/experiments/beast_fmri_test/images/redT.png'></img>	stop	2100.0	2.0	27.0	stop	non-target	T	71,Green Button	89,Yellow Button	700.0	650.0	2050.0	2100.0	0.0	1.0	650.0	0.0	stop_stim
126470.2778255	537.72217450000005	n/a	-1	-1	2750	537.7221745	stim	stop-signal	62	143344	0.0-7.27-1.27	beast_fmri_test	314	140775,/,141455,/,142135,/,142815,/,143495,/	t,t,t,t,t	<img class = center src='/static/experiments/beast_fmri_test/images/T.png'></img>	71,89	2750.0	test	<img class = center src='/static/experiments/beast_fmri_test/images/redT.png'></img>	stop	2100.0	2.0	27.0	stop	non-target	T	71,Green Button	89,Yellow Button	700.0	650.0	2050.0	2100.0	0.0	1.0	650.0	0.0	ITI
128050	500	n/a	-1	-1	500	0.0	fixation	poldrack-single-stim	63	144386	0.0-7.28-0.28	beast_fmri_test	314	144175,/	t	<div class = centerbox><div class = fixation>+</div></div>	none	500.0	test	n/a	n/a	n/a	n/a	n/a	n/a	n/a	n/a	n/a	n/a	n/a	n/a	n/a	n/a	n/a	n/a	n/a	n/a	fixation
125304.28817099999	700.0	n/a	-1	-1	2750	2747.711829	stim	stop-signal	64	147138	0.0-7.28-1.28	beast_fmri_test	314	144855,/,145535,/,146215,/,146895,/,147575,/,148255,/,148936,/,149615,/	t,t,t,t,t,t,t,t	<img class = center src='/static/experiments/beast_fmri_test/images/P.png'></img>	71,89	2750.0	test	<img class = center src='/static/experiments/beast_fmri_test/images/redP.png'></img>	stop	2050.0	2.0	28.0	stop	target	P	71,Green Button	89,Yellow Button	700.0	700.0	2050.0	2100.0	0.0	1.0	700.0	0.0	go_stim
127354.28817099999	2050.0	n/a	-1	-1	2750	2747.711829	stim	stop-signal	64	147138	0.0-7.28-1.28	beast_fmri_test	314	144855,/,145535,/,146215,/,146895,/,147575,/,148255,/,148936,/,149615,/	t,t,t,t,t,t,t,t	<img class = center src='/static/experiments/beast_fmri_test/images/P.png'></img>	71,89	2750.0	test	<img class = center src='/static/experiments/beast_fmri_test/images/redP.png'></img>	stop	2050.0	2.0	28.0	stop	target	P	71,Green Button	89,Yellow Button	700.0	700.0	2050.0	2100.0	0.0	1.0	700.0	0.0	stop_stim
128054.28817099999	2747.7118289999999	n/a	-1	-1	2750	2747.711829	stim	stop-signal	64	147138	0.0-7.28-1.28	beast_fmri_test	314	144855,/,145535,/,146215,/,146895,/,147575,/,148255,/,148936,/,149615,/	t,t,t,t,t,t,t,t	<img class = center src='/static/experiments/beast_fmri_test/images/P.png'></img>	71,89	2750.0	test	<img class = center src='/static/experiments/beast_fmri_test/images/redP.png'></img>	stop	2050.0	2.0	28.0	stop	target	P	71,Green Button	89,Yellow Button	700.0	700.0	2050.0	2100.0	0.0	1.0	700.0	0.0	ITI
134056	500	n/a	-1	-1	500	0.0	fixation	poldrack-single-stim	65	150392	0.0-7.29-0.29	beast_fmri_test	314	150295,/	t	<div class = centerbox><div class = fixation>+</div></div>	none	500.0	test	n/a	n/a	n/a	n/a	n/a	n/a	n/a	n/a	n/a	n/a	n/a	n/a	n/a	n/a	n/a	n/a	n/a	n/a	fixation
130694.29076100001	2750	n/a	909	89	2750	3363.709239	stim	stop-signal	66	153144	0.0-7.29-1.29	beast_fmri_test	314	150975,/,151655,/,152335,/,153016,/,153695,/,154376,/,155056,/,155736,/,156416,/	t,t,t,t,t,t,t,t,t	<img class = center src='/static/experiments/beast_fmri_test/images/V.png'></img>	71,89	2750.0	test	<img class = center src='/static/experiments/beast_fmri_test/images/redV.png'></img>	go	2050.0	2.0	29.0	go	non-target	V	71,Green Button	89,Yellow Button	750.0	700.0	2050.0	2050.0	1.0	n/a	700.0	1.0	go_stim
133444.29076100001	3363.7092390000003	n/a	909	89	2750	3363.709239	stim	stop-signal	66	153144	0.0-7.29-1.29	beast_fmri_test	314	150975,/,151655,/,152335,/,153016,/,153695,/,154376,/,155056,/,155736,/,156416,/	t,t,t,t,t,t,t,t,t	<img class = center src='/static/experiments/beast_fmri_test/images/V.png'></img>	71,89	2750.0	test	<img class = center src='/static/experiments/beast_fmri_test/images/redV.png'></img>	go	2050.0	2.0	29.0	go	non-target	V	71,Green Button	89,Yellow Button	750.0	700.0	2050.0	2050.0	1.0	n/a	700.0	1.0	ITI
140677	500	n/a	-1	-1	500	0.0	fixation	poldrack-single-stim	67	157013	0.0-7.30-0.30	beast_fmri_test	314	n/a	n/a	<div class = centerbox><div class = fixation>+</div></div>	none	500.0	test	n/a	n/a	n/a	n/a	n/a	n/a	n/a	n/a	n/a	n/a	n/a	n/a	n/a	n/a	n/a	n/a	n/a	n/a	fixation
138307.50704500001	2750	n/a	1470	71	2750	2370.492955	stim	stop-signal	68	159764	0.0-7.30-1.30	beast_fmri_test	314	157096,/,157776,/,158456,/,159137,/,159815,/,160496,/,161175,/,161855,/	t,t,t,t,t,t,t,t	<img class = center src='/static/experiments/beast_fmri_test/images/P.png'></img>	71,89	2750.0	test	<img class = center src='/static/experiments/beast_fmri_test/images/redP.png'></img>	go	2000.0	2.0	30.0	go	target	P	71,Green Button	89,Yellow Button	750.0	700.0	2000.0	2050.0	1.0	n/a	750.0	1.0	go_stim
141057.50704500001	2370.4929550000002	n/a	1470	71	2750	2370.492955	stim	stop-signal	68	159764	0.0-7.30-1.30	beast_fmri_test	314	157096,/,157776,/,158456,/,159137,/,159815,/,160496,/,161175,/,161855,/	t,t,t,t,t,t,t,t	<img class = center src='/static/experiments/beast_fmri_test/images/P.png'></img>	71,89	2750.0	test	<img class = center src='/static/experiments/beast_fmri_test/images/redP.png'></img>	go	2000.0	2.0	30.0	go	target	P	71,Green Button	89,Yellow Button	750.0	700.0	2000.0	2050.0	1.0	n/a	750.0	1.0	ITI
146305	500	n/a	-1	-1	500	0.0	fixation	poldrack-single-stim	69	162641	0.0-7.31-0.31	beast_fmri_test	314	162536,/	t	<div class = centerbox><div class = fixation>+</div></div>	none	500.0	test	n/a	n/a	n/a	n/a	n/a	n/a	n/a	n/a	n/a	n/a	n/a	n/a	n/a	n/a	n/a	n/a	n/a	n/a	fixation
145084.06062400001	2750	n/a	2030	89	2750	1221.939376	stim	stop-signal	70	165392	0.0-7.31-1.31	beast_fmri_test	314	163216,/,163895,/,164576,/,165255,/,165935,/	t,t,t,t,t	<img class = center src='/static/experiments/beast_fmri_test/images/T.png'></img>	71,89	2750.0	test	<img class = center src='/static/experiments/beast_fmri_test/images/redT.png'></img>	go	2050.0	2.0	31.0	go	non-target	T	71,Green Button	89,Yellow Button	750.0	700.0	2000.0	2050.0	1.0	n/a	700.0	1.0	go_stim
147834.06062400001	1221.939376	n/a	2030	89	2750	1221.939376	stim	stop-signal	70	165392	0.0-7.31-1.31	beast_fmri_test	314	163216,/,163895,/,164576,/,165255,/,165935,/	t,t,t,t,t	<img class = center src='/static/experiments/beast_fmri_test/images/T.png'></img>	71,89	2750.0	test	<img class = center src='/static/experiments/beast_fmri_test/images/redT.png'></img>	go	2050.0	2.0	31.0	go	non-target	T	71,Green Button	89,Yellow Button	750.0	700.0	2000.0	2050.0	1.0	n/a	700.0	1.0	ITI
150784	500	n/a	-1	-1	500	0.0	fixation	poldrack-single-stim	71	167120	0.0-7.32-0.32	beast_fmri_test	314	166619,/	t	<div class = centerbox><div class = fixation>+</div></div>	none	500.0	test	n/a	n/a	n/a	n/a	n/a	n/a	n/a	n/a	n/a	n/a	n/a	n/a	n/a	n/a	n/a	n/a	n/a	n/a	fixation
148883.17833900001	700.0	n/a	-1	-1	2750	1902.821661	stim	stop-signal	72	169872	0.0-7.32-1.32	beast_fmri_test	314	167296,/,167975,/,168655,/,169336,/,170015,/,170695,/,171375,/	t,t,t,t,t,t,t	<img class = center src='/static/experiments/beast_fmri_test/images/V.png'></img>	71,89	2750.0	test	<img class = center src='/static/experiments/beast_fmri_test/images/redV.png'></img>	stop	2050.0	2.0	32.0	stop	non-target	V	71,Green Button	89,Yellow Button	750.0	700.0	2000.0	2050.0	0.0	1.0	700.0	0.0	go_stim
150933.17833900001	2050.0	n/a	-1	-1	2750	1902.821661	stim	stop-signal	72	169872	0.0-7.32-1.32	beast_fmri_test	314	167296,/,167975,/,168655,/,169336,/,170015,/,170695,/,171375,/	t,t,t,t,t,t,t	<img class = center src='/static/experiments/beast_fmri_test/images/V.png'></img>	71,89	2750.0	test	<img class = center src='/static/experiments/beast_fmri_test/images/redV.png'></img>	stop	2050.0	2.0	32.0	stop	non-target	V	71,Green Button	89,Yellow Button	750.0	700.0	2000.0	2050.0	0.0	1.0	700.0	0.0	stop_stim
151633.17833900001	1902.8216609999999	n/a	-1	-1	2750	1902.821661	stim	stop-signal	72	169872	0.0-7.32-1.32	beast_fmri_test	314	167296,/,167975,/,168655,/,169336,/,170015,/,170695,/,171375,/	t,t,t,t,t,t,t	<img class = center src='/static/experiments/beast_fmri_test/images/V.png'></img>	71,89	2750.0	test	<img class = center src='/static/experiments/beast_fmri_test/images/redV.png'></img>	stop	2050.0	2.0	32.0	stop	non-target	V	71,Green Button	89,Yellow Button	750.0	700.0	2000.0	2050.0	0.0	1.0	700.0	0.0	ITI
155945	500	n/a	-1	-1	500	0.0	fixation	poldrack-single-stim	73	172281	0.0-7.33-0.33	beast_fmri_test	314	172055,/	t	<div class = centerbox><div class = fixation>+</div></div>	none	500.0	test	n/a	n/a	n/a	n/a	n/a	n/a	n/a	n/a	n/a	n/a	n/a	n/a	n/a	n/a	n/a	n/a	n/a	n/a	fixation
155645.52091739999	750.0	n/a	931	89	2750	301.4790826	stim	stop-signal	74	175033	0.0-7.33-1.33	beast_fmri_test	314	172736,/,173415,/,174096,/,174775,/	t,t,t,t	<img class = center src='/static/experiments/beast_fmri_test/images/D.png'></img>	71,89	2750.0	test	<img class = center src='/static/experiments/beast_fmri_test/images/redD.png'></img>	stop	2000.0	2.0	33.0	stop	non-target	D	71,Green Button	89,Yellow Button	750.0	750.0	2000.0	2000.0	0.0	0.0	750.0	1.0	go_stim
157645.52091739999	2000.0	n/a	931	89	2750	301.4790826	stim	stop-signal	74	175033	0.0-7.33-1.33	beast_fmri_test	314	172736,/,173415,/,174096,/,174775,/	t,t,t,t	<img class = center src='/static/experiments/beast_fmri_test/images/D.png'></img>	71,89	2750.0	test	<img class = center src='/static/experiments/beast_fmri_test/images/redD.png'></img>	stop	2000.0	2.0	33.0	stop	non-target	D	71,Green Button	89,Yellow Button	750.0	750.0	2000.0	2000.0	0.0	0.0	750.0	1.0	stop_stim
158395.52091739999	301.47908260000003	n/a	931	89	2750	301.4790826	stim	stop-signal	74	175033	0.0-7.33-1.33	beast_fmri_test	314	172736,/,173415,/,174096,/,174775,/	t,t,t,t	<img class = center src='/static/experiments/beast_fmri_test/images/D.png'></img>	71,89	2750.0	test	<img class = center src='/static/experiments/beast_fmri_test/images/redD.png'></img>	stop	2000.0	2.0	33.0	stop	non-target	D	71,Green Button	89,Yellow Button	750.0	750.0	2000.0	2000.0	0.0	0.0	750.0	1.0	ITI
159505	500	n/a	-1	-1	500	0.0	fixation	poldrack-single-stim	75	175841	0.0-7.34-0.34	beast_fmri_test	314	175456,/	t	<div class = centerbox><div class = fixation>+</div></div>	none	500.0	test	n/a	n/a	n/a	n/a	n/a	n/a	n/a	n/a	n/a	n/a	n/a	n/a	n/a	n/a	n/a	n/a	n/a	n/a	fixation
159185.11528219999	2750	n/a	1264	89	2750	320.8847178	stim	stop-signal	76	178592	0.0-7.34-1.34	beast_fmri_test	314	176135,/,176815,/,177495,/,178175,/,178855,/	t,t,t,t,t	<img class = center src='/static/experiments/beast_fmri_test/images/T.png'></img>	71,89	2750.0	test	<img class = center src='/static/experiments/beast_fmri_test/images/redT.png'></img>	go	2050.0	2.0	34.0	go	non-target	T	71,Green Button	89,Yellow Button	750.0	700.0	2000.0	2050.0	1.0	n/a	700.0	1.0	go_stim
161935.11528219999	320.88471780000003	n/a	1264	89	2750	320.8847178	stim	stop-signal	76	178592	0.0-7.34-1.34	beast_fmri_test	314	176135,/,176815,/,177495,/,178175,/,178855,/	t,t,t,t,t	<img class = center src='/static/experiments/beast_fmri_test/images/T.png'></img>	71,89	2750.0	test	<img class = center src='/static/experiments/beast_fmri_test/images/redT.png'></img>	go	2050.0	2.0	34.0	go	non-target	T	71,Green Button	89,Yellow Button	750.0	700.0	2000.0	2050.0	1.0	n/a	700.0	1.0	ITI
163083	500	n/a	-1	-1	500	0.0	fixation	poldrack-single-stim	77	179419	0.0-7.35-0.35	beast_fmri_test	314	n/a	n/a	<div class = centerbox><div class = fixation>+</div></div>	none	500.0	test	n/a	n/a	n/a	n/a	n/a	n/a	n/a	n/a	n/a	n/a	n/a	n/a	n/a	n/a	n/a	n/a	n/a	n/a	fixation
162571.94918329999	2750	n/a	1606	71	2750	512.0508167	stim	stop-signal	78	182170	0.0-7.35-1.35	beast_fmri_test	314	179536,/,180215,/,180895,/,181575,/,182255,/	t,t,t,t,t	<img class = center src='/static/experiments/beast_fmri_test/images/D.png'></img>	71,89	2750.0	test	<img class = center src='/static/experiments/beast_fmri_test/images/redD.png'></img>	go	2000.0	2.0	35.0	go	target	D	71,Green Button	89,Yellow Button	750.0	700.0	2000.0	2050.0	1.0	n/a	750.0	1.0	go_stim
165321.94918329999	512.05081669999993	n/a	1606	71	2750	512.0508167	stim	stop-signal	78	182170	0.0-7.35-1.35	beast_fmri_test	314	179536,/,180215,/,180895,/,181575,/,182255,/	t,t,t,t,t	<img class = center src='/static/experiments/beast_fmri_test/images/D.png'></img>	71,89	2750.0	test	<img class = center src='/static/experiments/beast_fmri_test/images/redD.png'></img>	go	2000.0	2.0	35.0	go	target	D	71,Green Button	89,Yellow Button	750.0	700.0	2000.0	2050.0	1.0	n/a	750.0	1.0	ITI
166852	500	n/a	-1	-1	500	0.0	fixation	poldrack-single-stim	79	183188	0.0-7.36-0.36	beast_fmri_test	314	182935,/	t	<div class = centerbox><div class = fixation>+</div></div>	none	500.0	test	n/a	n/a	n/a	n/a	n/a	n/a	n/a	n/a	n/a	n/a	n/a	n/a	n/a	n/a	n/a	n/a	n/a	n/a	fixation
166246.03485140001	2750	n/a	1900	71	2750	607.9651486	stim	stop-signal	80	185940	0.0-7.36-1.36	beast_fmri_test	314	183614,/,184295,/,184975,/,185655,/,186335,/	t,t,t,t,t	<img class = center src='/static/experiments/beast_fmri_test/images/T.png'></img>	71,89	2750.0	test	<img class = center src='/static/experiments/beast_fmri_test/images/redT.png'></img>	go	2000.0	2.0	36.0	go	target	T	71,Green Button	89,Yellow Button	750.0	700.0	2000.0	2050.0	1.0	n/a	750.0	1.0	go_stim
168996.03485140001	607.96514860000002	n/a	1900	71	2750	607.9651486	stim	stop-signal	80	185940	0.0-7.36-1.36	beast_fmri_test	314	183614,/,184295,/,184975,/,185655,/,186335,/	t,t,t,t,t	<img class = center src='/static/experiments/beast_fmri_test/images/T.png'></img>	71,89	2750.0	test	<img class = center src='/static/experiments/beast_fmri_test/images/redT.png'></img>	go	2000.0	2.0	36.0	go	target	T	71,Green Button	89,Yellow Button	750.0	700.0	2000.0	2050.0	1.0	n/a	750.0	1.0	ITI
170719	500	n/a	-1	-1	500	0.0	fixation	poldrack-single-stim	81	187055	0.0-7.37-0.37	beast_fmri_test	314	187016,/	t	<div class = centerbox><div class = fixation>+</div></div>	none	500.0	test	n/a	n/a	n/a	n/a	n/a	n/a	n/a	n/a	n/a	n/a	n/a	n/a	n/a	n/a	n/a	n/a	n/a	n/a	fixation
169057.24070200001	700.0	n/a	-1	-1	2750	1663.759298	stim	stop-signal	82	189807	0.0-7.37-1.37	beast_fmri_test	314	187696,/,188376,/,189056,/,189737,/,190416,/,191096,/	t,t,t,t,t,t	<img class = center src='/static/experiments/beast_fmri_test/images/T.png'></img>	71,89	2750.0	test	<img class = center src='/static/experiments/beast_fmri_test/images/redT.png'></img>	stop	2050.0	2.0	37.0	stop	non-target	T	71,Green Button	89,Yellow Button	750.0	700.0	2000.0	2050.0	0.0	1.0	700.0	0.0	go_stim
171107.24070200001	2050.0	n/a	-1	-1	2750	1663.759298	stim	stop-signal	82	189807	0.0-7.37-1.37	beast_fmri_test	314	187696,/,188376,/,189056,/,189737,/,190416,/,191096,/	t,t,t,t,t,t	<img class = center src='/static/experiments/beast_fmri_test/images/T.png'></img>	71,89	2750.0	test	<img class = center src='/static/experiments/beast_fmri_test/images/redT.png'></img>	stop	2050.0	2.0	37.0	stop	non-target	T	71,Green Button	89,Yellow Button	750.0	700.0	2000.0	2050.0	0.0	1.0	700.0	0.0	stop_stim
171807.24070200001	1663.7592979999999	n/a	-1	-1	2750	1663.759298	stim	stop-signal	82	189807	0.0-7.37-1.37	beast_fmri_test	314	187696,/,188376,/,189056,/,189737,/,190416,/,191096,/	t,t,t,t,t,t	<img class = center src='/static/experiments/beast_fmri_test/images/T.png'></img>	71,89	2750.0	test	<img class = center src='/static/experiments/beast_fmri_test/images/redT.png'></img>	stop	2050.0	2.0	37.0	stop	non-target	T	71,Green Button	89,Yellow Button	750.0	700.0	2000.0	2050.0	0.0	1.0	700.0	0.0	ITI
175640	500	n/a	-1	-1	500	0.0	fixation	poldrack-single-stim	83	191976	0.0-7.38-0.38	beast_fmri_test	314	191776,/	t	<div class = centerbox><div class = fixation>+</div></div>	none	500.0	test	n/a	n/a	n/a	n/a	n/a	n/a	n/a	n/a	n/a	n/a	n/a	n/a	n/a	n/a	n/a	n/a	n/a	n/a	fixation
173150.96330599999	2750	n/a	1252	89	2750	2490.036694	stim	stop-signal	84	194727	0.0-7.38-1.38	beast_fmri_test	314	192456,/,193136,/,193815,/,194495,/,195175,/,195856,/,196535,/,197215,/	t,t,t,t,t,t,t,t	<img class = center src='/static/experiments/beast_fmri_test/images/V.png'></img>	71,89	2750.0	test	<img class = center src='/static/experiments/beast_fmri_test/images/redV.png'></img>	go	2000.0	2.0	38.0	go	non-target	V	71,Green Button	89,Yellow Button	750.0	750.0	2000.0	2000.0	1.0	n/a	750.0	1.0	go_stim
175900.96330599999	2490.0366940000004	n/a	1252	89	2750	2490.036694	stim	stop-signal	84	194727	0.0-7.38-1.38	beast_fmri_test	314	192456,/,193136,/,193815,/,194495,/,195175,/,195856,/,196535,/,197215,/	t,t,t,t,t,t,t,t	<img class = center src='/static/experiments/beast_fmri_test/images/V.png'></img>	71,89	2750.0	test	<img class = center src='/static/experiments/beast_fmri_test/images/redV.png'></img>	go	2000.0	2.0	38.0	go	non-target	V	71,Green Button	89,Yellow Button	750.0	750.0	2000.0	2000.0	1.0	n/a	750.0	1.0	ITI
181387	500	n/a	-1	-1	500	0.0	fixation	poldrack-single-stim	85	197723	0.0-7.39-0.39	beast_fmri_test	314	n/a	n/a	<div class = centerbox><div class = fixation>+</div></div>	none	500.0	test	n/a	n/a	n/a	n/a	n/a	n/a	n/a	n/a	n/a	n/a	n/a	n/a	n/a	n/a	n/a	n/a	n/a	n/a	fixation
180738.95602039999	2750	n/a	1455	89	2750	650.0439796	stim	stop-signal	86	200475	0.0-7.39-1.39	beast_fmri_test	314	197895,/,198575,/,199256,/,199936,/,200615,/	t,t,t,t,t	<img class = center src='/static/experiments/beast_fmri_test/images/P.png'></img>	71,89	2750.0	test	<img class = center src='/static/experiments/beast_fmri_test/images/redP.png'></img>	go	2000.0	2.0	39.0	go	non-target	P	71,Green Button	89,Yellow Button	750.0	750.0	2000.0	2000.0	1.0	n/a	750.0	1.0	go_stim
183488.95602039999	650.04397960000006	n/a	1455	89	2750	650.0439796	stim	stop-signal	86	200475	0.0-7.39-1.39	beast_fmri_test	314	197895,/,198575,/,199256,/,199936,/,200615,/	t,t,t,t,t	<img class = center src='/static/experiments/beast_fmri_test/images/P.png'></img>	71,89	2750.0	test	<img class = center src='/static/experiments/beast_fmri_test/images/redP.png'></img>	go	2000.0	2.0	39.0	go	non-target	P	71,Green Button	89,Yellow Button	750.0	750.0	2000.0	2000.0	1.0	n/a	750.0	1.0	ITI
185296	500	n/a	-1	-1	500	0.0	fixation	poldrack-single-stim	87	201632	0.0-7.40-0.40	beast_fmri_test	314	201296,/	t	<div class = centerbox><div class = fixation>+</div></div>	none	500.0	test	n/a	n/a	n/a	n/a	n/a	n/a	n/a	n/a	n/a	n/a	n/a	n/a	n/a	n/a	n/a	n/a	n/a	n/a	fixation
185235.20881876	2750	n/a	1634	71	2750	61.79118124	stim	stop-signal	88	204383	0.0-7.40-1.40	beast_fmri_test	314	201975,/,202655,/,203335,/,204015,/	t,t,t,t	<img class = center src='/static/experiments/beast_fmri_test/images/V.png'></img>	71,89	2750.0	test	<img class = center src='/static/experiments/beast_fmri_test/images/redV.png'></img>	go	2000.0	2.0	40.0	go	target	V	71,Green Button	89,Yellow Button	750.0	750.0	2000.0	2000.0	1.0	n/a	750.0	1.0	go_stim
187985.20881876	61.79118124	n/a	1634	71	2750	61.79118124	stim	stop-signal	88	204383	0.0-7.40-1.40	beast_fmri_test	314	201975,/,202655,/,203335,/,204015,/	t,t,t,t	<img class = center src='/static/experiments/beast_fmri_test/images/V.png'></img>	71,89	2750.0	test	<img class = center src='/static/experiments/beast_fmri_test/images/redV.png'></img>	go	2000.0	2.0	40.0	go	target	V	71,Green Button	89,Yellow Button	750.0	750.0	2000.0	2000.0	1.0	n/a	750.0	1.0	ITI
188615	500	n/a	-1	-1	500	0.0	fixation	poldrack-single-stim	89	204951	0.0-7.41-0.41	beast_fmri_test	314	204696,/	t	<div class = centerbox><div class = fixation>+</div></div>	none	500.0	test	n/a	n/a	n/a	n/a	n/a	n/a	n/a	n/a	n/a	n/a	n/a	n/a	n/a	n/a	n/a	n/a	n/a	n/a	fixation
188393.07363540001	2750	n/a	1449	89	2750	222.9263646	stim	stop-signal	90	207702	0.0-7.41-1.41	beast_fmri_test	314	205375,/,206055,/,206735,/,207415,/	t,t,t,t	<img class = center src='/static/experiments/beast_fmri_test/images/D.png'></img>	71,89	2750.0	test	<img class = center src='/static/experiments/beast_fmri_test/images/redD.png'></img>	go	2000.0	2.0	41.0	go	non-target	D	71,Green Button	89,Yellow Button	750.0	750.0	2000.0	2000.0	1.0	n/a	750.0	1.0	go_stim
191143.07363540001	222.92636459999997	n/a	1449	89	2750	222.9263646	stim	stop-signal	90	207702	0.0-7.41-1.41	beast_fmri_test	314	205375,/,206055,/,206735,/,207415,/	t,t,t,t	<img class = center src='/static/experiments/beast_fmri_test/images/D.png'></img>	71,89	2750.0	test	<img class = center src='/static/experiments/beast_fmri_test/images/redD.png'></img>	go	2000.0	2.0	41.0	go	non-target	D	71,Green Button	89,Yellow Button	750.0	750.0	2000.0	2000.0	1.0	n/a	750.0	1.0	ITI
192095	500	n/a	-1	-1	500	0.0	fixation	poldrack-single-stim	91	208431	0.0-7.42-0.42	beast_fmri_test	314	208095,/	t	<div class = centerbox><div class = fixation>+</div></div>	none	500.0	test	n/a	n/a	n/a	n/a	n/a	n/a	n/a	n/a	n/a	n/a	n/a	n/a	n/a	n/a	n/a	n/a	n/a	n/a	fixation
189978.224288	2750	n/a	1486	71	2750	2118.775712	stim	stop-signal	92	211183	0.0-7.42-1.42	beast_fmri_test	314	208775,/,209455,/,210137,/,210815,/,211495,/,212175,/,212855,/	t,t,t,t,t,t,t	<img class = center src='/static/experiments/beast_fmri_test/images/V.png'></img>	71,89	2750.0	test	<img class = center src='/static/experiments/beast_fmri_test/images/redV.png'></img>	go	2000.0	2.0	42.0	go	target	V	71,Green Button	89,Yellow Button	750.0	750.0	2000.0	2000.0	1.0	n/a	750.0	1.0	go_stim
192728.224288	2118.7757120000001	n/a	1486	71	2750	2118.775712	stim	stop-signal	92	211183	0.0-7.42-1.42	beast_fmri_test	314	208775,/,209455,/,210137,/,210815,/,211495,/,212175,/,212855,/	t,t,t,t,t,t,t	<img class = center src='/static/experiments/beast_fmri_test/images/V.png'></img>	71,89	2750.0	test	<img class = center src='/static/experiments/beast_fmri_test/images/redV.png'></img>	go	2000.0	2.0	42.0	go	target	V	71,Green Button	89,Yellow Button	750.0	750.0	2000.0	2000.0	1.0	n/a	750.0	1.0	ITI
197471	500	n/a	-1	-1	500	0.0	fixation	poldrack-single-stim	93	213807	0.0-7.43-0.43	beast_fmri_test	314	213535,/	t	<div class = centerbox><div class = fixation>+</div></div>	none	500.0	test	n/a	n/a	n/a	n/a	n/a	n/a	n/a	n/a	n/a	n/a	n/a	n/a	n/a	n/a	n/a	n/a	n/a	n/a	fixation
196825.1892928	2750	n/a	1496	71	2750	647.8107072	stim	stop-signal	94	216559	0.0-7.43-1.43	beast_fmri_test	314	214215,/,214895,/,215575,/,216255,/,216935,/	t,t,t,t,t	<img class = center src='/static/experiments/beast_fmri_test/images/D.png'></img>	71,89	2750.0	test	<img class = center src='/static/experiments/beast_fmri_test/images/redD.png'></img>	go	2000.0	2.0	43.0	go	target	D	71,Green Button	89,Yellow Button	750.0	750.0	2000.0	2000.0	1.0	n/a	750.0	1.0	go_stim
199575.1892928	647.81070720000002	n/a	1496	71	2750	647.8107072	stim	stop-signal	94	216559	0.0-7.43-1.43	beast_fmri_test	314	214215,/,214895,/,215575,/,216255,/,216935,/	t,t,t,t,t	<img class = center src='/static/experiments/beast_fmri_test/images/D.png'></img>	71,89	2750.0	test	<img class = center src='/static/experiments/beast_fmri_test/images/redD.png'></img>	go	2000.0	2.0	43.0	go	target	D	71,Green Button	89,Yellow Button	750.0	750.0	2000.0	2000.0	1.0	n/a	750.0	1.0	ITI
201378	500	n/a	-1	-1	500	0.0	fixation	poldrack-single-stim	95	217714	0.0-7.44-0.44	beast_fmri_test	314	217615,/	t	<div class = centerbox><div class = fixation>+</div></div>	none	500.0	test	n/a	n/a	n/a	n/a	n/a	n/a	n/a	n/a	n/a	n/a	n/a	n/a	n/a	n/a	n/a	n/a	n/a	n/a	fixation
200966.83994000001	2750	n/a	1655	89	2750	413.16006	stim	stop-signal	96	220466	0.0-7.44-1.44	beast_fmri_test	314	218295,/,218975,/,219655,/,220336,/	t,t,t,t	<img class = center src='/static/experiments/beast_fmri_test/images/P.png'></img>	71,89	2750.0	test	<img class = center src='/static/experiments/beast_fmri_test/images/redP.png'></img>	go	2000.0	2.0	44.0	go	non-target	P	71,Green Button	89,Yellow Button	750.0	750.0	2000.0	2000.0	1.0	n/a	750.0	1.0	go_stim
203716.83994000001	413.16005999999999	n/a	1655	89	2750	413.16006	stim	stop-signal	96	220466	0.0-7.44-1.44	beast_fmri_test	314	218295,/,218975,/,219655,/,220336,/	t,t,t,t	<img class = center src='/static/experiments/beast_fmri_test/images/P.png'></img>	71,89	2750.0	test	<img class = center src='/static/experiments/beast_fmri_test/images/redP.png'></img>	go	2000.0	2.0	44.0	go	non-target	P	71,Green Button	89,Yellow Button	750.0	750.0	2000.0	2000.0	1.0	n/a	750.0	1.0	ITI
205051	500	n/a	-1	-1	500	0.0	fixation	poldrack-single-stim	97	221387	0.0-7.45-0.45	beast_fmri_test	314	221015,/	t	<div class = centerbox><div class = fixation>+</div></div>	none	500.0	test	n/a	n/a	n/a	n/a	n/a	n/a	n/a	n/a	n/a	n/a	n/a	n/a	n/a	n/a	n/a	n/a	n/a	n/a	fixation
204959.02431184999	750.0	n/a	-1	-1	2750	92.97568815	stim	stop-signal	98	224138	0.0-7.45-1.45	beast_fmri_test	314	221696,/,222376,/,223056,/,223736,/	t,t,t,t	<img class = center src='/static/experiments/beast_fmri_test/images/V.png'></img>	71,89	2750.0	test	<img class = center src='/static/experiments/beast_fmri_test/images/redV.png'></img>	stop	2000.0	2.0	45.0	stop	non-target	V	71,Green Button	89,Yellow Button	750.0	750.0	2000.0	2000.0	0.0	1.0	750.0	0.0	go_stim
206959.02431184999	2000.0	n/a	-1	-1	2750	92.97568815	stim	stop-signal	98	224138	0.0-7.45-1.45	beast_fmri_test	314	221696,/,222376,/,223056,/,223736,/	t,t,t,t	<img class = center src='/static/experiments/beast_fmri_test/images/V.png'></img>	71,89	2750.0	test	<img class = center src='/static/experiments/beast_fmri_test/images/redV.png'></img>	stop	2000.0	2.0	45.0	stop	non-target	V	71,Green Button	89,Yellow Button	750.0	750.0	2000.0	2000.0	0.0	1.0	750.0	0.0	stop_stim
207709.02431184999	92.975688149999996	n/a	-1	-1	2750	92.97568815	stim	stop-signal	98	224138	0.0-7.45-1.45	beast_fmri_test	314	221696,/,222376,/,223056,/,223736,/	t,t,t,t	<img class = center src='/static/experiments/beast_fmri_test/images/V.png'></img>	71,89	2750.0	test	<img class = center src='/static/experiments/beast_fmri_test/images/redV.png'></img>	stop	2000.0	2.0	45.0	stop	non-target	V	71,Green Button	89,Yellow Button	750.0	750.0	2000.0	2000.0	0.0	1.0	750.0	0.0	ITI
208401	500	n/a	-1	-1	500	0.0	fixation	poldrack-single-stim	99	224737	0.0-7.46-0.46	beast_fmri_test	314	224415,/	t	<div class = centerbox><div class = fixation>+</div></div>	none	500.0	test	n/a	n/a	n/a	n/a	n/a	n/a	n/a	n/a	n/a	n/a	n/a	n/a	n/a	n/a	n/a	n/a	n/a	n/a	fixation
208258.15165700001	2750	n/a	1947	89	2750	144.848343	stim	stop-signal	100	227489	0.0-7.46-1.46	beast_fmri_test	314	225096,/,225776,/,226456,/,227135,/	t,t,t,t	<img class = center src='/static/experiments/beast_fmri_test/images/T.png'></img>	71,89	2750.0	test	<img class = center src='/static/experiments/beast_fmri_test/images/redT.png'></img>	go	1950.0	2.0	46.0	go	non-target	T	71,Green Button	89,Yellow Button	750.0	800.0	2000.0	1950.0	1.0	n/a	800.0	1.0	go_stim
211008.15165700001	144.848343	n/a	1947	89	2750	144.848343	stim	stop-signal	100	227489	0.0-7.46-1.46	beast_fmri_test	314	225096,/,225776,/,226456,/,227135,/	t,t,t,t	<img class = center src='/static/experiments/beast_fmri_test/images/T.png'></img>	71,89	2750.0	test	<img class = center src='/static/experiments/beast_fmri_test/images/redT.png'></img>	go	1950.0	2.0	46.0	go	non-target	T	71,Green Button	89,Yellow Button	750.0	800.0	2000.0	1950.0	1.0	n/a	800.0	1.0	ITI
226306	15000	n/a	-1	-1	15000	0.0	practice-no-stop-feedback	poldrack-single-stim	101	242642	0.0-8.0	beast_fmri_test	314	227816,/,228495,/,229176,/,229855,/,230537,/,231215,/,231896,/,232575,/,233255,/,233935,/,234615,/,235295,/,235976,/,236655,/,237336,/,238015,/,238695,/,239375,/,240055,/,240736,/,241415,/,242095,/	t,t,t,t,t,t,t,t,t,t,t,t,t,t,t,t,t,t,t,t,t,t	"<div class = ""centerbox""><p class = ""center-block-text"">Your delay is 3 trials.</p><p class = center-block-text>Please wait for the scanner to start the block</p></div>"	77	15000.0	n/a	n/a	n/a	n/a	n/a	n/a	n/a	n/a	n/a	n/a	n/a	n/a	n/a	n/a	n/a	n/a	n/a	n/a	n/a	practice-no-stop-feedback
226808	500	n/a	-1	-1	500	0.0	fixation	poldrack-single-stim	102	243144	0.0-9.0-0.0	beast_fmri_test	314	242775,/	t	<div class = centerbox><div class = fixation>+</div></div>	none	500.0	test	n/a	n/a	n/a	n/a	n/a	n/a	n/a	n/a	n/a	n/a	n/a	n/a	n/a	n/a	n/a	n/a	n/a	n/a	fixation
224351.484643	2750	n/a	1729	89	2750	2457.515357	stim	stop-signal	103	245895	0.0-9.0-1.0	beast_fmri_test	314	243455,/,244135,/,244815,/,245495,/,246175,/,246855,/,247535,/,248215,/	t,t,t,t,t,t,t,t	<img class = center src='/static/experiments/beast_fmri_test/images/P.png'></img>	71,89	2750.0	test	<img class = center src='/static/experiments/beast_fmri_test/images/redP.png'></img>	go	-1.0	3.0	0.0	go	temp-non-target	P	71,Green Button	89,Yellow Button	750.0	800.0	2000.0	1950.0	0.0	n/a	n/a	n/a	go_stim
227101.484643	2457.5153570000002	n/a	1729	89	2750	2457.515357	stim	stop-signal	103	245895	0.0-9.0-1.0	beast_fmri_test	314	243455,/,244135,/,244815,/,245495,/,246175,/,246855,/,247535,/,248215,/	t,t,t,t,t,t,t,t	<img class = center src='/static/experiments/beast_fmri_test/images/P.png'></img>	71,89	2750.0	test	<img class = center src='/static/experiments/beast_fmri_test/images/redP.png'></img>	go	-1.0	3.0	0.0	go	temp-non-target	P	71,Green Button	89,Yellow Button	750.0	800.0	2000.0	1950.0	0.0	n/a	n/a	n/a	ITI
232524	500	n/a	-1	-1	500	0.0	fixation	poldrack-single-stim	104	248860	0.0-9.1-0.1	beast_fmri_test	314	n/a	n/a	<div class = centerbox><div class = fixation>+</div></div>	none	500.0	test	n/a	n/a	n/a	n/a	n/a	n/a	n/a	n/a	n/a	n/a	n/a	n/a	n/a	n/a	n/a	n/a	n/a	n/a	fixation
231169.20129699999	2750	n/a	1798	89	2750	1355.798703	stim	stop-signal	105	251611	0.0-9.1-1.1	beast_fmri_test	314	248895,/,249575,/,250255,/,250935,/,251614,/,252295,/	t,t,t,t,t,t	<img class = center src='/static/experiments/beast_fmri_test/images/B.png'></img>	71,89	2750.0	test	<img class = center src='/static/experiments/beast_fmri_test/images/redB.png'></img>	go	-1.0	3.0	1.0	go	temp-non-target	B	71,Green Button	89,Yellow Button	750.0	800.0	2000.0	1950.0	0.0	n/a	n/a	n/a	go_stim
233919.20129699999	1355.7987029999999	n/a	1798	89	2750	1355.798703	stim	stop-signal	105	251611	0.0-9.1-1.1	beast_fmri_test	314	248895,/,249575,/,250255,/,250935,/,251614,/,252295,/	t,t,t,t,t,t	<img class = center src='/static/experiments/beast_fmri_test/images/B.png'></img>	71,89	2750.0	test	<img class = center src='/static/experiments/beast_fmri_test/images/redB.png'></img>	go	-1.0	3.0	1.0	go	temp-non-target	B	71,Green Button	89,Yellow Button	750.0	800.0	2000.0	1950.0	0.0	n/a	n/a	n/a	ITI
237139	500	n/a	-1	-1	500	0.0	fixation	poldrack-single-stim	106	253475	0.0-9.2-0.2	beast_fmri_test	314	252975,/	t	<div class = centerbox><div class = fixation>+</div></div>	none	500.0	test	n/a	n/a	n/a	n/a	n/a	n/a	n/a	n/a	n/a	n/a	n/a	n/a	n/a	n/a	n/a	n/a	n/a	n/a	fixation
237095.21143661	2750	n/a	2139	89	2750	44.78856339	stim	stop-signal	107	256226	0.0-9.2-1.2	beast_fmri_test	314	253656,/,254335,/,255016,/,255696,/	t,t,t,t	<img class = center src='/static/experiments/beast_fmri_test/images/T.png'></img>	71,89	2750.0	test	<img class = center src='/static/experiments/beast_fmri_test/images/redT.png'></img>	go	-1.0	3.0	2.0	go	temp-non-target	T	71,Green Button	89,Yellow Button	750.0	800.0	2000.0	1950.0	0.0	n/a	n/a	n/a	go_stim
239845.21143661	44.78856339	n/a	2139	89	2750	44.78856339	stim	stop-signal	107	256226	0.0-9.2-1.2	beast_fmri_test	314	253656,/,254335,/,255016,/,255696,/	t,t,t,t	<img class = center src='/static/experiments/beast_fmri_test/images/T.png'></img>	71,89	2750.0	test	<img class = center src='/static/experiments/beast_fmri_test/images/redT.png'></img>	go	-1.0	3.0	2.0	go	temp-non-target	T	71,Green Button	89,Yellow Button	750.0	800.0	2000.0	1950.0	0.0	n/a	n/a	n/a	ITI
240441	500	n/a	-1	-1	500	0.0	fixation	poldrack-single-stim	108	256777	0.0-9.3-0.3	beast_fmri_test	314	256376,/	t	<div class = centerbox><div class = fixation>+</div></div>	none	500.0	test	n/a	n/a	n/a	n/a	n/a	n/a	n/a	n/a	n/a	n/a	n/a	n/a	n/a	n/a	n/a	n/a	n/a	n/a	fixation
239677.7191709	2750	n/a	2276	89	2750	764.2808291	stim	stop-signal	109	259528	0.0-9.3-1.3	beast_fmri_test	314	257056,/,257736,/,258416,/,259096,/,259775,/	t,t,t,t,t	<img class = center src='/static/experiments/beast_fmri_test/images/V.png'></img>	71,89	2750.0	test	<img class = center src='/static/experiments/beast_fmri_test/images/redV.png'></img>	go	1950.0	3.0	3.0	go	non-target	V	71,Green Button	89,Yellow Button	750.0	800.0	2000.0	1950.0	1.0	n/a	800.0	1.0	go_stim
242427.7191709	764.28082910000001	n/a	2276	89	2750	764.2808291	stim	stop-signal	109	259528	0.0-9.3-1.3	beast_fmri_test	314	257056,/,257736,/,258416,/,259096,/,259775,/	t,t,t,t,t	<img class = center src='/static/experiments/beast_fmri_test/images/V.png'></img>	71,89	2750.0	test	<img class = center src='/static/experiments/beast_fmri_test/images/redV.png'></img>	go	1950.0	3.0	3.0	go	non-target	V	71,Green Button	89,Yellow Button	750.0	800.0	2000.0	1950.0	1.0	n/a	800.0	1.0	ITI
244464	500	n/a	-1	-1	500	0.0	fixation	poldrack-single-stim	110	260800	0.0-9.4-0.4	beast_fmri_test	314	260456,/	t	<div class = centerbox><div class = fixation>+</div></div>	none	500.0	test	n/a	n/a	n/a	n/a	n/a	n/a	n/a	n/a	n/a	n/a	n/a	n/a	n/a	n/a	n/a	n/a	n/a	n/a	fixation
244097.07062870002	2750	n/a	2137	89	2750	368.9293713	stim	stop-signal	111	263552	0.0-9.4-1.4	beast_fmri_test	314	261136,/,261815,/,262495,/,263175,/,263855,/	t,t,t,t,t	<img class = center src='/static/experiments/beast_fmri_test/images/D.png'></img>	71,89	2750.0	test	<img class = center src='/static/experiments/beast_fmri_test/images/redD.png'></img>	go	1950.0	3.0	4.0	go	non-target	D	71,Green Button	89,Yellow Button	750.0	800.0	2000.0	1950.0	1.0	n/a	800.0	1.0	go_stim
246847.07062870002	368.92937130000001	n/a	2137	89	2750	368.9293713	stim	stop-signal	111	263552	0.0-9.4-1.4	beast_fmri_test	314	261136,/,261815,/,262495,/,263175,/,263855,/	t,t,t,t,t	<img class = center src='/static/experiments/beast_fmri_test/images/D.png'></img>	71,89	2750.0	test	<img class = center src='/static/experiments/beast_fmri_test/images/redD.png'></img>	go	1950.0	3.0	4.0	go	non-target	D	71,Green Button	89,Yellow Button	750.0	800.0	2000.0	1950.0	1.0	n/a	800.0	1.0	ITI
248093	500	n/a	-1	-1	500	0.0	fixation	poldrack-single-stim	112	264429	0.0-9.5-0.5	beast_fmri_test	314	n/a	n/a	<div class = centerbox><div class = fixation>+</div></div>	none	500.0	test	n/a	n/a	n/a	n/a	n/a	n/a	n/a	n/a	n/a	n/a	n/a	n/a	n/a	n/a	n/a	n/a	n/a	n/a	fixation
247243.12174660002	2750	n/a	-1	-1	2750	850.8782534	stim	stop-signal	113	267180	0.0-9.5-1.5	beast_fmri_test	314	264535,/,265215,/,265895,/,266575,/,267256,/,267936,/	t,t,t,t,t,t	<img class = center src='/static/experiments/beast_fmri_test/images/T.png'></img>	71,89	2750.0	test	<img class = center src='/static/experiments/beast_fmri_test/images/redT.png'></img>	go	2000.0	3.0	5.0	go	target	T	71,Green Button	89,Yellow Button	750.0	800.0	2000.0	1950.0	0.0	n/a	750.0	0.0	go_stim
249993.12174660002	850.87825339999995	n/a	-1	-1	2750	850.8782534	stim	stop-signal	113	267180	0.0-9.5-1.5	beast_fmri_test	314	264535,/,265215,/,265895,/,266575,/,267256,/,267936,/	t,t,t,t,t,t	<img class = center src='/static/experiments/beast_fmri_test/images/T.png'></img>	71,89	2750.0	test	<img class = center src='/static/experiments/beast_fmri_test/images/redT.png'></img>	go	2000.0	3.0	5.0	go	target	T	71,Green Button	89,Yellow Button	750.0	800.0	2000.0	1950.0	0.0	n/a	750.0	0.0	ITI
252203	500	n/a	-1	-1	500	0.0	fixation	poldrack-single-stim	114	268539	0.0-9.6-0.6	beast_fmri_test	314	n/a	n/a	<div class = centerbox><div class = fixation>+</div></div>	none	500.0	test	n/a	n/a	n/a	n/a	n/a	n/a	n/a	n/a	n/a	n/a	n/a	n/a	n/a	n/a	n/a	n/a	n/a	n/a	fixation
249276.00769599999	2750	n/a	2307	89	2750	2927.992304	stim	stop-signal	115	271290	0.0-9.6-1.6	beast_fmri_test	314	268615,/,269295,/,269975,/,270655,/,271336,/,272015,/,272695,/,273375,/,274055,/	t,t,t,t,t,t,t,t,t	<img class = center src='/static/experiments/beast_fmri_test/images/B.png'></img>	71,89	2750.0	test	<img class = center src='/static/experiments/beast_fmri_test/images/redB.png'></img>	go	1950.0	3.0	6.0	go	non-target	B	71,Green Button	89,Yellow Button	750.0	800.0	2000.0	1950.0	1.0	n/a	800.0	1.0	go_stim
252026.00769599999	2927.9923039999999	n/a	2307	89	2750	2927.992304	stim	stop-signal	115	271290	0.0-9.6-1.6	beast_fmri_test	314	268615,/,269295,/,269975,/,270655,/,271336,/,272015,/,272695,/,273375,/,274055,/	t,t,t,t,t,t,t,t,t	<img class = center src='/static/experiments/beast_fmri_test/images/B.png'></img>	71,89	2750.0	test	<img class = center src='/static/experiments/beast_fmri_test/images/redB.png'></img>	go	1950.0	3.0	6.0	go	non-target	B	71,Green Button	89,Yellow Button	750.0	800.0	2000.0	1950.0	1.0	n/a	800.0	1.0	ITI
258389	500	n/a	-1	-1	500	0.0	fixation	poldrack-single-stim	116	274725	0.0-9.7-0.7	beast_fmri_test	314	n/a	n/a	<div class = centerbox><div class = fixation>+</div></div>	none	500.0	test	n/a	n/a	n/a	n/a	n/a	n/a	n/a	n/a	n/a	n/a	n/a	n/a	n/a	n/a	n/a	n/a	n/a	n/a	fixation
256466.79785600002	2750	n/a	1119	71	2750	1923.202144	stim	stop-signal	117	277476	0.0-9.7-1.7	beast_fmri_test	314	274735,/,275416,/,276095,/,276775,/,277455,/,278135,/,278815,/	t,t,t,t,t,t,t	<img class = center src='/static/experiments/beast_fmri_test/images/D.png'></img>	71,89	2750.0	test	<img class = center src='/static/experiments/beast_fmri_test/images/redD.png'></img>	go	2000.0	3.0	7.0	go	target	D	71,Green Button	89,Yellow Button	750.0	800.0	2000.0	1950.0	1.0	n/a	750.0	1.0	go_stim
259216.79785600002	1923.2021440000001	n/a	1119	71	2750	1923.202144	stim	stop-signal	117	277476	0.0-9.7-1.7	beast_fmri_test	314	274735,/,275416,/,276095,/,276775,/,277455,/,278135,/,278815,/	t,t,t,t,t,t,t	<img class = center src='/static/experiments/beast_fmri_test/images/D.png'></img>	71,89	2750.0	test	<img class = center src='/static/experiments/beast_fmri_test/images/redD.png'></img>	go	2000.0	3.0	7.0	go	target	D	71,Green Button	89,Yellow Button	750.0	800.0	2000.0	1950.0	1.0	n/a	750.0	1.0	ITI
263570	500	n/a	-1	-1	500	0.0	fixation	poldrack-single-stim	118	279906	0.0-9.8-0.8	beast_fmri_test	314	279495,/	t	<div class = centerbox><div class = fixation>+</div></div>	none	500.0	test	n/a	n/a	n/a	n/a	n/a	n/a	n/a	n/a	n/a	n/a	n/a	n/a	n/a	n/a	n/a	n/a	n/a	n/a	fixation
263159.44905970001	750.0	n/a	-1	-1	2750	412.5509403	stim	stop-signal	119	282658	0.0-9.8-1.8	beast_fmri_test	314	280175,/,280855,/,281536,/,282215,/,282895,/	t,t,t,t,t	<img class = center src='/static/experiments/beast_fmri_test/images/T.png'></img>	71,89	2750.0	test	<img class = center src='/static/experiments/beast_fmri_test/images/redT.png'></img>	stop	2000.0	3.0	8.0	stop	target	T	71,Green Button	89,Yellow Button	750.0	800.0	2000.0	1950.0	0.0	1.0	750.0	0.0	go_stim
265159.44905970001	2000.0	n/a	-1	-1	2750	412.5509403	stim	stop-signal	119	282658	0.0-9.8-1.8	beast_fmri_test	314	280175,/,280855,/,281536,/,282215,/,282895,/	t,t,t,t,t	<img class = center src='/static/experiments/beast_fmri_test/images/T.png'></img>	71,89	2750.0	test	<img class = center src='/static/experiments/beast_fmri_test/images/redT.png'></img>	stop	2000.0	3.0	8.0	stop	target	T	71,Green Button	89,Yellow Button	750.0	800.0	2000.0	1950.0	0.0	1.0	750.0	0.0	stop_stim
265909.44905970001	412.55094029999998	n/a	-1	-1	2750	412.5509403	stim	stop-signal	119	282658	0.0-9.8-1.8	beast_fmri_test	314	280175,/,280855,/,281536,/,282215,/,282895,/	t,t,t,t,t	<img class = center src='/static/experiments/beast_fmri_test/images/T.png'></img>	71,89	2750.0	test	<img class = center src='/static/experiments/beast_fmri_test/images/redT.png'></img>	stop	2000.0	3.0	8.0	stop	target	T	71,Green Button	89,Yellow Button	750.0	800.0	2000.0	1950.0	0.0	1.0	750.0	0.0	ITI
267243	500	n/a	-1	-1	500	0.0	fixation	poldrack-single-stim	120	283579	0.0-9.9-0.9	beast_fmri_test	314	283575,/	t	<div class = centerbox><div class = fixation>+</div></div>	none	500.0	test	n/a	n/a	n/a	n/a	n/a	n/a	n/a	n/a	n/a	n/a	n/a	n/a	n/a	n/a	n/a	n/a	n/a	n/a	fixation
264751.96970999998	2750	n/a	1558	71	2750	2492.03029	stim	stop-signal	121	286330	0.0-9.9-1.9	beast_fmri_test	314	284255,/,284935,/,285615,/,286295,/,286976,/,287656,/,288336,/	t,t,t,t,t,t,t	<img class = center src='/static/experiments/beast_fmri_test/images/B.png'></img>	71,89	2750.0	test	<img class = center src='/static/experiments/beast_fmri_test/images/redB.png'></img>	go	1950.0	3.0	9.0	go	target	B	71,Green Button	89,Yellow Button	800.0	800.0	1950.0	1950.0	1.0	n/a	800.0	1.0	go_stim
267501.96970999998	2492.0302899999997	n/a	1558	71	2750	2492.03029	stim	stop-signal	121	286330	0.0-9.9-1.9	beast_fmri_test	314	284255,/,284935,/,285615,/,286295,/,286976,/,287656,/,288336,/	t,t,t,t,t,t,t	<img class = center src='/static/experiments/beast_fmri_test/images/B.png'></img>	71,89	2750.0	test	<img class = center src='/static/experiments/beast_fmri_test/images/redB.png'></img>	go	1950.0	3.0	9.0	go	target	B	71,Green Button	89,Yellow Button	800.0	800.0	1950.0	1950.0	1.0	n/a	800.0	1.0	ITI
272995	500	n/a	-1	-1	500	0.0	fixation	poldrack-single-stim	122	289331	0.0-9.10-0.10	beast_fmri_test	314	289016,/	t	<div class = centerbox><div class = fixation>+</div></div>	none	500.0	test	n/a	n/a	n/a	n/a	n/a	n/a	n/a	n/a	n/a	n/a	n/a	n/a	n/a	n/a	n/a	n/a	n/a	n/a	fixation
272733.10222110001	2750	n/a	1319	71	2750	262.8977789	stim	stop-signal	123	292082	0.0-9.10-1.10	beast_fmri_test	314	289696,/,290376,/,291056,/,291737,/	t,t,t,t	<img class = center src='/static/experiments/beast_fmri_test/images/D.png'></img>	71,89	2750.0	test	<img class = center src='/static/experiments/beast_fmri_test/images/redD.png'></img>	go	1950.0	3.0	10.0	go	target	D	71,Green Button	89,Yellow Button	800.0	800.0	1950.0	1950.0	1.0	n/a	800.0	1.0	go_stim
275483.10222110001	262.89777889999999	n/a	1319	71	2750	262.8977789	stim	stop-signal	123	292082	0.0-9.10-1.10	beast_fmri_test	314	289696,/,290376,/,291056,/,291737,/	t,t,t,t	<img class = center src='/static/experiments/beast_fmri_test/images/D.png'></img>	71,89	2750.0	test	<img class = center src='/static/experiments/beast_fmri_test/images/redD.png'></img>	go	1950.0	3.0	10.0	go	target	D	71,Green Button	89,Yellow Button	800.0	800.0	1950.0	1950.0	1.0	n/a	800.0	1.0	ITI
276517	500	n/a	-1	-1	500	0.0	fixation	poldrack-single-stim	124	292853	0.0-9.11-0.11	beast_fmri_test	314	292416,/	t	<div class = centerbox><div class = fixation>+</div></div>	none	500.0	test	n/a	n/a	n/a	n/a	n/a	n/a	n/a	n/a	n/a	n/a	n/a	n/a	n/a	n/a	n/a	n/a	n/a	n/a	fixation
276212.28950810002	800.0	n/a	-1	-1	2750	306.7104919	stim	stop-signal	125	295605	0.0-9.11-1.11	beast_fmri_test	314	293096,/,293776,/,294456,/,295135,/,295816,/	t,t,t,t,t	<img class = center src='/static/experiments/beast_fmri_test/images/V.png'></img>	71,89	2750.0	test	<img class = center src='/static/experiments/beast_fmri_test/images/redV.png'></img>	stop	1950.0	3.0	11.0	stop	non-target	V	71,Green Button	89,Yellow Button	800.0	800.0	1950.0	1950.0	0.0	1.0	800.0	0.0	go_stim
278162.28950810002	1950.0	n/a	-1	-1	2750	306.7104919	stim	stop-signal	125	295605	0.0-9.11-1.11	beast_fmri_test	314	293096,/,293776,/,294456,/,295135,/,295816,/	t,t,t,t,t	<img class = center src='/static/experiments/beast_fmri_test/images/V.png'></img>	71,89	2750.0	test	<img class = center src='/static/experiments/beast_fmri_test/images/redV.png'></img>	stop	1950.0	3.0	11.0	stop	non-target	V	71,Green Button	89,Yellow Button	800.0	800.0	1950.0	1950.0	0.0	1.0	800.0	0.0	stop_stim
278962.28950810002	306.71049189999997	n/a	-1	-1	2750	306.7104919	stim	stop-signal	125	295605	0.0-9.11-1.11	beast_fmri_test	314	293096,/,293776,/,294456,/,295135,/,295816,/	t,t,t,t,t	<img class = center src='/static/experiments/beast_fmri_test/images/V.png'></img>	71,89	2750.0	test	<img class = center src='/static/experiments/beast_fmri_test/images/redV.png'></img>	stop	1950.0	3.0	11.0	stop	non-target	V	71,Green Button	89,Yellow Button	800.0	800.0	1950.0	1950.0	0.0	1.0	800.0	0.0	ITI
280085	500	n/a	-1	-1	500	0.0	fixation	poldrack-single-stim	126	296421	0.0-9.12-0.12	beast_fmri_test	314	n/a	n/a	<div class = centerbox><div class = fixation>+</div></div>	none	500.0	test	n/a	n/a	n/a	n/a	n/a	n/a	n/a	n/a	n/a	n/a	n/a	n/a	n/a	n/a	n/a	n/a	n/a	n/a	fixation
278274.96197599999	2750	n/a	-1	-1	2750	1812.038024	stim	stop-signal	127	299173	0.0-9.12-1.12	beast_fmri_test	314	296496,/,297176,/,297856,/,298535,/,299215,/,299896,/,300575,/	t,t,t,t,t,t,t	<img class = center src='/static/experiments/beast_fmri_test/images/T.png'></img>	71,89	2750.0	test	<img class = center src='/static/experiments/beast_fmri_test/images/redT.png'></img>	go	1900.0	3.0	12.0	go	non-target	T	71,Green Button	89,Yellow Button	800.0	850.0	1950.0	1900.0	0.0	n/a	850.0	0.0	go_stim
281024.96197599999	1812.0380239999997	n/a	-1	-1	2750	1812.038024	stim	stop-signal	127	299173	0.0-9.12-1.12	beast_fmri_test	314	296496,/,297176,/,297856,/,298535,/,299215,/,299896,/,300575,/	t,t,t,t,t,t,t	<img class = center src='/static/experiments/beast_fmri_test/images/T.png'></img>	71,89	2750.0	test	<img class = center src='/static/experiments/beast_fmri_test/images/redT.png'></img>	go	1900.0	3.0	12.0	go	non-target	T	71,Green Button	89,Yellow Button	800.0	850.0	1950.0	1900.0	0.0	n/a	850.0	0.0	ITI
285159	500	n/a	-1	-1	500	0.0	fixation	poldrack-single-stim	128	301495	0.0-9.13-0.13	beast_fmri_test	314	301255,/	t	<div class = centerbox><div class = fixation>+</div></div>	none	500.0	test	n/a	n/a	n/a	n/a	n/a	n/a	n/a	n/a	n/a	n/a	n/a	n/a	n/a	n/a	n/a	n/a	n/a	n/a	fixation
285030.90730570001	2750	n/a	2050	89	2750	130.0926943	stim	stop-signal	129	304247	0.0-9.13-1.13	beast_fmri_test	314	301937,/,302616,/,303296,/,303975,/	t,t,t,t	<img class = center src='/static/experiments/beast_fmri_test/images/T.png'></img>	71,89	2750.0	test	<img class = center src='/static/experiments/beast_fmri_test/images/redT.png'></img>	go	1900.0	3.0	13.0	go	non-target	T	71,Green Button	89,Yellow Button	800.0	850.0	1950.0	1900.0	1.0	n/a	850.0	1.0	go_stim
287780.90730570001	130.09269430000001	n/a	2050	89	2750	130.0926943	stim	stop-signal	129	304247	0.0-9.13-1.13	beast_fmri_test	314	301937,/,302616,/,303296,/,303975,/	t,t,t,t	<img class = center src='/static/experiments/beast_fmri_test/images/T.png'></img>	71,89	2750.0	test	<img class = center src='/static/experiments/beast_fmri_test/images/redT.png'></img>	go	1900.0	3.0	13.0	go	non-target	T	71,Green Button	89,Yellow Button	800.0	850.0	1950.0	1900.0	1.0	n/a	850.0	1.0	ITI
288549	500	n/a	-1	-1	500	0.0	fixation	poldrack-single-stim	130	304885	0.0-9.14-0.14	beast_fmri_test	314	304655,/	t	<div class = centerbox><div class = fixation>+</div></div>	none	500.0	test	n/a	n/a	n/a	n/a	n/a	n/a	n/a	n/a	n/a	n/a	n/a	n/a	n/a	n/a	n/a	n/a	n/a	n/a	fixation
287199.89373399998	2750	n/a	2375	71	2750	1352.106266	stim	stop-signal	131	307638	0.0-9.14-1.14	beast_fmri_test	314	305335,/,306015,/,306695,/,307375,/,308055,/,308735,/	t,t,t,t,t,t	<img class = center src='/static/experiments/beast_fmri_test/images/P.png'></img>	71,89	2750.0	test	<img class = center src='/static/experiments/beast_fmri_test/images/redP.png'></img>	go	1900.0	3.0	14.0	go	non-target	P	71,Green Button	89,Yellow Button	800.0	850.0	1950.0	1900.0	0.0	n/a	850.0	0.0	go_stim
289949.89373399998	1352.106266	n/a	2375	71	2750	1352.106266	stim	stop-signal	131	307638	0.0-9.14-1.14	beast_fmri_test	314	305335,/,306015,/,306695,/,307375,/,308055,/,308735,/	t,t,t,t,t,t	<img class = center src='/static/experiments/beast_fmri_test/images/P.png'></img>	71,89	2750.0	test	<img class = center src='/static/experiments/beast_fmri_test/images/redP.png'></img>	go	1900.0	3.0	14.0	go	non-target	P	71,Green Button	89,Yellow Button	800.0	850.0	1950.0	1900.0	0.0	n/a	850.0	0.0	ITI
293163	500	n/a	-1	-1	500	0.0	fixation	poldrack-single-stim	132	309499	0.0-9.15-0.15	beast_fmri_test	314	309415,/	t	<div class = centerbox><div class = fixation>+</div></div>	none	500.0	test	n/a	n/a	n/a	n/a	n/a	n/a	n/a	n/a	n/a	n/a	n/a	n/a	n/a	n/a	n/a	n/a	n/a	n/a	fixation
293143.34392799	2750	n/a	1500	89	2750	22.65607201	stim	stop-signal	133	312252	0.0-9.15-1.15	beast_fmri_test	314	310095,/,310775,/,311455,/,312136,/	t,t,t,t	<img class = center src='/static/experiments/beast_fmri_test/images/P.png'></img>	71,89	2750.0	test	<img class = center src='/static/experiments/beast_fmri_test/images/redP.png'></img>	go	1900.0	3.0	15.0	go	non-target	P	71,Green Button	89,Yellow Button	800.0	850.0	1950.0	1900.0	1.0	n/a	850.0	1.0	go_stim
295893.34392799	22.656072009999999	n/a	1500	89	2750	22.65607201	stim	stop-signal	133	312252	0.0-9.15-1.15	beast_fmri_test	314	310095,/,310775,/,311455,/,312136,/	t,t,t,t	<img class = center src='/static/experiments/beast_fmri_test/images/P.png'></img>	71,89	2750.0	test	<img class = center src='/static/experiments/beast_fmri_test/images/redP.png'></img>	go	1900.0	3.0	15.0	go	non-target	P	71,Green Button	89,Yellow Button	800.0	850.0	1950.0	1900.0	1.0	n/a	850.0	1.0	ITI
296447	500	n/a	-1	-1	500	0.0	fixation	poldrack-single-stim	134	312783	0.0-9.16-0.16	beast_fmri_test	314	n/a	n/a	<div class = centerbox><div class = fixation>+</div></div>	none	500.0	test	n/a	n/a	n/a	n/a	n/a	n/a	n/a	n/a	n/a	n/a	n/a	n/a	n/a	n/a	n/a	n/a	n/a	n/a	fixation
292931.17917999998	850.0	n/a	-1	-1	2750	3516.82082	stim	stop-signal	135	315534	0.0-9.16-1.16	beast_fmri_test	314	312815,/,313495,/,314175,/,314855,/,315535,/,316215,/,316895,/,317575,/,318255,/,318935,/	t,t,t,t,t,t,t,t,t,t	<img class = center src='/static/experiments/beast_fmri_test/images/B.png'></img>	71,89	2750.0	test	<img class = center src='/static/experiments/beast_fmri_test/images/redB.png'></img>	stop	1900.0	3.0	16.0	stop	non-target	B	71,Green Button	89,Yellow Button	800.0	850.0	1950.0	1900.0	0.0	1.0	850.0	0.0	go_stim
294831.17917999998	1900.0	n/a	-1	-1	2750	3516.82082	stim	stop-signal	135	315534	0.0-9.16-1.16	beast_fmri_test	314	312815,/,313495,/,314175,/,314855,/,315535,/,316215,/,316895,/,317575,/,318255,/,318935,/	t,t,t,t,t,t,t,t,t,t	<img class = center src='/static/experiments/beast_fmri_test/images/B.png'></img>	71,89	2750.0	test	<img class = center src='/static/experiments/beast_fmri_test/images/redB.png'></img>	stop	1900.0	3.0	16.0	stop	non-target	B	71,Green Button	89,Yellow Button	800.0	850.0	1950.0	1900.0	0.0	1.0	850.0	0.0	stop_stim
295681.17917999998	3516.8208200000004	n/a	-1	-1	2750	3516.82082	stim	stop-signal	135	315534	0.0-9.16-1.16	beast_fmri_test	314	312815,/,313495,/,314175,/,314855,/,315535,/,316215,/,316895,/,317575,/,318255,/,318935,/	t,t,t,t,t,t,t,t,t,t	<img class = center src='/static/experiments/beast_fmri_test/images/B.png'></img>	71,89	2750.0	test	<img class = center src='/static/experiments/beast_fmri_test/images/redB.png'></img>	stop	1900.0	3.0	16.0	stop	non-target	B	71,Green Button	89,Yellow Button	800.0	850.0	1950.0	1900.0	0.0	1.0	850.0	0.0	ITI
303222	500	n/a	-1	-1	500	0.0	fixation	poldrack-single-stim	136	319558	0.0-9.17-0.17	beast_fmri_test	314	n/a	n/a	<div class = centerbox><div class = fixation>+</div></div>	none	500.0	test	n/a	n/a	n/a	n/a	n/a	n/a	n/a	n/a	n/a	n/a	n/a	n/a	n/a	n/a	n/a	n/a	n/a	n/a	fixation
303136.49642699998	2750	n/a	1629	89	2750	88.503573	stim	stop-signal	137	322311	0.0-9.17-1.17	beast_fmri_test	314	319615,/,320295,/,320976,/,321656,/,322336,/	t,t,t,t,t	<img class = center src='/static/experiments/beast_fmri_test/images/B.png'></img>	71,89	2750.0	test	<img class = center src='/static/experiments/beast_fmri_test/images/redB.png'></img>	go	1850.0	3.0	17.0	go	non-target	B	71,Green Button	89,Yellow Button	800.0	900.0	1950.0	1850.0	1.0	n/a	900.0	1.0	go_stim
305886.49642699998	88.503573000000003	n/a	1629	89	2750	88.503573	stim	stop-signal	137	322311	0.0-9.17-1.17	beast_fmri_test	314	319615,/,320295,/,320976,/,321656,/,322336,/	t,t,t,t,t	<img class = center src='/static/experiments/beast_fmri_test/images/B.png'></img>	71,89	2750.0	test	<img class = center src='/static/experiments/beast_fmri_test/images/redB.png'></img>	go	1850.0	3.0	17.0	go	non-target	B	71,Green Button	89,Yellow Button	800.0	900.0	1950.0	1850.0	1.0	n/a	900.0	1.0	ITI
306572	500	n/a	-1	-1	500	0.0	fixation	poldrack-single-stim	138	322908	0.0-9.18-0.18	beast_fmri_test	314	n/a	n/a	<div class = centerbox><div class = fixation>+</div></div>	none	500.0	test	n/a	n/a	n/a	n/a	n/a	n/a	n/a	n/a	n/a	n/a	n/a	n/a	n/a	n/a	n/a	n/a	n/a	n/a	fixation
304697.88043700001	800.0	n/a	1191	71	2750	1876.119563	stim	stop-signal	139	325660	0.0-9.18-1.18	beast_fmri_test	314	323016,/,323696,/,324375,/,325056,/,325735,/,326415,/,327095,/	t,t,t,t,t,t,t	<img class = center src='/static/experiments/beast_fmri_test/images/P.png'></img>	71,89	2750.0	test	<img class = center src='/static/experiments/beast_fmri_test/images/redP.png'></img>	stop	1950.0	3.0	18.0	stop	target	P	71,Green Button	89,Yellow Button	800.0	900.0	1950.0	1850.0	0.0	0.0	800.0	1.0	go_stim
306647.88043700001	1950.0	n/a	1191	71	2750	1876.119563	stim	stop-signal	139	325660	0.0-9.18-1.18	beast_fmri_test	314	323016,/,323696,/,324375,/,325056,/,325735,/,326415,/,327095,/	t,t,t,t,t,t,t	<img class = center src='/static/experiments/beast_fmri_test/images/P.png'></img>	71,89	2750.0	test	<img class = center src='/static/experiments/beast_fmri_test/images/redP.png'></img>	stop	1950.0	3.0	18.0	stop	target	P	71,Green Button	89,Yellow Button	800.0	900.0	1950.0	1850.0	0.0	0.0	800.0	1.0	stop_stim
307447.88043700001	1876.119563	n/a	1191	71	2750	1876.119563	stim	stop-signal	139	325660	0.0-9.18-1.18	beast_fmri_test	314	323016,/,323696,/,324375,/,325056,/,325735,/,326415,/,327095,/	t,t,t,t,t,t,t	<img class = center src='/static/experiments/beast_fmri_test/images/P.png'></img>	71,89	2750.0	test	<img class = center src='/static/experiments/beast_fmri_test/images/redP.png'></img>	stop	1950.0	3.0	18.0	stop	target	P	71,Green Button	89,Yellow Button	800.0	900.0	1950.0	1850.0	0.0	0.0	800.0	1.0	ITI
311709	500	n/a	-1	-1	500	0.0	fixation	poldrack-single-stim	140	328045	0.0-9.19-0.19	beast_fmri_test	314	327776,/	t	<div class = centerbox><div class = fixation>+</div></div>	none	500.0	test	n/a	n/a	n/a	n/a	n/a	n/a	n/a	n/a	n/a	n/a	n/a	n/a	n/a	n/a	n/a	n/a	n/a	n/a	fixation
308436.06577500002	2750	n/a	911	89	2750	3273.934225	stim	stop-signal	141	330796	0.0-9.19-1.19	beast_fmri_test	314	328455,/,329135,/,329815,/,330496,/,331175,/,331855,/,332536,/,333216,/,333895,/	t,t,t,t,t,t,t,t,t	<img class = center src='/static/experiments/beast_fmri_test/images/T.png'></img>	71,89	2750.0	test	<img class = center src='/static/experiments/beast_fmri_test/images/redT.png'></img>	go	1850.0	3.0	19.0	go	non-target	T	71,Green Button	89,Yellow Button	750.0	900.0	1950.0	1850.0	1.0	n/a	900.0	1.0	go_stim
311186.06577500002	3273.934225	n/a	911	89	2750	3273.934225	stim	stop-signal	141	330796	0.0-9.19-1.19	beast_fmri_test	314	328455,/,329135,/,329815,/,330496,/,331175,/,331855,/,332536,/,333216,/,333895,/	t,t,t,t,t,t,t,t,t	<img class = center src='/static/experiments/beast_fmri_test/images/T.png'></img>	71,89	2750.0	test	<img class = center src='/static/experiments/beast_fmri_test/images/redT.png'></img>	go	1850.0	3.0	19.0	go	non-target	T	71,Green Button	89,Yellow Button	750.0	900.0	1950.0	1850.0	1.0	n/a	900.0	1.0	ITI
318241	500	n/a	-1	-1	500	0.0	fixation	poldrack-single-stim	142	334577	0.0-9.20-0.20	beast_fmri_test	314	334575,/	t	<div class = centerbox><div class = fixation>+</div></div>	none	500.0	test	n/a	n/a	n/a	n/a	n/a	n/a	n/a	n/a	n/a	n/a	n/a	n/a	n/a	n/a	n/a	n/a	n/a	n/a	fixation
317095.87312	900.0	n/a	956	89	2750	1146.12688	stim	stop-signal	143	337328	0.0-9.20-1.20	beast_fmri_test	314	335256,/,335935,/,336615,/,337295,/,337975,/	t,t,t,t,t	<img class = center src='/static/experiments/beast_fmri_test/images/D.png'></img>	71,89	2750.0	test	<img class = center src='/static/experiments/beast_fmri_test/images/redD.png'></img>	stop	1850.0	3.0	20.0	stop	non-target	D	71,Green Button	89,Yellow Button	750.0	900.0	1950.0	1850.0	0.0	0.0	900.0	1.0	go_stim
318945.87312	1850.0	n/a	956	89	2750	1146.12688	stim	stop-signal	143	337328	0.0-9.20-1.20	beast_fmri_test	314	335256,/,335935,/,336615,/,337295,/,337975,/	t,t,t,t,t	<img class = center src='/static/experiments/beast_fmri_test/images/D.png'></img>	71,89	2750.0	test	<img class = center src='/static/experiments/beast_fmri_test/images/redD.png'></img>	stop	1850.0	3.0	20.0	stop	non-target	D	71,Green Button	89,Yellow Button	750.0	900.0	1950.0	1850.0	0.0	0.0	900.0	1.0	stop_stim
319845.87312	1146.12688	n/a	956	89	2750	1146.12688	stim	stop-signal	143	337328	0.0-9.20-1.20	beast_fmri_test	314	335256,/,335935,/,336615,/,337295,/,337975,/	t,t,t,t,t	<img class = center src='/static/experiments/beast_fmri_test/images/D.png'></img>	71,89	2750.0	test	<img class = center src='/static/experiments/beast_fmri_test/images/redD.png'></img>	stop	1850.0	3.0	20.0	stop	non-target	D	71,Green Button	89,Yellow Button	750.0	900.0	1950.0	1850.0	0.0	0.0	900.0	1.0	ITI
322646	500	n/a	-1	-1	500	0.0	fixation	poldrack-single-stim	144	338982	0.0-9.21-0.21	beast_fmri_test	314	338655,/	t	<div class = centerbox><div class = fixation>+</div></div>	none	500.0	test	n/a	n/a	n/a	n/a	n/a	n/a	n/a	n/a	n/a	n/a	n/a	n/a	n/a	n/a	n/a	n/a	n/a	n/a	fixation
320881.48936800001	750.0	n/a	-1	-1	2750	1766.510632	stim	stop-signal	145	341734	0.0-9.21-1.21	beast_fmri_test	314	339335,/,340015,/,340695,/,341375,/,342055,/,342736,/,343415,/	t,t,t,t,t,t,t	<img class = center src='/static/experiments/beast_fmri_test/images/P.png'></img>	71,89	2750.0	test	<img class = center src='/static/experiments/beast_fmri_test/images/redP.png'></img>	stop	2000.0	3.0	21.0	stop	target	P	71,Green Button	89,Yellow Button	750.0	850.0	2000.0	1850.0	0.0	1.0	750.0	0.0	go_stim
322881.48936800001	2000.0	n/a	-1	-1	2750	1766.510632	stim	stop-signal	145	341734	0.0-9.21-1.21	beast_fmri_test	314	339335,/,340015,/,340695,/,341375,/,342055,/,342736,/,343415,/	t,t,t,t,t,t,t	<img class = center src='/static/experiments/beast_fmri_test/images/P.png'></img>	71,89	2750.0	test	<img class = center src='/static/experiments/beast_fmri_test/images/redP.png'></img>	stop	2000.0	3.0	21.0	stop	target	P	71,Green Button	89,Yellow Button	750.0	850.0	2000.0	1850.0	0.0	1.0	750.0	0.0	stop_stim
323631.48936800001	1766.510632	n/a	-1	-1	2750	1766.510632	stim	stop-signal	145	341734	0.0-9.21-1.21	beast_fmri_test	314	339335,/,340015,/,340695,/,341375,/,342055,/,342736,/,343415,/	t,t,t,t,t,t,t	<img class = center src='/static/experiments/beast_fmri_test/images/P.png'></img>	71,89	2750.0	test	<img class = center src='/static/experiments/beast_fmri_test/images/redP.png'></img>	stop	2000.0	3.0	21.0	stop	target	P	71,Green Button	89,Yellow Button	750.0	850.0	2000.0	1850.0	0.0	1.0	750.0	0.0	ITI
327673	500	n/a	-1	-1	500	0.0	fixation	poldrack-single-stim	146	344009	0.0-9.22-0.22	beast_fmri_test	314	n/a	n/a	<div class = centerbox><div class = fixation>+</div></div>	none	500.0	test	n/a	n/a	n/a	n/a	n/a	n/a	n/a	n/a	n/a	n/a	n/a	n/a	n/a	n/a	n/a	n/a	n/a	n/a	fixation
326960.02241779998	2750	n/a	1053	89	2750	714.9775822	stim	stop-signal	147	346761	0.0-9.22-1.22	beast_fmri_test	314	344095,/,344775,/,345455,/,346135,/,346815,/	t,t,t,t,t	<img class = center src='/static/experiments/beast_fmri_test/images/B.png'></img>	71,89	2750.0	test	<img class = center src='/static/experiments/beast_fmri_test/images/redB.png'></img>	go	1900.0	3.0	22.0	go	non-target	B	71,Green Button	89,Yellow Button	800.0	850.0	2000.0	1900.0	1.0	n/a	850.0	1.0	go_stim
329710.02241779998	714.97758220000003	n/a	1053	89	2750	714.9775822	stim	stop-signal	147	346761	0.0-9.22-1.22	beast_fmri_test	314	344095,/,344775,/,345455,/,346135,/,346815,/	t,t,t,t,t	<img class = center src='/static/experiments/beast_fmri_test/images/B.png'></img>	71,89	2750.0	test	<img class = center src='/static/experiments/beast_fmri_test/images/redB.png'></img>	go	1900.0	3.0	22.0	go	non-target	B	71,Green Button	89,Yellow Button	800.0	850.0	2000.0	1900.0	1.0	n/a	850.0	1.0	ITI
331647	500	n/a	-1	-1	500	0.0	fixation	poldrack-single-stim	148	347983	0.0-9.23-0.23	beast_fmri_test	314	347495,/	t	<div class = centerbox><div class = fixation>+</div></div>	none	500.0	test	n/a	n/a	n/a	n/a	n/a	n/a	n/a	n/a	n/a	n/a	n/a	n/a	n/a	n/a	n/a	n/a	n/a	n/a	fixation
331167.3664608	850.0	n/a	1420	89	2750	480.6335392	stim	stop-signal	149	350734	0.0-9.23-1.23	beast_fmri_test	314	348175,/,348855,/,349535,/,350215,/,350895,/	t,t,t,t,t	<img class = center src='/static/experiments/beast_fmri_test/images/V.png'></img>	71,89	2750.0	test	<img class = center src='/static/experiments/beast_fmri_test/images/redV.png'></img>	stop	1900.0	3.0	23.0	stop	non-target	V	71,Green Button	89,Yellow Button	800.0	850.0	2000.0	1900.0	0.0	0.0	850.0	1.0	go_stim
333067.3664608	1900.0	n/a	1420	89	2750	480.6335392	stim	stop-signal	149	350734	0.0-9.23-1.23	beast_fmri_test	314	348175,/,348855,/,349535,/,350215,/,350895,/	t,t,t,t,t	<img class = center src='/static/experiments/beast_fmri_test/images/V.png'></img>	71,89	2750.0	test	<img class = center src='/static/experiments/beast_fmri_test/images/redV.png'></img>	stop	1900.0	3.0	23.0	stop	non-target	V	71,Green Button	89,Yellow Button	800.0	850.0	2000.0	1900.0	0.0	0.0	850.0	1.0	stop_stim
