onset	duration	text	rt	key_press	block_duration	timing_post_trial	trial_id	trial_type	trial_index	time_elapsed	internal_node_id	exp_id	subject_id	trigger_times	triggers	stimulus	possible_responses	stim_duration	exp_stage	SS_stimulus	SS_trial_type	SS_duration	load	trial_num	stop_trial_type	adaptive_trial_type	stim	yes_response_key	no_response_key	SSD_target	SSD_non_target	SSTarget	SSNonTarget	go_acc	stop_acc	SS_delay	adaptive_acc	new_trial_type
test	10880	n/a	-1	-1	10880	0.0	practice-no-stop-feedback	poldrack-single-stim	200	533284	0.0-12.0	beast_fmri_test	314	522403,/,523083,/,523763,/,524443,/,525123,/,525802,/,526483,/,527162,/,527842,/,528523,/,529203,/,529883,/,530562,/,531242,/,531922,/,532602,/,533282,/	t,t,t,t,t,t,t,t,t,t,t,t,t,t,t,t,t	"<div class = ""centerbox""><p class = ""center-block-text"">Your delay is 2 trials.</p><p class = center-block-text>Please wait for the scanner to start the block</p></div>"	77	10880.0	n/a	n/a	n/a	n/a	n/a	n/a	n/a	n/a	n/a	n/a	n/a	n/a	n/a	n/a	n/a	n/a	n/a	n/a	n/a	start_functional_block
11383	500	n/a	-1	-1	500	0.0	fixation	poldrack-single-stim	201	533786	0.0-13.0-0.0	beast_fmri_test	314	n/a	n/a	<div class = centerbox><div class = fixation>+</div></div>	none	500.0	test	n/a	n/a	n/a	n/a	n/a	n/a	n/a	n/a	n/a	n/a	n/a	n/a	n/a	n/a	n/a	n/a	n/a	n/a	fixation
8598.9353500000434	temp_go_duration	n/a	1545	89	2750	2785.06465	stim	stop-signal	202	536537	0.0-13.0-1.0	beast_fmri_test	314	533962,/,534642,/,535322,/,536002,/,536682,/,537362,/,538042,/,538722,/	t,t,t,t,t,t,t,t	<img class = center src='/static/experiments/beast_fmri_test/images/V.png'></img>	71,89	2750.0	test	<img class = center src='/static/experiments/beast_fmri_test/images/redV.png'></img>	stop	-1.0	2.0	0.0	stop	temp-non-target	V	71,Green Button	89,Yellow Button	900.0	1000.0	1850.0	1750.0	0.0	0.0	n/a	n/a	go_stim
temp-non-target	temp_stop_duration	n/a	1545	89	2750	2785.06465	stim	stop-signal	202	536537	0.0-13.0-1.0	beast_fmri_test	314	533962,/,534642,/,535322,/,536002,/,536682,/,537362,/,538042,/,538722,/	t,t,t,t,t,t,t,t	<img class = center src='/static/experiments/beast_fmri_test/images/V.png'></img>	71,89	2750.0	test	<img class = center src='/static/experiments/beast_fmri_test/images/redV.png'></img>	stop	-1.0	2.0	0.0	stop	temp-non-target	V	71,Green Button	89,Yellow Button	900.0	1000.0	1850.0	1750.0	0.0	0.0	n/a	n/a	stop_stim
11348.935350000043	2785.0646499999998	n/a	1545	89	2750	2785.06465	stim	stop-signal	202	536537	0.0-13.0-1.0	beast_fmri_test	314	533962,/,534642,/,535322,/,536002,/,536682,/,537362,/,538042,/,538722,/	t,t,t,t,t,t,t,t	<img class = center src='/static/experiments/beast_fmri_test/images/V.png'></img>	71,89	2750.0	test	<img class = center src='/static/experiments/beast_fmri_test/images/redV.png'></img>	stop	-1.0	2.0	0.0	stop	temp-non-target	V	71,Green Button	89,Yellow Button	900.0	1000.0	1850.0	1750.0	0.0	0.0	n/a	n/a	ITI
17432	500	n/a	-1	-1	500	0.0	fixation	poldrack-single-stim	203	539835	0.0-13.1-0.1	beast_fmri_test	314	539402,/	t	<div class = centerbox><div class = fixation>+</div></div>	none	500.0	test	n/a	n/a	n/a	n/a	n/a	n/a	n/a	n/a	n/a	n/a	n/a	n/a	n/a	n/a	n/a	n/a	n/a	n/a	fixation
16601.636916100048	2750	n/a	1533	89	2750	832.3630839	stim	stop-signal	204	542587	0.0-13.1-1.1	beast_fmri_test	314	540083,/,540762,/,541443,/,542123,/,542803,/	t,t,t,t,t	<img class = center src='/static/experiments/beast_fmri_test/images/D.png'></img>	71,89	2750.0	test	<img class = center src='/static/experiments/beast_fmri_test/images/redD.png'></img>	go	-1.0	2.0	1.0	go	temp-non-target	D	71,Green Button	89,Yellow Button	900.0	1000.0	1850.0	1750.0	0.0	n/a	n/a	n/a	go_stim
19351.636916100048	832.36308389999999	n/a	1533	89	2750	832.3630839	stim	stop-signal	204	542587	0.0-13.1-1.1	beast_fmri_test	314	540083,/,540762,/,541443,/,542123,/,542803,/	t,t,t,t,t	<img class = center src='/static/experiments/beast_fmri_test/images/D.png'></img>	71,89	2750.0	test	<img class = center src='/static/experiments/beast_fmri_test/images/redD.png'></img>	go	-1.0	2.0	1.0	go	temp-non-target	D	71,Green Button	89,Yellow Button	900.0	1000.0	1850.0	1750.0	0.0	n/a	n/a	n/a	ITI
21525	500	n/a	-1	-1	500	0.0	fixation	poldrack-single-stim	205	543928	0.0-13.2-0.2	beast_fmri_test	314	543483,/	t	<div class = centerbox><div class = fixation>+</div></div>	none	500.0	test	n/a	n/a	n/a	n/a	n/a	n/a	n/a	n/a	n/a	n/a	n/a	n/a	n/a	n/a	n/a	n/a	n/a	n/a	fixation
21253.723050400033	2750	n/a	1012	71	2750	273.2769496	stim	stop-signal	206	546680	0.0-13.2-1.2	beast_fmri_test	314	544163,/,544843,/,545523,/,546203,/,546883,/	t,t,t,t,t	<img class = center src='/static/experiments/beast_fmri_test/images/V.png'></img>	71,89	2750.0	test	<img class = center src='/static/experiments/beast_fmri_test/images/redV.png'></img>	go	1850.0	2.0	2.0	go	target	V	71,Green Button	89,Yellow Button	900.0	1000.0	1850.0	1750.0	1.0	n/a	900.0	1.0	go_stim
24003.723050400033	273.27694960000002	n/a	1012	71	2750	273.2769496	stim	stop-signal	206	546680	0.0-13.2-1.2	beast_fmri_test	314	544163,/,544843,/,545523,/,546203,/,546883,/	t,t,t,t,t	<img class = center src='/static/experiments/beast_fmri_test/images/V.png'></img>	71,89	2750.0	test	<img class = center src='/static/experiments/beast_fmri_test/images/redV.png'></img>	go	1850.0	2.0	2.0	go	target	V	71,Green Button	89,Yellow Button	900.0	1000.0	1850.0	1750.0	1.0	n/a	900.0	1.0	ITI
25060	500	n/a	-1	-1	500	0.0	fixation	poldrack-single-stim	207	547463	0.0-13.3-0.3	beast_fmri_test	314	n/a	n/a	<div class = centerbox><div class = fixation>+</div></div>	none	500.0	test	n/a	n/a	n/a	n/a	n/a	n/a	n/a	n/a	n/a	n/a	n/a	n/a	n/a	n/a	n/a	n/a	n/a	n/a	fixation
23944.605161000043	2750	n/a	1399	89	2750	1117.394839	stim	stop-signal	208	550215	0.0-13.3-1.3	beast_fmri_test	314	547563,/,548243,/,548923,/,549603,/,550284,/,550962,/	t,t,t,t,t,t	<img class = center src='/static/experiments/beast_fmri_test/images/P.png'></img>	71,89	2750.0	test	<img class = center src='/static/experiments/beast_fmri_test/images/redP.png'></img>	go	1750.0	2.0	3.0	go	non-target	P	71,Green Button	89,Yellow Button	900.0	1000.0	1850.0	1750.0	1.0	n/a	1000.0	1.0	go_stim
26694.605161000043	1117.394839	n/a	1399	89	2750	1117.394839	stim	stop-signal	208	550215	0.0-13.3-1.3	beast_fmri_test	314	547563,/,548243,/,548923,/,549603,/,550284,/,550962,/	t,t,t,t,t,t	<img class = center src='/static/experiments/beast_fmri_test/images/P.png'></img>	71,89	2750.0	test	<img class = center src='/static/experiments/beast_fmri_test/images/redP.png'></img>	go	1750.0	2.0	3.0	go	non-target	P	71,Green Button	89,Yellow Button	900.0	1000.0	1850.0	1750.0	1.0	n/a	1000.0	1.0	ITI
29441	500	n/a	-1	-1	500	0.0	fixation	poldrack-single-stim	209	551844	0.0-13.4-0.4	beast_fmri_test	314	551643,/	t	<div class = centerbox><div class = fixation>+</div></div>	none	500.0	test	n/a	n/a	n/a	n/a	n/a	n/a	n/a	n/a	n/a	n/a	n/a	n/a	n/a	n/a	n/a	n/a	n/a	n/a	fixation
27688.921953000012	1000.0	n/a	-1	-1	2750	1753.078047	stim	stop-signal	210	554595	0.0-13.4-1.4	beast_fmri_test	314	552323,/,553003,/,553683,/,554363,/,555043,/,555722,/	t,t,t,t,t,t	<img class = center src='/static/experiments/beast_fmri_test/images/P.png'></img>	71,89	2750.0	test	<img class = center src='/static/experiments/beast_fmri_test/images/redP.png'></img>	stop	1750.0	2.0	4.0	stop	non-target	P	71,Green Button	89,Yellow Button	900.0	1000.0	1850.0	1750.0	0.0	1.0	1000.0	0.0	go_stim
29438.921953000012	1750.0	n/a	-1	-1	2750	1753.078047	stim	stop-signal	210	554595	0.0-13.4-1.4	beast_fmri_test	314	552323,/,553003,/,553683,/,554363,/,555043,/,555722,/	t,t,t,t,t,t	<img class = center src='/static/experiments/beast_fmri_test/images/P.png'></img>	71,89	2750.0	test	<img class = center src='/static/experiments/beast_fmri_test/images/redP.png'></img>	stop	1750.0	2.0	4.0	stop	non-target	P	71,Green Button	89,Yellow Button	900.0	1000.0	1850.0	1750.0	0.0	1.0	1000.0	0.0	stop_stim
30438.921953000012	1753.078047	n/a	-1	-1	2750	1753.078047	stim	stop-signal	210	554595	0.0-13.4-1.4	beast_fmri_test	314	552323,/,553003,/,553683,/,554363,/,555043,/,555722,/	t,t,t,t,t,t	<img class = center src='/static/experiments/beast_fmri_test/images/P.png'></img>	71,89	2750.0	test	<img class = center src='/static/experiments/beast_fmri_test/images/redP.png'></img>	stop	1750.0	2.0	4.0	stop	non-target	P	71,Green Button	89,Yellow Button	900.0	1000.0	1850.0	1750.0	0.0	1.0	1000.0	0.0	ITI
34456	500	n/a	-1	-1	500	0.0	fixation	poldrack-single-stim	211	556859	0.0-13.5-0.5	beast_fmri_test	314	556403,/	t	<div class = centerbox><div class = fixation>+</div></div>	none	500.0	test	n/a	n/a	n/a	n/a	n/a	n/a	n/a	n/a	n/a	n/a	n/a	n/a	n/a	n/a	n/a	n/a	n/a	n/a	fixation
33914.537854399998	2750	n/a	989	89	2750	543.4621456	stim	stop-signal	212	559611	0.0-13.5-1.5	beast_fmri_test	314	557083,/,557763,/,558443,/,559122,/,559802,/	t,t,t,t,t	<img class = center src='/static/experiments/beast_fmri_test/images/T.png'></img>	71,89	2750.0	test	<img class = center src='/static/experiments/beast_fmri_test/images/redT.png'></img>	go	1700.0	2.0	5.0	go	non-target	T	71,Green Button	89,Yellow Button	900.0	1050.0	1850.0	1700.0	1.0	n/a	1050.0	1.0	go_stim
36664.537854399998	543.46214559999999	n/a	989	89	2750	543.4621456	stim	stop-signal	212	559611	0.0-13.5-1.5	beast_fmri_test	314	557083,/,557763,/,558443,/,559122,/,559802,/	t,t,t,t,t	<img class = center src='/static/experiments/beast_fmri_test/images/T.png'></img>	71,89	2750.0	test	<img class = center src='/static/experiments/beast_fmri_test/images/redT.png'></img>	go	1700.0	2.0	5.0	go	non-target	T	71,Green Button	89,Yellow Button	900.0	1050.0	1850.0	1700.0	1.0	n/a	1050.0	1.0	ITI
38261	500	n/a	-1	-1	500	0.0	fixation	poldrack-single-stim	213	560664	0.0-13.6-0.6	beast_fmri_test	314	560483,/	t	<div class = centerbox><div class = fixation>+</div></div>	none	500.0	test	n/a	n/a	n/a	n/a	n/a	n/a	n/a	n/a	n/a	n/a	n/a	n/a	n/a	n/a	n/a	n/a	n/a	n/a	fixation
37075.157010999974	2750	n/a	1833	89	2750	1186.842989	stim	stop-signal	214	563415	0.0-13.6-1.6	beast_fmri_test	314	561163,/,561842,/,562523,/,563202,/,563882,/,564562,/	t,t,t,t,t,t	<img class = center src='/static/experiments/beast_fmri_test/images/V.png'></img>	71,89	2750.0	test	<img class = center src='/static/experiments/beast_fmri_test/images/redV.png'></img>	go	1700.0	2.0	6.0	go	non-target	V	71,Green Button	89,Yellow Button	900.0	1050.0	1850.0	1700.0	1.0	n/a	1050.0	1.0	go_stim
39825.157010999974	1186.842989	n/a	1833	89	2750	1186.842989	stim	stop-signal	214	563415	0.0-13.6-1.6	beast_fmri_test	314	561163,/,561842,/,562523,/,563202,/,563882,/,564562,/	t,t,t,t,t,t	<img class = center src='/static/experiments/beast_fmri_test/images/V.png'></img>	71,89	2750.0	test	<img class = center src='/static/experiments/beast_fmri_test/images/redV.png'></img>	go	1700.0	2.0	6.0	go	non-target	V	71,Green Button	89,Yellow Button	900.0	1050.0	1850.0	1700.0	1.0	n/a	1050.0	1.0	ITI
42709	500	n/a	-1	-1	500	0.0	fixation	poldrack-single-stim	215	565112	0.0-13.7-0.7	beast_fmri_test	314	n/a	n/a	<div class = centerbox><div class = fixation>+</div></div>	none	500.0	test	n/a	n/a	n/a	n/a	n/a	n/a	n/a	n/a	n/a	n/a	n/a	n/a	n/a	n/a	n/a	n/a	n/a	n/a	fixation
42079.899356800015	900.0	n/a	1032	71	2750	630.1006432	stim	stop-signal	216	567863	0.0-13.7-1.7	beast_fmri_test	314	565242,/,565922,/,566603,/,567282,/,567963,/	t,t,t,t,t	<img class = center src='/static/experiments/beast_fmri_test/images/T.png'></img>	71,89	2750.0	test	<img class = center src='/static/experiments/beast_fmri_test/images/redT.png'></img>	stop	1850.0	2.0	7.0	stop	target	T	71,Green Button	89,Yellow Button	900.0	1050.0	1850.0	1700.0	0.0	0.0	900.0	1.0	go_stim
43929.899356800015	1850.0	n/a	1032	71	2750	630.1006432	stim	stop-signal	216	567863	0.0-13.7-1.7	beast_fmri_test	314	565242,/,565922,/,566603,/,567282,/,567963,/	t,t,t,t,t	<img class = center src='/static/experiments/beast_fmri_test/images/T.png'></img>	71,89	2750.0	test	<img class = center src='/static/experiments/beast_fmri_test/images/redT.png'></img>	stop	1850.0	2.0	7.0	stop	target	T	71,Green Button	89,Yellow Button	900.0	1050.0	1850.0	1700.0	0.0	0.0	900.0	1.0	stop_stim
44829.899356800015	630.10064320000004	n/a	1032	71	2750	630.1006432	stim	stop-signal	216	567863	0.0-13.7-1.7	beast_fmri_test	314	565242,/,565922,/,566603,/,567282,/,567963,/	t,t,t,t,t	<img class = center src='/static/experiments/beast_fmri_test/images/T.png'></img>	71,89	2750.0	test	<img class = center src='/static/experiments/beast_fmri_test/images/redT.png'></img>	stop	1850.0	2.0	7.0	stop	target	T	71,Green Button	89,Yellow Button	900.0	1050.0	1850.0	1700.0	0.0	0.0	900.0	1.0	ITI
46603	500	n/a	-1	-1	500	0.0	fixation	poldrack-single-stim	217	569006	0.0-13.8-0.8	beast_fmri_test	314	568642,/	t	<div class = centerbox><div class = fixation>+</div></div>	none	500.0	test	n/a	n/a	n/a	n/a	n/a	n/a	n/a	n/a	n/a	n/a	n/a	n/a	n/a	n/a	n/a	n/a	n/a	n/a	fixation
46486.43658920005	2750	n/a	1607	71	2750	117.5634108	stim	stop-signal	218	571757	0.0-13.8-1.8	beast_fmri_test	314	569322,/,570002,/,570682,/,571362,/	t,t,t,t	<img class = center src='/static/experiments/beast_fmri_test/images/V.png'></img>	71,89	2750.0	test	<img class = center src='/static/experiments/beast_fmri_test/images/redV.png'></img>	go	1900.0	2.0	8.0	go	target	V	71,Green Button	89,Yellow Button	850.0	1050.0	1900.0	1700.0	1.0	n/a	850.0	1.0	go_stim
49236.43658920005	117.5634108	n/a	1607	71	2750	117.5634108	stim	stop-signal	218	571757	0.0-13.8-1.8	beast_fmri_test	314	569322,/,570002,/,570682,/,571362,/	t,t,t,t	<img class = center src='/static/experiments/beast_fmri_test/images/V.png'></img>	71,89	2750.0	test	<img class = center src='/static/experiments/beast_fmri_test/images/redV.png'></img>	go	1900.0	2.0	8.0	go	target	V	71,Green Button	89,Yellow Button	850.0	1050.0	1900.0	1700.0	1.0	n/a	850.0	1.0	ITI
49982	500	n/a	-1	-1	500	0.0	fixation	poldrack-single-stim	219	572385	0.0-13.9-0.9	beast_fmri_test	314	572042,/	t	<div class = centerbox><div class = fixation>+</div></div>	none	500.0	test	n/a	n/a	n/a	n/a	n/a	n/a	n/a	n/a	n/a	n/a	n/a	n/a	n/a	n/a	n/a	n/a	n/a	n/a	fixation
49892.645057240035	2750	n/a	1999	71	2750	91.35494276	stim	stop-signal	220	575137	0.0-13.9-1.9	beast_fmri_test	314	572722,/,573403,/,574082,/,574763,/	t,t,t,t	<img class = center src='/static/experiments/beast_fmri_test/images/T.png'></img>	71,89	2750.0	test	<img class = center src='/static/experiments/beast_fmri_test/images/redT.png'></img>	go	1900.0	2.0	9.0	go	target	T	71,Green Button	89,Yellow Button	850.0	1050.0	1900.0	1700.0	1.0	n/a	850.0	1.0	go_stim
52642.645057240035	91.35494276	n/a	1999	71	2750	91.35494276	stim	stop-signal	220	575137	0.0-13.9-1.9	beast_fmri_test	314	572722,/,573403,/,574082,/,574763,/	t,t,t,t	<img class = center src='/static/experiments/beast_fmri_test/images/T.png'></img>	71,89	2750.0	test	<img class = center src='/static/experiments/beast_fmri_test/images/redT.png'></img>	go	1900.0	2.0	9.0	go	target	T	71,Green Button	89,Yellow Button	850.0	1050.0	1900.0	1700.0	1.0	n/a	850.0	1.0	ITI
53336	500	n/a	-1	-1	500	0.0	fixation	poldrack-single-stim	221	575739	0.0-13.10-0.10	beast_fmri_test	314	575443,/	t	<div class = centerbox><div class = fixation>+</div></div>	none	500.0	test	n/a	n/a	n/a	n/a	n/a	n/a	n/a	n/a	n/a	n/a	n/a	n/a	n/a	n/a	n/a	n/a	n/a	n/a	fixation
53179.878863599966	850.0	n/a	-1	-1	2750	159.1211364	stim	stop-signal	222	578492	0.0-13.10-1.10	beast_fmri_test	314	576123,/,576803,/,577483,/,578163,/	t,t,t,t	<img class = center src='/static/experiments/beast_fmri_test/images/V.png'></img>	71,89	2750.0	test	<img class = center src='/static/experiments/beast_fmri_test/images/redV.png'></img>	stop	1900.0	2.0	10.0	stop	target	V	71,Green Button	89,Yellow Button	850.0	1050.0	1900.0	1700.0	0.0	1.0	850.0	0.0	go_stim
55079.878863599966	1900.0	n/a	-1	-1	2750	159.1211364	stim	stop-signal	222	578492	0.0-13.10-1.10	beast_fmri_test	314	576123,/,576803,/,577483,/,578163,/	t,t,t,t	<img class = center src='/static/experiments/beast_fmri_test/images/V.png'></img>	71,89	2750.0	test	<img class = center src='/static/experiments/beast_fmri_test/images/redV.png'></img>	stop	1900.0	2.0	10.0	stop	target	V	71,Green Button	89,Yellow Button	850.0	1050.0	1900.0	1700.0	0.0	1.0	850.0	0.0	stop_stim
55929.878863599966	159.12113640000001	n/a	-1	-1	2750	159.1211364	stim	stop-signal	222	578492	0.0-13.10-1.10	beast_fmri_test	314	576123,/,576803,/,577483,/,578163,/	t,t,t,t	<img class = center src='/static/experiments/beast_fmri_test/images/V.png'></img>	71,89	2750.0	test	<img class = center src='/static/experiments/beast_fmri_test/images/redV.png'></img>	stop	1900.0	2.0	10.0	stop	target	V	71,Green Button	89,Yellow Button	850.0	1050.0	1900.0	1700.0	0.0	1.0	850.0	0.0	ITI
56758	500	n/a	-1	-1	500	0.0	fixation	poldrack-single-stim	223	579161	0.0-13.11-0.11	beast_fmri_test	314	578843,/	t	<div class = centerbox><div class = fixation>+</div></div>	none	500.0	test	n/a	n/a	n/a	n/a	n/a	n/a	n/a	n/a	n/a	n/a	n/a	n/a	n/a	n/a	n/a	n/a	n/a	n/a	fixation
55543.722107999958	900.0	n/a	-1	-1	2750	1215.277892	stim	stop-signal	224	581912	0.0-13.11-1.11	beast_fmri_test	314	579523,/,580203,/,580884,/,581563,/,582243,/,582923,/	t,t,t,t,t,t	<img class = center src='/static/experiments/beast_fmri_test/images/T.png'></img>	71,89	2750.0	test	<img class = center src='/static/experiments/beast_fmri_test/images/redT.png'></img>	stop	1850.0	2.0	11.0	stop	target	T	71,Green Button	89,Yellow Button	900.0	1050.0	1850.0	1700.0	0.0	1.0	900.0	0.0	go_stim
57393.722107999958	1850.0	n/a	-1	-1	2750	1215.277892	stim	stop-signal	224	581912	0.0-13.11-1.11	beast_fmri_test	314	579523,/,580203,/,580884,/,581563,/,582243,/,582923,/	t,t,t,t,t,t	<img class = center src='/static/experiments/beast_fmri_test/images/T.png'></img>	71,89	2750.0	test	<img class = center src='/static/experiments/beast_fmri_test/images/redT.png'></img>	stop	1850.0	2.0	11.0	stop	target	T	71,Green Button	89,Yellow Button	900.0	1050.0	1850.0	1700.0	0.0	1.0	900.0	0.0	stop_stim
58293.722107999958	1215.2778920000001	n/a	-1	-1	2750	1215.277892	stim	stop-signal	224	581912	0.0-13.11-1.11	beast_fmri_test	314	579523,/,580203,/,580884,/,581563,/,582243,/,582923,/	t,t,t,t,t,t	<img class = center src='/static/experiments/beast_fmri_test/images/T.png'></img>	71,89	2750.0	test	<img class = center src='/static/experiments/beast_fmri_test/images/redT.png'></img>	stop	1850.0	2.0	11.0	stop	target	T	71,Green Button	89,Yellow Button	900.0	1050.0	1850.0	1700.0	0.0	1.0	900.0	0.0	ITI
61236	500	n/a	-1	-1	500	0.0	fixation	poldrack-single-stim	225	583639	0.0-13.12-0.12	beast_fmri_test	314	583603,/	t	<div class = centerbox><div class = fixation>+</div></div>	none	500.0	test	n/a	n/a	n/a	n/a	n/a	n/a	n/a	n/a	n/a	n/a	n/a	n/a	n/a	n/a	n/a	n/a	n/a	n/a	fixation
61182.645908270031	1050.0	n/a	-1	-1	2750	55.35409173	stim	stop-signal	226	586391	0.0-13.12-1.12	beast_fmri_test	314	584283,/,584963,/,585643,/,586322,/	t,t,t,t	<img class = center src='/static/experiments/beast_fmri_test/images/B.png'></img>	71,89	2750.0	test	<img class = center src='/static/experiments/beast_fmri_test/images/redB.png'></img>	stop	1700.0	2.0	12.0	stop	non-target	B	71,Green Button	89,Yellow Button	950.0	1050.0	1850.0	1700.0	0.0	1.0	1050.0	0.0	go_stim
62882.645908270031	1700.0	n/a	-1	-1	2750	55.35409173	stim	stop-signal	226	586391	0.0-13.12-1.12	beast_fmri_test	314	584283,/,584963,/,585643,/,586322,/	t,t,t,t	<img class = center src='/static/experiments/beast_fmri_test/images/B.png'></img>	71,89	2750.0	test	<img class = center src='/static/experiments/beast_fmri_test/images/redB.png'></img>	stop	1700.0	2.0	12.0	stop	non-target	B	71,Green Button	89,Yellow Button	950.0	1050.0	1850.0	1700.0	0.0	1.0	1050.0	0.0	stop_stim
63932.645908270031	55.35409173	n/a	-1	-1	2750	55.35409173	stim	stop-signal	226	586391	0.0-13.12-1.12	beast_fmri_test	314	584283,/,584963,/,585643,/,586322,/	t,t,t,t	<img class = center src='/static/experiments/beast_fmri_test/images/B.png'></img>	71,89	2750.0	test	<img class = center src='/static/experiments/beast_fmri_test/images/redB.png'></img>	stop	1700.0	2.0	12.0	stop	non-target	B	71,Green Button	89,Yellow Button	950.0	1050.0	1850.0	1700.0	0.0	1.0	1050.0	0.0	ITI
64556	500	n/a	-1	-1	500	0.0	fixation	poldrack-single-stim	227	586959	0.0-13.13-0.13	beast_fmri_test	314	n/a	n/a	<div class = centerbox><div class = fixation>+</div></div>	none	500.0	test	n/a	n/a	n/a	n/a	n/a	n/a	n/a	n/a	n/a	n/a	n/a	n/a	n/a	n/a	n/a	n/a	n/a	n/a	fixation
63953.233955299947	2750	n/a	1171	71	2750	604.7660447	stim	stop-signal	228	589711	0.0-13.13-1.13	beast_fmri_test	314	587003,/,587683,/,588363,/,589042,/,589722,/	t,t,t,t,t	<img class = center src='/static/experiments/beast_fmri_test/images/T.png'></img>	71,89	2750.0	test	<img class = center src='/static/experiments/beast_fmri_test/images/redT.png'></img>	go	1800.0	2.0	13.0	go	target	T	71,Green Button	89,Yellow Button	950.0	1100.0	1800.0	1700.0	1.0	n/a	950.0	1.0	go_stim
66703.233955299947	604.76604470000007	n/a	1171	71	2750	604.7660447	stim	stop-signal	228	589711	0.0-13.13-1.13	beast_fmri_test	314	587003,/,587683,/,588363,/,589042,/,589722,/	t,t,t,t,t	<img class = center src='/static/experiments/beast_fmri_test/images/T.png'></img>	71,89	2750.0	test	<img class = center src='/static/experiments/beast_fmri_test/images/redT.png'></img>	go	1800.0	2.0	13.0	go	target	T	71,Green Button	89,Yellow Button	950.0	1100.0	1800.0	1700.0	1.0	n/a	950.0	1.0	ITI
68423	500	n/a	-1	-1	500	0.0	fixation	poldrack-single-stim	229	590826	0.0-13.14-0.14	beast_fmri_test	314	590403,/	t	<div class = centerbox><div class = fixation>+</div></div>	none	500.0	test	n/a	n/a	n/a	n/a	n/a	n/a	n/a	n/a	n/a	n/a	n/a	n/a	n/a	n/a	n/a	n/a	n/a	n/a	fixation
68388.345615510014	2750	n/a	2181	89	2750	37.65438449	stim	stop-signal	230	593579	0.0-13.14-1.14	beast_fmri_test	314	591084,/,591763,/,592443,/,593122,/	t,t,t,t	<img class = center src='/static/experiments/beast_fmri_test/images/P.png'></img>	71,89	2750.0	test	<img class = center src='/static/experiments/beast_fmri_test/images/redP.png'></img>	go	1650.0	2.0	14.0	go	non-target	P	71,Green Button	89,Yellow Button	950.0	1100.0	1800.0	1650.0	1.0	n/a	1100.0	1.0	go_stim
71138.345615510014	37.654384489999998	n/a	2181	89	2750	37.65438449	stim	stop-signal	230	593579	0.0-13.14-1.14	beast_fmri_test	314	591084,/,591763,/,592443,/,593122,/	t,t,t,t	<img class = center src='/static/experiments/beast_fmri_test/images/P.png'></img>	71,89	2750.0	test	<img class = center src='/static/experiments/beast_fmri_test/images/redP.png'></img>	go	1650.0	2.0	14.0	go	non-target	P	71,Green Button	89,Yellow Button	950.0	1100.0	1800.0	1650.0	1.0	n/a	1100.0	1.0	ITI
71723	500	n/a	-1	-1	500	0.0	fixation	poldrack-single-stim	231	594126	0.0-13.15-0.15	beast_fmri_test	314	593802,/	t	<div class = centerbox><div class = fixation>+</div></div>	none	500.0	test	n/a	n/a	n/a	n/a	n/a	n/a	n/a	n/a	n/a	n/a	n/a	n/a	n/a	n/a	n/a	n/a	n/a	n/a	fixation
71025.775312899961	2750	n/a	-1	-1	2750	699.2246871	stim	stop-signal	232	596878	0.0-13.15-1.15	beast_fmri_test	314	594482,/,595163,/,595842,/,596523,/,597202,/	t,t,t,t,t	<img class = center src='/static/experiments/beast_fmri_test/images/B.png'></img>	71,89	2750.0	test	<img class = center src='/static/experiments/beast_fmri_test/images/redB.png'></img>	go	1650.0	2.0	15.0	go	non-target	B	71,Green Button	89,Yellow Button	950.0	1100.0	1800.0	1650.0	0.0	n/a	1100.0	0.0	go_stim
73775.775312899961	699.22468709999998	n/a	-1	-1	2750	699.2246871	stim	stop-signal	232	596878	0.0-13.15-1.15	beast_fmri_test	314	594482,/,595163,/,595842,/,596523,/,597202,/	t,t,t,t,t	<img class = center src='/static/experiments/beast_fmri_test/images/B.png'></img>	71,89	2750.0	test	<img class = center src='/static/experiments/beast_fmri_test/images/redB.png'></img>	go	1650.0	2.0	15.0	go	non-target	B	71,Green Button	89,Yellow Button	950.0	1100.0	1800.0	1650.0	0.0	n/a	1100.0	0.0	ITI
75686	500	n/a	-1	-1	500	0.0	fixation	poldrack-single-stim	233	598089	0.0-13.16-0.16	beast_fmri_test	314	597882,/	t	<div class = centerbox><div class = fixation>+</div></div>	none	500.0	test	n/a	n/a	n/a	n/a	n/a	n/a	n/a	n/a	n/a	n/a	n/a	n/a	n/a	n/a	n/a	n/a	n/a	n/a	fixation
72009.444515999989	1100.0	n/a	-1	-1	2750	3678.555484	stim	stop-signal	234	600841	0.0-13.16-1.16	beast_fmri_test	314	598562,/,599242,/,599922,/,600602,/,601283,/,601962,/,602642,/,603322,/,604002,/	t,t,t,t,t,t,t,t,t	<img class = center src='/static/experiments/beast_fmri_test/images/V.png'></img>	71,89	2750.0	test	<img class = center src='/static/experiments/beast_fmri_test/images/redV.png'></img>	stop	1650.0	2.0	16.0	stop	non-target	V	71,Green Button	89,Yellow Button	950.0	1100.0	1800.0	1650.0	0.0	1.0	1100.0	0.0	go_stim
73659.444515999989	1650.0	n/a	-1	-1	2750	3678.555484	stim	stop-signal	234	600841	0.0-13.16-1.16	beast_fmri_test	314	598562,/,599242,/,599922,/,600602,/,601283,/,601962,/,602642,/,603322,/,604002,/	t,t,t,t,t,t,t,t,t	<img class = center src='/static/experiments/beast_fmri_test/images/V.png'></img>	71,89	2750.0	test	<img class = center src='/static/experiments/beast_fmri_test/images/redV.png'></img>	stop	1650.0	2.0	16.0	stop	non-target	V	71,Green Button	89,Yellow Button	950.0	1100.0	1800.0	1650.0	0.0	1.0	1100.0	0.0	stop_stim
74759.444515999989	3678.5554840000004	n/a	-1	-1	2750	3678.555484	stim	stop-signal	234	600841	0.0-13.16-1.16	beast_fmri_test	314	598562,/,599242,/,599922,/,600602,/,601283,/,601962,/,602642,/,603322,/,604002,/	t,t,t,t,t,t,t,t,t	<img class = center src='/static/experiments/beast_fmri_test/images/V.png'></img>	71,89	2750.0	test	<img class = center src='/static/experiments/beast_fmri_test/images/redV.png'></img>	stop	1650.0	2.0	16.0	stop	non-target	V	71,Green Button	89,Yellow Button	950.0	1100.0	1800.0	1650.0	0.0	1.0	1100.0	0.0	ITI
82629	500	n/a	-1	-1	500	0.0	fixation	poldrack-single-stim	235	605032	0.0-13.17-0.17	beast_fmri_test	314	604682,/	t	<div class = centerbox><div class = fixation>+</div></div>	none	500.0	test	n/a	n/a	n/a	n/a	n/a	n/a	n/a	n/a	n/a	n/a	n/a	n/a	n/a	n/a	n/a	n/a	n/a	n/a	fixation
80162.683610999957	2750	n/a	899	71	2750	2467.316389	stim	stop-signal	236	607783	0.0-13.17-1.17	beast_fmri_test	314	605362,/,606042,/,606723,/,607403,/,608083,/,608763,/,609443,/,610123,/	t,t,t,t,t,t,t,t	<img class = center src='/static/experiments/beast_fmri_test/images/B.png'></img>	71,89	2750.0	test	<img class = center src='/static/experiments/beast_fmri_test/images/redB.png'></img>	go	1800.0	2.0	17.0	go	target	B	71,Green Button	89,Yellow Button	950.0	1150.0	1800.0	1650.0	1.0	n/a	950.0	1.0	go_stim
82912.683610999957	2467.3163890000001	n/a	899	71	2750	2467.316389	stim	stop-signal	236	607783	0.0-13.17-1.17	beast_fmri_test	314	605362,/,606042,/,606723,/,607403,/,608083,/,608763,/,609443,/,610123,/	t,t,t,t,t,t,t,t	<img class = center src='/static/experiments/beast_fmri_test/images/B.png'></img>	71,89	2750.0	test	<img class = center src='/static/experiments/beast_fmri_test/images/redB.png'></img>	go	1800.0	2.0	17.0	go	target	B	71,Green Button	89,Yellow Button	950.0	1150.0	1800.0	1650.0	1.0	n/a	950.0	1.0	ITI
88358	500	n/a	-1	-1	500	0.0	fixation	poldrack-single-stim	237	610761	0.0-13.18-0.18	beast_fmri_test	314	n/a	n/a	<div class = centerbox><div class = fixation>+</div></div>	none	500.0	test	n/a	n/a	n/a	n/a	n/a	n/a	n/a	n/a	n/a	n/a	n/a	n/a	n/a	n/a	n/a	n/a	n/a	n/a	fixation
88084.29448729998	2750	n/a	791	89	2750	274.7055127	stim	stop-signal	238	613512	0.0-13.18-1.18	beast_fmri_test	314	610803,/,611484,/,612163,/,612843,/,613523,/	t,t,t,t,t	<img class = center src='/static/experiments/beast_fmri_test/images/B.png'></img>	71,89	2750.0	test	<img class = center src='/static/experiments/beast_fmri_test/images/redB.png'></img>	go	1600.0	2.0	18.0	go	non-target	B	71,Green Button	89,Yellow Button	950.0	1150.0	1800.0	1600.0	1.0	n/a	1150.0	1.0	go_stim
90834.29448729998	274.70551269999999	n/a	791	89	2750	274.7055127	stim	stop-signal	238	613512	0.0-13.18-1.18	beast_fmri_test	314	610803,/,611484,/,612163,/,612843,/,613523,/	t,t,t,t,t	<img class = center src='/static/experiments/beast_fmri_test/images/B.png'></img>	71,89	2750.0	test	<img class = center src='/static/experiments/beast_fmri_test/images/redB.png'></img>	go	1600.0	2.0	18.0	go	non-target	B	71,Green Button	89,Yellow Button	950.0	1150.0	1800.0	1600.0	1.0	n/a	1150.0	1.0	ITI
91894	500	n/a	-1	-1	500	0.0	fixation	poldrack-single-stim	239	614297	0.0-13.19-0.19	beast_fmri_test	314	614203,/	t	<div class = centerbox><div class = fixation>+</div></div>	none	500.0	test	n/a	n/a	n/a	n/a	n/a	n/a	n/a	n/a	n/a	n/a	n/a	n/a	n/a	n/a	n/a	n/a	n/a	n/a	fixation
90816.916411999962	1150.0	n/a	1128	89	2750	1078.083588	stim	stop-signal	240	617048	0.0-13.19-1.19	beast_fmri_test	314	614883,/,615563,/,616243,/,616923,/,617603,/	t,t,t,t,t	<img class = center src='/static/experiments/beast_fmri_test/images/P.png'></img>	71,89	2750.0	test	<img class = center src='/static/experiments/beast_fmri_test/images/redP.png'></img>	stop	1600.0	2.0	19.0	stop	non-target	P	71,Green Button	89,Yellow Button	950.0	1150.0	1800.0	1600.0	0.0	0.0	1150.0	1.0	go_stim
92416.916411999962	1600.0	n/a	1128	89	2750	1078.083588	stim	stop-signal	240	617048	0.0-13.19-1.19	beast_fmri_test	314	614883,/,615563,/,616243,/,616923,/,617603,/	t,t,t,t,t	<img class = center src='/static/experiments/beast_fmri_test/images/P.png'></img>	71,89	2750.0	test	<img class = center src='/static/experiments/beast_fmri_test/images/redP.png'></img>	stop	1600.0	2.0	19.0	stop	non-target	P	71,Green Button	89,Yellow Button	950.0	1150.0	1800.0	1600.0	0.0	0.0	1150.0	1.0	stop_stim
93566.916411999962	1078.0835880000002	n/a	1128	89	2750	1078.083588	stim	stop-signal	240	617048	0.0-13.19-1.19	beast_fmri_test	314	614883,/,615563,/,616243,/,616923,/,617603,/	t,t,t,t,t	<img class = center src='/static/experiments/beast_fmri_test/images/P.png'></img>	71,89	2750.0	test	<img class = center src='/static/experiments/beast_fmri_test/images/redP.png'></img>	stop	1600.0	2.0	19.0	stop	non-target	P	71,Green Button	89,Yellow Button	950.0	1150.0	1800.0	1600.0	0.0	0.0	1150.0	1.0	ITI
96234	500	n/a	-1	-1	500	0.0	fixation	poldrack-single-stim	241	618637	0.0-13.20-0.20	beast_fmri_test	314	618283,/	t	<div class = centerbox><div class = fixation>+</div></div>	none	500.0	test	n/a	n/a	n/a	n/a	n/a	n/a	n/a	n/a	n/a	n/a	n/a	n/a	n/a	n/a	n/a	n/a	n/a	n/a	fixation
95600.147596700001	2750	n/a	1185	89	2750	635.8524033	stim	stop-signal	242	621389	0.0-13.20-1.20	beast_fmri_test	314	618963,/,619643,/,620322,/,621003,/,621684,/	t,t,t,t,t	<img class = center src='/static/experiments/beast_fmri_test/images/V.png'></img>	71,89	2750.0	test	<img class = center src='/static/experiments/beast_fmri_test/images/redV.png'></img>	go	1650.0	2.0	20.0	go	non-target	V	71,Green Button	89,Yellow Button	950.0	1100.0	1800.0	1650.0	1.0	n/a	1100.0	1.0	go_stim
98350.147596700001	635.85240329999999	n/a	1185	89	2750	635.8524033	stim	stop-signal	242	621389	0.0-13.20-1.20	beast_fmri_test	314	618963,/,619643,/,620322,/,621003,/,621684,/	t,t,t,t,t	<img class = center src='/static/experiments/beast_fmri_test/images/V.png'></img>	71,89	2750.0	test	<img class = center src='/static/experiments/beast_fmri_test/images/redV.png'></img>	go	1650.0	2.0	20.0	go	non-target	V	71,Green Button	89,Yellow Button	950.0	1100.0	1800.0	1650.0	1.0	n/a	1100.0	1.0	ITI
100133	500	n/a	-1	-1	500	0.0	fixation	poldrack-single-stim	243	622536	0.0-13.21-0.21	beast_fmri_test	314	622363,/	t	<div class = centerbox><div class = fixation>+</div></div>	none	500.0	test	n/a	n/a	n/a	n/a	n/a	n/a	n/a	n/a	n/a	n/a	n/a	n/a	n/a	n/a	n/a	n/a	n/a	n/a	fixation
99234.602000899962	2750	n/a	-1	-1	2750	901.3979991	stim	stop-signal	244	625289	0.0-13.21-1.21	beast_fmri_test	314	623043,/,623723,/,624403,/,625082,/,625762,/	t,t,t,t,t	<img class = center src='/static/experiments/beast_fmri_test/images/P.png'></img>	71,89	2750.0	test	<img class = center src='/static/experiments/beast_fmri_test/images/redP.png'></img>	go	1800.0	2.0	21.0	go	target	P	71,Green Button	89,Yellow Button	950.0	1100.0	1800.0	1650.0	0.0	n/a	950.0	0.0	go_stim
101984.60200089996	901.39799909999999	n/a	-1	-1	2750	901.3979991	stim	stop-signal	244	625289	0.0-13.21-1.21	beast_fmri_test	314	623043,/,623723,/,624403,/,625082,/,625762,/	t,t,t,t,t	<img class = center src='/static/experiments/beast_fmri_test/images/P.png'></img>	71,89	2750.0	test	<img class = center src='/static/experiments/beast_fmri_test/images/redP.png'></img>	go	1800.0	2.0	21.0	go	target	P	71,Green Button	89,Yellow Button	950.0	1100.0	1800.0	1650.0	0.0	n/a	950.0	0.0	ITI
104300	500	n/a	-1	-1	500	0.0	fixation	poldrack-single-stim	245	626703	0.0-13.22-0.22	beast_fmri_test	314	626443,/	t	<div class = centerbox><div class = fixation>+</div></div>	none	500.0	test	n/a	n/a	n/a	n/a	n/a	n/a	n/a	n/a	n/a	n/a	n/a	n/a	n/a	n/a	n/a	n/a	n/a	n/a	fixation
103769.46184040001	2750	n/a	1636	89	2750	531.5381596	stim	stop-signal	246	629454	0.0-13.22-1.22	beast_fmri_test	314	627122,/,627803,/,628482,/,629162,/,629842,/	t,t,t,t,t	<img class = center src='/static/experiments/beast_fmri_test/images/B.png'></img>	71,89	2750.0	test	<img class = center src='/static/experiments/beast_fmri_test/images/redB.png'></img>	go	1650.0	2.0	22.0	go	non-target	B	71,Green Button	89,Yellow Button	950.0	1100.0	1800.0	1650.0	1.0	n/a	1100.0	1.0	go_stim
106519.46184040001	531.53815959999997	n/a	1636	89	2750	531.5381596	stim	stop-signal	246	629454	0.0-13.22-1.22	beast_fmri_test	314	627122,/,627803,/,628482,/,629162,/,629842,/	t,t,t,t,t	<img class = center src='/static/experiments/beast_fmri_test/images/B.png'></img>	71,89	2750.0	test	<img class = center src='/static/experiments/beast_fmri_test/images/redB.png'></img>	go	1650.0	2.0	22.0	go	non-target	B	71,Green Button	89,Yellow Button	950.0	1100.0	1800.0	1650.0	1.0	n/a	1100.0	1.0	ITI
108095	500	n/a	-1	-1	500	0.0	fixation	poldrack-single-stim	247	630498	0.0-13.23-0.23	beast_fmri_test	314	n/a	n/a	<div class = centerbox><div class = fixation>+</div></div>	none	500.0	test	n/a	n/a	n/a	n/a	n/a	n/a	n/a	n/a	n/a	n/a	n/a	n/a	n/a	n/a	n/a	n/a	n/a	n/a	fixation
107037.69629800005	950.0	n/a	947	71	2750	1058.303702	stim	stop-signal	248	633249	0.0-13.23-1.23	beast_fmri_test	314	630522,/,631202,/,631883,/,632562,/,633242,/,633922,/	t,t,t,t,t,t	<img class = center src='/static/experiments/beast_fmri_test/images/P.png'></img>	71,89	2750.0	test	<img class = center src='/static/experiments/beast_fmri_test/images/redP.png'></img>	stop	1800.0	2.0	23.0	stop	target	P	71,Green Button	89,Yellow Button	950.0	1100.0	1800.0	1650.0	0.0	0.0	950.0	1.0	go_stim
108837.69629800005	1800.0	n/a	947	71	2750	1058.303702	stim	stop-signal	248	633249	0.0-13.23-1.23	beast_fmri_test	314	630522,/,631202,/,631883,/,632562,/,633242,/,633922,/	t,t,t,t,t,t	<img class = center src='/static/experiments/beast_fmri_test/images/P.png'></img>	71,89	2750.0	test	<img class = center src='/static/experiments/beast_fmri_test/images/redP.png'></img>	stop	1800.0	2.0	23.0	stop	target	P	71,Green Button	89,Yellow Button	950.0	1100.0	1800.0	1650.0	0.0	0.0	950.0	1.0	stop_stim
109787.69629800005	1058.3037019999999	n/a	947	71	2750	1058.303702	stim	stop-signal	248	633249	0.0-13.23-1.23	beast_fmri_test	314	630522,/,631202,/,631883,/,632562,/,633242,/,633922,/	t,t,t,t,t,t	<img class = center src='/static/experiments/beast_fmri_test/images/P.png'></img>	71,89	2750.0	test	<img class = center src='/static/experiments/beast_fmri_test/images/redP.png'></img>	stop	1800.0	2.0	23.0	stop	target	P	71,Green Button	89,Yellow Button	950.0	1100.0	1800.0	1650.0	0.0	0.0	950.0	1.0	ITI
112416	500	n/a	-1	-1	500	0.0	fixation	poldrack-single-stim	249	634819	0.0-13.24-0.24	beast_fmri_test	314	634602,/	t	<div class = centerbox><div class = fixation>+</div></div>	none	500.0	test	n/a	n/a	n/a	n/a	n/a	n/a	n/a	n/a	n/a	n/a	n/a	n/a	n/a	n/a	n/a	n/a	n/a	n/a	fixation
112273.6622426	1100.0	n/a	1209	89	2750	144.3377574	stim	stop-signal	250	637571	0.0-13.24-1.24	beast_fmri_test	314	635282,/,635963,/,636642,/,637322,/	t,t,t,t	<img class = center src='/static/experiments/beast_fmri_test/images/V.png'></img>	71,89	2750.0	test	<img class = center src='/static/experiments/beast_fmri_test/images/redV.png'></img>	stop	1650.0	2.0	24.0	stop	non-target	V	71,Green Button	89,Yellow Button	900.0	1100.0	1800.0	1650.0	0.0	0.0	1100.0	1.0	go_stim
113923.6622426	1650.0	n/a	1209	89	2750	144.3377574	stim	stop-signal	250	637571	0.0-13.24-1.24	beast_fmri_test	314	635282,/,635963,/,636642,/,637322,/	t,t,t,t	<img class = center src='/static/experiments/beast_fmri_test/images/V.png'></img>	71,89	2750.0	test	<img class = center src='/static/experiments/beast_fmri_test/images/redV.png'></img>	stop	1650.0	2.0	24.0	stop	non-target	V	71,Green Button	89,Yellow Button	900.0	1100.0	1800.0	1650.0	0.0	0.0	1100.0	1.0	stop_stim
115023.6622426	144.33775740000002	n/a	1209	89	2750	144.3377574	stim	stop-signal	250	637571	0.0-13.24-1.24	beast_fmri_test	314	635282,/,635963,/,636642,/,637322,/	t,t,t,t	<img class = center src='/static/experiments/beast_fmri_test/images/V.png'></img>	71,89	2750.0	test	<img class = center src='/static/experiments/beast_fmri_test/images/redV.png'></img>	stop	1650.0	2.0	24.0	stop	non-target	V	71,Green Button	89,Yellow Button	900.0	1100.0	1800.0	1650.0	0.0	0.0	1100.0	1.0	ITI
115828	500	n/a	-1	-1	500	0.0	fixation	poldrack-single-stim	251	638231	0.0-13.25-0.25	beast_fmri_test	314	638002,/	t	<div class = centerbox><div class = fixation>+</div></div>	none	500.0	test	n/a	n/a	n/a	n/a	n/a	n/a	n/a	n/a	n/a	n/a	n/a	n/a	n/a	n/a	n/a	n/a	n/a	n/a	fixation
113875.01446700003	1050.0	n/a	-1	-1	2750	1954.985533	stim	stop-signal	252	640983	0.0-13.25-1.25	beast_fmri_test	314	638682,/,639362,/,640042,/,640723,/,641402,/,642084,/,642763,/	t,t,t,t,t,t,t	<img class = center src='/static/experiments/beast_fmri_test/images/T.png'></img>	71,89	2750.0	test	<img class = center src='/static/experiments/beast_fmri_test/images/redT.png'></img>	stop	1700.0	2.0	25.0	stop	non-target	T	71,Green Button	89,Yellow Button	900.0	1050.0	1800.0	1700.0	0.0	1.0	1050.0	0.0	go_stim
115575.01446700003	1700.0	n/a	-1	-1	2750	1954.985533	stim	stop-signal	252	640983	0.0-13.25-1.25	beast_fmri_test	314	638682,/,639362,/,640042,/,640723,/,641402,/,642084,/,642763,/	t,t,t,t,t,t,t	<img class = center src='/static/experiments/beast_fmri_test/images/T.png'></img>	71,89	2750.0	test	<img class = center src='/static/experiments/beast_fmri_test/images/redT.png'></img>	stop	1700.0	2.0	25.0	stop	non-target	T	71,Green Button	89,Yellow Button	900.0	1050.0	1800.0	1700.0	0.0	1.0	1050.0	0.0	stop_stim
116625.01446700003	1954.9855329999998	n/a	-1	-1	2750	1954.985533	stim	stop-signal	252	640983	0.0-13.25-1.25	beast_fmri_test	314	638682,/,639362,/,640042,/,640723,/,641402,/,642084,/,642763,/	t,t,t,t,t,t,t	<img class = center src='/static/experiments/beast_fmri_test/images/T.png'></img>	71,89	2750.0	test	<img class = center src='/static/experiments/beast_fmri_test/images/redT.png'></img>	stop	1700.0	2.0	25.0	stop	non-target	T	71,Green Button	89,Yellow Button	900.0	1050.0	1800.0	1700.0	0.0	1.0	1050.0	0.0	ITI
121048	500	n/a	-1	-1	500	0.0	fixation	poldrack-single-stim	253	643451	0.0-13.26-0.26	beast_fmri_test	314	643443,/	t	<div class = centerbox><div class = fixation>+</div></div>	none	500.0	test	n/a	n/a	n/a	n/a	n/a	n/a	n/a	n/a	n/a	n/a	n/a	n/a	n/a	n/a	n/a	n/a	n/a	n/a	fixation
120971.85635251994	2750	n/a	1908	89	2750	77.14364748	stim	stop-signal	254	646202	0.0-13.26-1.26	beast_fmri_test	314	644123,/,644803,/,645483,/,646163,/	t,t,t,t	<img class = center src='/static/experiments/beast_fmri_test/images/B.png'></img>	71,89	2750.0	test	<img class = center src='/static/experiments/beast_fmri_test/images/redB.png'></img>	go	1650.0	2.0	26.0	go	non-target	B	71,Green Button	89,Yellow Button	900.0	1100.0	1800.0	1650.0	1.0	n/a	1100.0	1.0	go_stim
123721.85635251994	77.143647479999998	n/a	1908	89	2750	77.14364748	stim	stop-signal	254	646202	0.0-13.26-1.26	beast_fmri_test	314	644123,/,644803,/,645483,/,646163,/	t,t,t,t	<img class = center src='/static/experiments/beast_fmri_test/images/B.png'></img>	71,89	2750.0	test	<img class = center src='/static/experiments/beast_fmri_test/images/redB.png'></img>	go	1650.0	2.0	26.0	go	non-target	B	71,Green Button	89,Yellow Button	900.0	1100.0	1800.0	1650.0	1.0	n/a	1100.0	1.0	ITI
124388	500	n/a	-1	-1	500	0.0	fixation	poldrack-single-stim	255	646791	0.0-13.27-0.27	beast_fmri_test	314	n/a	n/a	<div class = centerbox><div class = fixation>+</div></div>	none	500.0	test	n/a	n/a	n/a	n/a	n/a	n/a	n/a	n/a	n/a	n/a	n/a	n/a	n/a	n/a	n/a	n/a	n/a	n/a	fixation
124096.12482340005	2750	n/a	1729	89	2750	293.8751766	stim	stop-signal	256	649543	0.0-13.27-1.27	beast_fmri_test	314	646843,/,647523,/,648203,/,648883,/,649563,/	t,t,t,t,t	<img class = center src='/static/experiments/beast_fmri_test/images/B.png'></img>	71,89	2750.0	test	<img class = center src='/static/experiments/beast_fmri_test/images/redB.png'></img>	go	1650.0	2.0	27.0	go	non-target	B	71,Green Button	89,Yellow Button	900.0	1100.0	1800.0	1650.0	1.0	n/a	1100.0	1.0	go_stim
126846.12482340005	293.87517660000003	n/a	1729	89	2750	293.8751766	stim	stop-signal	256	649543	0.0-13.27-1.27	beast_fmri_test	314	646843,/,647523,/,648203,/,648883,/,649563,/	t,t,t,t,t	<img class = center src='/static/experiments/beast_fmri_test/images/B.png'></img>	71,89	2750.0	test	<img class = center src='/static/experiments/beast_fmri_test/images/redB.png'></img>	go	1650.0	2.0	27.0	go	non-target	B	71,Green Button	89,Yellow Button	900.0	1100.0	1800.0	1650.0	1.0	n/a	1100.0	1.0	ITI
127947	500	n/a	-1	-1	500	0.0	fixation	poldrack-single-stim	257	650350	0.0-13.28-0.28	beast_fmri_test	314	650243,/	t	<div class = centerbox><div class = fixation>+</div></div>	none	500.0	test	n/a	n/a	n/a	n/a	n/a	n/a	n/a	n/a	n/a	n/a	n/a	n/a	n/a	n/a	n/a	n/a	n/a	n/a	fixation
126277.392031	2750	n/a	1242	89	2750	1670.607969	stim	stop-signal	258	653101	0.0-13.28-1.28	beast_fmri_test	314	650923,/,651603,/,652284,/,652962,/,653643,/,654323,/	t,t,t,t,t,t	<img class = center src='/static/experiments/beast_fmri_test/images/V.png'></img>	71,89	2750.0	test	<img class = center src='/static/experiments/beast_fmri_test/images/redV.png'></img>	go	1650.0	2.0	28.0	go	non-target	V	71,Green Button	89,Yellow Button	900.0	1100.0	1800.0	1650.0	1.0	n/a	1100.0	1.0	go_stim
129027.392031	1670.6079689999999	n/a	1242	89	2750	1670.607969	stim	stop-signal	258	653101	0.0-13.28-1.28	beast_fmri_test	314	650923,/,651603,/,652284,/,652962,/,653643,/,654323,/	t,t,t,t,t,t	<img class = center src='/static/experiments/beast_fmri_test/images/V.png'></img>	71,89	2750.0	test	<img class = center src='/static/experiments/beast_fmri_test/images/redV.png'></img>	go	1650.0	2.0	28.0	go	non-target	V	71,Green Button	89,Yellow Button	900.0	1100.0	1800.0	1650.0	1.0	n/a	1100.0	1.0	ITI
132881	500	n/a	-1	-1	500	0.0	fixation	poldrack-single-stim	259	655284	0.0-13.29-0.29	beast_fmri_test	314	655003,/	t	<div class = centerbox><div class = fixation>+</div></div>	none	500.0	test	n/a	n/a	n/a	n/a	n/a	n/a	n/a	n/a	n/a	n/a	n/a	n/a	n/a	n/a	n/a	n/a	n/a	n/a	fixation
129599.16331500001	1100.0	n/a	974	89	2750	3282.836685	stim	stop-signal	260	658035	0.0-13.29-1.29	beast_fmri_test	314	655683,/,656362,/,657042,/,657722,/,658403,/,659082,/,659762,/,660442,/,661122,/	t,t,t,t,t,t,t,t,t	<img class = center src='/static/experiments/beast_fmri_test/images/P.png'></img>	71,89	2750.0	test	<img class = center src='/static/experiments/beast_fmri_test/images/redP.png'></img>	stop	1650.0	2.0	29.0	stop	non-target	P	71,Green Button	89,Yellow Button	900.0	1100.0	1800.0	1650.0	0.0	0.0	1100.0	1.0	go_stim
131249.16331500001	1650.0	n/a	974	89	2750	3282.836685	stim	stop-signal	260	658035	0.0-13.29-1.29	beast_fmri_test	314	655683,/,656362,/,657042,/,657722,/,658403,/,659082,/,659762,/,660442,/,661122,/	t,t,t,t,t,t,t,t,t	<img class = center src='/static/experiments/beast_fmri_test/images/P.png'></img>	71,89	2750.0	test	<img class = center src='/static/experiments/beast_fmri_test/images/redP.png'></img>	stop	1650.0	2.0	29.0	stop	non-target	P	71,Green Button	89,Yellow Button	900.0	1100.0	1800.0	1650.0	0.0	0.0	1100.0	1.0	stop_stim
132349.16331500001	3282.8366850000002	n/a	974	89	2750	3282.836685	stim	stop-signal	260	658035	0.0-13.29-1.29	beast_fmri_test	314	655683,/,656362,/,657042,/,657722,/,658403,/,659082,/,659762,/,660442,/,661122,/	t,t,t,t,t,t,t,t,t	<img class = center src='/static/experiments/beast_fmri_test/images/P.png'></img>	71,89	2750.0	test	<img class = center src='/static/experiments/beast_fmri_test/images/redP.png'></img>	stop	1650.0	2.0	29.0	stop	non-target	P	71,Green Button	89,Yellow Button	900.0	1100.0	1800.0	1650.0	0.0	0.0	1100.0	1.0	ITI
139427	500	n/a	-1	-1	500	0.0	fixation	poldrack-single-stim	261	661830	0.0-13.30-0.30	beast_fmri_test	314	661803,/	t	<div class = centerbox><div class = fixation>+</div></div>	none	500.0	test	n/a	n/a	n/a	n/a	n/a	n/a	n/a	n/a	n/a	n/a	n/a	n/a	n/a	n/a	n/a	n/a	n/a	n/a	fixation
137261.87635399995	2750	n/a	2042	89	2750	2166.123646	stim	stop-signal	262	664581	0.0-13.30-1.30	beast_fmri_test	314	662483,/,663162,/,663842,/,664522,/,665203,/,665882,/,666562,/	t,t,t,t,t,t,t	<img class = center src='/static/experiments/beast_fmri_test/images/T.png'></img>	71,89	2750.0	test	<img class = center src='/static/experiments/beast_fmri_test/images/redT.png'></img>	go	1700.0	2.0	30.0	go	non-target	T	71,Green Button	89,Yellow Button	900.0	1050.0	1800.0	1700.0	1.0	n/a	1050.0	1.0	go_stim
140011.87635399995	2166.123646	n/a	2042	89	2750	2166.123646	stim	stop-signal	262	664581	0.0-13.30-1.30	beast_fmri_test	314	662483,/,663162,/,663842,/,664522,/,665203,/,665882,/,666562,/	t,t,t,t,t,t,t	<img class = center src='/static/experiments/beast_fmri_test/images/T.png'></img>	71,89	2750.0	test	<img class = center src='/static/experiments/beast_fmri_test/images/redT.png'></img>	go	1700.0	2.0	30.0	go	non-target	T	71,Green Button	89,Yellow Button	900.0	1050.0	1800.0	1700.0	1.0	n/a	1050.0	1.0	ITI
144858	500	n/a	-1	-1	500	0.0	fixation	poldrack-single-stim	263	667261	0.0-13.31-0.31	beast_fmri_test	314	667242,/	t	<div class = centerbox><div class = fixation>+</div></div>	none	500.0	test	n/a	n/a	n/a	n/a	n/a	n/a	n/a	n/a	n/a	n/a	n/a	n/a	n/a	n/a	n/a	n/a	n/a	n/a	fixation
144223.37829739996	2750	n/a	759	89	2750	635.6217026	stim	stop-signal	264	670012	0.0-13.31-1.31	beast_fmri_test	314	667923,/,668602,/,669282,/,669962,/,670642,/	t,t,t,t,t	<img class = center src='/static/experiments/beast_fmri_test/images/V.png'></img>	71,89	2750.0	test	<img class = center src='/static/experiments/beast_fmri_test/images/redV.png'></img>	go	1700.0	2.0	31.0	go	non-target	V	71,Green Button	89,Yellow Button	900.0	1050.0	1800.0	1700.0	1.0	n/a	1050.0	1.0	go_stim
146973.37829739996	635.62170260000005	n/a	759	89	2750	635.6217026	stim	stop-signal	264	670012	0.0-13.31-1.31	beast_fmri_test	314	667923,/,668602,/,669282,/,669962,/,670642,/	t,t,t,t,t	<img class = center src='/static/experiments/beast_fmri_test/images/V.png'></img>	71,89	2750.0	test	<img class = center src='/static/experiments/beast_fmri_test/images/redV.png'></img>	go	1700.0	2.0	31.0	go	non-target	V	71,Green Button	89,Yellow Button	900.0	1050.0	1800.0	1700.0	1.0	n/a	1050.0	1.0	ITI
148757	500	n/a	-1	-1	500	0.0	fixation	poldrack-single-stim	265	671160	0.0-13.32-0.32	beast_fmri_test	314	n/a	n/a	<div class = centerbox><div class = fixation>+</div></div>	none	500.0	test	n/a	n/a	n/a	n/a	n/a	n/a	n/a	n/a	n/a	n/a	n/a	n/a	n/a	n/a	n/a	n/a	n/a	n/a	fixation
146551.21390099998	2750	n/a	861	89	2750	2207.786099	stim	stop-signal	266	673912	0.0-13.32-1.32	beast_fmri_test	314	671322,/,672002,/,672683,/,673362,/,674042,/,674723,/,675403,/,676083,/	t,t,t,t,t,t,t,t	<img class = center src='/static/experiments/beast_fmri_test/images/B.png'></img>	71,89	2750.0	test	<img class = center src='/static/experiments/beast_fmri_test/images/redB.png'></img>	go	1700.0	2.0	32.0	go	non-target	B	71,Green Button	89,Yellow Button	900.0	1050.0	1800.0	1700.0	1.0	n/a	1050.0	1.0	go_stim
149301.21390099998	2207.7860989999999	n/a	861	89	2750	2207.786099	stim	stop-signal	266	673912	0.0-13.32-1.32	beast_fmri_test	314	671322,/,672002,/,672683,/,673362,/,674042,/,674723,/,675403,/,676083,/	t,t,t,t,t,t,t,t	<img class = center src='/static/experiments/beast_fmri_test/images/B.png'></img>	71,89	2750.0	test	<img class = center src='/static/experiments/beast_fmri_test/images/redB.png'></img>	go	1700.0	2.0	32.0	go	non-target	B	71,Green Button	89,Yellow Button	900.0	1050.0	1800.0	1700.0	1.0	n/a	1050.0	1.0	ITI
154231	500	n/a	-1	-1	500	0.0	fixation	poldrack-single-stim	267	676634	0.0-13.33-0.33	beast_fmri_test	314	n/a	n/a	<div class = centerbox><div class = fixation>+</div></div>	none	500.0	test	n/a	n/a	n/a	n/a	n/a	n/a	n/a	n/a	n/a	n/a	n/a	n/a	n/a	n/a	n/a	n/a	n/a	n/a	fixation
153509.64327170001	2750	n/a	1313	71	2750	723.3567283	stim	stop-signal	268	679386	0.0-13.33-1.33	beast_fmri_test	314	676763,/,677443,/,678123,/,678803,/,679483,/	t,t,t,t,t	<img class = center src='/static/experiments/beast_fmri_test/images/V.png'></img>	71,89	2750.0	test	<img class = center src='/static/experiments/beast_fmri_test/images/redV.png'></img>	go	1850.0	2.0	33.0	go	target	V	71,Green Button	89,Yellow Button	900.0	1050.0	1850.0	1700.0	1.0	n/a	900.0	1.0	go_stim
156259.64327170001	723.35672829999999	n/a	1313	71	2750	723.3567283	stim	stop-signal	268	679386	0.0-13.33-1.33	beast_fmri_test	314	676763,/,677443,/,678123,/,678803,/,679483,/	t,t,t,t,t	<img class = center src='/static/experiments/beast_fmri_test/images/V.png'></img>	71,89	2750.0	test	<img class = center src='/static/experiments/beast_fmri_test/images/redV.png'></img>	go	1850.0	2.0	33.0	go	target	V	71,Green Button	89,Yellow Button	900.0	1050.0	1850.0	1700.0	1.0	n/a	900.0	1.0	ITI
158219	500	n/a	-1	-1	500	0.0	fixation	poldrack-single-stim	269	680622	0.0-13.34-0.34	beast_fmri_test	314	680163,/	t	<div class = centerbox><div class = fixation>+</div></div>	none	500.0	test	n/a	n/a	n/a	n/a	n/a	n/a	n/a	n/a	n/a	n/a	n/a	n/a	n/a	n/a	n/a	n/a	n/a	n/a	fixation
157492.69225910003	900.0	n/a	1101	71	2750	727.3077409	stim	stop-signal	270	683373	0.0-13.34-1.34	beast_fmri_test	314	680843,/,681524,/,682203,/,682884,/,683563,/	t,t,t,t,t	<img class = center src='/static/experiments/beast_fmri_test/images/B.png'></img>	71,89	2750.0	test	<img class = center src='/static/experiments/beast_fmri_test/images/redB.png'></img>	stop	1850.0	2.0	34.0	stop	target	B	71,Green Button	89,Yellow Button	900.0	1050.0	1850.0	1700.0	0.0	0.0	900.0	1.0	go_stim
159342.69225910003	1850.0	n/a	1101	71	2750	727.3077409	stim	stop-signal	270	683373	0.0-13.34-1.34	beast_fmri_test	314	680843,/,681524,/,682203,/,682884,/,683563,/	t,t,t,t,t	<img class = center src='/static/experiments/beast_fmri_test/images/B.png'></img>	71,89	2750.0	test	<img class = center src='/static/experiments/beast_fmri_test/images/redB.png'></img>	stop	1850.0	2.0	34.0	stop	target	B	71,Green Button	89,Yellow Button	900.0	1050.0	1850.0	1700.0	0.0	0.0	900.0	1.0	stop_stim
160242.69225910003	727.3077409	n/a	1101	71	2750	727.3077409	stim	stop-signal	270	683373	0.0-13.34-1.34	beast_fmri_test	314	680843,/,681524,/,682203,/,682884,/,683563,/	t,t,t,t,t	<img class = center src='/static/experiments/beast_fmri_test/images/B.png'></img>	71,89	2750.0	test	<img class = center src='/static/experiments/beast_fmri_test/images/redB.png'></img>	stop	1850.0	2.0	34.0	stop	target	B	71,Green Button	89,Yellow Button	900.0	1050.0	1850.0	1700.0	0.0	0.0	900.0	1.0	ITI
162210	500	n/a	-1	-1	500	0.0	fixation	poldrack-single-stim	271	684613	0.0-13.35-0.35	beast_fmri_test	314	684243,/	t	<div class = centerbox><div class = fixation>+</div></div>	none	500.0	test	n/a	n/a	n/a	n/a	n/a	n/a	n/a	n/a	n/a	n/a	n/a	n/a	n/a	n/a	n/a	n/a	n/a	n/a	fixation
160367.03393999999	2750	n/a	1648	89	2750	1844.96606	stim	stop-signal	272	687365	0.0-13.35-1.35	beast_fmri_test	314	684923,/,685603,/,686283,/,686963,/,687643,/,688323,/,689003,/	t,t,t,t,t,t,t	<img class = center src='/static/experiments/beast_fmri_test/images/T.png'></img>	71,89	2750.0	test	<img class = center src='/static/experiments/beast_fmri_test/images/redT.png'></img>	go	1700.0	2.0	35.0	go	non-target	T	71,Green Button	89,Yellow Button	850.0	1050.0	1850.0	1700.0	1.0	n/a	1050.0	1.0	go_stim
163117.03393999999	1844.9660600000002	n/a	1648	89	2750	1844.96606	stim	stop-signal	272	687365	0.0-13.35-1.35	beast_fmri_test	314	684923,/,685603,/,686283,/,686963,/,687643,/,688323,/,689003,/	t,t,t,t,t,t,t	<img class = center src='/static/experiments/beast_fmri_test/images/T.png'></img>	71,89	2750.0	test	<img class = center src='/static/experiments/beast_fmri_test/images/redT.png'></img>	go	1700.0	2.0	35.0	go	non-target	T	71,Green Button	89,Yellow Button	850.0	1050.0	1850.0	1700.0	1.0	n/a	1050.0	1.0	ITI
167321	500	n/a	-1	-1	500	0.0	fixation	poldrack-single-stim	273	689724	0.0-13.36-0.36	beast_fmri_test	314	689682,/	t	<div class = centerbox><div class = fixation>+</div></div>	none	500.0	test	n/a	n/a	n/a	n/a	n/a	n/a	n/a	n/a	n/a	n/a	n/a	n/a	n/a	n/a	n/a	n/a	n/a	n/a	fixation
166107.93313000002	2750	n/a	785	71	2750	1215.06687	stim	stop-signal	274	692476	0.0-13.36-1.36	beast_fmri_test	314	690363,/,691042,/,691723,/,692402,/,693083,/	t,t,t,t,t	<img class = center src='/static/experiments/beast_fmri_test/images/B.png'></img>	71,89	2750.0	test	<img class = center src='/static/experiments/beast_fmri_test/images/redB.png'></img>	go	1900.0	2.0	36.0	go	target	B	71,Green Button	89,Yellow Button	850.0	1050.0	1900.0	1700.0	1.0	n/a	850.0	1.0	go_stim
168857.93313000002	1215.0668699999999	n/a	785	71	2750	1215.06687	stim	stop-signal	274	692476	0.0-13.36-1.36	beast_fmri_test	314	690363,/,691042,/,691723,/,692402,/,693083,/	t,t,t,t,t	<img class = center src='/static/experiments/beast_fmri_test/images/B.png'></img>	71,89	2750.0	test	<img class = center src='/static/experiments/beast_fmri_test/images/redB.png'></img>	go	1900.0	2.0	36.0	go	target	B	71,Green Button	89,Yellow Button	850.0	1050.0	1900.0	1700.0	1.0	n/a	850.0	1.0	ITI
171802	500	n/a	-1	-1	500	0.0	fixation	poldrack-single-stim	275	694205	0.0-13.37-0.37	beast_fmri_test	314	693763,/	t	<div class = centerbox><div class = fixation>+</div></div>	none	500.0	test	n/a	n/a	n/a	n/a	n/a	n/a	n/a	n/a	n/a	n/a	n/a	n/a	n/a	n/a	n/a	n/a	n/a	n/a	fixation
167861.21655899996	1050.0	n/a	1142	89	2750	3942.783441	stim	stop-signal	276	696957	0.0-13.37-1.37	beast_fmri_test	314	694442,/,695123,/,695802,/,696482,/,697162,/,697842,/,698522,/,699202,/,699882,/,700562,/	t,t,t,t,t,t,t,t,t,t	<img class = center src='/static/experiments/beast_fmri_test/images/B.png'></img>	71,89	2750.0	test	<img class = center src='/static/experiments/beast_fmri_test/images/redB.png'></img>	stop	1700.0	2.0	37.0	stop	non-target	B	71,Green Button	89,Yellow Button	850.0	1050.0	1900.0	1700.0	0.0	0.0	1050.0	1.0	go_stim
169561.21655899996	1700.0	n/a	1142	89	2750	3942.783441	stim	stop-signal	276	696957	0.0-13.37-1.37	beast_fmri_test	314	694442,/,695123,/,695802,/,696482,/,697162,/,697842,/,698522,/,699202,/,699882,/,700562,/	t,t,t,t,t,t,t,t,t,t	<img class = center src='/static/experiments/beast_fmri_test/images/B.png'></img>	71,89	2750.0	test	<img class = center src='/static/experiments/beast_fmri_test/images/redB.png'></img>	stop	1700.0	2.0	37.0	stop	non-target	B	71,Green Button	89,Yellow Button	850.0	1050.0	1900.0	1700.0	0.0	0.0	1050.0	1.0	stop_stim
170611.21655899996	3942.7834409999996	n/a	1142	89	2750	3942.783441	stim	stop-signal	276	696957	0.0-13.37-1.37	beast_fmri_test	314	694442,/,695123,/,695802,/,696482,/,697162,/,697842,/,698522,/,699202,/,699882,/,700562,/	t,t,t,t,t,t,t,t,t,t	<img class = center src='/static/experiments/beast_fmri_test/images/B.png'></img>	71,89	2750.0	test	<img class = center src='/static/experiments/beast_fmri_test/images/redB.png'></img>	stop	1700.0	2.0	37.0	stop	non-target	B	71,Green Button	89,Yellow Button	850.0	1050.0	1900.0	1700.0	0.0	0.0	1050.0	1.0	ITI
179009	500	n/a	-1	-1	500	0.0	fixation	poldrack-single-stim	277	701412	0.0-13.38-0.38	beast_fmri_test	314	701242,/	t	<div class = centerbox><div class = fixation>+</div></div>	none	500.0	test	n/a	n/a	n/a	n/a	n/a	n/a	n/a	n/a	n/a	n/a	n/a	n/a	n/a	n/a	n/a	n/a	n/a	n/a	fixation
178984.25557826005	2750	n/a	1841	89	2750	25.74442174	stim	stop-signal	278	704163	0.0-13.38-1.38	beast_fmri_test	314	701922,/,702602,/,703282,/,703962,/	t,t,t,t	<img class = center src='/static/experiments/beast_fmri_test/images/V.png'></img>	71,89	2750.0	test	<img class = center src='/static/experiments/beast_fmri_test/images/redV.png'></img>	go	1750.0	2.0	38.0	go	non-target	V	71,Green Button	89,Yellow Button	850.0	1000.0	1900.0	1750.0	1.0	n/a	1000.0	1.0	go_stim
181734.25557826005	25.74442174	n/a	1841	89	2750	25.74442174	stim	stop-signal	278	704163	0.0-13.38-1.38	beast_fmri_test	314	701922,/,702602,/,703282,/,703962,/	t,t,t,t	<img class = center src='/static/experiments/beast_fmri_test/images/V.png'></img>	71,89	2750.0	test	<img class = center src='/static/experiments/beast_fmri_test/images/redV.png'></img>	go	1750.0	2.0	38.0	go	non-target	V	71,Green Button	89,Yellow Button	850.0	1000.0	1900.0	1750.0	1.0	n/a	1000.0	1.0	ITI
182299	500	n/a	-1	-1	500	0.0	fixation	poldrack-single-stim	279	704702	0.0-13.39-0.39	beast_fmri_test	314	704643,/	t	<div class = centerbox><div class = fixation>+</div></div>	none	500.0	test	n/a	n/a	n/a	n/a	n/a	n/a	n/a	n/a	n/a	n/a	n/a	n/a	n/a	n/a	n/a	n/a	n/a	n/a	fixation
182258.65873419004	2750	n/a	1307	71	2750	42.34126581	stim	stop-signal	280	707454	0.0-13.39-1.39	beast_fmri_test	314	705322,/,706002,/,706682,/,707362,/	t,t,t,t	<img class = center src='/static/experiments/beast_fmri_test/images/B.png'></img>	71,89	2750.0	test	<img class = center src='/static/experiments/beast_fmri_test/images/redB.png'></img>	go	1900.0	2.0	39.0	go	target	B	71,Green Button	89,Yellow Button	850.0	1000.0	1900.0	1750.0	1.0	n/a	850.0	1.0	go_stim
185008.65873419004	42.341265810000003	n/a	1307	71	2750	42.34126581	stim	stop-signal	280	707454	0.0-13.39-1.39	beast_fmri_test	314	705322,/,706002,/,706682,/,707362,/	t,t,t,t	<img class = center src='/static/experiments/beast_fmri_test/images/B.png'></img>	71,89	2750.0	test	<img class = center src='/static/experiments/beast_fmri_test/images/redB.png'></img>	go	1900.0	2.0	39.0	go	target	B	71,Green Button	89,Yellow Button	850.0	1000.0	1900.0	1750.0	1.0	n/a	850.0	1.0	ITI
185607	500	n/a	-1	-1	500	0.0	fixation	poldrack-single-stim	281	708010	0.0-13.40-0.40	beast_fmri_test	314	n/a	n/a	<div class = centerbox><div class = fixation>+</div></div>	none	500.0	test	n/a	n/a	n/a	n/a	n/a	n/a	n/a	n/a	n/a	n/a	n/a	n/a	n/a	n/a	n/a	n/a	n/a	n/a	fixation
185004.52040919999	1000.0	n/a	946	89	2750	603.4795908	stim	stop-signal	282	710761	0.0-13.40-1.40	beast_fmri_test	314	708043,/,708723,/,709403,/,710083,/,710763,/	t,t,t,t,t	<img class = center src='/static/experiments/beast_fmri_test/images/D.png'></img>	71,89	2750.0	test	<img class = center src='/static/experiments/beast_fmri_test/images/redD.png'></img>	stop	1750.0	2.0	40.0	stop	non-target	D	71,Green Button	89,Yellow Button	850.0	1000.0	1900.0	1750.0	0.0	0.0	1000.0	1.0	go_stim
186754.52040919999	1750.0	n/a	946	89	2750	603.4795908	stim	stop-signal	282	710761	0.0-13.40-1.40	beast_fmri_test	314	708043,/,708723,/,709403,/,710083,/,710763,/	t,t,t,t,t	<img class = center src='/static/experiments/beast_fmri_test/images/D.png'></img>	71,89	2750.0	test	<img class = center src='/static/experiments/beast_fmri_test/images/redD.png'></img>	stop	1750.0	2.0	40.0	stop	non-target	D	71,Green Button	89,Yellow Button	850.0	1000.0	1900.0	1750.0	0.0	0.0	1000.0	1.0	stop_stim
187754.52040919999	603.47959079999998	n/a	946	89	2750	603.4795908	stim	stop-signal	282	710761	0.0-13.40-1.40	beast_fmri_test	314	708043,/,708723,/,709403,/,710083,/,710763,/	t,t,t,t,t	<img class = center src='/static/experiments/beast_fmri_test/images/D.png'></img>	71,89	2750.0	test	<img class = center src='/static/experiments/beast_fmri_test/images/redD.png'></img>	stop	1750.0	2.0	40.0	stop	non-target	D	71,Green Button	89,Yellow Button	850.0	1000.0	1900.0	1750.0	0.0	0.0	1000.0	1.0	ITI
189473	500	n/a	-1	-1	500	0.0	fixation	poldrack-single-stim	283	711876	0.0-13.41-0.41	beast_fmri_test	314	711443,/	t	<div class = centerbox><div class = fixation>+</div></div>	none	500.0	test	n/a	n/a	n/a	n/a	n/a	n/a	n/a	n/a	n/a	n/a	n/a	n/a	n/a	n/a	n/a	n/a	n/a	n/a	fixation
186548.02403099998	2750	n/a	1794	89	2750	2925.975969	stim	stop-signal	284	714627	0.0-13.41-1.41	beast_fmri_test	314	712123,/,712803,/,713483,/,714163,/,714843,/,715523,/,716203,/,716883,/	t,t,t,t,t,t,t,t	<img class = center src='/static/experiments/beast_fmri_test/images/D.png'></img>	71,89	2750.0	test	<img class = center src='/static/experiments/beast_fmri_test/images/redD.png'></img>	go	1800.0	2.0	41.0	go	non-target	D	71,Green Button	89,Yellow Button	850.0	950.0	1900.0	1800.0	1.0	n/a	950.0	1.0	go_stim
189298.02403099998	2925.9759690000001	n/a	1794	89	2750	2925.975969	stim	stop-signal	284	714627	0.0-13.41-1.41	beast_fmri_test	314	712123,/,712803,/,713483,/,714163,/,714843,/,715523,/,716203,/,716883,/	t,t,t,t,t,t,t,t	<img class = center src='/static/experiments/beast_fmri_test/images/D.png'></img>	71,89	2750.0	test	<img class = center src='/static/experiments/beast_fmri_test/images/redD.png'></img>	go	1800.0	2.0	41.0	go	non-target	D	71,Green Button	89,Yellow Button	850.0	950.0	1900.0	1800.0	1.0	n/a	950.0	1.0	ITI
195662	500	n/a	-1	-1	500	0.0	fixation	poldrack-single-stim	285	718065	0.0-13.42-0.42	beast_fmri_test	314	717565,/	t	<div class = centerbox><div class = fixation>+</div></div>	none	500.0	test	n/a	n/a	n/a	n/a	n/a	n/a	n/a	n/a	n/a	n/a	n/a	n/a	n/a	n/a	n/a	n/a	n/a	n/a	fixation
195581.80700896995	2750	n/a	891	89	2750	81.19299103	stim	stop-signal	286	720816	0.0-13.42-1.42	beast_fmri_test	314	718243,/,718923,/,719603,/,720283,/	t,t,t,t	<img class = center src='/static/experiments/beast_fmri_test/images/T.png'></img>	71,89	2750.0	test	<img class = center src='/static/experiments/beast_fmri_test/images/redT.png'></img>	go	1800.0	2.0	42.0	go	non-target	T	71,Green Button	89,Yellow Button	850.0	950.0	1900.0	1800.0	1.0	n/a	950.0	1.0	go_stim
198331.80700896995	81.192991030000002	n/a	891	89	2750	81.19299103	stim	stop-signal	286	720816	0.0-13.42-1.42	beast_fmri_test	314	718243,/,718923,/,719603,/,720283,/	t,t,t,t	<img class = center src='/static/experiments/beast_fmri_test/images/T.png'></img>	71,89	2750.0	test	<img class = center src='/static/experiments/beast_fmri_test/images/redT.png'></img>	go	1800.0	2.0	42.0	go	non-target	T	71,Green Button	89,Yellow Button	850.0	950.0	1900.0	1800.0	1.0	n/a	950.0	1.0	ITI
199009	500	n/a	-1	-1	500	0.0	fixation	poldrack-single-stim	287	721412	0.0-13.43-0.43	beast_fmri_test	314	720963,/	t	<div class = centerbox><div class = fixation>+</div></div>	none	500.0	test	n/a	n/a	n/a	n/a	n/a	n/a	n/a	n/a	n/a	n/a	n/a	n/a	n/a	n/a	n/a	n/a	n/a	n/a	fixation
198227.81840230001	2750	n/a	1588	89	2750	783.1815977	stim	stop-signal	288	724164	0.0-13.43-1.43	beast_fmri_test	314	721643,/,722323,/,723003,/,723683,/,724362,/	t,t,t,t,t	<img class = center src='/static/experiments/beast_fmri_test/images/B.png'></img>	71,89	2750.0	test	<img class = center src='/static/experiments/beast_fmri_test/images/redB.png'></img>	go	1800.0	2.0	43.0	go	non-target	B	71,Green Button	89,Yellow Button	850.0	950.0	1900.0	1800.0	1.0	n/a	950.0	1.0	go_stim
200977.81840230001	783.18159770000011	n/a	1588	89	2750	783.1815977	stim	stop-signal	288	724164	0.0-13.43-1.43	beast_fmri_test	314	721643,/,722323,/,723003,/,723683,/,724362,/	t,t,t,t,t	<img class = center src='/static/experiments/beast_fmri_test/images/B.png'></img>	71,89	2750.0	test	<img class = center src='/static/experiments/beast_fmri_test/images/redB.png'></img>	go	1800.0	2.0	43.0	go	non-target	B	71,Green Button	89,Yellow Button	850.0	950.0	1900.0	1800.0	1.0	n/a	950.0	1.0	ITI
203056	500	n/a	-1	-1	500	0.0	fixation	poldrack-single-stim	289	725459	0.0-13.44-0.44	beast_fmri_test	314	725043,/	t	<div class = centerbox><div class = fixation>+</div></div>	none	500.0	test	n/a	n/a	n/a	n/a	n/a	n/a	n/a	n/a	n/a	n/a	n/a	n/a	n/a	n/a	n/a	n/a	n/a	n/a	fixation
203037.12922245997	2750	n/a	1367	89	2750	19.87077754	stim	stop-signal	290	728210	0.0-13.44-1.44	beast_fmri_test	314	725723,/,726403,/,727082,/,727762,/	t,t,t,t	<img class = center src='/static/experiments/beast_fmri_test/images/B.png'></img>	71,89	2750.0	test	<img class = center src='/static/experiments/beast_fmri_test/images/redB.png'></img>	go	1800.0	2.0	44.0	go	non-target	B	71,Green Button	89,Yellow Button	850.0	950.0	1900.0	1800.0	1.0	n/a	950.0	1.0	go_stim
205787.12922245997	19.870777539999999	n/a	1367	89	2750	19.87077754	stim	stop-signal	290	728210	0.0-13.44-1.44	beast_fmri_test	314	725723,/,726403,/,727082,/,727762,/	t,t,t,t	<img class = center src='/static/experiments/beast_fmri_test/images/B.png'></img>	71,89	2750.0	test	<img class = center src='/static/experiments/beast_fmri_test/images/redB.png'></img>	go	1800.0	2.0	44.0	go	non-target	B	71,Green Button	89,Yellow Button	850.0	950.0	1900.0	1800.0	1.0	n/a	950.0	1.0	ITI
206339	500	n/a	-1	-1	500	0.0	fixation	poldrack-single-stim	291	728742	0.0-13.45-0.45	beast_fmri_test	314	728442,/	t	<div class = centerbox><div class = fixation>+</div></div>	none	500.0	test	n/a	n/a	n/a	n/a	n/a	n/a	n/a	n/a	n/a	n/a	n/a	n/a	n/a	n/a	n/a	n/a	n/a	n/a	fixation
204175.43699800002	2750	n/a	1153	71	2750	2165.563002	stim	stop-signal	292	731494	0.0-13.45-1.45	beast_fmri_test	314	729122,/,729802,/,730482,/,731163,/,731843,/,732522,/,733202,/	t,t,t,t,t,t,t	<img class = center src='/static/experiments/beast_fmri_test/images/B.png'></img>	71,89	2750.0	test	<img class = center src='/static/experiments/beast_fmri_test/images/redB.png'></img>	go	1900.0	2.0	45.0	go	target	B	71,Green Button	89,Yellow Button	850.0	950.0	1900.0	1800.0	1.0	n/a	850.0	1.0	go_stim
206925.43699800002	2165.5630019999999	n/a	1153	71	2750	2165.563002	stim	stop-signal	292	731494	0.0-13.45-1.45	beast_fmri_test	314	729122,/,729802,/,730482,/,731163,/,731843,/,732522,/,733202,/	t,t,t,t,t,t,t	<img class = center src='/static/experiments/beast_fmri_test/images/B.png'></img>	71,89	2750.0	test	<img class = center src='/static/experiments/beast_fmri_test/images/redB.png'></img>	go	1900.0	2.0	45.0	go	target	B	71,Green Button	89,Yellow Button	850.0	950.0	1900.0	1800.0	1.0	n/a	850.0	1.0	ITI
211770	500	n/a	-1	-1	500	0.0	fixation	poldrack-single-stim	293	734173	0.0-13.46-0.46	beast_fmri_test	314	733884,/	t	<div class = centerbox><div class = fixation>+</div></div>	none	500.0	test	n/a	n/a	n/a	n/a	n/a	n/a	n/a	n/a	n/a	n/a	n/a	n/a	n/a	n/a	n/a	n/a	n/a	n/a	fixation
209474.56666200003	950.0	n/a	-1	-1	2750	2297.433338	stim	stop-signal	294	736925	0.0-13.46-1.46	beast_fmri_test	314	734562,/,735242,/,735922,/,736602,/,737282,/,737962,/,738642,/	t,t,t,t,t,t,t	<img class = center src='/static/experiments/beast_fmri_test/images/D.png'></img>	71,89	2750.0	test	<img class = center src='/static/experiments/beast_fmri_test/images/redD.png'></img>	stop	1800.0	2.0	46.0	stop	non-target	D	71,Green Button	89,Yellow Button	850.0	950.0	1900.0	1800.0	0.0	1.0	950.0	0.0	go_stim
211274.56666200003	1800.0	n/a	-1	-1	2750	2297.433338	stim	stop-signal	294	736925	0.0-13.46-1.46	beast_fmri_test	314	734562,/,735242,/,735922,/,736602,/,737282,/,737962,/,738642,/	t,t,t,t,t,t,t	<img class = center src='/static/experiments/beast_fmri_test/images/D.png'></img>	71,89	2750.0	test	<img class = center src='/static/experiments/beast_fmri_test/images/redD.png'></img>	stop	1800.0	2.0	46.0	stop	non-target	D	71,Green Button	89,Yellow Button	850.0	950.0	1900.0	1800.0	0.0	1.0	950.0	0.0	stop_stim
212224.56666200003	2297.4333379999998	n/a	-1	-1	2750	2297.433338	stim	stop-signal	294	736925	0.0-13.46-1.46	beast_fmri_test	314	734562,/,735242,/,735922,/,736602,/,737282,/,737962,/,738642,/	t,t,t,t,t,t,t	<img class = center src='/static/experiments/beast_fmri_test/images/D.png'></img>	71,89	2750.0	test	<img class = center src='/static/experiments/beast_fmri_test/images/redD.png'></img>	stop	1800.0	2.0	46.0	stop	non-target	D	71,Green Button	89,Yellow Button	850.0	950.0	1900.0	1800.0	0.0	1.0	950.0	0.0	ITI
231833	15000	n/a	-1	-1	15000	0.0	practice-no-stop-feedback	poldrack-single-stim	295	754236	0.0-14.0	beast_fmri_test	314	739322,/,740002,/,740682,/,741363,/,742043,/,742723,/,743403,/,744084,/,744763,/,745443,/,746123,/,746803,/,747483,/,748163,/,748843,/,749523,/,750203,/,750883,/,751563,/,752243,/,752923,/,753603,/	t,t,t,t,t,t,t,t,t,t,t,t,t,t,t,t,t,t,t,t,t,t	"<div class = ""centerbox""><p class = ""center-block-text"">Your delay is 3 trials.</p><p class = center-block-text>Please wait for the scanner to start the block</p></div>"	77	15000.0	n/a	n/a	n/a	n/a	n/a	n/a	n/a	n/a	n/a	n/a	n/a	n/a	n/a	n/a	n/a	n/a	n/a	n/a	n/a	practice-no-stop-feedback
232335	500	n/a	-1	-1	500	0.0	fixation	poldrack-single-stim	296	754738	0.0-15.0-0.0	beast_fmri_test	314	754284,/	t	<div class = centerbox><div class = fixation>+</div></div>	none	500.0	test	n/a	n/a	n/a	n/a	n/a	n/a	n/a	n/a	n/a	n/a	n/a	n/a	n/a	n/a	n/a	n/a	n/a	n/a	fixation
231722.31044949999	2750	n/a	1290	89	2750	613.6895505	stim	stop-signal	297	757489	0.0-15.0-1.0	beast_fmri_test	314	754963,/,755643,/,756323,/,757002,/,757683,/	t,t,t,t,t	<img class = center src='/static/experiments/beast_fmri_test/images/D.png'></img>	71,89	2750.0	test	<img class = center src='/static/experiments/beast_fmri_test/images/redD.png'></img>	go	-1.0	3.0	0.0	go	temp-non-target	D	71,Green Button	89,Yellow Button	850.0	1000.0	1900.0	1800.0	0.0	n/a	n/a	n/a	go_stim
234472.31044949999	613.6895505	n/a	1290	89	2750	613.6895505	stim	stop-signal	297	757489	0.0-15.0-1.0	beast_fmri_test	314	754963,/,755643,/,756323,/,757002,/,757683,/	t,t,t,t,t	<img class = center src='/static/experiments/beast_fmri_test/images/D.png'></img>	71,89	2750.0	test	<img class = center src='/static/experiments/beast_fmri_test/images/redD.png'></img>	go	-1.0	3.0	0.0	go	temp-non-target	D	71,Green Button	89,Yellow Button	850.0	1000.0	1900.0	1800.0	0.0	n/a	n/a	n/a	ITI
236212	500	n/a	-1	-1	500	0.0	fixation	poldrack-single-stim	298	758615	0.0-15.1-0.1	beast_fmri_test	314	758363,/	t	<div class = centerbox><div class = fixation>+</div></div>	none	500.0	test	n/a	n/a	n/a	n/a	n/a	n/a	n/a	n/a	n/a	n/a	n/a	n/a	n/a	n/a	n/a	n/a	n/a	n/a	fixation
235274.58513280004	2750	n/a	1146	89	2750	939.4148672	stim	stop-signal	299	761367	0.0-15.1-1.1	beast_fmri_test	314	759043,/,759723,/,760402,/,761082,/,761762,/	t,t,t,t,t	<img class = center src='/static/experiments/beast_fmri_test/images/V.png'></img>	71,89	2750.0	test	<img class = center src='/static/experiments/beast_fmri_test/images/redV.png'></img>	go	-1.0	3.0	1.0	go	temp-non-target	V	71,Green Button	89,Yellow Button	850.0	1000.0	1900.0	1800.0	0.0	n/a	n/a	n/a	go_stim
238024.58513280004	939.4148672	n/a	1146	89	2750	939.4148672	stim	stop-signal	299	761367	0.0-15.1-1.1	beast_fmri_test	314	759043,/,759723,/,760402,/,761082,/,761762,/	t,t,t,t,t	<img class = center src='/static/experiments/beast_fmri_test/images/V.png'></img>	71,89	2750.0	test	<img class = center src='/static/experiments/beast_fmri_test/images/redV.png'></img>	go	-1.0	3.0	1.0	go	temp-non-target	V	71,Green Button	89,Yellow Button	850.0	1000.0	1900.0	1800.0	0.0	n/a	n/a	n/a	ITI
240418	500	n/a	-1	-1	500	0.0	fixation	poldrack-single-stim	300	762821	0.0-15.2-0.2	beast_fmri_test	314	762442,/	t	<div class = centerbox><div class = fixation>+</div></div>	none	500.0	test	n/a	n/a	n/a	n/a	n/a	n/a	n/a	n/a	n/a	n/a	n/a	n/a	n/a	n/a	n/a	n/a	n/a	n/a	fixation
239763.87830780004	2750	n/a	1799	89	2750	656.1216922	stim	stop-signal	301	765573	0.0-15.2-1.2	beast_fmri_test	314	763122,/,763802,/,764483,/,765162,/,765843,/	t,t,t,t,t	<img class = center src='/static/experiments/beast_fmri_test/images/P.png'></img>	71,89	2750.0	test	<img class = center src='/static/experiments/beast_fmri_test/images/redP.png'></img>	go	-1.0	3.0	2.0	go	temp-non-target	P	71,Green Button	89,Yellow Button	850.0	1000.0	1900.0	1800.0	0.0	n/a	n/a	n/a	go_stim
242513.87830780004	656.12169219999998	n/a	1799	89	2750	656.1216922	stim	stop-signal	301	765573	0.0-15.2-1.2	beast_fmri_test	314	763122,/,763802,/,764483,/,765162,/,765843,/	t,t,t,t,t	<img class = center src='/static/experiments/beast_fmri_test/images/P.png'></img>	71,89	2750.0	test	<img class = center src='/static/experiments/beast_fmri_test/images/redP.png'></img>	go	-1.0	3.0	2.0	go	temp-non-target	P	71,Green Button	89,Yellow Button	850.0	1000.0	1900.0	1800.0	0.0	n/a	n/a	n/a	ITI
244341	500	n/a	-1	-1	500	0.0	fixation	poldrack-single-stim	302	766744	0.0-15.3-0.3	beast_fmri_test	314	766522,/	t	<div class = centerbox><div class = fixation>+</div></div>	none	500.0	test	n/a	n/a	n/a	n/a	n/a	n/a	n/a	n/a	n/a	n/a	n/a	n/a	n/a	n/a	n/a	n/a	n/a	n/a	fixation
244156.40153469995	2750	n/a	818	71	2750	186.5984653	stim	stop-signal	303	769496	0.0-15.3-1.3	beast_fmri_test	314	767202,/,767882,/,768562,/,769242,/	t,t,t,t	<img class = center src='/static/experiments/beast_fmri_test/images/D.png'></img>	71,89	2750.0	test	<img class = center src='/static/experiments/beast_fmri_test/images/redD.png'></img>	go	1900.0	3.0	3.0	go	target	D	71,Green Button	89,Yellow Button	850.0	1000.0	1900.0	1800.0	1.0	n/a	850.0	1.0	go_stim
246906.40153469995	186.59846530000002	n/a	818	71	2750	186.5984653	stim	stop-signal	303	769496	0.0-15.3-1.3	beast_fmri_test	314	767202,/,767882,/,768562,/,769242,/	t,t,t,t	<img class = center src='/static/experiments/beast_fmri_test/images/D.png'></img>	71,89	2750.0	test	<img class = center src='/static/experiments/beast_fmri_test/images/redD.png'></img>	go	1900.0	3.0	3.0	go	target	D	71,Green Button	89,Yellow Button	850.0	1000.0	1900.0	1800.0	1.0	n/a	850.0	1.0	ITI
247793	500	n/a	-1	-1	500	0.0	fixation	poldrack-single-stim	304	770196	0.0-15.4-0.4	beast_fmri_test	314	769923,/	t	<div class = centerbox><div class = fixation>+</div></div>	none	500.0	test	n/a	n/a	n/a	n/a	n/a	n/a	n/a	n/a	n/a	n/a	n/a	n/a	n/a	n/a	n/a	n/a	n/a	n/a	fixation
247662.23577939998	2750	n/a	1831	71	2750	131.7642206	stim	stop-signal	305	772947	0.0-15.4-1.4	beast_fmri_test	314	770602,/,771282,/,771962,/,772642,/	t,t,t,t	<img class = center src='/static/experiments/beast_fmri_test/images/V.png'></img>	71,89	2750.0	test	<img class = center src='/static/experiments/beast_fmri_test/images/redV.png'></img>	go	1900.0	3.0	4.0	go	target	V	71,Green Button	89,Yellow Button	850.0	1000.0	1900.0	1800.0	1.0	n/a	850.0	1.0	go_stim
250412.23577939998	131.76422059999999	n/a	1831	71	2750	131.7642206	stim	stop-signal	305	772947	0.0-15.4-1.4	beast_fmri_test	314	770602,/,771282,/,771962,/,772642,/	t,t,t,t	<img class = center src='/static/experiments/beast_fmri_test/images/V.png'></img>	71,89	2750.0	test	<img class = center src='/static/experiments/beast_fmri_test/images/redV.png'></img>	go	1900.0	3.0	4.0	go	target	V	71,Green Button	89,Yellow Button	850.0	1000.0	1900.0	1800.0	1.0	n/a	850.0	1.0	ITI
251190	500	n/a	-1	-1	500	0.0	fixation	poldrack-single-stim	306	773593	0.0-15.5-0.5	beast_fmri_test	314	773322,/	t	<div class = centerbox><div class = fixation>+</div></div>	none	500.0	test	n/a	n/a	n/a	n/a	n/a	n/a	n/a	n/a	n/a	n/a	n/a	n/a	n/a	n/a	n/a	n/a	n/a	n/a	fixation
250797.74320380006	1000.0	n/a	-1	-1	2750	394.2567962	stim	stop-signal	307	776345	0.0-15.5-1.5	beast_fmri_test	314	774002,/,774683,/,775363,/,776042,/,776723,/	t,t,t,t,t	<img class = center src='/static/experiments/beast_fmri_test/images/D.png'></img>	71,89	2750.0	test	<img class = center src='/static/experiments/beast_fmri_test/images/redD.png'></img>	stop	1750.0	3.0	5.0	stop	non-target	D	71,Green Button	89,Yellow Button	850.0	1000.0	1900.0	1750.0	0.0	1.0	1000.0	0.0	go_stim
252547.74320380006	1750.0	n/a	-1	-1	2750	394.2567962	stim	stop-signal	307	776345	0.0-15.5-1.5	beast_fmri_test	314	774002,/,774683,/,775363,/,776042,/,776723,/	t,t,t,t,t	<img class = center src='/static/experiments/beast_fmri_test/images/D.png'></img>	71,89	2750.0	test	<img class = center src='/static/experiments/beast_fmri_test/images/redD.png'></img>	stop	1750.0	3.0	5.0	stop	non-target	D	71,Green Button	89,Yellow Button	850.0	1000.0	1900.0	1750.0	0.0	1.0	1000.0	0.0	stop_stim
253547.74320380006	394.2567962	n/a	-1	-1	2750	394.2567962	stim	stop-signal	307	776345	0.0-15.5-1.5	beast_fmri_test	314	774002,/,774683,/,775363,/,776042,/,776723,/	t,t,t,t,t	<img class = center src='/static/experiments/beast_fmri_test/images/D.png'></img>	71,89	2750.0	test	<img class = center src='/static/experiments/beast_fmri_test/images/redD.png'></img>	stop	1750.0	3.0	5.0	stop	non-target	D	71,Green Button	89,Yellow Button	850.0	1000.0	1900.0	1750.0	0.0	1.0	1000.0	0.0	ITI
254851	500	n/a	-1	-1	500	0.0	fixation	poldrack-single-stim	308	777254	0.0-15.6-0.6	beast_fmri_test	314	n/a	n/a	<div class = centerbox><div class = fixation>+</div></div>	none	500.0	test	n/a	n/a	n/a	n/a	n/a	n/a	n/a	n/a	n/a	n/a	n/a	n/a	n/a	n/a	n/a	n/a	n/a	n/a	fixation
253037.24999299995	1050.0	n/a	-1	-1	2750	1815.750007	stim	stop-signal	309	780006	0.0-15.6-1.6	beast_fmri_test	314	777403,/,778083,/,778764,/,779443,/,780123,/,780803,/,781483,/	t,t,t,t,t,t,t	<img class = center src='/static/experiments/beast_fmri_test/images/V.png'></img>	71,89	2750.0	test	<img class = center src='/static/experiments/beast_fmri_test/images/redV.png'></img>	stop	1700.0	3.0	6.0	stop	non-target	V	71,Green Button	89,Yellow Button	850.0	1050.0	1900.0	1700.0	0.0	1.0	1050.0	0.0	go_stim
254737.24999299995	1700.0	n/a	-1	-1	2750	1815.750007	stim	stop-signal	309	780006	0.0-15.6-1.6	beast_fmri_test	314	777403,/,778083,/,778764,/,779443,/,780123,/,780803,/,781483,/	t,t,t,t,t,t,t	<img class = center src='/static/experiments/beast_fmri_test/images/V.png'></img>	71,89	2750.0	test	<img class = center src='/static/experiments/beast_fmri_test/images/redV.png'></img>	stop	1700.0	3.0	6.0	stop	non-target	V	71,Green Button	89,Yellow Button	850.0	1050.0	1900.0	1700.0	0.0	1.0	1050.0	0.0	stop_stim
255787.24999299995	1815.7500070000001	n/a	-1	-1	2750	1815.750007	stim	stop-signal	309	780006	0.0-15.6-1.6	beast_fmri_test	314	777403,/,778083,/,778764,/,779443,/,780123,/,780803,/,781483,/	t,t,t,t,t,t,t	<img class = center src='/static/experiments/beast_fmri_test/images/V.png'></img>	71,89	2750.0	test	<img class = center src='/static/experiments/beast_fmri_test/images/redV.png'></img>	stop	1700.0	3.0	6.0	stop	non-target	V	71,Green Button	89,Yellow Button	850.0	1050.0	1900.0	1700.0	0.0	1.0	1050.0	0.0	ITI
259933	500	n/a	-1	-1	500	0.0	fixation	poldrack-single-stim	310	782336	0.0-15.7-0.7	beast_fmri_test	314	782163,/	t	<div class = centerbox><div class = fixation>+</div></div>	none	500.0	test	n/a	n/a	n/a	n/a	n/a	n/a	n/a	n/a	n/a	n/a	n/a	n/a	n/a	n/a	n/a	n/a	n/a	n/a	fixation
257771.34834499995	850.0	n/a	808	71	2750	2163.651655	stim	stop-signal	311	785088	0.0-15.7-1.7	beast_fmri_test	314	782843,/,783523,/,784203,/,784883,/,785563,/,786242,/,786923,/	t,t,t,t,t,t,t	<img class = center src='/static/experiments/beast_fmri_test/images/V.png'></img>	71,89	2750.0	test	<img class = center src='/static/experiments/beast_fmri_test/images/redV.png'></img>	stop	1900.0	3.0	7.0	stop	target	V	71,Green Button	89,Yellow Button	850.0	1100.0	1900.0	1700.0	0.0	0.0	850.0	1.0	go_stim
259671.34834499995	1900.0	n/a	808	71	2750	2163.651655	stim	stop-signal	311	785088	0.0-15.7-1.7	beast_fmri_test	314	782843,/,783523,/,784203,/,784883,/,785563,/,786242,/,786923,/	t,t,t,t,t,t,t	<img class = center src='/static/experiments/beast_fmri_test/images/V.png'></img>	71,89	2750.0	test	<img class = center src='/static/experiments/beast_fmri_test/images/redV.png'></img>	stop	1900.0	3.0	7.0	stop	target	V	71,Green Button	89,Yellow Button	850.0	1100.0	1900.0	1700.0	0.0	0.0	850.0	1.0	stop_stim
260521.34834499995	2163.6516550000001	n/a	808	71	2750	2163.651655	stim	stop-signal	311	785088	0.0-15.7-1.7	beast_fmri_test	314	782843,/,783523,/,784203,/,784883,/,785563,/,786242,/,786923,/	t,t,t,t,t,t,t	<img class = center src='/static/experiments/beast_fmri_test/images/V.png'></img>	71,89	2750.0	test	<img class = center src='/static/experiments/beast_fmri_test/images/redV.png'></img>	stop	1900.0	3.0	7.0	stop	target	V	71,Green Button	89,Yellow Button	850.0	1100.0	1900.0	1700.0	0.0	0.0	850.0	1.0	ITI
265364	500	n/a	-1	-1	500	0.0	fixation	poldrack-single-stim	312	787767	0.0-15.8-0.8	beast_fmri_test	314	787603,/	t	<div class = centerbox><div class = fixation>+</div></div>	none	500.0	test	n/a	n/a	n/a	n/a	n/a	n/a	n/a	n/a	n/a	n/a	n/a	n/a	n/a	n/a	n/a	n/a	n/a	n/a	fixation
264526.78570330003	2750	n/a	2299	89	2750	839.2142967	stim	stop-signal	313	790519	0.0-15.8-1.8	beast_fmri_test	314	788282,/,788963,/,789643,/,790322,/,791003,/	t,t,t,t,t	<img class = center src='/static/experiments/beast_fmri_test/images/T.png'></img>	71,89	2750.0	test	<img class = center src='/static/experiments/beast_fmri_test/images/redT.png'></img>	go	1650.0	3.0	8.0	go	non-target	T	71,Green Button	89,Yellow Button	800.0	1100.0	1900.0	1650.0	1.0	n/a	1100.0	1.0	go_stim
267276.78570330003	839.21429669999998	n/a	2299	89	2750	839.2142967	stim	stop-signal	313	790519	0.0-15.8-1.8	beast_fmri_test	314	788282,/,788963,/,789643,/,790322,/,791003,/	t,t,t,t,t	<img class = center src='/static/experiments/beast_fmri_test/images/T.png'></img>	71,89	2750.0	test	<img class = center src='/static/experiments/beast_fmri_test/images/redT.png'></img>	go	1650.0	3.0	8.0	go	non-target	T	71,Green Button	89,Yellow Button	800.0	1100.0	1900.0	1650.0	1.0	n/a	1100.0	1.0	ITI
269469	500	n/a	-1	-1	500	0.0	fixation	poldrack-single-stim	314	791872	0.0-15.9-0.9	beast_fmri_test	314	791682,/	t	<div class = centerbox><div class = fixation>+</div></div>	none	500.0	test	n/a	n/a	n/a	n/a	n/a	n/a	n/a	n/a	n/a	n/a	n/a	n/a	n/a	n/a	n/a	n/a	n/a	n/a	fixation
268837.73241429997	2750	n/a	-1	-1	2750	632.2675857	stim	stop-signal	315	794623	0.0-15.9-1.9	beast_fmri_test	314	792363,/,793043,/,793723,/,794402,/,795083,/	t,t,t,t,t	<img class = center src='/static/experiments/beast_fmri_test/images/B.png'></img>	71,89	2750.0	test	<img class = center src='/static/experiments/beast_fmri_test/images/redB.png'></img>	go	1650.0	3.0	9.0	go	non-target	B	71,Green Button	89,Yellow Button	800.0	1100.0	1900.0	1650.0	0.0	n/a	1100.0	0.0	go_stim
271587.73241429997	632.26758570000004	n/a	-1	-1	2750	632.2675857	stim	stop-signal	315	794623	0.0-15.9-1.9	beast_fmri_test	314	792363,/,793043,/,793723,/,794402,/,795083,/	t,t,t,t,t	<img class = center src='/static/experiments/beast_fmri_test/images/B.png'></img>	71,89	2750.0	test	<img class = center src='/static/experiments/beast_fmri_test/images/redB.png'></img>	go	1650.0	3.0	9.0	go	non-target	B	71,Green Button	89,Yellow Button	800.0	1100.0	1900.0	1650.0	0.0	n/a	1100.0	0.0	ITI
273369	500	n/a	-1	-1	500	0.0	fixation	poldrack-single-stim	316	795772	0.0-15.10-0.10	beast_fmri_test	314	795762,/	t	<div class = centerbox><div class = fixation>+</div></div>	none	500.0	test	n/a	n/a	n/a	n/a	n/a	n/a	n/a	n/a	n/a	n/a	n/a	n/a	n/a	n/a	n/a	n/a	n/a	n/a	fixation
271745.60379099997	1100.0	n/a	1514	89	2750	1624.396209	stim	stop-signal	317	798523	0.0-15.10-1.10	beast_fmri_test	314	796443,/,797122,/,797802,/,798482,/,799162,/,799842,/	t,t,t,t,t,t	<img class = center src='/static/experiments/beast_fmri_test/images/T.png'></img>	71,89	2750.0	test	<img class = center src='/static/experiments/beast_fmri_test/images/redT.png'></img>	stop	1650.0	3.0	10.0	stop	non-target	T	71,Green Button	89,Yellow Button	800.0	1100.0	1900.0	1650.0	0.0	0.0	1100.0	1.0	go_stim
273395.60379099997	1650.0	n/a	1514	89	2750	1624.396209	stim	stop-signal	317	798523	0.0-15.10-1.10	beast_fmri_test	314	796443,/,797122,/,797802,/,798482,/,799162,/,799842,/	t,t,t,t,t,t	<img class = center src='/static/experiments/beast_fmri_test/images/T.png'></img>	71,89	2750.0	test	<img class = center src='/static/experiments/beast_fmri_test/images/redT.png'></img>	stop	1650.0	3.0	10.0	stop	non-target	T	71,Green Button	89,Yellow Button	800.0	1100.0	1900.0	1650.0	0.0	0.0	1100.0	1.0	stop_stim
274495.60379099997	1624.396209	n/a	1514	89	2750	1624.396209	stim	stop-signal	317	798523	0.0-15.10-1.10	beast_fmri_test	314	796443,/,797122,/,797802,/,798482,/,799162,/,799842,/	t,t,t,t,t,t	<img class = center src='/static/experiments/beast_fmri_test/images/T.png'></img>	71,89	2750.0	test	<img class = center src='/static/experiments/beast_fmri_test/images/redT.png'></img>	stop	1650.0	3.0	10.0	stop	non-target	T	71,Green Button	89,Yellow Button	800.0	1100.0	1900.0	1650.0	0.0	0.0	1100.0	1.0	ITI
278258	500	n/a	-1	-1	500	0.0	fixation	poldrack-single-stim	318	800661	0.0-15.11-0.11	beast_fmri_test	314	800522,/	t	<div class = centerbox><div class = fixation>+</div></div>	none	500.0	test	n/a	n/a	n/a	n/a	n/a	n/a	n/a	n/a	n/a	n/a	n/a	n/a	n/a	n/a	n/a	n/a	n/a	n/a	fixation
277666.31852540001	2750	n/a	1589	89	2750	592.6814746	stim	stop-signal	319	803412	0.0-15.11-1.11	beast_fmri_test	314	801202,/,801882,/,802562,/,803242,/,803922,/	t,t,t,t,t	<img class = center src='/static/experiments/beast_fmri_test/images/P.png'></img>	71,89	2750.0	test	<img class = center src='/static/experiments/beast_fmri_test/images/redP.png'></img>	go	1700.0	3.0	11.0	go	non-target	P	71,Green Button	89,Yellow Button	800.0	1050.0	1900.0	1700.0	1.0	n/a	1050.0	1.0	go_stim
280416.31852540001	592.6814746	n/a	1589	89	2750	592.6814746	stim	stop-signal	319	803412	0.0-15.11-1.11	beast_fmri_test	314	801202,/,801882,/,802562,/,803242,/,803922,/	t,t,t,t,t	<img class = center src='/static/experiments/beast_fmri_test/images/P.png'></img>	71,89	2750.0	test	<img class = center src='/static/experiments/beast_fmri_test/images/redP.png'></img>	go	1700.0	3.0	11.0	go	non-target	P	71,Green Button	89,Yellow Button	800.0	1050.0	1900.0	1700.0	1.0	n/a	1050.0	1.0	ITI
282117	500	n/a	-1	-1	500	0.0	fixation	poldrack-single-stim	320	804520	0.0-15.12-0.12	beast_fmri_test	314	n/a	n/a	<div class = centerbox><div class = fixation>+</div></div>	none	500.0	test	n/a	n/a	n/a	n/a	n/a	n/a	n/a	n/a	n/a	n/a	n/a	n/a	n/a	n/a	n/a	n/a	n/a	n/a	fixation
282063.93398682994	2750	n/a	2010	89	2750	54.06601317	stim	stop-signal	321	807271	0.0-15.12-1.12	beast_fmri_test	314	804602,/,805283,/,805962,/,806642,/,807322,/	t,t,t,t,t	<img class = center src='/static/experiments/beast_fmri_test/images/T.png'></img>	71,89	2750.0	test	<img class = center src='/static/experiments/beast_fmri_test/images/redT.png'></img>	go	1700.0	3.0	12.0	go	non-target	T	71,Green Button	89,Yellow Button	800.0	1050.0	1900.0	1700.0	1.0	n/a	1050.0	1.0	go_stim
284813.93398682994	54.066013169999998	n/a	2010	89	2750	54.06601317	stim	stop-signal	321	807271	0.0-15.12-1.12	beast_fmri_test	314	804602,/,805283,/,805962,/,806642,/,807322,/	t,t,t,t,t	<img class = center src='/static/experiments/beast_fmri_test/images/T.png'></img>	71,89	2750.0	test	<img class = center src='/static/experiments/beast_fmri_test/images/redT.png'></img>	go	1700.0	3.0	12.0	go	non-target	T	71,Green Button	89,Yellow Button	800.0	1050.0	1900.0	1700.0	1.0	n/a	1050.0	1.0	ITI
285437	500	n/a	-1	-1	500	0.0	fixation	poldrack-single-stim	322	807840	0.0-15.13-0.13	beast_fmri_test	314	n/a	n/a	<div class = centerbox><div class = fixation>+</div></div>	none	500.0	test	n/a	n/a	n/a	n/a	n/a	n/a	n/a	n/a	n/a	n/a	n/a	n/a	n/a	n/a	n/a	n/a	n/a	n/a	fixation
282733.84533299995	2750	n/a	1569	89	2750	2705.154667	stim	stop-signal	323	810592	0.0-15.13-1.13	beast_fmri_test	314	808002,/,808682,/,809363,/,810043,/,810723,/,811403,/,812083,/,812763,/	t,t,t,t,t,t,t,t	<img class = center src='/static/experiments/beast_fmri_test/images/V.png'></img>	71,89	2750.0	test	<img class = center src='/static/experiments/beast_fmri_test/images/redV.png'></img>	go	1700.0	3.0	13.0	go	non-target	V	71,Green Button	89,Yellow Button	800.0	1050.0	1900.0	1700.0	1.0	n/a	1050.0	1.0	go_stim
285483.84533299995	2705.1546670000002	n/a	1569	89	2750	2705.154667	stim	stop-signal	323	810592	0.0-15.13-1.13	beast_fmri_test	314	808002,/,808682,/,809363,/,810043,/,810723,/,811403,/,812083,/,812763,/	t,t,t,t,t,t,t,t	<img class = center src='/static/experiments/beast_fmri_test/images/V.png'></img>	71,89	2750.0	test	<img class = center src='/static/experiments/beast_fmri_test/images/redV.png'></img>	go	1700.0	3.0	13.0	go	non-target	V	71,Green Button	89,Yellow Button	800.0	1050.0	1900.0	1700.0	1.0	n/a	1050.0	1.0	ITI
291409	500	n/a	-1	-1	500	0.0	fixation	poldrack-single-stim	324	813812	0.0-15.14-0.14	beast_fmri_test	314	813443,/	t	<div class = centerbox><div class = fixation>+</div></div>	none	500.0	test	n/a	n/a	n/a	n/a	n/a	n/a	n/a	n/a	n/a	n/a	n/a	n/a	n/a	n/a	n/a	n/a	n/a	n/a	fixation
290408.70839499997	2750	n/a	1727	89	2750	1003.291605	stim	stop-signal	325	816565	0.0-15.14-1.14	beast_fmri_test	314	814123,/,814803,/,815484,/,816163,/,816843,/,817523,/	t,t,t,t,t,t	<img class = center src='/static/experiments/beast_fmri_test/images/V.png'></img>	71,89	2750.0	test	<img class = center src='/static/experiments/beast_fmri_test/images/redV.png'></img>	go	1700.0	3.0	14.0	go	non-target	V	71,Green Button	89,Yellow Button	800.0	1050.0	1900.0	1700.0	1.0	n/a	1050.0	1.0	go_stim
293158.70839499997	1003.2916050000001	n/a	1727	89	2750	1003.291605	stim	stop-signal	325	816565	0.0-15.14-1.14	beast_fmri_test	314	814123,/,814803,/,815484,/,816163,/,816843,/,817523,/	t,t,t,t,t,t	<img class = center src='/static/experiments/beast_fmri_test/images/V.png'></img>	71,89	2750.0	test	<img class = center src='/static/experiments/beast_fmri_test/images/redV.png'></img>	go	1700.0	3.0	14.0	go	non-target	V	71,Green Button	89,Yellow Button	800.0	1050.0	1900.0	1700.0	1.0	n/a	1050.0	1.0	ITI
295681	500	n/a	-1	-1	500	0.0	fixation	poldrack-single-stim	326	818084	0.0-15.15-0.15	beast_fmri_test	314	n/a	n/a	<div class = centerbox><div class = fixation>+</div></div>	none	500.0	test	n/a	n/a	n/a	n/a	n/a	n/a	n/a	n/a	n/a	n/a	n/a	n/a	n/a	n/a	n/a	n/a	n/a	n/a	fixation
295419.03549160005	2750	n/a	2641	71	2750	263.9645084	stim	stop-signal	327	820836	0.0-15.15-1.15	beast_fmri_test	314	818203,/,818883,/,819563,/,820243,/,820923,/	t,t,t,t,t	<img class = center src='/static/experiments/beast_fmri_test/images/T.png'></img>	71,89	2750.0	test	<img class = center src='/static/experiments/beast_fmri_test/images/redT.png'></img>	go	1950.0	3.0	15.0	go	target	T	71,Green Button	89,Yellow Button	800.0	1050.0	1950.0	1700.0	1.0	n/a	800.0	1.0	go_stim
298169.03549160005	263.9645084	n/a	2641	71	2750	263.9645084	stim	stop-signal	327	820836	0.0-15.15-1.15	beast_fmri_test	314	818203,/,818883,/,819563,/,820243,/,820923,/	t,t,t,t,t	<img class = center src='/static/experiments/beast_fmri_test/images/T.png'></img>	71,89	2750.0	test	<img class = center src='/static/experiments/beast_fmri_test/images/redT.png'></img>	go	1950.0	3.0	15.0	go	target	T	71,Green Button	89,Yellow Button	800.0	1050.0	1950.0	1700.0	1.0	n/a	800.0	1.0	ITI
299211	500	n/a	-1	-1	500	0.0	fixation	poldrack-single-stim	328	821614	0.0-15.16-0.16	beast_fmri_test	314	821603,/	t	<div class = centerbox><div class = fixation>+</div></div>	none	500.0	test	n/a	n/a	n/a	n/a	n/a	n/a	n/a	n/a	n/a	n/a	n/a	n/a	n/a	n/a	n/a	n/a	n/a	n/a	fixation
297983.61613900005	1050.0	n/a	-1	-1	2750	1229.383861	stim	stop-signal	329	824366	0.0-15.16-1.16	beast_fmri_test	314	822283,/,822962,/,823643,/,824323,/,825002,/	t,t,t,t,t	<img class = center src='/static/experiments/beast_fmri_test/images/T.png'></img>	71,89	2750.0	test	<img class = center src='/static/experiments/beast_fmri_test/images/redT.png'></img>	stop	1700.0	3.0	16.0	stop	non-target	T	71,Green Button	89,Yellow Button	800.0	1050.0	1950.0	1700.0	0.0	1.0	1050.0	0.0	go_stim
299683.61613900005	1700.0	n/a	-1	-1	2750	1229.383861	stim	stop-signal	329	824366	0.0-15.16-1.16	beast_fmri_test	314	822283,/,822962,/,823643,/,824323,/,825002,/	t,t,t,t,t	<img class = center src='/static/experiments/beast_fmri_test/images/T.png'></img>	71,89	2750.0	test	<img class = center src='/static/experiments/beast_fmri_test/images/redT.png'></img>	stop	1700.0	3.0	16.0	stop	non-target	T	71,Green Button	89,Yellow Button	800.0	1050.0	1950.0	1700.0	0.0	1.0	1050.0	0.0	stop_stim
300733.61613900005	1229.383861	n/a	-1	-1	2750	1229.383861	stim	stop-signal	329	824366	0.0-15.16-1.16	beast_fmri_test	314	822283,/,822962,/,823643,/,824323,/,825002,/	t,t,t,t,t	<img class = center src='/static/experiments/beast_fmri_test/images/T.png'></img>	71,89	2750.0	test	<img class = center src='/static/experiments/beast_fmri_test/images/redT.png'></img>	stop	1700.0	3.0	16.0	stop	non-target	T	71,Green Button	89,Yellow Button	800.0	1050.0	1950.0	1700.0	0.0	1.0	1050.0	0.0	ITI
303709	500	n/a	-1	-1	500	0.0	fixation	poldrack-single-stim	330	826112	0.0-15.17-0.17	beast_fmri_test	314	825683,/	t	<div class = centerbox><div class = fixation>+</div></div>	none	500.0	test	n/a	n/a	n/a	n/a	n/a	n/a	n/a	n/a	n/a	n/a	n/a	n/a	n/a	n/a	n/a	n/a	n/a	n/a	fixation
303086.09769219998	1100.0	n/a	1512	71	2750	624.9023078	stim	stop-signal	331	828864	0.0-15.17-1.17	beast_fmri_test	314	826363,/,827042,/,827722,/,828402,/,829082,/	t,t,t,t,t	<img class = center src='/static/experiments/beast_fmri_test/images/B.png'></img>	71,89	2750.0	test	<img class = center src='/static/experiments/beast_fmri_test/images/redB.png'></img>	stop	1650.0	3.0	17.0	stop	non-target	B	71,Green Button	89,Yellow Button	800.0	1100.0	1950.0	1650.0	0.0	0.0	1100.0	0.0	go_stim
304736.09769219998	1650.0	n/a	1512	71	2750	624.9023078	stim	stop-signal	331	828864	0.0-15.17-1.17	beast_fmri_test	314	826363,/,827042,/,827722,/,828402,/,829082,/	t,t,t,t,t	<img class = center src='/static/experiments/beast_fmri_test/images/B.png'></img>	71,89	2750.0	test	<img class = center src='/static/experiments/beast_fmri_test/images/redB.png'></img>	stop	1650.0	3.0	17.0	stop	non-target	B	71,Green Button	89,Yellow Button	800.0	1100.0	1950.0	1650.0	0.0	0.0	1100.0	0.0	stop_stim
305836.09769219998	624.90230780000002	n/a	1512	71	2750	624.9023078	stim	stop-signal	331	828864	0.0-15.17-1.17	beast_fmri_test	314	826363,/,827042,/,827722,/,828402,/,829082,/	t,t,t,t,t	<img class = center src='/static/experiments/beast_fmri_test/images/B.png'></img>	71,89	2750.0	test	<img class = center src='/static/experiments/beast_fmri_test/images/redB.png'></img>	stop	1650.0	3.0	17.0	stop	non-target	B	71,Green Button	89,Yellow Button	800.0	1100.0	1950.0	1650.0	0.0	0.0	1100.0	0.0	ITI
307601	500	n/a	-1	-1	500	0.0	fixation	poldrack-single-stim	332	830004	0.0-15.18-0.18	beast_fmri_test	314	829762,/	t	<div class = centerbox><div class = fixation>+</div></div>	none	500.0	test	n/a	n/a	n/a	n/a	n/a	n/a	n/a	n/a	n/a	n/a	n/a	n/a	n/a	n/a	n/a	n/a	n/a	n/a	fixation
307471.18623310002	800.0	n/a	-1	-1	2750	131.8137669	stim	stop-signal	333	832756	0.0-15.18-1.18	beast_fmri_test	314	830443,/,831122,/,831802,/,832482,/	t,t,t,t	<img class = center src='/static/experiments/beast_fmri_test/images/T.png'></img>	71,89	2750.0	test	<img class = center src='/static/experiments/beast_fmri_test/images/redT.png'></img>	stop	1950.0	3.0	18.0	stop	target	T	71,Green Button	89,Yellow Button	800.0	1050.0	1950.0	1650.0	0.0	1.0	800.0	0.0	go_stim
309421.18623310002	1950.0	n/a	-1	-1	2750	131.8137669	stim	stop-signal	333	832756	0.0-15.18-1.18	beast_fmri_test	314	830443,/,831122,/,831802,/,832482,/	t,t,t,t	<img class = center src='/static/experiments/beast_fmri_test/images/T.png'></img>	71,89	2750.0	test	<img class = center src='/static/experiments/beast_fmri_test/images/redT.png'></img>	stop	1950.0	3.0	18.0	stop	target	T	71,Green Button	89,Yellow Button	800.0	1050.0	1950.0	1650.0	0.0	1.0	800.0	0.0	stop_stim
310221.18623310002	131.81376689999999	n/a	-1	-1	2750	131.8137669	stim	stop-signal	333	832756	0.0-15.18-1.18	beast_fmri_test	314	830443,/,831122,/,831802,/,832482,/	t,t,t,t	<img class = center src='/static/experiments/beast_fmri_test/images/T.png'></img>	71,89	2750.0	test	<img class = center src='/static/experiments/beast_fmri_test/images/redT.png'></img>	stop	1950.0	3.0	18.0	stop	target	T	71,Green Button	89,Yellow Button	800.0	1050.0	1950.0	1650.0	0.0	1.0	800.0	0.0	ITI
311001	500	n/a	-1	-1	500	0.0	fixation	poldrack-single-stim	334	833404	0.0-15.19-0.19	beast_fmri_test	314	833163,/	t	<div class = centerbox><div class = fixation>+</div></div>	none	500.0	test	n/a	n/a	n/a	n/a	n/a	n/a	n/a	n/a	n/a	n/a	n/a	n/a	n/a	n/a	n/a	n/a	n/a	n/a	fixation
310916.97467890999	850.0	n/a	-1	-1	2750	85.02532109	stim	stop-signal	335	836155	0.0-15.19-1.19	beast_fmri_test	314	833842,/,834522,/,835202,/,835883,/	t,t,t,t	<img class = center src='/static/experiments/beast_fmri_test/images/T.png'></img>	71,89	2750.0	test	<img class = center src='/static/experiments/beast_fmri_test/images/redT.png'></img>	stop	1900.0	3.0	19.0	stop	target	T	71,Green Button	89,Yellow Button	850.0	1050.0	1900.0	1650.0	0.0	1.0	850.0	0.0	go_stim
312816.97467890999	1900.0	n/a	-1	-1	2750	85.02532109	stim	stop-signal	335	836155	0.0-15.19-1.19	beast_fmri_test	314	833842,/,834522,/,835202,/,835883,/	t,t,t,t	<img class = center src='/static/experiments/beast_fmri_test/images/T.png'></img>	71,89	2750.0	test	<img class = center src='/static/experiments/beast_fmri_test/images/redT.png'></img>	stop	1900.0	3.0	19.0	stop	target	T	71,Green Button	89,Yellow Button	850.0	1050.0	1900.0	1650.0	0.0	1.0	850.0	0.0	stop_stim
313666.97467890999	85.025321090000006	n/a	-1	-1	2750	85.02532109	stim	stop-signal	335	836155	0.0-15.19-1.19	beast_fmri_test	314	833842,/,834522,/,835202,/,835883,/	t,t,t,t	<img class = center src='/static/experiments/beast_fmri_test/images/T.png'></img>	71,89	2750.0	test	<img class = center src='/static/experiments/beast_fmri_test/images/redT.png'></img>	stop	1900.0	3.0	19.0	stop	target	T	71,Green Button	89,Yellow Button	850.0	1050.0	1900.0	1650.0	0.0	1.0	850.0	0.0	ITI
314353	500	n/a	-1	-1	500	0.0	fixation	poldrack-single-stim	336	836756	0.0-15.20-0.20	beast_fmri_test	314	836563,/	t	<div class = centerbox><div class = fixation>+</div></div>	none	500.0	test	n/a	n/a	n/a	n/a	n/a	n/a	n/a	n/a	n/a	n/a	n/a	n/a	n/a	n/a	n/a	n/a	n/a	n/a	fixation
314129.45657539996	1050.0	n/a	-1	-1	2750	225.5434246	stim	stop-signal	337	839508	0.0-15.20-1.20	beast_fmri_test	314	837242,/,837922,/,838602,/,839282,/	t,t,t,t	<img class = center src='/static/experiments/beast_fmri_test/images/T.png'></img>	71,89	2750.0	test	<img class = center src='/static/experiments/beast_fmri_test/images/redT.png'></img>	stop	1700.0	3.0	20.0	stop	non-target	T	71,Green Button	89,Yellow Button	900.0	1050.0	1900.0	1700.0	0.0	1.0	1050.0	0.0	go_stim
315829.45657539996	1700.0	n/a	-1	-1	2750	225.5434246	stim	stop-signal	337	839508	0.0-15.20-1.20	beast_fmri_test	314	837242,/,837922,/,838602,/,839282,/	t,t,t,t	<img class = center src='/static/experiments/beast_fmri_test/images/T.png'></img>	71,89	2750.0	test	<img class = center src='/static/experiments/beast_fmri_test/images/redT.png'></img>	stop	1700.0	3.0	20.0	stop	non-target	T	71,Green Button	89,Yellow Button	900.0	1050.0	1900.0	1700.0	0.0	1.0	1050.0	0.0	stop_stim
316879.45657539996	225.54342459999998	n/a	-1	-1	2750	225.5434246	stim	stop-signal	337	839508	0.0-15.20-1.20	beast_fmri_test	314	837242,/,837922,/,838602,/,839282,/	t,t,t,t	<img class = center src='/static/experiments/beast_fmri_test/images/T.png'></img>	71,89	2750.0	test	<img class = center src='/static/experiments/beast_fmri_test/images/redT.png'></img>	stop	1700.0	3.0	20.0	stop	non-target	T	71,Green Button	89,Yellow Button	900.0	1050.0	1900.0	1700.0	0.0	1.0	1050.0	0.0	ITI
317845	500	n/a	-1	-1	500	0.0	fixation	poldrack-single-stim	338	840248	0.0-15.21-0.21	beast_fmri_test	314	839962,/	t	<div class = centerbox><div class = fixation>+</div></div>	none	500.0	test	n/a	n/a	n/a	n/a	n/a	n/a	n/a	n/a	n/a	n/a	n/a	n/a	n/a	n/a	n/a	n/a	n/a	n/a	fixation
315220.70412500005	2750	n/a	2230	89	2750	2626.295875	stim	stop-signal	339	843000	0.0-15.21-1.21	beast_fmri_test	314	840642,/,841322,/,842002,/,842683,/,843363,/,844043,/,844723,/,845403,/	t,t,t,t,t,t,t,t	<img class = center src='/static/experiments/beast_fmri_test/images/V.png'></img>	71,89	2750.0	test	<img class = center src='/static/experiments/beast_fmri_test/images/redV.png'></img>	go	1650.0	3.0	21.0	go	non-target	V	71,Green Button	89,Yellow Button	900.0	1100.0	1900.0	1650.0	1.0	n/a	1100.0	1.0	go_stim
317970.70412500005	2626.2958749999998	n/a	2230	89	2750	2626.295875	stim	stop-signal	339	843000	0.0-15.21-1.21	beast_fmri_test	314	840642,/,841322,/,842002,/,842683,/,843363,/,844043,/,844723,/,845403,/	t,t,t,t,t,t,t,t	<img class = center src='/static/experiments/beast_fmri_test/images/V.png'></img>	71,89	2750.0	test	<img class = center src='/static/experiments/beast_fmri_test/images/redV.png'></img>	go	1650.0	3.0	21.0	go	non-target	V	71,Green Button	89,Yellow Button	900.0	1100.0	1900.0	1650.0	1.0	n/a	1100.0	1.0	ITI
