onset	duration	text	rt	key_press	block_duration	timing_post_trial	trial_id	trial_type	trial_index	time_elapsed	internal_node_id	exp_id	subject_id	trigger_times	triggers	stimulus	possible_responses	stim_duration	exp_stage	SS_stimulus	SS_trial_type	SS_duration	load	trial_num	stop_trial_type	adaptive_trial_type	stim	yes_response_key	no_response_key	SSD_target	SSD_non_target	SSTarget	SSNonTarget	go_acc	stop_acc	SS_delay	adaptive_acc	Unnamed: 36	new_trial_type
test	10880.0	n/a	-1	-1	10880	0.0	practice-no-stop-feedback	poldrack-single-stim	396	1141447	0.0-18.0	beast_fmri_test	119	1130566,/,1134645,/	t,t	"<div class = ""centerbox""><p class = ""center-block-text"">Your delay is 3 trials.</p><p class = center-block-text>Please wait for the scanner to start the block</p></div>"	77	10880.0	n/a	n/a	n/a	n/a	n/a	n/a	n/a	n/a	n/a	n/a	n/a	n/a	n/a	n/a	n/a	n/a	n/a	n/a	n/a	n/a	start_functional_block
11382	500.0	n/a	-1	-1	500	0.0	fixation	poldrack-single-stim	397	1141948	0.0-19.0-0.0	beast_fmri_test	119	n/a	n/a	<div class = centerbox><div class = fixation>+</div></div>	none	500.0	test	n/a	n/a	n/a	n/a	n/a	n/a	n/a	n/a	n/a	n/a	n/a	n/a	n/a	n/a	n/a	n/a	n/a	n/a	165324.0	fixation
10674.726037107874	2750.0	n/a	1729	71	2750	709.273962892	stim	stop-signal	398	1144700	0.0-19.0-1.0	beast_fmri_test	119	1144166,/	t	<img class = center src='/static/experiments/beast_fmri_test/images/B.png'></img>	89,71	2750.0	test	<img class = center src='/static/experiments/beast_fmri_test/images/redB.png'></img>	go	-1.0	3.0	0.0	go	temp-non-target	B	89,Yellow Button	71,Green Button	800.0	1100.0	1950.0	1650.0	0.0	n/a	n/a	n/a	165.324	go_stim
13424.726037107874	709.273962892	n/a	1729	71	2750	709.273962892	stim	stop-signal	398	1144700	0.0-19.0-1.0	beast_fmri_test	119	1144166,/	t	<img class = center src='/static/experiments/beast_fmri_test/images/B.png'></img>	89,71	2750.0	test	<img class = center src='/static/experiments/beast_fmri_test/images/redB.png'></img>	go	-1.0	3.0	0.0	go	temp-non-target	B	89,Yellow Button	71,Green Button	800.0	1100.0	1950.0	1650.0	0.0	n/a	n/a	n/a	165.324	ITI
15355	500.0	n/a	-1	-1	500	0.0	fixation	poldrack-single-stim	399	1145921	0.0-19.1-0.1	beast_fmri_test	119	n/a	n/a	<div class = centerbox><div class = fixation>+</div></div>	none	500.0	test	n/a	n/a	n/a	n/a	n/a	n/a	n/a	n/a	n/a	n/a	n/a	n/a	n/a	n/a	n/a	n/a	n/a	n/a	n/a	fixation
12982.287980795139	2750.0	n/a	1525	71	2750	2373.7120192	stim	stop-signal	400	1148672	0.0-19.1-1.1	beast_fmri_test	119	n/a	n/a	<img class = center src='/static/experiments/beast_fmri_test/images/T.png'></img>	89,71	2750.0	test	<img class = center src='/static/experiments/beast_fmri_test/images/redT.png'></img>	go	-1.0	3.0	1.0	go	temp-non-target	T	89,Yellow Button	71,Green Button	800.0	1100.0	1950.0	1650.0	0.0	n/a	n/a	n/a	n/a	go_stim
15732.287980795139	2373.7120192	n/a	1525	71	2750	2373.7120192	stim	stop-signal	400	1148672	0.0-19.1-1.1	beast_fmri_test	119	n/a	n/a	<img class = center src='/static/experiments/beast_fmri_test/images/T.png'></img>	89,71	2750.0	test	<img class = center src='/static/experiments/beast_fmri_test/images/redT.png'></img>	go	-1.0	3.0	1.0	go	temp-non-target	T	89,Yellow Button	71,Green Button	800.0	1100.0	1950.0	1650.0	0.0	n/a	n/a	n/a	n/a	ITI
20993	500.0	n/a	-1	-1	500	0.0	fixation	poldrack-single-stim	401	1151559	0.0-19.2-0.2	beast_fmri_test	119	n/a	n/a	<div class = centerbox><div class = fixation>+</div></div>	none	500.0	test	n/a	n/a	n/a	n/a	n/a	n/a	n/a	n/a	n/a	n/a	n/a	n/a	n/a	n/a	n/a	n/a	n/a	n/a	n/a	fixation
20579.40865956177	2750.0	n/a	1753	71	2750	415.591340438	stim	stop-signal	402	1154311	0.0-19.2-1.2	beast_fmri_test	119	n/a	n/a	<img class = center src='/static/experiments/beast_fmri_test/images/V.png'></img>	89,71	2750.0	test	<img class = center src='/static/experiments/beast_fmri_test/images/redV.png'></img>	go	-1.0	3.0	2.0	go	temp-non-target	V	89,Yellow Button	71,Green Button	800.0	1100.0	1950.0	1650.0	0.0	n/a	n/a	n/a	n/a	go_stim
23329.40865956177	415.591340438	n/a	1753	71	2750	415.591340438	stim	stop-signal	402	1154311	0.0-19.2-1.2	beast_fmri_test	119	n/a	n/a	<img class = center src='/static/experiments/beast_fmri_test/images/V.png'></img>	89,71	2750.0	test	<img class = center src='/static/experiments/beast_fmri_test/images/redV.png'></img>	go	-1.0	3.0	2.0	go	temp-non-target	V	89,Yellow Button	71,Green Button	800.0	1100.0	1950.0	1650.0	0.0	n/a	n/a	n/a	n/a	ITI
24673	500.0	n/a	-1	-1	500	0.0	fixation	poldrack-single-stim	403	1155239	0.0-19.3-0.3	beast_fmri_test	119	n/a	n/a	<div class = centerbox><div class = fixation>+</div></div>	none	500.0	test	n/a	n/a	n/a	n/a	n/a	n/a	n/a	n/a	n/a	n/a	n/a	n/a	n/a	n/a	n/a	n/a	n/a	n/a	n/a	fixation
23237.739093487151	2750.0	n/a	1818	71	2750	1436.26090651	stim	stop-signal	404	1157990	0.0-19.3-1.3	beast_fmri_test	119	n/a	n/a	<img class = center src='/static/experiments/beast_fmri_test/images/V.png'></img>	89,71	2750.0	test	<img class = center src='/static/experiments/beast_fmri_test/images/redV.png'></img>	go	1650.0	3.0	3.0	go	non-target	V	89,Yellow Button	71,Green Button	800.0	1100.0	1950.0	1650.0	1.0	n/a	1100.0	1.0	n/a	go_stim
25987.739093487151	1436.26090651	n/a	1818	71	2750	1436.26090651	stim	stop-signal	404	1157990	0.0-19.3-1.3	beast_fmri_test	119	n/a	n/a	<img class = center src='/static/experiments/beast_fmri_test/images/V.png'></img>	89,71	2750.0	test	<img class = center src='/static/experiments/beast_fmri_test/images/redV.png'></img>	go	1650.0	3.0	3.0	go	non-target	V	89,Yellow Button	71,Green Button	800.0	1100.0	1950.0	1650.0	1.0	n/a	1100.0	1.0	n/a	ITI
29372	500.0	n/a	-1	-1	500	0.0	fixation	poldrack-single-stim	405	1159938	0.0-19.4-0.4	beast_fmri_test	119	n/a	n/a	<div class = centerbox><div class = fixation>+</div></div>	none	500.0	test	n/a	n/a	n/a	n/a	n/a	n/a	n/a	n/a	n/a	n/a	n/a	n/a	n/a	n/a	n/a	n/a	n/a	n/a	n/a	fixation
28495.863310396438	1100.0	n/a	951	71	2750	878.136689603	stim	stop-signal	406	1162690	0.0-19.4-1.4	beast_fmri_test	119	n/a	n/a	<img class = center src='/static/experiments/beast_fmri_test/images/D.png'></img>	89,71	2750.0	test	<img class = center src='/static/experiments/beast_fmri_test/images/redD.png'></img>	stop	1650.0	3.0	4.0	stop	non-target	D	89,Yellow Button	71,Green Button	800.0	1100.0	1950.0	1650.0	0.0	0.0	1100.0	1.0	n/a	go_stim
30145.863310396438	1650.0	n/a	951	71	2750	878.136689603	stim	stop-signal	406	1162690	0.0-19.4-1.4	beast_fmri_test	119	n/a	n/a	<img class = center src='/static/experiments/beast_fmri_test/images/D.png'></img>	89,71	2750.0	test	<img class = center src='/static/experiments/beast_fmri_test/images/redD.png'></img>	stop	1650.0	3.0	4.0	stop	non-target	D	89,Yellow Button	71,Green Button	800.0	1100.0	1950.0	1650.0	0.0	0.0	1100.0	1.0	n/a	stop_stim
31245.863310396438	878.136689603	n/a	951	71	2750	878.136689603	stim	stop-signal	406	1162690	0.0-19.4-1.4	beast_fmri_test	119	n/a	n/a	<img class = center src='/static/experiments/beast_fmri_test/images/D.png'></img>	89,71	2750.0	test	<img class = center src='/static/experiments/beast_fmri_test/images/redD.png'></img>	stop	1650.0	3.0	4.0	stop	non-target	D	89,Yellow Button	71,Green Button	800.0	1100.0	1950.0	1650.0	0.0	0.0	1100.0	1.0	n/a	ITI
33517	500.0	n/a	-1	-1	500	0.0	fixation	poldrack-single-stim	407	1164083	0.0-19.5-0.5	beast_fmri_test	119	n/a	n/a	<div class = centerbox><div class = fixation>+</div></div>	none	500.0	test	n/a	n/a	n/a	n/a	n/a	n/a	n/a	n/a	n/a	n/a	n/a	n/a	n/a	n/a	n/a	n/a	n/a	n/a	n/a	fixation
33118.900678533828	1050.0	n/a	-1	-1	2750	400.099321466	stim	stop-signal	408	1166835	0.0-19.5-1.5	beast_fmri_test	119	n/a	n/a	<img class = center src='/static/experiments/beast_fmri_test/images/B.png'></img>	89,71	2750.0	test	<img class = center src='/static/experiments/beast_fmri_test/images/redB.png'></img>	stop	1700.0	3.0	5.0	stop	non-target	B	89,Yellow Button	71,Green Button	800.0	1050.0	1950.0	1700.0	0.0	1.0	1050.0	0.0	n/a	go_stim
34818.900678533828	1700.0	n/a	-1	-1	2750	400.099321466	stim	stop-signal	408	1166835	0.0-19.5-1.5	beast_fmri_test	119	n/a	n/a	<img class = center src='/static/experiments/beast_fmri_test/images/B.png'></img>	89,71	2750.0	test	<img class = center src='/static/experiments/beast_fmri_test/images/redB.png'></img>	stop	1700.0	3.0	5.0	stop	non-target	B	89,Yellow Button	71,Green Button	800.0	1050.0	1950.0	1700.0	0.0	1.0	1050.0	0.0	n/a	stop_stim
35868.900678533828	400.099321466	n/a	-1	-1	2750	400.099321466	stim	stop-signal	408	1166835	0.0-19.5-1.5	beast_fmri_test	119	n/a	n/a	<img class = center src='/static/experiments/beast_fmri_test/images/B.png'></img>	89,71	2750.0	test	<img class = center src='/static/experiments/beast_fmri_test/images/redB.png'></img>	stop	1700.0	3.0	5.0	stop	non-target	B	89,Yellow Button	71,Green Button	800.0	1050.0	1950.0	1700.0	0.0	1.0	1050.0	0.0	n/a	ITI
37183	500.0	n/a	-1	-1	500	0.0	fixation	poldrack-single-stim	409	1167749	0.0-19.6-0.6	beast_fmri_test	119	n/a	n/a	<div class = centerbox><div class = fixation>+</div></div>	none	500.0	test	n/a	n/a	n/a	n/a	n/a	n/a	n/a	n/a	n/a	n/a	n/a	n/a	n/a	n/a	n/a	n/a	n/a	n/a	n/a	fixation
35843.663845468545	1100.0	n/a	-1	-1	2750	1340.33615453	stim	stop-signal	410	1170500	0.0-19.6-1.6	beast_fmri_test	119	n/a	n/a	<img class = center src='/static/experiments/beast_fmri_test/images/T.png'></img>	89,71	2750.0	test	<img class = center src='/static/experiments/beast_fmri_test/images/redT.png'></img>	stop	1650.0	3.0	6.0	stop	non-target	T	89,Yellow Button	71,Green Button	800.0	1100.0	1950.0	1650.0	0.0	1.0	1100.0	0.0	n/a	go_stim
37493.663845468545	1650.0	n/a	-1	-1	2750	1340.33615453	stim	stop-signal	410	1170500	0.0-19.6-1.6	beast_fmri_test	119	n/a	n/a	<img class = center src='/static/experiments/beast_fmri_test/images/T.png'></img>	89,71	2750.0	test	<img class = center src='/static/experiments/beast_fmri_test/images/redT.png'></img>	stop	1650.0	3.0	6.0	stop	non-target	T	89,Yellow Button	71,Green Button	800.0	1100.0	1950.0	1650.0	0.0	1.0	1100.0	0.0	n/a	stop_stim
38593.663845468545	1340.33615453	n/a	-1	-1	2750	1340.33615453	stim	stop-signal	410	1170500	0.0-19.6-1.6	beast_fmri_test	119	n/a	n/a	<img class = center src='/static/experiments/beast_fmri_test/images/T.png'></img>	89,71	2750.0	test	<img class = center src='/static/experiments/beast_fmri_test/images/redT.png'></img>	stop	1650.0	3.0	6.0	stop	non-target	T	89,Yellow Button	71,Green Button	800.0	1100.0	1950.0	1650.0	0.0	1.0	1100.0	0.0	n/a	ITI
41788	500.0	n/a	-1	-1	500	0.0	fixation	poldrack-single-stim	411	1172354	0.0-19.7-0.7	beast_fmri_test	119	n/a	n/a	<div class = centerbox><div class = fixation>+</div></div>	none	500.0	test	n/a	n/a	n/a	n/a	n/a	n/a	n/a	n/a	n/a	n/a	n/a	n/a	n/a	n/a	n/a	n/a	n/a	n/a	n/a	fixation
41745.394479229348	2750.0	n/a	1992	71	2750	44.6055207706	stim	stop-signal	412	1175106	0.0-19.7-1.7	beast_fmri_test	119	n/a	n/a	<img class = center src='/static/experiments/beast_fmri_test/images/B.png'></img>	89,71	2750.0	test	<img class = center src='/static/experiments/beast_fmri_test/images/redB.png'></img>	go	1600.0	3.0	7.0	go	non-target	B	89,Yellow Button	71,Green Button	800.0	1150.0	1950.0	1600.0	1.0	n/a	1150.0	1.0	n/a	go_stim
44495.394479229348	44.6055207706	n/a	1992	71	2750	44.6055207706	stim	stop-signal	412	1175106	0.0-19.7-1.7	beast_fmri_test	119	n/a	n/a	<img class = center src='/static/experiments/beast_fmri_test/images/B.png'></img>	89,71	2750.0	test	<img class = center src='/static/experiments/beast_fmri_test/images/redB.png'></img>	go	1600.0	3.0	7.0	go	non-target	B	89,Yellow Button	71,Green Button	800.0	1150.0	1950.0	1600.0	1.0	n/a	1150.0	1.0	n/a	ITI
45096	500.0	n/a	-1	-1	500	0.0	fixation	poldrack-single-stim	413	1175662	0.0-19.8-0.8	beast_fmri_test	119	n/a	n/a	<div class = centerbox><div class = fixation>+</div></div>	none	500.0	test	n/a	n/a	n/a	n/a	n/a	n/a	n/a	n/a	n/a	n/a	n/a	n/a	n/a	n/a	n/a	n/a	n/a	n/a	n/a	fixation
44477.691174877109	2750.0	n/a	1910	71	2750	620.308825123	stim	stop-signal	414	1178414	0.0-19.8-1.8	beast_fmri_test	119	n/a	n/a	<img class = center src='/static/experiments/beast_fmri_test/images/P.png'></img>	89,71	2750.0	test	<img class = center src='/static/experiments/beast_fmri_test/images/redP.png'></img>	go	1600.0	3.0	8.0	go	non-target	P	89,Yellow Button	71,Green Button	800.0	1150.0	1950.0	1600.0	1.0	n/a	1150.0	1.0	n/a	go_stim
47227.691174877109	620.308825123	n/a	1910	71	2750	620.308825123	stim	stop-signal	414	1178414	0.0-19.8-1.8	beast_fmri_test	119	n/a	n/a	<img class = center src='/static/experiments/beast_fmri_test/images/P.png'></img>	89,71	2750.0	test	<img class = center src='/static/experiments/beast_fmri_test/images/redP.png'></img>	go	1600.0	3.0	8.0	go	non-target	P	89,Yellow Button	71,Green Button	800.0	1150.0	1950.0	1600.0	1.0	n/a	1150.0	1.0	n/a	ITI
48984	500.0	n/a	-1	-1	500	0.0	fixation	poldrack-single-stim	415	1179550	0.0-19.9-0.9	beast_fmri_test	119	n/a	n/a	<div class = centerbox><div class = fixation>+</div></div>	none	500.0	test	n/a	n/a	n/a	n/a	n/a	n/a	n/a	n/a	n/a	n/a	n/a	n/a	n/a	n/a	n/a	n/a	n/a	n/a	n/a	fixation
48595.023071326083	2750.0	n/a	1957	71	2750	390.976928674	stim	stop-signal	416	1182302	0.0-19.9-1.9	beast_fmri_test	119	n/a	n/a	<img class = center src='/static/experiments/beast_fmri_test/images/P.png'></img>	89,71	2750.0	test	<img class = center src='/static/experiments/beast_fmri_test/images/redP.png'></img>	go	1600.0	3.0	9.0	go	non-target	P	89,Yellow Button	71,Green Button	800.0	1150.0	1950.0	1600.0	1.0	n/a	1150.0	1.0	n/a	go_stim
51345.023071326083	390.976928674	n/a	1957	71	2750	390.976928674	stim	stop-signal	416	1182302	0.0-19.9-1.9	beast_fmri_test	119	n/a	n/a	<img class = center src='/static/experiments/beast_fmri_test/images/P.png'></img>	89,71	2750.0	test	<img class = center src='/static/experiments/beast_fmri_test/images/redP.png'></img>	go	1600.0	3.0	9.0	go	non-target	P	89,Yellow Button	71,Green Button	800.0	1150.0	1950.0	1600.0	1.0	n/a	1150.0	1.0	n/a	ITI
52639	500.0	n/a	-1	-1	500	0.0	fixation	poldrack-single-stim	417	1183205	0.0-19.10-0.10	beast_fmri_test	119	n/a	n/a	<div class = centerbox><div class = fixation>+</div></div>	none	500.0	test	n/a	n/a	n/a	n/a	n/a	n/a	n/a	n/a	n/a	n/a	n/a	n/a	n/a	n/a	n/a	n/a	n/a	n/a	n/a	fixation
49503.853467034642	2750.0	n/a	1860	71	2750	3136.14653297	stim	stop-signal	418	1185956	0.0-19.10-1.10	beast_fmri_test	119	1187007,/	t	<img class = center src='/static/experiments/beast_fmri_test/images/B.png'></img>	89,71	2750.0	test	<img class = center src='/static/experiments/beast_fmri_test/images/redB.png'></img>	go	1950.0	3.0	10.0	go	target	B	89,Yellow Button	71,Green Button	800.0	1150.0	1950.0	1600.0	0.0	n/a	800.0	0.0	n/a	go_stim
52253.853467034642	3136.14653297	n/a	1860	71	2750	3136.14653297	stim	stop-signal	418	1185956	0.0-19.10-1.10	beast_fmri_test	119	1187007,/	t	<img class = center src='/static/experiments/beast_fmri_test/images/B.png'></img>	89,71	2750.0	test	<img class = center src='/static/experiments/beast_fmri_test/images/redB.png'></img>	go	1950.0	3.0	10.0	go	target	B	89,Yellow Button	71,Green Button	800.0	1150.0	1950.0	1600.0	0.0	n/a	800.0	0.0	n/a	ITI
59043	500.0	n/a	-1	-1	500	0.0	fixation	poldrack-single-stim	419	1189609	0.0-19.11-0.11	beast_fmri_test	119	n/a	n/a	<div class = centerbox><div class = fixation>+</div></div>	none	500.0	test	n/a	n/a	n/a	n/a	n/a	n/a	n/a	n/a	n/a	n/a	n/a	n/a	n/a	n/a	n/a	n/a	n/a	n/a	n/a	fixation
56585.553635479184	2750.0	n/a	839	71	2750	2459.44636452	stim	stop-signal	420	1192361	0.0-19.11-1.11	beast_fmri_test	119	1192447,/	t	<img class = center src='/static/experiments/beast_fmri_test/images/T.png'></img>	89,71	2750.0	test	<img class = center src='/static/experiments/beast_fmri_test/images/redT.png'></img>	go	1600.0	3.0	11.0	go	non-target	T	89,Yellow Button	71,Green Button	800.0	1150.0	1950.0	1600.0	1.0	n/a	1150.0	1.0	n/a	go_stim
59335.553635479184	2459.44636452	n/a	839	71	2750	2459.44636452	stim	stop-signal	420	1192361	0.0-19.11-1.11	beast_fmri_test	119	1192447,/	t	<img class = center src='/static/experiments/beast_fmri_test/images/T.png'></img>	89,71	2750.0	test	<img class = center src='/static/experiments/beast_fmri_test/images/redT.png'></img>	go	1600.0	3.0	11.0	go	non-target	T	89,Yellow Button	71,Green Button	800.0	1150.0	1950.0	1600.0	1.0	n/a	1150.0	1.0	n/a	ITI
64771	500.0	n/a	-1	-1	500	0.0	fixation	poldrack-single-stim	421	1195337	0.0-19.12-0.12	beast_fmri_test	119	n/a	n/a	<div class = centerbox><div class = fixation>+</div></div>	none	500.0	test	n/a	n/a	n/a	n/a	n/a	n/a	n/a	n/a	n/a	n/a	n/a	n/a	n/a	n/a	n/a	n/a	n/a	n/a	n/a	fixation
64311.342834791867	2750.0	n/a	1888	71	2750	461.657165208	stim	stop-signal	422	1198089	0.0-19.12-1.12	beast_fmri_test	119	n/a	n/a	<img class = center src='/static/experiments/beast_fmri_test/images/P.png'></img>	89,71	2750.0	test	<img class = center src='/static/experiments/beast_fmri_test/images/redP.png'></img>	go	1950.0	3.0	12.0	go	target	P	89,Yellow Button	71,Green Button	800.0	1150.0	1950.0	1600.0	0.0	n/a	800.0	0.0	n/a	go_stim
67061.342834791867	461.657165208	n/a	1888	71	2750	461.657165208	stim	stop-signal	422	1198089	0.0-19.12-1.12	beast_fmri_test	119	n/a	n/a	<img class = center src='/static/experiments/beast_fmri_test/images/P.png'></img>	89,71	2750.0	test	<img class = center src='/static/experiments/beast_fmri_test/images/redP.png'></img>	go	1950.0	3.0	12.0	go	target	P	89,Yellow Button	71,Green Button	800.0	1150.0	1950.0	1600.0	0.0	n/a	800.0	0.0	n/a	ITI
68501	500.0	n/a	-1	-1	500	0.0	fixation	poldrack-single-stim	423	1199067	0.0-19.13-0.13	beast_fmri_test	119	n/a	n/a	<div class = centerbox><div class = fixation>+</div></div>	none	500.0	test	n/a	n/a	n/a	n/a	n/a	n/a	n/a	n/a	n/a	n/a	n/a	n/a	n/a	n/a	n/a	n/a	n/a	n/a	n/a	fixation
67666.390504735522	2750.0	n/a	2269	71	2750	836.609495264	stim	stop-signal	424	1201819	0.0-19.13-1.13	beast_fmri_test	119	n/a	n/a	<img class = center src='/static/experiments/beast_fmri_test/images/V.png'></img>	89,71	2750.0	test	<img class = center src='/static/experiments/beast_fmri_test/images/redV.png'></img>	go	1600.0	3.0	13.0	go	non-target	V	89,Yellow Button	71,Green Button	800.0	1150.0	1950.0	1600.0	1.0	n/a	1150.0	1.0	n/a	go_stim
70416.390504735522	836.609495264	n/a	2269	71	2750	836.609495264	stim	stop-signal	424	1201819	0.0-19.13-1.13	beast_fmri_test	119	n/a	n/a	<img class = center src='/static/experiments/beast_fmri_test/images/V.png'></img>	89,71	2750.0	test	<img class = center src='/static/experiments/beast_fmri_test/images/redV.png'></img>	go	1600.0	3.0	13.0	go	non-target	V	89,Yellow Button	71,Green Button	800.0	1150.0	1950.0	1600.0	1.0	n/a	1150.0	1.0	n/a	ITI
72606	500.0	n/a	-1	-1	500	0.0	fixation	poldrack-single-stim	425	1203172	0.0-19.14-0.14	beast_fmri_test	119	n/a	n/a	<div class = centerbox><div class = fixation>+</div></div>	none	500.0	test	n/a	n/a	n/a	n/a	n/a	n/a	n/a	n/a	n/a	n/a	n/a	n/a	n/a	n/a	n/a	n/a	n/a	n/a	n/a	fixation
71044.255296263844	1150.0	n/a	-1	-1	2750	1562.74470374	stim	stop-signal	426	1205923	0.0-19.14-1.14	beast_fmri_test	119	n/a	n/a	<img class = center src='/static/experiments/beast_fmri_test/images/V.png'></img>	89,71	2750.0	test	<img class = center src='/static/experiments/beast_fmri_test/images/redV.png'></img>	stop	1600.0	3.0	14.0	stop	non-target	V	89,Yellow Button	71,Green Button	800.0	1150.0	1950.0	1600.0	0.0	1.0	1150.0	0.0	n/a	go_stim
72644.255296263844	1600.0	n/a	-1	-1	2750	1562.74470374	stim	stop-signal	426	1205923	0.0-19.14-1.14	beast_fmri_test	119	n/a	n/a	<img class = center src='/static/experiments/beast_fmri_test/images/V.png'></img>	89,71	2750.0	test	<img class = center src='/static/experiments/beast_fmri_test/images/redV.png'></img>	stop	1600.0	3.0	14.0	stop	non-target	V	89,Yellow Button	71,Green Button	800.0	1150.0	1950.0	1600.0	0.0	1.0	1150.0	0.0	n/a	stop_stim
73794.255296263844	1562.74470374	n/a	-1	-1	2750	1562.74470374	stim	stop-signal	426	1205923	0.0-19.14-1.14	beast_fmri_test	119	n/a	n/a	<img class = center src='/static/experiments/beast_fmri_test/images/V.png'></img>	89,71	2750.0	test	<img class = center src='/static/experiments/beast_fmri_test/images/redV.png'></img>	stop	1600.0	3.0	14.0	stop	non-target	V	89,Yellow Button	71,Green Button	800.0	1150.0	1950.0	1600.0	0.0	1.0	1150.0	0.0	n/a	ITI
77436	500.0	n/a	-1	-1	500	0.0	fixation	poldrack-single-stim	427	1208002	0.0-19.15-0.15	beast_fmri_test	119	n/a	n/a	<div class = centerbox><div class = fixation>+</div></div>	none	500.0	test	n/a	n/a	n/a	n/a	n/a	n/a	n/a	n/a	n/a	n/a	n/a	n/a	n/a	n/a	n/a	n/a	n/a	n/a	n/a	fixation
77299.489806808997	2750.0	n/a	-1	-1	2750	138.510193191	stim	stop-signal	428	1210754	0.0-19.15-1.15	beast_fmri_test	119	1208088,/	t	<img class = center src='/static/experiments/beast_fmri_test/images/P.png'></img>	89,71	2750.0	test	<img class = center src='/static/experiments/beast_fmri_test/images/redP.png'></img>	go	1950.0	3.0	15.0	go	target	P	89,Yellow Button	71,Green Button	800.0	1200.0	1950.0	1600.0	0.0	n/a	800.0	0.0	n/a	go_stim
80049.489806808997	138.510193191	n/a	-1	-1	2750	138.510193191	stim	stop-signal	428	1210754	0.0-19.15-1.15	beast_fmri_test	119	1208088,/	t	<img class = center src='/static/experiments/beast_fmri_test/images/P.png'></img>	89,71	2750.0	test	<img class = center src='/static/experiments/beast_fmri_test/images/redP.png'></img>	go	1950.0	3.0	15.0	go	target	P	89,Yellow Button	71,Green Button	800.0	1200.0	1950.0	1600.0	0.0	n/a	800.0	0.0	n/a	ITI
80843	500.0	n/a	-1	-1	500	0.0	fixation	poldrack-single-stim	429	1211409	0.0-19.16-0.16	beast_fmri_test	119	n/a	n/a	<div class = centerbox><div class = fixation>+</div></div>	none	500.0	test	n/a	n/a	n/a	n/a	n/a	n/a	n/a	n/a	n/a	n/a	n/a	n/a	n/a	n/a	n/a	n/a	n/a	n/a	n/a	fixation
80670.309726735577	2750.0	n/a	1037	71	2750	175.690273264	stim	stop-signal	430	1214162	0.0-19.16-1.16	beast_fmri_test	119	n/a	n/a	<img class = center src='/static/experiments/beast_fmri_test/images/B.png'></img>	89,71	2750.0	test	<img class = center src='/static/experiments/beast_fmri_test/images/redB.png'></img>	go	1550.0	3.0	16.0	go	non-target	B	89,Yellow Button	71,Green Button	800.0	1200.0	1950.0	1550.0	1.0	n/a	1200.0	1.0	n/a	go_stim
83420.309726735577	175.690273264	n/a	1037	71	2750	175.690273264	stim	stop-signal	430	1214162	0.0-19.16-1.16	beast_fmri_test	119	n/a	n/a	<img class = center src='/static/experiments/beast_fmri_test/images/B.png'></img>	89,71	2750.0	test	<img class = center src='/static/experiments/beast_fmri_test/images/redB.png'></img>	go	1550.0	3.0	16.0	go	non-target	B	89,Yellow Button	71,Green Button	800.0	1200.0	1950.0	1550.0	1.0	n/a	1200.0	1.0	n/a	ITI
84288	500.0	n/a	-1	-1	500	0.0	fixation	poldrack-single-stim	431	1214854	0.0-19.17-0.17	beast_fmri_test	119	n/a	n/a	<div class = centerbox><div class = fixation>+</div></div>	none	500.0	test	n/a	n/a	n/a	n/a	n/a	n/a	n/a	n/a	n/a	n/a	n/a	n/a	n/a	n/a	n/a	n/a	n/a	n/a	n/a	fixation
83984.884420447052	2750.0	n/a	1679	71	2750	305.115579553	stim	stop-signal	432	1217606	0.0-19.17-1.17	beast_fmri_test	119	1214888,/	t	<img class = center src='/static/experiments/beast_fmri_test/images/P.png'></img>	89,71	2750.0	test	<img class = center src='/static/experiments/beast_fmri_test/images/redP.png'></img>	go	1550.0	3.0	17.0	go	non-target	P	89,Yellow Button	71,Green Button	800.0	1200.0	1950.0	1550.0	1.0	n/a	1200.0	1.0	n/a	go_stim
86734.884420447052	305.115579553	n/a	1679	71	2750	305.115579553	stim	stop-signal	432	1217606	0.0-19.17-1.17	beast_fmri_test	119	1214888,/	t	<img class = center src='/static/experiments/beast_fmri_test/images/P.png'></img>	89,71	2750.0	test	<img class = center src='/static/experiments/beast_fmri_test/images/redP.png'></img>	go	1550.0	3.0	17.0	go	non-target	P	89,Yellow Button	71,Green Button	800.0	1200.0	1950.0	1550.0	1.0	n/a	1200.0	1.0	n/a	ITI
87862	500.0	n/a	-1	-1	500	0.0	fixation	poldrack-single-stim	433	1218428	0.0-19.18-0.18	beast_fmri_test	119	n/a	n/a	<div class = centerbox><div class = fixation>+</div></div>	none	500.0	test	n/a	n/a	n/a	n/a	n/a	n/a	n/a	n/a	n/a	n/a	n/a	n/a	n/a	n/a	n/a	n/a	n/a	n/a	n/a	fixation
87635.784001336433	1200.0	n/a	-1	-1	2750	228.215998664	stim	stop-signal	434	1221180	0.0-19.18-1.18	beast_fmri_test	119	n/a	n/a	<img class = center src='/static/experiments/beast_fmri_test/images/V.png'></img>	89,71	2750.0	test	<img class = center src='/static/experiments/beast_fmri_test/images/redV.png'></img>	stop	1550.0	3.0	18.0	stop	non-target	V	89,Yellow Button	71,Green Button	800.0	1200.0	1950.0	1550.0	0.0	1.0	1200.0	0.0	n/a	go_stim
89185.784001336433	1550.0	n/a	-1	-1	2750	228.215998664	stim	stop-signal	434	1221180	0.0-19.18-1.18	beast_fmri_test	119	n/a	n/a	<img class = center src='/static/experiments/beast_fmri_test/images/V.png'></img>	89,71	2750.0	test	<img class = center src='/static/experiments/beast_fmri_test/images/redV.png'></img>	stop	1550.0	3.0	18.0	stop	non-target	V	89,Yellow Button	71,Green Button	800.0	1200.0	1950.0	1550.0	0.0	1.0	1200.0	0.0	n/a	stop_stim
90385.784001336433	228.215998664	n/a	-1	-1	2750	228.215998664	stim	stop-signal	434	1221180	0.0-19.18-1.18	beast_fmri_test	119	n/a	n/a	<img class = center src='/static/experiments/beast_fmri_test/images/V.png'></img>	89,71	2750.0	test	<img class = center src='/static/experiments/beast_fmri_test/images/redV.png'></img>	stop	1550.0	3.0	18.0	stop	non-target	V	89,Yellow Button	71,Green Button	800.0	1200.0	1950.0	1550.0	0.0	1.0	1200.0	0.0	n/a	ITI
91361	500.0	n/a	-1	-1	500	0.0	fixation	poldrack-single-stim	435	1221927	0.0-19.19-0.19	beast_fmri_test	119	n/a	n/a	<div class = centerbox><div class = fixation>+</div></div>	none	500.0	test	n/a	n/a	n/a	n/a	n/a	n/a	n/a	n/a	n/a	n/a	n/a	n/a	n/a	n/a	n/a	n/a	n/a	n/a	n/a	fixation
91162.88235681341	2750.0	n/a	1161	71	2750	200.117643187	stim	stop-signal	436	1224679	0.0-19.19-1.19	beast_fmri_test	119	n/a	n/a	<img class = center src='/static/experiments/beast_fmri_test/images/T.png'></img>	89,71	2750.0	test	<img class = center src='/static/experiments/beast_fmri_test/images/redT.png'></img>	go	1500.0	3.0	19.0	go	non-target	T	89,Yellow Button	71,Green Button	800.0	1250.0	1950.0	1500.0	1.0	n/a	1250.0	1.0	n/a	go_stim
93912.88235681341	200.117643187	n/a	1161	71	2750	200.117643187	stim	stop-signal	436	1224679	0.0-19.19-1.19	beast_fmri_test	119	n/a	n/a	<img class = center src='/static/experiments/beast_fmri_test/images/T.png'></img>	89,71	2750.0	test	<img class = center src='/static/experiments/beast_fmri_test/images/redT.png'></img>	go	1500.0	3.0	19.0	go	non-target	T	89,Yellow Button	71,Green Button	800.0	1250.0	1950.0	1500.0	1.0	n/a	1250.0	1.0	n/a	ITI
94826	500.0	n/a	-1	-1	500	0.0	fixation	poldrack-single-stim	437	1225392	0.0-19.20-0.20	beast_fmri_test	119	n/a	n/a	<div class = centerbox><div class = fixation>+</div></div>	none	500.0	test	n/a	n/a	n/a	n/a	n/a	n/a	n/a	n/a	n/a	n/a	n/a	n/a	n/a	n/a	n/a	n/a	n/a	n/a	n/a	fixation
94216.689692696091	2750.0	n/a	2283	71	2750	611.310307304	stim	stop-signal	438	1228144	0.0-19.20-1.20	beast_fmri_test	119	n/a	n/a	<img class = center src='/static/experiments/beast_fmri_test/images/V.png'></img>	89,71	2750.0	test	<img class = center src='/static/experiments/beast_fmri_test/images/redV.png'></img>	go	1500.0	3.0	20.0	go	non-target	V	89,Yellow Button	71,Green Button	800.0	1250.0	1950.0	1500.0	1.0	n/a	1250.0	1.0	n/a	go_stim
96966.689692696091	611.310307304	n/a	2283	71	2750	611.310307304	stim	stop-signal	438	1228144	0.0-19.20-1.20	beast_fmri_test	119	n/a	n/a	<img class = center src='/static/experiments/beast_fmri_test/images/V.png'></img>	89,71	2750.0	test	<img class = center src='/static/experiments/beast_fmri_test/images/redV.png'></img>	go	1500.0	3.0	20.0	go	non-target	V	89,Yellow Button	71,Green Button	800.0	1250.0	1950.0	1500.0	1.0	n/a	1250.0	1.0	n/a	ITI
98705	500.0	n/a	-1	-1	500	0.0	fixation	poldrack-single-stim	439	1229271	0.0-19.21-0.21	beast_fmri_test	119	1229167,/	t	<div class = centerbox><div class = fixation>+</div></div>	none	500.0	test	n/a	n/a	n/a	n/a	n/a	n/a	n/a	n/a	n/a	n/a	n/a	n/a	n/a	n/a	n/a	n/a	n/a	n/a	n/a	fixation
98111.823109909892	800.0	n/a	-1	-1	2750	595.17689009	stim	stop-signal	440	1232023	0.0-19.21-1.21	beast_fmri_test	119	n/a	n/a	<img class = center src='/static/experiments/beast_fmri_test/images/V.png'></img>	89,71	2750.0	test	<img class = center src='/static/experiments/beast_fmri_test/images/redV.png'></img>	stop	1950.0	3.0	21.0	stop	target	V	89,Yellow Button	71,Green Button	800.0	1250.0	1950.0	1500.0	0.0	1.0	800.0	0.0	n/a	go_stim
100061.82310990989	1950.0	n/a	-1	-1	2750	595.17689009	stim	stop-signal	440	1232023	0.0-19.21-1.21	beast_fmri_test	119	n/a	n/a	<img class = center src='/static/experiments/beast_fmri_test/images/V.png'></img>	89,71	2750.0	test	<img class = center src='/static/experiments/beast_fmri_test/images/redV.png'></img>	stop	1950.0	3.0	21.0	stop	target	V	89,Yellow Button	71,Green Button	800.0	1250.0	1950.0	1500.0	0.0	1.0	800.0	0.0	n/a	stop_stim
100861.82310990989	595.17689009	n/a	-1	-1	2750	595.17689009	stim	stop-signal	440	1232023	0.0-19.21-1.21	beast_fmri_test	119	n/a	n/a	<img class = center src='/static/experiments/beast_fmri_test/images/V.png'></img>	89,71	2750.0	test	<img class = center src='/static/experiments/beast_fmri_test/images/redV.png'></img>	stop	1950.0	3.0	21.0	stop	target	V	89,Yellow Button	71,Green Button	800.0	1250.0	1950.0	1500.0	0.0	1.0	800.0	0.0	n/a	ITI
102566	500.0	n/a	-1	-1	500	0.0	fixation	poldrack-single-stim	441	1233132	0.0-19.22-0.22	beast_fmri_test	119	n/a	n/a	<div class = centerbox><div class = fixation>+</div></div>	none	500.0	test	n/a	n/a	n/a	n/a	n/a	n/a	n/a	n/a	n/a	n/a	n/a	n/a	n/a	n/a	n/a	n/a	n/a	n/a	n/a	fixation
101265.99361225311	2750.0	n/a	1173	71	2750	1302.00638775	stim	stop-signal	442	1235884	0.0-19.22-1.22	beast_fmri_test	119	n/a	n/a	<img class = center src='/static/experiments/beast_fmri_test/images/D.png'></img>	89,71	2750.0	test	<img class = center src='/static/experiments/beast_fmri_test/images/redD.png'></img>	go	1500.0	3.0	22.0	go	non-target	D	89,Yellow Button	71,Green Button	850.0	1250.0	1950.0	1500.0	1.0	n/a	1250.0	1.0	n/a	go_stim
104015.99361225311	1302.00638775	n/a	1173	71	2750	1302.00638775	stim	stop-signal	442	1235884	0.0-19.22-1.22	beast_fmri_test	119	n/a	n/a	<img class = center src='/static/experiments/beast_fmri_test/images/D.png'></img>	89,71	2750.0	test	<img class = center src='/static/experiments/beast_fmri_test/images/redD.png'></img>	go	1500.0	3.0	22.0	go	non-target	D	89,Yellow Button	71,Green Button	850.0	1250.0	1950.0	1500.0	1.0	n/a	1250.0	1.0	n/a	ITI
107136	500.0	n/a	-1	-1	500	0.0	fixation	poldrack-single-stim	443	1237702	0.0-19.23-0.23	beast_fmri_test	119	n/a	n/a	<div class = centerbox><div class = fixation>+</div></div>	none	500.0	test	n/a	n/a	n/a	n/a	n/a	n/a	n/a	n/a	n/a	n/a	n/a	n/a	n/a	n/a	n/a	n/a	n/a	n/a	n/a	fixation
106442.31635274389	2750.0	n/a	1054	71	2750	696.683647256	stim	stop-signal	444	1240455	0.0-19.23-1.23	beast_fmri_test	119	n/a	n/a	<img class = center src='/static/experiments/beast_fmri_test/images/B.png'></img>	89,71	2750.0	test	<img class = center src='/static/experiments/beast_fmri_test/images/redB.png'></img>	go	1500.0	3.0	23.0	go	non-target	B	89,Yellow Button	71,Green Button	850.0	1250.0	1950.0	1500.0	1.0	n/a	1250.0	1.0	n/a	go_stim
109192.31635274389	696.683647256	n/a	1054	71	2750	696.683647256	stim	stop-signal	444	1240455	0.0-19.23-1.23	beast_fmri_test	119	n/a	n/a	<img class = center src='/static/experiments/beast_fmri_test/images/B.png'></img>	89,71	2750.0	test	<img class = center src='/static/experiments/beast_fmri_test/images/redB.png'></img>	go	1500.0	3.0	23.0	go	non-target	B	89,Yellow Button	71,Green Button	850.0	1250.0	1950.0	1500.0	1.0	n/a	1250.0	1.0	n/a	ITI
111101	500.0	n/a	-1	-1	500	0.0	fixation	poldrack-single-stim	445	1241667	0.0-19.24-0.24	beast_fmri_test	119	n/a	n/a	<div class = centerbox><div class = fixation>+</div></div>	none	500.0	test	n/a	n/a	n/a	n/a	n/a	n/a	n/a	n/a	n/a	n/a	n/a	n/a	n/a	n/a	n/a	n/a	n/a	n/a	n/a	fixation
109444.78876634524	1250.0	n/a	-1	-1	2750	1657.21123365	stim	stop-signal	446	1244418	0.0-19.24-1.24	beast_fmri_test	119	n/a	n/a	<img class = center src='/static/experiments/beast_fmri_test/images/B.png'></img>	89,71	2750.0	test	<img class = center src='/static/experiments/beast_fmri_test/images/redB.png'></img>	stop	1500.0	3.0	24.0	stop	non-target	B	89,Yellow Button	71,Green Button	850.0	1250.0	1950.0	1500.0	0.0	1.0	1250.0	0.0	n/a	go_stim
110944.78876634524	1500.0	n/a	-1	-1	2750	1657.21123365	stim	stop-signal	446	1244418	0.0-19.24-1.24	beast_fmri_test	119	n/a	n/a	<img class = center src='/static/experiments/beast_fmri_test/images/B.png'></img>	89,71	2750.0	test	<img class = center src='/static/experiments/beast_fmri_test/images/redB.png'></img>	stop	1500.0	3.0	24.0	stop	non-target	B	89,Yellow Button	71,Green Button	850.0	1250.0	1950.0	1500.0	0.0	1.0	1250.0	0.0	n/a	stop_stim
112194.78876634524	1657.21123365	n/a	-1	-1	2750	1657.21123365	stim	stop-signal	446	1244418	0.0-19.24-1.24	beast_fmri_test	119	n/a	n/a	<img class = center src='/static/experiments/beast_fmri_test/images/B.png'></img>	89,71	2750.0	test	<img class = center src='/static/experiments/beast_fmri_test/images/redB.png'></img>	stop	1500.0	3.0	24.0	stop	non-target	B	89,Yellow Button	71,Green Button	850.0	1250.0	1950.0	1500.0	0.0	1.0	1250.0	0.0	n/a	ITI
116027	500.0	n/a	-1	-1	500	0.0	fixation	poldrack-single-stim	447	1246593	0.0-19.25-0.25	beast_fmri_test	119	n/a	n/a	<div class = centerbox><div class = fixation>+</div></div>	none	500.0	test	n/a	n/a	n/a	n/a	n/a	n/a	n/a	n/a	n/a	n/a	n/a	n/a	n/a	n/a	n/a	n/a	n/a	n/a	n/a	fixation
113480.34898552648	2750.0	n/a	1028	71	2750	2548.65101447	stim	stop-signal	448	1249345	0.0-19.25-1.25	beast_fmri_test	119	n/a	n/a	<img class = center src='/static/experiments/beast_fmri_test/images/P.png'></img>	89,71	2750.0	test	<img class = center src='/static/experiments/beast_fmri_test/images/redP.png'></img>	go	1450.0	3.0	25.0	go	non-target	P	89,Yellow Button	71,Green Button	850.0	1300.0	1950.0	1450.0	1.0	n/a	1300.0	1.0	n/a	go_stim
116230.34898552648	2548.65101447	n/a	1028	71	2750	2548.65101447	stim	stop-signal	448	1249345	0.0-19.25-1.25	beast_fmri_test	119	n/a	n/a	<img class = center src='/static/experiments/beast_fmri_test/images/P.png'></img>	89,71	2750.0	test	<img class = center src='/static/experiments/beast_fmri_test/images/redP.png'></img>	go	1450.0	3.0	25.0	go	non-target	P	89,Yellow Button	71,Green Button	850.0	1300.0	1950.0	1450.0	1.0	n/a	1300.0	1.0	n/a	ITI
121845	500.0	n/a	-1	-1	500	0.0	fixation	poldrack-single-stim	449	1252411	0.0-19.26-0.26	beast_fmri_test	119	n/a	n/a	<div class = centerbox><div class = fixation>+</div></div>	none	500.0	test	n/a	n/a	n/a	n/a	n/a	n/a	n/a	n/a	n/a	n/a	n/a	n/a	n/a	n/a	n/a	n/a	n/a	n/a	n/a	fixation
121545.7061852999	2750.0	n/a	969	71	2750	301.2938147	stim	stop-signal	450	1255163	0.0-19.26-1.26	beast_fmri_test	119	n/a	n/a	<img class = center src='/static/experiments/beast_fmri_test/images/B.png'></img>	89,71	2750.0	test	<img class = center src='/static/experiments/beast_fmri_test/images/redB.png'></img>	go	1900.0	3.0	26.0	go	target	B	89,Yellow Button	71,Green Button	850.0	1300.0	1900.0	1450.0	0.0	n/a	850.0	0.0	n/a	go_stim
124295.7061852999	301.2938147	n/a	969	71	2750	301.2938147	stim	stop-signal	450	1255163	0.0-19.26-1.26	beast_fmri_test	119	n/a	n/a	<img class = center src='/static/experiments/beast_fmri_test/images/B.png'></img>	89,71	2750.0	test	<img class = center src='/static/experiments/beast_fmri_test/images/redB.png'></img>	go	1900.0	3.0	26.0	go	target	B	89,Yellow Button	71,Green Button	850.0	1300.0	1900.0	1450.0	0.0	n/a	850.0	0.0	n/a	ITI
125413	500.0	n/a	-1	-1	500	0.0	fixation	poldrack-single-stim	451	1255979	0.0-19.27-0.27	beast_fmri_test	119	n/a	n/a	<div class = centerbox><div class = fixation>+</div></div>	none	500.0	test	n/a	n/a	n/a	n/a	n/a	n/a	n/a	n/a	n/a	n/a	n/a	n/a	n/a	n/a	n/a	n/a	n/a	n/a	n/a	fixation
124530.2273232853	2750.0	n/a	950	71	2750	884.772676715	stim	stop-signal	452	1258731	0.0-19.27-1.27	beast_fmri_test	119	n/a	n/a	<img class = center src='/static/experiments/beast_fmri_test/images/D.png'></img>	89,71	2750.0	test	<img class = center src='/static/experiments/beast_fmri_test/images/redD.png'></img>	go	1450.0	3.0	27.0	go	non-target	D	89,Yellow Button	71,Green Button	850.0	1300.0	1900.0	1450.0	1.0	n/a	1300.0	1.0	n/a	go_stim
127280.2273232853	884.772676715	n/a	950	71	2750	884.772676715	stim	stop-signal	452	1258731	0.0-19.27-1.27	beast_fmri_test	119	n/a	n/a	<img class = center src='/static/experiments/beast_fmri_test/images/D.png'></img>	89,71	2750.0	test	<img class = center src='/static/experiments/beast_fmri_test/images/redD.png'></img>	go	1450.0	3.0	27.0	go	non-target	D	89,Yellow Button	71,Green Button	850.0	1300.0	1900.0	1450.0	1.0	n/a	1300.0	1.0	n/a	ITI
129564	500.0	n/a	-1	-1	500	0.0	fixation	poldrack-single-stim	453	1260130	0.0-19.28-0.28	beast_fmri_test	119	n/a	n/a	<div class = centerbox><div class = fixation>+</div></div>	none	500.0	test	n/a	n/a	n/a	n/a	n/a	n/a	n/a	n/a	n/a	n/a	n/a	n/a	n/a	n/a	n/a	n/a	n/a	n/a	n/a	fixation
127026.9129443136	1300.0	n/a	869	71	2750	2540.08705569	stim	stop-signal	454	1262883	0.0-19.28-1.28	beast_fmri_test	119	1261808,/	t	<img class = center src='/static/experiments/beast_fmri_test/images/D.png'></img>	89,71	2750.0	test	<img class = center src='/static/experiments/beast_fmri_test/images/redD.png'></img>	stop	1450.0	3.0	28.0	stop	non-target	D	89,Yellow Button	71,Green Button	850.0	1300.0	1900.0	1450.0	0.0	0.0	1300.0	1.0	n/a	go_stim
128476.9129443136	1450.0	n/a	869	71	2750	2540.08705569	stim	stop-signal	454	1262883	0.0-19.28-1.28	beast_fmri_test	119	1261808,/	t	<img class = center src='/static/experiments/beast_fmri_test/images/D.png'></img>	89,71	2750.0	test	<img class = center src='/static/experiments/beast_fmri_test/images/redD.png'></img>	stop	1450.0	3.0	28.0	stop	non-target	D	89,Yellow Button	71,Green Button	850.0	1300.0	1900.0	1450.0	0.0	0.0	1300.0	1.0	n/a	stop_stim
129776.9129443136	2540.08705569	n/a	869	71	2750	2540.08705569	stim	stop-signal	454	1262883	0.0-19.28-1.28	beast_fmri_test	119	1261808,/	t	<img class = center src='/static/experiments/beast_fmri_test/images/D.png'></img>	89,71	2750.0	test	<img class = center src='/static/experiments/beast_fmri_test/images/redD.png'></img>	stop	1450.0	3.0	28.0	stop	non-target	D	89,Yellow Button	71,Green Button	850.0	1300.0	1900.0	1450.0	0.0	0.0	1300.0	1.0	n/a	ITI
135372	500.0	n/a	-1	-1	500	0.0	fixation	poldrack-single-stim	455	1265938	0.0-19.29-0.29	beast_fmri_test	119	n/a	n/a	<div class = centerbox><div class = fixation>+</div></div>	none	500.0	test	n/a	n/a	n/a	n/a	n/a	n/a	n/a	n/a	n/a	n/a	n/a	n/a	n/a	n/a	n/a	n/a	n/a	n/a	n/a	fixation
133621.25795140909	2750.0	n/a	1159	71	2750	1751.74204859	stim	stop-signal	456	1268689	0.0-19.29-1.29	beast_fmri_test	119	n/a	n/a	<img class = center src='/static/experiments/beast_fmri_test/images/D.png'></img>	89,71	2750.0	test	<img class = center src='/static/experiments/beast_fmri_test/images/redD.png'></img>	go	1500.0	3.0	29.0	go	non-target	D	89,Yellow Button	71,Green Button	850.0	1250.0	1900.0	1500.0	1.0	n/a	1250.0	1.0	n/a	go_stim
136371.25795140909	1751.74204859	n/a	1159	71	2750	1751.74204859	stim	stop-signal	456	1268689	0.0-19.29-1.29	beast_fmri_test	119	n/a	n/a	<img class = center src='/static/experiments/beast_fmri_test/images/D.png'></img>	89,71	2750.0	test	<img class = center src='/static/experiments/beast_fmri_test/images/redD.png'></img>	go	1500.0	3.0	29.0	go	non-target	D	89,Yellow Button	71,Green Button	850.0	1250.0	1900.0	1500.0	1.0	n/a	1250.0	1.0	n/a	ITI
140392	500.0	n/a	-1	-1	500	0.0	fixation	poldrack-single-stim	457	1270958	0.0-19.30-0.30	beast_fmri_test	119	n/a	n/a	<div class = centerbox><div class = fixation>+</div></div>	none	500.0	test	n/a	n/a	n/a	n/a	n/a	n/a	n/a	n/a	n/a	n/a	n/a	n/a	n/a	n/a	n/a	n/a	n/a	n/a	n/a	fixation
139187.2406874469	2750.0	n/a	2094	71	2750	1205.75931255	stim	stop-signal	458	1273709	0.0-19.30-1.30	beast_fmri_test	119	n/a	n/a	<img class = center src='/static/experiments/beast_fmri_test/images/D.png'></img>	89,71	2750.0	test	<img class = center src='/static/experiments/beast_fmri_test/images/redD.png'></img>	go	1900.0	3.0	30.0	go	target	D	89,Yellow Button	71,Green Button	850.0	1250.0	1900.0	1500.0	0.0	n/a	850.0	0.0	n/a	go_stim
141937.2406874469	1205.75931255	n/a	2094	71	2750	1205.75931255	stim	stop-signal	458	1273709	0.0-19.30-1.30	beast_fmri_test	119	n/a	n/a	<img class = center src='/static/experiments/beast_fmri_test/images/D.png'></img>	89,71	2750.0	test	<img class = center src='/static/experiments/beast_fmri_test/images/redD.png'></img>	go	1900.0	3.0	30.0	go	target	D	89,Yellow Button	71,Green Button	850.0	1250.0	1900.0	1500.0	0.0	n/a	850.0	0.0	n/a	ITI
144864	500.0	n/a	-1	-1	500	0.0	fixation	poldrack-single-stim	459	1275430	0.0-19.31-0.31	beast_fmri_test	119	n/a	n/a	<div class = centerbox><div class = fixation>+</div></div>	none	500.0	test	n/a	n/a	n/a	n/a	n/a	n/a	n/a	n/a	n/a	n/a	n/a	n/a	n/a	n/a	n/a	n/a	n/a	n/a	n/a	fixation
142226.53497136827	1250.0	n/a	1235	71	2750	2639.46502863	stim	stop-signal	460	1278182	0.0-19.31-1.31	beast_fmri_test	119	n/a	n/a	<img class = center src='/static/experiments/beast_fmri_test/images/V.png'></img>	89,71	2750.0	test	<img class = center src='/static/experiments/beast_fmri_test/images/redV.png'></img>	stop	1500.0	3.0	31.0	stop	non-target	V	89,Yellow Button	71,Green Button	850.0	1250.0	1900.0	1500.0	0.0	0.0	1250.0	1.0	n/a	go_stim
143726.53497136827	1500.0	n/a	1235	71	2750	2639.46502863	stim	stop-signal	460	1278182	0.0-19.31-1.31	beast_fmri_test	119	n/a	n/a	<img class = center src='/static/experiments/beast_fmri_test/images/V.png'></img>	89,71	2750.0	test	<img class = center src='/static/experiments/beast_fmri_test/images/redV.png'></img>	stop	1500.0	3.0	31.0	stop	non-target	V	89,Yellow Button	71,Green Button	850.0	1250.0	1900.0	1500.0	0.0	0.0	1250.0	1.0	n/a	stop_stim
144976.53497136827	2639.46502863	n/a	1235	71	2750	2639.46502863	stim	stop-signal	460	1278182	0.0-19.31-1.31	beast_fmri_test	119	n/a	n/a	<img class = center src='/static/experiments/beast_fmri_test/images/V.png'></img>	89,71	2750.0	test	<img class = center src='/static/experiments/beast_fmri_test/images/redV.png'></img>	stop	1500.0	3.0	31.0	stop	non-target	V	89,Yellow Button	71,Green Button	850.0	1250.0	1900.0	1500.0	0.0	0.0	1250.0	1.0	n/a	ITI
150772	500.0	n/a	-1	-1	500	0.0	fixation	poldrack-single-stim	461	1281338	0.0-19.32-0.32	beast_fmri_test	119	n/a	n/a	<div class = centerbox><div class = fixation>+</div></div>	none	500.0	test	n/a	n/a	n/a	n/a	n/a	n/a	n/a	n/a	n/a	n/a	n/a	n/a	n/a	n/a	n/a	n/a	n/a	n/a	n/a	fixation
149401.56064019701	2750.0	n/a	1295	71	2750	1373.4393598	stim	stop-signal	462	1284091	0.0-19.32-1.32	beast_fmri_test	119	n/a	n/a	<img class = center src='/static/experiments/beast_fmri_test/images/B.png'></img>	89,71	2750.0	test	<img class = center src='/static/experiments/beast_fmri_test/images/redB.png'></img>	go	1550.0	3.0	32.0	go	non-target	B	89,Yellow Button	71,Green Button	850.0	1200.0	1900.0	1550.0	1.0	n/a	1200.0	1.0	n/a	go_stim
152151.56064019701	1373.4393598	n/a	1295	71	2750	1373.4393598	stim	stop-signal	462	1284091	0.0-19.32-1.32	beast_fmri_test	119	n/a	n/a	<img class = center src='/static/experiments/beast_fmri_test/images/B.png'></img>	89,71	2750.0	test	<img class = center src='/static/experiments/beast_fmri_test/images/redB.png'></img>	go	1550.0	3.0	32.0	go	non-target	B	89,Yellow Button	71,Green Button	850.0	1200.0	1900.0	1550.0	1.0	n/a	1200.0	1.0	n/a	ITI
155414	500.0	n/a	-1	-1	500	0.0	fixation	poldrack-single-stim	463	1285980	0.0-19.33-0.33	beast_fmri_test	119	n/a	n/a	<div class = centerbox><div class = fixation>+</div></div>	none	500.0	test	n/a	n/a	n/a	n/a	n/a	n/a	n/a	n/a	n/a	n/a	n/a	n/a	n/a	n/a	n/a	n/a	n/a	n/a	n/a	fixation
154560.27741061267	850.0	n/a	-1	-1	2750	855.722589387	stim	stop-signal	464	1288732	0.0-19.33-1.33	beast_fmri_test	119	n/a	n/a	<img class = center src='/static/experiments/beast_fmri_test/images/D.png'></img>	89,71	2750.0	test	<img class = center src='/static/experiments/beast_fmri_test/images/redD.png'></img>	stop	1900.0	3.0	33.0	stop	target	D	89,Yellow Button	71,Green Button	850.0	1200.0	1900.0	1550.0	0.0	1.0	850.0	0.0	n/a	go_stim
156460.27741061267	1900.0	n/a	-1	-1	2750	855.722589387	stim	stop-signal	464	1288732	0.0-19.33-1.33	beast_fmri_test	119	n/a	n/a	<img class = center src='/static/experiments/beast_fmri_test/images/D.png'></img>	89,71	2750.0	test	<img class = center src='/static/experiments/beast_fmri_test/images/redD.png'></img>	stop	1900.0	3.0	33.0	stop	target	D	89,Yellow Button	71,Green Button	850.0	1200.0	1900.0	1550.0	0.0	1.0	850.0	0.0	n/a	stop_stim
157310.27741061267	855.722589387	n/a	-1	-1	2750	855.722589387	stim	stop-signal	464	1288732	0.0-19.33-1.33	beast_fmri_test	119	n/a	n/a	<img class = center src='/static/experiments/beast_fmri_test/images/D.png'></img>	89,71	2750.0	test	<img class = center src='/static/experiments/beast_fmri_test/images/redD.png'></img>	stop	1900.0	3.0	33.0	stop	target	D	89,Yellow Button	71,Green Button	850.0	1200.0	1900.0	1550.0	0.0	1.0	850.0	0.0	n/a	ITI
159535	500.0	n/a	-1	-1	500	0.0	fixation	poldrack-single-stim	465	1290101	0.0-19.34-0.34	beast_fmri_test	119	n/a	n/a	<div class = centerbox><div class = fixation>+</div></div>	none	500.0	test	n/a	n/a	n/a	n/a	n/a	n/a	n/a	n/a	n/a	n/a	n/a	n/a	n/a	n/a	n/a	n/a	n/a	n/a	n/a	fixation
158932.50358989299	1200.0	n/a	886	71	2750	604.496410107	stim	stop-signal	466	1292853	0.0-19.34-1.34	beast_fmri_test	119	n/a	n/a	<img class = center src='/static/experiments/beast_fmri_test/images/T.png'></img>	89,71	2750.0	test	<img class = center src='/static/experiments/beast_fmri_test/images/redT.png'></img>	stop	1550.0	3.0	34.0	stop	non-target	T	89,Yellow Button	71,Green Button	900.0	1200.0	1900.0	1550.0	0.0	0.0	1200.0	1.0	n/a	go_stim
160482.50358989299	1550.0	n/a	886	71	2750	604.496410107	stim	stop-signal	466	1292853	0.0-19.34-1.34	beast_fmri_test	119	n/a	n/a	<img class = center src='/static/experiments/beast_fmri_test/images/T.png'></img>	89,71	2750.0	test	<img class = center src='/static/experiments/beast_fmri_test/images/redT.png'></img>	stop	1550.0	3.0	34.0	stop	non-target	T	89,Yellow Button	71,Green Button	900.0	1200.0	1900.0	1550.0	0.0	0.0	1200.0	1.0	n/a	stop_stim
161682.50358989299	604.496410107	n/a	886	71	2750	604.496410107	stim	stop-signal	466	1292853	0.0-19.34-1.34	beast_fmri_test	119	n/a	n/a	<img class = center src='/static/experiments/beast_fmri_test/images/T.png'></img>	89,71	2750.0	test	<img class = center src='/static/experiments/beast_fmri_test/images/redT.png'></img>	stop	1550.0	3.0	34.0	stop	non-target	T	89,Yellow Button	71,Green Button	900.0	1200.0	1900.0	1550.0	0.0	0.0	1200.0	1.0	n/a	ITI
163407	500.0	n/a	-1	-1	500	0.0	fixation	poldrack-single-stim	467	1293973	0.0-19.35-0.35	beast_fmri_test	119	n/a	n/a	<div class = centerbox><div class = fixation>+</div></div>	none	500.0	test	n/a	n/a	n/a	n/a	n/a	n/a	n/a	n/a	n/a	n/a	n/a	n/a	n/a	n/a	n/a	n/a	n/a	n/a	n/a	fixation
162419.84053320484	1150.0	n/a	-1	-1	2750	988.159466795	stim	stop-signal	468	1296724	0.0-19.35-1.35	beast_fmri_test	119	n/a	n/a	<img class = center src='/static/experiments/beast_fmri_test/images/V.png'></img>	89,71	2750.0	test	<img class = center src='/static/experiments/beast_fmri_test/images/redV.png'></img>	stop	1600.0	3.0	35.0	stop	non-target	V	89,Yellow Button	71,Green Button	900.0	1150.0	1900.0	1600.0	0.0	1.0	1150.0	0.0	n/a	go_stim
164019.84053320484	1600.0	n/a	-1	-1	2750	988.159466795	stim	stop-signal	468	1296724	0.0-19.35-1.35	beast_fmri_test	119	n/a	n/a	<img class = center src='/static/experiments/beast_fmri_test/images/V.png'></img>	89,71	2750.0	test	<img class = center src='/static/experiments/beast_fmri_test/images/redV.png'></img>	stop	1600.0	3.0	35.0	stop	non-target	V	89,Yellow Button	71,Green Button	900.0	1150.0	1900.0	1600.0	0.0	1.0	1150.0	0.0	n/a	stop_stim
165169.84053320484	988.159466795	n/a	-1	-1	2750	988.159466795	stim	stop-signal	468	1296724	0.0-19.35-1.35	beast_fmri_test	119	n/a	n/a	<img class = center src='/static/experiments/beast_fmri_test/images/V.png'></img>	89,71	2750.0	test	<img class = center src='/static/experiments/beast_fmri_test/images/redV.png'></img>	stop	1600.0	3.0	35.0	stop	non-target	V	89,Yellow Button	71,Green Button	900.0	1150.0	1900.0	1600.0	0.0	1.0	1150.0	0.0	n/a	ITI
167663	500.0	n/a	-1	-1	500	0.0	fixation	poldrack-single-stim	469	1298229	0.0-19.36-0.36	beast_fmri_test	119	n/a	n/a	<div class = centerbox><div class = fixation>+</div></div>	none	500.0	test	n/a	n/a	n/a	n/a	n/a	n/a	n/a	n/a	n/a	n/a	n/a	n/a	n/a	n/a	n/a	n/a	n/a	n/a	n/a	fixation
167453.08613224467	2750.0	n/a	1587	89	2750	210.913867755	stim	stop-signal	470	1300980	0.0-19.36-1.36	beast_fmri_test	119	n/a	n/a	<img class = center src='/static/experiments/beast_fmri_test/images/D.png'></img>	89,71	2750.0	test	<img class = center src='/static/experiments/beast_fmri_test/images/redD.png'></img>	go	1850.0	3.0	36.0	go	target	D	89,Yellow Button	71,Green Button	900.0	1200.0	1850.0	1600.0	1.0	n/a	900.0	1.0	n/a	go_stim
170203.08613224467	210.913867755	n/a	1587	89	2750	210.913867755	stim	stop-signal	470	1300980	0.0-19.36-1.36	beast_fmri_test	119	n/a	n/a	<img class = center src='/static/experiments/beast_fmri_test/images/D.png'></img>	89,71	2750.0	test	<img class = center src='/static/experiments/beast_fmri_test/images/redD.png'></img>	go	1850.0	3.0	36.0	go	target	D	89,Yellow Button	71,Green Button	900.0	1200.0	1850.0	1600.0	1.0	n/a	900.0	1.0	n/a	ITI
171142	500.0	n/a	-1	-1	500	0.0	fixation	poldrack-single-stim	471	1301708	0.0-19.37-0.37	beast_fmri_test	119	n/a	n/a	<div class = centerbox><div class = fixation>+</div></div>	none	500.0	test	n/a	n/a	n/a	n/a	n/a	n/a	n/a	n/a	n/a	n/a	n/a	n/a	n/a	n/a	n/a	n/a	n/a	n/a	n/a	fixation
170751.529232929	2750.0	n/a	1053	71	2750	392.470767071	stim	stop-signal	472	1304460	0.0-19.37-1.37	beast_fmri_test	119	n/a	n/a	<img class = center src='/static/experiments/beast_fmri_test/images/T.png'></img>	89,71	2750.0	test	<img class = center src='/static/experiments/beast_fmri_test/images/redT.png'></img>	go	1850.0	3.0	37.0	go	target	T	89,Yellow Button	71,Green Button	900.0	1200.0	1850.0	1600.0	0.0	n/a	900.0	0.0	n/a	go_stim
173501.529232929	392.470767071	n/a	1053	71	2750	392.470767071	stim	stop-signal	472	1304460	0.0-19.37-1.37	beast_fmri_test	119	n/a	n/a	<img class = center src='/static/experiments/beast_fmri_test/images/T.png'></img>	89,71	2750.0	test	<img class = center src='/static/experiments/beast_fmri_test/images/redT.png'></img>	go	1850.0	3.0	37.0	go	target	T	89,Yellow Button	71,Green Button	900.0	1200.0	1850.0	1600.0	0.0	n/a	900.0	0.0	n/a	ITI
174802	500.0	n/a	-1	-1	500	0.0	fixation	poldrack-single-stim	473	1305368	0.0-19.38-0.38	beast_fmri_test	119	n/a	n/a	<div class = centerbox><div class = fixation>+</div></div>	none	500.0	test	n/a	n/a	n/a	n/a	n/a	n/a	n/a	n/a	n/a	n/a	n/a	n/a	n/a	n/a	n/a	n/a	n/a	n/a	n/a	fixation
173962.09429849847	2750.0	n/a	840	71	2750	841.905701502	stim	stop-signal	474	1308120	0.0-19.38-1.38	beast_fmri_test	119	1306687,/	t	<img class = center src='/static/experiments/beast_fmri_test/images/D.png'></img>	89,71	2750.0	test	<img class = center src='/static/experiments/beast_fmri_test/images/redD.png'></img>	go	1550.0	3.0	38.0	go	non-target	D	89,Yellow Button	71,Green Button	900.0	1200.0	1850.0	1550.0	1.0	n/a	1200.0	1.0	n/a	go_stim
176712.09429849847	841.905701502	n/a	840	71	2750	841.905701502	stim	stop-signal	474	1308120	0.0-19.38-1.38	beast_fmri_test	119	1306687,/	t	<img class = center src='/static/experiments/beast_fmri_test/images/D.png'></img>	89,71	2750.0	test	<img class = center src='/static/experiments/beast_fmri_test/images/redD.png'></img>	go	1550.0	3.0	38.0	go	non-target	D	89,Yellow Button	71,Green Button	900.0	1200.0	1850.0	1550.0	1.0	n/a	1200.0	1.0	n/a	ITI
178910	500.0	n/a	-1	-1	500	0.0	fixation	poldrack-single-stim	475	1309476	0.0-19.39-0.39	beast_fmri_test	119	n/a	n/a	<div class = centerbox><div class = fixation>+</div></div>	none	500.0	test	n/a	n/a	n/a	n/a	n/a	n/a	n/a	n/a	n/a	n/a	n/a	n/a	n/a	n/a	n/a	n/a	n/a	n/a	n/a	fixation
178694.49022532487	2750.0	n/a	762	71	2750	216.509774675	stim	stop-signal	476	1312227	0.0-19.39-1.39	beast_fmri_test	119	n/a	n/a	<img class = center src='/static/experiments/beast_fmri_test/images/D.png'></img>	89,71	2750.0	test	<img class = center src='/static/experiments/beast_fmri_test/images/redD.png'></img>	go	1850.0	3.0	39.0	go	target	D	89,Yellow Button	71,Green Button	900.0	1200.0	1850.0	1550.0	0.0	n/a	900.0	0.0	n/a	go_stim
181444.49022532487	216.509774675	n/a	762	71	2750	216.509774675	stim	stop-signal	476	1312227	0.0-19.39-1.39	beast_fmri_test	119	n/a	n/a	<img class = center src='/static/experiments/beast_fmri_test/images/D.png'></img>	89,71	2750.0	test	<img class = center src='/static/experiments/beast_fmri_test/images/redD.png'></img>	go	1850.0	3.0	39.0	go	target	D	89,Yellow Button	71,Green Button	900.0	1200.0	1850.0	1550.0	0.0	n/a	900.0	0.0	n/a	ITI
182392	500.0	n/a	-1	-1	500	0.0	fixation	poldrack-single-stim	477	1312958	0.0-19.40-0.40	beast_fmri_test	119	n/a	n/a	<div class = centerbox><div class = fixation>+</div></div>	none	500.0	test	n/a	n/a	n/a	n/a	n/a	n/a	n/a	n/a	n/a	n/a	n/a	n/a	n/a	n/a	n/a	n/a	n/a	n/a	n/a	fixation
181710.69294765173	900.0	n/a	-1	-1	2750	682.307052348	stim	stop-signal	478	1315709	0.0-19.40-1.40	beast_fmri_test	119	n/a	n/a	<img class = center src='/static/experiments/beast_fmri_test/images/T.png'></img>	89,71	2750.0	test	<img class = center src='/static/experiments/beast_fmri_test/images/redT.png'></img>	stop	1850.0	3.0	40.0	stop	target	T	89,Yellow Button	71,Green Button	900.0	1200.0	1850.0	1550.0	0.0	1.0	900.0	0.0	n/a	go_stim
183560.69294765173	1850.0	n/a	-1	-1	2750	682.307052348	stim	stop-signal	478	1315709	0.0-19.40-1.40	beast_fmri_test	119	n/a	n/a	<img class = center src='/static/experiments/beast_fmri_test/images/T.png'></img>	89,71	2750.0	test	<img class = center src='/static/experiments/beast_fmri_test/images/redT.png'></img>	stop	1850.0	3.0	40.0	stop	target	T	89,Yellow Button	71,Green Button	900.0	1200.0	1850.0	1550.0	0.0	1.0	900.0	0.0	n/a	stop_stim
184460.69294765173	682.307052348	n/a	-1	-1	2750	682.307052348	stim	stop-signal	478	1315709	0.0-19.40-1.40	beast_fmri_test	119	n/a	n/a	<img class = center src='/static/experiments/beast_fmri_test/images/T.png'></img>	89,71	2750.0	test	<img class = center src='/static/experiments/beast_fmri_test/images/redT.png'></img>	stop	1850.0	3.0	40.0	stop	target	T	89,Yellow Button	71,Green Button	900.0	1200.0	1850.0	1550.0	0.0	1.0	900.0	0.0	n/a	ITI
186338	500.0	n/a	-1	-1	500	0.0	fixation	poldrack-single-stim	479	1316904	0.0-19.41-0.41	beast_fmri_test	119	n/a	n/a	<div class = centerbox><div class = fixation>+</div></div>	none	500.0	test	n/a	n/a	n/a	n/a	n/a	n/a	n/a	n/a	n/a	n/a	n/a	n/a	n/a	n/a	n/a	n/a	n/a	n/a	n/a	fixation
185109.42989029409	2750.0	n/a	1480	89	2750	1230.57010971	stim	stop-signal	480	1319656	0.0-19.41-1.41	beast_fmri_test	119	n/a	n/a	<img class = center src='/static/experiments/beast_fmri_test/images/D.png'></img>	89,71	2750.0	test	<img class = center src='/static/experiments/beast_fmri_test/images/redD.png'></img>	go	1800.0	3.0	41.0	go	target	D	89,Yellow Button	71,Green Button	950.0	1200.0	1800.0	1550.0	1.0	n/a	950.0	1.0	n/a	go_stim
187859.42989029409	1230.57010971	n/a	1480	89	2750	1230.57010971	stim	stop-signal	480	1319656	0.0-19.41-1.41	beast_fmri_test	119	n/a	n/a	<img class = center src='/static/experiments/beast_fmri_test/images/D.png'></img>	89,71	2750.0	test	<img class = center src='/static/experiments/beast_fmri_test/images/redD.png'></img>	go	1800.0	3.0	41.0	go	target	D	89,Yellow Button	71,Green Button	950.0	1200.0	1800.0	1550.0	1.0	n/a	950.0	1.0	n/a	ITI
190838	500.0	n/a	-1	-1	500	0.0	fixation	poldrack-single-stim	481	1321404	0.0-19.42-0.42	beast_fmri_test	119	n/a	n/a	<div class = centerbox><div class = fixation>+</div></div>	none	500.0	test	n/a	n/a	n/a	n/a	n/a	n/a	n/a	n/a	n/a	n/a	n/a	n/a	n/a	n/a	n/a	n/a	n/a	n/a	n/a	fixation
189692.98082264722	2750.0	n/a	2422	71	2750	1146.01917735	stim	stop-signal	482	1324155	0.0-19.42-1.42	beast_fmri_test	119	1321649,/	t	<img class = center src='/static/experiments/beast_fmri_test/images/T.png'></img>	89,71	2750.0	test	<img class = center src='/static/experiments/beast_fmri_test/images/redT.png'></img>	go	1550.0	3.0	42.0	go	non-target	T	89,Yellow Button	71,Green Button	950.0	1200.0	1800.0	1550.0	1.0	n/a	1200.0	1.0	n/a	go_stim
192442.98082264722	1146.01917735	n/a	2422	71	2750	1146.01917735	stim	stop-signal	482	1324155	0.0-19.42-1.42	beast_fmri_test	119	1321649,/	t	<img class = center src='/static/experiments/beast_fmri_test/images/T.png'></img>	89,71	2750.0	test	<img class = center src='/static/experiments/beast_fmri_test/images/redT.png'></img>	go	1550.0	3.0	42.0	go	non-target	T	89,Yellow Button	71,Green Button	950.0	1200.0	1800.0	1550.0	1.0	n/a	1200.0	1.0	n/a	ITI
195253	500.0	n/a	-1	-1	500	0.0	fixation	poldrack-single-stim	483	1325819	0.0-19.43-0.43	beast_fmri_test	119	n/a	n/a	<div class = centerbox><div class = fixation>+</div></div>	none	500.0	test	n/a	n/a	n/a	n/a	n/a	n/a	n/a	n/a	n/a	n/a	n/a	n/a	n/a	n/a	n/a	n/a	n/a	n/a	n/a	fixation
194769.8528876605	950.0	n/a	1594	71	2750	485.14711234	stim	stop-signal	484	1328571	0.0-19.43-1.43	beast_fmri_test	119	n/a	n/a	<img class = center src='/static/experiments/beast_fmri_test/images/T.png'></img>	89,71	2750.0	test	<img class = center src='/static/experiments/beast_fmri_test/images/redT.png'></img>	stop	1800.0	3.0	43.0	stop	target	T	89,Yellow Button	71,Green Button	950.0	1200.0	1800.0	1550.0	0.0	0.0	950.0	0.0	n/a	go_stim
196569.8528876605	1800.0	n/a	1594	71	2750	485.14711234	stim	stop-signal	484	1328571	0.0-19.43-1.43	beast_fmri_test	119	n/a	n/a	<img class = center src='/static/experiments/beast_fmri_test/images/T.png'></img>	89,71	2750.0	test	<img class = center src='/static/experiments/beast_fmri_test/images/redT.png'></img>	stop	1800.0	3.0	43.0	stop	target	T	89,Yellow Button	71,Green Button	950.0	1200.0	1800.0	1550.0	0.0	0.0	950.0	0.0	n/a	stop_stim
197519.8528876605	485.14711234	n/a	1594	71	2750	485.14711234	stim	stop-signal	484	1328571	0.0-19.43-1.43	beast_fmri_test	119	n/a	n/a	<img class = center src='/static/experiments/beast_fmri_test/images/T.png'></img>	89,71	2750.0	test	<img class = center src='/static/experiments/beast_fmri_test/images/redT.png'></img>	stop	1800.0	3.0	43.0	stop	target	T	89,Yellow Button	71,Green Button	950.0	1200.0	1800.0	1550.0	0.0	0.0	950.0	0.0	n/a	ITI
199007	500.0	n/a	-1	-1	500	0.0	fixation	poldrack-single-stim	485	1329573	0.0-19.44-0.44	beast_fmri_test	119	n/a	n/a	<div class = centerbox><div class = fixation>+</div></div>	none	500.0	test	n/a	n/a	n/a	n/a	n/a	n/a	n/a	n/a	n/a	n/a	n/a	n/a	n/a	n/a	n/a	n/a	n/a	n/a	n/a	fixation
198027.81714059948	2750.0	n/a	1681	89	2750	981.1828594	stim	stop-signal	486	1332325	0.0-19.44-1.44	beast_fmri_test	119	n/a	n/a	<img class = center src='/static/experiments/beast_fmri_test/images/D.png'></img>	89,71	2750.0	test	<img class = center src='/static/experiments/beast_fmri_test/images/redD.png'></img>	go	1850.0	3.0	44.0	go	target	D	89,Yellow Button	71,Green Button	900.0	1200.0	1850.0	1550.0	1.0	n/a	900.0	1.0	n/a	go_stim
200777.81714059948	981.1828594	n/a	1681	89	2750	981.1828594	stim	stop-signal	486	1332325	0.0-19.44-1.44	beast_fmri_test	119	n/a	n/a	<img class = center src='/static/experiments/beast_fmri_test/images/D.png'></img>	89,71	2750.0	test	<img class = center src='/static/experiments/beast_fmri_test/images/redD.png'></img>	go	1850.0	3.0	44.0	go	target	D	89,Yellow Button	71,Green Button	900.0	1200.0	1850.0	1550.0	1.0	n/a	900.0	1.0	n/a	ITI
203257	500.0	n/a	-1	-1	500	0.0	fixation	poldrack-single-stim	487	1333823	0.0-19.45-0.45	beast_fmri_test	119	n/a	n/a	<div class = centerbox><div class = fixation>+</div></div>	none	500.0	test	n/a	n/a	n/a	n/a	n/a	n/a	n/a	n/a	n/a	n/a	n/a	n/a	n/a	n/a	n/a	n/a	n/a	n/a	n/a	fixation
201718.84894574247	2750.0	n/a	974	71	2750	1541.15105426	stim	stop-signal	488	1336576	0.0-19.45-1.45	beast_fmri_test	119	n/a	n/a	<img class = center src='/static/experiments/beast_fmri_test/images/D.png'></img>	89,71	2750.0	test	<img class = center src='/static/experiments/beast_fmri_test/images/redD.png'></img>	go	1550.0	3.0	45.0	go	non-target	D	89,Yellow Button	71,Green Button	900.0	1200.0	1850.0	1550.0	1.0	n/a	1200.0	1.0	n/a	go_stim
204468.84894574247	1541.15105426	n/a	974	71	2750	1541.15105426	stim	stop-signal	488	1336576	0.0-19.45-1.45	beast_fmri_test	119	n/a	n/a	<img class = center src='/static/experiments/beast_fmri_test/images/D.png'></img>	89,71	2750.0	test	<img class = center src='/static/experiments/beast_fmri_test/images/redD.png'></img>	go	1550.0	3.0	45.0	go	non-target	D	89,Yellow Button	71,Green Button	900.0	1200.0	1850.0	1550.0	1.0	n/a	1200.0	1.0	n/a	ITI
208067	500.0	n/a	-1	-1	500	0.0	fixation	poldrack-single-stim	489	1338633	0.0-19.46-0.46	beast_fmri_test	119	n/a	n/a	<div class = centerbox><div class = fixation>+</div></div>	none	500.0	test	n/a	n/a	n/a	n/a	n/a	n/a	n/a	n/a	n/a	n/a	n/a	n/a	n/a	n/a	n/a	n/a	n/a	n/a	n/a	fixation
207535.63889914937	900.0	n/a	-1	-1	2750	532.361100851	stim	stop-signal	490	1341384	0.0-19.46-1.46	beast_fmri_test	119	1339329,/	t	<img class = center src='/static/experiments/beast_fmri_test/images/T.png'></img>	89,71	2750.0	test	<img class = center src='/static/experiments/beast_fmri_test/images/redT.png'></img>	stop	1850.0	3.0	46.0	stop	target	T	89,Yellow Button	71,Green Button	900.0	1200.0	1850.0	1550.0	0.0	1.0	900.0	0.0	n/a	go_stim
209385.63889914937	1850.0	n/a	-1	-1	2750	532.361100851	stim	stop-signal	490	1341384	0.0-19.46-1.46	beast_fmri_test	119	1339329,/	t	<img class = center src='/static/experiments/beast_fmri_test/images/T.png'></img>	89,71	2750.0	test	<img class = center src='/static/experiments/beast_fmri_test/images/redT.png'></img>	stop	1850.0	3.0	46.0	stop	target	T	89,Yellow Button	71,Green Button	900.0	1200.0	1850.0	1550.0	0.0	1.0	900.0	0.0	n/a	stop_stim
210285.63889914937	532.361100851	n/a	-1	-1	2750	532.361100851	stim	stop-signal	490	1341384	0.0-19.46-1.46	beast_fmri_test	119	1339329,/	t	<img class = center src='/static/experiments/beast_fmri_test/images/T.png'></img>	89,71	2750.0	test	<img class = center src='/static/experiments/beast_fmri_test/images/redT.png'></img>	stop	1850.0	3.0	46.0	stop	target	T	89,Yellow Button	71,Green Button	900.0	1200.0	1850.0	1550.0	0.0	1.0	900.0	0.0	n/a	ITI
211866	500.0	n/a	-1	-1	500	0.0	fixation	poldrack-single-stim	491	1342432	0.0-19.47-0.47	beast_fmri_test	119	n/a	n/a	<div class = centerbox><div class = fixation>+</div></div>	none	500.0	test	n/a	n/a	n/a	n/a	n/a	n/a	n/a	n/a	n/a	n/a	n/a	n/a	n/a	n/a	n/a	n/a	n/a	n/a	n/a	fixation
209650.09193251585	2750.0	n/a	1296	71	2750	2216.90806748	stim	stop-signal	492	1345183	0.0-19.47-1.47	beast_fmri_test	119	n/a	n/a	<img class = center src='/static/experiments/beast_fmri_test/images/V.png'></img>	89,71	2750.0	test	<img class = center src='/static/experiments/beast_fmri_test/images/redV.png'></img>	go	1550.0	3.0	47.0	go	non-target	V	89,Yellow Button	71,Green Button	950.0	1200.0	1850.0	1550.0	1.0	n/a	1200.0	1.0	n/a	go_stim
212400.09193251585	2216.90806748	n/a	1296	71	2750	2216.90806748	stim	stop-signal	492	1345183	0.0-19.47-1.47	beast_fmri_test	119	n/a	n/a	<img class = center src='/static/experiments/beast_fmri_test/images/V.png'></img>	89,71	2750.0	test	<img class = center src='/static/experiments/beast_fmri_test/images/redV.png'></img>	go	1550.0	3.0	47.0	go	non-target	V	89,Yellow Button	71,Green Button	950.0	1200.0	1850.0	1550.0	1.0	n/a	1200.0	1.0	n/a	ITI
231849	15000.0	n/a	-1	-1	15000	0.0	practice-no-stop-feedback	poldrack-single-stim	493	1362415	0.0-20.0	beast_fmri_test	119	n/a	n/a	"<div class = ""centerbox""><p class = ""center-block-text"">Your delay is 2 trials.</p><p class = center-block-text>Please wait for the scanner to start the block</p></div>"	77	15000.0	n/a	n/a	n/a	n/a	n/a	n/a	n/a	n/a	n/a	n/a	n/a	n/a	n/a	n/a	n/a	n/a	n/a	n/a	n/a	n/a	practice-no-stop-feedback
232351	500.0	n/a	-1	-1	500	0.0	fixation	poldrack-single-stim	494	1362917	0.0-21.0-0.0	beast_fmri_test	119	n/a	n/a	<div class = centerbox><div class = fixation>+</div></div>	none	500.0	test	n/a	n/a	n/a	n/a	n/a	n/a	n/a	n/a	n/a	n/a	n/a	n/a	n/a	n/a	n/a	n/a	n/a	n/a	n/a	fixation
230403.85427832394	2750.0	n/a	1025	71	2750	1949.14572168	stim	stop-signal	495	1365669	0.0-21.0-1.0	beast_fmri_test	119	1366529,/	t	<img class = center src='/static/experiments/beast_fmri_test/images/V.png'></img>	89,71	2750.0	test	<img class = center src='/static/experiments/beast_fmri_test/images/redV.png'></img>	go	-1.0	2.0	0.0	go	temp-non-target	V	89,Yellow Button	71,Green Button	950.0	1200.0	1850.0	1550.0	0.0	n/a	n/a	n/a	n/a	go_stim
233153.85427832394	1949.14572168	n/a	1025	71	2750	1949.14572168	stim	stop-signal	495	1365669	0.0-21.0-1.0	beast_fmri_test	119	1366529,/	t	<img class = center src='/static/experiments/beast_fmri_test/images/V.png'></img>	89,71	2750.0	test	<img class = center src='/static/experiments/beast_fmri_test/images/redV.png'></img>	go	-1.0	2.0	0.0	go	temp-non-target	V	89,Yellow Button	71,Green Button	950.0	1200.0	1850.0	1550.0	0.0	n/a	n/a	n/a	n/a	ITI
237569	500.0	n/a	-1	-1	500	0.0	fixation	poldrack-single-stim	496	1368135	0.0-21.1-0.1	beast_fmri_test	119	n/a	n/a	<div class = centerbox><div class = fixation>+</div></div>	none	500.0	test	n/a	n/a	n/a	n/a	n/a	n/a	n/a	n/a	n/a	n/a	n/a	n/a	n/a	n/a	n/a	n/a	n/a	n/a	n/a	fixation
237323.48432224547	2750.0	n/a	988	71	2750	247.515677754	stim	stop-signal	497	1370887	0.0-21.1-1.1	beast_fmri_test	119	n/a	n/a	<img class = center src='/static/experiments/beast_fmri_test/images/V.png'></img>	89,71	2750.0	test	<img class = center src='/static/experiments/beast_fmri_test/images/redV.png'></img>	go	-1.0	2.0	1.0	go	temp-non-target	V	89,Yellow Button	71,Green Button	950.0	1200.0	1850.0	1550.0	0.0	n/a	n/a	n/a	n/a	go_stim
240073.48432224547	247.515677754	n/a	988	71	2750	247.515677754	stim	stop-signal	497	1370887	0.0-21.1-1.1	beast_fmri_test	119	n/a	n/a	<img class = center src='/static/experiments/beast_fmri_test/images/V.png'></img>	89,71	2750.0	test	<img class = center src='/static/experiments/beast_fmri_test/images/redV.png'></img>	go	-1.0	2.0	1.0	go	temp-non-target	V	89,Yellow Button	71,Green Button	950.0	1200.0	1850.0	1550.0	0.0	n/a	n/a	n/a	n/a	ITI
241087	500.0	n/a	-1	-1	500	0.0	fixation	poldrack-single-stim	498	1371653	0.0-21.2-0.2	beast_fmri_test	119	n/a	n/a	<div class = centerbox><div class = fixation>+</div></div>	none	500.0	test	n/a	n/a	n/a	n/a	n/a	n/a	n/a	n/a	n/a	n/a	n/a	n/a	n/a	n/a	n/a	n/a	n/a	n/a	n/a	fixation
240093.28559824987	2750.0	n/a	969	71	2750	994.71440175	stim	stop-signal	499	1374404	0.0-21.2-1.2	beast_fmri_test	119	n/a	n/a	<img class = center src='/static/experiments/beast_fmri_test/images/T.png'></img>	89,71	2750.0	test	<img class = center src='/static/experiments/beast_fmri_test/images/redT.png'></img>	go	1550.0	2.0	2.0	go	non-target	T	89,Yellow Button	71,Green Button	950.0	1200.0	1850.0	1550.0	1.0	n/a	1200.0	1.0	n/a	go_stim
242843.28559824987	994.71440175	n/a	969	71	2750	994.71440175	stim	stop-signal	499	1374404	0.0-21.2-1.2	beast_fmri_test	119	n/a	n/a	<img class = center src='/static/experiments/beast_fmri_test/images/T.png'></img>	89,71	2750.0	test	<img class = center src='/static/experiments/beast_fmri_test/images/redT.png'></img>	go	1550.0	2.0	2.0	go	non-target	T	89,Yellow Button	71,Green Button	950.0	1200.0	1850.0	1550.0	1.0	n/a	1200.0	1.0	n/a	ITI
245345	500.0	n/a	-1	-1	500	0.0	fixation	poldrack-single-stim	500	1375911	0.0-21.3-0.3	beast_fmri_test	119	n/a	n/a	<div class = centerbox><div class = fixation>+</div></div>	none	500.0	test	n/a	n/a	n/a	n/a	n/a	n/a	n/a	n/a	n/a	n/a	n/a	n/a	n/a	n/a	n/a	n/a	n/a	n/a	n/a	fixation
244968.05376595934	2750.0	n/a	756	89	2750	378.946234041	stim	stop-signal	501	1378663	0.0-21.3-1.3	beast_fmri_test	119	n/a	n/a	<img class = center src='/static/experiments/beast_fmri_test/images/V.png'></img>	89,71	2750.0	test	<img class = center src='/static/experiments/beast_fmri_test/images/redV.png'></img>	go	1800.0	2.0	3.0	go	target	V	89,Yellow Button	71,Green Button	950.0	1200.0	1800.0	1550.0	1.0	n/a	950.0	1.0	n/a	go_stim
247718.05376595934	378.946234041	n/a	756	89	2750	378.946234041	stim	stop-signal	501	1378663	0.0-21.3-1.3	beast_fmri_test	119	n/a	n/a	<img class = center src='/static/experiments/beast_fmri_test/images/V.png'></img>	89,71	2750.0	test	<img class = center src='/static/experiments/beast_fmri_test/images/redV.png'></img>	go	1800.0	2.0	3.0	go	target	V	89,Yellow Button	71,Green Button	950.0	1200.0	1800.0	1550.0	1.0	n/a	950.0	1.0	n/a	ITI
248990	500.0	n/a	-1	-1	500	0.0	fixation	poldrack-single-stim	502	1379556	0.0-21.4-0.4	beast_fmri_test	119	n/a	n/a	<div class = centerbox><div class = fixation>+</div></div>	none	500.0	test	n/a	n/a	n/a	n/a	n/a	n/a	n/a	n/a	n/a	n/a	n/a	n/a	n/a	n/a	n/a	n/a	n/a	n/a	n/a	fixation
248959.59275735775	2750.0	n/a	907	71	2750	32.4072426423	stim	stop-signal	503	1382308	0.0-21.4-1.4	beast_fmri_test	119	n/a	n/a	<img class = center src='/static/experiments/beast_fmri_test/images/V.png'></img>	89,71	2750.0	test	<img class = center src='/static/experiments/beast_fmri_test/images/redV.png'></img>	go	1550.0	2.0	4.0	go	non-target	V	89,Yellow Button	71,Green Button	950.0	1200.0	1800.0	1550.0	1.0	n/a	1200.0	1.0	n/a	go_stim
251709.59275735775	32.4072426423	n/a	907	71	2750	32.4072426423	stim	stop-signal	503	1382308	0.0-21.4-1.4	beast_fmri_test	119	n/a	n/a	<img class = center src='/static/experiments/beast_fmri_test/images/V.png'></img>	89,71	2750.0	test	<img class = center src='/static/experiments/beast_fmri_test/images/redV.png'></img>	go	1550.0	2.0	4.0	go	non-target	V	89,Yellow Button	71,Green Button	950.0	1200.0	1800.0	1550.0	1.0	n/a	1200.0	1.0	n/a	ITI
252292	500.0	n/a	-1	-1	500	0.0	fixation	poldrack-single-stim	504	1382858	0.0-21.5-0.5	beast_fmri_test	119	n/a	n/a	<div class = centerbox><div class = fixation>+</div></div>	none	500.0	test	n/a	n/a	n/a	n/a	n/a	n/a	n/a	n/a	n/a	n/a	n/a	n/a	n/a	n/a	n/a	n/a	n/a	n/a	n/a	fixation
251612.14916373882	1200.0	n/a	695	71	2750	682.850836261	stim	stop-signal	505	1385611	0.0-21.5-1.5	beast_fmri_test	119	n/a	n/a	<img class = center src='/static/experiments/beast_fmri_test/images/B.png'></img>	89,71	2750.0	test	<img class = center src='/static/experiments/beast_fmri_test/images/redB.png'></img>	stop	1550.0	2.0	5.0	stop	non-target	B	89,Yellow Button	71,Green Button	950.0	1200.0	1800.0	1550.0	0.0	0.0	1200.0	1.0	n/a	go_stim
253162.14916373882	1550.0	n/a	695	71	2750	682.850836261	stim	stop-signal	505	1385611	0.0-21.5-1.5	beast_fmri_test	119	n/a	n/a	<img class = center src='/static/experiments/beast_fmri_test/images/B.png'></img>	89,71	2750.0	test	<img class = center src='/static/experiments/beast_fmri_test/images/redB.png'></img>	stop	1550.0	2.0	5.0	stop	non-target	B	89,Yellow Button	71,Green Button	950.0	1200.0	1800.0	1550.0	0.0	0.0	1200.0	1.0	n/a	stop_stim
254362.14916373882	682.850836261	n/a	695	71	2750	682.850836261	stim	stop-signal	505	1385611	0.0-21.5-1.5	beast_fmri_test	119	n/a	n/a	<img class = center src='/static/experiments/beast_fmri_test/images/B.png'></img>	89,71	2750.0	test	<img class = center src='/static/experiments/beast_fmri_test/images/redB.png'></img>	stop	1550.0	2.0	5.0	stop	non-target	B	89,Yellow Button	71,Green Button	950.0	1200.0	1800.0	1550.0	0.0	0.0	1200.0	1.0	n/a	ITI
256245	500.0	n/a	-1	-1	500	0.0	fixation	poldrack-single-stim	506	1386811	0.0-21.6-0.6	beast_fmri_test	119	n/a	n/a	<div class = centerbox><div class = fixation>+</div></div>	none	500.0	test	n/a	n/a	n/a	n/a	n/a	n/a	n/a	n/a	n/a	n/a	n/a	n/a	n/a	n/a	n/a	n/a	n/a	n/a	n/a	fixation
253780.18488364411	1150.0	n/a	1041	71	2750	2465.81511636	stim	stop-signal	507	1389562	0.0-21.6-1.6	beast_fmri_test	119	n/a	n/a	<img class = center src='/static/experiments/beast_fmri_test/images/B.png'></img>	89,71	2750.0	test	<img class = center src='/static/experiments/beast_fmri_test/images/redB.png'></img>	stop	1600.0	2.0	6.0	stop	non-target	B	89,Yellow Button	71,Green Button	950.0	1150.0	1800.0	1600.0	0.0	0.0	1150.0	1.0	n/a	go_stim
255380.18488364411	1600.0	n/a	1041	71	2750	2465.81511636	stim	stop-signal	507	1389562	0.0-21.6-1.6	beast_fmri_test	119	n/a	n/a	<img class = center src='/static/experiments/beast_fmri_test/images/B.png'></img>	89,71	2750.0	test	<img class = center src='/static/experiments/beast_fmri_test/images/redB.png'></img>	stop	1600.0	2.0	6.0	stop	non-target	B	89,Yellow Button	71,Green Button	950.0	1150.0	1800.0	1600.0	0.0	0.0	1150.0	1.0	n/a	stop_stim
256530.18488364411	2465.81511636	n/a	1041	71	2750	2465.81511636	stim	stop-signal	507	1389562	0.0-21.6-1.6	beast_fmri_test	119	n/a	n/a	<img class = center src='/static/experiments/beast_fmri_test/images/B.png'></img>	89,71	2750.0	test	<img class = center src='/static/experiments/beast_fmri_test/images/redB.png'></img>	stop	1600.0	2.0	6.0	stop	non-target	B	89,Yellow Button	71,Green Button	950.0	1150.0	1800.0	1600.0	0.0	0.0	1150.0	1.0	n/a	ITI
261979	500.0	n/a	-1	-1	500	0.0	fixation	poldrack-single-stim	508	1392545	0.0-21.7-0.7	beast_fmri_test	119	n/a	n/a	<div class = centerbox><div class = fixation>+</div></div>	none	500.0	test	n/a	n/a	n/a	n/a	n/a	n/a	n/a	n/a	n/a	n/a	n/a	n/a	n/a	n/a	n/a	n/a	n/a	n/a	n/a	fixation
261596.44425190939	2750.0	n/a	861	89	2750	384.555748091	stim	stop-signal	509	1395297	0.0-21.7-1.7	beast_fmri_test	119	n/a	n/a	<img class = center src='/static/experiments/beast_fmri_test/images/B.png'></img>	89,71	2750.0	test	<img class = center src='/static/experiments/beast_fmri_test/images/redB.png'></img>	go	1800.0	2.0	7.0	go	target	B	89,Yellow Button	71,Green Button	950.0	1100.0	1800.0	1600.0	1.0	n/a	950.0	1.0	n/a	go_stim
264346.44425190939	384.555748091	n/a	861	89	2750	384.555748091	stim	stop-signal	509	1395297	0.0-21.7-1.7	beast_fmri_test	119	n/a	n/a	<img class = center src='/static/experiments/beast_fmri_test/images/B.png'></img>	89,71	2750.0	test	<img class = center src='/static/experiments/beast_fmri_test/images/redB.png'></img>	go	1800.0	2.0	7.0	go	target	B	89,Yellow Button	71,Green Button	950.0	1100.0	1800.0	1600.0	1.0	n/a	950.0	1.0	n/a	ITI
265636	500.0	n/a	-1	-1	500	0.0	fixation	poldrack-single-stim	510	1396202	0.0-21.8-0.8	beast_fmri_test	119	n/a	n/a	<div class = centerbox><div class = fixation>+</div></div>	none	500.0	test	n/a	n/a	n/a	n/a	n/a	n/a	n/a	n/a	n/a	n/a	n/a	n/a	n/a	n/a	n/a	n/a	n/a	n/a	n/a	fixation
264605.13570432179	2750.0	n/a	807	89	2750	1032.86429568	stim	stop-signal	511	1398954	0.0-21.8-1.8	beast_fmri_test	119	n/a	n/a	<img class = center src='/static/experiments/beast_fmri_test/images/B.png'></img>	89,71	2750.0	test	<img class = center src='/static/experiments/beast_fmri_test/images/redB.png'></img>	go	1800.0	2.0	8.0	go	target	B	89,Yellow Button	71,Green Button	950.0	1100.0	1800.0	1600.0	1.0	n/a	950.0	1.0	n/a	go_stim
267355.13570432179	1032.86429568	n/a	807	89	2750	1032.86429568	stim	stop-signal	511	1398954	0.0-21.8-1.8	beast_fmri_test	119	n/a	n/a	<img class = center src='/static/experiments/beast_fmri_test/images/B.png'></img>	89,71	2750.0	test	<img class = center src='/static/experiments/beast_fmri_test/images/redB.png'></img>	go	1800.0	2.0	8.0	go	target	B	89,Yellow Button	71,Green Button	950.0	1100.0	1800.0	1600.0	1.0	n/a	950.0	1.0	n/a	ITI
269937	500.0	n/a	-1	-1	500	0.0	fixation	poldrack-single-stim	512	1400503	0.0-21.9-0.9	beast_fmri_test	119	n/a	n/a	<div class = centerbox><div class = fixation>+</div></div>	none	500.0	test	n/a	n/a	n/a	n/a	n/a	n/a	n/a	n/a	n/a	n/a	n/a	n/a	n/a	n/a	n/a	n/a	n/a	n/a	n/a	fixation
267577.56348405918	2750.0	n/a	702	71	2750	2361.43651594	stim	stop-signal	513	1403255	0.0-21.9-1.9	beast_fmri_test	119	n/a	n/a	<img class = center src='/static/experiments/beast_fmri_test/images/D.png'></img>	89,71	2750.0	test	<img class = center src='/static/experiments/beast_fmri_test/images/redD.png'></img>	go	1650.0	2.0	9.0	go	non-target	D	89,Yellow Button	71,Green Button	950.0	1100.0	1800.0	1650.0	1.0	n/a	1100.0	1.0	n/a	go_stim
270327.56348405918	2361.43651594	n/a	702	71	2750	2361.43651594	stim	stop-signal	513	1403255	0.0-21.9-1.9	beast_fmri_test	119	n/a	n/a	<img class = center src='/static/experiments/beast_fmri_test/images/D.png'></img>	89,71	2750.0	test	<img class = center src='/static/experiments/beast_fmri_test/images/redD.png'></img>	go	1650.0	2.0	9.0	go	non-target	D	89,Yellow Button	71,Green Button	950.0	1100.0	1800.0	1650.0	1.0	n/a	1100.0	1.0	n/a	ITI
275568	500.0	n/a	-1	-1	500	0.0	fixation	poldrack-single-stim	514	1406134	0.0-21.10-0.10	beast_fmri_test	119	n/a	n/a	<div class = centerbox><div class = fixation>+</div></div>	none	500.0	test	n/a	n/a	n/a	n/a	n/a	n/a	n/a	n/a	n/a	n/a	n/a	n/a	n/a	n/a	n/a	n/a	n/a	n/a	n/a	fixation
274353.15951244277	2750.0	n/a	1598	71	2750	1216.84048756	stim	stop-signal	515	1408886	0.0-21.10-1.10	beast_fmri_test	119	n/a	n/a	<img class = center src='/static/experiments/beast_fmri_test/images/D.png'></img>	89,71	2750.0	test	<img class = center src='/static/experiments/beast_fmri_test/images/redD.png'></img>	go	1650.0	2.0	10.0	go	non-target	D	89,Yellow Button	71,Green Button	950.0	1100.0	1800.0	1650.0	1.0	n/a	1100.0	1.0	n/a	go_stim
277103.15951244277	1216.84048756	n/a	1598	71	2750	1216.84048756	stim	stop-signal	515	1408886	0.0-21.10-1.10	beast_fmri_test	119	n/a	n/a	<img class = center src='/static/experiments/beast_fmri_test/images/D.png'></img>	89,71	2750.0	test	<img class = center src='/static/experiments/beast_fmri_test/images/redD.png'></img>	go	1650.0	2.0	10.0	go	non-target	D	89,Yellow Button	71,Green Button	950.0	1100.0	1800.0	1650.0	1.0	n/a	1100.0	1.0	n/a	ITI
280050	500.0	n/a	-1	-1	500	0.0	fixation	poldrack-single-stim	516	1410616	0.0-21.11-0.11	beast_fmri_test	119	n/a	n/a	<div class = centerbox><div class = fixation>+</div></div>	none	500.0	test	n/a	n/a	n/a	n/a	n/a	n/a	n/a	n/a	n/a	n/a	n/a	n/a	n/a	n/a	n/a	n/a	n/a	n/a	n/a	fixation
279553.70051421807	2750.0	n/a	1943	71	2750	497.299485782	stim	stop-signal	517	1413367	0.0-21.11-1.11	beast_fmri_test	119	n/a	n/a	<img class = center src='/static/experiments/beast_fmri_test/images/B.png'></img>	89,71	2750.0	test	<img class = center src='/static/experiments/beast_fmri_test/images/redB.png'></img>	go	1650.0	2.0	11.0	go	non-target	B	89,Yellow Button	71,Green Button	950.0	1100.0	1800.0	1650.0	1.0	n/a	1100.0	1.0	n/a	go_stim
282303.70051421807	497.299485782	n/a	1943	71	2750	497.299485782	stim	stop-signal	517	1413367	0.0-21.11-1.11	beast_fmri_test	119	n/a	n/a	<img class = center src='/static/experiments/beast_fmri_test/images/B.png'></img>	89,71	2750.0	test	<img class = center src='/static/experiments/beast_fmri_test/images/redB.png'></img>	go	1650.0	2.0	11.0	go	non-target	B	89,Yellow Button	71,Green Button	950.0	1100.0	1800.0	1650.0	1.0	n/a	1100.0	1.0	n/a	ITI
283817	500.0	n/a	-1	-1	500	0.0	fixation	poldrack-single-stim	518	1414383	0.0-21.12-0.12	beast_fmri_test	119	n/a	n/a	<div class = centerbox><div class = fixation>+</div></div>	none	500.0	test	n/a	n/a	n/a	n/a	n/a	n/a	n/a	n/a	n/a	n/a	n/a	n/a	n/a	n/a	n/a	n/a	n/a	n/a	n/a	fixation
283569.55758756003	2750.0	n/a	1973	89	2750	249.44241244	stim	stop-signal	519	1417135	0.0-21.12-1.12	beast_fmri_test	119	n/a	n/a	<img class = center src='/static/experiments/beast_fmri_test/images/D.png'></img>	89,71	2750.0	test	<img class = center src='/static/experiments/beast_fmri_test/images/redD.png'></img>	go	1800.0	2.0	12.0	go	target	D	89,Yellow Button	71,Green Button	950.0	1100.0	1800.0	1650.0	1.0	n/a	950.0	1.0	n/a	go_stim
286319.55758756003	249.44241244	n/a	1973	89	2750	249.44241244	stim	stop-signal	519	1417135	0.0-21.12-1.12	beast_fmri_test	119	n/a	n/a	<img class = center src='/static/experiments/beast_fmri_test/images/D.png'></img>	89,71	2750.0	test	<img class = center src='/static/experiments/beast_fmri_test/images/redD.png'></img>	go	1800.0	2.0	12.0	go	target	D	89,Yellow Button	71,Green Button	950.0	1100.0	1800.0	1650.0	1.0	n/a	950.0	1.0	n/a	ITI
287337	500.0	n/a	-1	-1	500	0.0	fixation	poldrack-single-stim	520	1417903	0.0-21.13-0.13	beast_fmri_test	119	n/a	n/a	<div class = centerbox><div class = fixation>+</div></div>	none	500.0	test	n/a	n/a	n/a	n/a	n/a	n/a	n/a	n/a	n/a	n/a	n/a	n/a	n/a	n/a	n/a	n/a	n/a	n/a	n/a	fixation
286579.82592605171	2750.0	n/a	778	71	2750	759.174073948	stim	stop-signal	521	1420655	0.0-21.13-1.13	beast_fmri_test	119	n/a	n/a	<img class = center src='/static/experiments/beast_fmri_test/images/T.png'></img>	89,71	2750.0	test	<img class = center src='/static/experiments/beast_fmri_test/images/redT.png'></img>	go	1650.0	2.0	13.0	go	non-target	T	89,Yellow Button	71,Green Button	950.0	1100.0	1800.0	1650.0	1.0	n/a	1100.0	1.0	n/a	go_stim
289329.82592605171	759.174073948	n/a	778	71	2750	759.174073948	stim	stop-signal	521	1420655	0.0-21.13-1.13	beast_fmri_test	119	n/a	n/a	<img class = center src='/static/experiments/beast_fmri_test/images/T.png'></img>	89,71	2750.0	test	<img class = center src='/static/experiments/beast_fmri_test/images/redT.png'></img>	go	1650.0	2.0	13.0	go	non-target	T	89,Yellow Button	71,Green Button	950.0	1100.0	1800.0	1650.0	1.0	n/a	1100.0	1.0	n/a	ITI
291368	500.0	n/a	-1	-1	500	0.0	fixation	poldrack-single-stim	522	1421934	0.0-21.14-0.14	beast_fmri_test	119	n/a	n/a	<div class = centerbox><div class = fixation>+</div></div>	none	500.0	test	n/a	n/a	n/a	n/a	n/a	n/a	n/a	n/a	n/a	n/a	n/a	n/a	n/a	n/a	n/a	n/a	n/a	n/a	n/a	fixation
291108.63489584415	1100.0	n/a	841	71	2750	261.365104156	stim	stop-signal	523	1424686	0.0-21.14-1.14	beast_fmri_test	119	n/a	n/a	<img class = center src='/static/experiments/beast_fmri_test/images/V.png'></img>	89,71	2750.0	test	<img class = center src='/static/experiments/beast_fmri_test/images/redV.png'></img>	stop	1650.0	2.0	14.0	stop	non-target	V	89,Yellow Button	71,Green Button	950.0	1100.0	1800.0	1650.0	0.0	0.0	1100.0	1.0	n/a	go_stim
292758.63489584415	1650.0	n/a	841	71	2750	261.365104156	stim	stop-signal	523	1424686	0.0-21.14-1.14	beast_fmri_test	119	n/a	n/a	<img class = center src='/static/experiments/beast_fmri_test/images/V.png'></img>	89,71	2750.0	test	<img class = center src='/static/experiments/beast_fmri_test/images/redV.png'></img>	stop	1650.0	2.0	14.0	stop	non-target	V	89,Yellow Button	71,Green Button	950.0	1100.0	1800.0	1650.0	0.0	0.0	1100.0	1.0	n/a	stop_stim
293858.63489584415	261.365104156	n/a	841	71	2750	261.365104156	stim	stop-signal	523	1424686	0.0-21.14-1.14	beast_fmri_test	119	n/a	n/a	<img class = center src='/static/experiments/beast_fmri_test/images/V.png'></img>	89,71	2750.0	test	<img class = center src='/static/experiments/beast_fmri_test/images/redV.png'></img>	stop	1650.0	2.0	14.0	stop	non-target	V	89,Yellow Button	71,Green Button	950.0	1100.0	1800.0	1650.0	0.0	0.0	1100.0	1.0	n/a	ITI
294902	500.0	n/a	-1	-1	500	0.0	fixation	poldrack-single-stim	524	1425468	0.0-21.15-0.15	beast_fmri_test	119	n/a	n/a	<div class = centerbox><div class = fixation>+</div></div>	none	500.0	test	n/a	n/a	n/a	n/a	n/a	n/a	n/a	n/a	n/a	n/a	n/a	n/a	n/a	n/a	n/a	n/a	n/a	n/a	n/a	fixation
294440.41566852084	950.0	n/a	1113	89	2750	463.584331479	stim	stop-signal	525	1428220	0.0-21.15-1.15	beast_fmri_test	119	n/a	n/a	<img class = center src='/static/experiments/beast_fmri_test/images/T.png'></img>	89,71	2750.0	test	<img class = center src='/static/experiments/beast_fmri_test/images/redT.png'></img>	stop	1800.0	2.0	15.0	stop	target	T	89,Yellow Button	71,Green Button	950.0	1050.0	1800.0	1650.0	0.0	0.0	950.0	1.0	n/a	go_stim
296240.41566852084	1800.0	n/a	1113	89	2750	463.584331479	stim	stop-signal	525	1428220	0.0-21.15-1.15	beast_fmri_test	119	n/a	n/a	<img class = center src='/static/experiments/beast_fmri_test/images/T.png'></img>	89,71	2750.0	test	<img class = center src='/static/experiments/beast_fmri_test/images/redT.png'></img>	stop	1800.0	2.0	15.0	stop	target	T	89,Yellow Button	71,Green Button	950.0	1050.0	1800.0	1650.0	0.0	0.0	950.0	1.0	n/a	stop_stim
297190.41566852084	463.584331479	n/a	1113	89	2750	463.584331479	stim	stop-signal	525	1428220	0.0-21.15-1.15	beast_fmri_test	119	n/a	n/a	<img class = center src='/static/experiments/beast_fmri_test/images/T.png'></img>	89,71	2750.0	test	<img class = center src='/static/experiments/beast_fmri_test/images/redT.png'></img>	stop	1800.0	2.0	15.0	stop	target	T	89,Yellow Button	71,Green Button	950.0	1050.0	1800.0	1650.0	0.0	0.0	950.0	1.0	n/a	ITI
298636	500.0	n/a	-1	-1	500	0.0	fixation	poldrack-single-stim	526	1429202	0.0-21.16-0.16	beast_fmri_test	119	n/a	n/a	<div class = centerbox><div class = fixation>+</div></div>	none	500.0	test	n/a	n/a	n/a	n/a	n/a	n/a	n/a	n/a	n/a	n/a	n/a	n/a	n/a	n/a	n/a	n/a	n/a	n/a	n/a	fixation
298241.86024744622	2750.0	n/a	1111	71	2750	396.139752554	stim	stop-signal	527	1431954	0.0-21.16-1.16	beast_fmri_test	119	n/a	n/a	<img class = center src='/static/experiments/beast_fmri_test/images/P.png'></img>	89,71	2750.0	test	<img class = center src='/static/experiments/beast_fmri_test/images/redP.png'></img>	go	1700.0	2.0	16.0	go	non-target	P	89,Yellow Button	71,Green Button	900.0	1050.0	1800.0	1700.0	1.0	n/a	1050.0	1.0	n/a	go_stim
300991.86024744622	396.139752554	n/a	1111	71	2750	396.139752554	stim	stop-signal	527	1431954	0.0-21.16-1.16	beast_fmri_test	119	n/a	n/a	<img class = center src='/static/experiments/beast_fmri_test/images/P.png'></img>	89,71	2750.0	test	<img class = center src='/static/experiments/beast_fmri_test/images/redP.png'></img>	go	1700.0	2.0	16.0	go	non-target	P	89,Yellow Button	71,Green Button	900.0	1050.0	1800.0	1700.0	1.0	n/a	1050.0	1.0	n/a	ITI
302305	500.0	n/a	-1	-1	500	0.0	fixation	poldrack-single-stim	528	1432871	0.0-21.17-0.17	beast_fmri_test	119	n/a	n/a	<div class = centerbox><div class = fixation>+</div></div>	none	500.0	test	n/a	n/a	n/a	n/a	n/a	n/a	n/a	n/a	n/a	n/a	n/a	n/a	n/a	n/a	n/a	n/a	n/a	n/a	n/a	fixation
302235.08692283463	2750.0	n/a	1099	71	2750	71.9130771653	stim	stop-signal	529	1435623	0.0-21.17-1.17	beast_fmri_test	119	n/a	n/a	<img class = center src='/static/experiments/beast_fmri_test/images/V.png'></img>	89,71	2750.0	test	<img class = center src='/static/experiments/beast_fmri_test/images/redV.png'></img>	go	1700.0	2.0	17.0	go	non-target	V	89,Yellow Button	71,Green Button	900.0	1050.0	1800.0	1700.0	1.0	n/a	1050.0	1.0	n/a	go_stim
304985.08692283463	71.9130771653	n/a	1099	71	2750	71.9130771653	stim	stop-signal	529	1435623	0.0-21.17-1.17	beast_fmri_test	119	n/a	n/a	<img class = center src='/static/experiments/beast_fmri_test/images/V.png'></img>	89,71	2750.0	test	<img class = center src='/static/experiments/beast_fmri_test/images/redV.png'></img>	go	1700.0	2.0	17.0	go	non-target	V	89,Yellow Button	71,Green Button	900.0	1050.0	1800.0	1700.0	1.0	n/a	1050.0	1.0	n/a	ITI
305647	500.0	n/a	-1	-1	500	0.0	fixation	poldrack-single-stim	530	1436213	0.0-21.18-0.18	beast_fmri_test	119	n/a	n/a	<div class = centerbox><div class = fixation>+</div></div>	none	500.0	test	n/a	n/a	n/a	n/a	n/a	n/a	n/a	n/a	n/a	n/a	n/a	n/a	n/a	n/a	n/a	n/a	n/a	n/a	n/a	fixation
303935.07879172708	2750.0	n/a	968	71	2750	1713.92120827	stim	stop-signal	531	1438965	0.0-21.18-1.18	beast_fmri_test	119	n/a	n/a	<img class = center src='/static/experiments/beast_fmri_test/images/P.png'></img>	89,71	2750.0	test	<img class = center src='/static/experiments/beast_fmri_test/images/redP.png'></img>	go	1850.0	2.0	18.0	go	target	P	89,Yellow Button	71,Green Button	900.0	1050.0	1850.0	1700.0	0.0	n/a	900.0	0.0	n/a	go_stim
306685.07879172708	1713.92120827	n/a	968	71	2750	1713.92120827	stim	stop-signal	531	1438965	0.0-21.18-1.18	beast_fmri_test	119	n/a	n/a	<img class = center src='/static/experiments/beast_fmri_test/images/P.png'></img>	89,71	2750.0	test	<img class = center src='/static/experiments/beast_fmri_test/images/redP.png'></img>	go	1850.0	2.0	18.0	go	target	P	89,Yellow Button	71,Green Button	900.0	1050.0	1850.0	1700.0	0.0	n/a	900.0	0.0	n/a	ITI
310629	500.0	n/a	-1	-1	500	0.0	fixation	poldrack-single-stim	532	1441195	0.0-21.19-0.19	beast_fmri_test	119	n/a	n/a	<div class = centerbox><div class = fixation>+</div></div>	none	500.0	test	n/a	n/a	n/a	n/a	n/a	n/a	n/a	n/a	n/a	n/a	n/a	n/a	n/a	n/a	n/a	n/a	n/a	n/a	n/a	fixation
309526.73238712433	2750.0	n/a	1000	71	2750	1104.26761288	stim	stop-signal	533	1443947	0.0-21.19-1.19	beast_fmri_test	119	n/a	n/a	<img class = center src='/static/experiments/beast_fmri_test/images/D.png'></img>	89,71	2750.0	test	<img class = center src='/static/experiments/beast_fmri_test/images/redD.png'></img>	go	1700.0	2.0	19.0	go	non-target	D	89,Yellow Button	71,Green Button	900.0	1050.0	1850.0	1700.0	1.0	n/a	1050.0	1.0	n/a	go_stim
312276.73238712433	1104.26761288	n/a	1000	71	2750	1104.26761288	stim	stop-signal	533	1443947	0.0-21.19-1.19	beast_fmri_test	119	n/a	n/a	<img class = center src='/static/experiments/beast_fmri_test/images/D.png'></img>	89,71	2750.0	test	<img class = center src='/static/experiments/beast_fmri_test/images/redD.png'></img>	go	1700.0	2.0	19.0	go	non-target	D	89,Yellow Button	71,Green Button	900.0	1050.0	1850.0	1700.0	1.0	n/a	1050.0	1.0	n/a	ITI
315005	500.0	n/a	-1	-1	500	0.0	fixation	poldrack-single-stim	534	1445571	0.0-21.20-0.20	beast_fmri_test	119	n/a	n/a	<div class = centerbox><div class = fixation>+</div></div>	none	500.0	test	n/a	n/a	n/a	n/a	n/a	n/a	n/a	n/a	n/a	n/a	n/a	n/a	n/a	n/a	n/a	n/a	n/a	n/a	n/a	fixation
312055.26690002996	2750.0	n/a	1514	71	2750	2951.73309997	stim	stop-signal	535	1448323	0.0-21.20-1.20	beast_fmri_test	119	n/a	n/a	<img class = center src='/static/experiments/beast_fmri_test/images/V.png'></img>	89,71	2750.0	test	<img class = center src='/static/experiments/beast_fmri_test/images/redV.png'></img>	go	1700.0	2.0	20.0	go	non-target	V	89,Yellow Button	71,Green Button	900.0	1050.0	1850.0	1700.0	1.0	n/a	1050.0	1.0	n/a	go_stim
314805.26690002996	2951.73309997	n/a	1514	71	2750	2951.73309997	stim	stop-signal	535	1448323	0.0-21.20-1.20	beast_fmri_test	119	n/a	n/a	<img class = center src='/static/experiments/beast_fmri_test/images/V.png'></img>	89,71	2750.0	test	<img class = center src='/static/experiments/beast_fmri_test/images/redV.png'></img>	go	1700.0	2.0	20.0	go	non-target	V	89,Yellow Button	71,Green Button	900.0	1050.0	1850.0	1700.0	1.0	n/a	1050.0	1.0	n/a	ITI
321225	500.0	n/a	-1	-1	500	0.0	fixation	poldrack-single-stim	536	1451791	0.0-21.21-0.21	beast_fmri_test	119	n/a	n/a	<div class = centerbox><div class = fixation>+</div></div>	none	500.0	test	n/a	n/a	n/a	n/a	n/a	n/a	n/a	n/a	n/a	n/a	n/a	n/a	n/a	n/a	n/a	n/a	n/a	n/a	n/a	fixation
318495.61940125027	900.0	n/a	769	71	2750	2730.38059875	stim	stop-signal	537	1454542	0.0-21.21-1.21	beast_fmri_test	119	n/a	n/a	<img class = center src='/static/experiments/beast_fmri_test/images/D.png'></img>	89,71	2750.0	test	<img class = center src='/static/experiments/beast_fmri_test/images/redD.png'></img>	stop	1850.0	2.0	21.0	stop	target	D	89,Yellow Button	71,Green Button	900.0	1050.0	1850.0	1700.0	0.0	0.0	900.0	0.0	n/a	go_stim
320345.61940125027	1850.0	n/a	769	71	2750	2730.38059875	stim	stop-signal	537	1454542	0.0-21.21-1.21	beast_fmri_test	119	n/a	n/a	<img class = center src='/static/experiments/beast_fmri_test/images/D.png'></img>	89,71	2750.0	test	<img class = center src='/static/experiments/beast_fmri_test/images/redD.png'></img>	stop	1850.0	2.0	21.0	stop	target	D	89,Yellow Button	71,Green Button	900.0	1050.0	1850.0	1700.0	0.0	0.0	900.0	0.0	n/a	stop_stim
321245.61940125027	2730.38059875	n/a	769	71	2750	2730.38059875	stim	stop-signal	537	1454542	0.0-21.21-1.21	beast_fmri_test	119	n/a	n/a	<img class = center src='/static/experiments/beast_fmri_test/images/D.png'></img>	89,71	2750.0	test	<img class = center src='/static/experiments/beast_fmri_test/images/redD.png'></img>	stop	1850.0	2.0	21.0	stop	target	D	89,Yellow Button	71,Green Button	900.0	1050.0	1850.0	1700.0	0.0	0.0	900.0	0.0	n/a	ITI
327225	500.0	n/a	-1	-1	500	0.0	fixation	poldrack-single-stim	538	1457791	0.0-21.22-0.22	beast_fmri_test	119	n/a	n/a	<div class = centerbox><div class = fixation>+</div></div>	none	500.0	test	n/a	n/a	n/a	n/a	n/a	n/a	n/a	n/a	n/a	n/a	n/a	n/a	n/a	n/a	n/a	n/a	n/a	n/a	n/a	fixation
327119.74241409334	2750.0	n/a	954	71	2750	107.257585907	stim	stop-signal	539	1460543	0.0-21.22-1.22	beast_fmri_test	119	n/a	n/a	<img class = center src='/static/experiments/beast_fmri_test/images/V.png'></img>	89,71	2750.0	test	<img class = center src='/static/experiments/beast_fmri_test/images/redV.png'></img>	go	1900.0	2.0	22.0	go	target	V	89,Yellow Button	71,Green Button	850.0	1050.0	1900.0	1700.0	0.0	n/a	850.0	0.0	n/a	go_stim
329869.74241409334	107.257585907	n/a	954	71	2750	107.257585907	stim	stop-signal	539	1460543	0.0-21.22-1.22	beast_fmri_test	119	n/a	n/a	<img class = center src='/static/experiments/beast_fmri_test/images/V.png'></img>	89,71	2750.0	test	<img class = center src='/static/experiments/beast_fmri_test/images/redV.png'></img>	go	1900.0	2.0	22.0	go	target	V	89,Yellow Button	71,Green Button	850.0	1050.0	1900.0	1700.0	0.0	n/a	850.0	0.0	n/a	ITI
330603	500.0	n/a	-1	-1	500	0.0	fixation	poldrack-single-stim	540	1461169	0.0-21.23-0.23	beast_fmri_test	119	n/a	n/a	<div class = centerbox><div class = fixation>+</div></div>	none	500.0	test	n/a	n/a	n/a	n/a	n/a	n/a	n/a	n/a	n/a	n/a	n/a	n/a	n/a	n/a	n/a	n/a	n/a	n/a	n/a	fixation
330404.90744303493	2750.0	n/a	1063	71	2750	200.092556965	stim	stop-signal	541	1463921	0.0-21.23-1.23	beast_fmri_test	119	n/a	n/a	<img class = center src='/static/experiments/beast_fmri_test/images/B.png'></img>	89,71	2750.0	test	<img class = center src='/static/experiments/beast_fmri_test/images/redB.png'></img>	go	1700.0	2.0	23.0	go	non-target	B	89,Yellow Button	71,Green Button	850.0	1050.0	1900.0	1700.0	1.0	n/a	1050.0	1.0	n/a	go_stim
333154.90744303493	200.092556965	n/a	1063	71	2750	200.092556965	stim	stop-signal	541	1463921	0.0-21.23-1.23	beast_fmri_test	119	n/a	n/a	<img class = center src='/static/experiments/beast_fmri_test/images/B.png'></img>	89,71	2750.0	test	<img class = center src='/static/experiments/beast_fmri_test/images/redB.png'></img>	go	1700.0	2.0	23.0	go	non-target	B	89,Yellow Button	71,Green Button	850.0	1050.0	1900.0	1700.0	1.0	n/a	1050.0	1.0	n/a	ITI
334074	500.0	n/a	-1	-1	500	0.0	fixation	poldrack-single-stim	542	1464640	0.0-21.24-0.24	beast_fmri_test	119	n/a	n/a	<div class = centerbox><div class = fixation>+</div></div>	none	500.0	test	n/a	n/a	n/a	n/a	n/a	n/a	n/a	n/a	n/a	n/a	n/a	n/a	n/a	n/a	n/a	n/a	n/a	n/a	n/a	fixation
329517.62707127631	1050.0	n/a	690	71	2750	4558.37292872	stim	stop-signal	543	1467392	0.0-21.24-1.24	beast_fmri_test	119	n/a	n/a	<img class = center src='/static/experiments/beast_fmri_test/images/P.png'></img>	89,71	2750.0	test	<img class = center src='/static/experiments/beast_fmri_test/images/redP.png'></img>	stop	1700.0	2.0	24.0	stop	non-target	P	89,Yellow Button	71,Green Button	850.0	1050.0	1900.0	1700.0	0.0	0.0	1050.0	1.0	n/a	go_stim
331217.62707127631	1700.0	n/a	690	71	2750	4558.37292872	stim	stop-signal	543	1467392	0.0-21.24-1.24	beast_fmri_test	119	n/a	n/a	<img class = center src='/static/experiments/beast_fmri_test/images/P.png'></img>	89,71	2750.0	test	<img class = center src='/static/experiments/beast_fmri_test/images/redP.png'></img>	stop	1700.0	2.0	24.0	stop	non-target	P	89,Yellow Button	71,Green Button	850.0	1050.0	1900.0	1700.0	0.0	0.0	1050.0	1.0	n/a	stop_stim
332267.62707127631	4558.37292872	n/a	690	71	2750	4558.37292872	stim	stop-signal	543	1467392	0.0-21.24-1.24	beast_fmri_test	119	n/a	n/a	<img class = center src='/static/experiments/beast_fmri_test/images/P.png'></img>	89,71	2750.0	test	<img class = center src='/static/experiments/beast_fmri_test/images/redP.png'></img>	stop	1700.0	2.0	24.0	stop	non-target	P	89,Yellow Button	71,Green Button	850.0	1050.0	1900.0	1700.0	0.0	0.0	1050.0	1.0	n/a	ITI
341904	500.0	n/a	-1	-1	500	0.0	fixation	poldrack-single-stim	544	1472470	0.0-21.25-0.25	beast_fmri_test	119	n/a	n/a	<div class = centerbox><div class = fixation>+</div></div>	none	500.0	test	n/a	n/a	n/a	n/a	n/a	n/a	n/a	n/a	n/a	n/a	n/a	n/a	n/a	n/a	n/a	n/a	n/a	n/a	n/a	fixation
341879.33211416658	850.0	n/a	731	71	2750	26.6678858334	stim	stop-signal	545	1475222	0.0-21.25-1.25	beast_fmri_test	119	n/a	n/a	<img class = center src='/static/experiments/beast_fmri_test/images/B.png'></img>	89,71	2750.0	test	<img class = center src='/static/experiments/beast_fmri_test/images/redB.png'></img>	stop	1900.0	2.0	25.0	stop	target	B	89,Yellow Button	71,Green Button	850.0	1000.0	1900.0	1700.0	0.0	0.0	850.0	0.0	n/a	go_stim
343779.33211416658	1900.0	n/a	731	71	2750	26.6678858334	stim	stop-signal	545	1475222	0.0-21.25-1.25	beast_fmri_test	119	n/a	n/a	<img class = center src='/static/experiments/beast_fmri_test/images/B.png'></img>	89,71	2750.0	test	<img class = center src='/static/experiments/beast_fmri_test/images/redB.png'></img>	stop	1900.0	2.0	25.0	stop	target	B	89,Yellow Button	71,Green Button	850.0	1000.0	1900.0	1700.0	0.0	0.0	850.0	0.0	n/a	stop_stim
344629.33211416658	26.6678858334	n/a	731	71	2750	26.6678858334	stim	stop-signal	545	1475222	0.0-21.25-1.25	beast_fmri_test	119	n/a	n/a	<img class = center src='/static/experiments/beast_fmri_test/images/B.png'></img>	89,71	2750.0	test	<img class = center src='/static/experiments/beast_fmri_test/images/redB.png'></img>	stop	1900.0	2.0	25.0	stop	target	B	89,Yellow Button	71,Green Button	850.0	1000.0	1900.0	1700.0	0.0	0.0	850.0	0.0	n/a	ITI
345200	500.0	n/a	-1	-1	500	0.0	fixation	poldrack-single-stim	546	1475766	0.0-21.26-0.26	beast_fmri_test	119	n/a	n/a	<div class = centerbox><div class = fixation>+</div></div>	none	500.0	test	n/a	n/a	n/a	n/a	n/a	n/a	n/a	n/a	n/a	n/a	n/a	n/a	n/a	n/a	n/a	n/a	n/a	n/a	n/a	fixation
344872.55655634939	2750.0	n/a	2230	71	2750	330.443443651	stim	stop-signal	547	1478519	0.0-21.26-1.26	beast_fmri_test	119	n/a	n/a	<img class = center src='/static/experiments/beast_fmri_test/images/B.png'></img>	89,71	2750.0	test	<img class = center src='/static/experiments/beast_fmri_test/images/redB.png'></img>	go	1750.0	2.0	26.0	go	non-target	B	89,Yellow Button	71,Green Button	800.0	1000.0	1900.0	1750.0	1.0	n/a	1000.0	1.0	n/a	go_stim
347622.55655634939	330.443443651	n/a	2230	71	2750	330.443443651	stim	stop-signal	547	1478519	0.0-21.26-1.26	beast_fmri_test	119	n/a	n/a	<img class = center src='/static/experiments/beast_fmri_test/images/B.png'></img>	89,71	2750.0	test	<img class = center src='/static/experiments/beast_fmri_test/images/redB.png'></img>	go	1750.0	2.0	26.0	go	non-target	B	89,Yellow Button	71,Green Button	800.0	1000.0	1900.0	1750.0	1.0	n/a	1000.0	1.0	n/a	ITI
348800	500.0	n/a	-1	-1	500	0.0	fixation	poldrack-single-stim	548	1479366	0.0-21.27-0.27	beast_fmri_test	119	n/a	n/a	<div class = centerbox><div class = fixation>+</div></div>	none	500.0	test	n/a	n/a	n/a	n/a	n/a	n/a	n/a	n/a	n/a	n/a	n/a	n/a	n/a	n/a	n/a	n/a	n/a	n/a	n/a	fixation
347209.24883336085	2750.0	n/a	781	71	2750	1591.75116664	stim	stop-signal	549	1482117	0.0-21.27-1.27	beast_fmri_test	119	n/a	n/a	<img class = center src='/static/experiments/beast_fmri_test/images/B.png'></img>	89,71	2750.0	test	<img class = center src='/static/experiments/beast_fmri_test/images/redB.png'></img>	go	1950.0	2.0	27.0	go	target	B	89,Yellow Button	71,Green Button	800.0	1000.0	1950.0	1750.0	0.0	n/a	800.0	0.0	n/a	go_stim
349959.24883336085	1591.75116664	n/a	781	71	2750	1591.75116664	stim	stop-signal	549	1482117	0.0-21.27-1.27	beast_fmri_test	119	n/a	n/a	<img class = center src='/static/experiments/beast_fmri_test/images/B.png'></img>	89,71	2750.0	test	<img class = center src='/static/experiments/beast_fmri_test/images/redB.png'></img>	go	1950.0	2.0	27.0	go	target	B	89,Yellow Button	71,Green Button	800.0	1000.0	1950.0	1750.0	0.0	n/a	800.0	0.0	n/a	ITI
353662	500.0	n/a	-1	-1	500	0.0	fixation	poldrack-single-stim	550	1484228	0.0-21.28-0.28	beast_fmri_test	119	n/a	n/a	<div class = centerbox><div class = fixation>+</div></div>	none	500.0	test	n/a	n/a	n/a	n/a	n/a	n/a	n/a	n/a	n/a	n/a	n/a	n/a	n/a	n/a	n/a	n/a	n/a	n/a	n/a	fixation
352645.87748539587	1000.0	n/a	898	71	2750	1018.1225146	stim	stop-signal	551	1486980	0.0-21.28-1.28	beast_fmri_test	119	n/a	n/a	<img class = center src='/static/experiments/beast_fmri_test/images/T.png'></img>	89,71	2750.0	test	<img class = center src='/static/experiments/beast_fmri_test/images/redT.png'></img>	stop	1750.0	2.0	28.0	stop	non-target	T	89,Yellow Button	71,Green Button	800.0	1000.0	1950.0	1750.0	0.0	0.0	1000.0	1.0	n/a	go_stim
354395.87748539587	1750.0	n/a	898	71	2750	1018.1225146	stim	stop-signal	551	1486980	0.0-21.28-1.28	beast_fmri_test	119	n/a	n/a	<img class = center src='/static/experiments/beast_fmri_test/images/T.png'></img>	89,71	2750.0	test	<img class = center src='/static/experiments/beast_fmri_test/images/redT.png'></img>	stop	1750.0	2.0	28.0	stop	non-target	T	89,Yellow Button	71,Green Button	800.0	1000.0	1950.0	1750.0	0.0	0.0	1000.0	1.0	n/a	stop_stim
