onset	duration	text	rt	key_press	block_duration	timing_post_trial	trial_id	trial_type	trial_index	time_elapsed	internal_node_id	exp_id	subject_id	trigger_times	triggers	stimulus	possible_responses	stim_duration	exp_stage	SS_stimulus	SS_trial_type	SS_duration	load	trial_num	stop_trial_type	adaptive_trial_type	stim	yes_response_key	no_response_key	SSD_target	SSD_non_target	SSTarget	SSNonTarget	go_acc	SS_delay	adaptive_acc	stop_acc	new_trial_type
test	10880	n/a	-1	-1	10880	0.0	practice-no-stop-feedback	poldrack-single-stim	588	1703818	0.0-24.0	beast_fmri_test	162	1692938,/,1693618,/,1694297,/,1694978,/,1695657,/,1696338,/,1697018,/,1697697,/,1698377,/,1699057,/,1699738,/,1700417,/,1701097,/,1701777,/,1702457,/,1703137,/,1703817,/	t,t,t,t,t,t,t,t,t,t,t,t,t,t,t,t,t	"<div class = ""centerbox2_2""><p class = ""block-text2"">Your delay is 2 trials.</p><p class = block-text2>Please wait for the scanner to start the block</p></div>"	77	10880.0	n/a	n/a	n/a	n/a	n/a	n/a	n/a	n/a	n/a	n/a	n/a	n/a	n/a	n/a	n/a	n/a	n/a	n/a	n/a	start_functional_block
11382	500	n/a	-1	-1	500	0.0	fixation	poldrack-single-stim	589	1704320	0.0-25.0-0.0	beast_fmri_test	162	n/a	n/a	<div class = centerbox2><div class = fixation>+</div></div>	none	500.0	test	n/a	n/a	n/a	n/a	n/a	n/a	n/a	n/a	n/a	n/a	n/a	n/a	n/a	n/a	n/a	n/a	n/a	n/a	fixation
9517.4546749999281	2750	n/a	1127	89	2750	1866.545325	stim	stop-signal	590	1707072	0.0-25.0-1.0	beast_fmri_test	162	1704497,/,1705177,/,1705857,/,1706537,/,1707217,/,1707897,/,1708577,/	t,t,t,t,t,t,t	<img class = center src='/static/experiments/beast_fmri_test/images/D.png'></img>	71,89	2750.0	test	<img class = center src='/static/experiments/beast_fmri_test/images/redD.png'></img>	go	-1.0	2.0	0.0	go	temp-non-target	D	71,Index Finger	89,Middle Finger	900.0	1200.0	1850.0	1550.0	0.0	n/a	n/a	n/a	go_stim
12267.454674999928	1866.545325	n/a	1127	89	2750	1866.545325	stim	stop-signal	590	1707072	0.0-25.0-1.0	beast_fmri_test	162	1704497,/,1705177,/,1705857,/,1706537,/,1707217,/,1707897,/,1708577,/	t,t,t,t,t,t,t	<img class = center src='/static/experiments/beast_fmri_test/images/D.png'></img>	71,89	2750.0	test	<img class = center src='/static/experiments/beast_fmri_test/images/redD.png'></img>	go	-1.0	2.0	0.0	go	temp-non-target	D	71,Index Finger	89,Middle Finger	900.0	1200.0	1850.0	1550.0	0.0	n/a	n/a	n/a	ITI
16518	500	n/a	-1	-1	500	0.0	fixation	poldrack-single-stim	591	1709456	0.0-25.1-0.1	beast_fmri_test	162	1709257,/	t	<div class = centerbox2><div class = fixation>+</div></div>	none	500.0	test	n/a	n/a	n/a	n/a	n/a	n/a	n/a	n/a	n/a	n/a	n/a	n/a	n/a	n/a	n/a	n/a	n/a	n/a	fixation
13806.170878000092	2750	n/a	686	89	2750	2713.829122	stim	stop-signal	592	1712208	0.0-25.1-1.1	beast_fmri_test	162	1709938,/,1710617,/,1711297,/,1711977,/,1712657,/,1713337,/,1714017,/,1714696,/	t,t,t,t,t,t,t,t	<img class = center src='/static/experiments/beast_fmri_test/images/D.png'></img>	71,89	2750.0	test	<img class = center src='/static/experiments/beast_fmri_test/images/redD.png'></img>	go	-1.0	2.0	1.0	go	temp-non-target	D	71,Index Finger	89,Middle Finger	900.0	1200.0	1850.0	1550.0	0.0	n/a	n/a	n/a	go_stim
16556.170878000092	2713.8291220000001	n/a	686	89	2750	2713.829122	stim	stop-signal	592	1712208	0.0-25.1-1.1	beast_fmri_test	162	1709938,/,1710617,/,1711297,/,1711977,/,1712657,/,1713337,/,1714017,/,1714696,/	t,t,t,t,t,t,t,t	<img class = center src='/static/experiments/beast_fmri_test/images/D.png'></img>	71,89	2750.0	test	<img class = center src='/static/experiments/beast_fmri_test/images/redD.png'></img>	go	-1.0	2.0	1.0	go	temp-non-target	D	71,Index Finger	89,Middle Finger	900.0	1200.0	1850.0	1550.0	0.0	n/a	n/a	n/a	ITI
22502	500	n/a	-1	-1	500	0.0	fixation	poldrack-single-stim	593	1715440	0.0-25.2-0.2	beast_fmri_test	162	1715377,/	t	<div class = centerbox2><div class = fixation>+</div></div>	none	500.0	test	n/a	n/a	n/a	n/a	n/a	n/a	n/a	n/a	n/a	n/a	n/a	n/a	n/a	n/a	n/a	n/a	n/a	n/a	fixation
22501.047387494007	2750	n/a	888	89	2750	2.952612506	stim	stop-signal	594	1718192	0.0-25.2-1.2	beast_fmri_test	162	1716057,/,1716736,/,1717416,/,1718096,/	t,t,t,t	<img class = center src='/static/experiments/beast_fmri_test/images/P.png'></img>	71,89	2750.0	test	<img class = center src='/static/experiments/beast_fmri_test/images/redP.png'></img>	go	1550.0	2.0	2.0	go	non-target	P	71,Index Finger	89,Middle Finger	900.0	1200.0	1850.0	1550.0	1.0	1200.0	1.0	n/a	go_stim
25251.047387494007	2.9526125060000004	n/a	888	89	2750	2.952612506	stim	stop-signal	594	1718192	0.0-25.2-1.2	beast_fmri_test	162	1716057,/,1716736,/,1717416,/,1718096,/	t,t,t,t	<img class = center src='/static/experiments/beast_fmri_test/images/P.png'></img>	71,89	2750.0	test	<img class = center src='/static/experiments/beast_fmri_test/images/redP.png'></img>	go	1550.0	2.0	2.0	go	non-target	P	71,Index Finger	89,Middle Finger	900.0	1200.0	1850.0	1550.0	1.0	1200.0	1.0	n/a	ITI
25773	500	n/a	-1	-1	500	0.0	fixation	poldrack-single-stim	595	1718711	0.0-25.3-0.3	beast_fmri_test	162	n/a	n/a	<div class = centerbox2><div class = fixation>+</div></div>	none	500.0	test	n/a	n/a	n/a	n/a	n/a	n/a	n/a	n/a	n/a	n/a	n/a	n/a	n/a	n/a	n/a	n/a	n/a	n/a	fixation
25026.597127800109	1200.0	n/a	865	89	2750	747.4028722	stim	stop-signal	596	1721462	0.0-25.3-1.3	beast_fmri_test	162	1718776,/,1719456,/,1720194,/,1720816,/,1721496,/,1722176,/	t,t,t,t,t,t	<img class = center src='/static/experiments/beast_fmri_test/images/T.png'></img>	71,89	2750.0	test	<img class = center src='/static/experiments/beast_fmri_test/images/redT.png'></img>	stop	1550.0	2.0	3.0	stop	non-target	T	71,Index Finger	89,Middle Finger	900.0	1200.0	1850.0	1550.0	0.0	1200.0	n/a	0.0	go_stim
26576.597127800109	1550.0	n/a	865	89	2750	747.4028722	stim	stop-signal	596	1721462	0.0-25.3-1.3	beast_fmri_test	162	1718776,/,1719456,/,1720194,/,1720816,/,1721496,/,1722176,/	t,t,t,t,t,t	<img class = center src='/static/experiments/beast_fmri_test/images/T.png'></img>	71,89	2750.0	test	<img class = center src='/static/experiments/beast_fmri_test/images/redT.png'></img>	stop	1550.0	2.0	3.0	stop	non-target	T	71,Index Finger	89,Middle Finger	900.0	1200.0	1850.0	1550.0	0.0	1200.0	n/a	0.0	stop_stim
27776.597127800109	747.40287220000005	n/a	865	89	2750	747.4028722	stim	stop-signal	596	1721462	0.0-25.3-1.3	beast_fmri_test	162	1718776,/,1719456,/,1720194,/,1720816,/,1721496,/,1722176,/	t,t,t,t,t,t	<img class = center src='/static/experiments/beast_fmri_test/images/T.png'></img>	71,89	2750.0	test	<img class = center src='/static/experiments/beast_fmri_test/images/redT.png'></img>	stop	1550.0	2.0	3.0	stop	non-target	T	71,Index Finger	89,Middle Finger	900.0	1200.0	1850.0	1550.0	0.0	1200.0	n/a	0.0	ITI
29787	500	n/a	-1	-1	500	0.0	fixation	poldrack-single-stim	597	1722725	0.0-25.4-0.4	beast_fmri_test	162	n/a	n/a	<div class = centerbox2><div class = fixation>+</div></div>	none	500.0	test	n/a	n/a	n/a	n/a	n/a	n/a	n/a	n/a	n/a	n/a	n/a	n/a	n/a	n/a	n/a	n/a	n/a	n/a	fixation
24789.0	2750	n/a	1298	89	2750	5000.0	stim	stop-signal	598	1725477	0.0-25.4-1.4	beast_fmri_test	162	1722856,/,1723537,/,1724217,/,1724897,/,1725577,/,1726257,/,1726937,/,1727617,/,1728297,/,1728977,/,1729657,/,1730338,/	t,t,t,t,t,t,t,t,t,t,t,t	<img class = center src='/static/experiments/beast_fmri_test/images/B.png'></img>	71,89	2750.0	test	<img class = center src='/static/experiments/beast_fmri_test/images/redB.png'></img>	go	1600.0	2.0	4.0	go	non-target	B	71,Index Finger	89,Middle Finger	900.0	1150.0	1850.0	1600.0	1.0	1150.0	1.0	n/a	go_stim
27539.0	5000.0	n/a	1298	89	2750	5000.0	stim	stop-signal	598	1725477	0.0-25.4-1.4	beast_fmri_test	162	1722856,/,1723537,/,1724217,/,1724897,/,1725577,/,1726257,/,1726937,/,1727617,/,1728297,/,1728977,/,1729657,/,1730338,/	t,t,t,t,t,t,t,t,t,t,t,t	<img class = center src='/static/experiments/beast_fmri_test/images/B.png'></img>	71,89	2750.0	test	<img class = center src='/static/experiments/beast_fmri_test/images/redB.png'></img>	go	1600.0	2.0	4.0	go	non-target	B	71,Index Finger	89,Middle Finger	900.0	1150.0	1850.0	1600.0	1.0	1150.0	1.0	n/a	ITI
38057	500	n/a	-1	-1	500	0.0	fixation	poldrack-single-stim	599	1730995	0.0-25.5-0.5	beast_fmri_test	162	n/a	n/a	<div class = centerbox2><div class = fixation>+</div></div>	none	500.0	test	n/a	n/a	n/a	n/a	n/a	n/a	n/a	n/a	n/a	n/a	n/a	n/a	n/a	n/a	n/a	n/a	n/a	n/a	fixation
37089.949789500097	1150.0	n/a	-1	-1	2750	969.0502105	stim	stop-signal	600	1733747	0.0-25.5-1.5	beast_fmri_test	162	1731017,/,1731697,/,1732377,/,1733057,/,1733737,/,1734417,/	t,t,t,t,t,t	<img class = center src='/static/experiments/beast_fmri_test/images/D.png'></img>	71,89	2750.0	test	<img class = center src='/static/experiments/beast_fmri_test/images/redD.png'></img>	stop	1600.0	2.0	5.0	stop	non-target	D	71,Index Finger	89,Middle Finger	900.0	1150.0	1850.0	1600.0	0.0	1150.0	n/a	1.0	go_stim
38689.949789500097	1600.0	n/a	-1	-1	2750	969.0502105	stim	stop-signal	600	1733747	0.0-25.5-1.5	beast_fmri_test	162	1731017,/,1731697,/,1732377,/,1733057,/,1733737,/,1734417,/	t,t,t,t,t,t	<img class = center src='/static/experiments/beast_fmri_test/images/D.png'></img>	71,89	2750.0	test	<img class = center src='/static/experiments/beast_fmri_test/images/redD.png'></img>	stop	1600.0	2.0	5.0	stop	non-target	D	71,Index Finger	89,Middle Finger	900.0	1150.0	1850.0	1600.0	0.0	1150.0	n/a	1.0	stop_stim
39839.949789500097	969.05021050000005	n/a	-1	-1	2750	969.0502105	stim	stop-signal	600	1733747	0.0-25.5-1.5	beast_fmri_test	162	1731017,/,1731697,/,1732377,/,1733057,/,1733737,/,1734417,/	t,t,t,t,t,t	<img class = center src='/static/experiments/beast_fmri_test/images/D.png'></img>	71,89	2750.0	test	<img class = center src='/static/experiments/beast_fmri_test/images/redD.png'></img>	stop	1600.0	2.0	5.0	stop	non-target	D	71,Index Finger	89,Middle Finger	900.0	1150.0	1850.0	1600.0	0.0	1150.0	n/a	1.0	ITI
42295	500	n/a	-1	-1	500	0.0	fixation	poldrack-single-stim	601	1735233	0.0-25.6-0.6	beast_fmri_test	162	1735097,/	t	<div class = centerbox2><div class = fixation>+</div></div>	none	500.0	test	n/a	n/a	n/a	n/a	n/a	n/a	n/a	n/a	n/a	n/a	n/a	n/a	n/a	n/a	n/a	n/a	n/a	n/a	fixation
41898.388205100084	1200.0	n/a	-1	-1	2750	398.6117949	stim	stop-signal	602	1737985	0.0-25.6-1.6	beast_fmri_test	162	1735777,/,1736457,/,1737137,/,1737817,/	t,t,t,t	<img class = center src='/static/experiments/beast_fmri_test/images/D.png'></img>	71,89	2750.0	test	<img class = center src='/static/experiments/beast_fmri_test/images/redD.png'></img>	stop	1550.0	2.0	6.0	stop	non-target	D	71,Index Finger	89,Middle Finger	900.0	1200.0	1850.0	1550.0	0.0	1200.0	n/a	1.0	go_stim
43448.388205100084	1550.0	n/a	-1	-1	2750	398.6117949	stim	stop-signal	602	1737985	0.0-25.6-1.6	beast_fmri_test	162	1735777,/,1736457,/,1737137,/,1737817,/	t,t,t,t	<img class = center src='/static/experiments/beast_fmri_test/images/D.png'></img>	71,89	2750.0	test	<img class = center src='/static/experiments/beast_fmri_test/images/redD.png'></img>	stop	1550.0	2.0	6.0	stop	non-target	D	71,Index Finger	89,Middle Finger	900.0	1200.0	1850.0	1550.0	0.0	1200.0	n/a	1.0	stop_stim
44648.388205100084	398.61179489999995	n/a	-1	-1	2750	398.6117949	stim	stop-signal	602	1737985	0.0-25.6-1.6	beast_fmri_test	162	1735777,/,1736457,/,1737137,/,1737817,/	t,t,t,t	<img class = center src='/static/experiments/beast_fmri_test/images/D.png'></img>	71,89	2750.0	test	<img class = center src='/static/experiments/beast_fmri_test/images/redD.png'></img>	stop	1550.0	2.0	6.0	stop	non-target	D	71,Index Finger	89,Middle Finger	900.0	1200.0	1850.0	1550.0	0.0	1200.0	n/a	1.0	ITI
45962	500	n/a	-1	-1	500	0.0	fixation	poldrack-single-stim	603	1738900	0.0-25.7-0.7	beast_fmri_test	162	1738497,/	t	<div class = centerbox2><div class = fixation>+</div></div>	none	500.0	test	n/a	n/a	n/a	n/a	n/a	n/a	n/a	n/a	n/a	n/a	n/a	n/a	n/a	n/a	n/a	n/a	n/a	n/a	fixation
45609.873730800115	1250.0	n/a	-1	-1	2750	354.1262692	stim	stop-signal	604	1741652	0.0-25.7-1.7	beast_fmri_test	162	1739177,/,1739857,/,1740538,/,1741217,/,1741897,/	t,t,t,t,t	<img class = center src='/static/experiments/beast_fmri_test/images/B.png'></img>	71,89	2750.0	test	<img class = center src='/static/experiments/beast_fmri_test/images/redB.png'></img>	stop	1500.0	2.0	7.0	stop	non-target	B	71,Index Finger	89,Middle Finger	900.0	1250.0	1850.0	1500.0	0.0	1250.0	n/a	1.0	go_stim
47109.873730800115	1500.0	n/a	-1	-1	2750	354.1262692	stim	stop-signal	604	1741652	0.0-25.7-1.7	beast_fmri_test	162	1739177,/,1739857,/,1740538,/,1741217,/,1741897,/	t,t,t,t,t	<img class = center src='/static/experiments/beast_fmri_test/images/B.png'></img>	71,89	2750.0	test	<img class = center src='/static/experiments/beast_fmri_test/images/redB.png'></img>	stop	1500.0	2.0	7.0	stop	non-target	B	71,Index Finger	89,Middle Finger	900.0	1250.0	1850.0	1500.0	0.0	1250.0	n/a	1.0	stop_stim
48359.873730800115	354.12626919999997	n/a	-1	-1	2750	354.1262692	stim	stop-signal	604	1741652	0.0-25.7-1.7	beast_fmri_test	162	1739177,/,1739857,/,1740538,/,1741217,/,1741897,/	t,t,t,t,t	<img class = center src='/static/experiments/beast_fmri_test/images/B.png'></img>	71,89	2750.0	test	<img class = center src='/static/experiments/beast_fmri_test/images/redB.png'></img>	stop	1500.0	2.0	7.0	stop	non-target	B	71,Index Finger	89,Middle Finger	900.0	1250.0	1850.0	1500.0	0.0	1250.0	n/a	1.0	ITI
49586	500	n/a	-1	-1	500	0.0	fixation	poldrack-single-stim	605	1742524	0.0-25.8-0.8	beast_fmri_test	162	n/a	n/a	<div class = centerbox2><div class = fixation>+</div></div>	none	500.0	test	n/a	n/a	n/a	n/a	n/a	n/a	n/a	n/a	n/a	n/a	n/a	n/a	n/a	n/a	n/a	n/a	n/a	n/a	fixation
48847.118021100061	2750	n/a	1902	89	2750	740.8819789	stim	stop-signal	606	1745276	0.0-25.8-1.8	beast_fmri_test	162	1742577,/,1743257,/,1743937,/,1744616,/,1745297,/,1745976,/	t,t,t,t,t,t	<img class = center src='/static/experiments/beast_fmri_test/images/B.png'></img>	71,89	2750.0	test	<img class = center src='/static/experiments/beast_fmri_test/images/redB.png'></img>	go	1450.0	2.0	8.0	go	non-target	B	71,Index Finger	89,Middle Finger	900.0	1300.0	1850.0	1450.0	1.0	1300.0	1.0	n/a	go_stim
51597.118021100061	740.88197890000004	n/a	1902	89	2750	740.8819789	stim	stop-signal	606	1745276	0.0-25.8-1.8	beast_fmri_test	162	1742577,/,1743257,/,1743937,/,1744616,/,1745297,/,1745976,/	t,t,t,t,t,t	<img class = center src='/static/experiments/beast_fmri_test/images/B.png'></img>	71,89	2750.0	test	<img class = center src='/static/experiments/beast_fmri_test/images/redB.png'></img>	go	1450.0	2.0	8.0	go	non-target	B	71,Index Finger	89,Middle Finger	900.0	1300.0	1850.0	1450.0	1.0	1300.0	1.0	n/a	ITI
53598	500	n/a	-1	-1	500	0.0	fixation	poldrack-single-stim	607	1746536	0.0-25.9-0.9	beast_fmri_test	162	n/a	n/a	<div class = centerbox2><div class = fixation>+</div></div>	none	500.0	test	n/a	n/a	n/a	n/a	n/a	n/a	n/a	n/a	n/a	n/a	n/a	n/a	n/a	n/a	n/a	n/a	n/a	n/a	fixation
53131.365862800041	1300.0	n/a	1428	89	2750	468.6341372	stim	stop-signal	608	1749288	0.0-25.9-1.9	beast_fmri_test	162	1746657,/,1747336,/,1748017,/,1748696,/,1749377,/	t,t,t,t,t	<img class = center src='/static/experiments/beast_fmri_test/images/T.png'></img>	71,89	2750.0	test	<img class = center src='/static/experiments/beast_fmri_test/images/redT.png'></img>	stop	1450.0	2.0	9.0	stop	non-target	T	71,Index Finger	89,Middle Finger	900.0	1300.0	1850.0	1450.0	0.0	1300.0	n/a	0.0	go_stim
54581.365862800041	1450.0	n/a	1428	89	2750	468.6341372	stim	stop-signal	608	1749288	0.0-25.9-1.9	beast_fmri_test	162	1746657,/,1747336,/,1748017,/,1748696,/,1749377,/	t,t,t,t,t	<img class = center src='/static/experiments/beast_fmri_test/images/T.png'></img>	71,89	2750.0	test	<img class = center src='/static/experiments/beast_fmri_test/images/redT.png'></img>	stop	1450.0	2.0	9.0	stop	non-target	T	71,Index Finger	89,Middle Finger	900.0	1300.0	1850.0	1450.0	0.0	1300.0	n/a	0.0	stop_stim
55881.365862800041	468.63413719999994	n/a	1428	89	2750	468.6341372	stim	stop-signal	608	1749288	0.0-25.9-1.9	beast_fmri_test	162	1746657,/,1747336,/,1748017,/,1748696,/,1749377,/	t,t,t,t,t	<img class = center src='/static/experiments/beast_fmri_test/images/T.png'></img>	71,89	2750.0	test	<img class = center src='/static/experiments/beast_fmri_test/images/redT.png'></img>	stop	1450.0	2.0	9.0	stop	non-target	T	71,Index Finger	89,Middle Finger	900.0	1300.0	1850.0	1450.0	0.0	1300.0	n/a	0.0	ITI
57336	500	n/a	-1	-1	500	0.0	fixation	poldrack-single-stim	609	1750274	0.0-25.10-0.10	beast_fmri_test	162	1750057,/	t	<div class = centerbox2><div class = fixation>+</div></div>	none	500.0	test	n/a	n/a	n/a	n/a	n/a	n/a	n/a	n/a	n/a	n/a	n/a	n/a	n/a	n/a	n/a	n/a	n/a	n/a	fixation
56782.582419299986	2750	n/a	1662	89	2750	556.4175807	stim	stop-signal	610	1753027	0.0-25.10-1.10	beast_fmri_test	162	1750738,/,1751417,/,1752097,/,1752776,/,1753457,/	t,t,t,t,t	<img class = center src='/static/experiments/beast_fmri_test/images/P.png'></img>	71,89	2750.0	test	<img class = center src='/static/experiments/beast_fmri_test/images/redP.png'></img>	go	1500.0	2.0	10.0	go	non-target	P	71,Index Finger	89,Middle Finger	900.0	1250.0	1850.0	1500.0	1.0	1250.0	1.0	n/a	go_stim
59532.582419299986	556.41758070000003	n/a	1662	89	2750	556.4175807	stim	stop-signal	610	1753027	0.0-25.10-1.10	beast_fmri_test	162	1750738,/,1751417,/,1752097,/,1752776,/,1753457,/	t,t,t,t,t	<img class = center src='/static/experiments/beast_fmri_test/images/P.png'></img>	71,89	2750.0	test	<img class = center src='/static/experiments/beast_fmri_test/images/redP.png'></img>	go	1500.0	2.0	10.0	go	non-target	P	71,Index Finger	89,Middle Finger	900.0	1250.0	1850.0	1500.0	1.0	1250.0	1.0	n/a	ITI
61164	500	n/a	-1	-1	500	0.0	fixation	poldrack-single-stim	611	1754102	0.0-25.11-0.11	beast_fmri_test	162	n/a	n/a	<div class = centerbox2><div class = fixation>+</div></div>	none	500.0	test	n/a	n/a	n/a	n/a	n/a	n/a	n/a	n/a	n/a	n/a	n/a	n/a	n/a	n/a	n/a	n/a	n/a	n/a	fixation
60893.735833999934	2750	n/a	2561	89	2750	272.264166	stim	stop-signal	612	1756854	0.0-25.11-1.11	beast_fmri_test	162	1754136,/,1754816,/,1755498,/,1756177,/,1756857,/	t,t,t,t,t	<img class = center src='/static/experiments/beast_fmri_test/images/P.png'></img>	71,89	2750.0	test	<img class = center src='/static/experiments/beast_fmri_test/images/redP.png'></img>	go	1500.0	2.0	11.0	go	non-target	P	71,Index Finger	89,Middle Finger	900.0	1250.0	1850.0	1500.0	1.0	1250.0	1.0	n/a	go_stim
63643.735833999934	272.26416599999999	n/a	2561	89	2750	272.264166	stim	stop-signal	612	1756854	0.0-25.11-1.11	beast_fmri_test	162	1754136,/,1754816,/,1755498,/,1756177,/,1756857,/	t,t,t,t,t	<img class = center src='/static/experiments/beast_fmri_test/images/P.png'></img>	71,89	2750.0	test	<img class = center src='/static/experiments/beast_fmri_test/images/redP.png'></img>	go	1500.0	2.0	11.0	go	non-target	P	71,Index Finger	89,Middle Finger	900.0	1250.0	1850.0	1500.0	1.0	1250.0	1.0	n/a	ITI
64707	500	n/a	-1	-1	500	0.0	fixation	poldrack-single-stim	613	1757645	0.0-25.12-0.12	beast_fmri_test	162	1757537,/	t	<div class = centerbox2><div class = fixation>+</div></div>	none	500.0	test	n/a	n/a	n/a	n/a	n/a	n/a	n/a	n/a	n/a	n/a	n/a	n/a	n/a	n/a	n/a	n/a	n/a	n/a	fixation
64620.52977528004	2750	n/a	2012	71	2750	87.47022472	stim	stop-signal	614	1760396	0.0-25.12-1.12	beast_fmri_test	162	1758218,/,1758897,/,1759578,/,1760257,/	t,t,t,t	<img class = center src='/static/experiments/beast_fmri_test/images/P.png'></img>	71,89	2750.0	test	<img class = center src='/static/experiments/beast_fmri_test/images/redP.png'></img>	go	1850.0	2.0	12.0	go	target	P	71,Index Finger	89,Middle Finger	900.0	1250.0	1850.0	1500.0	1.0	900.0	1.0	n/a	go_stim
67370.52977528004	87.470224720000004	n/a	2012	71	2750	87.47022472	stim	stop-signal	614	1760396	0.0-25.12-1.12	beast_fmri_test	162	1758218,/,1758897,/,1759578,/,1760257,/	t,t,t,t	<img class = center src='/static/experiments/beast_fmri_test/images/P.png'></img>	71,89	2750.0	test	<img class = center src='/static/experiments/beast_fmri_test/images/redP.png'></img>	go	1850.0	2.0	12.0	go	target	P	71,Index Finger	89,Middle Finger	900.0	1250.0	1850.0	1500.0	1.0	900.0	1.0	n/a	ITI
68065	500	n/a	-1	-1	500	0.0	fixation	poldrack-single-stim	615	1761003	0.0-25.13-0.13	beast_fmri_test	162	1760938,/	t	<div class = centerbox2><div class = fixation>+</div></div>	none	500.0	test	n/a	n/a	n/a	n/a	n/a	n/a	n/a	n/a	n/a	n/a	n/a	n/a	n/a	n/a	n/a	n/a	n/a	n/a	fixation
67646.873654800002	2750	n/a	2196	89	2750	420.1263452	stim	stop-signal	616	1763755	0.0-25.13-1.13	beast_fmri_test	162	1761617,/,1762297,/,1762977,/,1763657,/	t,t,t,t	<img class = center src='/static/experiments/beast_fmri_test/images/T.png'></img>	71,89	2750.0	test	<img class = center src='/static/experiments/beast_fmri_test/images/redT.png'></img>	go	1500.0	2.0	13.0	go	non-target	T	71,Index Finger	89,Middle Finger	900.0	1250.0	1850.0	1500.0	1.0	1250.0	1.0	n/a	go_stim
70396.873654800002	420.12634519999995	n/a	2196	89	2750	420.1263452	stim	stop-signal	616	1763755	0.0-25.13-1.13	beast_fmri_test	162	1761617,/,1762297,/,1762977,/,1763657,/	t,t,t,t	<img class = center src='/static/experiments/beast_fmri_test/images/T.png'></img>	71,89	2750.0	test	<img class = center src='/static/experiments/beast_fmri_test/images/redT.png'></img>	go	1500.0	2.0	13.0	go	non-target	T	71,Index Finger	89,Middle Finger	900.0	1250.0	1850.0	1500.0	1.0	1250.0	1.0	n/a	ITI
71759	500	n/a	-1	-1	500	0.0	fixation	poldrack-single-stim	617	1764697	0.0-25.14-0.14	beast_fmri_test	162	1764337,/	t	<div class = centerbox2><div class = fixation>+</div></div>	none	500.0	test	n/a	n/a	n/a	n/a	n/a	n/a	n/a	n/a	n/a	n/a	n/a	n/a	n/a	n/a	n/a	n/a	n/a	n/a	fixation
70441.820281999884	1250.0	n/a	1203	89	2750	1319.179718	stim	stop-signal	618	1767449	0.0-25.14-1.14	beast_fmri_test	162	1765017,/,1765697,/,1766377,/,1767056,/,1767737,/,1768417,/	t,t,t,t,t,t	<img class = center src='/static/experiments/beast_fmri_test/images/T.png'></img>	71,89	2750.0	test	<img class = center src='/static/experiments/beast_fmri_test/images/redT.png'></img>	stop	1500.0	2.0	14.0	stop	non-target	T	71,Index Finger	89,Middle Finger	900.0	1250.0	1850.0	1500.0	0.0	1250.0	n/a	0.0	go_stim
71941.820281999884	1500.0	n/a	1203	89	2750	1319.179718	stim	stop-signal	618	1767449	0.0-25.14-1.14	beast_fmri_test	162	1765017,/,1765697,/,1766377,/,1767056,/,1767737,/,1768417,/	t,t,t,t,t,t	<img class = center src='/static/experiments/beast_fmri_test/images/T.png'></img>	71,89	2750.0	test	<img class = center src='/static/experiments/beast_fmri_test/images/redT.png'></img>	stop	1500.0	2.0	14.0	stop	non-target	T	71,Index Finger	89,Middle Finger	900.0	1250.0	1850.0	1500.0	0.0	1250.0	n/a	0.0	stop_stim
73191.820281999884	1319.1797179999999	n/a	1203	89	2750	1319.179718	stim	stop-signal	618	1767449	0.0-25.14-1.14	beast_fmri_test	162	1765017,/,1765697,/,1766377,/,1767056,/,1767737,/,1768417,/	t,t,t,t,t,t	<img class = center src='/static/experiments/beast_fmri_test/images/T.png'></img>	71,89	2750.0	test	<img class = center src='/static/experiments/beast_fmri_test/images/redT.png'></img>	stop	1500.0	2.0	14.0	stop	non-target	T	71,Index Finger	89,Middle Finger	900.0	1250.0	1850.0	1500.0	0.0	1250.0	n/a	0.0	ITI
76348	500	n/a	-1	-1	500	0.0	fixation	poldrack-single-stim	619	1769286	0.0-25.15-0.15	beast_fmri_test	162	1769097,/	t	<div class = centerbox2><div class = fixation>+</div></div>	none	500.0	test	n/a	n/a	n/a	n/a	n/a	n/a	n/a	n/a	n/a	n/a	n/a	n/a	n/a	n/a	n/a	n/a	n/a	n/a	fixation
73206.152186000021	2750	n/a	1509	71	2750	3143.847814	stim	stop-signal	620	1772038	0.0-25.15-1.15	beast_fmri_test	162	1769777,/,1770457,/,1771138,/,1771817,/,1772497,/,1773177,/,1773857,/,1774536,/	t,t,t,t,t,t,t,t	<img class = center src='/static/experiments/beast_fmri_test/images/T.png'></img>	71,89	2750.0	test	<img class = center src='/static/experiments/beast_fmri_test/images/redT.png'></img>	go	1850.0	2.0	15.0	go	target	T	71,Index Finger	89,Middle Finger	900.0	1200.0	1850.0	1500.0	1.0	900.0	1.0	n/a	go_stim
75956.152186000021	3143.8478140000002	n/a	1509	71	2750	3143.847814	stim	stop-signal	620	1772038	0.0-25.15-1.15	beast_fmri_test	162	1769777,/,1770457,/,1771138,/,1771817,/,1772497,/,1773177,/,1773857,/,1774536,/	t,t,t,t,t,t,t,t	<img class = center src='/static/experiments/beast_fmri_test/images/T.png'></img>	71,89	2750.0	test	<img class = center src='/static/experiments/beast_fmri_test/images/redT.png'></img>	go	1850.0	2.0	15.0	go	target	T	71,Index Finger	89,Middle Finger	900.0	1200.0	1850.0	1500.0	1.0	900.0	1.0	n/a	ITI
82763	500	n/a	-1	-1	500	0.0	fixation	poldrack-single-stim	621	1775701	0.0-25.16-0.16	beast_fmri_test	162	1775216,/	t	<div class = centerbox2><div class = fixation>+</div></div>	none	500.0	test	n/a	n/a	n/a	n/a	n/a	n/a	n/a	n/a	n/a	n/a	n/a	n/a	n/a	n/a	n/a	n/a	n/a	n/a	fixation
82672.558158139931	2750	n/a	1361	89	2750	92.44184186	stim	stop-signal	622	1778453	0.0-25.16-1.16	beast_fmri_test	162	1775897,/,1776577,/,1777257,/,1777937,/	t,t,t,t	<img class = center src='/static/experiments/beast_fmri_test/images/B.png'></img>	71,89	2750.0	test	<img class = center src='/static/experiments/beast_fmri_test/images/redB.png'></img>	go	1550.0	2.0	16.0	go	non-target	B	71,Index Finger	89,Middle Finger	900.0	1200.0	1850.0	1550.0	1.0	1200.0	1.0	n/a	go_stim
85422.558158139931	92.441841859999997	n/a	1361	89	2750	92.44184186	stim	stop-signal	622	1778453	0.0-25.16-1.16	beast_fmri_test	162	1775897,/,1776577,/,1777257,/,1777937,/	t,t,t,t	<img class = center src='/static/experiments/beast_fmri_test/images/B.png'></img>	71,89	2750.0	test	<img class = center src='/static/experiments/beast_fmri_test/images/redB.png'></img>	go	1550.0	2.0	16.0	go	non-target	B	71,Index Finger	89,Middle Finger	900.0	1200.0	1850.0	1550.0	1.0	1200.0	1.0	n/a	ITI
86131	500	n/a	-1	-1	500	0.0	fixation	poldrack-single-stim	623	1779069	0.0-25.17-0.17	beast_fmri_test	162	1778617,/	t	<div class = centerbox2><div class = fixation>+</div></div>	none	500.0	test	n/a	n/a	n/a	n/a	n/a	n/a	n/a	n/a	n/a	n/a	n/a	n/a	n/a	n/a	n/a	n/a	n/a	n/a	fixation
84855.630773999961	2750	n/a	1082	71	2750	1277.369226	stim	stop-signal	624	1781821	0.0-25.17-1.17	beast_fmri_test	162	1779297,/,1779977,/,1780656,/,1781337,/,1782016,/,1782696,/	t,t,t,t,t,t	<img class = center src='/static/experiments/beast_fmri_test/images/T.png'></img>	71,89	2750.0	test	<img class = center src='/static/experiments/beast_fmri_test/images/redT.png'></img>	go	1850.0	2.0	17.0	go	target	T	71,Index Finger	89,Middle Finger	900.0	1200.0	1850.0	1550.0	1.0	900.0	1.0	n/a	go_stim
87605.630773999961	1277.369226	n/a	1082	71	2750	1277.369226	stim	stop-signal	624	1781821	0.0-25.17-1.17	beast_fmri_test	162	1779297,/,1779977,/,1780656,/,1781337,/,1782016,/,1782696,/	t,t,t,t,t,t	<img class = center src='/static/experiments/beast_fmri_test/images/T.png'></img>	71,89	2750.0	test	<img class = center src='/static/experiments/beast_fmri_test/images/redT.png'></img>	go	1850.0	2.0	17.0	go	target	T	71,Index Finger	89,Middle Finger	900.0	1200.0	1850.0	1550.0	1.0	900.0	1.0	n/a	ITI
90685	500	n/a	-1	-1	500	0.0	fixation	poldrack-single-stim	625	1783623	0.0-25.18-0.18	beast_fmri_test	162	1783377,/	t	<div class = centerbox2><div class = fixation>+</div></div>	none	500.0	test	n/a	n/a	n/a	n/a	n/a	n/a	n/a	n/a	n/a	n/a	n/a	n/a	n/a	n/a	n/a	n/a	n/a	n/a	fixation
90265.782889500028	1200.0	n/a	1074	89	2750	421.2171105	stim	stop-signal	626	1786375	0.0-25.18-1.18	beast_fmri_test	162	1784057,/,1784736,/,1785417,/,1786096,/,1786776,/	t,t,t,t,t	<img class = center src='/static/experiments/beast_fmri_test/images/P.png'></img>	71,89	2750.0	test	<img class = center src='/static/experiments/beast_fmri_test/images/redP.png'></img>	stop	1550.0	2.0	18.0	stop	non-target	P	71,Index Finger	89,Middle Finger	900.0	1200.0	1850.0	1550.0	0.0	1200.0	n/a	0.0	go_stim
91815.782889500028	1550.0	n/a	1074	89	2750	421.2171105	stim	stop-signal	626	1786375	0.0-25.18-1.18	beast_fmri_test	162	1784057,/,1784736,/,1785417,/,1786096,/,1786776,/	t,t,t,t,t	<img class = center src='/static/experiments/beast_fmri_test/images/P.png'></img>	71,89	2750.0	test	<img class = center src='/static/experiments/beast_fmri_test/images/redP.png'></img>	stop	1550.0	2.0	18.0	stop	non-target	P	71,Index Finger	89,Middle Finger	900.0	1200.0	1850.0	1550.0	0.0	1200.0	n/a	0.0	stop_stim
93015.782889500028	421.21711050000005	n/a	1074	89	2750	421.2171105	stim	stop-signal	626	1786375	0.0-25.18-1.18	beast_fmri_test	162	1784057,/,1784736,/,1785417,/,1786096,/,1786776,/	t,t,t,t,t	<img class = center src='/static/experiments/beast_fmri_test/images/P.png'></img>	71,89	2750.0	test	<img class = center src='/static/experiments/beast_fmri_test/images/redP.png'></img>	stop	1550.0	2.0	18.0	stop	non-target	P	71,Index Finger	89,Middle Finger	900.0	1200.0	1850.0	1550.0	0.0	1200.0	n/a	0.0	ITI
94377	500	n/a	-1	-1	500	0.0	fixation	poldrack-single-stim	627	1787315	0.0-25.19-0.19	beast_fmri_test	162	n/a	n/a	<div class = centerbox2><div class = fixation>+</div></div>	none	500.0	test	n/a	n/a	n/a	n/a	n/a	n/a	n/a	n/a	n/a	n/a	n/a	n/a	n/a	n/a	n/a	n/a	n/a	n/a	fixation
94295.945604000008	2750	n/a	1919	89	2750	83.054396	stim	stop-signal	628	1790067	0.0-25.19-1.19	beast_fmri_test	162	1787457,/,1788138,/,1788817,/,1789498,/	t,t,t,t	<img class = center src='/static/experiments/beast_fmri_test/images/B.png'></img>	71,89	2750.0	test	<img class = center src='/static/experiments/beast_fmri_test/images/redB.png'></img>	go	1600.0	2.0	19.0	go	non-target	B	71,Index Finger	89,Middle Finger	900.0	1150.0	1850.0	1600.0	1.0	1150.0	1.0	n/a	go_stim
97045.945604000008	83.054395999999997	n/a	1919	89	2750	83.054396	stim	stop-signal	628	1790067	0.0-25.19-1.19	beast_fmri_test	162	1787457,/,1788138,/,1788817,/,1789498,/	t,t,t,t	<img class = center src='/static/experiments/beast_fmri_test/images/B.png'></img>	71,89	2750.0	test	<img class = center src='/static/experiments/beast_fmri_test/images/redB.png'></img>	go	1600.0	2.0	19.0	go	non-target	B	71,Index Finger	89,Middle Finger	900.0	1150.0	1850.0	1600.0	1.0	1150.0	1.0	n/a	ITI
97737	500	n/a	-1	-1	500	0.0	fixation	poldrack-single-stim	629	1790675	0.0-25.20-0.20	beast_fmri_test	162	1790177,/	t	<div class = centerbox2><div class = fixation>+</div></div>	none	500.0	test	n/a	n/a	n/a	n/a	n/a	n/a	n/a	n/a	n/a	n/a	n/a	n/a	n/a	n/a	n/a	n/a	n/a	n/a	fixation
96559.469654999906	2750	n/a	1379	71	2750	1179.530345	stim	stop-signal	630	1793427	0.0-25.20-1.20	beast_fmri_test	162	1790858,/,1791538,/,1792217,/,1792897,/,1793577,/,1794257,/	t,t,t,t,t,t	<img class = center src='/static/experiments/beast_fmri_test/images/P.png'></img>	71,89	2750.0	test	<img class = center src='/static/experiments/beast_fmri_test/images/redP.png'></img>	go	1850.0	2.0	20.0	go	target	P	71,Index Finger	89,Middle Finger	900.0	1150.0	1850.0	1600.0	1.0	900.0	1.0	n/a	go_stim
99309.469654999906	1179.5303449999999	n/a	1379	71	2750	1179.530345	stim	stop-signal	630	1793427	0.0-25.20-1.20	beast_fmri_test	162	1790858,/,1791538,/,1792217,/,1792897,/,1793577,/,1794257,/	t,t,t,t,t,t	<img class = center src='/static/experiments/beast_fmri_test/images/P.png'></img>	71,89	2750.0	test	<img class = center src='/static/experiments/beast_fmri_test/images/redP.png'></img>	go	1850.0	2.0	20.0	go	target	P	71,Index Finger	89,Middle Finger	900.0	1150.0	1850.0	1600.0	1.0	900.0	1.0	n/a	ITI
102191	500	n/a	-1	-1	500	0.0	fixation	poldrack-single-stim	631	1795129	0.0-25.21-0.21	beast_fmri_test	162	1794937,/	t	<div class = centerbox2><div class = fixation>+</div></div>	none	500.0	test	n/a	n/a	n/a	n/a	n/a	n/a	n/a	n/a	n/a	n/a	n/a	n/a	n/a	n/a	n/a	n/a	n/a	n/a	fixation
100751.83572300011	2750	n/a	1325	89	2750	1441.164277	stim	stop-signal	632	1797881	0.0-25.21-1.21	beast_fmri_test	162	1795617,/,1796297,/,1796977,/,1797657,/,1798337,/,1799017,/	t,t,t,t,t,t	<img class = center src='/static/experiments/beast_fmri_test/images/P.png'></img>	71,89	2750.0	test	<img class = center src='/static/experiments/beast_fmri_test/images/redP.png'></img>	go	1600.0	2.0	21.0	go	non-target	P	71,Index Finger	89,Middle Finger	900.0	1150.0	1850.0	1600.0	1.0	1150.0	1.0	n/a	go_stim
103501.83572300011	1441.1642769999999	n/a	1325	89	2750	1441.164277	stim	stop-signal	632	1797881	0.0-25.21-1.21	beast_fmri_test	162	1795617,/,1796297,/,1796977,/,1797657,/,1798337,/,1799017,/	t,t,t,t,t,t	<img class = center src='/static/experiments/beast_fmri_test/images/P.png'></img>	71,89	2750.0	test	<img class = center src='/static/experiments/beast_fmri_test/images/redP.png'></img>	go	1600.0	2.0	21.0	go	non-target	P	71,Index Finger	89,Middle Finger	900.0	1150.0	1850.0	1600.0	1.0	1150.0	1.0	n/a	ITI
106905	500	n/a	-1	-1	500	0.0	fixation	poldrack-single-stim	633	1799843	0.0-25.22-0.22	beast_fmri_test	162	1799697,/	t	<div class = centerbox2><div class = fixation>+</div></div>	none	500.0	test	n/a	n/a	n/a	n/a	n/a	n/a	n/a	n/a	n/a	n/a	n/a	n/a	n/a	n/a	n/a	n/a	n/a	n/a	fixation
106142.69618989993	2750	n/a	1188	71	2750	764.3038101	stim	stop-signal	634	1802595	0.0-25.22-1.22	beast_fmri_test	162	1800377,/,1801057,/,1801738,/,1802417,/,1803097,/	t,t,t,t,t	<img class = center src='/static/experiments/beast_fmri_test/images/P.png'></img>	71,89	2750.0	test	<img class = center src='/static/experiments/beast_fmri_test/images/redP.png'></img>	go	1850.0	2.0	22.0	go	target	P	71,Index Finger	89,Middle Finger	900.0	1150.0	1850.0	1600.0	1.0	900.0	1.0	n/a	go_stim
108892.69618989993	764.30381009999996	n/a	1188	71	2750	764.3038101	stim	stop-signal	634	1802595	0.0-25.22-1.22	beast_fmri_test	162	1800377,/,1801057,/,1801738,/,1802417,/,1803097,/	t,t,t,t,t	<img class = center src='/static/experiments/beast_fmri_test/images/P.png'></img>	71,89	2750.0	test	<img class = center src='/static/experiments/beast_fmri_test/images/redP.png'></img>	go	1850.0	2.0	22.0	go	target	P	71,Index Finger	89,Middle Finger	900.0	1150.0	1850.0	1600.0	1.0	900.0	1.0	n/a	ITI
110941	500	n/a	-1	-1	500	0.0	fixation	poldrack-single-stim	635	1803879	0.0-25.23-0.23	beast_fmri_test	162	1803777,/	t	<div class = centerbox2><div class = fixation>+</div></div>	none	500.0	test	n/a	n/a	n/a	n/a	n/a	n/a	n/a	n/a	n/a	n/a	n/a	n/a	n/a	n/a	n/a	n/a	n/a	n/a	fixation
107531.95226199995	900.0	n/a	-1	-1	2750	3411.047738	stim	stop-signal	636	1806631	0.0-25.23-1.23	beast_fmri_test	162	1804457,/,1805137,/,1805817,/,1806497,/,1807177,/,1807857,/,1808537,/,1809217,/,1809897,/	t,t,t,t,t,t,t,t,t	<img class = center src='/static/experiments/beast_fmri_test/images/P.png'></img>	71,89	2750.0	test	<img class = center src='/static/experiments/beast_fmri_test/images/redP.png'></img>	stop	1850.0	2.0	23.0	stop	target	P	71,Index Finger	89,Middle Finger	900.0	1150.0	1850.0	1600.0	0.0	900.0	n/a	1.0	go_stim
109381.95226199995	1850.0	n/a	-1	-1	2750	3411.047738	stim	stop-signal	636	1806631	0.0-25.23-1.23	beast_fmri_test	162	1804457,/,1805137,/,1805817,/,1806497,/,1807177,/,1807857,/,1808537,/,1809217,/,1809897,/	t,t,t,t,t,t,t,t,t	<img class = center src='/static/experiments/beast_fmri_test/images/P.png'></img>	71,89	2750.0	test	<img class = center src='/static/experiments/beast_fmri_test/images/redP.png'></img>	stop	1850.0	2.0	23.0	stop	target	P	71,Index Finger	89,Middle Finger	900.0	1150.0	1850.0	1600.0	0.0	900.0	n/a	1.0	stop_stim
110281.95226199995	3411.0477380000002	n/a	-1	-1	2750	3411.047738	stim	stop-signal	636	1806631	0.0-25.23-1.23	beast_fmri_test	162	1804457,/,1805137,/,1805817,/,1806497,/,1807177,/,1807857,/,1808537,/,1809217,/,1809897,/	t,t,t,t,t,t,t,t,t	<img class = center src='/static/experiments/beast_fmri_test/images/P.png'></img>	71,89	2750.0	test	<img class = center src='/static/experiments/beast_fmri_test/images/redP.png'></img>	stop	1850.0	2.0	23.0	stop	target	P	71,Index Finger	89,Middle Finger	900.0	1150.0	1850.0	1600.0	0.0	900.0	n/a	1.0	ITI
117623	500	n/a	-1	-1	500	0.0	fixation	poldrack-single-stim	637	1810561	0.0-25.24-0.24	beast_fmri_test	162	n/a	n/a	<div class = centerbox2><div class = fixation>+</div></div>	none	500.0	test	n/a	n/a	n/a	n/a	n/a	n/a	n/a	n/a	n/a	n/a	n/a	n/a	n/a	n/a	n/a	n/a	n/a	n/a	fixation
116826.69846089999	950.0	n/a	-1	-1	2750	798.3015391	stim	stop-signal	638	1813313	0.0-25.24-1.24	beast_fmri_test	162	1810576,/,1811257,/,1811937,/,1812617,/,1813297,/,1813977,/	t,t,t,t,t,t	<img class = center src='/static/experiments/beast_fmri_test/images/P.png'></img>	71,89	2750.0	test	<img class = center src='/static/experiments/beast_fmri_test/images/redP.png'></img>	stop	1800.0	2.0	24.0	stop	target	P	71,Index Finger	89,Middle Finger	950.0	1150.0	1800.0	1600.0	0.0	950.0	n/a	1.0	go_stim
118626.69846089999	1800.0	n/a	-1	-1	2750	798.3015391	stim	stop-signal	638	1813313	0.0-25.24-1.24	beast_fmri_test	162	1810576,/,1811257,/,1811937,/,1812617,/,1813297,/,1813977,/	t,t,t,t,t,t	<img class = center src='/static/experiments/beast_fmri_test/images/P.png'></img>	71,89	2750.0	test	<img class = center src='/static/experiments/beast_fmri_test/images/redP.png'></img>	stop	1800.0	2.0	24.0	stop	target	P	71,Index Finger	89,Middle Finger	950.0	1150.0	1800.0	1600.0	0.0	950.0	n/a	1.0	stop_stim
119576.69846089999	798.30153910000001	n/a	-1	-1	2750	798.3015391	stim	stop-signal	638	1813313	0.0-25.24-1.24	beast_fmri_test	162	1810576,/,1811257,/,1811937,/,1812617,/,1813297,/,1813977,/	t,t,t,t,t,t	<img class = center src='/static/experiments/beast_fmri_test/images/P.png'></img>	71,89	2750.0	test	<img class = center src='/static/experiments/beast_fmri_test/images/redP.png'></img>	stop	1800.0	2.0	24.0	stop	target	P	71,Index Finger	89,Middle Finger	950.0	1150.0	1800.0	1600.0	0.0	950.0	n/a	1.0	ITI
121693	500	n/a	-1	-1	500	0.0	fixation	poldrack-single-stim	639	1814631	0.0-25.25-0.25	beast_fmri_test	162	n/a	n/a	<div class = centerbox2><div class = fixation>+</div></div>	none	500.0	test	n/a	n/a	n/a	n/a	n/a	n/a	n/a	n/a	n/a	n/a	n/a	n/a	n/a	n/a	n/a	n/a	n/a	n/a	fixation
120861.98164550005	1150.0	n/a	1251	89	2750	832.0183545	stim	stop-signal	640	1817382	0.0-25.25-1.25	beast_fmri_test	162	1814656,/,1815336,/,1816016,/,1816697,/,1817376,/,1818057,/	t,t,t,t,t,t	<img class = center src='/static/experiments/beast_fmri_test/images/B.png'></img>	71,89	2750.0	test	<img class = center src='/static/experiments/beast_fmri_test/images/redB.png'></img>	stop	1600.0	2.0	25.0	stop	non-target	B	71,Index Finger	89,Middle Finger	1000.0	1150.0	1800.0	1600.0	0.0	1150.0	n/a	0.0	go_stim
122461.98164550005	1600.0	n/a	1251	89	2750	832.0183545	stim	stop-signal	640	1817382	0.0-25.25-1.25	beast_fmri_test	162	1814656,/,1815336,/,1816016,/,1816697,/,1817376,/,1818057,/	t,t,t,t,t,t	<img class = center src='/static/experiments/beast_fmri_test/images/B.png'></img>	71,89	2750.0	test	<img class = center src='/static/experiments/beast_fmri_test/images/redB.png'></img>	stop	1600.0	2.0	25.0	stop	non-target	B	71,Index Finger	89,Middle Finger	1000.0	1150.0	1800.0	1600.0	0.0	1150.0	n/a	0.0	stop_stim
123611.98164550005	832.01835449999999	n/a	1251	89	2750	832.0183545	stim	stop-signal	640	1817382	0.0-25.25-1.25	beast_fmri_test	162	1814656,/,1815336,/,1816016,/,1816697,/,1817376,/,1818057,/	t,t,t,t,t,t	<img class = center src='/static/experiments/beast_fmri_test/images/B.png'></img>	71,89	2750.0	test	<img class = center src='/static/experiments/beast_fmri_test/images/redB.png'></img>	stop	1600.0	2.0	25.0	stop	non-target	B	71,Index Finger	89,Middle Finger	1000.0	1150.0	1800.0	1600.0	0.0	1150.0	n/a	0.0	ITI
125796	500	n/a	-1	-1	500	0.0	fixation	poldrack-single-stim	641	1818734	0.0-25.26-0.26	beast_fmri_test	162	n/a	n/a	<div class = centerbox2><div class = fixation>+</div></div>	none	500.0	test	n/a	n/a	n/a	n/a	n/a	n/a	n/a	n/a	n/a	n/a	n/a	n/a	n/a	n/a	n/a	n/a	n/a	n/a	fixation
125423.5433449999	2750	n/a	1319	71	2750	374.456655	stim	stop-signal	642	1821486	0.0-25.26-1.26	beast_fmri_test	162	1818736,/,1819417,/,1820096,/,1820777,/,1821457,/	t,t,t,t,t	<img class = center src='/static/experiments/beast_fmri_test/images/P.png'></img>	71,89	2750.0	test	<img class = center src='/static/experiments/beast_fmri_test/images/redP.png'></img>	go	1750.0	2.0	26.0	go	target	P	71,Index Finger	89,Middle Finger	1000.0	1100.0	1750.0	1600.0	1.0	1000.0	1.0	n/a	go_stim
128173.5433449999	374.45665499999996	n/a	1319	71	2750	374.456655	stim	stop-signal	642	1821486	0.0-25.26-1.26	beast_fmri_test	162	1818736,/,1819417,/,1820096,/,1820777,/,1821457,/	t,t,t,t,t	<img class = center src='/static/experiments/beast_fmri_test/images/P.png'></img>	71,89	2750.0	test	<img class = center src='/static/experiments/beast_fmri_test/images/redP.png'></img>	go	1750.0	2.0	26.0	go	target	P	71,Index Finger	89,Middle Finger	1000.0	1100.0	1750.0	1600.0	1.0	1000.0	1.0	n/a	ITI
129442	500	n/a	-1	-1	500	0.0	fixation	poldrack-single-stim	643	1822380	0.0-25.27-0.27	beast_fmri_test	162	1822138,/	t	<div class = centerbox2><div class = fixation>+</div></div>	none	500.0	test	n/a	n/a	n/a	n/a	n/a	n/a	n/a	n/a	n/a	n/a	n/a	n/a	n/a	n/a	n/a	n/a	n/a	n/a	fixation
129417.14395847009	1100.0	n/a	-1	-1	2750	26.85604153	stim	stop-signal	644	1825132	0.0-25.27-1.27	beast_fmri_test	162	1822817,/,1823498,/,1824177,/,1824857,/	t,t,t,t	<img class = center src='/static/experiments/beast_fmri_test/images/T.png'></img>	71,89	2750.0	test	<img class = center src='/static/experiments/beast_fmri_test/images/redT.png'></img>	stop	1650.0	2.0	27.0	stop	non-target	T	71,Index Finger	89,Middle Finger	1000.0	1100.0	1750.0	1650.0	0.0	1100.0	n/a	1.0	go_stim
131067.14395847009	1650.0	n/a	-1	-1	2750	26.85604153	stim	stop-signal	644	1825132	0.0-25.27-1.27	beast_fmri_test	162	1822817,/,1823498,/,1824177,/,1824857,/	t,t,t,t	<img class = center src='/static/experiments/beast_fmri_test/images/T.png'></img>	71,89	2750.0	test	<img class = center src='/static/experiments/beast_fmri_test/images/redT.png'></img>	stop	1650.0	2.0	27.0	stop	non-target	T	71,Index Finger	89,Middle Finger	1000.0	1100.0	1750.0	1650.0	0.0	1100.0	n/a	1.0	stop_stim
132167.14395847009	26.856041529999999	n/a	-1	-1	2750	26.85604153	stim	stop-signal	644	1825132	0.0-25.27-1.27	beast_fmri_test	162	1822817,/,1823498,/,1824177,/,1824857,/	t,t,t,t	<img class = center src='/static/experiments/beast_fmri_test/images/T.png'></img>	71,89	2750.0	test	<img class = center src='/static/experiments/beast_fmri_test/images/redT.png'></img>	stop	1650.0	2.0	27.0	stop	non-target	T	71,Index Finger	89,Middle Finger	1000.0	1100.0	1750.0	1650.0	0.0	1100.0	n/a	1.0	ITI
132741	500	n/a	-1	-1	500	0.0	fixation	poldrack-single-stim	645	1825679	0.0-25.28-0.28	beast_fmri_test	162	1825538,/	t	<div class = centerbox2><div class = fixation>+</div></div>	none	500.0	test	n/a	n/a	n/a	n/a	n/a	n/a	n/a	n/a	n/a	n/a	n/a	n/a	n/a	n/a	n/a	n/a	n/a	n/a	fixation
129128.33316099993	2750	n/a	1689	89	2750	3614.666839	stim	stop-signal	646	1828431	0.0-25.28-1.28	beast_fmri_test	162	1826217,/,1826897,/,1827577,/,1828257,/,1828937,/,1829617,/,1830297,/,1830977,/,1831657,/	t,t,t,t,t,t,t,t,t	<img class = center src='/static/experiments/beast_fmri_test/images/T.png'></img>	71,89	2750.0	test	<img class = center src='/static/experiments/beast_fmri_test/images/redT.png'></img>	go	1600.0	2.0	28.0	go	non-target	T	71,Index Finger	89,Middle Finger	1000.0	1150.0	1750.0	1600.0	1.0	1150.0	1.0	n/a	go_stim
131878.33316099993	3614.666839	n/a	1689	89	2750	3614.666839	stim	stop-signal	646	1828431	0.0-25.28-1.28	beast_fmri_test	162	1826217,/,1826897,/,1827577,/,1828257,/,1828937,/,1829617,/,1830297,/,1830977,/,1831657,/	t,t,t,t,t,t,t,t,t	<img class = center src='/static/experiments/beast_fmri_test/images/T.png'></img>	71,89	2750.0	test	<img class = center src='/static/experiments/beast_fmri_test/images/redT.png'></img>	go	1600.0	2.0	28.0	go	non-target	T	71,Index Finger	89,Middle Finger	1000.0	1150.0	1750.0	1600.0	1.0	1150.0	1.0	n/a	ITI
139626	500	n/a	-1	-1	500	0.0	fixation	poldrack-single-stim	647	1832564	0.0-25.29-0.29	beast_fmri_test	162	1832338,/	t	<div class = centerbox2><div class = fixation>+</div></div>	none	500.0	test	n/a	n/a	n/a	n/a	n/a	n/a	n/a	n/a	n/a	n/a	n/a	n/a	n/a	n/a	n/a	n/a	n/a	n/a	fixation
138224.6997	2750	n/a	2312	89	2750	1403.3003	stim	stop-signal	648	1835316	0.0-25.29-1.29	beast_fmri_test	162	1833017,/,1833697,/,1834377,/,1835057,/,1835737,/,1836417,/	t,t,t,t,t,t	<img class = center src='/static/experiments/beast_fmri_test/images/B.png'></img>	71,89	2750.0	test	<img class = center src='/static/experiments/beast_fmri_test/images/redB.png'></img>	go	1600.0	2.0	29.0	go	non-target	B	71,Index Finger	89,Middle Finger	1000.0	1150.0	1750.0	1600.0	1.0	1150.0	1.0	n/a	go_stim
140974.6997	1403.3003000000001	n/a	2312	89	2750	1403.3003	stim	stop-signal	648	1835316	0.0-25.29-1.29	beast_fmri_test	162	1833017,/,1833697,/,1834377,/,1835057,/,1835737,/,1836417,/	t,t,t,t,t,t	<img class = center src='/static/experiments/beast_fmri_test/images/B.png'></img>	71,89	2750.0	test	<img class = center src='/static/experiments/beast_fmri_test/images/redB.png'></img>	go	1600.0	2.0	29.0	go	non-target	B	71,Index Finger	89,Middle Finger	1000.0	1150.0	1750.0	1600.0	1.0	1150.0	1.0	n/a	ITI
144302	500	n/a	-1	-1	500	0.0	fixation	poldrack-single-stim	649	1837240	0.0-25.30-0.30	beast_fmri_test	162	1837097,/	t	<div class = centerbox2><div class = fixation>+</div></div>	none	500.0	test	n/a	n/a	n/a	n/a	n/a	n/a	n/a	n/a	n/a	n/a	n/a	n/a	n/a	n/a	n/a	n/a	n/a	n/a	fixation
143971.43431710009	1150.0	n/a	-1	-1	2750	332.5656829	stim	stop-signal	650	1839992	0.0-25.30-1.30	beast_fmri_test	162	1837777,/,1838456,/,1839137,/,1839817,/	t,t,t,t	<img class = center src='/static/experiments/beast_fmri_test/images/B.png'></img>	71,89	2750.0	test	<img class = center src='/static/experiments/beast_fmri_test/images/redB.png'></img>	stop	1600.0	2.0	30.0	stop	non-target	B	71,Index Finger	89,Middle Finger	1000.0	1150.0	1750.0	1600.0	0.0	1150.0	n/a	1.0	go_stim
145571.43431710009	1600.0	n/a	-1	-1	2750	332.5656829	stim	stop-signal	650	1839992	0.0-25.30-1.30	beast_fmri_test	162	1837777,/,1838456,/,1839137,/,1839817,/	t,t,t,t	<img class = center src='/static/experiments/beast_fmri_test/images/B.png'></img>	71,89	2750.0	test	<img class = center src='/static/experiments/beast_fmri_test/images/redB.png'></img>	stop	1600.0	2.0	30.0	stop	non-target	B	71,Index Finger	89,Middle Finger	1000.0	1150.0	1750.0	1600.0	0.0	1150.0	n/a	1.0	stop_stim
146721.43431710009	332.56568290000001	n/a	-1	-1	2750	332.5656829	stim	stop-signal	650	1839992	0.0-25.30-1.30	beast_fmri_test	162	1837777,/,1838456,/,1839137,/,1839817,/	t,t,t,t	<img class = center src='/static/experiments/beast_fmri_test/images/B.png'></img>	71,89	2750.0	test	<img class = center src='/static/experiments/beast_fmri_test/images/redB.png'></img>	stop	1600.0	2.0	30.0	stop	non-target	B	71,Index Finger	89,Middle Finger	1000.0	1150.0	1750.0	1600.0	0.0	1150.0	n/a	1.0	ITI
147909	500	n/a	-1	-1	500	0.0	fixation	poldrack-single-stim	651	1840847	0.0-25.31-0.31	beast_fmri_test	162	1840497,/	t	<div class = centerbox2><div class = fixation>+</div></div>	none	500.0	test	n/a	n/a	n/a	n/a	n/a	n/a	n/a	n/a	n/a	n/a	n/a	n/a	n/a	n/a	n/a	n/a	n/a	n/a	fixation
145126.14417500002	2750	n/a	1435	89	2750	2784.855825	stim	stop-signal	652	1843599	0.0-25.31-1.31	beast_fmri_test	162	1841177,/,1841857,/,1842537,/,1843216,/,1843897,/,1844576,/,1845257,/,1845937,/	t,t,t,t,t,t,t,t	<img class = center src='/static/experiments/beast_fmri_test/images/V.png'></img>	71,89	2750.0	test	<img class = center src='/static/experiments/beast_fmri_test/images/redV.png'></img>	go	1550.0	2.0	31.0	go	non-target	V	71,Index Finger	89,Middle Finger	1000.0	1200.0	1750.0	1550.0	1.0	1200.0	1.0	n/a	go_stim
147876.14417500002	2784.8558250000001	n/a	1435	89	2750	2784.855825	stim	stop-signal	652	1843599	0.0-25.31-1.31	beast_fmri_test	162	1841177,/,1841857,/,1842537,/,1843216,/,1843897,/,1844576,/,1845257,/,1845937,/	t,t,t,t,t,t,t,t	<img class = center src='/static/experiments/beast_fmri_test/images/V.png'></img>	71,89	2750.0	test	<img class = center src='/static/experiments/beast_fmri_test/images/redV.png'></img>	go	1550.0	2.0	31.0	go	non-target	V	71,Index Finger	89,Middle Finger	1000.0	1200.0	1750.0	1550.0	1.0	1200.0	1.0	n/a	ITI
153963	500	n/a	-1	-1	500	0.0	fixation	poldrack-single-stim	653	1846901	0.0-25.32-0.32	beast_fmri_test	162	1846617,/	t	<div class = centerbox2><div class = fixation>+</div></div>	none	500.0	test	n/a	n/a	n/a	n/a	n/a	n/a	n/a	n/a	n/a	n/a	n/a	n/a	n/a	n/a	n/a	n/a	n/a	n/a	fixation
152664.81865500007	2750	n/a	1614	71	2750	1300.181345	stim	stop-signal	654	1849653	0.0-25.32-1.32	beast_fmri_test	162	1847297,/,1847977,/,1848656,/,1849337,/,1850016,/,1850697,/	t,t,t,t,t,t	<img class = center src='/static/experiments/beast_fmri_test/images/B.png'></img>	71,89	2750.0	test	<img class = center src='/static/experiments/beast_fmri_test/images/redB.png'></img>	go	1750.0	2.0	32.0	go	target	B	71,Index Finger	89,Middle Finger	1000.0	1200.0	1750.0	1550.0	1.0	1000.0	1.0	n/a	go_stim
155414.81865500007	1300.181345	n/a	1614	71	2750	1300.181345	stim	stop-signal	654	1849653	0.0-25.32-1.32	beast_fmri_test	162	1847297,/,1847977,/,1848656,/,1849337,/,1850016,/,1850697,/	t,t,t,t,t,t	<img class = center src='/static/experiments/beast_fmri_test/images/B.png'></img>	71,89	2750.0	test	<img class = center src='/static/experiments/beast_fmri_test/images/redB.png'></img>	go	1750.0	2.0	32.0	go	target	B	71,Index Finger	89,Middle Finger	1000.0	1200.0	1750.0	1550.0	1.0	1000.0	1.0	n/a	ITI
158536	500	n/a	-1	-1	500	0.0	fixation	poldrack-single-stim	655	1851474	0.0-25.33-0.33	beast_fmri_test	162	1851377,/	t	<div class = centerbox2><div class = fixation>+</div></div>	none	500.0	test	n/a	n/a	n/a	n/a	n/a	n/a	n/a	n/a	n/a	n/a	n/a	n/a	n/a	n/a	n/a	n/a	n/a	n/a	fixation
158389.67183319991	2750	n/a	1052	89	2750	148.3281668	stim	stop-signal	656	1854226	0.0-25.33-1.33	beast_fmri_test	162	1852056,/,1852737,/,1853418,/,1854097,/	t,t,t,t	<img class = center src='/static/experiments/beast_fmri_test/images/T.png'></img>	71,89	2750.0	test	<img class = center src='/static/experiments/beast_fmri_test/images/redT.png'></img>	go	1550.0	2.0	33.0	go	non-target	T	71,Index Finger	89,Middle Finger	1000.0	1200.0	1750.0	1550.0	1.0	1200.0	1.0	n/a	go_stim
161139.67183319991	148.32816680000002	n/a	1052	89	2750	148.3281668	stim	stop-signal	656	1854226	0.0-25.33-1.33	beast_fmri_test	162	1852056,/,1852737,/,1853418,/,1854097,/	t,t,t,t	<img class = center src='/static/experiments/beast_fmri_test/images/T.png'></img>	71,89	2750.0	test	<img class = center src='/static/experiments/beast_fmri_test/images/redT.png'></img>	go	1550.0	2.0	33.0	go	non-target	T	71,Index Finger	89,Middle Finger	1000.0	1200.0	1750.0	1550.0	1.0	1200.0	1.0	n/a	ITI
161955	500	n/a	-1	-1	500	0.0	fixation	poldrack-single-stim	657	1854893	0.0-25.34-0.34	beast_fmri_test	162	1854778,/	t	<div class = centerbox2><div class = fixation>+</div></div>	none	500.0	test	n/a	n/a	n/a	n/a	n/a	n/a	n/a	n/a	n/a	n/a	n/a	n/a	n/a	n/a	n/a	n/a	n/a	n/a	fixation
161769.0788767999	2750	n/a	1918	89	2750	187.9211232	stim	stop-signal	658	1857645	0.0-25.34-1.34	beast_fmri_test	162	1855458,/,1856137,/,1856817,/,1857497,/	t,t,t,t	<img class = center src='/static/experiments/beast_fmri_test/images/P.png'></img>	71,89	2750.0	test	<img class = center src='/static/experiments/beast_fmri_test/images/redP.png'></img>	go	1550.0	2.0	34.0	go	non-target	P	71,Index Finger	89,Middle Finger	1000.0	1200.0	1750.0	1550.0	1.0	1200.0	1.0	n/a	go_stim
164519.0788767999	187.92112319999998	n/a	1918	89	2750	187.9211232	stim	stop-signal	658	1857645	0.0-25.34-1.34	beast_fmri_test	162	1855458,/,1856137,/,1856817,/,1857497,/	t,t,t,t	<img class = center src='/static/experiments/beast_fmri_test/images/P.png'></img>	71,89	2750.0	test	<img class = center src='/static/experiments/beast_fmri_test/images/redP.png'></img>	go	1550.0	2.0	34.0	go	non-target	P	71,Index Finger	89,Middle Finger	1000.0	1200.0	1750.0	1550.0	1.0	1200.0	1.0	n/a	ITI
165415	500	n/a	-1	-1	500	0.0	fixation	poldrack-single-stim	659	1858353	0.0-25.35-0.35	beast_fmri_test	162	1858177,/	t	<div class = centerbox2><div class = fixation>+</div></div>	none	500.0	test	n/a	n/a	n/a	n/a	n/a	n/a	n/a	n/a	n/a	n/a	n/a	n/a	n/a	n/a	n/a	n/a	n/a	n/a	fixation
163179.61801200011	2750	n/a	1210	89	2750	2236.381988	stim	stop-signal	660	1861104	0.0-25.35-1.35	beast_fmri_test	162	1858857,/,1859537,/,1860217,/,1860897,/,1861577,/,1862257,/,1862938,/	t,t,t,t,t,t,t	<img class = center src='/static/experiments/beast_fmri_test/images/V.png'></img>	71,89	2750.0	test	<img class = center src='/static/experiments/beast_fmri_test/images/redV.png'></img>	go	1550.0	2.0	35.0	go	non-target	V	71,Index Finger	89,Middle Finger	1000.0	1200.0	1750.0	1550.0	1.0	1200.0	1.0	n/a	go_stim
165929.61801200011	2236.3819880000001	n/a	1210	89	2750	2236.381988	stim	stop-signal	660	1861104	0.0-25.35-1.35	beast_fmri_test	162	1858857,/,1859537,/,1860217,/,1860897,/,1861577,/,1862257,/,1862938,/	t,t,t,t,t,t,t	<img class = center src='/static/experiments/beast_fmri_test/images/V.png'></img>	71,89	2750.0	test	<img class = center src='/static/experiments/beast_fmri_test/images/redV.png'></img>	go	1550.0	2.0	35.0	go	non-target	V	71,Index Finger	89,Middle Finger	1000.0	1200.0	1750.0	1550.0	1.0	1200.0	1.0	n/a	ITI
170921	500	n/a	-1	-1	500	0.0	fixation	poldrack-single-stim	661	1863859	0.0-25.36-0.36	beast_fmri_test	162	1863617,/	t	<div class = centerbox2><div class = fixation>+</div></div>	none	500.0	test	n/a	n/a	n/a	n/a	n/a	n/a	n/a	n/a	n/a	n/a	n/a	n/a	n/a	n/a	n/a	n/a	n/a	n/a	fixation
169272.23939700006	1000.0	n/a	1003	71	2750	1650.760603	stim	stop-signal	662	1866611	0.0-25.36-1.36	beast_fmri_test	162	1864297,/,1864977,/,1865657,/,1866337,/,1867017,/,1867697,/	t,t,t,t,t,t	<img class = center src='/static/experiments/beast_fmri_test/images/P.png'></img>	71,89	2750.0	test	<img class = center src='/static/experiments/beast_fmri_test/images/redP.png'></img>	stop	1750.0	2.0	36.0	stop	target	P	71,Index Finger	89,Middle Finger	1000.0	1200.0	1750.0	1550.0	0.0	1000.0	n/a	0.0	go_stim
171022.23939700006	1750.0	n/a	1003	71	2750	1650.760603	stim	stop-signal	662	1866611	0.0-25.36-1.36	beast_fmri_test	162	1864297,/,1864977,/,1865657,/,1866337,/,1867017,/,1867697,/	t,t,t,t,t,t	<img class = center src='/static/experiments/beast_fmri_test/images/P.png'></img>	71,89	2750.0	test	<img class = center src='/static/experiments/beast_fmri_test/images/redP.png'></img>	stop	1750.0	2.0	36.0	stop	target	P	71,Index Finger	89,Middle Finger	1000.0	1200.0	1750.0	1550.0	0.0	1000.0	n/a	0.0	stop_stim
172022.23939700006	1650.7606029999999	n/a	1003	71	2750	1650.760603	stim	stop-signal	662	1866611	0.0-25.36-1.36	beast_fmri_test	162	1864297,/,1864977,/,1865657,/,1866337,/,1867017,/,1867697,/	t,t,t,t,t,t	<img class = center src='/static/experiments/beast_fmri_test/images/P.png'></img>	71,89	2750.0	test	<img class = center src='/static/experiments/beast_fmri_test/images/redP.png'></img>	stop	1750.0	2.0	36.0	stop	target	P	71,Index Finger	89,Middle Finger	1000.0	1200.0	1750.0	1550.0	0.0	1000.0	n/a	0.0	ITI
175851	500	n/a	-1	-1	500	0.0	fixation	poldrack-single-stim	663	1868789	0.0-25.37-0.37	beast_fmri_test	162	1868377,/	t	<div class = centerbox2><div class = fixation>+</div></div>	none	500.0	test	n/a	n/a	n/a	n/a	n/a	n/a	n/a	n/a	n/a	n/a	n/a	n/a	n/a	n/a	n/a	n/a	n/a	n/a	fixation
174585.07269700011	2750	n/a	1374	89	2750	1267.927303	stim	stop-signal	664	1871541	0.0-25.37-1.37	beast_fmri_test	162	1869057,/,1869737,/,1870417,/,1871097,/,1871777,/,1872457,/	t,t,t,t,t,t	<img class = center src='/static/experiments/beast_fmri_test/images/T.png'></img>	71,89	2750.0	test	<img class = center src='/static/experiments/beast_fmri_test/images/redT.png'></img>	go	1550.0	2.0	37.0	go	non-target	T	71,Index Finger	89,Middle Finger	950.0	1200.0	1750.0	1550.0	1.0	1200.0	1.0	n/a	go_stim
177335.07269700011	1267.9273029999999	n/a	1374	89	2750	1267.927303	stim	stop-signal	664	1871541	0.0-25.37-1.37	beast_fmri_test	162	1869057,/,1869737,/,1870417,/,1871097,/,1871777,/,1872457,/	t,t,t,t,t,t	<img class = center src='/static/experiments/beast_fmri_test/images/T.png'></img>	71,89	2750.0	test	<img class = center src='/static/experiments/beast_fmri_test/images/redT.png'></img>	go	1550.0	2.0	37.0	go	non-target	T	71,Index Finger	89,Middle Finger	950.0	1200.0	1750.0	1550.0	1.0	1200.0	1.0	n/a	ITI
180391	500	n/a	-1	-1	500	0.0	fixation	poldrack-single-stim	665	1873329	0.0-25.38-0.38	beast_fmri_test	162	1873138,/	t	<div class = centerbox2><div class = fixation>+</div></div>	none	500.0	test	n/a	n/a	n/a	n/a	n/a	n/a	n/a	n/a	n/a	n/a	n/a	n/a	n/a	n/a	n/a	n/a	n/a	n/a	fixation
180279.36789330002	950.0	n/a	-1	-1	2750	113.6321067	stim	stop-signal	666	1876081	0.0-25.38-1.38	beast_fmri_test	162	1873817,/,1874497,/,1875177,/,1875857,/	t,t,t,t	<img class = center src='/static/experiments/beast_fmri_test/images/P.png'></img>	71,89	2750.0	test	<img class = center src='/static/experiments/beast_fmri_test/images/redP.png'></img>	stop	1800.0	2.0	38.0	stop	target	P	71,Index Finger	89,Middle Finger	950.0	1200.0	1800.0	1550.0	0.0	950.0	n/a	1.0	go_stim
182079.36789330002	1800.0	n/a	-1	-1	2750	113.6321067	stim	stop-signal	666	1876081	0.0-25.38-1.38	beast_fmri_test	162	1873817,/,1874497,/,1875177,/,1875857,/	t,t,t,t	<img class = center src='/static/experiments/beast_fmri_test/images/P.png'></img>	71,89	2750.0	test	<img class = center src='/static/experiments/beast_fmri_test/images/redP.png'></img>	stop	1800.0	2.0	38.0	stop	target	P	71,Index Finger	89,Middle Finger	950.0	1200.0	1800.0	1550.0	0.0	950.0	n/a	1.0	stop_stim
183029.36789330002	113.63210670000001	n/a	-1	-1	2750	113.6321067	stim	stop-signal	666	1876081	0.0-25.38-1.38	beast_fmri_test	162	1873817,/,1874497,/,1875177,/,1875857,/	t,t,t,t	<img class = center src='/static/experiments/beast_fmri_test/images/P.png'></img>	71,89	2750.0	test	<img class = center src='/static/experiments/beast_fmri_test/images/redP.png'></img>	stop	1800.0	2.0	38.0	stop	target	P	71,Index Finger	89,Middle Finger	950.0	1200.0	1800.0	1550.0	0.0	950.0	n/a	1.0	ITI
183776	500	n/a	-1	-1	500	0.0	fixation	poldrack-single-stim	667	1876714	0.0-25.39-0.39	beast_fmri_test	162	1876537,/	t	<div class = centerbox2><div class = fixation>+</div></div>	none	500.0	test	n/a	n/a	n/a	n/a	n/a	n/a	n/a	n/a	n/a	n/a	n/a	n/a	n/a	n/a	n/a	n/a	n/a	n/a	fixation
179173.20522699994	2750	n/a	1527	71	2750	4604.794773	stim	stop-signal	668	1879466	0.0-25.39-1.39	beast_fmri_test	162	1877217,/,1877897,/,1878577,/,1879257,/,1879936,/,1880616,/,1881297,/,1881977,/,1882656,/,1883337,/,1884016,/	t,t,t,t,t,t,t,t,t,t,t	<img class = center src='/static/experiments/beast_fmri_test/images/T.png'></img>	71,89	2750.0	test	<img class = center src='/static/experiments/beast_fmri_test/images/redT.png'></img>	go	1750.0	2.0	39.0	go	target	T	71,Index Finger	89,Middle Finger	1000.0	1200.0	1750.0	1550.0	1.0	1000.0	1.0	n/a	go_stim
181923.20522699994	4604.7947729999996	n/a	1527	71	2750	4604.794773	stim	stop-signal	668	1879466	0.0-25.39-1.39	beast_fmri_test	162	1877217,/,1877897,/,1878577,/,1879257,/,1879936,/,1880616,/,1881297,/,1881977,/,1882656,/,1883337,/,1884016,/	t,t,t,t,t,t,t,t,t,t,t	<img class = center src='/static/experiments/beast_fmri_test/images/T.png'></img>	71,89	2750.0	test	<img class = center src='/static/experiments/beast_fmri_test/images/redT.png'></img>	go	1750.0	2.0	39.0	go	target	T	71,Index Finger	89,Middle Finger	1000.0	1200.0	1750.0	1550.0	1.0	1000.0	1.0	n/a	ITI
191656	500	n/a	-1	-1	500	0.0	fixation	poldrack-single-stim	669	1884594	0.0-25.40-0.40	beast_fmri_test	162	n/a	n/a	<div class = centerbox2><div class = fixation>+</div></div>	none	500.0	test	n/a	n/a	n/a	n/a	n/a	n/a	n/a	n/a	n/a	n/a	n/a	n/a	n/a	n/a	n/a	n/a	n/a	n/a	fixation
188208.266604	2750	n/a	1624	89	2750	3449.733396	stim	stop-signal	670	1887346	0.0-25.40-1.40	beast_fmri_test	162	1884697,/,1885376,/,1886058,/,1886737,/,1887417,/,1888097,/,1888777,/,1889457,/,1890137,/	t,t,t,t,t,t,t,t,t	<img class = center src='/static/experiments/beast_fmri_test/images/D.png'></img>	71,89	2750.0	test	<img class = center src='/static/experiments/beast_fmri_test/images/redD.png'></img>	go	1550.0	2.0	40.0	go	non-target	D	71,Index Finger	89,Middle Finger	1000.0	1200.0	1750.0	1550.0	1.0	1200.0	1.0	n/a	go_stim
190958.266604	3449.7333960000001	n/a	1624	89	2750	3449.733396	stim	stop-signal	670	1887346	0.0-25.40-1.40	beast_fmri_test	162	1884697,/,1885376,/,1886058,/,1886737,/,1887417,/,1888097,/,1888777,/,1889457,/,1890137,/	t,t,t,t,t,t,t,t,t	<img class = center src='/static/experiments/beast_fmri_test/images/D.png'></img>	71,89	2750.0	test	<img class = center src='/static/experiments/beast_fmri_test/images/redD.png'></img>	go	1550.0	2.0	40.0	go	non-target	D	71,Index Finger	89,Middle Finger	1000.0	1200.0	1750.0	1550.0	1.0	1200.0	1.0	n/a	ITI
198381	500	n/a	-1	-1	500	0.0	fixation	poldrack-single-stim	671	1891319	0.0-25.41-0.41	beast_fmri_test	162	1890818,/	t	<div class = centerbox2><div class = fixation>+</div></div>	none	500.0	test	n/a	n/a	n/a	n/a	n/a	n/a	n/a	n/a	n/a	n/a	n/a	n/a	n/a	n/a	n/a	n/a	n/a	n/a	fixation
197528.67695169989	2750	n/a	1021	89	2750	854.3230483	stim	stop-signal	672	1894071	0.0-25.41-1.41	beast_fmri_test	162	1891497,/,1892177,/,1892858,/,1893538,/,1894217,/,1894897,/	t,t,t,t,t,t	<img class = center src='/static/experiments/beast_fmri_test/images/P.png'></img>	71,89	2750.0	test	<img class = center src='/static/experiments/beast_fmri_test/images/redP.png'></img>	go	1550.0	2.0	41.0	go	non-target	P	71,Index Finger	89,Middle Finger	1000.0	1200.0	1750.0	1550.0	1.0	1200.0	1.0	n/a	go_stim
200278.67695169989	854.32304829999987	n/a	1021	89	2750	854.3230483	stim	stop-signal	672	1894071	0.0-25.41-1.41	beast_fmri_test	162	1891497,/,1892177,/,1892858,/,1893538,/,1894217,/,1894897,/	t,t,t,t,t,t	<img class = center src='/static/experiments/beast_fmri_test/images/P.png'></img>	71,89	2750.0	test	<img class = center src='/static/experiments/beast_fmri_test/images/redP.png'></img>	go	1550.0	2.0	41.0	go	non-target	P	71,Index Finger	89,Middle Finger	1000.0	1200.0	1750.0	1550.0	1.0	1200.0	1.0	n/a	ITI
202507	500	n/a	-1	-1	500	0.0	fixation	poldrack-single-stim	673	1895445	0.0-25.42-0.42	beast_fmri_test	162	n/a	n/a	<div class = centerbox2><div class = fixation>+</div></div>	none	500.0	test	n/a	n/a	n/a	n/a	n/a	n/a	n/a	n/a	n/a	n/a	n/a	n/a	n/a	n/a	n/a	n/a	n/a	n/a	fixation
202452.70048298012	2750	n/a	1816	89	2750	56.29951702	stim	stop-signal	674	1898197	0.0-25.42-1.42	beast_fmri_test	162	1895577,/,1896258,/,1896937,/,1897617,/	t,t,t,t	<img class = center src='/static/experiments/beast_fmri_test/images/D.png'></img>	71,89	2750.0	test	<img class = center src='/static/experiments/beast_fmri_test/images/redD.png'></img>	go	1750.0	2.0	42.0	go	target	D	71,Index Finger	89,Middle Finger	1000.0	1200.0	1750.0	1550.0	0.0	1000.0	0.0	n/a	go_stim
205202.70048298012	56.299517020000003	n/a	1816	89	2750	56.29951702	stim	stop-signal	674	1898197	0.0-25.42-1.42	beast_fmri_test	162	1895577,/,1896258,/,1896937,/,1897617,/	t,t,t,t	<img class = center src='/static/experiments/beast_fmri_test/images/D.png'></img>	71,89	2750.0	test	<img class = center src='/static/experiments/beast_fmri_test/images/redD.png'></img>	go	1750.0	2.0	42.0	go	target	D	71,Index Finger	89,Middle Finger	1000.0	1200.0	1750.0	1550.0	0.0	1000.0	0.0	n/a	ITI
205835	500	n/a	-1	-1	500	0.0	fixation	poldrack-single-stim	675	1898773	0.0-25.43-0.43	beast_fmri_test	162	1898297,/	t	<div class = centerbox2><div class = fixation>+</div></div>	none	500.0	test	n/a	n/a	n/a	n/a	n/a	n/a	n/a	n/a	n/a	n/a	n/a	n/a	n/a	n/a	n/a	n/a	n/a	n/a	fixation
205062.02109659999	2750	n/a	2257	71	2750	774.9789034	stim	stop-signal	676	1901525	0.0-25.43-1.43	beast_fmri_test	162	1898977,/,1899657,/,1900337,/,1901017,/,1901697,/	t,t,t,t,t	<img class = center src='/static/experiments/beast_fmri_test/images/P.png'></img>	71,89	2750.0	test	<img class = center src='/static/experiments/beast_fmri_test/images/redP.png'></img>	go	1750.0	2.0	43.0	go	target	P	71,Index Finger	89,Middle Finger	1000.0	1200.0	1750.0	1550.0	1.0	1000.0	1.0	n/a	go_stim
207812.02109659999	774.97890340000004	n/a	2257	71	2750	774.9789034	stim	stop-signal	676	1901525	0.0-25.43-1.43	beast_fmri_test	162	1898977,/,1899657,/,1900337,/,1901017,/,1901697,/	t,t,t,t,t	<img class = center src='/static/experiments/beast_fmri_test/images/P.png'></img>	71,89	2750.0	test	<img class = center src='/static/experiments/beast_fmri_test/images/redP.png'></img>	go	1750.0	2.0	43.0	go	target	P	71,Index Finger	89,Middle Finger	1000.0	1200.0	1750.0	1550.0	1.0	1000.0	1.0	n/a	ITI
209884	500	n/a	-1	-1	500	0.0	fixation	poldrack-single-stim	677	1902822	0.0-25.44-0.44	beast_fmri_test	162	1902377,/	t	<div class = centerbox2><div class = fixation>+</div></div>	none	500.0	test	n/a	n/a	n/a	n/a	n/a	n/a	n/a	n/a	n/a	n/a	n/a	n/a	n/a	n/a	n/a	n/a	n/a	n/a	fixation
206416.95889899996	2750	n/a	1370	89	2750	3469.041101	stim	stop-signal	678	1905574	0.0-25.44-1.44	beast_fmri_test	162	1903057,/,1903737,/,1904417,/,1905097,/,1905777,/,1906456,/,1907137,/,1907816,/,1908496,/	t,t,t,t,t,t,t,t,t	<img class = center src='/static/experiments/beast_fmri_test/images/V.png'></img>	71,89	2750.0	test	<img class = center src='/static/experiments/beast_fmri_test/images/redV.png'></img>	go	1550.0	2.0	44.0	go	non-target	V	71,Index Finger	89,Middle Finger	1000.0	1200.0	1750.0	1550.0	1.0	1200.0	1.0	n/a	go_stim
209166.95889899996	3469.0411009999998	n/a	1370	89	2750	3469.041101	stim	stop-signal	678	1905574	0.0-25.44-1.44	beast_fmri_test	162	1903057,/,1903737,/,1904417,/,1905097,/,1905777,/,1906456,/,1907137,/,1907816,/,1908496,/	t,t,t,t,t,t,t,t,t	<img class = center src='/static/experiments/beast_fmri_test/images/V.png'></img>	71,89	2750.0	test	<img class = center src='/static/experiments/beast_fmri_test/images/redV.png'></img>	go	1550.0	2.0	44.0	go	non-target	V	71,Index Finger	89,Middle Finger	1000.0	1200.0	1750.0	1550.0	1.0	1200.0	1.0	n/a	ITI
216629	500	n/a	-1	-1	500	0.0	fixation	poldrack-single-stim	679	1909567	0.0-25.45-0.45	beast_fmri_test	162	1909179,/	t	<div class = centerbox2><div class = fixation>+</div></div>	none	500.0	test	n/a	n/a	n/a	n/a	n/a	n/a	n/a	n/a	n/a	n/a	n/a	n/a	n/a	n/a	n/a	n/a	n/a	n/a	fixation
215327.31718000001	1000.0	n/a	1012	71	2750	1303.68282	stim	stop-signal	680	1912319	0.0-25.45-1.45	beast_fmri_test	162	1909857,/,1910536,/,1911217,/,1911896,/,1912577,/,1913256,/	t,t,t,t,t,t	<img class = center src='/static/experiments/beast_fmri_test/images/P.png'></img>	71,89	2750.0	test	<img class = center src='/static/experiments/beast_fmri_test/images/redP.png'></img>	stop	1750.0	2.0	45.0	stop	target	P	71,Index Finger	89,Middle Finger	1000.0	1200.0	1750.0	1550.0	0.0	1000.0	n/a	0.0	go_stim
217077.31718000001	1750.0	n/a	1012	71	2750	1303.68282	stim	stop-signal	680	1912319	0.0-25.45-1.45	beast_fmri_test	162	1909857,/,1910536,/,1911217,/,1911896,/,1912577,/,1913256,/	t,t,t,t,t,t	<img class = center src='/static/experiments/beast_fmri_test/images/P.png'></img>	71,89	2750.0	test	<img class = center src='/static/experiments/beast_fmri_test/images/redP.png'></img>	stop	1750.0	2.0	45.0	stop	target	P	71,Index Finger	89,Middle Finger	1000.0	1200.0	1750.0	1550.0	0.0	1000.0	n/a	0.0	stop_stim
218077.31718000001	1303.68282	n/a	1012	71	2750	1303.68282	stim	stop-signal	680	1912319	0.0-25.45-1.45	beast_fmri_test	162	1909857,/,1910536,/,1911217,/,1911896,/,1912577,/,1913256,/	t,t,t,t,t,t	<img class = center src='/static/experiments/beast_fmri_test/images/P.png'></img>	71,89	2750.0	test	<img class = center src='/static/experiments/beast_fmri_test/images/redP.png'></img>	stop	1750.0	2.0	45.0	stop	target	P	71,Index Finger	89,Middle Finger	1000.0	1200.0	1750.0	1550.0	0.0	1000.0	n/a	0.0	ITI
221203	500	n/a	-1	-1	500	0.0	fixation	poldrack-single-stim	681	1914141	0.0-25.46-0.46	beast_fmri_test	162	1913937,/	t	<div class = centerbox2><div class = fixation>+</div></div>	none	500.0	test	n/a	n/a	n/a	n/a	n/a	n/a	n/a	n/a	n/a	n/a	n/a	n/a	n/a	n/a	n/a	n/a	n/a	n/a	fixation
219851.02671799995	2750	n/a	907	89	2750	1353.973282	stim	stop-signal	682	1916893	0.0-25.46-1.46	beast_fmri_test	162	1914616,/,1915297,/,1915976,/,1916657,/,1917336,/,1918018,/	t,t,t,t,t,t	<img class = center src='/static/experiments/beast_fmri_test/images/T.png'></img>	71,89	2750.0	test	<img class = center src='/static/experiments/beast_fmri_test/images/redT.png'></img>	go	1550.0	2.0	46.0	go	non-target	T	71,Index Finger	89,Middle Finger	950.0	1200.0	1750.0	1550.0	1.0	1200.0	1.0	n/a	go_stim
222601.02671799995	1353.9732819999999	n/a	907	89	2750	1353.973282	stim	stop-signal	682	1916893	0.0-25.46-1.46	beast_fmri_test	162	1914616,/,1915297,/,1915976,/,1916657,/,1917336,/,1918018,/	t,t,t,t,t,t	<img class = center src='/static/experiments/beast_fmri_test/images/T.png'></img>	71,89	2750.0	test	<img class = center src='/static/experiments/beast_fmri_test/images/redT.png'></img>	go	1550.0	2.0	46.0	go	non-target	T	71,Index Finger	89,Middle Finger	950.0	1200.0	1750.0	1550.0	1.0	1200.0	1.0	n/a	ITI
240332	15000	n/a	-1	-1	15000	0.0	practice-no-stop-feedback	poldrack-single-stim	683	1933270	0.0-26.0	beast_fmri_test	162	1918697,/,1919378,/,1920058,/,1920738,/,1921417,/,1922097,/,1922778,/,1923457,/,1924138,/,1924818,/,1925497,/,1926177,/,1926857,/,1927537,/,1928218,/,1928897,/,1929577,/,1930257,/,1930937,/,1931617,/,1932297,/,1932977,/	t,t,t,t,t,t,t,t,t,t,t,t,t,t,t,t,t,t,t,t,t,t	"<div class = ""centerbox2_2""><p class = ""block-text2"">Your delay is 3 trials.</p><p class = block-text2>Please wait for the scanner to start the block</p></div>"	77	15000.0	n/a	n/a	n/a	n/a	n/a	n/a	n/a	n/a	n/a	n/a	n/a	n/a	n/a	n/a	n/a	n/a	n/a	n/a	n/a	practice-no-stop-feedback
240834	500	n/a	-1	-1	500	0.0	fixation	poldrack-single-stim	684	1933772	0.0-27.0-0.0	beast_fmri_test	162	1933657,/	t	<div class = centerbox2><div class = fixation>+</div></div>	none	500.0	test	n/a	n/a	n/a	n/a	n/a	n/a	n/a	n/a	n/a	n/a	n/a	n/a	n/a	n/a	n/a	n/a	n/a	n/a	fixation
240073.07753530005	2750	n/a	900	89	2750	762.9224647	stim	stop-signal	685	1936524	0.0-27.0-1.0	beast_fmri_test	162	1934338,/,1935017,/,1935697,/,1936377,/,1937057,/	t,t,t,t,t	<img class = center src='/static/experiments/beast_fmri_test/images/T.png'></img>	71,89	2750.0	test	<img class = center src='/static/experiments/beast_fmri_test/images/redT.png'></img>	go	-1.0	3.0	0.0	go	temp-non-target	T	71,Index Finger	89,Middle Finger	950.0	1200.0	1750.0	1550.0	0.0	n/a	n/a	n/a	go_stim
242823.07753530005	762.92246470000009	n/a	900	89	2750	762.9224647	stim	stop-signal	685	1936524	0.0-27.0-1.0	beast_fmri_test	162	1934338,/,1935017,/,1935697,/,1936377,/,1937057,/	t,t,t,t,t	<img class = center src='/static/experiments/beast_fmri_test/images/T.png'></img>	71,89	2750.0	test	<img class = center src='/static/experiments/beast_fmri_test/images/redT.png'></img>	go	-1.0	3.0	0.0	go	temp-non-target	T	71,Index Finger	89,Middle Finger	950.0	1200.0	1750.0	1550.0	0.0	n/a	n/a	n/a	ITI
244866	500	n/a	-1	-1	500	0.0	fixation	poldrack-single-stim	686	1937804	0.0-27.1-0.1	beast_fmri_test	162	1937737,/	t	<div class = centerbox2><div class = fixation>+</div></div>	none	500.0	test	n/a	n/a	n/a	n/a	n/a	n/a	n/a	n/a	n/a	n/a	n/a	n/a	n/a	n/a	n/a	n/a	n/a	n/a	fixation
244067.55408670008	temp_go_duration	n/a	593	89	2750	800.4459133	stim	stop-signal	687	1940556	0.0-27.1-1.1	beast_fmri_test	162	1938417,/,1939097,/,1939777,/,1940457,/,1941137,/	t,t,t,t,t	<img class = center src='/static/experiments/beast_fmri_test/images/T.png'></img>	71,89	2750.0	test	<img class = center src='/static/experiments/beast_fmri_test/images/redT.png'></img>	stop	-1.0	3.0	1.0	stop	temp-non-target	T	71,Index Finger	89,Middle Finger	950.0	1200.0	1750.0	1550.0	0.0	n/a	n/a	0.0	go_stim
temp-non-target	temp_stop_duration	n/a	593	89	2750	800.4459133	stim	stop-signal	687	1940556	0.0-27.1-1.1	beast_fmri_test	162	1938417,/,1939097,/,1939777,/,1940457,/,1941137,/	t,t,t,t,t	<img class = center src='/static/experiments/beast_fmri_test/images/T.png'></img>	71,89	2750.0	test	<img class = center src='/static/experiments/beast_fmri_test/images/redT.png'></img>	stop	-1.0	3.0	1.0	stop	temp-non-target	T	71,Index Finger	89,Middle Finger	950.0	1200.0	1750.0	1550.0	0.0	n/a	n/a	0.0	stop_stim
246817.55408670008	800.44591329999992	n/a	593	89	2750	800.4459133	stim	stop-signal	687	1940556	0.0-27.1-1.1	beast_fmri_test	162	1938417,/,1939097,/,1939777,/,1940457,/,1941137,/	t,t,t,t,t	<img class = center src='/static/experiments/beast_fmri_test/images/T.png'></img>	71,89	2750.0	test	<img class = center src='/static/experiments/beast_fmri_test/images/redT.png'></img>	stop	-1.0	3.0	1.0	stop	temp-non-target	T	71,Index Finger	89,Middle Finger	950.0	1200.0	1750.0	1550.0	0.0	n/a	n/a	0.0	ITI
248941	500	n/a	-1	-1	500	0.0	fixation	poldrack-single-stim	688	1941879	0.0-27.2-0.2	beast_fmri_test	162	1941817,/	t	<div class = centerbox2><div class = fixation>+</div></div>	none	500.0	test	n/a	n/a	n/a	n/a	n/a	n/a	n/a	n/a	n/a	n/a	n/a	n/a	n/a	n/a	n/a	n/a	n/a	n/a	fixation
247949.54433780001	2750	n/a	1084	89	2750	993.4556622	stim	stop-signal	689	1944631	0.0-27.2-1.2	beast_fmri_test	162	1942497,/,1943176,/,1943857,/,1944537,/,1945217,/	t,t,t,t,t	<img class = center src='/static/experiments/beast_fmri_test/images/D.png'></img>	71,89	2750.0	test	<img class = center src='/static/experiments/beast_fmri_test/images/redD.png'></img>	go	-1.0	3.0	2.0	go	temp-non-target	D	71,Index Finger	89,Middle Finger	950.0	1200.0	1750.0	1550.0	0.0	n/a	n/a	n/a	go_stim
250699.54433780001	993.45566220000012	n/a	1084	89	2750	993.4556622	stim	stop-signal	689	1944631	0.0-27.2-1.2	beast_fmri_test	162	1942497,/,1943176,/,1943857,/,1944537,/,1945217,/	t,t,t,t,t	<img class = center src='/static/experiments/beast_fmri_test/images/D.png'></img>	71,89	2750.0	test	<img class = center src='/static/experiments/beast_fmri_test/images/redD.png'></img>	go	-1.0	3.0	2.0	go	temp-non-target	D	71,Index Finger	89,Middle Finger	950.0	1200.0	1750.0	1550.0	0.0	n/a	n/a	n/a	ITI
253207	500	n/a	-1	-1	500	0.0	fixation	poldrack-single-stim	690	1946145	0.0-27.3-0.3	beast_fmri_test	162	1945897,/	t	<div class = centerbox2><div class = fixation>+</div></div>	none	500.0	test	n/a	n/a	n/a	n/a	n/a	n/a	n/a	n/a	n/a	n/a	n/a	n/a	n/a	n/a	n/a	n/a	n/a	n/a	fixation
252829.75190469995	2750	n/a	1254	71	2750	379.2480953	stim	stop-signal	691	1948897	0.0-27.3-1.3	beast_fmri_test	162	1946577,/,1947256,/,1947937,/,1948616,/	t,t,t,t	<img class = center src='/static/experiments/beast_fmri_test/images/T.png'></img>	71,89	2750.0	test	<img class = center src='/static/experiments/beast_fmri_test/images/redT.png'></img>	go	1800.0	3.0	3.0	go	target	T	71,Index Finger	89,Middle Finger	950.0	1200.0	1800.0	1550.0	1.0	950.0	1.0	n/a	go_stim
255579.75190469995	379.24809530000005	n/a	1254	71	2750	379.2480953	stim	stop-signal	691	1948897	0.0-27.3-1.3	beast_fmri_test	162	1946577,/,1947256,/,1947937,/,1948616,/	t,t,t,t	<img class = center src='/static/experiments/beast_fmri_test/images/T.png'></img>	71,89	2750.0	test	<img class = center src='/static/experiments/beast_fmri_test/images/redT.png'></img>	go	1800.0	3.0	3.0	go	target	T	71,Index Finger	89,Middle Finger	950.0	1200.0	1800.0	1550.0	1.0	950.0	1.0	n/a	ITI
256858	500	n/a	-1	-1	500	0.0	fixation	poldrack-single-stim	692	1949796	0.0-27.4-0.4	beast_fmri_test	162	1949296,/	t	<div class = centerbox2><div class = fixation>+</div></div>	none	500.0	test	n/a	n/a	n/a	n/a	n/a	n/a	n/a	n/a	n/a	n/a	n/a	n/a	n/a	n/a	n/a	n/a	n/a	n/a	fixation
256300.25975350011	2750	n/a	1182	71	2750	559.7402465	stim	stop-signal	693	1952548	0.0-27.4-1.4	beast_fmri_test	162	1949976,/,1950658,/,1951337,/,1952017,/,1952697,/	t,t,t,t,t	<img class = center src='/static/experiments/beast_fmri_test/images/T.png'></img>	71,89	2750.0	test	<img class = center src='/static/experiments/beast_fmri_test/images/redT.png'></img>	go	1800.0	3.0	4.0	go	target	T	71,Index Finger	89,Middle Finger	950.0	1200.0	1800.0	1550.0	1.0	950.0	1.0	n/a	go_stim
259050.25975350011	559.74024650000001	n/a	1182	71	2750	559.7402465	stim	stop-signal	693	1952548	0.0-27.4-1.4	beast_fmri_test	162	1949976,/,1950658,/,1951337,/,1952017,/,1952697,/	t,t,t,t,t	<img class = center src='/static/experiments/beast_fmri_test/images/T.png'></img>	71,89	2750.0	test	<img class = center src='/static/experiments/beast_fmri_test/images/redT.png'></img>	go	1800.0	3.0	4.0	go	target	T	71,Index Finger	89,Middle Finger	950.0	1200.0	1800.0	1550.0	1.0	950.0	1.0	n/a	ITI
260689	500	n/a	-1	-1	500	0.0	fixation	poldrack-single-stim	694	1953627	0.0-27.5-0.5	beast_fmri_test	162	1953377,/	t	<div class = centerbox2><div class = fixation>+</div></div>	none	500.0	test	n/a	n/a	n/a	n/a	n/a	n/a	n/a	n/a	n/a	n/a	n/a	n/a	n/a	n/a	n/a	n/a	n/a	n/a	fixation
258632.10207000002	2750	n/a	1372	89	2750	2059.89793	stim	stop-signal	695	1956380	0.0-27.5-1.5	beast_fmri_test	162	1954057,/,1954738,/,1955417,/,1956097,/,1956777,/,1957457,/,1958137,/	t,t,t,t,t,t,t	<img class = center src='/static/experiments/beast_fmri_test/images/T.png'></img>	71,89	2750.0	test	<img class = center src='/static/experiments/beast_fmri_test/images/redT.png'></img>	go	1550.0	3.0	5.0	go	non-target	T	71,Index Finger	89,Middle Finger	950.0	1200.0	1800.0	1550.0	1.0	1200.0	1.0	n/a	go_stim
261382.10207000002	2059.8979300000001	n/a	1372	89	2750	2059.89793	stim	stop-signal	695	1956380	0.0-27.5-1.5	beast_fmri_test	162	1954057,/,1954738,/,1955417,/,1956097,/,1956777,/,1957457,/,1958137,/	t,t,t,t,t,t,t	<img class = center src='/static/experiments/beast_fmri_test/images/T.png'></img>	71,89	2750.0	test	<img class = center src='/static/experiments/beast_fmri_test/images/redT.png'></img>	go	1550.0	3.0	5.0	go	non-target	T	71,Index Finger	89,Middle Finger	950.0	1200.0	1800.0	1550.0	1.0	1200.0	1.0	n/a	ITI
266019	500	n/a	-1	-1	500	0.0	fixation	poldrack-single-stim	696	1958957	0.0-27.6-0.6	beast_fmri_test	162	1958817,/	t	<div class = centerbox2><div class = fixation>+</div></div>	none	500.0	test	n/a	n/a	n/a	n/a	n/a	n/a	n/a	n/a	n/a	n/a	n/a	n/a	n/a	n/a	n/a	n/a	n/a	n/a	fixation
265215.68348770007	2750	n/a	760	89	2750	805.3165123	stim	stop-signal	697	1961709	0.0-27.6-1.6	beast_fmri_test	162	1959497,/,1960177,/,1960857,/,1961537,/,1962217,/	t,t,t,t,t	<img class = center src='/static/experiments/beast_fmri_test/images/D.png'></img>	71,89	2750.0	test	<img class = center src='/static/experiments/beast_fmri_test/images/redD.png'></img>	go	1550.0	3.0	6.0	go	non-target	D	71,Index Finger	89,Middle Finger	950.0	1200.0	1800.0	1550.0	1.0	1200.0	1.0	n/a	go_stim
267965.68348770007	805.3165123	n/a	760	89	2750	805.3165123	stim	stop-signal	697	1961709	0.0-27.6-1.6	beast_fmri_test	162	1959497,/,1960177,/,1960857,/,1961537,/,1962217,/	t,t,t,t,t	<img class = center src='/static/experiments/beast_fmri_test/images/D.png'></img>	71,89	2750.0	test	<img class = center src='/static/experiments/beast_fmri_test/images/redD.png'></img>	go	1550.0	3.0	6.0	go	non-target	D	71,Index Finger	89,Middle Finger	950.0	1200.0	1800.0	1550.0	1.0	1200.0	1.0	n/a	ITI
270100	500	n/a	-1	-1	500	0.0	fixation	poldrack-single-stim	698	1963038	0.0-27.7-0.7	beast_fmri_test	162	1962897,/	t	<div class = centerbox2><div class = fixation>+</div></div>	none	500.0	test	n/a	n/a	n/a	n/a	n/a	n/a	n/a	n/a	n/a	n/a	n/a	n/a	n/a	n/a	n/a	n/a	n/a	n/a	fixation
269972.09748500003	2750	n/a	1524	71	2750	129.902515	stim	stop-signal	699	1965790	0.0-27.7-1.7	beast_fmri_test	162	1963577,/,1964257,/,1964937,/,1965617,/	t,t,t,t	<img class = center src='/static/experiments/beast_fmri_test/images/T.png'></img>	71,89	2750.0	test	<img class = center src='/static/experiments/beast_fmri_test/images/redT.png'></img>	go	1800.0	3.0	7.0	go	target	T	71,Index Finger	89,Middle Finger	950.0	1200.0	1800.0	1550.0	1.0	950.0	1.0	n/a	go_stim
272722.09748500003	129.90251499999999	n/a	1524	71	2750	129.902515	stim	stop-signal	699	1965790	0.0-27.7-1.7	beast_fmri_test	162	1963577,/,1964257,/,1964937,/,1965617,/	t,t,t,t	<img class = center src='/static/experiments/beast_fmri_test/images/T.png'></img>	71,89	2750.0	test	<img class = center src='/static/experiments/beast_fmri_test/images/redT.png'></img>	go	1800.0	3.0	7.0	go	target	T	71,Index Finger	89,Middle Finger	950.0	1200.0	1800.0	1550.0	1.0	950.0	1.0	n/a	ITI
273507	500	n/a	-1	-1	500	0.0	fixation	poldrack-single-stim	700	1966445	0.0-27.8-0.8	beast_fmri_test	162	1966297,/	t	<div class = centerbox2><div class = fixation>+</div></div>	none	500.0	test	n/a	n/a	n/a	n/a	n/a	n/a	n/a	n/a	n/a	n/a	n/a	n/a	n/a	n/a	n/a	n/a	n/a	n/a	fixation
272563.89033579989	2750	n/a	2180	71	2750	945.1096642	stim	stop-signal	701	1969197	0.0-27.8-1.8	beast_fmri_test	162	1966977,/,1967657,/,1968337,/,1969017,/,1969697,/	t,t,t,t,t	<img class = center src='/static/experiments/beast_fmri_test/images/T.png'></img>	71,89	2750.0	test	<img class = center src='/static/experiments/beast_fmri_test/images/redT.png'></img>	go	1800.0	3.0	8.0	go	target	T	71,Index Finger	89,Middle Finger	950.0	1200.0	1800.0	1550.0	1.0	950.0	1.0	n/a	go_stim
275313.89033579989	945.10966420000011	n/a	2180	71	2750	945.1096642	stim	stop-signal	701	1969197	0.0-27.8-1.8	beast_fmri_test	162	1966977,/,1967657,/,1968337,/,1969017,/,1969697,/	t,t,t,t,t	<img class = center src='/static/experiments/beast_fmri_test/images/T.png'></img>	71,89	2750.0	test	<img class = center src='/static/experiments/beast_fmri_test/images/redT.png'></img>	go	1800.0	3.0	8.0	go	target	T	71,Index Finger	89,Middle Finger	950.0	1200.0	1800.0	1550.0	1.0	950.0	1.0	n/a	ITI
277729	500	n/a	-1	-1	500	0.0	fixation	poldrack-single-stim	702	1970667	0.0-27.9-0.9	beast_fmri_test	162	1970377,/	t	<div class = centerbox2><div class = fixation>+</div></div>	none	500.0	test	n/a	n/a	n/a	n/a	n/a	n/a	n/a	n/a	n/a	n/a	n/a	n/a	n/a	n/a	n/a	n/a	n/a	n/a	fixation
274898.16819000011	1200.0	n/a	737	89	2750	2832.83181	stim	stop-signal	703	1973419	0.0-27.9-1.9	beast_fmri_test	162	1971057,/,1971736,/,1972417,/,1973097,/,1973777,/,1974456,/,1975137,/,1975816,/	t,t,t,t,t,t,t,t	<img class = center src='/static/experiments/beast_fmri_test/images/T.png'></img>	71,89	2750.0	test	<img class = center src='/static/experiments/beast_fmri_test/images/redT.png'></img>	stop	1550.0	3.0	9.0	stop	non-target	T	71,Index Finger	89,Middle Finger	950.0	1200.0	1800.0	1550.0	0.0	1200.0	n/a	0.0	go_stim
276448.16819000011	1550.0	n/a	737	89	2750	2832.83181	stim	stop-signal	703	1973419	0.0-27.9-1.9	beast_fmri_test	162	1971057,/,1971736,/,1972417,/,1973097,/,1973777,/,1974456,/,1975137,/,1975816,/	t,t,t,t,t,t,t,t	<img class = center src='/static/experiments/beast_fmri_test/images/T.png'></img>	71,89	2750.0	test	<img class = center src='/static/experiments/beast_fmri_test/images/redT.png'></img>	stop	1550.0	3.0	9.0	stop	non-target	T	71,Index Finger	89,Middle Finger	950.0	1200.0	1800.0	1550.0	0.0	1200.0	n/a	0.0	stop_stim
277648.16819000011	2832.8318100000001	n/a	737	89	2750	2832.83181	stim	stop-signal	703	1973419	0.0-27.9-1.9	beast_fmri_test	162	1971057,/,1971736,/,1972417,/,1973097,/,1973777,/,1974456,/,1975137,/,1975816,/	t,t,t,t,t,t,t,t	<img class = center src='/static/experiments/beast_fmri_test/images/T.png'></img>	71,89	2750.0	test	<img class = center src='/static/experiments/beast_fmri_test/images/redT.png'></img>	stop	1550.0	3.0	9.0	stop	non-target	T	71,Index Finger	89,Middle Finger	950.0	1200.0	1800.0	1550.0	0.0	1200.0	n/a	0.0	ITI
283836	500	n/a	-1	-1	500	0.0	fixation	poldrack-single-stim	704	1976774	0.0-27.10-0.10	beast_fmri_test	162	1976497,/	t	<div class = centerbox2><div class = fixation>+</div></div>	none	500.0	test	n/a	n/a	n/a	n/a	n/a	n/a	n/a	n/a	n/a	n/a	n/a	n/a	n/a	n/a	n/a	n/a	n/a	n/a	fixation
282291.22812299989	2750	n/a	1110	89	2750	1546.771877	stim	stop-signal	705	1979526	0.0-27.10-1.10	beast_fmri_test	162	1977176,/,1977857,/,1978536,/,1979217,/,1979896,/,1980576,/	t,t,t,t,t,t	<img class = center src='/static/experiments/beast_fmri_test/images/V.png'></img>	71,89	2750.0	test	<img class = center src='/static/experiments/beast_fmri_test/images/redV.png'></img>	go	1600.0	3.0	10.0	go	non-target	V	71,Index Finger	89,Middle Finger	950.0	1150.0	1800.0	1600.0	1.0	1150.0	1.0	n/a	go_stim
285041.22812299989	1546.7718769999999	n/a	1110	89	2750	1546.771877	stim	stop-signal	705	1979526	0.0-27.10-1.10	beast_fmri_test	162	1977176,/,1977857,/,1978536,/,1979217,/,1979896,/,1980576,/	t,t,t,t,t,t	<img class = center src='/static/experiments/beast_fmri_test/images/V.png'></img>	71,89	2750.0	test	<img class = center src='/static/experiments/beast_fmri_test/images/redV.png'></img>	go	1600.0	3.0	10.0	go	non-target	V	71,Index Finger	89,Middle Finger	950.0	1150.0	1800.0	1600.0	1.0	1150.0	1.0	n/a	ITI
288656	500	n/a	-1	-1	500	0.0	fixation	poldrack-single-stim	706	1981594	0.0-27.11-0.11	beast_fmri_test	162	1981257,/	t	<div class = centerbox2><div class = fixation>+</div></div>	none	500.0	test	n/a	n/a	n/a	n/a	n/a	n/a	n/a	n/a	n/a	n/a	n/a	n/a	n/a	n/a	n/a	n/a	n/a	n/a	fixation
286208.01287800004	2750	n/a	1587	89	2750	2448.987122	stim	stop-signal	707	1984345	0.0-27.11-1.11	beast_fmri_test	162	1981937,/,1982616,/,1983297,/,1983977,/,1984657,/,1985338,/,1986017,/,1986697,/	t,t,t,t,t,t,t,t	<img class = center src='/static/experiments/beast_fmri_test/images/B.png'></img>	71,89	2750.0	test	<img class = center src='/static/experiments/beast_fmri_test/images/redB.png'></img>	go	1600.0	3.0	11.0	go	non-target	B	71,Index Finger	89,Middle Finger	950.0	1150.0	1800.0	1600.0	1.0	1150.0	1.0	n/a	go_stim
288958.01287800004	2448.987122	n/a	1587	89	2750	2448.987122	stim	stop-signal	707	1984345	0.0-27.11-1.11	beast_fmri_test	162	1981937,/,1982616,/,1983297,/,1983977,/,1984657,/,1985338,/,1986017,/,1986697,/	t,t,t,t,t,t,t,t	<img class = center src='/static/experiments/beast_fmri_test/images/B.png'></img>	71,89	2750.0	test	<img class = center src='/static/experiments/beast_fmri_test/images/redB.png'></img>	go	1600.0	3.0	11.0	go	non-target	B	71,Index Finger	89,Middle Finger	950.0	1150.0	1800.0	1600.0	1.0	1150.0	1.0	n/a	ITI
294375	500	n/a	-1	-1	500	0.0	fixation	poldrack-single-stim	708	1987313	0.0-27.12-0.12	beast_fmri_test	162	n/a	n/a	<div class = centerbox2><div class = fixation>+</div></div>	none	500.0	test	n/a	n/a	n/a	n/a	n/a	n/a	n/a	n/a	n/a	n/a	n/a	n/a	n/a	n/a	n/a	n/a	n/a	n/a	fixation
293460.6892405001	2750	n/a	1439	89	2750	915.3107595	stim	stop-signal	709	1990064	0.0-27.12-1.12	beast_fmri_test	162	1987377,/,1988057,/,1988737,/,1989417,/,1990097,/,1990777,/	t,t,t,t,t,t	<img class = center src='/static/experiments/beast_fmri_test/images/P.png'></img>	71,89	2750.0	test	<img class = center src='/static/experiments/beast_fmri_test/images/redP.png'></img>	go	1600.0	3.0	12.0	go	non-target	P	71,Index Finger	89,Middle Finger	950.0	1150.0	1800.0	1600.0	1.0	1150.0	1.0	n/a	go_stim
296210.6892405001	915.31075950000002	n/a	1439	89	2750	915.3107595	stim	stop-signal	709	1990064	0.0-27.12-1.12	beast_fmri_test	162	1987377,/,1988057,/,1988737,/,1989417,/,1990097,/,1990777,/	t,t,t,t,t,t	<img class = center src='/static/experiments/beast_fmri_test/images/P.png'></img>	71,89	2750.0	test	<img class = center src='/static/experiments/beast_fmri_test/images/redP.png'></img>	go	1600.0	3.0	12.0	go	non-target	P	71,Index Finger	89,Middle Finger	950.0	1150.0	1800.0	1600.0	1.0	1150.0	1.0	n/a	ITI
298564	500	n/a	-1	-1	500	0.0	fixation	poldrack-single-stim	710	1991502	0.0-27.13-0.13	beast_fmri_test	162	1991457,/	t	<div class = centerbox2><div class = fixation>+</div></div>	none	500.0	test	n/a	n/a	n/a	n/a	n/a	n/a	n/a	n/a	n/a	n/a	n/a	n/a	n/a	n/a	n/a	n/a	n/a	n/a	fixation
298019.66729409993	2750	n/a	1088	89	2750	547.3327059	stim	stop-signal	711	1994255	0.0-27.13-1.13	beast_fmri_test	162	1992137,/,1992817,/,1993497,/,1994177,/	t,t,t,t	<img class = center src='/static/experiments/beast_fmri_test/images/D.png'></img>	71,89	2750.0	test	<img class = center src='/static/experiments/beast_fmri_test/images/redD.png'></img>	go	1600.0	3.0	13.0	go	non-target	D	71,Index Finger	89,Middle Finger	950.0	1150.0	1800.0	1600.0	1.0	1150.0	1.0	n/a	go_stim
300769.66729409993	547.33270589999995	n/a	1088	89	2750	547.3327059	stim	stop-signal	711	1994255	0.0-27.13-1.13	beast_fmri_test	162	1992137,/,1992817,/,1993497,/,1994177,/	t,t,t,t	<img class = center src='/static/experiments/beast_fmri_test/images/D.png'></img>	71,89	2750.0	test	<img class = center src='/static/experiments/beast_fmri_test/images/redD.png'></img>	go	1600.0	3.0	13.0	go	non-target	D	71,Index Finger	89,Middle Finger	950.0	1150.0	1800.0	1600.0	1.0	1150.0	1.0	n/a	ITI
302385	500	n/a	-1	-1	500	0.0	fixation	poldrack-single-stim	712	1995323	0.0-27.14-0.14	beast_fmri_test	162	1994857,/	t	<div class = centerbox2><div class = fixation>+</div></div>	none	500.0	test	n/a	n/a	n/a	n/a	n/a	n/a	n/a	n/a	n/a	n/a	n/a	n/a	n/a	n/a	n/a	n/a	n/a	n/a	fixation
302324.93643439002	2750	n/a	1421	89	2750	61.06356561	stim	stop-signal	713	1998074	0.0-27.14-1.14	beast_fmri_test	162	1995538,/,1996217,/,1996897,/,1997577,/	t,t,t,t	<img class = center src='/static/experiments/beast_fmri_test/images/D.png'></img>	71,89	2750.0	test	<img class = center src='/static/experiments/beast_fmri_test/images/redD.png'></img>	go	1600.0	3.0	14.0	go	non-target	D	71,Index Finger	89,Middle Finger	950.0	1150.0	1800.0	1600.0	1.0	1150.0	1.0	n/a	go_stim
305074.93643439002	61.063565609999998	n/a	1421	89	2750	61.06356561	stim	stop-signal	713	1998074	0.0-27.14-1.14	beast_fmri_test	162	1995538,/,1996217,/,1996897,/,1997577,/	t,t,t,t	<img class = center src='/static/experiments/beast_fmri_test/images/D.png'></img>	71,89	2750.0	test	<img class = center src='/static/experiments/beast_fmri_test/images/redD.png'></img>	go	1600.0	3.0	14.0	go	non-target	D	71,Index Finger	89,Middle Finger	950.0	1150.0	1800.0	1600.0	1.0	1150.0	1.0	n/a	ITI
305720	500	n/a	-1	-1	500	0.0	fixation	poldrack-single-stim	714	1998658	0.0-27.15-0.15	beast_fmri_test	162	1998257,/	t	<div class = centerbox2><div class = fixation>+</div></div>	none	500.0	test	n/a	n/a	n/a	n/a	n/a	n/a	n/a	n/a	n/a	n/a	n/a	n/a	n/a	n/a	n/a	n/a	n/a	n/a	fixation
304427.37578899995	2750	n/a	1238	71	2750	1294.624211	stim	stop-signal	715	2001410	0.0-27.15-1.15	beast_fmri_test	162	1998937,/,1999617,/,2000297,/,2000977,/,2001657,/,2002337,/	t,t,t,t,t,t	<img class = center src='/static/experiments/beast_fmri_test/images/P.png'></img>	71,89	2750.0	test	<img class = center src='/static/experiments/beast_fmri_test/images/redP.png'></img>	go	1800.0	3.0	15.0	go	target	P	71,Index Finger	89,Middle Finger	950.0	1150.0	1800.0	1600.0	1.0	950.0	1.0	n/a	go_stim
307177.37578899995	1294.6242109999998	n/a	1238	71	2750	1294.624211	stim	stop-signal	715	2001410	0.0-27.15-1.15	beast_fmri_test	162	1998937,/,1999617,/,2000297,/,2000977,/,2001657,/,2002337,/	t,t,t,t,t,t	<img class = center src='/static/experiments/beast_fmri_test/images/P.png'></img>	71,89	2750.0	test	<img class = center src='/static/experiments/beast_fmri_test/images/redP.png'></img>	go	1800.0	3.0	15.0	go	target	P	71,Index Finger	89,Middle Finger	950.0	1150.0	1800.0	1600.0	1.0	950.0	1.0	n/a	ITI
310293	500	n/a	-1	-1	500	0.0	fixation	poldrack-single-stim	716	2003231	0.0-27.16-0.16	beast_fmri_test	162	2003017,/	t	<div class = centerbox2><div class = fixation>+</div></div>	none	500.0	test	n/a	n/a	n/a	n/a	n/a	n/a	n/a	n/a	n/a	n/a	n/a	n/a	n/a	n/a	n/a	n/a	n/a	n/a	fixation
310123.9355426	950.0	n/a	1348	71	2750	172.0644574	stim	stop-signal	717	2005984	0.0-27.16-1.16	beast_fmri_test	162	2003697,/,2004377,/,2005057,/,2005738,/	t,t,t,t	<img class = center src='/static/experiments/beast_fmri_test/images/D.png'></img>	71,89	2750.0	test	<img class = center src='/static/experiments/beast_fmri_test/images/redD.png'></img>	stop	1800.0	3.0	16.0	stop	target	D	71,Index Finger	89,Middle Finger	950.0	1150.0	1800.0	1600.0	0.0	950.0	n/a	0.0	go_stim
311923.9355426	1800.0	n/a	1348	71	2750	172.0644574	stim	stop-signal	717	2005984	0.0-27.16-1.16	beast_fmri_test	162	2003697,/,2004377,/,2005057,/,2005738,/	t,t,t,t	<img class = center src='/static/experiments/beast_fmri_test/images/D.png'></img>	71,89	2750.0	test	<img class = center src='/static/experiments/beast_fmri_test/images/redD.png'></img>	stop	1800.0	3.0	16.0	stop	target	D	71,Index Finger	89,Middle Finger	950.0	1150.0	1800.0	1600.0	0.0	950.0	n/a	0.0	stop_stim
312873.9355426	172.06445740000001	n/a	1348	71	2750	172.0644574	stim	stop-signal	717	2005984	0.0-27.16-1.16	beast_fmri_test	162	2003697,/,2004377,/,2005057,/,2005738,/	t,t,t,t	<img class = center src='/static/experiments/beast_fmri_test/images/D.png'></img>	71,89	2750.0	test	<img class = center src='/static/experiments/beast_fmri_test/images/redD.png'></img>	stop	1800.0	3.0	16.0	stop	target	D	71,Index Finger	89,Middle Finger	950.0	1150.0	1800.0	1600.0	0.0	950.0	n/a	0.0	ITI
313739	500	n/a	-1	-1	500	0.0	fixation	poldrack-single-stim	718	2006677	0.0-27.17-0.17	beast_fmri_test	162	2006417,/	t	<div class = centerbox2><div class = fixation>+</div></div>	none	500.0	test	n/a	n/a	n/a	n/a	n/a	n/a	n/a	n/a	n/a	n/a	n/a	n/a	n/a	n/a	n/a	n/a	n/a	n/a	fixation
311396.84821500001	2750	n/a	1727	89	2750	2344.151785	stim	stop-signal	719	2009429	0.0-27.17-1.17	beast_fmri_test	162	2007097,/,2007777,/,2008457,/,2009137,/,2009817,/,2010496,/,2011177,/	t,t,t,t,t,t,t	<img class = center src='/static/experiments/beast_fmri_test/images/T.png'></img>	71,89	2750.0	test	<img class = center src='/static/experiments/beast_fmri_test/images/redT.png'></img>	go	1600.0	3.0	17.0	go	non-target	T	71,Index Finger	89,Middle Finger	900.0	1150.0	1800.0	1600.0	1.0	1150.0	1.0	n/a	go_stim
314146.84821500001	2344.151785	n/a	1727	89	2750	2344.151785	stim	stop-signal	719	2009429	0.0-27.17-1.17	beast_fmri_test	162	2007097,/,2007777,/,2008457,/,2009137,/,2009817,/,2010496,/,2011177,/	t,t,t,t,t,t,t	<img class = center src='/static/experiments/beast_fmri_test/images/T.png'></img>	71,89	2750.0	test	<img class = center src='/static/experiments/beast_fmri_test/images/redT.png'></img>	go	1600.0	3.0	17.0	go	non-target	T	71,Index Finger	89,Middle Finger	900.0	1150.0	1800.0	1600.0	1.0	1150.0	1.0	n/a	ITI
319360	500	n/a	-1	-1	500	0.0	fixation	poldrack-single-stim	720	2012298	0.0-27.18-0.18	beast_fmri_test	162	2011857,/	t	<div class = centerbox2><div class = fixation>+</div></div>	none	500.0	test	n/a	n/a	n/a	n/a	n/a	n/a	n/a	n/a	n/a	n/a	n/a	n/a	n/a	n/a	n/a	n/a	n/a	n/a	fixation
319093.2039632001	2750	n/a	1319	89	2750	268.7960368	stim	stop-signal	721	2015050	0.0-27.18-1.18	beast_fmri_test	162	2012537,/,2013217,/,2013897,/,2014576,/,2015257,/	t,t,t,t,t	<img class = center src='/static/experiments/beast_fmri_test/images/T.png'></img>	71,89	2750.0	test	<img class = center src='/static/experiments/beast_fmri_test/images/redT.png'></img>	go	1600.0	3.0	18.0	go	non-target	T	71,Index Finger	89,Middle Finger	900.0	1150.0	1800.0	1600.0	1.0	1150.0	1.0	n/a	go_stim
321843.2039632001	268.79603680000002	n/a	1319	89	2750	268.7960368	stim	stop-signal	721	2015050	0.0-27.18-1.18	beast_fmri_test	162	2012537,/,2013217,/,2013897,/,2014576,/,2015257,/	t,t,t,t,t	<img class = center src='/static/experiments/beast_fmri_test/images/T.png'></img>	71,89	2750.0	test	<img class = center src='/static/experiments/beast_fmri_test/images/redT.png'></img>	go	1600.0	3.0	18.0	go	non-target	T	71,Index Finger	89,Middle Finger	900.0	1150.0	1800.0	1600.0	1.0	1150.0	1.0	n/a	ITI
322906	500	n/a	-1	-1	500	0.0	fixation	poldrack-single-stim	722	2015844	0.0-27.19-0.19	beast_fmri_test	162	n/a	n/a	<div class = centerbox2><div class = fixation>+</div></div>	none	500.0	test	n/a	n/a	n/a	n/a	n/a	n/a	n/a	n/a	n/a	n/a	n/a	n/a	n/a	n/a	n/a	n/a	n/a	n/a	fixation
321085.39517999999	2750	n/a	1864	89	2750	1822.60482	stim	stop-signal	723	2018596	0.0-27.19-1.19	beast_fmri_test	162	2015938,/,2016618,/,2017297,/,2017978,/,2018657,/,2019337,/,2020017,/	t,t,t,t,t,t,t	<img class = center src='/static/experiments/beast_fmri_test/images/P.png'></img>	71,89	2750.0	test	<img class = center src='/static/experiments/beast_fmri_test/images/redP.png'></img>	go	1600.0	3.0	19.0	go	non-target	P	71,Index Finger	89,Middle Finger	900.0	1150.0	1800.0	1600.0	1.0	1150.0	1.0	n/a	go_stim
323835.39517999999	1822.60482	n/a	1864	89	2750	1822.60482	stim	stop-signal	723	2018596	0.0-27.19-1.19	beast_fmri_test	162	2015938,/,2016618,/,2017297,/,2017978,/,2018657,/,2019337,/,2020017,/	t,t,t,t,t,t,t	<img class = center src='/static/experiments/beast_fmri_test/images/P.png'></img>	71,89	2750.0	test	<img class = center src='/static/experiments/beast_fmri_test/images/redP.png'></img>	go	1600.0	3.0	19.0	go	non-target	P	71,Index Finger	89,Middle Finger	900.0	1150.0	1800.0	1600.0	1.0	1150.0	1.0	n/a	ITI
328001	500	n/a	-1	-1	500	0.0	fixation	poldrack-single-stim	724	2020939	0.0-27.20-0.20	beast_fmri_test	162	2020697,/	t	<div class = centerbox2><div class = fixation>+</div></div>	none	500.0	test	n/a	n/a	n/a	n/a	n/a	n/a	n/a	n/a	n/a	n/a	n/a	n/a	n/a	n/a	n/a	n/a	n/a	n/a	fixation
324965.6235450001	2750	n/a	2029	71	2750	3036.376455	stim	stop-signal	725	2023690	0.0-27.20-1.20	beast_fmri_test	162	2021377,/,2022057,/,2022737,/,2023417,/,2024097,/,2024777,/,2025457,/,2026138,/	t,t,t,t,t,t,t,t	<img class = center src='/static/experiments/beast_fmri_test/images/B.png'></img>	71,89	2750.0	test	<img class = center src='/static/experiments/beast_fmri_test/images/redB.png'></img>	go	1600.0	3.0	20.0	go	non-target	B	71,Index Finger	89,Middle Finger	900.0	1150.0	1800.0	1600.0	0.0	1150.0	0.0	n/a	go_stim
327715.6235450001	3036.3764550000001	n/a	2029	71	2750	3036.376455	stim	stop-signal	725	2023690	0.0-27.20-1.20	beast_fmri_test	162	2021377,/,2022057,/,2022737,/,2023417,/,2024097,/,2024777,/,2025457,/,2026138,/	t,t,t,t,t,t,t,t	<img class = center src='/static/experiments/beast_fmri_test/images/B.png'></img>	71,89	2750.0	test	<img class = center src='/static/experiments/beast_fmri_test/images/redB.png'></img>	go	1600.0	3.0	20.0	go	non-target	B	71,Index Finger	89,Middle Finger	900.0	1150.0	1800.0	1600.0	0.0	1150.0	0.0	n/a	ITI
334315	500	n/a	-1	-1	500	0.0	fixation	poldrack-single-stim	726	2027253	0.0-27.21-0.21	beast_fmri_test	162	2026817,/	t	<div class = centerbox2><div class = fixation>+</div></div>	none	500.0	test	n/a	n/a	n/a	n/a	n/a	n/a	n/a	n/a	n/a	n/a	n/a	n/a	n/a	n/a	n/a	n/a	n/a	n/a	fixation
333851.47368899989	2750	n/a	1219	89	2750	465.526311	stim	stop-signal	727	2030005	0.0-27.21-1.21	beast_fmri_test	162	2027497,/,2028177,/,2028857,/,2029537,/,2030217,/	t,t,t,t,t	<img class = center src='/static/experiments/beast_fmri_test/images/B.png'></img>	71,89	2750.0	test	<img class = center src='/static/experiments/beast_fmri_test/images/redB.png'></img>	go	1600.0	3.0	21.0	go	non-target	B	71,Index Finger	89,Middle Finger	900.0	1150.0	1800.0	1600.0	1.0	1150.0	1.0	n/a	go_stim
336601.47368899989	465.52631100000002	n/a	1219	89	2750	465.526311	stim	stop-signal	727	2030005	0.0-27.21-1.21	beast_fmri_test	162	2027497,/,2028177,/,2028857,/,2029537,/,2030217,/	t,t,t,t,t	<img class = center src='/static/experiments/beast_fmri_test/images/B.png'></img>	71,89	2750.0	test	<img class = center src='/static/experiments/beast_fmri_test/images/redB.png'></img>	go	1600.0	3.0	21.0	go	non-target	B	71,Index Finger	89,Middle Finger	900.0	1150.0	1800.0	1600.0	1.0	1150.0	1.0	n/a	ITI
338059	500	n/a	-1	-1	500	0.0	fixation	poldrack-single-stim	728	2030997	0.0-27.22-0.22	beast_fmri_test	162	2030897,/	t	<div class = centerbox2><div class = fixation>+</div></div>	none	500.0	test	n/a	n/a	n/a	n/a	n/a	n/a	n/a	n/a	n/a	n/a	n/a	n/a	n/a	n/a	n/a	n/a	n/a	n/a	fixation
338022.3973326101	2750	n/a	1626	89	2750	37.60266739	stim	stop-signal	729	2033748	0.0-27.22-1.22	beast_fmri_test	162	2031577,/,2032257,/,2032937,/,2033617,/	t,t,t,t	<img class = center src='/static/experiments/beast_fmri_test/images/D.png'></img>	71,89	2750.0	test	<img class = center src='/static/experiments/beast_fmri_test/images/redD.png'></img>	go	1600.0	3.0	22.0	go	non-target	D	71,Index Finger	89,Middle Finger	900.0	1150.0	1800.0	1600.0	1.0	1150.0	1.0	n/a	go_stim
340772.3973326101	37.602667390000001	n/a	1626	89	2750	37.60266739	stim	stop-signal	729	2033748	0.0-27.22-1.22	beast_fmri_test	162	2031577,/,2032257,/,2032937,/,2033617,/	t,t,t,t	<img class = center src='/static/experiments/beast_fmri_test/images/D.png'></img>	71,89	2750.0	test	<img class = center src='/static/experiments/beast_fmri_test/images/redD.png'></img>	go	1600.0	3.0	22.0	go	non-target	D	71,Index Finger	89,Middle Finger	900.0	1150.0	1800.0	1600.0	1.0	1150.0	1.0	n/a	ITI
341367	500	n/a	-1	-1	500	0.0	fixation	poldrack-single-stim	730	2034305	0.0-27.23-0.23	beast_fmri_test	162	2034297,/	t	<div class = centerbox2><div class = fixation>+</div></div>	none	500.0	test	n/a	n/a	n/a	n/a	n/a	n/a	n/a	n/a	n/a	n/a	n/a	n/a	n/a	n/a	n/a	n/a	n/a	n/a	fixation
