onset	duration	text	rt	key_press	block_duration	timing_post_trial	trial_id	trial_type	trial_index	time_elapsed	internal_node_id	exp_id	subject_id	trigger_times	triggers	stimulus	possible_responses	stim_duration	exp_stage	SS_stimulus	SS_trial_type	SS_duration	load	trial_num	stop_trial_type	adaptive_trial_type	stim	yes_response_key	no_response_key	SSD_target	SSD_non_target	SSTarget	SSNonTarget	go_acc	SS_delay	adaptive_acc	stop_acc	new_trial_type
test	10880.0	n/a	-1	-1	10880	0.0	practice-no-stop-feedback	poldrack-single-stim	6	132721	0.0-6.0	beast_fmri_test	162	121840,/,122519,/,123199,/,123879,/,124559,/,125239,/,125919,/,126599,/,127279,/,127959,/,128639,/,129320,/,129999,/,130679,/,131359,/,132039,/,132719,/	t,t,t,t,t,t,t,t,t,t,t,t,t,t,t,t,t	"<div class = ""centerbox2_2""><p class = ""block-text2"">Your delay is 2 trials.</p><p class = block-text2>Please wait for the scanner to start the block</p></div>"	77	10880.0	n/a	n/a	n/a	n/a	n/a	n/a	n/a	n/a	n/a	n/a	n/a	n/a	n/a	n/a	n/a	n/a	n/a	n/a	n/a	start_functional_block
11382	500.0	n/a	-1	-1	500	0.0	fixation	poldrack-single-stim	7	133222	0.0-7.0-0.0	beast_fmri_test	162	n/a	n/a	<div class = centerbox2><div class = fixation>+</div></div>	none	500.0	test	n/a	n/a	n/a	n/a	n/a	n/a	n/a	n/a	n/a	n/a	n/a	n/a	n/a	n/a	n/a	n/a	n/a	n/a	fixation
11250.4889463	2750.0	n/a	1460	89	2750	135.5110537	stim	stop-signal	8	135976	0.0-7.0-1.0	beast_fmri_test	162	133399,/,134079,/,134759,/,135439,/	t,t,t,t	<img class = center src='/static/experiments/beast_fmri_test/images/P.png'></img>	71,89	2750.0	test	<img class = center src='/static/experiments/beast_fmri_test/images/redP.png'></img>	go	-1.0	2.0	0.0	go	temp-non-target	P	71,Index Finger	89,Middle Finger	500.0	500.0	0.0	0.0	0.0	n/a	n/a	n/a	go_stim
14000.4889463	135.5110537	n/a	1460	89	2750	135.5110537	stim	stop-signal	8	135976	0.0-7.0-1.0	beast_fmri_test	162	133399,/,134079,/,134759,/,135439,/	t,t,t,t	<img class = center src='/static/experiments/beast_fmri_test/images/P.png'></img>	71,89	2750.0	test	<img class = center src='/static/experiments/beast_fmri_test/images/redP.png'></img>	go	-1.0	2.0	0.0	go	temp-non-target	P	71,Index Finger	89,Middle Finger	500.0	500.0	0.0	0.0	0.0	n/a	n/a	n/a	ITI
14776	500.0	n/a	-1	-1	500	0.0	fixation	poldrack-single-stim	9	136616	0.0-7.1-0.1	beast_fmri_test	162	136119,/	t	<div class = centerbox2><div class = fixation>+</div></div>	none	500.0	test	n/a	n/a	n/a	n/a	n/a	n/a	n/a	n/a	n/a	n/a	n/a	n/a	n/a	n/a	n/a	n/a	n/a	n/a	fixation
13723.820287999988	2750.0	n/a	449	89	2750	1054.179712	stim	stop-signal	10	139368	0.0-7.1-1.1	beast_fmri_test	162	136799,/,137479,/,138159,/,138839,/,139519,/,140198,/	t,t,t,t,t,t	<img class = center src='/static/experiments/beast_fmri_test/images/D.png'></img>	71,89	2750.0	test	<img class = center src='/static/experiments/beast_fmri_test/images/redD.png'></img>	go	-1.0	2.0	1.0	go	temp-non-target	D	71,Index Finger	89,Middle Finger	500.0	500.0	0.0	0.0	0.0	n/a	n/a	n/a	go_stim
16473.820287999988	1054.179712	n/a	449	89	2750	1054.179712	stim	stop-signal	10	139368	0.0-7.1-1.1	beast_fmri_test	162	136799,/,137479,/,138159,/,138839,/,139519,/,140198,/	t,t,t,t,t,t	<img class = center src='/static/experiments/beast_fmri_test/images/D.png'></img>	71,89	2750.0	test	<img class = center src='/static/experiments/beast_fmri_test/images/redD.png'></img>	go	-1.0	2.0	1.0	go	temp-non-target	D	71,Index Finger	89,Middle Finger	500.0	500.0	0.0	0.0	0.0	n/a	n/a	n/a	ITI
19085	500.0	n/a	-1	-1	500	0.0	fixation	poldrack-single-stim	11	140925	0.0-7.2-0.2	beast_fmri_test	162	140879,/	t	<div class = centerbox2><div class = fixation>+</div></div>	none	500.0	test	n/a	n/a	n/a	n/a	n/a	n/a	n/a	n/a	n/a	n/a	n/a	n/a	n/a	n/a	n/a	n/a	n/a	n/a	fixation
17873.990439999994	2750.0	n/a	727	71	2750	1213.00956	stim	stop-signal	12	143677	0.0-7.2-1.2	beast_fmri_test	162	141559,/,142238,/,142919,/,143598,/,144279,/	t,t,t,t,t	<img class = center src='/static/experiments/beast_fmri_test/images/P.png'></img>	71,89	2750.0	test	<img class = center src='/static/experiments/beast_fmri_test/images/redP.png'></img>	go	2250.0	2.0	2.0	go	target	P	71,Index Finger	89,Middle Finger	500.0	500.0	2250.0	0.0	1.0	500.0	1.0	n/a	go_stim
20623.990439999994	1213.00956	n/a	727	71	2750	1213.00956	stim	stop-signal	12	143677	0.0-7.2-1.2	beast_fmri_test	162	141559,/,142238,/,142919,/,143598,/,144279,/	t,t,t,t,t	<img class = center src='/static/experiments/beast_fmri_test/images/P.png'></img>	71,89	2750.0	test	<img class = center src='/static/experiments/beast_fmri_test/images/redP.png'></img>	go	2250.0	2.0	2.0	go	target	P	71,Index Finger	89,Middle Finger	500.0	500.0	2250.0	0.0	1.0	500.0	1.0	n/a	ITI
23554	500.0	n/a	-1	-1	500	0.0	fixation	poldrack-single-stim	13	145394	0.0-7.3-0.3	beast_fmri_test	162	144958,/	t	<div class = centerbox2><div class = fixation>+</div></div>	none	500.0	test	n/a	n/a	n/a	n/a	n/a	n/a	n/a	n/a	n/a	n/a	n/a	n/a	n/a	n/a	n/a	n/a	n/a	n/a	fixation
23457.266989149997	2750.0	n/a	474	89	2750	98.73301085	stim	stop-signal	14	148146	0.0-7.3-1.3	beast_fmri_test	162	145639,/,146318,/,146999,/,147678,/	t,t,t,t	<img class = center src='/static/experiments/beast_fmri_test/images/B.png'></img>	71,89	2750.0	test	<img class = center src='/static/experiments/beast_fmri_test/images/redB.png'></img>	go	2250.0	2.0	3.0	go	non-target	B	71,Index Finger	89,Middle Finger	500.0	500.0	2250.0	2250.0	1.0	500.0	1.0	n/a	go_stim
26207.266989149997	98.73301085	n/a	474	89	2750	98.73301085	stim	stop-signal	14	148146	0.0-7.3-1.3	beast_fmri_test	162	145639,/,146318,/,146999,/,147678,/	t,t,t,t	<img class = center src='/static/experiments/beast_fmri_test/images/B.png'></img>	71,89	2750.0	test	<img class = center src='/static/experiments/beast_fmri_test/images/redB.png'></img>	go	2250.0	2.0	3.0	go	non-target	B	71,Index Finger	89,Middle Finger	500.0	500.0	2250.0	2250.0	1.0	500.0	1.0	n/a	ITI
26907	500.0	n/a	-1	-1	500	0.0	fixation	poldrack-single-stim	15	148747	0.0-7.4-0.4	beast_fmri_test	162	148360,/	t	<div class = centerbox2><div class = fixation>+</div></div>	none	500.0	test	n/a	n/a	n/a	n/a	n/a	n/a	n/a	n/a	n/a	n/a	n/a	n/a	n/a	n/a	n/a	n/a	n/a	n/a	fixation
26659.159868899995	2750.0	n/a	944	89	2750	250.8401311	stim	stop-signal	16	151500	0.0-7.4-1.4	beast_fmri_test	162	149038,/,149719,/,150400,/,151079,/	t,t,t,t	<img class = center src='/static/experiments/beast_fmri_test/images/V.png'></img>	71,89	2750.0	test	<img class = center src='/static/experiments/beast_fmri_test/images/redV.png'></img>	go	2250.0	2.0	4.0	go	non-target	V	71,Index Finger	89,Middle Finger	500.0	500.0	2250.0	2250.0	1.0	500.0	1.0	n/a	go_stim
29409.159868899995	250.8401311	n/a	944	89	2750	250.8401311	stim	stop-signal	16	151500	0.0-7.4-1.4	beast_fmri_test	162	149038,/,149719,/,150400,/,151079,/	t,t,t,t	<img class = center src='/static/experiments/beast_fmri_test/images/V.png'></img>	71,89	2750.0	test	<img class = center src='/static/experiments/beast_fmri_test/images/redV.png'></img>	go	2250.0	2.0	4.0	go	non-target	V	71,Index Finger	89,Middle Finger	500.0	500.0	2250.0	2250.0	1.0	500.0	1.0	n/a	ITI
30413	500.0	n/a	-1	-1	500	0.0	fixation	poldrack-single-stim	17	152253	0.0-7.5-0.5	beast_fmri_test	162	151759,/	t	<div class = centerbox2><div class = fixation>+</div></div>	none	500.0	test	n/a	n/a	n/a	n/a	n/a	n/a	n/a	n/a	n/a	n/a	n/a	n/a	n/a	n/a	n/a	n/a	n/a	n/a	fixation
29865.3364573	2750.0	n/a	587	71	2750	548.6635427	stim	stop-signal	18	155004	0.0-7.5-1.5	beast_fmri_test	162	152439,/,153119,/,153799,/,154479,/,155159,/	t,t,t,t,t	<img class = center src='/static/experiments/beast_fmri_test/images/B.png'></img>	71,89	2750.0	test	<img class = center src='/static/experiments/beast_fmri_test/images/redB.png'></img>	go	2250.0	2.0	5.0	go	target	B	71,Index Finger	89,Middle Finger	500.0	500.0	2250.0	2250.0	1.0	500.0	1.0	n/a	go_stim
32615.3364573	548.6635427	n/a	587	71	2750	548.6635427	stim	stop-signal	18	155004	0.0-7.5-1.5	beast_fmri_test	162	152439,/,153119,/,153799,/,154479,/,155159,/	t,t,t,t,t	<img class = center src='/static/experiments/beast_fmri_test/images/B.png'></img>	71,89	2750.0	test	<img class = center src='/static/experiments/beast_fmri_test/images/redB.png'></img>	go	2250.0	2.0	5.0	go	target	B	71,Index Finger	89,Middle Finger	500.0	500.0	2250.0	2250.0	1.0	500.0	1.0	n/a	ITI
34215	500.0	n/a	-1	-1	500	0.0	fixation	poldrack-single-stim	19	156055	0.0-7.6-0.6	beast_fmri_test	162	155839,/	t	<div class = centerbox2><div class = fixation>+</div></div>	none	500.0	test	n/a	n/a	n/a	n/a	n/a	n/a	n/a	n/a	n/a	n/a	n/a	n/a	n/a	n/a	n/a	n/a	n/a	n/a	fixation
34107.535033799999	500.0	n/a	743	71	2750	109.4649662	stim	stop-signal	20	158807	0.0-7.6-1.6	beast_fmri_test	162	156519,/,157199,/,157879,/,158559,/	t,t,t,t	<img class = center src='/static/experiments/beast_fmri_test/images/V.png'></img>	71,89	2750.0	test	<img class = center src='/static/experiments/beast_fmri_test/images/redV.png'></img>	stop	2250.0	2.0	6.0	stop	target	V	71,Index Finger	89,Middle Finger	500.0	500.0	2250.0	2250.0	0.0	500.0	n/a	0.0	go_stim
36357.535033799999	2250.0	n/a	743	71	2750	109.4649662	stim	stop-signal	20	158807	0.0-7.6-1.6	beast_fmri_test	162	156519,/,157199,/,157879,/,158559,/	t,t,t,t	<img class = center src='/static/experiments/beast_fmri_test/images/V.png'></img>	71,89	2750.0	test	<img class = center src='/static/experiments/beast_fmri_test/images/redV.png'></img>	stop	2250.0	2.0	6.0	stop	target	V	71,Index Finger	89,Middle Finger	500.0	500.0	2250.0	2250.0	0.0	500.0	n/a	0.0	stop_stim
36857.535033799999	109.4649662	n/a	743	71	2750	109.4649662	stim	stop-signal	20	158807	0.0-7.6-1.6	beast_fmri_test	162	156519,/,157199,/,157879,/,158559,/	t,t,t,t	<img class = center src='/static/experiments/beast_fmri_test/images/V.png'></img>	71,89	2750.0	test	<img class = center src='/static/experiments/beast_fmri_test/images/redV.png'></img>	stop	2250.0	2.0	6.0	stop	target	V	71,Index Finger	89,Middle Finger	500.0	500.0	2250.0	2250.0	0.0	500.0	n/a	0.0	ITI
37580	500.0	n/a	-1	-1	500	0.0	fixation	poldrack-single-stim	21	159420	0.0-7.7-0.7	beast_fmri_test	162	159239,/	t	<div class = centerbox2><div class = fixation>+</div></div>	none	500.0	test	n/a	n/a	n/a	n/a	n/a	n/a	n/a	n/a	n/a	n/a	n/a	n/a	n/a	n/a	n/a	n/a	n/a	n/a	fixation
36607.544039900007	2750.0	n/a	632	71	2750	974.4559601	stim	stop-signal	22	162172	0.0-7.7-1.7	beast_fmri_test	162	159920,/,160599,/,161279,/,161959,/,162639,/	t,t,t,t,t	<img class = center src='/static/experiments/beast_fmri_test/images/B.png'></img>	71,89	2750.0	test	<img class = center src='/static/experiments/beast_fmri_test/images/redB.png'></img>	go	2300.0	2.0	7.0	go	target	B	71,Index Finger	89,Middle Finger	450.0	500.0	2300.0	2250.0	1.0	450.0	1.0	n/a	go_stim
39357.544039900007	974.4559601	n/a	632	71	2750	974.4559601	stim	stop-signal	22	162172	0.0-7.7-1.7	beast_fmri_test	162	159920,/,160599,/,161279,/,161959,/,162639,/	t,t,t,t,t	<img class = center src='/static/experiments/beast_fmri_test/images/B.png'></img>	71,89	2750.0	test	<img class = center src='/static/experiments/beast_fmri_test/images/redB.png'></img>	go	2300.0	2.0	7.0	go	target	B	71,Index Finger	89,Middle Finger	450.0	500.0	2300.0	2250.0	1.0	450.0	1.0	n/a	ITI
41810	500.0	n/a	-1	-1	500	0.0	fixation	poldrack-single-stim	23	163650	0.0-7.8-0.8	beast_fmri_test	162	163319,/	t	<div class = centerbox2><div class = fixation>+</div></div>	none	500.0	test	n/a	n/a	n/a	n/a	n/a	n/a	n/a	n/a	n/a	n/a	n/a	n/a	n/a	n/a	n/a	n/a	n/a	n/a	fixation
40669.718094000011	2750.0	n/a	842	71	2750	1142.281906	stim	stop-signal	24	166402	0.0-7.8-1.8	beast_fmri_test	162	163999,/,164679,/,165359,/,166040,/,166719,/,167399,/	t,t,t,t,t,t	<img class = center src='/static/experiments/beast_fmri_test/images/T.png'></img>	71,89	2750.0	test	<img class = center src='/static/experiments/beast_fmri_test/images/redT.png'></img>	go	2250.0	2.0	8.0	go	non-target	T	71,Index Finger	89,Middle Finger	450.0	500.0	2300.0	2250.0	0.0	500.0	0.0	n/a	go_stim
43419.718094000011	1142.281906	n/a	842	71	2750	1142.281906	stim	stop-signal	24	166402	0.0-7.8-1.8	beast_fmri_test	162	163999,/,164679,/,165359,/,166040,/,166719,/,167399,/	t,t,t,t,t,t	<img class = center src='/static/experiments/beast_fmri_test/images/T.png'></img>	71,89	2750.0	test	<img class = center src='/static/experiments/beast_fmri_test/images/redT.png'></img>	go	2250.0	2.0	8.0	go	non-target	T	71,Index Finger	89,Middle Finger	450.0	500.0	2300.0	2250.0	0.0	500.0	0.0	n/a	ITI
46209	500.0	n/a	-1	-1	500	0.0	fixation	poldrack-single-stim	25	168049	0.0-7.9-0.9	beast_fmri_test	162	n/a	n/a	<div class = centerbox2><div class = fixation>+</div></div>	none	500.0	test	n/a	n/a	n/a	n/a	n/a	n/a	n/a	n/a	n/a	n/a	n/a	n/a	n/a	n/a	n/a	n/a	n/a	n/a	fixation
45792.253071999992	450.0	n/a	-1	-1	2750	417.746928	stim	stop-signal	26	170800	0.0-7.9-1.9	beast_fmri_test	162	168079,/,168759,/,169439,/,170120,/,170799,/	t,t,t,t,t	<img class = center src='/static/experiments/beast_fmri_test/images/B.png'></img>	71,89	2750.0	test	<img class = center src='/static/experiments/beast_fmri_test/images/redB.png'></img>	stop	2300.0	2.0	9.0	stop	target	B	71,Index Finger	89,Middle Finger	450.0	500.0	2300.0	2250.0	0.0	450.0	n/a	1.0	go_stim
48092.253071999992	2300.0	n/a	-1	-1	2750	417.746928	stim	stop-signal	26	170800	0.0-7.9-1.9	beast_fmri_test	162	168079,/,168759,/,169439,/,170120,/,170799,/	t,t,t,t,t	<img class = center src='/static/experiments/beast_fmri_test/images/B.png'></img>	71,89	2750.0	test	<img class = center src='/static/experiments/beast_fmri_test/images/redB.png'></img>	stop	2300.0	2.0	9.0	stop	target	B	71,Index Finger	89,Middle Finger	450.0	500.0	2300.0	2250.0	0.0	450.0	n/a	1.0	stop_stim
48542.253071999992	417.746928	n/a	-1	-1	2750	417.746928	stim	stop-signal	26	170800	0.0-7.9-1.9	beast_fmri_test	162	168079,/,168759,/,169439,/,170120,/,170799,/	t,t,t,t,t	<img class = center src='/static/experiments/beast_fmri_test/images/B.png'></img>	71,89	2750.0	test	<img class = center src='/static/experiments/beast_fmri_test/images/redB.png'></img>	stop	2300.0	2.0	9.0	stop	target	B	71,Index Finger	89,Middle Finger	450.0	500.0	2300.0	2250.0	0.0	450.0	n/a	1.0	ITI
49882	500.0	n/a	-1	-1	500	0.0	fixation	poldrack-single-stim	27	171722	0.0-7.10-0.10	beast_fmri_test	162	171479,/	t	<div class = centerbox2><div class = fixation>+</div></div>	none	500.0	test	n/a	n/a	n/a	n/a	n/a	n/a	n/a	n/a	n/a	n/a	n/a	n/a	n/a	n/a	n/a	n/a	n/a	n/a	fixation
49243.5024423	2750.0	n/a	1271	89	2750	640.4975577	stim	stop-signal	28	174474	0.0-7.10-1.10	beast_fmri_test	162	172159,/,172839,/,173518,/,174199,/,174878,/	t,t,t,t,t	<img class = center src='/static/experiments/beast_fmri_test/images/B.png'></img>	71,89	2750.0	test	<img class = center src='/static/experiments/beast_fmri_test/images/redB.png'></img>	go	2250.0	2.0	10.0	go	non-target	B	71,Index Finger	89,Middle Finger	500.0	500.0	2300.0	2250.0	1.0	500.0	1.0	n/a	go_stim
51993.5024423	640.4975577	n/a	1271	89	2750	640.4975577	stim	stop-signal	28	174474	0.0-7.10-1.10	beast_fmri_test	162	172159,/,172839,/,173518,/,174199,/,174878,/	t,t,t,t,t	<img class = center src='/static/experiments/beast_fmri_test/images/B.png'></img>	71,89	2750.0	test	<img class = center src='/static/experiments/beast_fmri_test/images/redB.png'></img>	go	2250.0	2.0	10.0	go	non-target	B	71,Index Finger	89,Middle Finger	500.0	500.0	2300.0	2250.0	1.0	500.0	1.0	n/a	ITI
53779	500.0	n/a	-1	-1	500	0.0	fixation	poldrack-single-stim	29	175619	0.0-7.11-0.11	beast_fmri_test	162	175558,/	t	<div class = centerbox2><div class = fixation>+</div></div>	none	500.0	test	n/a	n/a	n/a	n/a	n/a	n/a	n/a	n/a	n/a	n/a	n/a	n/a	n/a	n/a	n/a	n/a	n/a	n/a	fixation
53432.292667400005	2750.0	n/a	837	89	2750	348.7073326	stim	stop-signal	30	178371	0.0-7.11-1.11	beast_fmri_test	162	176239,/,176918,/,177598,/,178279,/	t,t,t,t	<img class = center src='/static/experiments/beast_fmri_test/images/V.png'></img>	71,89	2750.0	test	<img class = center src='/static/experiments/beast_fmri_test/images/redV.png'></img>	go	2250.0	2.0	11.0	go	non-target	V	71,Index Finger	89,Middle Finger	500.0	500.0	2300.0	2250.0	1.0	500.0	1.0	n/a	go_stim
56182.292667400005	348.7073326	n/a	837	89	2750	348.7073326	stim	stop-signal	30	178371	0.0-7.11-1.11	beast_fmri_test	162	176239,/,176918,/,177598,/,178279,/	t,t,t,t	<img class = center src='/static/experiments/beast_fmri_test/images/V.png'></img>	71,89	2750.0	test	<img class = center src='/static/experiments/beast_fmri_test/images/redV.png'></img>	go	2250.0	2.0	11.0	go	non-target	V	71,Index Finger	89,Middle Finger	500.0	500.0	2300.0	2250.0	1.0	500.0	1.0	n/a	ITI
57384	500.0	n/a	-1	-1	500	0.0	fixation	poldrack-single-stim	31	179224	0.0-7.12-0.12	beast_fmri_test	162	178958,/	t	<div class = centerbox2><div class = fixation>+</div></div>	none	500.0	test	n/a	n/a	n/a	n/a	n/a	n/a	n/a	n/a	n/a	n/a	n/a	n/a	n/a	n/a	n/a	n/a	n/a	n/a	fixation
56219.740747000003	2750.0	n/a	971	89	2750	1166.259253	stim	stop-signal	32	181976	0.0-7.12-1.12	beast_fmri_test	162	179639,/,180318,/,180998,/,181680,/,182359,/,183039,/	t,t,t,t,t,t	<img class = center src='/static/experiments/beast_fmri_test/images/T.png'></img>	71,89	2750.0	test	<img class = center src='/static/experiments/beast_fmri_test/images/redT.png'></img>	go	2250.0	2.0	12.0	go	non-target	T	71,Index Finger	89,Middle Finger	500.0	500.0	2300.0	2250.0	1.0	500.0	1.0	n/a	go_stim
58969.740747000003	1166.259253	n/a	971	89	2750	1166.259253	stim	stop-signal	32	181976	0.0-7.12-1.12	beast_fmri_test	162	179639,/,180318,/,180998,/,181680,/,182359,/,183039,/	t,t,t,t,t,t	<img class = center src='/static/experiments/beast_fmri_test/images/T.png'></img>	71,89	2750.0	test	<img class = center src='/static/experiments/beast_fmri_test/images/redT.png'></img>	go	2250.0	2.0	12.0	go	non-target	T	71,Index Finger	89,Middle Finger	500.0	500.0	2300.0	2250.0	1.0	500.0	1.0	n/a	ITI
61807	500.0	n/a	-1	-1	500	0.0	fixation	poldrack-single-stim	33	183647	0.0-7.13-0.13	beast_fmri_test	162	n/a	n/a	<div class = centerbox2><div class = fixation>+</div></div>	none	500.0	test	n/a	n/a	n/a	n/a	n/a	n/a	n/a	n/a	n/a	n/a	n/a	n/a	n/a	n/a	n/a	n/a	n/a	n/a	fixation
60403.300638999994	500.0	n/a	696	71	2750	1405.699361	stim	stop-signal	34	186399	0.0-7.13-1.13	beast_fmri_test	162	183719,/,184399,/,185079,/,185759,/,186439,/,187119,/,187799,/	t,t,t,t,t,t,t	<img class = center src='/static/experiments/beast_fmri_test/images/V.png'></img>	71,89	2750.0	test	<img class = center src='/static/experiments/beast_fmri_test/images/redV.png'></img>	stop	2250.0	2.0	13.0	stop	target	V	71,Index Finger	89,Middle Finger	500.0	500.0	2250.0	2250.0	0.0	500.0	n/a	0.0	go_stim
62653.300638999994	2250.0	n/a	696	71	2750	1405.699361	stim	stop-signal	34	186399	0.0-7.13-1.13	beast_fmri_test	162	183719,/,184399,/,185079,/,185759,/,186439,/,187119,/,187799,/	t,t,t,t,t,t,t	<img class = center src='/static/experiments/beast_fmri_test/images/V.png'></img>	71,89	2750.0	test	<img class = center src='/static/experiments/beast_fmri_test/images/redV.png'></img>	stop	2250.0	2.0	13.0	stop	target	V	71,Index Finger	89,Middle Finger	500.0	500.0	2250.0	2250.0	0.0	500.0	n/a	0.0	stop_stim
63153.300638999994	1405.699361	n/a	696	71	2750	1405.699361	stim	stop-signal	34	186399	0.0-7.13-1.13	beast_fmri_test	162	183719,/,184399,/,185079,/,185759,/,186439,/,187119,/,187799,/	t,t,t,t,t,t,t	<img class = center src='/static/experiments/beast_fmri_test/images/V.png'></img>	71,89	2750.0	test	<img class = center src='/static/experiments/beast_fmri_test/images/redV.png'></img>	stop	2250.0	2.0	13.0	stop	target	V	71,Index Finger	89,Middle Finger	500.0	500.0	2250.0	2250.0	0.0	500.0	n/a	0.0	ITI
66468	500.0	n/a	-1	-1	500	0.0	fixation	poldrack-single-stim	35	188308	0.0-7.14-0.14	beast_fmri_test	162	n/a	n/a	<div class = centerbox2><div class = fixation>+</div></div>	none	500.0	test	n/a	n/a	n/a	n/a	n/a	n/a	n/a	n/a	n/a	n/a	n/a	n/a	n/a	n/a	n/a	n/a	n/a	n/a	fixation
65450.301478999987	2750.0	n/a	1210	89	2750	1019.698521	stim	stop-signal	36	191060	0.0-7.14-1.14	beast_fmri_test	162	188479,/,189159,/,189839,/,190520,/,191199,/,191879,/	t,t,t,t,t,t	<img class = center src='/static/experiments/beast_fmri_test/images/B.png'></img>	71,89	2750.0	test	<img class = center src='/static/experiments/beast_fmri_test/images/redB.png'></img>	go	2250.0	2.0	14.0	go	non-target	B	71,Index Finger	89,Middle Finger	450.0	500.0	2250.0	2250.0	1.0	500.0	1.0	n/a	go_stim
68200.301478999987	1019.698521	n/a	1210	89	2750	1019.698521	stim	stop-signal	36	191060	0.0-7.14-1.14	beast_fmri_test	162	188479,/,189159,/,189839,/,190520,/,191199,/,191879,/	t,t,t,t,t,t	<img class = center src='/static/experiments/beast_fmri_test/images/B.png'></img>	71,89	2750.0	test	<img class = center src='/static/experiments/beast_fmri_test/images/redB.png'></img>	go	2250.0	2.0	14.0	go	non-target	B	71,Index Finger	89,Middle Finger	450.0	500.0	2250.0	2250.0	1.0	500.0	1.0	n/a	ITI
70743	500.0	n/a	-1	-1	500	0.0	fixation	poldrack-single-stim	37	192583	0.0-7.15-0.15	beast_fmri_test	162	192559,/	t	<div class = centerbox2><div class = fixation>+</div></div>	none	500.0	test	n/a	n/a	n/a	n/a	n/a	n/a	n/a	n/a	n/a	n/a	n/a	n/a	n/a	n/a	n/a	n/a	n/a	n/a	fixation
69565.728548000014	2750.0	n/a	936	89	2750	1178.271452	stim	stop-signal	38	195334	0.0-7.15-1.15	beast_fmri_test	162	193239,/,193919,/,194599,/,195279,/,195959,/	t,t,t,t,t	<img class = center src='/static/experiments/beast_fmri_test/images/B.png'></img>	71,89	2750.0	test	<img class = center src='/static/experiments/beast_fmri_test/images/redB.png'></img>	go	2250.0	2.0	15.0	go	non-target	B	71,Index Finger	89,Middle Finger	450.0	500.0	2250.0	2250.0	1.0	500.0	1.0	n/a	go_stim
72315.728548000014	1178.271452	n/a	936	89	2750	1178.271452	stim	stop-signal	38	195334	0.0-7.15-1.15	beast_fmri_test	162	193239,/,193919,/,194599,/,195279,/,195959,/	t,t,t,t,t	<img class = center src='/static/experiments/beast_fmri_test/images/B.png'></img>	71,89	2750.0	test	<img class = center src='/static/experiments/beast_fmri_test/images/redB.png'></img>	go	2250.0	2.0	15.0	go	non-target	B	71,Index Finger	89,Middle Finger	450.0	500.0	2250.0	2250.0	1.0	500.0	1.0	n/a	ITI
75177	500.0	n/a	-1	-1	500	0.0	fixation	poldrack-single-stim	39	197017	0.0-7.16-0.16	beast_fmri_test	162	196639,/	t	<div class = centerbox2><div class = fixation>+</div></div>	none	500.0	test	n/a	n/a	n/a	n/a	n/a	n/a	n/a	n/a	n/a	n/a	n/a	n/a	n/a	n/a	n/a	n/a	n/a	n/a	fixation
75156.85209991	2750.0	n/a	763	89	2750	22.14790009	stim	stop-signal	40	199769	0.0-7.16-1.16	beast_fmri_test	162	197319,/,197999,/,198679,/,199359,/	t,t,t,t	<img class = center src='/static/experiments/beast_fmri_test/images/P.png'></img>	71,89	2750.0	test	<img class = center src='/static/experiments/beast_fmri_test/images/redP.png'></img>	go	2250.0	2.0	16.0	go	non-target	P	71,Index Finger	89,Middle Finger	450.0	500.0	2250.0	2250.0	1.0	500.0	1.0	n/a	go_stim
77906.85209991	22.14790009	n/a	763	89	2750	22.14790009	stim	stop-signal	40	199769	0.0-7.16-1.16	beast_fmri_test	162	197319,/,197999,/,198679,/,199359,/	t,t,t,t	<img class = center src='/static/experiments/beast_fmri_test/images/P.png'></img>	71,89	2750.0	test	<img class = center src='/static/experiments/beast_fmri_test/images/redP.png'></img>	go	2250.0	2.0	16.0	go	non-target	P	71,Index Finger	89,Middle Finger	450.0	500.0	2250.0	2250.0	1.0	500.0	1.0	n/a	ITI
78455	500.0	n/a	-1	-1	500	0.0	fixation	poldrack-single-stim	41	200295	0.0-7.17-0.17	beast_fmri_test	162	200039,/	t	<div class = centerbox2><div class = fixation>+</div></div>	none	500.0	test	n/a	n/a	n/a	n/a	n/a	n/a	n/a	n/a	n/a	n/a	n/a	n/a	n/a	n/a	n/a	n/a	n/a	n/a	fixation
77074.308874000009	500.0	n/a	-1	-1	2750	1381.691126	stim	stop-signal	42	203046	0.0-7.17-1.17	beast_fmri_test	162	200720,/,201399,/,202079,/,202759,/,203439,/,204119,/	t,t,t,t,t,t	<img class = center src='/static/experiments/beast_fmri_test/images/D.png'></img>	71,89	2750.0	test	<img class = center src='/static/experiments/beast_fmri_test/images/redD.png'></img>	stop	2250.0	2.0	17.0	stop	non-target	D	71,Index Finger	89,Middle Finger	450.0	500.0	2250.0	2250.0	0.0	500.0	n/a	1.0	go_stim
79324.308874000009	2250.0	n/a	-1	-1	2750	1381.691126	stim	stop-signal	42	203046	0.0-7.17-1.17	beast_fmri_test	162	200720,/,201399,/,202079,/,202759,/,203439,/,204119,/	t,t,t,t,t,t	<img class = center src='/static/experiments/beast_fmri_test/images/D.png'></img>	71,89	2750.0	test	<img class = center src='/static/experiments/beast_fmri_test/images/redD.png'></img>	stop	2250.0	2.0	17.0	stop	non-target	D	71,Index Finger	89,Middle Finger	450.0	500.0	2250.0	2250.0	0.0	500.0	n/a	1.0	stop_stim
79824.308874000009	1381.691126	n/a	-1	-1	2750	1381.691126	stim	stop-signal	42	203046	0.0-7.17-1.17	beast_fmri_test	162	200720,/,201399,/,202079,/,202759,/,203439,/,204119,/	t,t,t,t,t,t	<img class = center src='/static/experiments/beast_fmri_test/images/D.png'></img>	71,89	2750.0	test	<img class = center src='/static/experiments/beast_fmri_test/images/redD.png'></img>	stop	2250.0	2.0	17.0	stop	non-target	D	71,Index Finger	89,Middle Finger	450.0	500.0	2250.0	2250.0	0.0	500.0	n/a	1.0	ITI
83091	500.0	n/a	-1	-1	500	0.0	fixation	poldrack-single-stim	43	204931	0.0-7.18-0.18	beast_fmri_test	162	204799,/	t	<div class = centerbox2><div class = fixation>+</div></div>	none	500.0	test	n/a	n/a	n/a	n/a	n/a	n/a	n/a	n/a	n/a	n/a	n/a	n/a	n/a	n/a	n/a	n/a	n/a	n/a	fixation
79328.184003000002	2750.0	n/a	807	89	2750	3763.815997	stim	stop-signal	44	207682	0.0-7.18-1.18	beast_fmri_test	162	205479,/,206159,/,206838,/,207519,/,208199,/,208879,/,209559,/,210239,/,210919,/	t,t,t,t,t,t,t,t,t	<img class = center src='/static/experiments/beast_fmri_test/images/V.png'></img>	71,89	2750.0	test	<img class = center src='/static/experiments/beast_fmri_test/images/redV.png'></img>	go	2200.0	2.0	18.0	go	non-target	V	71,Index Finger	89,Middle Finger	450.0	550.0	2250.0	2200.0	1.0	550.0	1.0	n/a	go_stim
82078.184003000002	3763.815997	n/a	807	89	2750	3763.815997	stim	stop-signal	44	207682	0.0-7.18-1.18	beast_fmri_test	162	205479,/,206159,/,206838,/,207519,/,208199,/,208879,/,209559,/,210239,/,210919,/	t,t,t,t,t,t,t,t,t	<img class = center src='/static/experiments/beast_fmri_test/images/V.png'></img>	71,89	2750.0	test	<img class = center src='/static/experiments/beast_fmri_test/images/redV.png'></img>	go	2200.0	2.0	18.0	go	non-target	V	71,Index Finger	89,Middle Finger	450.0	550.0	2250.0	2200.0	1.0	550.0	1.0	n/a	ITI
90110	500.0	n/a	-1	-1	500	0.0	fixation	poldrack-single-stim	45	211950	0.0-7.19-0.19	beast_fmri_test	162	211599,/	t	<div class = centerbox2><div class = fixation>+</div></div>	none	500.0	test	n/a	n/a	n/a	n/a	n/a	n/a	n/a	n/a	n/a	n/a	n/a	n/a	n/a	n/a	n/a	n/a	n/a	n/a	fixation
85140.229801000009	2750.0	n/a	873	89	2750	4971.770199	stim	stop-signal	46	214702	0.0-7.19-1.19	beast_fmri_test	162	212279,/,212959,/,213638,/,214320,/,214999,/,215679,/,216359,/,217039,/,217719,/,218399,/,219079,/	t,t,t,t,t,t,t,t,t,t,t	<img class = center src='/static/experiments/beast_fmri_test/images/P.png'></img>	71,89	2750.0	test	<img class = center src='/static/experiments/beast_fmri_test/images/redP.png'></img>	go	2200.0	2.0	19.0	go	non-target	P	71,Index Finger	89,Middle Finger	450.0	550.0	2250.0	2200.0	1.0	550.0	1.0	n/a	go_stim
87890.229801000009	4971.770199	n/a	873	89	2750	4971.770199	stim	stop-signal	46	214702	0.0-7.19-1.19	beast_fmri_test	162	212279,/,212959,/,213638,/,214320,/,214999,/,215679,/,216359,/,217039,/,217719,/,218399,/,219079,/	t,t,t,t,t,t,t,t,t,t,t	<img class = center src='/static/experiments/beast_fmri_test/images/P.png'></img>	71,89	2750.0	test	<img class = center src='/static/experiments/beast_fmri_test/images/redP.png'></img>	go	2200.0	2.0	19.0	go	non-target	P	71,Index Finger	89,Middle Finger	450.0	550.0	2250.0	2200.0	1.0	550.0	1.0	n/a	ITI
98339	500.0	n/a	-1	-1	500	0.0	fixation	poldrack-single-stim	47	220179	0.0-7.20-0.20	beast_fmri_test	162	219760,/	t	<div class = centerbox2><div class = fixation>+</div></div>	none	500.0	test	n/a	n/a	n/a	n/a	n/a	n/a	n/a	n/a	n/a	n/a	n/a	n/a	n/a	n/a	n/a	n/a	n/a	n/a	fixation
97350.221442999988	2750.0	n/a	707	89	2750	990.778557	stim	stop-signal	48	222931	0.0-7.20-1.20	beast_fmri_test	162	220439,/,221120,/,221799,/,222479,/,223159,/,223839,/	t,t,t,t,t,t	<img class = center src='/static/experiments/beast_fmri_test/images/B.png'></img>	71,89	2750.0	test	<img class = center src='/static/experiments/beast_fmri_test/images/redB.png'></img>	go	2200.0	2.0	20.0	go	non-target	B	71,Index Finger	89,Middle Finger	450.0	550.0	2250.0	2200.0	1.0	550.0	1.0	n/a	go_stim
100100.22144299999	990.778557	n/a	707	89	2750	990.778557	stim	stop-signal	48	222931	0.0-7.20-1.20	beast_fmri_test	162	220439,/,221120,/,221799,/,222479,/,223159,/,223839,/	t,t,t,t,t,t	<img class = center src='/static/experiments/beast_fmri_test/images/B.png'></img>	71,89	2750.0	test	<img class = center src='/static/experiments/beast_fmri_test/images/redB.png'></img>	go	2200.0	2.0	20.0	go	non-target	B	71,Index Finger	89,Middle Finger	450.0	550.0	2250.0	2200.0	1.0	550.0	1.0	n/a	ITI
102587	500.0	n/a	-1	-1	500	0.0	fixation	poldrack-single-stim	49	224427	0.0-7.21-0.21	beast_fmri_test	162	n/a	n/a	<div class = centerbox2><div class = fixation>+</div></div>	none	500.0	test	n/a	n/a	n/a	n/a	n/a	n/a	n/a	n/a	n/a	n/a	n/a	n/a	n/a	n/a	n/a	n/a	n/a	n/a	fixation
102297.81804409999	450.0	n/a	-1	-1	2750	291.1819559	stim	stop-signal	50	227179	0.0-7.21-1.21	beast_fmri_test	162	224519,/,225199,/,225879,/,226559,/,227239,/	t,t,t,t,t	<img class = center src='/static/experiments/beast_fmri_test/images/P.png'></img>	71,89	2750.0	test	<img class = center src='/static/experiments/beast_fmri_test/images/redP.png'></img>	stop	2300.0	2.0	21.0	stop	target	P	71,Index Finger	89,Middle Finger	450.0	550.0	2300.0	2200.0	0.0	450.0	n/a	1.0	go_stim
104597.81804409999	2300.0	n/a	-1	-1	2750	291.1819559	stim	stop-signal	50	227179	0.0-7.21-1.21	beast_fmri_test	162	224519,/,225199,/,225879,/,226559,/,227239,/	t,t,t,t,t	<img class = center src='/static/experiments/beast_fmri_test/images/P.png'></img>	71,89	2750.0	test	<img class = center src='/static/experiments/beast_fmri_test/images/redP.png'></img>	stop	2300.0	2.0	21.0	stop	target	P	71,Index Finger	89,Middle Finger	450.0	550.0	2300.0	2200.0	0.0	450.0	n/a	1.0	stop_stim
105047.81804409999	291.1819559	n/a	-1	-1	2750	291.1819559	stim	stop-signal	50	227179	0.0-7.21-1.21	beast_fmri_test	162	224519,/,225199,/,225879,/,226559,/,227239,/	t,t,t,t,t	<img class = center src='/static/experiments/beast_fmri_test/images/P.png'></img>	71,89	2750.0	test	<img class = center src='/static/experiments/beast_fmri_test/images/redP.png'></img>	stop	2300.0	2.0	21.0	stop	target	P	71,Index Finger	89,Middle Finger	450.0	550.0	2300.0	2200.0	0.0	450.0	n/a	1.0	ITI
106134	500.0	n/a	-1	-1	500	0.0	fixation	poldrack-single-stim	51	227974	0.0-7.22-0.22	beast_fmri_test	162	227919,/	t	<div class = centerbox2><div class = fixation>+</div></div>	none	500.0	test	n/a	n/a	n/a	n/a	n/a	n/a	n/a	n/a	n/a	n/a	n/a	n/a	n/a	n/a	n/a	n/a	n/a	n/a	fixation
105157.16673339999	2750.0	n/a	695	89	2750	978.8332666	stim	stop-signal	52	230726	0.0-7.22-1.22	beast_fmri_test	162	228599,/,229279,/,229959,/,230639,/,231319,/	t,t,t,t,t	<img class = center src='/static/experiments/beast_fmri_test/images/T.png'></img>	71,89	2750.0	test	<img class = center src='/static/experiments/beast_fmri_test/images/redT.png'></img>	go	2200.0	2.0	22.0	go	non-target	T	71,Index Finger	89,Middle Finger	500.0	550.0	2300.0	2200.0	1.0	550.0	1.0	n/a	go_stim
107907.16673339999	978.8332666	n/a	695	89	2750	978.8332666	stim	stop-signal	52	230726	0.0-7.22-1.22	beast_fmri_test	162	228599,/,229279,/,229959,/,230639,/,231319,/	t,t,t,t,t	<img class = center src='/static/experiments/beast_fmri_test/images/T.png'></img>	71,89	2750.0	test	<img class = center src='/static/experiments/beast_fmri_test/images/redT.png'></img>	go	2200.0	2.0	22.0	go	non-target	T	71,Index Finger	89,Middle Finger	500.0	550.0	2300.0	2200.0	1.0	550.0	1.0	n/a	ITI
110369	500.0	n/a	-1	-1	500	0.0	fixation	poldrack-single-stim	53	232209	0.0-7.23-0.23	beast_fmri_test	162	231999,/	t	<div class = centerbox2><div class = fixation>+</div></div>	none	500.0	test	n/a	n/a	n/a	n/a	n/a	n/a	n/a	n/a	n/a	n/a	n/a	n/a	n/a	n/a	n/a	n/a	n/a	n/a	fixation
108553.91393499999	550.0	n/a	748	89	2750	1816.086065	stim	stop-signal	54	234960	0.0-7.23-1.23	beast_fmri_test	162	232679,/,233359,/,234039,/,234719,/,235399,/,236079,/,236759,/	t,t,t,t,t,t,t	<img class = center src='/static/experiments/beast_fmri_test/images/D.png'></img>	71,89	2750.0	test	<img class = center src='/static/experiments/beast_fmri_test/images/redD.png'></img>	stop	2200.0	2.0	23.0	stop	non-target	D	71,Index Finger	89,Middle Finger	500.0	550.0	2300.0	2200.0	0.0	550.0	n/a	0.0	go_stim
110753.91393499999	2200.0	n/a	748	89	2750	1816.086065	stim	stop-signal	54	234960	0.0-7.23-1.23	beast_fmri_test	162	232679,/,233359,/,234039,/,234719,/,235399,/,236079,/,236759,/	t,t,t,t,t,t,t	<img class = center src='/static/experiments/beast_fmri_test/images/D.png'></img>	71,89	2750.0	test	<img class = center src='/static/experiments/beast_fmri_test/images/redD.png'></img>	stop	2200.0	2.0	23.0	stop	non-target	D	71,Index Finger	89,Middle Finger	500.0	550.0	2300.0	2200.0	0.0	550.0	n/a	0.0	stop_stim
111303.91393499999	1816.086065	n/a	748	89	2750	1816.086065	stim	stop-signal	54	234960	0.0-7.23-1.23	beast_fmri_test	162	232679,/,233359,/,234039,/,234719,/,235399,/,236079,/,236759,/	t,t,t,t,t,t,t	<img class = center src='/static/experiments/beast_fmri_test/images/D.png'></img>	71,89	2750.0	test	<img class = center src='/static/experiments/beast_fmri_test/images/redD.png'></img>	stop	2200.0	2.0	23.0	stop	non-target	D	71,Index Finger	89,Middle Finger	500.0	550.0	2300.0	2200.0	0.0	550.0	n/a	0.0	ITI
115440	500.0	n/a	-1	-1	500	0.0	fixation	poldrack-single-stim	55	237280	0.0-7.24-0.24	beast_fmri_test	162	n/a	n/a	<div class = centerbox2><div class = fixation>+</div></div>	none	500.0	test	n/a	n/a	n/a	n/a	n/a	n/a	n/a	n/a	n/a	n/a	n/a	n/a	n/a	n/a	n/a	n/a	n/a	n/a	fixation
114242.72309000001	500.0	n/a	-1	-1	2750	1199.27691	stim	stop-signal	56	240032	0.0-7.24-1.24	beast_fmri_test	162	237439,/,238119,/,238799,/,239479,/,240159,/,240839,/	t,t,t,t,t,t	<img class = center src='/static/experiments/beast_fmri_test/images/B.png'></img>	71,89	2750.0	test	<img class = center src='/static/experiments/beast_fmri_test/images/redB.png'></img>	stop	2250.0	2.0	24.0	stop	non-target	B	71,Index Finger	89,Middle Finger	500.0	500.0	2300.0	2250.0	0.0	500.0	n/a	1.0	go_stim
116492.72309000001	2250.0	n/a	-1	-1	2750	1199.27691	stim	stop-signal	56	240032	0.0-7.24-1.24	beast_fmri_test	162	237439,/,238119,/,238799,/,239479,/,240159,/,240839,/	t,t,t,t,t,t	<img class = center src='/static/experiments/beast_fmri_test/images/B.png'></img>	71,89	2750.0	test	<img class = center src='/static/experiments/beast_fmri_test/images/redB.png'></img>	stop	2250.0	2.0	24.0	stop	non-target	B	71,Index Finger	89,Middle Finger	500.0	500.0	2300.0	2250.0	0.0	500.0	n/a	1.0	stop_stim
116992.72309000001	1199.27691	n/a	-1	-1	2750	1199.27691	stim	stop-signal	56	240032	0.0-7.24-1.24	beast_fmri_test	162	237439,/,238119,/,238799,/,239479,/,240159,/,240839,/	t,t,t,t,t,t	<img class = center src='/static/experiments/beast_fmri_test/images/B.png'></img>	71,89	2750.0	test	<img class = center src='/static/experiments/beast_fmri_test/images/redB.png'></img>	stop	2250.0	2.0	24.0	stop	non-target	B	71,Index Finger	89,Middle Finger	500.0	500.0	2300.0	2250.0	0.0	500.0	n/a	1.0	ITI
119895	500.0	n/a	-1	-1	500	0.0	fixation	poldrack-single-stim	57	241735	0.0-7.25-0.25	beast_fmri_test	162	241520,/	t	<div class = centerbox2><div class = fixation>+</div></div>	none	500.0	test	n/a	n/a	n/a	n/a	n/a	n/a	n/a	n/a	n/a	n/a	n/a	n/a	n/a	n/a	n/a	n/a	n/a	n/a	fixation
118510.45861199999	550.0	n/a	880	89	2750	1386.541388	stim	stop-signal	58	244487	0.0-7.25-1.25	beast_fmri_test	162	242199,/,242878,/,243558,/,244238,/,244918,/,245599,/	t,t,t,t,t,t	<img class = center src='/static/experiments/beast_fmri_test/images/P.png'></img>	71,89	2750.0	test	<img class = center src='/static/experiments/beast_fmri_test/images/redP.png'></img>	stop	2200.0	2.0	25.0	stop	non-target	P	71,Index Finger	89,Middle Finger	500.0	550.0	2300.0	2200.0	0.0	550.0	n/a	0.0	go_stim
120710.45861199999	2200.0	n/a	880	89	2750	1386.541388	stim	stop-signal	58	244487	0.0-7.25-1.25	beast_fmri_test	162	242199,/,242878,/,243558,/,244238,/,244918,/,245599,/	t,t,t,t,t,t	<img class = center src='/static/experiments/beast_fmri_test/images/P.png'></img>	71,89	2750.0	test	<img class = center src='/static/experiments/beast_fmri_test/images/redP.png'></img>	stop	2200.0	2.0	25.0	stop	non-target	P	71,Index Finger	89,Middle Finger	500.0	550.0	2300.0	2200.0	0.0	550.0	n/a	0.0	stop_stim
121260.45861199999	1386.541388	n/a	880	89	2750	1386.541388	stim	stop-signal	58	244487	0.0-7.25-1.25	beast_fmri_test	162	242199,/,242878,/,243558,/,244238,/,244918,/,245599,/	t,t,t,t,t,t	<img class = center src='/static/experiments/beast_fmri_test/images/P.png'></img>	71,89	2750.0	test	<img class = center src='/static/experiments/beast_fmri_test/images/redP.png'></img>	stop	2200.0	2.0	25.0	stop	non-target	P	71,Index Finger	89,Middle Finger	500.0	550.0	2300.0	2200.0	0.0	550.0	n/a	0.0	ITI
124540	500.0	n/a	-1	-1	500	0.0	fixation	poldrack-single-stim	59	246380	0.0-7.26-0.26	beast_fmri_test	162	246278,/	t	<div class = centerbox2><div class = fixation>+</div></div>	none	500.0	test	n/a	n/a	n/a	n/a	n/a	n/a	n/a	n/a	n/a	n/a	n/a	n/a	n/a	n/a	n/a	n/a	n/a	n/a	fixation
124186.64508059999	2750.0	n/a	1109	89	2750	355.3549194	stim	stop-signal	60	249132	0.0-7.26-1.26	beast_fmri_test	162	246959,/,247638,/,248320,/,248999,/	t,t,t,t	<img class = center src='/static/experiments/beast_fmri_test/images/T.png'></img>	71,89	2750.0	test	<img class = center src='/static/experiments/beast_fmri_test/images/redT.png'></img>	go	2250.0	2.0	26.0	go	non-target	T	71,Index Finger	89,Middle Finger	500.0	500.0	2300.0	2250.0	1.0	500.0	1.0	n/a	go_stim
126936.64508059999	355.3549194	n/a	1109	89	2750	355.3549194	stim	stop-signal	60	249132	0.0-7.26-1.26	beast_fmri_test	162	246959,/,247638,/,248320,/,248999,/	t,t,t,t	<img class = center src='/static/experiments/beast_fmri_test/images/T.png'></img>	71,89	2750.0	test	<img class = center src='/static/experiments/beast_fmri_test/images/redT.png'></img>	go	2250.0	2.0	26.0	go	non-target	T	71,Index Finger	89,Middle Finger	500.0	500.0	2300.0	2250.0	1.0	500.0	1.0	n/a	ITI
128152	500.0	n/a	-1	-1	500	0.0	fixation	poldrack-single-stim	61	249992	0.0-7.27-0.27	beast_fmri_test	162	249680,/	t	<div class = centerbox2><div class = fixation>+</div></div>	none	500.0	test	n/a	n/a	n/a	n/a	n/a	n/a	n/a	n/a	n/a	n/a	n/a	n/a	n/a	n/a	n/a	n/a	n/a	n/a	fixation
127320.72293650001	2750.0	n/a	1574	71	2750	834.2770635	stim	stop-signal	62	252745	0.0-7.27-1.27	beast_fmri_test	162	250359,/,251040,/,251719,/,252399,/,253079,/	t,t,t,t,t	<img class = center src='/static/experiments/beast_fmri_test/images/P.png'></img>	71,89	2750.0	test	<img class = center src='/static/experiments/beast_fmri_test/images/redP.png'></img>	go	2250.0	2.0	27.0	go	target	P	71,Index Finger	89,Middle Finger	500.0	500.0	2250.0	2250.0	1.0	500.0	1.0	n/a	go_stim
130070.72293650001	834.2770635	n/a	1574	71	2750	834.2770635	stim	stop-signal	62	252745	0.0-7.27-1.27	beast_fmri_test	162	250359,/,251040,/,251719,/,252399,/,253079,/	t,t,t,t,t	<img class = center src='/static/experiments/beast_fmri_test/images/P.png'></img>	71,89	2750.0	test	<img class = center src='/static/experiments/beast_fmri_test/images/redP.png'></img>	go	2250.0	2.0	27.0	go	target	P	71,Index Finger	89,Middle Finger	500.0	500.0	2250.0	2250.0	1.0	500.0	1.0	n/a	ITI
132243	500.0	n/a	-1	-1	500	0.0	fixation	poldrack-single-stim	63	254083	0.0-7.28-0.28	beast_fmri_test	162	253760,/	t	<div class = centerbox2><div class = fixation>+</div></div>	none	500.0	test	n/a	n/a	n/a	n/a	n/a	n/a	n/a	n/a	n/a	n/a	n/a	n/a	n/a	n/a	n/a	n/a	n/a	n/a	fixation
131998.06856019999	2750.0	n/a	992	89	2750	247.9314398	stim	stop-signal	64	256836	0.0-7.28-1.28	beast_fmri_test	162	254439,/,255119,/,255799,/,256479,/	t,t,t,t	<img class = center src='/static/experiments/beast_fmri_test/images/B.png'></img>	71,89	2750.0	test	<img class = center src='/static/experiments/beast_fmri_test/images/redB.png'></img>	go	2250.0	2.0	28.0	go	non-target	B	71,Index Finger	89,Middle Finger	500.0	500.0	2250.0	2250.0	1.0	500.0	1.0	n/a	go_stim
134748.06856019999	247.9314398	n/a	992	89	2750	247.9314398	stim	stop-signal	64	256836	0.0-7.28-1.28	beast_fmri_test	162	254439,/,255119,/,255799,/,256479,/	t,t,t,t	<img class = center src='/static/experiments/beast_fmri_test/images/B.png'></img>	71,89	2750.0	test	<img class = center src='/static/experiments/beast_fmri_test/images/redB.png'></img>	go	2250.0	2.0	28.0	go	non-target	B	71,Index Finger	89,Middle Finger	500.0	500.0	2250.0	2250.0	1.0	500.0	1.0	n/a	ITI
135749	500.0	n/a	-1	-1	500	0.0	fixation	poldrack-single-stim	65	257589	0.0-7.29-0.29	beast_fmri_test	162	257160,/	t	<div class = centerbox2><div class = fixation>+</div></div>	none	500.0	test	n/a	n/a	n/a	n/a	n/a	n/a	n/a	n/a	n/a	n/a	n/a	n/a	n/a	n/a	n/a	n/a	n/a	n/a	fixation
133966.70301100001	2750.0	n/a	941	89	2750	1784.296989	stim	stop-signal	66	260341	0.0-7.29-1.29	beast_fmri_test	162	257839,/,258519,/,259199,/,259879,/,260559,/,261239,/,261920,/	t,t,t,t,t,t,t	<img class = center src='/static/experiments/beast_fmri_test/images/B.png'></img>	71,89	2750.0	test	<img class = center src='/static/experiments/beast_fmri_test/images/redB.png'></img>	go	2250.0	2.0	29.0	go	non-target	B	71,Index Finger	89,Middle Finger	500.0	500.0	2250.0	2250.0	1.0	500.0	1.0	n/a	go_stim
136716.70301100001	1784.296989	n/a	941	89	2750	1784.296989	stim	stop-signal	66	260341	0.0-7.29-1.29	beast_fmri_test	162	257839,/,258519,/,259199,/,259879,/,260559,/,261239,/,261920,/	t,t,t,t,t,t,t	<img class = center src='/static/experiments/beast_fmri_test/images/B.png'></img>	71,89	2750.0	test	<img class = center src='/static/experiments/beast_fmri_test/images/redB.png'></img>	go	2250.0	2.0	29.0	go	non-target	B	71,Index Finger	89,Middle Finger	500.0	500.0	2250.0	2250.0	1.0	500.0	1.0	n/a	ITI
140790	500.0	n/a	-1	-1	500	0.0	fixation	poldrack-single-stim	67	262630	0.0-7.30-0.30	beast_fmri_test	162	262599,/	t	<div class = centerbox2><div class = fixation>+</div></div>	none	500.0	test	n/a	n/a	n/a	n/a	n/a	n/a	n/a	n/a	n/a	n/a	n/a	n/a	n/a	n/a	n/a	n/a	n/a	n/a	fixation
139800.97056410002	500.0	n/a	891	71	2750	991.0294359	stim	stop-signal	68	265382	0.0-7.30-1.30	beast_fmri_test	162	263279,/,263959,/,264639,/,265319,/,265999,/	t,t,t,t,t	<img class = center src='/static/experiments/beast_fmri_test/images/B.png'></img>	71,89	2750.0	test	<img class = center src='/static/experiments/beast_fmri_test/images/redB.png'></img>	stop	2250.0	2.0	30.0	stop	target	B	71,Index Finger	89,Middle Finger	500.0	500.0	2250.0	2250.0	0.0	500.0	n/a	0.0	go_stim
142050.97056410002	2250.0	n/a	891	71	2750	991.0294359	stim	stop-signal	68	265382	0.0-7.30-1.30	beast_fmri_test	162	263279,/,263959,/,264639,/,265319,/,265999,/	t,t,t,t,t	<img class = center src='/static/experiments/beast_fmri_test/images/B.png'></img>	71,89	2750.0	test	<img class = center src='/static/experiments/beast_fmri_test/images/redB.png'></img>	stop	2250.0	2.0	30.0	stop	target	B	71,Index Finger	89,Middle Finger	500.0	500.0	2250.0	2250.0	0.0	500.0	n/a	0.0	stop_stim
142550.97056410002	991.0294359	n/a	891	71	2750	991.0294359	stim	stop-signal	68	265382	0.0-7.30-1.30	beast_fmri_test	162	263279,/,263959,/,264639,/,265319,/,265999,/	t,t,t,t,t	<img class = center src='/static/experiments/beast_fmri_test/images/B.png'></img>	71,89	2750.0	test	<img class = center src='/static/experiments/beast_fmri_test/images/redB.png'></img>	stop	2250.0	2.0	30.0	stop	target	B	71,Index Finger	89,Middle Finger	500.0	500.0	2250.0	2250.0	0.0	500.0	n/a	0.0	ITI
145040	500.0	n/a	-1	-1	500	0.0	fixation	poldrack-single-stim	69	266880	0.0-7.31-0.31	beast_fmri_test	162	266679,/	t	<div class = centerbox2><div class = fixation>+</div></div>	none	500.0	test	n/a	n/a	n/a	n/a	n/a	n/a	n/a	n/a	n/a	n/a	n/a	n/a	n/a	n/a	n/a	n/a	n/a	n/a	fixation
144983.20634217001	2750.0	n/a	933	71	2750	57.79365783	stim	stop-signal	70	269631	0.0-7.31-1.31	beast_fmri_test	162	267359,/,268039,/,268719,/,269399,/	t,t,t,t	<img class = center src='/static/experiments/beast_fmri_test/images/B.png'></img>	71,89	2750.0	test	<img class = center src='/static/experiments/beast_fmri_test/images/redB.png'></img>	go	2300.0	2.0	31.0	go	target	B	71,Index Finger	89,Middle Finger	450.0	500.0	2300.0	2250.0	1.0	450.0	1.0	n/a	go_stim
147733.20634217001	57.79365783	n/a	933	71	2750	57.79365783	stim	stop-signal	70	269631	0.0-7.31-1.31	beast_fmri_test	162	267359,/,268039,/,268719,/,269399,/	t,t,t,t	<img class = center src='/static/experiments/beast_fmri_test/images/B.png'></img>	71,89	2750.0	test	<img class = center src='/static/experiments/beast_fmri_test/images/redB.png'></img>	go	2300.0	2.0	31.0	go	target	B	71,Index Finger	89,Middle Finger	450.0	500.0	2300.0	2250.0	1.0	450.0	1.0	n/a	ITI
148353	500.0	n/a	-1	-1	500	0.0	fixation	poldrack-single-stim	71	270193	0.0-7.32-0.32	beast_fmri_test	162	270079,/	t	<div class = centerbox2><div class = fixation>+</div></div>	none	500.0	test	n/a	n/a	n/a	n/a	n/a	n/a	n/a	n/a	n/a	n/a	n/a	n/a	n/a	n/a	n/a	n/a	n/a	n/a	fixation
148310.06350882002	2750.0	n/a	1184	89	2750	44.93649118	stim	stop-signal	72	272945	0.0-7.32-1.32	beast_fmri_test	162	270759,/,271439,/,272119,/,272799,/	t,t,t,t	<img class = center src='/static/experiments/beast_fmri_test/images/D.png'></img>	71,89	2750.0	test	<img class = center src='/static/experiments/beast_fmri_test/images/redD.png'></img>	go	2250.0	2.0	32.0	go	non-target	D	71,Index Finger	89,Middle Finger	450.0	500.0	2300.0	2250.0	1.0	500.0	1.0	n/a	go_stim
151060.06350882002	44.93649118	n/a	1184	89	2750	44.93649118	stim	stop-signal	72	272945	0.0-7.32-1.32	beast_fmri_test	162	270759,/,271439,/,272119,/,272799,/	t,t,t,t	<img class = center src='/static/experiments/beast_fmri_test/images/D.png'></img>	71,89	2750.0	test	<img class = center src='/static/experiments/beast_fmri_test/images/redD.png'></img>	go	2250.0	2.0	32.0	go	non-target	D	71,Index Finger	89,Middle Finger	450.0	500.0	2300.0	2250.0	1.0	500.0	1.0	n/a	ITI
151656	500.0	n/a	-1	-1	500	0.0	fixation	poldrack-single-stim	73	273496	0.0-7.33-0.33	beast_fmri_test	162	273479,/	t	<div class = centerbox2><div class = fixation>+</div></div>	none	500.0	test	n/a	n/a	n/a	n/a	n/a	n/a	n/a	n/a	n/a	n/a	n/a	n/a	n/a	n/a	n/a	n/a	n/a	n/a	fixation
150469.66881100001	500.0	n/a	1696	89	2750	1188.331189	stim	stop-signal	74	276248	0.0-7.33-1.33	beast_fmri_test	162	274158,/,274839,/,275519,/,276198,/,276879,/	t,t,t,t,t	<img class = center src='/static/experiments/beast_fmri_test/images/V.png'></img>	71,89	2750.0	test	<img class = center src='/static/experiments/beast_fmri_test/images/redV.png'></img>	stop	2250.0	2.0	33.0	stop	non-target	V	71,Index Finger	89,Middle Finger	450.0	500.0	2300.0	2250.0	0.0	500.0	n/a	0.0	go_stim
152719.66881100001	2250.0	n/a	1696	89	2750	1188.331189	stim	stop-signal	74	276248	0.0-7.33-1.33	beast_fmri_test	162	274158,/,274839,/,275519,/,276198,/,276879,/	t,t,t,t,t	<img class = center src='/static/experiments/beast_fmri_test/images/V.png'></img>	71,89	2750.0	test	<img class = center src='/static/experiments/beast_fmri_test/images/redV.png'></img>	stop	2250.0	2.0	33.0	stop	non-target	V	71,Index Finger	89,Middle Finger	450.0	500.0	2300.0	2250.0	0.0	500.0	n/a	0.0	stop_stim
153219.66881100001	1188.331189	n/a	1696	89	2750	1188.331189	stim	stop-signal	74	276248	0.0-7.33-1.33	beast_fmri_test	162	274158,/,274839,/,275519,/,276198,/,276879,/	t,t,t,t,t	<img class = center src='/static/experiments/beast_fmri_test/images/V.png'></img>	71,89	2750.0	test	<img class = center src='/static/experiments/beast_fmri_test/images/redV.png'></img>	stop	2250.0	2.0	33.0	stop	non-target	V	71,Index Finger	89,Middle Finger	450.0	500.0	2300.0	2250.0	0.0	500.0	n/a	0.0	ITI
156102	500.0	n/a	-1	-1	500	0.0	fixation	poldrack-single-stim	75	277942	0.0-7.34-0.34	beast_fmri_test	162	277558,/	t	<div class = centerbox2><div class = fixation>+</div></div>	none	500.0	test	n/a	n/a	n/a	n/a	n/a	n/a	n/a	n/a	n/a	n/a	n/a	n/a	n/a	n/a	n/a	n/a	n/a	n/a	fixation
155865.19164719997	450.0	n/a	-1	-1	2750	238.8083528	stim	stop-signal	76	280694	0.0-7.34-1.34	beast_fmri_test	162	278239,/,278920,/,279599,/,280279,/	t,t,t,t	<img class = center src='/static/experiments/beast_fmri_test/images/V.png'></img>	71,89	2750.0	test	<img class = center src='/static/experiments/beast_fmri_test/images/redV.png'></img>	stop	2300.0	2.0	34.0	stop	non-target	V	71,Index Finger	89,Middle Finger	450.0	450.0	2300.0	2300.0	0.0	450.0	n/a	1.0	go_stim
158165.19164719997	2300.0	n/a	-1	-1	2750	238.8083528	stim	stop-signal	76	280694	0.0-7.34-1.34	beast_fmri_test	162	278239,/,278920,/,279599,/,280279,/	t,t,t,t	<img class = center src='/static/experiments/beast_fmri_test/images/V.png'></img>	71,89	2750.0	test	<img class = center src='/static/experiments/beast_fmri_test/images/redV.png'></img>	stop	2300.0	2.0	34.0	stop	non-target	V	71,Index Finger	89,Middle Finger	450.0	450.0	2300.0	2300.0	0.0	450.0	n/a	1.0	stop_stim
158615.19164719997	238.8083528	n/a	-1	-1	2750	238.8083528	stim	stop-signal	76	280694	0.0-7.34-1.34	beast_fmri_test	162	278239,/,278920,/,279599,/,280279,/	t,t,t,t	<img class = center src='/static/experiments/beast_fmri_test/images/V.png'></img>	71,89	2750.0	test	<img class = center src='/static/experiments/beast_fmri_test/images/redV.png'></img>	stop	2300.0	2.0	34.0	stop	non-target	V	71,Index Finger	89,Middle Finger	450.0	450.0	2300.0	2300.0	0.0	450.0	n/a	1.0	ITI
159596	500.0	n/a	-1	-1	500	0.0	fixation	poldrack-single-stim	77	281436	0.0-7.35-0.35	beast_fmri_test	162	280959,/	t	<div class = centerbox2><div class = fixation>+</div></div>	none	500.0	test	n/a	n/a	n/a	n/a	n/a	n/a	n/a	n/a	n/a	n/a	n/a	n/a	n/a	n/a	n/a	n/a	n/a	n/a	fixation
158157.95744000003	500.0	n/a	-1	-1	2750	1439.04256	stim	stop-signal	78	284187	0.0-7.35-1.35	beast_fmri_test	162	281640,/,282321,/,283000,/,283679,/,284359,/,285040,/	t,t,t,t,t,t	<img class = center src='/static/experiments/beast_fmri_test/images/T.png'></img>	71,89	2750.0	test	<img class = center src='/static/experiments/beast_fmri_test/images/redT.png'></img>	stop	2250.0	2.0	35.0	stop	non-target	T	71,Index Finger	89,Middle Finger	450.0	500.0	2300.0	2250.0	0.0	500.0	n/a	1.0	go_stim
160407.95744000003	2250.0	n/a	-1	-1	2750	1439.04256	stim	stop-signal	78	284187	0.0-7.35-1.35	beast_fmri_test	162	281640,/,282321,/,283000,/,283679,/,284359,/,285040,/	t,t,t,t,t,t	<img class = center src='/static/experiments/beast_fmri_test/images/T.png'></img>	71,89	2750.0	test	<img class = center src='/static/experiments/beast_fmri_test/images/redT.png'></img>	stop	2250.0	2.0	35.0	stop	non-target	T	71,Index Finger	89,Middle Finger	450.0	500.0	2300.0	2250.0	0.0	500.0	n/a	1.0	stop_stim
160907.95744000003	1439.04256	n/a	-1	-1	2750	1439.04256	stim	stop-signal	78	284187	0.0-7.35-1.35	beast_fmri_test	162	281640,/,282321,/,283000,/,283679,/,284359,/,285040,/	t,t,t,t,t,t	<img class = center src='/static/experiments/beast_fmri_test/images/T.png'></img>	71,89	2750.0	test	<img class = center src='/static/experiments/beast_fmri_test/images/redT.png'></img>	stop	2250.0	2.0	35.0	stop	non-target	T	71,Index Finger	89,Middle Finger	450.0	500.0	2300.0	2250.0	0.0	500.0	n/a	1.0	ITI
164292	500.0	n/a	-1	-1	500	0.0	fixation	poldrack-single-stim	79	286132	0.0-7.36-0.36	beast_fmri_test	162	285720,/	t	<div class = centerbox2><div class = fixation>+</div></div>	none	500.0	test	n/a	n/a	n/a	n/a	n/a	n/a	n/a	n/a	n/a	n/a	n/a	n/a	n/a	n/a	n/a	n/a	n/a	n/a	fixation
162331.29216200003	2750.0	n/a	1044	71	2750	1962.707838	stim	stop-signal	80	288884	0.0-7.36-1.36	beast_fmri_test	162	286399,/,287080,/,287760,/,288439,/,289119,/,289799,/,290479,/	t,t,t,t,t,t,t	<img class = center src='/static/experiments/beast_fmri_test/images/V.png'></img>	71,89	2750.0	test	<img class = center src='/static/experiments/beast_fmri_test/images/redV.png'></img>	go	2300.0	2.0	36.0	go	target	V	71,Index Finger	89,Middle Finger	450.0	550.0	2300.0	2250.0	1.0	450.0	1.0	n/a	go_stim
165081.29216200003	1962.707838	n/a	1044	71	2750	1962.707838	stim	stop-signal	80	288884	0.0-7.36-1.36	beast_fmri_test	162	286399,/,287080,/,287760,/,288439,/,289119,/,289799,/,290479,/	t,t,t,t,t,t,t	<img class = center src='/static/experiments/beast_fmri_test/images/V.png'></img>	71,89	2750.0	test	<img class = center src='/static/experiments/beast_fmri_test/images/redV.png'></img>	go	2300.0	2.0	36.0	go	target	V	71,Index Finger	89,Middle Finger	450.0	550.0	2300.0	2250.0	1.0	450.0	1.0	n/a	ITI
169511	500.0	n/a	-1	-1	500	0.0	fixation	poldrack-single-stim	81	291351	0.0-7.37-0.37	beast_fmri_test	162	291160,/	t	<div class = centerbox2><div class = fixation>+</div></div>	none	500.0	test	n/a	n/a	n/a	n/a	n/a	n/a	n/a	n/a	n/a	n/a	n/a	n/a	n/a	n/a	n/a	n/a	n/a	n/a	fixation
164516.37154700002	2750.0	n/a	698	71	2750	4996.628453	stim	stop-signal	82	294103	0.0-7.37-1.37	beast_fmri_test	162	291839,/,292520,/,293199,/,293879,/,294559,/,295239,/,295919,/,296599,/,297279,/,297959,/,298639,/	t,t,t,t,t,t,t,t,t,t,t	<img class = center src='/static/experiments/beast_fmri_test/images/T.png'></img>	71,89	2750.0	test	<img class = center src='/static/experiments/beast_fmri_test/images/redT.png'></img>	go	2300.0	2.0	37.0	go	target	T	71,Index Finger	89,Middle Finger	450.0	550.0	2300.0	2250.0	1.0	450.0	1.0	n/a	go_stim
167266.37154700002	4996.628453	n/a	698	71	2750	4996.628453	stim	stop-signal	82	294103	0.0-7.37-1.37	beast_fmri_test	162	291839,/,292520,/,293199,/,293879,/,294559,/,295239,/,295919,/,296599,/,297279,/,297959,/,298639,/	t,t,t,t,t,t,t,t,t,t,t	<img class = center src='/static/experiments/beast_fmri_test/images/T.png'></img>	71,89	2750.0	test	<img class = center src='/static/experiments/beast_fmri_test/images/redT.png'></img>	go	2300.0	2.0	37.0	go	target	T	71,Index Finger	89,Middle Finger	450.0	550.0	2300.0	2250.0	1.0	450.0	1.0	n/a	ITI
177764	500.0	n/a	-1	-1	500	0.0	fixation	poldrack-single-stim	83	299604	0.0-7.38-0.38	beast_fmri_test	162	299319,/	t	<div class = centerbox2><div class = fixation>+</div></div>	none	500.0	test	n/a	n/a	n/a	n/a	n/a	n/a	n/a	n/a	n/a	n/a	n/a	n/a	n/a	n/a	n/a	n/a	n/a	n/a	fixation
176053.95298200002	550.0	n/a	-1	-1	2750	1712.047018	stim	stop-signal	84	302356	0.0-7.38-1.38	beast_fmri_test	162	299999,/,300679,/,301359,/,302039,/,302719,/,303399,/	t,t,t,t,t,t	<img class = center src='/static/experiments/beast_fmri_test/images/T.png'></img>	71,89	2750.0	test	<img class = center src='/static/experiments/beast_fmri_test/images/redT.png'></img>	stop	2200.0	2.0	38.0	stop	non-target	T	71,Index Finger	89,Middle Finger	450.0	550.0	2300.0	2200.0	0.0	550.0	n/a	1.0	go_stim
178253.95298200002	2200.0	n/a	-1	-1	2750	1712.047018	stim	stop-signal	84	302356	0.0-7.38-1.38	beast_fmri_test	162	299999,/,300679,/,301359,/,302039,/,302719,/,303399,/	t,t,t,t,t,t	<img class = center src='/static/experiments/beast_fmri_test/images/T.png'></img>	71,89	2750.0	test	<img class = center src='/static/experiments/beast_fmri_test/images/redT.png'></img>	stop	2200.0	2.0	38.0	stop	non-target	T	71,Index Finger	89,Middle Finger	450.0	550.0	2300.0	2200.0	0.0	550.0	n/a	1.0	stop_stim
178803.95298200002	1712.047018	n/a	-1	-1	2750	1712.047018	stim	stop-signal	84	302356	0.0-7.38-1.38	beast_fmri_test	162	299999,/,300679,/,301359,/,302039,/,302719,/,303399,/	t,t,t,t,t,t	<img class = center src='/static/experiments/beast_fmri_test/images/T.png'></img>	71,89	2750.0	test	<img class = center src='/static/experiments/beast_fmri_test/images/redT.png'></img>	stop	2200.0	2.0	38.0	stop	non-target	T	71,Index Finger	89,Middle Finger	450.0	550.0	2300.0	2200.0	0.0	550.0	n/a	1.0	ITI
182734	500.0	n/a	-1	-1	500	0.0	fixation	poldrack-single-stim	85	304574	0.0-7.39-0.39	beast_fmri_test	162	304078,/	t	<div class = centerbox2><div class = fixation>+</div></div>	none	500.0	test	n/a	n/a	n/a	n/a	n/a	n/a	n/a	n/a	n/a	n/a	n/a	n/a	n/a	n/a	n/a	n/a	n/a	n/a	fixation
182330.5881394	600.0	n/a	-1	-1	2750	405.4118606	stim	stop-signal	86	307326	0.0-7.39-1.39	beast_fmri_test	162	304759,/,305439,/,306119,/,306799,/,307478,/	t,t,t,t,t	<img class = center src='/static/experiments/beast_fmri_test/images/B.png'></img>	71,89	2750.0	test	<img class = center src='/static/experiments/beast_fmri_test/images/redB.png'></img>	stop	2150.0	2.0	39.0	stop	non-target	B	71,Index Finger	89,Middle Finger	450.0	600.0	2300.0	2150.0	0.0	600.0	n/a	1.0	go_stim
184480.5881394	2150.0	n/a	-1	-1	2750	405.4118606	stim	stop-signal	86	307326	0.0-7.39-1.39	beast_fmri_test	162	304759,/,305439,/,306119,/,306799,/,307478,/	t,t,t,t,t	<img class = center src='/static/experiments/beast_fmri_test/images/B.png'></img>	71,89	2750.0	test	<img class = center src='/static/experiments/beast_fmri_test/images/redB.png'></img>	stop	2150.0	2.0	39.0	stop	non-target	B	71,Index Finger	89,Middle Finger	450.0	600.0	2300.0	2150.0	0.0	600.0	n/a	1.0	stop_stim
185080.5881394	405.4118606	n/a	-1	-1	2750	405.4118606	stim	stop-signal	86	307326	0.0-7.39-1.39	beast_fmri_test	162	304759,/,305439,/,306119,/,306799,/,307478,/	t,t,t,t,t	<img class = center src='/static/experiments/beast_fmri_test/images/B.png'></img>	71,89	2750.0	test	<img class = center src='/static/experiments/beast_fmri_test/images/redB.png'></img>	stop	2150.0	2.0	39.0	stop	non-target	B	71,Index Finger	89,Middle Finger	450.0	600.0	2300.0	2150.0	0.0	600.0	n/a	1.0	ITI
186395	500.0	n/a	-1	-1	500	0.0	fixation	poldrack-single-stim	87	308235	0.0-7.40-0.40	beast_fmri_test	162	308159,/	t	<div class = centerbox2><div class = fixation>+</div></div>	none	500.0	test	n/a	n/a	n/a	n/a	n/a	n/a	n/a	n/a	n/a	n/a	n/a	n/a	n/a	n/a	n/a	n/a	n/a	n/a	fixation
185534.95393189997	2750.0	n/a	1774	71	2750	862.0460681	stim	stop-signal	88	310987	0.0-7.40-1.40	beast_fmri_test	162	308839,/,309519,/,310198,/,310879,/,311558,/	t,t,t,t,t	<img class = center src='/static/experiments/beast_fmri_test/images/T.png'></img>	71,89	2750.0	test	<img class = center src='/static/experiments/beast_fmri_test/images/redT.png'></img>	go	2300.0	2.0	40.0	go	target	T	71,Index Finger	89,Middle Finger	450.0	650.0	2300.0	2150.0	1.0	450.0	1.0	n/a	go_stim
188284.95393189997	862.0460681	n/a	1774	71	2750	862.0460681	stim	stop-signal	88	310987	0.0-7.40-1.40	beast_fmri_test	162	308839,/,309519,/,310198,/,310879,/,311558,/	t,t,t,t,t	<img class = center src='/static/experiments/beast_fmri_test/images/T.png'></img>	71,89	2750.0	test	<img class = center src='/static/experiments/beast_fmri_test/images/redT.png'></img>	go	2300.0	2.0	40.0	go	target	T	71,Index Finger	89,Middle Finger	450.0	650.0	2300.0	2150.0	1.0	450.0	1.0	n/a	ITI
190515	500.0	n/a	-1	-1	500	0.0	fixation	poldrack-single-stim	89	312355	0.0-7.41-0.41	beast_fmri_test	162	312239,/	t	<div class = centerbox2><div class = fixation>+</div></div>	none	500.0	test	n/a	n/a	n/a	n/a	n/a	n/a	n/a	n/a	n/a	n/a	n/a	n/a	n/a	n/a	n/a	n/a	n/a	n/a	fixation
189497.42853899999	2750.0	n/a	2238	89	2750	1019.571461	stim	stop-signal	90	315107	0.0-7.41-1.41	beast_fmri_test	162	312920,/,313599,/,314280,/,314959,/,315640,/	t,t,t,t,t	<img class = center src='/static/experiments/beast_fmri_test/images/V.png'></img>	71,89	2750.0	test	<img class = center src='/static/experiments/beast_fmri_test/images/redV.png'></img>	go	2100.0	2.0	41.0	go	non-target	V	71,Index Finger	89,Middle Finger	450.0	650.0	2300.0	2100.0	1.0	650.0	1.0	n/a	go_stim
192247.42853899999	1019.571461	n/a	2238	89	2750	1019.571461	stim	stop-signal	90	315107	0.0-7.41-1.41	beast_fmri_test	162	312920,/,313599,/,314280,/,314959,/,315640,/	t,t,t,t,t	<img class = center src='/static/experiments/beast_fmri_test/images/V.png'></img>	71,89	2750.0	test	<img class = center src='/static/experiments/beast_fmri_test/images/redV.png'></img>	go	2100.0	2.0	41.0	go	non-target	V	71,Index Finger	89,Middle Finger	450.0	650.0	2300.0	2100.0	1.0	650.0	1.0	n/a	ITI
194792	500.0	n/a	-1	-1	500	0.0	fixation	poldrack-single-stim	91	316632	0.0-7.42-0.42	beast_fmri_test	162	316319,/	t	<div class = centerbox2><div class = fixation>+</div></div>	none	500.0	test	n/a	n/a	n/a	n/a	n/a	n/a	n/a	n/a	n/a	n/a	n/a	n/a	n/a	n/a	n/a	n/a	n/a	n/a	fixation
194764.89816599002	2750.0	n/a	2327	71	2750	30.10183401	stim	stop-signal	92	319385	0.0-7.42-1.42	beast_fmri_test	162	317000,/,317679,/,318360,/,319039,/	t,t,t,t	<img class = center src='/static/experiments/beast_fmri_test/images/T.png'></img>	71,89	2750.0	test	<img class = center src='/static/experiments/beast_fmri_test/images/redT.png'></img>	go	2300.0	2.0	42.0	go	target	T	71,Index Finger	89,Middle Finger	450.0	650.0	2300.0	2100.0	1.0	450.0	1.0	n/a	go_stim
197514.89816599002	30.10183401	n/a	2327	71	2750	30.10183401	stim	stop-signal	92	319385	0.0-7.42-1.42	beast_fmri_test	162	317000,/,317679,/,318360,/,319039,/	t,t,t,t	<img class = center src='/static/experiments/beast_fmri_test/images/T.png'></img>	71,89	2750.0	test	<img class = center src='/static/experiments/beast_fmri_test/images/redT.png'></img>	go	2300.0	2.0	42.0	go	target	T	71,Index Finger	89,Middle Finger	450.0	650.0	2300.0	2100.0	1.0	450.0	1.0	n/a	ITI
198080	500.0	n/a	-1	-1	500	0.0	fixation	poldrack-single-stim	93	319920	0.0-7.43-0.43	beast_fmri_test	162	319720,/	t	<div class = centerbox2><div class = fixation>+</div></div>	none	500.0	test	n/a	n/a	n/a	n/a	n/a	n/a	n/a	n/a	n/a	n/a	n/a	n/a	n/a	n/a	n/a	n/a	n/a	n/a	fixation
195593.22989800002	2750.0	n/a	1649	89	2750	2488.770102	stim	stop-signal	94	322672	0.0-7.43-1.43	beast_fmri_test	162	320399,/,321079,/,321759,/,322439,/,323120,/,323799,/,324479,/,325159,/	t,t,t,t,t,t,t,t	<img class = center src='/static/experiments/beast_fmri_test/images/B.png'></img>	71,89	2750.0	test	<img class = center src='/static/experiments/beast_fmri_test/images/redB.png'></img>	go	2100.0	2.0	43.0	go	non-target	B	71,Index Finger	89,Middle Finger	450.0	650.0	2300.0	2100.0	1.0	650.0	1.0	n/a	go_stim
198343.22989800002	2488.770102	n/a	1649	89	2750	2488.770102	stim	stop-signal	94	322672	0.0-7.43-1.43	beast_fmri_test	162	320399,/,321079,/,321759,/,322439,/,323120,/,323799,/,324479,/,325159,/	t,t,t,t,t,t,t,t	<img class = center src='/static/experiments/beast_fmri_test/images/B.png'></img>	71,89	2750.0	test	<img class = center src='/static/experiments/beast_fmri_test/images/redB.png'></img>	go	2100.0	2.0	43.0	go	non-target	B	71,Index Finger	89,Middle Finger	450.0	650.0	2300.0	2100.0	1.0	650.0	1.0	n/a	ITI
203826	500.0	n/a	-1	-1	500	0.0	fixation	poldrack-single-stim	95	325666	0.0-7.44-0.44	beast_fmri_test	162	n/a	n/a	<div class = centerbox2><div class = fixation>+</div></div>	none	500.0	test	n/a	n/a	n/a	n/a	n/a	n/a	n/a	n/a	n/a	n/a	n/a	n/a	n/a	n/a	n/a	n/a	n/a	n/a	fixation
202724.97702699999	2750.0	n/a	1005	89	2750	1103.022973	stim	stop-signal	96	328418	0.0-7.44-1.44	beast_fmri_test	162	325839,/,326519,/,327199,/,327879,/,328559,/,329239,/	t,t,t,t,t,t	<img class = center src='/static/experiments/beast_fmri_test/images/D.png'></img>	71,89	2750.0	test	<img class = center src='/static/experiments/beast_fmri_test/images/redD.png'></img>	go	2100.0	2.0	44.0	go	non-target	D	71,Index Finger	89,Middle Finger	450.0	650.0	2300.0	2100.0	1.0	650.0	1.0	n/a	go_stim
205474.97702699999	1103.022973	n/a	1005	89	2750	1103.022973	stim	stop-signal	96	328418	0.0-7.44-1.44	beast_fmri_test	162	325839,/,326519,/,327199,/,327879,/,328559,/,329239,/	t,t,t,t,t,t	<img class = center src='/static/experiments/beast_fmri_test/images/D.png'></img>	71,89	2750.0	test	<img class = center src='/static/experiments/beast_fmri_test/images/redD.png'></img>	go	2100.0	2.0	44.0	go	non-target	D	71,Index Finger	89,Middle Finger	450.0	650.0	2300.0	2100.0	1.0	650.0	1.0	n/a	ITI
208188	500.0	n/a	-1	-1	500	0.0	fixation	poldrack-single-stim	97	330028	0.0-7.45-0.45	beast_fmri_test	162	329919,/	t	<div class = centerbox2><div class = fixation>+</div></div>	none	500.0	test	n/a	n/a	n/a	n/a	n/a	n/a	n/a	n/a	n/a	n/a	n/a	n/a	n/a	n/a	n/a	n/a	n/a	n/a	fixation
206639.317912	2750.0	n/a	869	71	2750	1550.682088	stim	stop-signal	98	332780	0.0-7.45-1.45	beast_fmri_test	162	330599,/,331279,/,331959,/,332639,/,333320,/,333999,/	t,t,t,t,t,t	<img class = center src='/static/experiments/beast_fmri_test/images/B.png'></img>	71,89	2750.0	test	<img class = center src='/static/experiments/beast_fmri_test/images/redB.png'></img>	go	2300.0	2.0	45.0	go	target	B	71,Index Finger	89,Middle Finger	450.0	650.0	2300.0	2100.0	1.0	450.0	1.0	n/a	go_stim
209389.317912	1550.682088	n/a	869	71	2750	1550.682088	stim	stop-signal	98	332780	0.0-7.45-1.45	beast_fmri_test	162	330599,/,331279,/,331959,/,332639,/,333320,/,333999,/	t,t,t,t,t,t	<img class = center src='/static/experiments/beast_fmri_test/images/B.png'></img>	71,89	2750.0	test	<img class = center src='/static/experiments/beast_fmri_test/images/redB.png'></img>	go	2300.0	2.0	45.0	go	target	B	71,Index Finger	89,Middle Finger	450.0	650.0	2300.0	2100.0	1.0	450.0	1.0	n/a	ITI
212997	500.0	n/a	-1	-1	500	0.0	fixation	poldrack-single-stim	99	334837	0.0-7.46-0.46	beast_fmri_test	162	334679,/	t	<div class = centerbox2><div class = fixation>+</div></div>	none	500.0	test	n/a	n/a	n/a	n/a	n/a	n/a	n/a	n/a	n/a	n/a	n/a	n/a	n/a	n/a	n/a	n/a	n/a	n/a	fixation
212776.15346639999	650.0	n/a	-1	-1	2750	222.8465336	stim	stop-signal	100	337589	0.0-7.46-1.46	beast_fmri_test	162	335359,/,336039,/,336719,/,337399,/	t,t,t,t	<img class = center src='/static/experiments/beast_fmri_test/images/B.png'></img>	71,89	2750.0	test	<img class = center src='/static/experiments/beast_fmri_test/images/redB.png'></img>	stop	2100.0	2.0	46.0	stop	non-target	B	71,Index Finger	89,Middle Finger	450.0	650.0	2300.0	2100.0	0.0	650.0	n/a	1.0	go_stim
214876.15346639999	2100.0	n/a	-1	-1	2750	222.8465336	stim	stop-signal	100	337589	0.0-7.46-1.46	beast_fmri_test	162	335359,/,336039,/,336719,/,337399,/	t,t,t,t	<img class = center src='/static/experiments/beast_fmri_test/images/B.png'></img>	71,89	2750.0	test	<img class = center src='/static/experiments/beast_fmri_test/images/redB.png'></img>	stop	2100.0	2.0	46.0	stop	non-target	B	71,Index Finger	89,Middle Finger	450.0	650.0	2300.0	2100.0	0.0	650.0	n/a	1.0	stop_stim
215526.15346639999	222.8465336	n/a	-1	-1	2750	222.8465336	stim	stop-signal	100	337589	0.0-7.46-1.46	beast_fmri_test	162	335359,/,336039,/,336719,/,337399,/	t,t,t,t	<img class = center src='/static/experiments/beast_fmri_test/images/B.png'></img>	71,89	2750.0	test	<img class = center src='/static/experiments/beast_fmri_test/images/redB.png'></img>	stop	2100.0	2.0	46.0	stop	non-target	B	71,Index Finger	89,Middle Finger	450.0	650.0	2300.0	2100.0	0.0	650.0	n/a	1.0	ITI
230977	15000.0	n/a	-1	-1	15000	0.0	practice-no-stop-feedback	poldrack-single-stim	101	352817	0.0-8.0	beast_fmri_test	162	338078,/,338759,/,339438,/,340119,/,340799,/,341479,/,342159,/,342839,/,343519,/,344199,/,344879,/,345560,/,346240,/,346919,/,347599,/,348280,/,348959,/,349640,/,350319,/,351000,/,351679,/,352360,/	t,t,t,t,t,t,t,t,t,t,t,t,t,t,t,t,t,t,t,t,t,t	"<div class = ""centerbox2_2""><p class = ""block-text2"">Your delay is 3 trials.</p><p class = block-text2>Please wait for the scanner to start the block</p></div>"	77	15000.0	n/a	n/a	n/a	n/a	n/a	n/a	n/a	n/a	n/a	n/a	n/a	n/a	n/a	n/a	n/a	n/a	n/a	n/a	n/a	practice-no-stop-feedback
231479	500.0	n/a	-1	-1	500	0.0	fixation	poldrack-single-stim	102	353319	0.0-9.0-0.0	beast_fmri_test	162	353039,/	t	<div class = centerbox2><div class = fixation>+</div></div>	none	500.0	test	n/a	n/a	n/a	n/a	n/a	n/a	n/a	n/a	n/a	n/a	n/a	n/a	n/a	n/a	n/a	n/a	n/a	n/a	fixation
231020.16293210001	2750.0	n/a	1165	89	2750	460.8370679	stim	stop-signal	103	356071	0.0-9.0-1.0	beast_fmri_test	162	353720,/,354400,/,355079,/,355759,/,356439,/	t,t,t,t,t	<img class = center src='/static/experiments/beast_fmri_test/images/T.png'></img>	71,89	2750.0	test	<img class = center src='/static/experiments/beast_fmri_test/images/redT.png'></img>	go	-1.0	3.0	0.0	go	temp-non-target	T	71,Index Finger	89,Middle Finger	450.0	700.0	2300.0	2100.0	0.0	n/a	n/a	n/a	go_stim
233770.16293210001	460.8370679	n/a	1165	89	2750	460.8370679	stim	stop-signal	103	356071	0.0-9.0-1.0	beast_fmri_test	162	353720,/,354400,/,355079,/,355759,/,356439,/	t,t,t,t,t	<img class = center src='/static/experiments/beast_fmri_test/images/T.png'></img>	71,89	2750.0	test	<img class = center src='/static/experiments/beast_fmri_test/images/redT.png'></img>	go	-1.0	3.0	0.0	go	temp-non-target	T	71,Index Finger	89,Middle Finger	450.0	700.0	2300.0	2100.0	0.0	n/a	n/a	n/a	ITI
235197	500.0	n/a	-1	-1	500	0.0	fixation	poldrack-single-stim	104	357037	0.0-9.1-0.1	beast_fmri_test	162	n/a	n/a	<div class = centerbox2><div class = fixation>+</div></div>	none	500.0	test	n/a	n/a	n/a	n/a	n/a	n/a	n/a	n/a	n/a	n/a	n/a	n/a	n/a	n/a	n/a	n/a	n/a	n/a	fixation
232740.89111500001	2750.0	n/a	1325	89	2750	2458.108885	stim	stop-signal	105	359789	0.0-9.1-1.1	beast_fmri_test	162	357119,/,357800,/,358479,/,359160,/,359839,/,360519,/,361199,/,361879,/	t,t,t,t,t,t,t,t	<img class = center src='/static/experiments/beast_fmri_test/images/P.png'></img>	71,89	2750.0	test	<img class = center src='/static/experiments/beast_fmri_test/images/redP.png'></img>	go	-1.0	3.0	1.0	go	temp-non-target	P	71,Index Finger	89,Middle Finger	450.0	700.0	2300.0	2100.0	0.0	n/a	n/a	n/a	go_stim
235490.89111500001	2458.108885	n/a	1325	89	2750	2458.108885	stim	stop-signal	105	359789	0.0-9.1-1.1	beast_fmri_test	162	357119,/,357800,/,358479,/,359160,/,359839,/,360519,/,361199,/,361879,/	t,t,t,t,t,t,t,t	<img class = center src='/static/experiments/beast_fmri_test/images/P.png'></img>	71,89	2750.0	test	<img class = center src='/static/experiments/beast_fmri_test/images/redP.png'></img>	go	-1.0	3.0	1.0	go	temp-non-target	P	71,Index Finger	89,Middle Finger	450.0	700.0	2300.0	2100.0	0.0	n/a	n/a	n/a	ITI
240913	500.0	n/a	-1	-1	500	0.0	fixation	poldrack-single-stim	106	362753	0.0-9.2-0.2	beast_fmri_test	162	362559,/	t	<div class = centerbox2><div class = fixation>+</div></div>	none	500.0	test	n/a	n/a	n/a	n/a	n/a	n/a	n/a	n/a	n/a	n/a	n/a	n/a	n/a	n/a	n/a	n/a	n/a	n/a	fixation
239852.47676400002	2750.0	n/a	1019	89	2750	1062.523236	stim	stop-signal	107	365505	0.0-9.2-1.2	beast_fmri_test	162	363239,/,363919,/,364599,/,365279,/,365959,/	t,t,t,t,t	<img class = center src='/static/experiments/beast_fmri_test/images/V.png'></img>	71,89	2750.0	test	<img class = center src='/static/experiments/beast_fmri_test/images/redV.png'></img>	go	-1.0	3.0	2.0	go	temp-non-target	V	71,Index Finger	89,Middle Finger	450.0	700.0	2300.0	2100.0	0.0	n/a	n/a	n/a	go_stim
242602.47676400002	1062.523236	n/a	1019	89	2750	1062.523236	stim	stop-signal	107	365505	0.0-9.2-1.2	beast_fmri_test	162	363239,/,363919,/,364599,/,365279,/,365959,/	t,t,t,t,t	<img class = center src='/static/experiments/beast_fmri_test/images/V.png'></img>	71,89	2750.0	test	<img class = center src='/static/experiments/beast_fmri_test/images/redV.png'></img>	go	-1.0	3.0	2.0	go	temp-non-target	V	71,Index Finger	89,Middle Finger	450.0	700.0	2300.0	2100.0	0.0	n/a	n/a	n/a	ITI
245232	500.0	n/a	-1	-1	500	0.0	fixation	poldrack-single-stim	108	367072	0.0-9.3-0.3	beast_fmri_test	162	366639,/	t	<div class = centerbox2><div class = fixation>+</div></div>	none	500.0	test	n/a	n/a	n/a	n/a	n/a	n/a	n/a	n/a	n/a	n/a	n/a	n/a	n/a	n/a	n/a	n/a	n/a	n/a	fixation
243770.36541099998	2750.0	n/a	1594	89	2750	1463.634589	stim	stop-signal	109	369824	0.0-9.3-1.3	beast_fmri_test	162	367319,/,367999,/,368679,/,369359,/,370039,/,370719,/	t,t,t,t,t,t	<img class = center src='/static/experiments/beast_fmri_test/images/V.png'></img>	71,89	2750.0	test	<img class = center src='/static/experiments/beast_fmri_test/images/redV.png'></img>	go	2050.0	3.0	3.0	go	non-target	V	71,Index Finger	89,Middle Finger	450.0	700.0	2300.0	2050.0	1.0	700.0	1.0	n/a	go_stim
246520.36541099998	1463.634589	n/a	1594	89	2750	1463.634589	stim	stop-signal	109	369824	0.0-9.3-1.3	beast_fmri_test	162	367319,/,367999,/,368679,/,369359,/,370039,/,370719,/	t,t,t,t,t,t	<img class = center src='/static/experiments/beast_fmri_test/images/V.png'></img>	71,89	2750.0	test	<img class = center src='/static/experiments/beast_fmri_test/images/redV.png'></img>	go	2050.0	3.0	3.0	go	non-target	V	71,Index Finger	89,Middle Finger	450.0	700.0	2300.0	2050.0	1.0	700.0	1.0	n/a	ITI
249954	500.0	n/a	-1	-1	500	0.0	fixation	poldrack-single-stim	110	371794	0.0-9.4-0.4	beast_fmri_test	162	371399,/	t	<div class = centerbox2><div class = fixation>+</div></div>	none	500.0	test	n/a	n/a	n/a	n/a	n/a	n/a	n/a	n/a	n/a	n/a	n/a	n/a	n/a	n/a	n/a	n/a	n/a	n/a	fixation
249018.43463690003	2750.0	n/a	1520	89	2750	937.5653631	stim	stop-signal	111	374546	0.0-9.4-1.4	beast_fmri_test	162	372078,/,372759,/,373439,/,374119,/,374798,/,375479,/	t,t,t,t,t,t	<img class = center src='/static/experiments/beast_fmri_test/images/B.png'></img>	71,89	2750.0	test	<img class = center src='/static/experiments/beast_fmri_test/images/redB.png'></img>	go	2050.0	3.0	4.0	go	non-target	B	71,Index Finger	89,Middle Finger	450.0	700.0	2300.0	2050.0	1.0	700.0	1.0	n/a	go_stim
251768.43463690003	937.5653631	n/a	1520	89	2750	937.5653631	stim	stop-signal	111	374546	0.0-9.4-1.4	beast_fmri_test	162	372078,/,372759,/,373439,/,374119,/,374798,/,375479,/	t,t,t,t,t,t	<img class = center src='/static/experiments/beast_fmri_test/images/B.png'></img>	71,89	2750.0	test	<img class = center src='/static/experiments/beast_fmri_test/images/redB.png'></img>	go	2050.0	3.0	4.0	go	non-target	B	71,Index Finger	89,Middle Finger	450.0	700.0	2300.0	2050.0	1.0	700.0	1.0	n/a	ITI
254149	500.0	n/a	-1	-1	500	0.0	fixation	poldrack-single-stim	112	375989	0.0-9.5-0.5	beast_fmri_test	162	n/a	n/a	<div class = centerbox2><div class = fixation>+</div></div>	none	500.0	test	n/a	n/a	n/a	n/a	n/a	n/a	n/a	n/a	n/a	n/a	n/a	n/a	n/a	n/a	n/a	n/a	n/a	n/a	fixation
253525.60387320002	2750.0	n/a	2202	89	2750	625.3961268	stim	stop-signal	113	378741	0.0-9.5-1.5	beast_fmri_test	162	376160,/,376839,/,377519,/,378199,/,378879,/	t,t,t,t,t	<img class = center src='/static/experiments/beast_fmri_test/images/B.png'></img>	71,89	2750.0	test	<img class = center src='/static/experiments/beast_fmri_test/images/redB.png'></img>	go	2050.0	3.0	5.0	go	non-target	B	71,Index Finger	89,Middle Finger	450.0	700.0	2300.0	2050.0	1.0	700.0	1.0	n/a	go_stim
256275.60387320002	625.3961268	n/a	2202	89	2750	625.3961268	stim	stop-signal	113	378741	0.0-9.5-1.5	beast_fmri_test	162	376160,/,376839,/,377519,/,378199,/,378879,/	t,t,t,t,t	<img class = center src='/static/experiments/beast_fmri_test/images/B.png'></img>	71,89	2750.0	test	<img class = center src='/static/experiments/beast_fmri_test/images/redB.png'></img>	go	2050.0	3.0	5.0	go	non-target	B	71,Index Finger	89,Middle Finger	450.0	700.0	2300.0	2050.0	1.0	700.0	1.0	n/a	ITI
258034	500.0	n/a	-1	-1	500	0.0	fixation	poldrack-single-stim	114	379874	0.0-9.6-0.6	beast_fmri_test	162	379560,/	t	<div class = centerbox2><div class = fixation>+</div></div>	none	500.0	test	n/a	n/a	n/a	n/a	n/a	n/a	n/a	n/a	n/a	n/a	n/a	n/a	n/a	n/a	n/a	n/a	n/a	n/a	fixation
257355.95207300002	2750.0	n/a	2566	89	2750	680.047927	stim	stop-signal	115	382626	0.0-9.6-1.6	beast_fmri_test	162	380239,/,380920,/,381599,/,382280,/,382959,/	t,t,t,t,t	<img class = center src='/static/experiments/beast_fmri_test/images/P.png'></img>	71,89	2750.0	test	<img class = center src='/static/experiments/beast_fmri_test/images/redP.png'></img>	go	2050.0	3.0	6.0	go	non-target	P	71,Index Finger	89,Middle Finger	450.0	700.0	2300.0	2050.0	1.0	700.0	1.0	n/a	go_stim
260105.95207300002	680.047927	n/a	2566	89	2750	680.047927	stim	stop-signal	115	382626	0.0-9.6-1.6	beast_fmri_test	162	380239,/,380920,/,381599,/,382280,/,382959,/	t,t,t,t,t	<img class = center src='/static/experiments/beast_fmri_test/images/P.png'></img>	71,89	2750.0	test	<img class = center src='/static/experiments/beast_fmri_test/images/redP.png'></img>	go	2050.0	3.0	6.0	go	non-target	P	71,Index Finger	89,Middle Finger	450.0	700.0	2300.0	2050.0	1.0	700.0	1.0	n/a	ITI
261972	500.0	n/a	-1	-1	500	0.0	fixation	poldrack-single-stim	116	383812	0.0-9.7-0.7	beast_fmri_test	162	383640,/	t	<div class = centerbox2><div class = fixation>+</div></div>	none	500.0	test	n/a	n/a	n/a	n/a	n/a	n/a	n/a	n/a	n/a	n/a	n/a	n/a	n/a	n/a	n/a	n/a	n/a	n/a	fixation
260093.87103099999	2750.0	n/a	-1	-1	2750	1880.128969	stim	stop-signal	117	386564	0.0-9.7-1.7	beast_fmri_test	162	384320,/,384999,/,385679,/,386359,/,387039,/,387719,/,388399,/	t,t,t,t,t,t,t	<img class = center src='/static/experiments/beast_fmri_test/images/T.png'></img>	71,89	2750.0	test	<img class = center src='/static/experiments/beast_fmri_test/images/redT.png'></img>	go	2050.0	3.0	7.0	go	non-target	T	71,Index Finger	89,Middle Finger	450.0	700.0	2300.0	2050.0	0.0	700.0	0.0	n/a	go_stim
262843.87103099999	1880.128969	n/a	-1	-1	2750	1880.128969	stim	stop-signal	117	386564	0.0-9.7-1.7	beast_fmri_test	162	384320,/,384999,/,385679,/,386359,/,387039,/,387719,/,388399,/	t,t,t,t,t,t,t	<img class = center src='/static/experiments/beast_fmri_test/images/T.png'></img>	71,89	2750.0	test	<img class = center src='/static/experiments/beast_fmri_test/images/redT.png'></img>	go	2050.0	3.0	7.0	go	non-target	T	71,Index Finger	89,Middle Finger	450.0	700.0	2300.0	2050.0	0.0	700.0	0.0	n/a	ITI
267111	500.0	n/a	-1	-1	500	0.0	fixation	poldrack-single-stim	118	388951	0.0-9.8-0.8	beast_fmri_test	162	n/a	n/a	<div class = centerbox2><div class = fixation>+</div></div>	none	500.0	test	n/a	n/a	n/a	n/a	n/a	n/a	n/a	n/a	n/a	n/a	n/a	n/a	n/a	n/a	n/a	n/a	n/a	n/a	fixation
266039.31414099998	2750.0	n/a	1411	71	2750	1073.685859	stim	stop-signal	119	391703	0.0-9.8-1.8	beast_fmri_test	162	389079,/,389759,/,390439,/,391119,/,391799,/,392479,/	t,t,t,t,t,t	<img class = center src='/static/experiments/beast_fmri_test/images/V.png'></img>	71,89	2750.0	test	<img class = center src='/static/experiments/beast_fmri_test/images/redV.png'></img>	go	2050.0	3.0	8.0	go	non-target	V	71,Index Finger	89,Middle Finger	450.0	700.0	2300.0	2050.0	0.0	700.0	0.0	n/a	go_stim
268789.31414099998	1073.685859	n/a	1411	71	2750	1073.685859	stim	stop-signal	119	391703	0.0-9.8-1.8	beast_fmri_test	162	389079,/,389759,/,390439,/,391119,/,391799,/,392479,/	t,t,t,t,t,t	<img class = center src='/static/experiments/beast_fmri_test/images/V.png'></img>	71,89	2750.0	test	<img class = center src='/static/experiments/beast_fmri_test/images/redV.png'></img>	go	2050.0	3.0	8.0	go	non-target	V	71,Index Finger	89,Middle Finger	450.0	700.0	2300.0	2050.0	0.0	700.0	0.0	n/a	ITI
271443	500.0	n/a	-1	-1	500	0.0	fixation	poldrack-single-stim	120	393283	0.0-9.9-0.9	beast_fmri_test	162	393159,/	t	<div class = centerbox2><div class = fixation>+</div></div>	none	500.0	test	n/a	n/a	n/a	n/a	n/a	n/a	n/a	n/a	n/a	n/a	n/a	n/a	n/a	n/a	n/a	n/a	n/a	n/a	fixation
271264.43595439999	700.0	n/a	-1	-1	2750	180.5640456	stim	stop-signal	121	396035	0.0-9.9-1.9	beast_fmri_test	162	393839,/,394520,/,395199,/,395879,/	t,t,t,t	<img class = center src='/static/experiments/beast_fmri_test/images/V.png'></img>	71,89	2750.0	test	<img class = center src='/static/experiments/beast_fmri_test/images/redV.png'></img>	stop	2050.0	3.0	9.0	stop	non-target	V	71,Index Finger	89,Middle Finger	450.0	700.0	2300.0	2050.0	0.0	700.0	n/a	1.0	go_stim
273314.43595439999	2050.0	n/a	-1	-1	2750	180.5640456	stim	stop-signal	121	396035	0.0-9.9-1.9	beast_fmri_test	162	393839,/,394520,/,395199,/,395879,/	t,t,t,t	<img class = center src='/static/experiments/beast_fmri_test/images/V.png'></img>	71,89	2750.0	test	<img class = center src='/static/experiments/beast_fmri_test/images/redV.png'></img>	stop	2050.0	3.0	9.0	stop	non-target	V	71,Index Finger	89,Middle Finger	450.0	700.0	2300.0	2050.0	0.0	700.0	n/a	1.0	stop_stim
274014.43595439999	180.5640456	n/a	-1	-1	2750	180.5640456	stim	stop-signal	121	396035	0.0-9.9-1.9	beast_fmri_test	162	393839,/,394520,/,395199,/,395879,/	t,t,t,t	<img class = center src='/static/experiments/beast_fmri_test/images/V.png'></img>	71,89	2750.0	test	<img class = center src='/static/experiments/beast_fmri_test/images/redV.png'></img>	stop	2050.0	3.0	9.0	stop	non-target	V	71,Index Finger	89,Middle Finger	450.0	700.0	2300.0	2050.0	0.0	700.0	n/a	1.0	ITI
274883	500.0	n/a	-1	-1	500	0.0	fixation	poldrack-single-stim	122	396723	0.0-9.10-0.10	beast_fmri_test	162	396559,/	t	<div class = centerbox2><div class = fixation>+</div></div>	none	500.0	test	n/a	n/a	n/a	n/a	n/a	n/a	n/a	n/a	n/a	n/a	n/a	n/a	n/a	n/a	n/a	n/a	n/a	n/a	fixation
274235.38821880001	2750.0	n/a	1028	89	2750	649.6117812	stim	stop-signal	123	399475	0.0-9.10-1.10	beast_fmri_test	162	397239,/,397919,/,398599,/,399279,/,399959,/	t,t,t,t,t	<img class = center src='/static/experiments/beast_fmri_test/images/D.png'></img>	71,89	2750.0	test	<img class = center src='/static/experiments/beast_fmri_test/images/redD.png'></img>	go	2000.0	3.0	10.0	go	non-target	D	71,Index Finger	89,Middle Finger	450.0	750.0	2300.0	2000.0	1.0	750.0	1.0	n/a	go_stim
276985.38821880001	649.6117812	n/a	1028	89	2750	649.6117812	stim	stop-signal	123	399475	0.0-9.10-1.10	beast_fmri_test	162	397239,/,397919,/,398599,/,399279,/,399959,/	t,t,t,t,t	<img class = center src='/static/experiments/beast_fmri_test/images/D.png'></img>	71,89	2750.0	test	<img class = center src='/static/experiments/beast_fmri_test/images/redD.png'></img>	go	2000.0	3.0	10.0	go	non-target	D	71,Index Finger	89,Middle Finger	450.0	750.0	2300.0	2000.0	1.0	750.0	1.0	n/a	ITI
278791	500.0	n/a	-1	-1	500	0.0	fixation	poldrack-single-stim	124	400631	0.0-9.11-0.11	beast_fmri_test	162	n/a	n/a	<div class = centerbox2><div class = fixation>+</div></div>	none	500.0	test	n/a	n/a	n/a	n/a	n/a	n/a	n/a	n/a	n/a	n/a	n/a	n/a	n/a	n/a	n/a	n/a	n/a	n/a	fixation
278586.35432839999	2750.0	n/a	-1	-1	2750	205.6456716	stim	stop-signal	125	403382	0.0-9.11-1.11	beast_fmri_test	162	400639,/,401319,/,401999,/,402679,/,403359,/	t,t,t,t,t	<img class = center src='/static/experiments/beast_fmri_test/images/D.png'></img>	71,89	2750.0	test	<img class = center src='/static/experiments/beast_fmri_test/images/redD.png'></img>	go	2000.0	3.0	11.0	go	non-target	D	71,Index Finger	89,Middle Finger	450.0	750.0	2300.0	2000.0	0.0	750.0	0.0	n/a	go_stim
281336.35432839999	205.6456716	n/a	-1	-1	2750	205.6456716	stim	stop-signal	125	403382	0.0-9.11-1.11	beast_fmri_test	162	400639,/,401319,/,401999,/,402679,/,403359,/	t,t,t,t,t	<img class = center src='/static/experiments/beast_fmri_test/images/D.png'></img>	71,89	2750.0	test	<img class = center src='/static/experiments/beast_fmri_test/images/redD.png'></img>	go	2000.0	3.0	11.0	go	non-target	D	71,Index Finger	89,Middle Finger	450.0	750.0	2300.0	2000.0	0.0	750.0	0.0	n/a	ITI
282254	500.0	n/a	-1	-1	500	0.0	fixation	poldrack-single-stim	126	404094	0.0-9.12-0.12	beast_fmri_test	162	404039,/	t	<div class = centerbox2><div class = fixation>+</div></div>	none	500.0	test	n/a	n/a	n/a	n/a	n/a	n/a	n/a	n/a	n/a	n/a	n/a	n/a	n/a	n/a	n/a	n/a	n/a	n/a	fixation
282068.8643899	2750.0	n/a	2412	71	2750	188.1356101	stim	stop-signal	127	406847	0.0-9.12-1.12	beast_fmri_test	162	404720,/,405399,/,406079,/,406759,/	t,t,t,t	<img class = center src='/static/experiments/beast_fmri_test/images/T.png'></img>	71,89	2750.0	test	<img class = center src='/static/experiments/beast_fmri_test/images/redT.png'></img>	go	2000.0	3.0	12.0	go	non-target	T	71,Index Finger	89,Middle Finger	450.0	750.0	2300.0	2000.0	0.0	750.0	0.0	n/a	go_stim
284818.8643899	188.1356101	n/a	2412	71	2750	188.1356101	stim	stop-signal	127	406847	0.0-9.12-1.12	beast_fmri_test	162	404720,/,405399,/,406079,/,406759,/	t,t,t,t	<img class = center src='/static/experiments/beast_fmri_test/images/T.png'></img>	71,89	2750.0	test	<img class = center src='/static/experiments/beast_fmri_test/images/redT.png'></img>	go	2000.0	3.0	12.0	go	non-target	T	71,Index Finger	89,Middle Finger	450.0	750.0	2300.0	2000.0	0.0	750.0	0.0	n/a	ITI
285701	500.0	n/a	-1	-1	500	0.0	fixation	poldrack-single-stim	128	407541	0.0-9.13-0.13	beast_fmri_test	162	407439,/	t	<div class = centerbox2><div class = fixation>+</div></div>	none	500.0	test	n/a	n/a	n/a	n/a	n/a	n/a	n/a	n/a	n/a	n/a	n/a	n/a	n/a	n/a	n/a	n/a	n/a	n/a	fixation
283567.64904599998	750.0	n/a	-1	-1	2750	2135.350954	stim	stop-signal	129	410293	0.0-9.13-1.13	beast_fmri_test	162	408119,/,408798,/,409479,/,410159,/,410839,/,411520,/,412199,/	t,t,t,t,t,t,t	<img class = center src='/static/experiments/beast_fmri_test/images/V.png'></img>	71,89	2750.0	test	<img class = center src='/static/experiments/beast_fmri_test/images/redV.png'></img>	stop	2000.0	3.0	13.0	stop	non-target	V	71,Index Finger	89,Middle Finger	450.0	750.0	2300.0	2000.0	0.0	750.0	n/a	1.0	go_stim
285567.64904599998	2000.0	n/a	-1	-1	2750	2135.350954	stim	stop-signal	129	410293	0.0-9.13-1.13	beast_fmri_test	162	408119,/,408798,/,409479,/,410159,/,410839,/,411520,/,412199,/	t,t,t,t,t,t,t	<img class = center src='/static/experiments/beast_fmri_test/images/V.png'></img>	71,89	2750.0	test	<img class = center src='/static/experiments/beast_fmri_test/images/redV.png'></img>	stop	2000.0	3.0	13.0	stop	non-target	V	71,Index Finger	89,Middle Finger	450.0	750.0	2300.0	2000.0	0.0	750.0	n/a	1.0	stop_stim
286317.64904599998	2135.350954	n/a	-1	-1	2750	2135.350954	stim	stop-signal	129	410293	0.0-9.13-1.13	beast_fmri_test	162	408119,/,408798,/,409479,/,410159,/,410839,/,411520,/,412199,/	t,t,t,t,t,t,t	<img class = center src='/static/experiments/beast_fmri_test/images/V.png'></img>	71,89	2750.0	test	<img class = center src='/static/experiments/beast_fmri_test/images/redV.png'></img>	stop	2000.0	3.0	13.0	stop	non-target	V	71,Index Finger	89,Middle Finger	450.0	750.0	2300.0	2000.0	0.0	750.0	n/a	1.0	ITI
291096	500.0	n/a	-1	-1	500	0.0	fixation	poldrack-single-stim	130	412936	0.0-9.14-0.14	beast_fmri_test	162	412879,/	t	<div class = centerbox2><div class = fixation>+</div></div>	none	500.0	test	n/a	n/a	n/a	n/a	n/a	n/a	n/a	n/a	n/a	n/a	n/a	n/a	n/a	n/a	n/a	n/a	n/a	n/a	fixation
290587.6595138	2750.0	n/a	1342	71	2750	510.3404862	stim	stop-signal	131	415688	0.0-9.14-1.14	beast_fmri_test	162	413559,/,414240,/,414920,/,415599,/	t,t,t,t	<img class = center src='/static/experiments/beast_fmri_test/images/D.png'></img>	71,89	2750.0	test	<img class = center src='/static/experiments/beast_fmri_test/images/redD.png'></img>	go	2300.0	3.0	14.0	go	target	D	71,Index Finger	89,Middle Finger	450.0	800.0	2300.0	2000.0	1.0	450.0	1.0	n/a	go_stim
293337.6595138	510.3404862	n/a	1342	71	2750	510.3404862	stim	stop-signal	131	415688	0.0-9.14-1.14	beast_fmri_test	162	413559,/,414240,/,414920,/,415599,/	t,t,t,t	<img class = center src='/static/experiments/beast_fmri_test/images/D.png'></img>	71,89	2750.0	test	<img class = center src='/static/experiments/beast_fmri_test/images/redD.png'></img>	go	2300.0	3.0	14.0	go	target	D	71,Index Finger	89,Middle Finger	450.0	800.0	2300.0	2000.0	1.0	450.0	1.0	n/a	ITI
294867	500.0	n/a	-1	-1	500	0.0	fixation	poldrack-single-stim	132	416707	0.0-9.15-0.15	beast_fmri_test	162	416279,/	t	<div class = centerbox2><div class = fixation>+</div></div>	none	500.0	test	n/a	n/a	n/a	n/a	n/a	n/a	n/a	n/a	n/a	n/a	n/a	n/a	n/a	n/a	n/a	n/a	n/a	n/a	fixation
294861.47702293401	2750.0	n/a	837	89	2750	7.522977066	stim	stop-signal	133	419459	0.0-9.15-1.15	beast_fmri_test	162	416960,/,417639,/,418319,/,418999,/	t,t,t,t	<img class = center src='/static/experiments/beast_fmri_test/images/T.png'></img>	71,89	2750.0	test	<img class = center src='/static/experiments/beast_fmri_test/images/redT.png'></img>	go	2300.0	3.0	15.0	go	target	T	71,Index Finger	89,Middle Finger	450.0	800.0	2300.0	2000.0	0.0	450.0	0.0	n/a	go_stim
297611.47702293401	7.522977066	n/a	837	89	2750	7.522977066	stim	stop-signal	133	419459	0.0-9.15-1.15	beast_fmri_test	162	416960,/,417639,/,418319,/,418999,/	t,t,t,t	<img class = center src='/static/experiments/beast_fmri_test/images/T.png'></img>	71,89	2750.0	test	<img class = center src='/static/experiments/beast_fmri_test/images/redT.png'></img>	go	2300.0	3.0	15.0	go	target	T	71,Index Finger	89,Middle Finger	450.0	800.0	2300.0	2000.0	0.0	450.0	0.0	n/a	ITI
298132	500.0	n/a	-1	-1	500	0.0	fixation	poldrack-single-stim	134	419972	0.0-9.16-0.16	beast_fmri_test	162	419680,/	t	<div class = centerbox2><div class = fixation>+</div></div>	none	500.0	test	n/a	n/a	n/a	n/a	n/a	n/a	n/a	n/a	n/a	n/a	n/a	n/a	n/a	n/a	n/a	n/a	n/a	n/a	fixation
297302.8326586	450.0	n/a	-1	-1	2750	831.1673414	stim	stop-signal	135	422724	0.0-9.16-1.16	beast_fmri_test	162	420359,/,421039,/,421719,/,422399,/,423079,/	t,t,t,t,t	<img class = center src='/static/experiments/beast_fmri_test/images/V.png'></img>	71,89	2750.0	test	<img class = center src='/static/experiments/beast_fmri_test/images/redV.png'></img>	stop	2300.0	3.0	16.0	stop	target	V	71,Index Finger	89,Middle Finger	450.0	800.0	2300.0	2000.0	0.0	450.0	n/a	1.0	go_stim
299602.8326586	2300.0	n/a	-1	-1	2750	831.1673414	stim	stop-signal	135	422724	0.0-9.16-1.16	beast_fmri_test	162	420359,/,421039,/,421719,/,422399,/,423079,/	t,t,t,t,t	<img class = center src='/static/experiments/beast_fmri_test/images/V.png'></img>	71,89	2750.0	test	<img class = center src='/static/experiments/beast_fmri_test/images/redV.png'></img>	stop	2300.0	3.0	16.0	stop	target	V	71,Index Finger	89,Middle Finger	450.0	800.0	2300.0	2000.0	0.0	450.0	n/a	1.0	stop_stim
300052.8326586	831.1673414	n/a	-1	-1	2750	831.1673414	stim	stop-signal	135	422724	0.0-9.16-1.16	beast_fmri_test	162	420359,/,421039,/,421719,/,422399,/,423079,/	t,t,t,t,t	<img class = center src='/static/experiments/beast_fmri_test/images/V.png'></img>	71,89	2750.0	test	<img class = center src='/static/experiments/beast_fmri_test/images/redV.png'></img>	stop	2300.0	3.0	16.0	stop	target	V	71,Index Finger	89,Middle Finger	450.0	800.0	2300.0	2000.0	0.0	450.0	n/a	1.0	ITI
302222	500.0	n/a	-1	-1	500	0.0	fixation	poldrack-single-stim	136	424062	0.0-9.17-0.17	beast_fmri_test	162	423759,/	t	<div class = centerbox2><div class = fixation>+</div></div>	none	500.0	test	n/a	n/a	n/a	n/a	n/a	n/a	n/a	n/a	n/a	n/a	n/a	n/a	n/a	n/a	n/a	n/a	n/a	n/a	fixation
300090.651594	500.0	n/a	-1	-1	2750	2133.348406	stim	stop-signal	137	426814	0.0-9.17-1.17	beast_fmri_test	162	424439,/,425120,/,425799,/,426479,/,427159,/,427839,/,428519,/	t,t,t,t,t,t,t	<img class = center src='/static/experiments/beast_fmri_test/images/D.png'></img>	71,89	2750.0	test	<img class = center src='/static/experiments/beast_fmri_test/images/redD.png'></img>	stop	2250.0	3.0	17.0	stop	target	D	71,Index Finger	89,Middle Finger	500.0	800.0	2250.0	2000.0	0.0	500.0	n/a	1.0	go_stim
302340.651594	2250.0	n/a	-1	-1	2750	2133.348406	stim	stop-signal	137	426814	0.0-9.17-1.17	beast_fmri_test	162	424439,/,425120,/,425799,/,426479,/,427159,/,427839,/,428519,/	t,t,t,t,t,t,t	<img class = center src='/static/experiments/beast_fmri_test/images/D.png'></img>	71,89	2750.0	test	<img class = center src='/static/experiments/beast_fmri_test/images/redD.png'></img>	stop	2250.0	3.0	17.0	stop	target	D	71,Index Finger	89,Middle Finger	500.0	800.0	2250.0	2000.0	0.0	500.0	n/a	1.0	stop_stim
302840.651594	2133.348406	n/a	-1	-1	2750	2133.348406	stim	stop-signal	137	426814	0.0-9.17-1.17	beast_fmri_test	162	424439,/,425120,/,425799,/,426479,/,427159,/,427839,/,428519,/	t,t,t,t,t,t,t	<img class = center src='/static/experiments/beast_fmri_test/images/D.png'></img>	71,89	2750.0	test	<img class = center src='/static/experiments/beast_fmri_test/images/redD.png'></img>	stop	2250.0	3.0	17.0	stop	target	D	71,Index Finger	89,Middle Finger	500.0	800.0	2250.0	2000.0	0.0	500.0	n/a	1.0	ITI
307615	500.0	n/a	-1	-1	500	0.0	fixation	poldrack-single-stim	138	429455	0.0-9.18-0.18	beast_fmri_test	162	429199,/	t	<div class = centerbox2><div class = fixation>+</div></div>	none	500.0	test	n/a	n/a	n/a	n/a	n/a	n/a	n/a	n/a	n/a	n/a	n/a	n/a	n/a	n/a	n/a	n/a	n/a	n/a	fixation
307307.20704010001	2750.0	n/a	992	71	2750	309.7929599	stim	stop-signal	139	432207	0.0-9.18-1.18	beast_fmri_test	162	429879,/,430559,/,431239,/,431919,/	t,t,t,t	<img class = center src='/static/experiments/beast_fmri_test/images/T.png'></img>	71,89	2750.0	test	<img class = center src='/static/experiments/beast_fmri_test/images/redT.png'></img>	go	2200.0	3.0	18.0	go	target	T	71,Index Finger	89,Middle Finger	550.0	800.0	2200.0	2000.0	1.0	550.0	1.0	n/a	go_stim
310057.20704010001	309.7929599	n/a	992	71	2750	309.7929599	stim	stop-signal	139	432207	0.0-9.18-1.18	beast_fmri_test	162	429879,/,430559,/,431239,/,431919,/	t,t,t,t	<img class = center src='/static/experiments/beast_fmri_test/images/T.png'></img>	71,89	2750.0	test	<img class = center src='/static/experiments/beast_fmri_test/images/redT.png'></img>	go	2200.0	3.0	18.0	go	target	T	71,Index Finger	89,Middle Finger	550.0	800.0	2200.0	2000.0	1.0	550.0	1.0	n/a	ITI
311183	500.0	n/a	-1	-1	500	0.0	fixation	poldrack-single-stim	140	433023	0.0-9.19-0.19	beast_fmri_test	162	432599,/	t	<div class = centerbox2><div class = fixation>+</div></div>	none	500.0	test	n/a	n/a	n/a	n/a	n/a	n/a	n/a	n/a	n/a	n/a	n/a	n/a	n/a	n/a	n/a	n/a	n/a	n/a	fixation
307594.86231300002	2750.0	n/a	1180	71	2750	3590.137687	stim	stop-signal	141	435775	0.0-9.19-1.19	beast_fmri_test	162	433279,/,433959,/,434639,/,435320,/,435999,/,436679,/,437359,/,438038,/,438719,/	t,t,t,t,t,t,t,t,t	<img class = center src='/static/experiments/beast_fmri_test/images/V.png'></img>	71,89	2750.0	test	<img class = center src='/static/experiments/beast_fmri_test/images/redV.png'></img>	go	2200.0	3.0	19.0	go	target	V	71,Index Finger	89,Middle Finger	550.0	800.0	2200.0	2000.0	1.0	550.0	1.0	n/a	go_stim
310344.86231300002	3590.137687	n/a	1180	71	2750	3590.137687	stim	stop-signal	141	435775	0.0-9.19-1.19	beast_fmri_test	162	433279,/,433959,/,434639,/,435320,/,435999,/,436679,/,437359,/,438038,/,438719,/	t,t,t,t,t,t,t,t,t	<img class = center src='/static/experiments/beast_fmri_test/images/V.png'></img>	71,89	2750.0	test	<img class = center src='/static/experiments/beast_fmri_test/images/redV.png'></img>	go	2200.0	3.0	19.0	go	target	V	71,Index Finger	89,Middle Finger	550.0	800.0	2200.0	2000.0	1.0	550.0	1.0	n/a	ITI
318031	500.0	n/a	-1	-1	500	0.0	fixation	poldrack-single-stim	142	439871	0.0-9.20-0.20	beast_fmri_test	162	439399,/	t	<div class = centerbox2><div class = fixation>+</div></div>	none	500.0	test	n/a	n/a	n/a	n/a	n/a	n/a	n/a	n/a	n/a	n/a	n/a	n/a	n/a	n/a	n/a	n/a	n/a	n/a	fixation
317170.46756730002	2750.0	n/a	1244	89	2750	862.5324327	stim	stop-signal	143	442623	0.0-9.20-1.20	beast_fmri_test	162	440079,/,440759,/,441440,/,442120,/,442800,/,443480,/	t,t,t,t,t,t	<img class = center src='/static/experiments/beast_fmri_test/images/P.png'></img>	71,89	2750.0	test	<img class = center src='/static/experiments/beast_fmri_test/images/redP.png'></img>	go	1950.0	3.0	20.0	go	non-target	P	71,Index Finger	89,Middle Finger	550.0	800.0	2200.0	1950.0	1.0	800.0	1.0	n/a	go_stim
319920.46756730002	862.5324327	n/a	1244	89	2750	862.5324327	stim	stop-signal	143	442623	0.0-9.20-1.20	beast_fmri_test	162	440079,/,440759,/,441440,/,442120,/,442800,/,443480,/	t,t,t,t,t,t	<img class = center src='/static/experiments/beast_fmri_test/images/P.png'></img>	71,89	2750.0	test	<img class = center src='/static/experiments/beast_fmri_test/images/redP.png'></img>	go	1950.0	3.0	20.0	go	non-target	P	71,Index Finger	89,Middle Finger	550.0	800.0	2200.0	1950.0	1.0	800.0	1.0	n/a	ITI
322152	500.0	n/a	-1	-1	500	0.0	fixation	poldrack-single-stim	144	443992	0.0-9.21-0.21	beast_fmri_test	162	n/a	n/a	<div class = centerbox2><div class = fixation>+</div></div>	none	500.0	test	n/a	n/a	n/a	n/a	n/a	n/a	n/a	n/a	n/a	n/a	n/a	n/a	n/a	n/a	n/a	n/a	n/a	n/a	fixation
319689.68588499998	2750.0	n/a	1291	89	2750	2464.314115	stim	stop-signal	145	446744	0.0-9.21-1.21	beast_fmri_test	162	444160,/,444839,/,445520,/,446199,/,446879,/,447559,/,448239,/,448919,/	t,t,t,t,t,t,t,t	<img class = center src='/static/experiments/beast_fmri_test/images/B.png'></img>	71,89	2750.0	test	<img class = center src='/static/experiments/beast_fmri_test/images/redB.png'></img>	go	1950.0	3.0	21.0	go	non-target	B	71,Index Finger	89,Middle Finger	550.0	800.0	2200.0	1950.0	1.0	800.0	1.0	n/a	go_stim
322439.68588499998	2464.314115	n/a	1291	89	2750	2464.314115	stim	stop-signal	145	446744	0.0-9.21-1.21	beast_fmri_test	162	444160,/,444839,/,445520,/,446199,/,446879,/,447559,/,448239,/,448919,/	t,t,t,t,t,t,t,t	<img class = center src='/static/experiments/beast_fmri_test/images/B.png'></img>	71,89	2750.0	test	<img class = center src='/static/experiments/beast_fmri_test/images/redB.png'></img>	go	1950.0	3.0	21.0	go	non-target	B	71,Index Finger	89,Middle Finger	550.0	800.0	2200.0	1950.0	1.0	800.0	1.0	n/a	ITI
327877	500.0	n/a	-1	-1	500	0.0	fixation	poldrack-single-stim	146	449717	0.0-9.22-0.22	beast_fmri_test	162	449600,/	t	<div class = centerbox2><div class = fixation>+</div></div>	none	500.0	test	n/a	n/a	n/a	n/a	n/a	n/a	n/a	n/a	n/a	n/a	n/a	n/a	n/a	n/a	n/a	n/a	n/a	n/a	fixation
324123.98785099998	2750.0	n/a	712	89	2750	3755.012149	stim	stop-signal	147	452469	0.0-9.22-1.22	beast_fmri_test	162	450279,/,450959,/,451639,/,452319,/,452999,/,453679,/,454359,/,455039,/,455720,/	t,t,t,t,t,t,t,t,t	<img class = center src='/static/experiments/beast_fmri_test/images/B.png'></img>	71,89	2750.0	test	<img class = center src='/static/experiments/beast_fmri_test/images/redB.png'></img>	go	1950.0	3.0	22.0	go	non-target	B	71,Index Finger	89,Middle Finger	550.0	800.0	2200.0	1950.0	1.0	800.0	1.0	n/a	go_stim
326873.98785099998	3755.012149	n/a	712	89	2750	3755.012149	stim	stop-signal	147	452469	0.0-9.22-1.22	beast_fmri_test	162	450279,/,450959,/,451639,/,452319,/,452999,/,453679,/,454359,/,455039,/,455720,/	t,t,t,t,t,t,t,t,t	<img class = center src='/static/experiments/beast_fmri_test/images/B.png'></img>	71,89	2750.0	test	<img class = center src='/static/experiments/beast_fmri_test/images/redB.png'></img>	go	1950.0	3.0	22.0	go	non-target	B	71,Index Finger	89,Middle Finger	550.0	800.0	2200.0	1950.0	1.0	800.0	1.0	n/a	ITI
334893	500.0	n/a	-1	-1	500	0.0	fixation	poldrack-single-stim	148	456733	0.0-9.23-0.23	beast_fmri_test	162	456399,/	t	<div class = centerbox2><div class = fixation>+</div></div>	none	500.0	test	n/a	n/a	n/a	n/a	n/a	n/a	n/a	n/a	n/a	n/a	n/a	n/a	n/a	n/a	n/a	n/a	n/a	n/a	fixation
330488.27767899999	2750.0	n/a	-1	-1	2750	4406.722321	stim	stop-signal	149	459485	0.0-9.23-1.23	beast_fmri_test	162	457079,/,457759,/,458439,/,459119,/,459799,/,460479,/,461159,/,461839,/,462519,/,463199,/,463879,/	t,t,t,t,t,t,t,t,t,t,t	<img class = center src='/static/experiments/beast_fmri_test/images/D.png'></img>	71,89	2750.0	test	<img class = center src='/static/experiments/beast_fmri_test/images/redD.png'></img>	go	1950.0	3.0	23.0	go	non-target	D	71,Index Finger	89,Middle Finger	550.0	800.0	2200.0	1950.0	0.0	800.0	0.0	n/a	go_stim
333238.27767899999	4406.722321	n/a	-1	-1	2750	4406.722321	stim	stop-signal	149	459485	0.0-9.23-1.23	beast_fmri_test	162	457079,/,457759,/,458439,/,459119,/,459799,/,460479,/,461159,/,461839,/,462519,/,463199,/,463879,/	t,t,t,t,t,t,t,t,t,t,t	<img class = center src='/static/experiments/beast_fmri_test/images/D.png'></img>	71,89	2750.0	test	<img class = center src='/static/experiments/beast_fmri_test/images/redD.png'></img>	go	1950.0	3.0	23.0	go	non-target	D	71,Index Finger	89,Middle Finger	550.0	800.0	2200.0	1950.0	0.0	800.0	0.0	n/a	ITI
342558	500.0	n/a	-1	-1	500	0.0	fixation	poldrack-single-stim	150	464398	0.0-9.24-0.24	beast_fmri_test	162	n/a	n/a	<div class = centerbox2><div class = fixation>+</div></div>	none	500.0	test	n/a	n/a	n/a	n/a	n/a	n/a	n/a	n/a	n/a	n/a	n/a	n/a	n/a	n/a	n/a	n/a	n/a	n/a	fixation
342502.79811804002	2750.0	n/a	1878	71	2750	57.20188196	stim	stop-signal	151	467150	0.0-9.24-1.24	beast_fmri_test	162	464559,/,465239,/,465920,/,466599,/	t,t,t,t	<img class = center src='/static/experiments/beast_fmri_test/images/B.png'></img>	71,89	2750.0	test	<img class = center src='/static/experiments/beast_fmri_test/images/redB.png'></img>	go	2200.0	3.0	24.0	go	target	B	71,Index Finger	89,Middle Finger	550.0	800.0	2200.0	1950.0	1.0	550.0	1.0	n/a	go_stim
345252.79811804002	57.20188196	n/a	1878	71	2750	57.20188196	stim	stop-signal	151	467150	0.0-9.24-1.24	beast_fmri_test	162	464559,/,465239,/,465920,/,466599,/	t,t,t,t	<img class = center src='/static/experiments/beast_fmri_test/images/B.png'></img>	71,89	2750.0	test	<img class = center src='/static/experiments/beast_fmri_test/images/redB.png'></img>	go	2200.0	3.0	24.0	go	target	B	71,Index Finger	89,Middle Finger	550.0	800.0	2200.0	1950.0	1.0	550.0	1.0	n/a	ITI
