onset	duration	text	rt	key_press	block_duration	timing_post_trial	trial_id	trial_type	trial_index	time_elapsed	internal_node_id	exp_id	subject_id	trigger_times	triggers	stimulus	possible_responses	stim_duration	exp_stage	SS_stimulus	SS_trial_type	SS_duration	load	trial_num	stop_trial_type	adaptive_trial_type	stim	yes_response_key	no_response_key	SSD_target	SSD_non_target	SSTarget	SSNonTarget	go_acc	SS_delay	adaptive_acc	stop_acc	new_trial_type
test	10880	n/a	-1	-1	10880	0.0	practice-no-stop-feedback	poldrack-single-stim	200	684128	0.0-12.0	beast_fmri_test	162	673248,/,673926,/,674607,/,675288,/,675968,/,676647,/,677328,/,678007,/,678687,/,679368,/,680048,/,680727,/,681407,/,682087,/,682768,/,683447,/,684127,/	t,t,t,t,t,t,t,t,t,t,t,t,t,t,t,t,t	"<div class = ""centerbox2_2""><p class = ""block-text2"">Your delay is 2 trials.</p><p class = block-text2>Please wait for the scanner to start the block</p></div>"	77	10880.0	n/a	n/a	n/a	n/a	n/a	n/a	n/a	n/a	n/a	n/a	n/a	n/a	n/a	n/a	n/a	n/a	n/a	n/a	n/a	start_functional_block
11381	500	n/a	-1	-1	500	0.0	fixation	poldrack-single-stim	201	684629	0.0-13.0-0.0	beast_fmri_test	162	n/a	n/a	<div class = centerbox2><div class = fixation>+</div></div>	none	500.0	test	n/a	n/a	n/a	n/a	n/a	n/a	n/a	n/a	n/a	n/a	n/a	n/a	n/a	n/a	n/a	n/a	n/a	n/a	fixation
11233.42064929998	2750	n/a	796	89	2750	149.5793507	stim	stop-signal	202	687381	0.0-13.0-1.0	beast_fmri_test	162	684807,/,685487,/,686167,/,686847,/,687527,/	t,t,t,t,t	<img class = center src='/static/experiments/beast_fmri_test/images/B.png'></img>	71,89	2750.0	test	<img class = center src='/static/experiments/beast_fmri_test/images/redB.png'></img>	go	-1.0	2.0	0.0	go	temp-non-target	B	71,Index Finger	89,Middle Finger	600.0	1000.0	2150.0	1700.0	0.0	n/a	n/a	n/a	go_stim
13983.42064929998	149.57935069999999	n/a	796	89	2750	149.5793507	stim	stop-signal	202	687381	0.0-13.0-1.0	beast_fmri_test	162	684807,/,685487,/,686167,/,686847,/,687527,/	t,t,t,t,t	<img class = center src='/static/experiments/beast_fmri_test/images/B.png'></img>	71,89	2750.0	test	<img class = center src='/static/experiments/beast_fmri_test/images/redB.png'></img>	go	-1.0	2.0	0.0	go	temp-non-target	B	71,Index Finger	89,Middle Finger	600.0	1000.0	2150.0	1700.0	0.0	n/a	n/a	n/a	ITI
14789	500	n/a	-1	-1	500	0.0	fixation	poldrack-single-stim	203	688037	0.0-13.1-0.1	beast_fmri_test	162	n/a	n/a	<div class = centerbox2><div class = fixation>+</div></div>	none	500.0	test	n/a	n/a	n/a	n/a	n/a	n/a	n/a	n/a	n/a	n/a	n/a	n/a	n/a	n/a	n/a	n/a	n/a	n/a	fixation
13914.830843599979	2750	n/a	1187	89	2750	876.1691564	stim	stop-signal	204	690789	0.0-13.1-1.1	beast_fmri_test	162	688207,/,688887,/,689567,/,690248,/,690927,/,691607,/	t,t,t,t,t,t	<img class = center src='/static/experiments/beast_fmri_test/images/V.png'></img>	71,89	2750.0	test	<img class = center src='/static/experiments/beast_fmri_test/images/redV.png'></img>	go	-1.0	2.0	1.0	go	temp-non-target	V	71,Index Finger	89,Middle Finger	600.0	1000.0	2150.0	1700.0	0.0	n/a	n/a	n/a	go_stim
16664.830843599979	876.16915639999991	n/a	1187	89	2750	876.1691564	stim	stop-signal	204	690789	0.0-13.1-1.1	beast_fmri_test	162	688207,/,688887,/,689567,/,690248,/,690927,/,691607,/	t,t,t,t,t,t	<img class = center src='/static/experiments/beast_fmri_test/images/V.png'></img>	71,89	2750.0	test	<img class = center src='/static/experiments/beast_fmri_test/images/redV.png'></img>	go	-1.0	2.0	1.0	go	temp-non-target	V	71,Index Finger	89,Middle Finger	600.0	1000.0	2150.0	1700.0	0.0	n/a	n/a	n/a	ITI
18927	500	n/a	-1	-1	500	0.0	fixation	poldrack-single-stim	205	692175	0.0-13.2-0.2	beast_fmri_test	162	n/a	n/a	<div class = centerbox2><div class = fixation>+</div></div>	none	500.0	test	n/a	n/a	n/a	n/a	n/a	n/a	n/a	n/a	n/a	n/a	n/a	n/a	n/a	n/a	n/a	n/a	n/a	n/a	fixation
18667.50999619998	600.0	n/a	538	71	2750	261.4900038	stim	stop-signal	206	694927	0.0-13.2-1.2	beast_fmri_test	162	692287,/,692967,/,693647,/,694327,/,695007,/	t,t,t,t,t	<img class = center src='/static/experiments/beast_fmri_test/images/B.png'></img>	71,89	2750.0	test	<img class = center src='/static/experiments/beast_fmri_test/images/redB.png'></img>	stop	2150.0	2.0	2.0	stop	target	B	71,Index Finger	89,Middle Finger	600.0	1000.0	2150.0	1700.0	0.0	600.0	n/a	0.0	go_stim
20817.50999619998	2150.0	n/a	538	71	2750	261.4900038	stim	stop-signal	206	694927	0.0-13.2-1.2	beast_fmri_test	162	692287,/,692967,/,693647,/,694327,/,695007,/	t,t,t,t,t	<img class = center src='/static/experiments/beast_fmri_test/images/B.png'></img>	71,89	2750.0	test	<img class = center src='/static/experiments/beast_fmri_test/images/redB.png'></img>	stop	2150.0	2.0	2.0	stop	target	B	71,Index Finger	89,Middle Finger	600.0	1000.0	2150.0	1700.0	0.0	600.0	n/a	0.0	stop_stim
21417.50999619998	261.49000380000001	n/a	538	71	2750	261.4900038	stim	stop-signal	206	694927	0.0-13.2-1.2	beast_fmri_test	162	692287,/,692967,/,693647,/,694327,/,695007,/	t,t,t,t,t	<img class = center src='/static/experiments/beast_fmri_test/images/B.png'></img>	71,89	2750.0	test	<img class = center src='/static/experiments/beast_fmri_test/images/redB.png'></img>	stop	2150.0	2.0	2.0	stop	target	B	71,Index Finger	89,Middle Finger	600.0	1000.0	2150.0	1700.0	0.0	600.0	n/a	0.0	ITI
22449	500	n/a	-1	-1	500	0.0	fixation	poldrack-single-stim	207	695697	0.0-13.3-0.3	beast_fmri_test	162	695687,/	t	<div class = centerbox2><div class = fixation>+</div></div>	none	500.0	test	n/a	n/a	n/a	n/a	n/a	n/a	n/a	n/a	n/a	n/a	n/a	n/a	n/a	n/a	n/a	n/a	n/a	n/a	fixation
19945.492244999972	2750	n/a	870	71	2750	2505.507755	stim	stop-signal	208	698449	0.0-13.3-1.3	beast_fmri_test	162	696367,/,697047,/,697727,/,698406,/,699087,/,699767,/,700448,/	t,t,t,t,t,t,t	<img class = center src='/static/experiments/beast_fmri_test/images/V.png'></img>	71,89	2750.0	test	<img class = center src='/static/experiments/beast_fmri_test/images/redV.png'></img>	go	2200.0	2.0	3.0	go	target	V	71,Index Finger	89,Middle Finger	550.0	1000.0	2200.0	1700.0	1.0	550.0	1.0	n/a	go_stim
22695.492244999972	2505.5077550000001	n/a	870	71	2750	2505.507755	stim	stop-signal	208	698449	0.0-13.3-1.3	beast_fmri_test	162	696367,/,697047,/,697727,/,698406,/,699087,/,699767,/,700448,/	t,t,t,t,t,t,t	<img class = center src='/static/experiments/beast_fmri_test/images/V.png'></img>	71,89	2750.0	test	<img class = center src='/static/experiments/beast_fmri_test/images/redV.png'></img>	go	2200.0	2.0	3.0	go	target	V	71,Index Finger	89,Middle Finger	550.0	1000.0	2200.0	1700.0	1.0	550.0	1.0	n/a	ITI
28216	500	n/a	-1	-1	500	0.0	fixation	poldrack-single-stim	209	701464	0.0-13.4-0.4	beast_fmri_test	162	701127,/	t	<div class = centerbox2><div class = fixation>+</div></div>	none	500.0	test	n/a	n/a	n/a	n/a	n/a	n/a	n/a	n/a	n/a	n/a	n/a	n/a	n/a	n/a	n/a	n/a	n/a	n/a	fixation
27705.827994200052	2750	n/a	896	89	2750	513.1720058	stim	stop-signal	210	704217	0.0-13.4-1.4	beast_fmri_test	162	701807,/,702486,/,703167,/,703847,/,704527,/	t,t,t,t,t	<img class = center src='/static/experiments/beast_fmri_test/images/V.png'></img>	71,89	2750.0	test	<img class = center src='/static/experiments/beast_fmri_test/images/redV.png'></img>	go	1750.0	2.0	4.0	go	non-target	V	71,Index Finger	89,Middle Finger	550.0	1000.0	2200.0	1750.0	1.0	1000.0	1.0	n/a	go_stim
30455.827994200052	513.17200579999997	n/a	896	89	2750	513.1720058	stim	stop-signal	210	704217	0.0-13.4-1.4	beast_fmri_test	162	701807,/,702486,/,703167,/,703847,/,704527,/	t,t,t,t,t	<img class = center src='/static/experiments/beast_fmri_test/images/V.png'></img>	71,89	2750.0	test	<img class = center src='/static/experiments/beast_fmri_test/images/redV.png'></img>	go	1750.0	2.0	4.0	go	non-target	V	71,Index Finger	89,Middle Finger	550.0	1000.0	2200.0	1750.0	1.0	1000.0	1.0	n/a	ITI
31989	500	n/a	-1	-1	500	0.0	fixation	poldrack-single-stim	211	705237	0.0-13.5-0.5	beast_fmri_test	162	705207,/	t	<div class = centerbox2><div class = fixation>+</div></div>	none	500.0	test	n/a	n/a	n/a	n/a	n/a	n/a	n/a	n/a	n/a	n/a	n/a	n/a	n/a	n/a	n/a	n/a	n/a	n/a	fixation
29873.092201999971	550.0	n/a	816	71	2750	2117.907798	stim	stop-signal	212	707989	0.0-13.5-1.5	beast_fmri_test	162	705887,/,706567,/,707247,/,707927,/,708608,/,709288,/,709968,/	t,t,t,t,t,t,t	<img class = center src='/static/experiments/beast_fmri_test/images/V.png'></img>	71,89	2750.0	test	<img class = center src='/static/experiments/beast_fmri_test/images/redV.png'></img>	stop	2200.0	2.0	5.0	stop	target	V	71,Index Finger	89,Middle Finger	550.0	1000.0	2200.0	1750.0	0.0	550.0	n/a	0.0	go_stim
32073.092201999971	2200.0	n/a	816	71	2750	2117.907798	stim	stop-signal	212	707989	0.0-13.5-1.5	beast_fmri_test	162	705887,/,706567,/,707247,/,707927,/,708608,/,709288,/,709968,/	t,t,t,t,t,t,t	<img class = center src='/static/experiments/beast_fmri_test/images/V.png'></img>	71,89	2750.0	test	<img class = center src='/static/experiments/beast_fmri_test/images/redV.png'></img>	stop	2200.0	2.0	5.0	stop	target	V	71,Index Finger	89,Middle Finger	550.0	1000.0	2200.0	1750.0	0.0	550.0	n/a	0.0	stop_stim
32623.092201999971	2117.9077980000002	n/a	816	71	2750	2117.907798	stim	stop-signal	212	707989	0.0-13.5-1.5	beast_fmri_test	162	705887,/,706567,/,707247,/,707927,/,708608,/,709288,/,709968,/	t,t,t,t,t,t,t	<img class = center src='/static/experiments/beast_fmri_test/images/V.png'></img>	71,89	2750.0	test	<img class = center src='/static/experiments/beast_fmri_test/images/redV.png'></img>	stop	2200.0	2.0	5.0	stop	target	V	71,Index Finger	89,Middle Finger	550.0	1000.0	2200.0	1750.0	0.0	550.0	n/a	0.0	ITI
37366	500	n/a	-1	-1	500	0.0	fixation	poldrack-single-stim	213	710614	0.0-13.6-0.6	beast_fmri_test	162	n/a	n/a	<div class = centerbox2><div class = fixation>+</div></div>	none	500.0	test	n/a	n/a	n/a	n/a	n/a	n/a	n/a	n/a	n/a	n/a	n/a	n/a	n/a	n/a	n/a	n/a	n/a	n/a	fixation
35090.695341999992	2750	n/a	1162	89	2750	2277.304658	stim	stop-signal	214	713366	0.0-13.6-1.6	beast_fmri_test	162	710648,/,711327,/,712007,/,712687,/,713367,/,714047,/,714727,/,715407,/	t,t,t,t,t,t,t,t	<img class = center src='/static/experiments/beast_fmri_test/images/D.png'></img>	71,89	2750.0	test	<img class = center src='/static/experiments/beast_fmri_test/images/redD.png'></img>	go	1750.0	2.0	6.0	go	non-target	D	71,Index Finger	89,Middle Finger	500.0	1000.0	2200.0	1750.0	1.0	1000.0	1.0	n/a	go_stim
37840.695341999992	2277.304658	n/a	1162	89	2750	2277.304658	stim	stop-signal	214	713366	0.0-13.6-1.6	beast_fmri_test	162	710648,/,711327,/,712007,/,712687,/,713367,/,714047,/,714727,/,715407,/	t,t,t,t,t,t,t,t	<img class = center src='/static/experiments/beast_fmri_test/images/D.png'></img>	71,89	2750.0	test	<img class = center src='/static/experiments/beast_fmri_test/images/redD.png'></img>	go	1750.0	2.0	6.0	go	non-target	D	71,Index Finger	89,Middle Finger	500.0	1000.0	2200.0	1750.0	1.0	1000.0	1.0	n/a	ITI
42905	500	n/a	-1	-1	500	0.0	fixation	poldrack-single-stim	215	716153	0.0-13.7-0.7	beast_fmri_test	162	716087,/	t	<div class = centerbox2><div class = fixation>+</div></div>	none	500.0	test	n/a	n/a	n/a	n/a	n/a	n/a	n/a	n/a	n/a	n/a	n/a	n/a	n/a	n/a	n/a	n/a	n/a	n/a	fixation
41974.404255499947	1000.0	n/a	699	89	2750	932.5957445	stim	stop-signal	216	718905	0.0-13.7-1.7	beast_fmri_test	162	716767,/,717447,/,718127,/,718807,/,719487,/	t,t,t,t,t	<img class = center src='/static/experiments/beast_fmri_test/images/T.png'></img>	71,89	2750.0	test	<img class = center src='/static/experiments/beast_fmri_test/images/redT.png'></img>	stop	1750.0	2.0	7.0	stop	non-target	T	71,Index Finger	89,Middle Finger	500.0	1000.0	2200.0	1750.0	0.0	1000.0	n/a	0.0	go_stim
43724.404255499947	1750.0	n/a	699	89	2750	932.5957445	stim	stop-signal	216	718905	0.0-13.7-1.7	beast_fmri_test	162	716767,/,717447,/,718127,/,718807,/,719487,/	t,t,t,t,t	<img class = center src='/static/experiments/beast_fmri_test/images/T.png'></img>	71,89	2750.0	test	<img class = center src='/static/experiments/beast_fmri_test/images/redT.png'></img>	stop	1750.0	2.0	7.0	stop	non-target	T	71,Index Finger	89,Middle Finger	500.0	1000.0	2200.0	1750.0	0.0	1000.0	n/a	0.0	stop_stim
44724.404255499947	932.59574450000002	n/a	699	89	2750	932.5957445	stim	stop-signal	216	718905	0.0-13.7-1.7	beast_fmri_test	162	716767,/,717447,/,718127,/,718807,/,719487,/	t,t,t,t,t	<img class = center src='/static/experiments/beast_fmri_test/images/T.png'></img>	71,89	2750.0	test	<img class = center src='/static/experiments/beast_fmri_test/images/redT.png'></img>	stop	1750.0	2.0	7.0	stop	non-target	T	71,Index Finger	89,Middle Finger	500.0	1000.0	2200.0	1750.0	0.0	1000.0	n/a	0.0	ITI
47098	500	n/a	-1	-1	500	0.0	fixation	poldrack-single-stim	217	720346	0.0-13.8-0.8	beast_fmri_test	162	720167,/	t	<div class = centerbox2><div class = fixation>+</div></div>	none	500.0	test	n/a	n/a	n/a	n/a	n/a	n/a	n/a	n/a	n/a	n/a	n/a	n/a	n/a	n/a	n/a	n/a	n/a	n/a	fixation
46453.146235299995	2750	n/a	1263	89	2750	646.8537647	stim	stop-signal	218	723098	0.0-13.8-1.8	beast_fmri_test	162	720848,/,721527,/,722207,/,722887,/,723567,/	t,t,t,t,t	<img class = center src='/static/experiments/beast_fmri_test/images/P.png'></img>	71,89	2750.0	test	<img class = center src='/static/experiments/beast_fmri_test/images/redP.png'></img>	go	1800.0	2.0	8.0	go	non-target	P	71,Index Finger	89,Middle Finger	500.0	950.0	2200.0	1800.0	1.0	950.0	1.0	n/a	go_stim
49203.146235299995	646.85376470000006	n/a	1263	89	2750	646.8537647	stim	stop-signal	218	723098	0.0-13.8-1.8	beast_fmri_test	162	720848,/,721527,/,722207,/,722887,/,723567,/	t,t,t,t,t	<img class = center src='/static/experiments/beast_fmri_test/images/P.png'></img>	71,89	2750.0	test	<img class = center src='/static/experiments/beast_fmri_test/images/redP.png'></img>	go	1800.0	2.0	8.0	go	non-target	P	71,Index Finger	89,Middle Finger	500.0	950.0	2200.0	1800.0	1.0	950.0	1.0	n/a	ITI
51006	500	n/a	-1	-1	500	0.0	fixation	poldrack-single-stim	219	724254	0.0-13.9-0.9	beast_fmri_test	162	724247,/	t	<div class = centerbox2><div class = fixation>+</div></div>	none	500.0	test	n/a	n/a	n/a	n/a	n/a	n/a	n/a	n/a	n/a	n/a	n/a	n/a	n/a	n/a	n/a	n/a	n/a	n/a	fixation
49912.505680999951	950.0	n/a	-1	-1	2750	1096.494319	stim	stop-signal	220	727007	0.0-13.9-1.9	beast_fmri_test	162	724927,/,725607,/,726287,/,726967,/,727647,/	t,t,t,t,t	<img class = center src='/static/experiments/beast_fmri_test/images/D.png'></img>	71,89	2750.0	test	<img class = center src='/static/experiments/beast_fmri_test/images/redD.png'></img>	stop	1800.0	2.0	9.0	stop	non-target	D	71,Index Finger	89,Middle Finger	500.0	950.0	2200.0	1800.0	0.0	950.0	n/a	1.0	go_stim
51712.505680999951	1800.0	n/a	-1	-1	2750	1096.494319	stim	stop-signal	220	727007	0.0-13.9-1.9	beast_fmri_test	162	724927,/,725607,/,726287,/,726967,/,727647,/	t,t,t,t,t	<img class = center src='/static/experiments/beast_fmri_test/images/D.png'></img>	71,89	2750.0	test	<img class = center src='/static/experiments/beast_fmri_test/images/redD.png'></img>	stop	1800.0	2.0	9.0	stop	non-target	D	71,Index Finger	89,Middle Finger	500.0	950.0	2200.0	1800.0	0.0	950.0	n/a	1.0	stop_stim
52662.505680999951	1096.4943189999999	n/a	-1	-1	2750	1096.494319	stim	stop-signal	220	727007	0.0-13.9-1.9	beast_fmri_test	162	724927,/,725607,/,726287,/,726967,/,727647,/	t,t,t,t,t	<img class = center src='/static/experiments/beast_fmri_test/images/D.png'></img>	71,89	2750.0	test	<img class = center src='/static/experiments/beast_fmri_test/images/redD.png'></img>	stop	1800.0	2.0	9.0	stop	non-target	D	71,Index Finger	89,Middle Finger	500.0	950.0	2200.0	1800.0	0.0	950.0	n/a	1.0	ITI
55364	500	n/a	-1	-1	500	0.0	fixation	poldrack-single-stim	221	728612	0.0-13.10-0.10	beast_fmri_test	162	728327,/	t	<div class = centerbox2><div class = fixation>+</div></div>	none	500.0	test	n/a	n/a	n/a	n/a	n/a	n/a	n/a	n/a	n/a	n/a	n/a	n/a	n/a	n/a	n/a	n/a	n/a	n/a	fixation
54527.832938099978	1000.0	n/a	-1	-1	2750	837.1670619	stim	stop-signal	222	731363	0.0-13.10-1.10	beast_fmri_test	162	729007,/,729687,/,730367,/,731047,/,731727,/	t,t,t,t,t	<img class = center src='/static/experiments/beast_fmri_test/images/T.png'></img>	71,89	2750.0	test	<img class = center src='/static/experiments/beast_fmri_test/images/redT.png'></img>	stop	1750.0	2.0	10.0	stop	non-target	T	71,Index Finger	89,Middle Finger	500.0	1000.0	2200.0	1750.0	0.0	1000.0	n/a	1.0	go_stim
56277.832938099978	1750.0	n/a	-1	-1	2750	837.1670619	stim	stop-signal	222	731363	0.0-13.10-1.10	beast_fmri_test	162	729007,/,729687,/,730367,/,731047,/,731727,/	t,t,t,t,t	<img class = center src='/static/experiments/beast_fmri_test/images/T.png'></img>	71,89	2750.0	test	<img class = center src='/static/experiments/beast_fmri_test/images/redT.png'></img>	stop	1750.0	2.0	10.0	stop	non-target	T	71,Index Finger	89,Middle Finger	500.0	1000.0	2200.0	1750.0	0.0	1000.0	n/a	1.0	stop_stim
57277.832938099978	837.16706190000002	n/a	-1	-1	2750	837.1670619	stim	stop-signal	222	731363	0.0-13.10-1.10	beast_fmri_test	162	729007,/,729687,/,730367,/,731047,/,731727,/	t,t,t,t,t	<img class = center src='/static/experiments/beast_fmri_test/images/T.png'></img>	71,89	2750.0	test	<img class = center src='/static/experiments/beast_fmri_test/images/redT.png'></img>	stop	1750.0	2.0	10.0	stop	non-target	T	71,Index Finger	89,Middle Finger	500.0	1000.0	2200.0	1750.0	0.0	1000.0	n/a	1.0	ITI
59462	500	n/a	-1	-1	500	0.0	fixation	poldrack-single-stim	223	732710	0.0-13.11-0.11	beast_fmri_test	162	732407,/	t	<div class = centerbox2><div class = fixation>+</div></div>	none	500.0	test	n/a	n/a	n/a	n/a	n/a	n/a	n/a	n/a	n/a	n/a	n/a	n/a	n/a	n/a	n/a	n/a	n/a	n/a	fixation
58805.226199100027	500.0	n/a	-1	-1	2750	658.7738009	stim	stop-signal	224	735462	0.0-13.11-1.11	beast_fmri_test	162	733086,/,733767,/,734447,/,735127,/,735807,/	t,t,t,t,t	<img class = center src='/static/experiments/beast_fmri_test/images/D.png'></img>	71,89	2750.0	test	<img class = center src='/static/experiments/beast_fmri_test/images/redD.png'></img>	stop	2250.0	2.0	11.0	stop	target	D	71,Index Finger	89,Middle Finger	500.0	1050.0	2250.0	1750.0	0.0	500.0	n/a	1.0	go_stim
61055.226199100027	2250.0	n/a	-1	-1	2750	658.7738009	stim	stop-signal	224	735462	0.0-13.11-1.11	beast_fmri_test	162	733086,/,733767,/,734447,/,735127,/,735807,/	t,t,t,t,t	<img class = center src='/static/experiments/beast_fmri_test/images/D.png'></img>	71,89	2750.0	test	<img class = center src='/static/experiments/beast_fmri_test/images/redD.png'></img>	stop	2250.0	2.0	11.0	stop	target	D	71,Index Finger	89,Middle Finger	500.0	1050.0	2250.0	1750.0	0.0	500.0	n/a	1.0	stop_stim
61555.226199100027	658.77380089999997	n/a	-1	-1	2750	658.7738009	stim	stop-signal	224	735462	0.0-13.11-1.11	beast_fmri_test	162	733086,/,733767,/,734447,/,735127,/,735807,/	t,t,t,t,t	<img class = center src='/static/experiments/beast_fmri_test/images/D.png'></img>	71,89	2750.0	test	<img class = center src='/static/experiments/beast_fmri_test/images/redD.png'></img>	stop	2250.0	2.0	11.0	stop	target	D	71,Index Finger	89,Middle Finger	500.0	1050.0	2250.0	1750.0	0.0	500.0	n/a	1.0	ITI
63380	500	n/a	-1	-1	500	0.0	fixation	poldrack-single-stim	225	736628	0.0-13.12-0.12	beast_fmri_test	162	736487,/	t	<div class = centerbox2><div class = fixation>+</div></div>	none	500.0	test	n/a	n/a	n/a	n/a	n/a	n/a	n/a	n/a	n/a	n/a	n/a	n/a	n/a	n/a	n/a	n/a	n/a	n/a	fixation
62824.595434500021	2750	n/a	1027	71	2750	557.4045655	stim	stop-signal	226	739380	0.0-13.12-1.12	beast_fmri_test	162	737167,/,737846,/,738526,/,739207,/,739887,/	t,t,t,t,t	<img class = center src='/static/experiments/beast_fmri_test/images/T.png'></img>	71,89	2750.0	test	<img class = center src='/static/experiments/beast_fmri_test/images/redT.png'></img>	go	2200.0	2.0	12.0	go	target	T	71,Index Finger	89,Middle Finger	550.0	1050.0	2200.0	1750.0	1.0	550.0	1.0	n/a	go_stim
65574.595434500021	557.40456549999999	n/a	1027	71	2750	557.4045655	stim	stop-signal	226	739380	0.0-13.12-1.12	beast_fmri_test	162	737167,/,737846,/,738526,/,739207,/,739887,/	t,t,t,t,t	<img class = center src='/static/experiments/beast_fmri_test/images/T.png'></img>	71,89	2750.0	test	<img class = center src='/static/experiments/beast_fmri_test/images/redT.png'></img>	go	2200.0	2.0	12.0	go	target	T	71,Index Finger	89,Middle Finger	550.0	1050.0	2200.0	1750.0	1.0	550.0	1.0	n/a	ITI
67197	500	n/a	-1	-1	500	0.0	fixation	poldrack-single-stim	227	740445	0.0-13.13-0.13	beast_fmri_test	162	n/a	n/a	<div class = centerbox2><div class = fixation>+</div></div>	none	500.0	test	n/a	n/a	n/a	n/a	n/a	n/a	n/a	n/a	n/a	n/a	n/a	n/a	n/a	n/a	n/a	n/a	n/a	n/a	fixation
67146.587379219942	2750	n/a	737	89	2750	53.41262078	stim	stop-signal	228	743198	0.0-13.13-1.13	beast_fmri_test	162	740568,/,741248,/,741928,/,742607,/	t,t,t,t	<img class = center src='/static/experiments/beast_fmri_test/images/P.png'></img>	71,89	2750.0	test	<img class = center src='/static/experiments/beast_fmri_test/images/redP.png'></img>	go	1700.0	2.0	13.0	go	non-target	P	71,Index Finger	89,Middle Finger	550.0	1050.0	2200.0	1700.0	1.0	1050.0	1.0	n/a	go_stim
69896.587379219942	53.412620779999997	n/a	737	89	2750	53.41262078	stim	stop-signal	228	743198	0.0-13.13-1.13	beast_fmri_test	162	740568,/,741248,/,741928,/,742607,/	t,t,t,t	<img class = center src='/static/experiments/beast_fmri_test/images/P.png'></img>	71,89	2750.0	test	<img class = center src='/static/experiments/beast_fmri_test/images/redP.png'></img>	go	1700.0	2.0	13.0	go	non-target	P	71,Index Finger	89,Middle Finger	550.0	1050.0	2200.0	1700.0	1.0	1050.0	1.0	n/a	ITI
70511	500	n/a	-1	-1	500	0.0	fixation	poldrack-single-stim	229	743759	0.0-13.14-0.14	beast_fmri_test	162	743287,/	t	<div class = centerbox2><div class = fixation>+</div></div>	none	500.0	test	n/a	n/a	n/a	n/a	n/a	n/a	n/a	n/a	n/a	n/a	n/a	n/a	n/a	n/a	n/a	n/a	n/a	n/a	fixation
67631.735692000017	2750	n/a	1040	71	2750	2880.264308	stim	stop-signal	230	746510	0.0-13.14-1.14	beast_fmri_test	162	743967,/,744647,/,745327,/,746007,/,746687,/,747367,/,748047,/,748727,/	t,t,t,t,t,t,t,t	<img class = center src='/static/experiments/beast_fmri_test/images/T.png'></img>	71,89	2750.0	test	<img class = center src='/static/experiments/beast_fmri_test/images/redT.png'></img>	go	2200.0	2.0	14.0	go	target	T	71,Index Finger	89,Middle Finger	550.0	1050.0	2200.0	1700.0	1.0	550.0	1.0	n/a	go_stim
70381.735692000017	2880.2643079999998	n/a	1040	71	2750	2880.264308	stim	stop-signal	230	746510	0.0-13.14-1.14	beast_fmri_test	162	743967,/,744647,/,745327,/,746007,/,746687,/,747367,/,748047,/,748727,/	t,t,t,t,t,t,t,t	<img class = center src='/static/experiments/beast_fmri_test/images/T.png'></img>	71,89	2750.0	test	<img class = center src='/static/experiments/beast_fmri_test/images/redT.png'></img>	go	2200.0	2.0	14.0	go	target	T	71,Index Finger	89,Middle Finger	550.0	1050.0	2200.0	1700.0	1.0	550.0	1.0	n/a	ITI
76651	500	n/a	-1	-1	500	0.0	fixation	poldrack-single-stim	231	749899	0.0-13.15-0.15	beast_fmri_test	162	749407,/	t	<div class = centerbox2><div class = fixation>+</div></div>	none	500.0	test	n/a	n/a	n/a	n/a	n/a	n/a	n/a	n/a	n/a	n/a	n/a	n/a	n/a	n/a	n/a	n/a	n/a	n/a	fixation
74640.131704999949	2750	n/a	1566	89	2750	2012.868295	stim	stop-signal	232	752651	0.0-13.15-1.15	beast_fmri_test	162	750087,/,750767,/,751448,/,752127,/,752807,/,753487,/,754167,/	t,t,t,t,t,t,t	<img class = center src='/static/experiments/beast_fmri_test/images/T.png'></img>	71,89	2750.0	test	<img class = center src='/static/experiments/beast_fmri_test/images/redT.png'></img>	go	1700.0	2.0	15.0	go	non-target	T	71,Index Finger	89,Middle Finger	550.0	1050.0	2200.0	1700.0	1.0	1050.0	1.0	n/a	go_stim
77390.131704999949	2012.868295	n/a	1566	89	2750	2012.868295	stim	stop-signal	232	752651	0.0-13.15-1.15	beast_fmri_test	162	750087,/,750767,/,751448,/,752127,/,752807,/,753487,/,754167,/	t,t,t,t,t,t,t	<img class = center src='/static/experiments/beast_fmri_test/images/T.png'></img>	71,89	2750.0	test	<img class = center src='/static/experiments/beast_fmri_test/images/redT.png'></img>	go	1700.0	2.0	15.0	go	non-target	T	71,Index Finger	89,Middle Finger	550.0	1050.0	2200.0	1700.0	1.0	1050.0	1.0	n/a	ITI
81923	500	n/a	-1	-1	500	0.0	fixation	poldrack-single-stim	233	755171	0.0-13.16-0.16	beast_fmri_test	162	754847,/	t	<div class = centerbox2><div class = fixation>+</div></div>	none	500.0	test	n/a	n/a	n/a	n/a	n/a	n/a	n/a	n/a	n/a	n/a	n/a	n/a	n/a	n/a	n/a	n/a	n/a	n/a	fixation
81359.508052099962	2750	n/a	643	89	2750	565.4919479	stim	stop-signal	234	757923	0.0-13.16-1.16	beast_fmri_test	162	755527,/,756207,/,756887,/,757567,/,758247,/	t,t,t,t,t	<img class = center src='/static/experiments/beast_fmri_test/images/V.png'></img>	71,89	2750.0	test	<img class = center src='/static/experiments/beast_fmri_test/images/redV.png'></img>	go	1700.0	2.0	16.0	go	non-target	V	71,Index Finger	89,Middle Finger	550.0	1050.0	2200.0	1700.0	1.0	1050.0	1.0	n/a	go_stim
84109.508052099962	565.4919478999999	n/a	643	89	2750	565.4919479	stim	stop-signal	234	757923	0.0-13.16-1.16	beast_fmri_test	162	755527,/,756207,/,756887,/,757567,/,758247,/	t,t,t,t,t	<img class = center src='/static/experiments/beast_fmri_test/images/V.png'></img>	71,89	2750.0	test	<img class = center src='/static/experiments/beast_fmri_test/images/redV.png'></img>	go	1700.0	2.0	16.0	go	non-target	V	71,Index Finger	89,Middle Finger	550.0	1050.0	2200.0	1700.0	1.0	1050.0	1.0	n/a	ITI
85750	500	n/a	-1	-1	500	0.0	fixation	poldrack-single-stim	235	758998	0.0-13.17-0.17	beast_fmri_test	162	758927,/	t	<div class = centerbox2><div class = fixation>+</div></div>	none	500.0	test	n/a	n/a	n/a	n/a	n/a	n/a	n/a	n/a	n/a	n/a	n/a	n/a	n/a	n/a	n/a	n/a	n/a	n/a	fixation
84706.825091999955	2750	n/a	804	71	2750	1045.174908	stim	stop-signal	236	761750	0.0-13.17-1.17	beast_fmri_test	162	759607,/,760287,/,760967,/,761647,/,762327,/	t,t,t,t,t	<img class = center src='/static/experiments/beast_fmri_test/images/T.png'></img>	71,89	2750.0	test	<img class = center src='/static/experiments/beast_fmri_test/images/redT.png'></img>	go	2200.0	2.0	17.0	go	target	T	71,Index Finger	89,Middle Finger	550.0	1050.0	2200.0	1700.0	1.0	550.0	1.0	n/a	go_stim
87456.825091999955	1045.174908	n/a	804	71	2750	1045.174908	stim	stop-signal	236	761750	0.0-13.17-1.17	beast_fmri_test	162	759607,/,760287,/,760967,/,761647,/,762327,/	t,t,t,t,t	<img class = center src='/static/experiments/beast_fmri_test/images/T.png'></img>	71,89	2750.0	test	<img class = center src='/static/experiments/beast_fmri_test/images/redT.png'></img>	go	2200.0	2.0	17.0	go	target	T	71,Index Finger	89,Middle Finger	550.0	1050.0	2200.0	1700.0	1.0	550.0	1.0	n/a	ITI
90057	500	n/a	-1	-1	500	0.0	fixation	poldrack-single-stim	237	763305	0.0-13.18-0.18	beast_fmri_test	162	763007,/	t	<div class = centerbox2><div class = fixation>+</div></div>	none	500.0	test	n/a	n/a	n/a	n/a	n/a	n/a	n/a	n/a	n/a	n/a	n/a	n/a	n/a	n/a	n/a	n/a	n/a	n/a	fixation
90050.179395955056	2750	n/a	782	89	2750	8.820604045	stim	stop-signal	238	766057	0.0-13.18-1.18	beast_fmri_test	162	763687,/,764367,/,765047,/,765726,/	t,t,t,t	<img class = center src='/static/experiments/beast_fmri_test/images/P.png'></img>	71,89	2750.0	test	<img class = center src='/static/experiments/beast_fmri_test/images/redP.png'></img>	go	1700.0	2.0	18.0	go	non-target	P	71,Index Finger	89,Middle Finger	550.0	1050.0	2200.0	1700.0	1.0	1050.0	1.0	n/a	go_stim
92800.179395955056	8.8206040449999996	n/a	782	89	2750	8.820604045	stim	stop-signal	238	766057	0.0-13.18-1.18	beast_fmri_test	162	763687,/,764367,/,765047,/,765726,/	t,t,t,t	<img class = center src='/static/experiments/beast_fmri_test/images/P.png'></img>	71,89	2750.0	test	<img class = center src='/static/experiments/beast_fmri_test/images/redP.png'></img>	go	1700.0	2.0	18.0	go	non-target	P	71,Index Finger	89,Middle Finger	550.0	1050.0	2200.0	1700.0	1.0	1050.0	1.0	n/a	ITI
93324	500	n/a	-1	-1	500	0.0	fixation	poldrack-single-stim	239	766572	0.0-13.19-0.19	beast_fmri_test	162	766407,/	t	<div class = centerbox2><div class = fixation>+</div></div>	none	500.0	test	n/a	n/a	n/a	n/a	n/a	n/a	n/a	n/a	n/a	n/a	n/a	n/a	n/a	n/a	n/a	n/a	n/a	n/a	fixation
88326.0	2750	n/a	1214	89	2750	5000.0	stim	stop-signal	240	769324	0.0-13.19-1.19	beast_fmri_test	162	767087,/,767767,/,768446,/,769127,/,769807,/,770488,/,771167,/,771848,/,772527,/,773207,/,773887,/	t,t,t,t,t,t,t,t,t,t,t	<img class = center src='/static/experiments/beast_fmri_test/images/B.png'></img>	71,89	2750.0	test	<img class = center src='/static/experiments/beast_fmri_test/images/redB.png'></img>	go	1700.0	2.0	19.0	go	non-target	B	71,Index Finger	89,Middle Finger	550.0	1050.0	2200.0	1700.0	1.0	1050.0	1.0	n/a	go_stim
91076.0	5000.0	n/a	1214	89	2750	5000.0	stim	stop-signal	240	769324	0.0-13.19-1.19	beast_fmri_test	162	767087,/,767767,/,768446,/,769127,/,769807,/,770488,/,771167,/,771848,/,772527,/,773207,/,773887,/	t,t,t,t,t,t,t,t,t,t,t	<img class = center src='/static/experiments/beast_fmri_test/images/B.png'></img>	71,89	2750.0	test	<img class = center src='/static/experiments/beast_fmri_test/images/redB.png'></img>	go	1700.0	2.0	19.0	go	non-target	B	71,Index Finger	89,Middle Finger	550.0	1050.0	2200.0	1700.0	1.0	1050.0	1.0	n/a	ITI
101586	500	n/a	-1	-1	500	0.0	fixation	poldrack-single-stim	241	774834	0.0-13.20-0.20	beast_fmri_test	162	774568,/	t	<div class = centerbox2><div class = fixation>+</div></div>	none	500.0	test	n/a	n/a	n/a	n/a	n/a	n/a	n/a	n/a	n/a	n/a	n/a	n/a	n/a	n/a	n/a	n/a	n/a	n/a	fixation
100316.159124	2750	n/a	955	89	2750	1272.840876	stim	stop-signal	242	777587	0.0-13.20-1.20	beast_fmri_test	162	775247,/,775928,/,776607,/,777287,/,777967,/,778647,/	t,t,t,t,t,t	<img class = center src='/static/experiments/beast_fmri_test/images/B.png'></img>	71,89	2750.0	test	<img class = center src='/static/experiments/beast_fmri_test/images/redB.png'></img>	go	1700.0	2.0	20.0	go	non-target	B	71,Index Finger	89,Middle Finger	550.0	1050.0	2200.0	1700.0	1.0	1050.0	1.0	n/a	go_stim
103066.159124	1272.840876	n/a	955	89	2750	1272.840876	stim	stop-signal	242	777587	0.0-13.20-1.20	beast_fmri_test	162	775247,/,775928,/,776607,/,777287,/,777967,/,778647,/	t,t,t,t,t,t	<img class = center src='/static/experiments/beast_fmri_test/images/B.png'></img>	71,89	2750.0	test	<img class = center src='/static/experiments/beast_fmri_test/images/redB.png'></img>	go	1700.0	2.0	20.0	go	non-target	B	71,Index Finger	89,Middle Finger	550.0	1050.0	2200.0	1700.0	1.0	1050.0	1.0	n/a	ITI
106122	500	n/a	-1	-1	500	0.0	fixation	poldrack-single-stim	243	779370	0.0-13.21-0.21	beast_fmri_test	162	779327,/	t	<div class = centerbox2><div class = fixation>+</div></div>	none	500.0	test	n/a	n/a	n/a	n/a	n/a	n/a	n/a	n/a	n/a	n/a	n/a	n/a	n/a	n/a	n/a	n/a	n/a	n/a	fixation
105962.12030529999	2750	n/a	1566	89	2750	161.8796947	stim	stop-signal	244	782122	0.0-13.21-1.21	beast_fmri_test	162	780007,/,780687,/,781367,/,782048,/	t,t,t,t	<img class = center src='/static/experiments/beast_fmri_test/images/P.png'></img>	71,89	2750.0	test	<img class = center src='/static/experiments/beast_fmri_test/images/redP.png'></img>	go	1700.0	2.0	21.0	go	non-target	P	71,Index Finger	89,Middle Finger	550.0	1050.0	2200.0	1700.0	1.0	1050.0	1.0	n/a	go_stim
108712.12030529999	161.87969469999999	n/a	1566	89	2750	161.8796947	stim	stop-signal	244	782122	0.0-13.21-1.21	beast_fmri_test	162	780007,/,780687,/,781367,/,782048,/	t,t,t,t	<img class = center src='/static/experiments/beast_fmri_test/images/P.png'></img>	71,89	2750.0	test	<img class = center src='/static/experiments/beast_fmri_test/images/redP.png'></img>	go	1700.0	2.0	21.0	go	non-target	P	71,Index Finger	89,Middle Finger	550.0	1050.0	2200.0	1700.0	1.0	1050.0	1.0	n/a	ITI
109546	500	n/a	-1	-1	500	0.0	fixation	poldrack-single-stim	245	782794	0.0-13.22-0.22	beast_fmri_test	162	782728,/	t	<div class = centerbox2><div class = fixation>+</div></div>	none	500.0	test	n/a	n/a	n/a	n/a	n/a	n/a	n/a	n/a	n/a	n/a	n/a	n/a	n/a	n/a	n/a	n/a	n/a	n/a	fixation
108233.41434699995	2750	n/a	2109	89	2750	1314.585653	stim	stop-signal	246	785546	0.0-13.22-1.22	beast_fmri_test	162	783407,/,784087,/,784767,/,785447,/,786127,/,786807,/	t,t,t,t,t,t	<img class = center src='/static/experiments/beast_fmri_test/images/P.png'></img>	71,89	2750.0	test	<img class = center src='/static/experiments/beast_fmri_test/images/redP.png'></img>	go	1700.0	2.0	22.0	go	non-target	P	71,Index Finger	89,Middle Finger	550.0	1050.0	2200.0	1700.0	1.0	1050.0	1.0	n/a	go_stim
110983.41434699995	1314.5856529999999	n/a	2109	89	2750	1314.585653	stim	stop-signal	246	785546	0.0-13.22-1.22	beast_fmri_test	162	783407,/,784087,/,784767,/,785447,/,786127,/,786807,/	t,t,t,t,t,t	<img class = center src='/static/experiments/beast_fmri_test/images/P.png'></img>	71,89	2750.0	test	<img class = center src='/static/experiments/beast_fmri_test/images/redP.png'></img>	go	1700.0	2.0	22.0	go	non-target	P	71,Index Finger	89,Middle Finger	550.0	1050.0	2200.0	1700.0	1.0	1050.0	1.0	n/a	ITI
114120	500	n/a	-1	-1	500	0.0	fixation	poldrack-single-stim	247	787368	0.0-13.23-0.23	beast_fmri_test	162	n/a	n/a	<div class = centerbox2><div class = fixation>+</div></div>	none	500.0	test	n/a	n/a	n/a	n/a	n/a	n/a	n/a	n/a	n/a	n/a	n/a	n/a	n/a	n/a	n/a	n/a	n/a	n/a	fixation
113154.24928019999	1050.0	n/a	-1	-1	2750	967.7507198	stim	stop-signal	248	790120	0.0-13.23-1.23	beast_fmri_test	162	787487,/,788167,/,788847,/,789527,/,790207,/,790887,/	t,t,t,t,t,t	<img class = center src='/static/experiments/beast_fmri_test/images/B.png'></img>	71,89	2750.0	test	<img class = center src='/static/experiments/beast_fmri_test/images/redB.png'></img>	stop	1700.0	2.0	23.0	stop	non-target	B	71,Index Finger	89,Middle Finger	550.0	1050.0	2200.0	1700.0	0.0	1050.0	n/a	1.0	go_stim
114854.24928019999	1700.0	n/a	-1	-1	2750	967.7507198	stim	stop-signal	248	790120	0.0-13.23-1.23	beast_fmri_test	162	787487,/,788167,/,788847,/,789527,/,790207,/,790887,/	t,t,t,t,t,t	<img class = center src='/static/experiments/beast_fmri_test/images/B.png'></img>	71,89	2750.0	test	<img class = center src='/static/experiments/beast_fmri_test/images/redB.png'></img>	stop	1700.0	2.0	23.0	stop	non-target	B	71,Index Finger	89,Middle Finger	550.0	1050.0	2200.0	1700.0	0.0	1050.0	n/a	1.0	stop_stim
115904.24928019999	967.75071979999984	n/a	-1	-1	2750	967.7507198	stim	stop-signal	248	790120	0.0-13.23-1.23	beast_fmri_test	162	787487,/,788167,/,788847,/,789527,/,790207,/,790887,/	t,t,t,t,t,t	<img class = center src='/static/experiments/beast_fmri_test/images/B.png'></img>	71,89	2750.0	test	<img class = center src='/static/experiments/beast_fmri_test/images/redB.png'></img>	stop	1700.0	2.0	23.0	stop	non-target	B	71,Index Finger	89,Middle Finger	550.0	1050.0	2200.0	1700.0	0.0	1050.0	n/a	1.0	ITI
118349	500	n/a	-1	-1	500	0.0	fixation	poldrack-single-stim	249	791597	0.0-13.24-0.24	beast_fmri_test	162	791567,/	t	<div class = centerbox2><div class = fixation>+</div></div>	none	500.0	test	n/a	n/a	n/a	n/a	n/a	n/a	n/a	n/a	n/a	n/a	n/a	n/a	n/a	n/a	n/a	n/a	n/a	n/a	fixation
115790.19238999998	2750	n/a	937	71	2750	2560.80761	stim	stop-signal	250	794349	0.0-13.24-1.24	beast_fmri_test	162	792248,/,792927,/,793607,/,794287,/,794967,/,795647,/,796327,/	t,t,t,t,t,t,t	<img class = center src='/static/experiments/beast_fmri_test/images/P.png'></img>	71,89	2750.0	test	<img class = center src='/static/experiments/beast_fmri_test/images/redP.png'></img>	go	2200.0	2.0	24.0	go	target	P	71,Index Finger	89,Middle Finger	550.0	1100.0	2200.0	1700.0	1.0	550.0	1.0	n/a	go_stim
118540.19238999998	2560.8076100000003	n/a	937	71	2750	2560.80761	stim	stop-signal	250	794349	0.0-13.24-1.24	beast_fmri_test	162	792248,/,792927,/,793607,/,794287,/,794967,/,795647,/,796327,/	t,t,t,t,t,t,t	<img class = center src='/static/experiments/beast_fmri_test/images/P.png'></img>	71,89	2750.0	test	<img class = center src='/static/experiments/beast_fmri_test/images/redP.png'></img>	go	2200.0	2.0	24.0	go	target	P	71,Index Finger	89,Middle Finger	550.0	1100.0	2200.0	1700.0	1.0	550.0	1.0	n/a	ITI
124173	500	n/a	-1	-1	500	0.0	fixation	poldrack-single-stim	251	797421	0.0-13.25-0.25	beast_fmri_test	162	797007,/	t	<div class = centerbox2><div class = fixation>+</div></div>	none	500.0	test	n/a	n/a	n/a	n/a	n/a	n/a	n/a	n/a	n/a	n/a	n/a	n/a	n/a	n/a	n/a	n/a	n/a	n/a	fixation
121997.93711900001	2750	n/a	986	89	2750	2177.062881	stim	stop-signal	252	800173	0.0-13.25-1.25	beast_fmri_test	162	797687,/,798366,/,799047,/,799727,/,800407,/,801086,/,801767,/	t,t,t,t,t,t,t	<img class = center src='/static/experiments/beast_fmri_test/images/V.png'></img>	71,89	2750.0	test	<img class = center src='/static/experiments/beast_fmri_test/images/redV.png'></img>	go	1650.0	2.0	25.0	go	non-target	V	71,Index Finger	89,Middle Finger	550.0	1100.0	2200.0	1650.0	1.0	1100.0	1.0	n/a	go_stim
124747.93711900001	2177.0628809999998	n/a	986	89	2750	2177.062881	stim	stop-signal	252	800173	0.0-13.25-1.25	beast_fmri_test	162	797687,/,798366,/,799047,/,799727,/,800407,/,801086,/,801767,/	t,t,t,t,t,t,t	<img class = center src='/static/experiments/beast_fmri_test/images/V.png'></img>	71,89	2750.0	test	<img class = center src='/static/experiments/beast_fmri_test/images/redV.png'></img>	go	1650.0	2.0	25.0	go	non-target	V	71,Index Finger	89,Middle Finger	550.0	1100.0	2200.0	1650.0	1.0	1100.0	1.0	n/a	ITI
129613	500	n/a	-1	-1	500	0.0	fixation	poldrack-single-stim	253	802861	0.0-13.26-0.26	beast_fmri_test	162	802447,/	t	<div class = centerbox2><div class = fixation>+</div></div>	none	500.0	test	n/a	n/a	n/a	n/a	n/a	n/a	n/a	n/a	n/a	n/a	n/a	n/a	n/a	n/a	n/a	n/a	n/a	n/a	fixation
129209.62955860002	2750	n/a	1296	89	2750	405.3704414	stim	stop-signal	254	805613	0.0-13.26-1.26	beast_fmri_test	162	803128,/,803808,/,804488,/,805167,/,805848,/	t,t,t,t,t	<img class = center src='/static/experiments/beast_fmri_test/images/B.png'></img>	71,89	2750.0	test	<img class = center src='/static/experiments/beast_fmri_test/images/redB.png'></img>	go	1650.0	2.0	26.0	go	non-target	B	71,Index Finger	89,Middle Finger	550.0	1100.0	2200.0	1650.0	1.0	1100.0	1.0	n/a	go_stim
131959.62955860002	405.3704414	n/a	1296	89	2750	405.3704414	stim	stop-signal	254	805613	0.0-13.26-1.26	beast_fmri_test	162	803128,/,803808,/,804488,/,805167,/,805848,/	t,t,t,t,t	<img class = center src='/static/experiments/beast_fmri_test/images/B.png'></img>	71,89	2750.0	test	<img class = center src='/static/experiments/beast_fmri_test/images/redB.png'></img>	go	1650.0	2.0	26.0	go	non-target	B	71,Index Finger	89,Middle Finger	550.0	1100.0	2200.0	1650.0	1.0	1100.0	1.0	n/a	ITI
133280	500	n/a	-1	-1	500	0.0	fixation	poldrack-single-stim	255	806528	0.0-13.27-0.27	beast_fmri_test	162	806527,/	t	<div class = centerbox2><div class = fixation>+</div></div>	none	500.0	test	n/a	n/a	n/a	n/a	n/a	n/a	n/a	n/a	n/a	n/a	n/a	n/a	n/a	n/a	n/a	n/a	n/a	n/a	fixation
133106.34955579997	550.0	n/a	-1	-1	2750	175.6504442	stim	stop-signal	256	809280	0.0-13.27-1.27	beast_fmri_test	162	807208,/,807887,/,808568,/,809247,/	t,t,t,t	<img class = center src='/static/experiments/beast_fmri_test/images/V.png'></img>	71,89	2750.0	test	<img class = center src='/static/experiments/beast_fmri_test/images/redV.png'></img>	stop	2200.0	2.0	27.0	stop	target	V	71,Index Finger	89,Middle Finger	550.0	1100.0	2200.0	1650.0	0.0	550.0	n/a	1.0	go_stim
135306.34955579997	2200.0	n/a	-1	-1	2750	175.6504442	stim	stop-signal	256	809280	0.0-13.27-1.27	beast_fmri_test	162	807208,/,807887,/,808568,/,809247,/	t,t,t,t	<img class = center src='/static/experiments/beast_fmri_test/images/V.png'></img>	71,89	2750.0	test	<img class = center src='/static/experiments/beast_fmri_test/images/redV.png'></img>	stop	2200.0	2.0	27.0	stop	target	V	71,Index Finger	89,Middle Finger	550.0	1100.0	2200.0	1650.0	0.0	550.0	n/a	1.0	stop_stim
135856.34955579997	175.65044419999998	n/a	-1	-1	2750	175.6504442	stim	stop-signal	256	809280	0.0-13.27-1.27	beast_fmri_test	162	807208,/,807887,/,808568,/,809247,/	t,t,t,t	<img class = center src='/static/experiments/beast_fmri_test/images/V.png'></img>	71,89	2750.0	test	<img class = center src='/static/experiments/beast_fmri_test/images/redV.png'></img>	stop	2200.0	2.0	27.0	stop	target	V	71,Index Finger	89,Middle Finger	550.0	1100.0	2200.0	1650.0	0.0	550.0	n/a	1.0	ITI
136717	500	n/a	-1	-1	500	0.0	fixation	poldrack-single-stim	257	809965	0.0-13.28-0.28	beast_fmri_test	162	809927,/	t	<div class = centerbox2><div class = fixation>+</div></div>	none	500.0	test	n/a	n/a	n/a	n/a	n/a	n/a	n/a	n/a	n/a	n/a	n/a	n/a	n/a	n/a	n/a	n/a	n/a	n/a	fixation
136715.95976972603	1100.0	n/a	-1	-1	2750	3.040230274	stim	stop-signal	258	812717	0.0-13.28-1.28	beast_fmri_test	162	810608,/,811287,/,811968,/,812648,/	t,t,t,t	<img class = center src='/static/experiments/beast_fmri_test/images/V.png'></img>	71,89	2750.0	test	<img class = center src='/static/experiments/beast_fmri_test/images/redV.png'></img>	stop	1650.0	2.0	28.0	stop	non-target	V	71,Index Finger	89,Middle Finger	600.0	1100.0	2200.0	1650.0	0.0	1100.0	n/a	1.0	go_stim
138365.95976972603	1650.0	n/a	-1	-1	2750	3.040230274	stim	stop-signal	258	812717	0.0-13.28-1.28	beast_fmri_test	162	810608,/,811287,/,811968,/,812648,/	t,t,t,t	<img class = center src='/static/experiments/beast_fmri_test/images/V.png'></img>	71,89	2750.0	test	<img class = center src='/static/experiments/beast_fmri_test/images/redV.png'></img>	stop	1650.0	2.0	28.0	stop	non-target	V	71,Index Finger	89,Middle Finger	600.0	1100.0	2200.0	1650.0	0.0	1100.0	n/a	1.0	stop_stim
139465.95976972603	3.0402302739999998	n/a	-1	-1	2750	3.040230274	stim	stop-signal	258	812717	0.0-13.28-1.28	beast_fmri_test	162	810608,/,811287,/,811968,/,812648,/	t,t,t,t	<img class = center src='/static/experiments/beast_fmri_test/images/V.png'></img>	71,89	2750.0	test	<img class = center src='/static/experiments/beast_fmri_test/images/redV.png'></img>	stop	1650.0	2.0	28.0	stop	non-target	V	71,Index Finger	89,Middle Finger	600.0	1100.0	2200.0	1650.0	0.0	1100.0	n/a	1.0	ITI
139981	500	n/a	-1	-1	500	0.0	fixation	poldrack-single-stim	259	813229	0.0-13.29-0.29	beast_fmri_test	162	n/a	n/a	<div class = centerbox2><div class = fixation>+</div></div>	none	500.0	test	n/a	n/a	n/a	n/a	n/a	n/a	n/a	n/a	n/a	n/a	n/a	n/a	n/a	n/a	n/a	n/a	n/a	n/a	fixation
138994.17440390005	2750	n/a	1251	71	2750	988.8255961	stim	stop-signal	260	815981	0.0-13.29-1.29	beast_fmri_test	162	813327,/,814008,/,814687,/,815367,/,816047,/,816727,/	t,t,t,t,t,t	<img class = center src='/static/experiments/beast_fmri_test/images/V.png'></img>	71,89	2750.0	test	<img class = center src='/static/experiments/beast_fmri_test/images/redV.png'></img>	go	2150.0	2.0	29.0	go	target	V	71,Index Finger	89,Middle Finger	600.0	1150.0	2150.0	1650.0	1.0	600.0	1.0	n/a	go_stim
141744.17440390005	988.8255961000001	n/a	1251	71	2750	988.8255961	stim	stop-signal	260	815981	0.0-13.29-1.29	beast_fmri_test	162	813327,/,814008,/,814687,/,815367,/,816047,/,816727,/	t,t,t,t,t,t	<img class = center src='/static/experiments/beast_fmri_test/images/V.png'></img>	71,89	2750.0	test	<img class = center src='/static/experiments/beast_fmri_test/images/redV.png'></img>	go	2150.0	2.0	29.0	go	target	V	71,Index Finger	89,Middle Finger	600.0	1150.0	2150.0	1650.0	1.0	600.0	1.0	n/a	ITI
144231	500	n/a	-1	-1	500	0.0	fixation	poldrack-single-stim	261	817479	0.0-13.30-0.30	beast_fmri_test	162	817407,/	t	<div class = centerbox2><div class = fixation>+</div></div>	none	500.0	test	n/a	n/a	n/a	n/a	n/a	n/a	n/a	n/a	n/a	n/a	n/a	n/a	n/a	n/a	n/a	n/a	n/a	n/a	fixation
143826.28108810005	2750	n/a	1229	71	2750	406.7189119	stim	stop-signal	262	820231	0.0-13.30-1.30	beast_fmri_test	162	818087,/,818767,/,819447,/,820127,/	t,t,t,t	<img class = center src='/static/experiments/beast_fmri_test/images/V.png'></img>	71,89	2750.0	test	<img class = center src='/static/experiments/beast_fmri_test/images/redV.png'></img>	go	2150.0	2.0	30.0	go	target	V	71,Index Finger	89,Middle Finger	600.0	1150.0	2150.0	1650.0	1.0	600.0	1.0	n/a	go_stim
146576.28108810005	406.71891189999997	n/a	1229	71	2750	406.7189119	stim	stop-signal	262	820231	0.0-13.30-1.30	beast_fmri_test	162	818087,/,818767,/,819447,/,820127,/	t,t,t,t	<img class = center src='/static/experiments/beast_fmri_test/images/V.png'></img>	71,89	2750.0	test	<img class = center src='/static/experiments/beast_fmri_test/images/redV.png'></img>	go	2150.0	2.0	30.0	go	target	V	71,Index Finger	89,Middle Finger	600.0	1150.0	2150.0	1650.0	1.0	600.0	1.0	n/a	ITI
147899	500	n/a	-1	-1	500	0.0	fixation	poldrack-single-stim	263	821147	0.0-13.31-0.31	beast_fmri_test	162	820807,/	t	<div class = centerbox2><div class = fixation>+</div></div>	none	500.0	test	n/a	n/a	n/a	n/a	n/a	n/a	n/a	n/a	n/a	n/a	n/a	n/a	n/a	n/a	n/a	n/a	n/a	n/a	fixation
146335.16077700001	2750	n/a	1265	89	2750	1565.839223	stim	stop-signal	264	823899	0.0-13.31-1.31	beast_fmri_test	162	821487,/,822167,/,822848,/,823527,/,824207,/,824887,/	t,t,t,t,t,t	<img class = center src='/static/experiments/beast_fmri_test/images/B.png'></img>	71,89	2750.0	test	<img class = center src='/static/experiments/beast_fmri_test/images/redB.png'></img>	go	1600.0	2.0	31.0	go	non-target	B	71,Index Finger	89,Middle Finger	600.0	1150.0	2150.0	1600.0	1.0	1150.0	1.0	n/a	go_stim
149085.16077700001	1565.8392229999999	n/a	1265	89	2750	1565.839223	stim	stop-signal	264	823899	0.0-13.31-1.31	beast_fmri_test	162	821487,/,822167,/,822848,/,823527,/,824207,/,824887,/	t,t,t,t,t,t	<img class = center src='/static/experiments/beast_fmri_test/images/B.png'></img>	71,89	2750.0	test	<img class = center src='/static/experiments/beast_fmri_test/images/redB.png'></img>	go	1600.0	2.0	31.0	go	non-target	B	71,Index Finger	89,Middle Finger	600.0	1150.0	2150.0	1600.0	1.0	1150.0	1.0	n/a	ITI
152727	500	n/a	-1	-1	500	0.0	fixation	poldrack-single-stim	265	825975	0.0-13.32-0.32	beast_fmri_test	162	825567,/	t	<div class = centerbox2><div class = fixation>+</div></div>	none	500.0	test	n/a	n/a	n/a	n/a	n/a	n/a	n/a	n/a	n/a	n/a	n/a	n/a	n/a	n/a	n/a	n/a	n/a	n/a	fixation
150836.17309399997	1150.0	n/a	610	89	2750	1892.826906	stim	stop-signal	266	828727	0.0-13.32-1.32	beast_fmri_test	162	826247,/,826927,/,827607,/,828287,/,828967,/,829646,/,830327,/	t,t,t,t,t,t,t	<img class = center src='/static/experiments/beast_fmri_test/images/P.png'></img>	71,89	2750.0	test	<img class = center src='/static/experiments/beast_fmri_test/images/redP.png'></img>	stop	1600.0	2.0	32.0	stop	non-target	P	71,Index Finger	89,Middle Finger	600.0	1150.0	2150.0	1600.0	0.0	1150.0	n/a	0.0	go_stim
152436.17309399997	1600.0	n/a	610	89	2750	1892.826906	stim	stop-signal	266	828727	0.0-13.32-1.32	beast_fmri_test	162	826247,/,826927,/,827607,/,828287,/,828967,/,829646,/,830327,/	t,t,t,t,t,t,t	<img class = center src='/static/experiments/beast_fmri_test/images/P.png'></img>	71,89	2750.0	test	<img class = center src='/static/experiments/beast_fmri_test/images/redP.png'></img>	stop	1600.0	2.0	32.0	stop	non-target	P	71,Index Finger	89,Middle Finger	600.0	1150.0	2150.0	1600.0	0.0	1150.0	n/a	0.0	stop_stim
153586.17309399997	1892.8269059999998	n/a	610	89	2750	1892.826906	stim	stop-signal	266	828727	0.0-13.32-1.32	beast_fmri_test	162	826247,/,826927,/,827607,/,828287,/,828967,/,829646,/,830327,/	t,t,t,t,t,t,t	<img class = center src='/static/experiments/beast_fmri_test/images/P.png'></img>	71,89	2750.0	test	<img class = center src='/static/experiments/beast_fmri_test/images/redP.png'></img>	stop	1600.0	2.0	32.0	stop	non-target	P	71,Index Finger	89,Middle Finger	600.0	1150.0	2150.0	1600.0	0.0	1150.0	n/a	0.0	ITI
157881	500	n/a	-1	-1	500	0.0	fixation	poldrack-single-stim	267	831129	0.0-13.33-0.33	beast_fmri_test	162	831007,/	t	<div class = centerbox2><div class = fixation>+</div></div>	none	500.0	test	n/a	n/a	n/a	n/a	n/a	n/a	n/a	n/a	n/a	n/a	n/a	n/a	n/a	n/a	n/a	n/a	n/a	n/a	fixation
155418.24079399998	2750	n/a	900	71	2750	2464.759206	stim	stop-signal	268	833881	0.0-13.33-1.33	beast_fmri_test	162	831687,/,832366,/,833047,/,833727,/,834408,/,835088,/,835767,/	t,t,t,t,t,t,t	<img class = center src='/static/experiments/beast_fmri_test/images/B.png'></img>	71,89	2750.0	test	<img class = center src='/static/experiments/beast_fmri_test/images/redB.png'></img>	go	2150.0	2.0	33.0	go	target	B	71,Index Finger	89,Middle Finger	600.0	1100.0	2150.0	1600.0	1.0	600.0	1.0	n/a	go_stim
158168.24079399998	2464.7592059999997	n/a	900	71	2750	2464.759206	stim	stop-signal	268	833881	0.0-13.33-1.33	beast_fmri_test	162	831687,/,832366,/,833047,/,833727,/,834408,/,835088,/,835767,/	t,t,t,t,t,t,t	<img class = center src='/static/experiments/beast_fmri_test/images/B.png'></img>	71,89	2750.0	test	<img class = center src='/static/experiments/beast_fmri_test/images/redB.png'></img>	go	2150.0	2.0	33.0	go	target	B	71,Index Finger	89,Middle Finger	600.0	1100.0	2150.0	1600.0	1.0	600.0	1.0	n/a	ITI
163607	500	n/a	-1	-1	500	0.0	fixation	poldrack-single-stim	269	836855	0.0-13.34-0.34	beast_fmri_test	162	836447,/	t	<div class = centerbox2><div class = fixation>+</div></div>	none	500.0	test	n/a	n/a	n/a	n/a	n/a	n/a	n/a	n/a	n/a	n/a	n/a	n/a	n/a	n/a	n/a	n/a	n/a	n/a	fixation
163198.01002140006	600.0	n/a	738	71	2750	410.9899786	stim	stop-signal	270	839607	0.0-13.34-1.34	beast_fmri_test	162	837128,/,837807,/,838487,/,839167,/,839847,/	t,t,t,t,t	<img class = center src='/static/experiments/beast_fmri_test/images/P.png'></img>	71,89	2750.0	test	<img class = center src='/static/experiments/beast_fmri_test/images/redP.png'></img>	stop	2150.0	2.0	34.0	stop	target	P	71,Index Finger	89,Middle Finger	600.0	1100.0	2150.0	1600.0	0.0	600.0	n/a	0.0	go_stim
165348.01002140006	2150.0	n/a	738	71	2750	410.9899786	stim	stop-signal	270	839607	0.0-13.34-1.34	beast_fmri_test	162	837128,/,837807,/,838487,/,839167,/,839847,/	t,t,t,t,t	<img class = center src='/static/experiments/beast_fmri_test/images/P.png'></img>	71,89	2750.0	test	<img class = center src='/static/experiments/beast_fmri_test/images/redP.png'></img>	stop	2150.0	2.0	34.0	stop	target	P	71,Index Finger	89,Middle Finger	600.0	1100.0	2150.0	1600.0	0.0	600.0	n/a	0.0	stop_stim
165948.01002140006	410.98997860000003	n/a	738	71	2750	410.9899786	stim	stop-signal	270	839607	0.0-13.34-1.34	beast_fmri_test	162	837128,/,837807,/,838487,/,839167,/,839847,/	t,t,t,t,t	<img class = center src='/static/experiments/beast_fmri_test/images/P.png'></img>	71,89	2750.0	test	<img class = center src='/static/experiments/beast_fmri_test/images/redP.png'></img>	stop	2150.0	2.0	34.0	stop	target	P	71,Index Finger	89,Middle Finger	600.0	1100.0	2150.0	1600.0	0.0	600.0	n/a	0.0	ITI
167280	500	n/a	-1	-1	500	0.0	fixation	poldrack-single-stim	271	840528	0.0-13.35-0.35	beast_fmri_test	162	n/a	n/a	<div class = centerbox2><div class = fixation>+</div></div>	none	500.0	test	n/a	n/a	n/a	n/a	n/a	n/a	n/a	n/a	n/a	n/a	n/a	n/a	n/a	n/a	n/a	n/a	n/a	n/a	fixation
167192.93759824999	1100.0	n/a	-1	-1	2750	89.06240175	stim	stop-signal	272	843280	0.0-13.35-1.35	beast_fmri_test	162	840528,/,841207,/,841887,/,842567,/,843249,/	t,t,t,t,t	<img class = center src='/static/experiments/beast_fmri_test/images/V.png'></img>	71,89	2750.0	test	<img class = center src='/static/experiments/beast_fmri_test/images/redV.png'></img>	stop	1650.0	2.0	35.0	stop	non-target	V	71,Index Finger	89,Middle Finger	550.0	1100.0	2150.0	1650.0	0.0	1100.0	n/a	1.0	go_stim
168842.93759824999	1650.0	n/a	-1	-1	2750	89.06240175	stim	stop-signal	272	843280	0.0-13.35-1.35	beast_fmri_test	162	840528,/,841207,/,841887,/,842567,/,843249,/	t,t,t,t,t	<img class = center src='/static/experiments/beast_fmri_test/images/V.png'></img>	71,89	2750.0	test	<img class = center src='/static/experiments/beast_fmri_test/images/redV.png'></img>	stop	1650.0	2.0	35.0	stop	non-target	V	71,Index Finger	89,Middle Finger	550.0	1100.0	2150.0	1650.0	0.0	1100.0	n/a	1.0	stop_stim
169942.93759824999	89.062401750000006	n/a	-1	-1	2750	89.06240175	stim	stop-signal	272	843280	0.0-13.35-1.35	beast_fmri_test	162	840528,/,841207,/,841887,/,842567,/,843249,/	t,t,t,t,t	<img class = center src='/static/experiments/beast_fmri_test/images/V.png'></img>	71,89	2750.0	test	<img class = center src='/static/experiments/beast_fmri_test/images/redV.png'></img>	stop	1650.0	2.0	35.0	stop	non-target	V	71,Index Finger	89,Middle Finger	550.0	1100.0	2150.0	1650.0	0.0	1100.0	n/a	1.0	ITI
170631	500	n/a	-1	-1	500	0.0	fixation	poldrack-single-stim	273	843879	0.0-13.36-0.36	beast_fmri_test	162	n/a	n/a	<div class = centerbox2><div class = fixation>+</div></div>	none	500.0	test	n/a	n/a	n/a	n/a	n/a	n/a	n/a	n/a	n/a	n/a	n/a	n/a	n/a	n/a	n/a	n/a	n/a	n/a	fixation
168767.14187399996	1150.0	n/a	892	89	2750	1865.858126	stim	stop-signal	274	846631	0.0-13.36-1.36	beast_fmri_test	162	843927,/,844607,/,845287,/,845967,/,846647,/,847327,/,848007,/	t,t,t,t,t,t,t	<img class = center src='/static/experiments/beast_fmri_test/images/T.png'></img>	71,89	2750.0	test	<img class = center src='/static/experiments/beast_fmri_test/images/redT.png'></img>	stop	1600.0	2.0	36.0	stop	non-target	T	71,Index Finger	89,Middle Finger	550.0	1150.0	2150.0	1600.0	0.0	1150.0	n/a	0.0	go_stim
170367.14187399996	1600.0	n/a	892	89	2750	1865.858126	stim	stop-signal	274	846631	0.0-13.36-1.36	beast_fmri_test	162	843927,/,844607,/,845287,/,845967,/,846647,/,847327,/,848007,/	t,t,t,t,t,t,t	<img class = center src='/static/experiments/beast_fmri_test/images/T.png'></img>	71,89	2750.0	test	<img class = center src='/static/experiments/beast_fmri_test/images/redT.png'></img>	stop	1600.0	2.0	36.0	stop	non-target	T	71,Index Finger	89,Middle Finger	550.0	1150.0	2150.0	1600.0	0.0	1150.0	n/a	0.0	stop_stim
171517.14187399996	1865.8581260000001	n/a	892	89	2750	1865.858126	stim	stop-signal	274	846631	0.0-13.36-1.36	beast_fmri_test	162	843927,/,844607,/,845287,/,845967,/,846647,/,847327,/,848007,/	t,t,t,t,t,t,t	<img class = center src='/static/experiments/beast_fmri_test/images/T.png'></img>	71,89	2750.0	test	<img class = center src='/static/experiments/beast_fmri_test/images/redT.png'></img>	stop	1600.0	2.0	36.0	stop	non-target	T	71,Index Finger	89,Middle Finger	550.0	1150.0	2150.0	1600.0	0.0	1150.0	n/a	0.0	ITI
175759	500	n/a	-1	-1	500	0.0	fixation	poldrack-single-stim	275	849007	0.0-13.37-0.37	beast_fmri_test	162	848687,/	t	<div class = centerbox2><div class = fixation>+</div></div>	none	500.0	test	n/a	n/a	n/a	n/a	n/a	n/a	n/a	n/a	n/a	n/a	n/a	n/a	n/a	n/a	n/a	n/a	n/a	n/a	fixation
174413.07194699999	2750	n/a	2054	89	2750	1347.928053	stim	stop-signal	276	851759	0.0-13.37-1.37	beast_fmri_test	162	849367,/,850047,/,850727,/,851407,/,852087,/,852767,/	t,t,t,t,t,t	<img class = center src='/static/experiments/beast_fmri_test/images/T.png'></img>	71,89	2750.0	test	<img class = center src='/static/experiments/beast_fmri_test/images/redT.png'></img>	go	1650.0	2.0	37.0	go	non-target	T	71,Index Finger	89,Middle Finger	550.0	1100.0	2150.0	1650.0	1.0	1100.0	1.0	n/a	go_stim
177163.07194699999	1347.9280529999999	n/a	2054	89	2750	1347.928053	stim	stop-signal	276	851759	0.0-13.37-1.37	beast_fmri_test	162	849367,/,850047,/,850727,/,851407,/,852087,/,852767,/	t,t,t,t,t,t	<img class = center src='/static/experiments/beast_fmri_test/images/T.png'></img>	71,89	2750.0	test	<img class = center src='/static/experiments/beast_fmri_test/images/redT.png'></img>	go	1650.0	2.0	37.0	go	non-target	T	71,Index Finger	89,Middle Finger	550.0	1100.0	2150.0	1650.0	1.0	1100.0	1.0	n/a	ITI
180369	500	n/a	-1	-1	500	0.0	fixation	poldrack-single-stim	277	853617	0.0-13.38-0.38	beast_fmri_test	162	853448,/	t	<div class = centerbox2><div class = fixation>+</div></div>	none	500.0	test	n/a	n/a	n/a	n/a	n/a	n/a	n/a	n/a	n/a	n/a	n/a	n/a	n/a	n/a	n/a	n/a	n/a	n/a	fixation
180318.49023550004	2750	n/a	1637	89	2750	52.5097645	stim	stop-signal	278	856369	0.0-13.38-1.38	beast_fmri_test	162	854127,/,854807,/,855487,/,856167,/	t,t,t,t	<img class = center src='/static/experiments/beast_fmri_test/images/V.png'></img>	71,89	2750.0	test	<img class = center src='/static/experiments/beast_fmri_test/images/redV.png'></img>	go	1650.0	2.0	38.0	go	non-target	V	71,Index Finger	89,Middle Finger	550.0	1100.0	2150.0	1650.0	1.0	1100.0	1.0	n/a	go_stim
183068.49023550004	52.509764500000003	n/a	1637	89	2750	52.5097645	stim	stop-signal	278	856369	0.0-13.38-1.38	beast_fmri_test	162	854127,/,854807,/,855487,/,856167,/	t,t,t,t	<img class = center src='/static/experiments/beast_fmri_test/images/V.png'></img>	71,89	2750.0	test	<img class = center src='/static/experiments/beast_fmri_test/images/redV.png'></img>	go	1650.0	2.0	38.0	go	non-target	V	71,Index Finger	89,Middle Finger	550.0	1100.0	2150.0	1650.0	1.0	1100.0	1.0	n/a	ITI
183683	500	n/a	-1	-1	500	0.0	fixation	poldrack-single-stim	279	856931	0.0-13.39-0.39	beast_fmri_test	162	856847,/	t	<div class = centerbox2><div class = fixation>+</div></div>	none	500.0	test	n/a	n/a	n/a	n/a	n/a	n/a	n/a	n/a	n/a	n/a	n/a	n/a	n/a	n/a	n/a	n/a	n/a	n/a	fixation
183293.24735850003	2750	n/a	1456	71	2750	391.7526415	stim	stop-signal	280	859683	0.0-13.39-1.39	beast_fmri_test	162	857527,/,858207,/,858887,/,859567,/	t,t,t,t	<img class = center src='/static/experiments/beast_fmri_test/images/T.png'></img>	71,89	2750.0	test	<img class = center src='/static/experiments/beast_fmri_test/images/redT.png'></img>	go	2200.0	2.0	39.0	go	target	T	71,Index Finger	89,Middle Finger	550.0	1100.0	2200.0	1650.0	1.0	550.0	1.0	n/a	go_stim
186043.24735850003	391.75264149999998	n/a	1456	71	2750	391.7526415	stim	stop-signal	280	859683	0.0-13.39-1.39	beast_fmri_test	162	857527,/,858207,/,858887,/,859567,/	t,t,t,t	<img class = center src='/static/experiments/beast_fmri_test/images/T.png'></img>	71,89	2750.0	test	<img class = center src='/static/experiments/beast_fmri_test/images/redT.png'></img>	go	2200.0	2.0	39.0	go	target	T	71,Index Finger	89,Middle Finger	550.0	1100.0	2200.0	1650.0	1.0	550.0	1.0	n/a	ITI
187338	500	n/a	-1	-1	500	0.0	fixation	poldrack-single-stim	281	860586	0.0-13.40-0.40	beast_fmri_test	162	860247,/	t	<div class = centerbox2><div class = fixation>+</div></div>	none	500.0	test	n/a	n/a	n/a	n/a	n/a	n/a	n/a	n/a	n/a	n/a	n/a	n/a	n/a	n/a	n/a	n/a	n/a	n/a	fixation
186469.16457030002	2750	n/a	1243	89	2750	870.8354297	stim	stop-signal	282	863338	0.0-13.40-1.40	beast_fmri_test	162	860927,/,861607,/,862287,/,862967,/,863647,/	t,t,t,t,t	<img class = center src='/static/experiments/beast_fmri_test/images/P.png'></img>	71,89	2750.0	test	<img class = center src='/static/experiments/beast_fmri_test/images/redP.png'></img>	go	1650.0	2.0	40.0	go	non-target	P	71,Index Finger	89,Middle Finger	550.0	1100.0	2200.0	1650.0	1.0	1100.0	1.0	n/a	go_stim
189219.16457030002	870.83542970000008	n/a	1243	89	2750	870.8354297	stim	stop-signal	282	863338	0.0-13.40-1.40	beast_fmri_test	162	860927,/,861607,/,862287,/,862967,/,863647,/	t,t,t,t,t	<img class = center src='/static/experiments/beast_fmri_test/images/P.png'></img>	71,89	2750.0	test	<img class = center src='/static/experiments/beast_fmri_test/images/redP.png'></img>	go	1650.0	2.0	40.0	go	non-target	P	71,Index Finger	89,Middle Finger	550.0	1100.0	2200.0	1650.0	1.0	1100.0	1.0	n/a	ITI
191470	500	n/a	-1	-1	500	0.0	fixation	poldrack-single-stim	283	864718	0.0-13.41-0.41	beast_fmri_test	162	864327,/	t	<div class = centerbox2><div class = fixation>+</div></div>	none	500.0	test	n/a	n/a	n/a	n/a	n/a	n/a	n/a	n/a	n/a	n/a	n/a	n/a	n/a	n/a	n/a	n/a	n/a	n/a	fixation
191115.79571139999	2750	n/a	952	89	2750	356.2042886	stim	stop-signal	284	867470	0.0-13.41-1.41	beast_fmri_test	162	865007,/,865687,/,866366,/,867047,/,867727,/	t,t,t,t,t	<img class = center src='/static/experiments/beast_fmri_test/images/D.png'></img>	71,89	2750.0	test	<img class = center src='/static/experiments/beast_fmri_test/images/redD.png'></img>	go	1650.0	2.0	41.0	go	non-target	D	71,Index Finger	89,Middle Finger	550.0	1100.0	2200.0	1650.0	1.0	1100.0	1.0	n/a	go_stim
193865.79571139999	356.20428860000004	n/a	952	89	2750	356.2042886	stim	stop-signal	284	867470	0.0-13.41-1.41	beast_fmri_test	162	865007,/,865687,/,866366,/,867047,/,867727,/	t,t,t,t,t	<img class = center src='/static/experiments/beast_fmri_test/images/D.png'></img>	71,89	2750.0	test	<img class = center src='/static/experiments/beast_fmri_test/images/redD.png'></img>	go	1650.0	2.0	41.0	go	non-target	D	71,Index Finger	89,Middle Finger	550.0	1100.0	2200.0	1650.0	1.0	1100.0	1.0	n/a	ITI
195089	500	n/a	-1	-1	500	0.0	fixation	poldrack-single-stim	285	868337	0.0-13.42-0.42	beast_fmri_test	162	n/a	n/a	<div class = centerbox2><div class = fixation>+</div></div>	none	500.0	test	n/a	n/a	n/a	n/a	n/a	n/a	n/a	n/a	n/a	n/a	n/a	n/a	n/a	n/a	n/a	n/a	n/a	n/a	fixation
194244.15681349998	2750	n/a	1524	71	2750	846.8431865	stim	stop-signal	286	871089	0.0-13.42-1.42	beast_fmri_test	162	868408,/,869087,/,869767,/,870447,/,871127,/,871808,/	t,t,t,t,t,t	<img class = center src='/static/experiments/beast_fmri_test/images/P.png'></img>	71,89	2750.0	test	<img class = center src='/static/experiments/beast_fmri_test/images/redP.png'></img>	go	2200.0	2.0	42.0	go	target	P	71,Index Finger	89,Middle Finger	550.0	1100.0	2200.0	1650.0	1.0	550.0	1.0	n/a	go_stim
196994.15681349998	846.8431865	n/a	1524	71	2750	846.8431865	stim	stop-signal	286	871089	0.0-13.42-1.42	beast_fmri_test	162	868408,/,869087,/,869767,/,870447,/,871127,/,871808,/	t,t,t,t,t,t	<img class = center src='/static/experiments/beast_fmri_test/images/P.png'></img>	71,89	2750.0	test	<img class = center src='/static/experiments/beast_fmri_test/images/redP.png'></img>	go	2200.0	2.0	42.0	go	target	P	71,Index Finger	89,Middle Finger	550.0	1100.0	2200.0	1650.0	1.0	550.0	1.0	n/a	ITI
199196	500	n/a	-1	-1	500	0.0	fixation	poldrack-single-stim	287	872444	0.0-13.43-0.43	beast_fmri_test	162	n/a	n/a	<div class = centerbox2><div class = fixation>+</div></div>	none	500.0	test	n/a	n/a	n/a	n/a	n/a	n/a	n/a	n/a	n/a	n/a	n/a	n/a	n/a	n/a	n/a	n/a	n/a	n/a	fixation
198700.72397799999	1100.0	n/a	1289	89	2750	496.276022	stim	stop-signal	288	875195	0.0-13.43-1.43	beast_fmri_test	162	872487,/,873168,/,873847,/,874527,/,875207,/	t,t,t,t,t	<img class = center src='/static/experiments/beast_fmri_test/images/V.png'></img>	71,89	2750.0	test	<img class = center src='/static/experiments/beast_fmri_test/images/redV.png'></img>	stop	1650.0	2.0	43.0	stop	non-target	V	71,Index Finger	89,Middle Finger	550.0	1100.0	2200.0	1650.0	0.0	1100.0	n/a	0.0	go_stim
200350.72397799999	1650.0	n/a	1289	89	2750	496.276022	stim	stop-signal	288	875195	0.0-13.43-1.43	beast_fmri_test	162	872487,/,873168,/,873847,/,874527,/,875207,/	t,t,t,t,t	<img class = center src='/static/experiments/beast_fmri_test/images/V.png'></img>	71,89	2750.0	test	<img class = center src='/static/experiments/beast_fmri_test/images/redV.png'></img>	stop	1650.0	2.0	43.0	stop	non-target	V	71,Index Finger	89,Middle Finger	550.0	1100.0	2200.0	1650.0	0.0	1100.0	n/a	0.0	stop_stim
201450.72397799999	496.27602199999995	n/a	1289	89	2750	496.276022	stim	stop-signal	288	875195	0.0-13.43-1.43	beast_fmri_test	162	872487,/,873168,/,873847,/,874527,/,875207,/	t,t,t,t,t	<img class = center src='/static/experiments/beast_fmri_test/images/V.png'></img>	71,89	2750.0	test	<img class = center src='/static/experiments/beast_fmri_test/images/redV.png'></img>	stop	1650.0	2.0	43.0	stop	non-target	V	71,Index Finger	89,Middle Finger	550.0	1100.0	2200.0	1650.0	0.0	1100.0	n/a	0.0	ITI
202954	500	n/a	-1	-1	500	0.0	fixation	poldrack-single-stim	289	876202	0.0-13.44-0.44	beast_fmri_test	162	875888,/	t	<div class = centerbox2><div class = fixation>+</div></div>	none	500.0	test	n/a	n/a	n/a	n/a	n/a	n/a	n/a	n/a	n/a	n/a	n/a	n/a	n/a	n/a	n/a	n/a	n/a	n/a	fixation
202045.72587269999	2750	n/a	1539	89	2750	910.2741273	stim	stop-signal	290	878954	0.0-13.44-1.44	beast_fmri_test	162	876567,/,877247,/,877927,/,878607,/,879287,/	t,t,t,t,t	<img class = center src='/static/experiments/beast_fmri_test/images/V.png'></img>	71,89	2750.0	test	<img class = center src='/static/experiments/beast_fmri_test/images/redV.png'></img>	go	1700.0	2.0	44.0	go	non-target	V	71,Index Finger	89,Middle Finger	550.0	1050.0	2200.0	1700.0	1.0	1050.0	1.0	n/a	go_stim
204795.72587269999	910.27412730000003	n/a	1539	89	2750	910.2741273	stim	stop-signal	290	878954	0.0-13.44-1.44	beast_fmri_test	162	876567,/,877247,/,877927,/,878607,/,879287,/	t,t,t,t,t	<img class = center src='/static/experiments/beast_fmri_test/images/V.png'></img>	71,89	2750.0	test	<img class = center src='/static/experiments/beast_fmri_test/images/redV.png'></img>	go	1700.0	2.0	44.0	go	non-target	V	71,Index Finger	89,Middle Finger	550.0	1050.0	2200.0	1700.0	1.0	1050.0	1.0	n/a	ITI
207128	500	n/a	-1	-1	500	0.0	fixation	poldrack-single-stim	291	880376	0.0-13.45-0.45	beast_fmri_test	162	879967,/	t	<div class = centerbox2><div class = fixation>+</div></div>	none	500.0	test	n/a	n/a	n/a	n/a	n/a	n/a	n/a	n/a	n/a	n/a	n/a	n/a	n/a	n/a	n/a	n/a	n/a	n/a	fixation
207129.86441562604	1050.0	n/a	-1	-1	2750	1.135584374	stim	stop-signal	292	883129	0.0-13.45-1.45	beast_fmri_test	162	880647,/,881327,/,882007,/,882687,/	t,t,t,t	<img class = center src='/static/experiments/beast_fmri_test/images/B.png'></img>	71,89	2750.0	test	<img class = center src='/static/experiments/beast_fmri_test/images/redB.png'></img>	stop	1700.0	2.0	45.0	stop	non-target	B	71,Index Finger	89,Middle Finger	550.0	1050.0	2200.0	1700.0	0.0	1050.0	n/a	1.0	go_stim
208829.86441562604	1700.0	n/a	-1	-1	2750	1.135584374	stim	stop-signal	292	883129	0.0-13.45-1.45	beast_fmri_test	162	880647,/,881327,/,882007,/,882687,/	t,t,t,t	<img class = center src='/static/experiments/beast_fmri_test/images/B.png'></img>	71,89	2750.0	test	<img class = center src='/static/experiments/beast_fmri_test/images/redB.png'></img>	stop	1700.0	2.0	45.0	stop	non-target	B	71,Index Finger	89,Middle Finger	550.0	1050.0	2200.0	1700.0	0.0	1050.0	n/a	1.0	stop_stim
209879.86441562604	1.135584374	n/a	-1	-1	2750	1.135584374	stim	stop-signal	292	883129	0.0-13.45-1.45	beast_fmri_test	162	880647,/,881327,/,882007,/,882687,/	t,t,t,t	<img class = center src='/static/experiments/beast_fmri_test/images/B.png'></img>	71,89	2750.0	test	<img class = center src='/static/experiments/beast_fmri_test/images/redB.png'></img>	stop	1700.0	2.0	45.0	stop	non-target	B	71,Index Finger	89,Middle Finger	550.0	1050.0	2200.0	1700.0	0.0	1050.0	n/a	1.0	ITI
210394	500	n/a	-1	-1	500	0.0	fixation	poldrack-single-stim	293	883642	0.0-13.46-0.46	beast_fmri_test	162	883367,/	t	<div class = centerbox2><div class = fixation>+</div></div>	none	500.0	test	n/a	n/a	n/a	n/a	n/a	n/a	n/a	n/a	n/a	n/a	n/a	n/a	n/a	n/a	n/a	n/a	n/a	n/a	fixation
209932.30591180001	2750	n/a	1703	89	2750	463.6940882	stim	stop-signal	294	886394	0.0-13.46-1.46	beast_fmri_test	162	884048,/,884727,/,885407,/,886087,/,886767,/	t,t,t,t,t	<img class = center src='/static/experiments/beast_fmri_test/images/B.png'></img>	71,89	2750.0	test	<img class = center src='/static/experiments/beast_fmri_test/images/redB.png'></img>	go	1650.0	2.0	46.0	go	non-target	B	71,Index Finger	89,Middle Finger	550.0	1100.0	2200.0	1650.0	1.0	1100.0	1.0	n/a	go_stim
212682.30591180001	463.69408820000001	n/a	1703	89	2750	463.6940882	stim	stop-signal	294	886394	0.0-13.46-1.46	beast_fmri_test	162	884048,/,884727,/,885407,/,886087,/,886767,/	t,t,t,t,t	<img class = center src='/static/experiments/beast_fmri_test/images/B.png'></img>	71,89	2750.0	test	<img class = center src='/static/experiments/beast_fmri_test/images/redB.png'></img>	go	1650.0	2.0	46.0	go	non-target	B	71,Index Finger	89,Middle Finger	550.0	1100.0	2200.0	1650.0	1.0	1100.0	1.0	n/a	ITI
228619	15000	n/a	-1	-1	15000	0.0	practice-no-stop-feedback	poldrack-single-stim	295	901867	0.0-14.0	beast_fmri_test	162	887447,/,888127,/,888807,/,889487,/,890167,/,890847,/,891527,/,892207,/,892888,/,893567,/,894248,/,894927,/,895607,/,896287,/,896966,/,897647,/,898326,/,899007,/,899686,/,900366,/,901047,/,901728,/	t,t,t,t,t,t,t,t,t,t,t,t,t,t,t,t,t,t,t,t,t,t	"<div class = ""centerbox2_2""><p class = ""block-text2"">Your delay is 3 trials.</p><p class = block-text2>Please wait for the scanner to start the block</p></div>"	77	15000.0	n/a	n/a	n/a	n/a	n/a	n/a	n/a	n/a	n/a	n/a	n/a	n/a	n/a	n/a	n/a	n/a	n/a	n/a	n/a	practice-no-stop-feedback
229120	500	n/a	-1	-1	500	0.0	fixation	poldrack-single-stim	296	902368	0.0-15.0-0.0	beast_fmri_test	162	n/a	n/a	<div class = centerbox2><div class = fixation>+</div></div>	none	500.0	test	n/a	n/a	n/a	n/a	n/a	n/a	n/a	n/a	n/a	n/a	n/a	n/a	n/a	n/a	n/a	n/a	n/a	n/a	fixation
228886.13511629996	2750	n/a	526	89	2750	235.8648837	stim	stop-signal	297	905120	0.0-15.0-1.0	beast_fmri_test	162	902408,/,903088,/,903768,/,904448,/,905127,/	t,t,t,t,t	<img class = center src='/static/experiments/beast_fmri_test/images/B.png'></img>	71,89	2750.0	test	<img class = center src='/static/experiments/beast_fmri_test/images/redB.png'></img>	go	-1.0	3.0	0.0	go	temp-non-target	B	71,Index Finger	89,Middle Finger	550.0	1100.0	2200.0	1650.0	0.0	n/a	n/a	n/a	go_stim
231636.13511629996	235.86488369999998	n/a	526	89	2750	235.8648837	stim	stop-signal	297	905120	0.0-15.0-1.0	beast_fmri_test	162	902408,/,903088,/,903768,/,904448,/,905127,/	t,t,t,t,t	<img class = center src='/static/experiments/beast_fmri_test/images/B.png'></img>	71,89	2750.0	test	<img class = center src='/static/experiments/beast_fmri_test/images/redB.png'></img>	go	-1.0	3.0	0.0	go	temp-non-target	B	71,Index Finger	89,Middle Finger	550.0	1100.0	2200.0	1650.0	0.0	n/a	n/a	n/a	ITI
232619	500	n/a	-1	-1	500	0.0	fixation	poldrack-single-stim	298	905867	0.0-15.1-0.1	beast_fmri_test	162	905808,/	t	<div class = centerbox2><div class = fixation>+</div></div>	none	500.0	test	n/a	n/a	n/a	n/a	n/a	n/a	n/a	n/a	n/a	n/a	n/a	n/a	n/a	n/a	n/a	n/a	n/a	n/a	fixation
231081.98989199998	temp_go_duration	n/a	1435	89	2750	1539.010108	stim	stop-signal	299	908619	0.0-15.1-1.1	beast_fmri_test	162	906487,/,907168,/,907847,/,908528,/,909207,/,909887,/	t,t,t,t,t,t	<img class = center src='/static/experiments/beast_fmri_test/images/T.png'></img>	71,89	2750.0	test	<img class = center src='/static/experiments/beast_fmri_test/images/redT.png'></img>	stop	-1.0	3.0	1.0	stop	temp-non-target	T	71,Index Finger	89,Middle Finger	550.0	1100.0	2200.0	1650.0	0.0	n/a	n/a	0.0	go_stim
temp-non-target	temp_stop_duration	n/a	1435	89	2750	1539.010108	stim	stop-signal	299	908619	0.0-15.1-1.1	beast_fmri_test	162	906487,/,907168,/,907847,/,908528,/,909207,/,909887,/	t,t,t,t,t,t	<img class = center src='/static/experiments/beast_fmri_test/images/T.png'></img>	71,89	2750.0	test	<img class = center src='/static/experiments/beast_fmri_test/images/redT.png'></img>	stop	-1.0	3.0	1.0	stop	temp-non-target	T	71,Index Finger	89,Middle Finger	550.0	1100.0	2200.0	1650.0	0.0	n/a	n/a	0.0	stop_stim
233831.98989199998	1539.0101079999999	n/a	1435	89	2750	1539.010108	stim	stop-signal	299	908619	0.0-15.1-1.1	beast_fmri_test	162	906487,/,907168,/,907847,/,908528,/,909207,/,909887,/	t,t,t,t,t,t	<img class = center src='/static/experiments/beast_fmri_test/images/T.png'></img>	71,89	2750.0	test	<img class = center src='/static/experiments/beast_fmri_test/images/redT.png'></img>	stop	-1.0	3.0	1.0	stop	temp-non-target	T	71,Index Finger	89,Middle Finger	550.0	1100.0	2200.0	1650.0	0.0	n/a	n/a	0.0	ITI
237420	500	n/a	-1	-1	500	0.0	fixation	poldrack-single-stim	300	910668	0.0-15.2-0.2	beast_fmri_test	162	910567,/	t	<div class = centerbox2><div class = fixation>+</div></div>	none	500.0	test	n/a	n/a	n/a	n/a	n/a	n/a	n/a	n/a	n/a	n/a	n/a	n/a	n/a	n/a	n/a	n/a	n/a	n/a	fixation
236984.22681090003	temp_go_duration	n/a	759	89	2750	438.7731891	stim	stop-signal	301	913421	0.0-15.2-1.2	beast_fmri_test	162	911247,/,911927,/,912607,/,913287,/	t,t,t,t	<img class = center src='/static/experiments/beast_fmri_test/images/P.png'></img>	71,89	2750.0	test	<img class = center src='/static/experiments/beast_fmri_test/images/redP.png'></img>	stop	-1.0	3.0	2.0	stop	temp-non-target	P	71,Index Finger	89,Middle Finger	550.0	1100.0	2200.0	1650.0	0.0	n/a	n/a	0.0	go_stim
temp-non-target	temp_stop_duration	n/a	759	89	2750	438.7731891	stim	stop-signal	301	913421	0.0-15.2-1.2	beast_fmri_test	162	911247,/,911927,/,912607,/,913287,/	t,t,t,t	<img class = center src='/static/experiments/beast_fmri_test/images/P.png'></img>	71,89	2750.0	test	<img class = center src='/static/experiments/beast_fmri_test/images/redP.png'></img>	stop	-1.0	3.0	2.0	stop	temp-non-target	P	71,Index Finger	89,Middle Finger	550.0	1100.0	2200.0	1650.0	0.0	n/a	n/a	0.0	stop_stim
239734.22681090003	438.77318909999997	n/a	759	89	2750	438.7731891	stim	stop-signal	301	913421	0.0-15.2-1.2	beast_fmri_test	162	911247,/,911927,/,912607,/,913287,/	t,t,t,t	<img class = center src='/static/experiments/beast_fmri_test/images/P.png'></img>	71,89	2750.0	test	<img class = center src='/static/experiments/beast_fmri_test/images/redP.png'></img>	stop	-1.0	3.0	2.0	stop	temp-non-target	P	71,Index Finger	89,Middle Finger	550.0	1100.0	2200.0	1650.0	0.0	n/a	n/a	0.0	ITI
241121	500	n/a	-1	-1	500	0.0	fixation	poldrack-single-stim	302	914369	0.0-15.3-0.3	beast_fmri_test	162	913967,/	t	<div class = centerbox2><div class = fixation>+</div></div>	none	500.0	test	n/a	n/a	n/a	n/a	n/a	n/a	n/a	n/a	n/a	n/a	n/a	n/a	n/a	n/a	n/a	n/a	n/a	n/a	fixation
241011.7524766	550.0	n/a	-1	-1	2750	111.2475234	stim	stop-signal	303	917121	0.0-15.3-1.3	beast_fmri_test	162	914648,/,915327,/,916007,/,916687,/	t,t,t,t	<img class = center src='/static/experiments/beast_fmri_test/images/B.png'></img>	71,89	2750.0	test	<img class = center src='/static/experiments/beast_fmri_test/images/redB.png'></img>	stop	2200.0	3.0	3.0	stop	target	B	71,Index Finger	89,Middle Finger	550.0	1100.0	2200.0	1650.0	0.0	550.0	n/a	1.0	go_stim
243211.7524766	2200.0	n/a	-1	-1	2750	111.2475234	stim	stop-signal	303	917121	0.0-15.3-1.3	beast_fmri_test	162	914648,/,915327,/,916007,/,916687,/	t,t,t,t	<img class = center src='/static/experiments/beast_fmri_test/images/B.png'></img>	71,89	2750.0	test	<img class = center src='/static/experiments/beast_fmri_test/images/redB.png'></img>	stop	2200.0	3.0	3.0	stop	target	B	71,Index Finger	89,Middle Finger	550.0	1100.0	2200.0	1650.0	0.0	550.0	n/a	1.0	stop_stim
243761.7524766	111.24752340000002	n/a	-1	-1	2750	111.2475234	stim	stop-signal	303	917121	0.0-15.3-1.3	beast_fmri_test	162	914648,/,915327,/,916007,/,916687,/	t,t,t,t	<img class = center src='/static/experiments/beast_fmri_test/images/B.png'></img>	71,89	2750.0	test	<img class = center src='/static/experiments/beast_fmri_test/images/redB.png'></img>	stop	2200.0	3.0	3.0	stop	target	B	71,Index Finger	89,Middle Finger	550.0	1100.0	2200.0	1650.0	0.0	550.0	n/a	1.0	ITI
244496	500	n/a	-1	-1	500	0.0	fixation	poldrack-single-stim	304	917744	0.0-15.4-0.4	beast_fmri_test	162	917367,/	t	<div class = centerbox2><div class = fixation>+</div></div>	none	500.0	test	n/a	n/a	n/a	n/a	n/a	n/a	n/a	n/a	n/a	n/a	n/a	n/a	n/a	n/a	n/a	n/a	n/a	n/a	fixation
244347.08891299996	1100.0	n/a	1198	71	2750	149.911087	stim	stop-signal	305	920495	0.0-15.4-1.4	beast_fmri_test	162	918047,/,918727,/,919407,/,920087,/	t,t,t,t	<img class = center src='/static/experiments/beast_fmri_test/images/P.png'></img>	71,89	2750.0	test	<img class = center src='/static/experiments/beast_fmri_test/images/redP.png'></img>	stop	1650.0	3.0	4.0	stop	non-target	P	71,Index Finger	89,Middle Finger	600.0	1100.0	2200.0	1650.0	0.0	1100.0	n/a	0.0	go_stim
245997.08891299996	1650.0	n/a	1198	71	2750	149.911087	stim	stop-signal	305	920495	0.0-15.4-1.4	beast_fmri_test	162	918047,/,918727,/,919407,/,920087,/	t,t,t,t	<img class = center src='/static/experiments/beast_fmri_test/images/P.png'></img>	71,89	2750.0	test	<img class = center src='/static/experiments/beast_fmri_test/images/redP.png'></img>	stop	1650.0	3.0	4.0	stop	non-target	P	71,Index Finger	89,Middle Finger	600.0	1100.0	2200.0	1650.0	0.0	1100.0	n/a	0.0	stop_stim
247097.08891299996	149.91108700000001	n/a	1198	71	2750	149.911087	stim	stop-signal	305	920495	0.0-15.4-1.4	beast_fmri_test	162	918047,/,918727,/,919407,/,920087,/	t,t,t,t	<img class = center src='/static/experiments/beast_fmri_test/images/P.png'></img>	71,89	2750.0	test	<img class = center src='/static/experiments/beast_fmri_test/images/redP.png'></img>	stop	1650.0	3.0	4.0	stop	non-target	P	71,Index Finger	89,Middle Finger	600.0	1100.0	2200.0	1650.0	0.0	1100.0	n/a	0.0	ITI
247909	500	n/a	-1	-1	500	0.0	fixation	poldrack-single-stim	306	921157	0.0-15.5-0.5	beast_fmri_test	162	920767,/	t	<div class = centerbox2><div class = fixation>+</div></div>	none	500.0	test	n/a	n/a	n/a	n/a	n/a	n/a	n/a	n/a	n/a	n/a	n/a	n/a	n/a	n/a	n/a	n/a	n/a	n/a	fixation
246744.72940099996	600.0	n/a	-1	-1	2750	1165.270599	stim	stop-signal	307	923908	0.0-15.5-1.5	beast_fmri_test	162	921447,/,922127,/,922807,/,923487,/,924167,/,924848,/	t,t,t,t,t,t	<img class = center src='/static/experiments/beast_fmri_test/images/P.png'></img>	71,89	2750.0	test	<img class = center src='/static/experiments/beast_fmri_test/images/redP.png'></img>	stop	2150.0	3.0	5.0	stop	target	P	71,Index Finger	89,Middle Finger	600.0	1050.0	2150.0	1650.0	0.0	600.0	n/a	1.0	go_stim
248894.72940099996	2150.0	n/a	-1	-1	2750	1165.270599	stim	stop-signal	307	923908	0.0-15.5-1.5	beast_fmri_test	162	921447,/,922127,/,922807,/,923487,/,924167,/,924848,/	t,t,t,t,t,t	<img class = center src='/static/experiments/beast_fmri_test/images/P.png'></img>	71,89	2750.0	test	<img class = center src='/static/experiments/beast_fmri_test/images/redP.png'></img>	stop	2150.0	3.0	5.0	stop	target	P	71,Index Finger	89,Middle Finger	600.0	1050.0	2150.0	1650.0	0.0	600.0	n/a	1.0	stop_stim
249494.72940099996	1165.2705989999999	n/a	-1	-1	2750	1165.270599	stim	stop-signal	307	923908	0.0-15.5-1.5	beast_fmri_test	162	921447,/,922127,/,922807,/,923487,/,924167,/,924848,/	t,t,t,t,t,t	<img class = center src='/static/experiments/beast_fmri_test/images/P.png'></img>	71,89	2750.0	test	<img class = center src='/static/experiments/beast_fmri_test/images/redP.png'></img>	stop	2150.0	3.0	5.0	stop	target	P	71,Index Finger	89,Middle Finger	600.0	1050.0	2150.0	1650.0	0.0	600.0	n/a	1.0	ITI
252340	500	n/a	-1	-1	500	0.0	fixation	poldrack-single-stim	308	925588	0.0-15.6-0.6	beast_fmri_test	162	925527,/	t	<div class = centerbox2><div class = fixation>+</div></div>	none	500.0	test	n/a	n/a	n/a	n/a	n/a	n/a	n/a	n/a	n/a	n/a	n/a	n/a	n/a	n/a	n/a	n/a	n/a	n/a	fixation
252248.55149097997	2750	n/a	904	89	2750	93.44850902	stim	stop-signal	309	928340	0.0-15.6-1.6	beast_fmri_test	162	926207,/,926887,/,927567,/,928246,/	t,t,t,t	<img class = center src='/static/experiments/beast_fmri_test/images/V.png'></img>	71,89	2750.0	test	<img class = center src='/static/experiments/beast_fmri_test/images/redV.png'></img>	go	1700.0	3.0	6.0	go	non-target	V	71,Index Finger	89,Middle Finger	650.0	1050.0	2150.0	1700.0	1.0	1050.0	1.0	n/a	go_stim
254998.55149097997	93.448509020000003	n/a	904	89	2750	93.44850902	stim	stop-signal	309	928340	0.0-15.6-1.6	beast_fmri_test	162	926207,/,926887,/,927567,/,928246,/	t,t,t,t	<img class = center src='/static/experiments/beast_fmri_test/images/V.png'></img>	71,89	2750.0	test	<img class = center src='/static/experiments/beast_fmri_test/images/redV.png'></img>	go	1700.0	3.0	6.0	go	non-target	V	71,Index Finger	89,Middle Finger	650.0	1050.0	2150.0	1700.0	1.0	1050.0	1.0	n/a	ITI
255698	500	n/a	-1	-1	500	0.0	fixation	poldrack-single-stim	310	928946	0.0-15.7-0.7	beast_fmri_test	162	928927,/	t	<div class = centerbox2><div class = fixation>+</div></div>	none	500.0	test	n/a	n/a	n/a	n/a	n/a	n/a	n/a	n/a	n/a	n/a	n/a	n/a	n/a	n/a	n/a	n/a	n/a	n/a	fixation
252671.01718299999	2750	n/a	1331	89	2750	3027.982817	stim	stop-signal	311	931697	0.0-15.7-1.7	beast_fmri_test	162	929607,/,930287,/,930967,/,931648,/,932328,/,933008,/,933687,/,934368,/	t,t,t,t,t,t,t,t	<img class = center src='/static/experiments/beast_fmri_test/images/D.png'></img>	71,89	2750.0	test	<img class = center src='/static/experiments/beast_fmri_test/images/redD.png'></img>	go	1700.0	3.0	7.0	go	non-target	D	71,Index Finger	89,Middle Finger	650.0	1050.0	2150.0	1700.0	1.0	1050.0	1.0	n/a	go_stim
255421.01718299999	3027.9828170000001	n/a	1331	89	2750	3027.982817	stim	stop-signal	311	931697	0.0-15.7-1.7	beast_fmri_test	162	929607,/,930287,/,930967,/,931648,/,932328,/,933008,/,933687,/,934368,/	t,t,t,t,t,t,t,t	<img class = center src='/static/experiments/beast_fmri_test/images/D.png'></img>	71,89	2750.0	test	<img class = center src='/static/experiments/beast_fmri_test/images/redD.png'></img>	go	1700.0	3.0	7.0	go	non-target	D	71,Index Finger	89,Middle Finger	650.0	1050.0	2150.0	1700.0	1.0	1050.0	1.0	n/a	ITI
261989	500	n/a	-1	-1	500	0.0	fixation	poldrack-single-stim	312	935237	0.0-15.8-0.8	beast_fmri_test	162	935049,/	t	<div class = centerbox2><div class = fixation>+</div></div>	none	500.0	test	n/a	n/a	n/a	n/a	n/a	n/a	n/a	n/a	n/a	n/a	n/a	n/a	n/a	n/a	n/a	n/a	n/a	n/a	fixation
261795.15661890002	2750	n/a	876	89	2750	194.8433811	stim	stop-signal	313	937988	0.0-15.8-1.8	beast_fmri_test	162	935728,/,936408,/,937087,/,937767,/	t,t,t,t	<img class = center src='/static/experiments/beast_fmri_test/images/B.png'></img>	71,89	2750.0	test	<img class = center src='/static/experiments/beast_fmri_test/images/redB.png'></img>	go	1700.0	3.0	8.0	go	non-target	B	71,Index Finger	89,Middle Finger	650.0	1050.0	2150.0	1700.0	1.0	1050.0	1.0	n/a	go_stim
264545.15661890002	194.84338109999999	n/a	876	89	2750	194.8433811	stim	stop-signal	313	937988	0.0-15.8-1.8	beast_fmri_test	162	935728,/,936408,/,937087,/,937767,/	t,t,t,t	<img class = center src='/static/experiments/beast_fmri_test/images/B.png'></img>	71,89	2750.0	test	<img class = center src='/static/experiments/beast_fmri_test/images/redB.png'></img>	go	1700.0	3.0	8.0	go	non-target	B	71,Index Finger	89,Middle Finger	650.0	1050.0	2150.0	1700.0	1.0	1050.0	1.0	n/a	ITI
265446	500	n/a	-1	-1	500	0.0	fixation	poldrack-single-stim	314	938694	0.0-15.9-0.9	beast_fmri_test	162	938448,/	t	<div class = centerbox2><div class = fixation>+</div></div>	none	500.0	test	n/a	n/a	n/a	n/a	n/a	n/a	n/a	n/a	n/a	n/a	n/a	n/a	n/a	n/a	n/a	n/a	n/a	n/a	fixation
265389.43387015001	2750	n/a	1904	89	2750	58.56612985	stim	stop-signal	315	941446	0.0-15.9-1.9	beast_fmri_test	162	939127,/,939807,/,940488,/,941167,/	t,t,t,t	<img class = center src='/static/experiments/beast_fmri_test/images/D.png'></img>	71,89	2750.0	test	<img class = center src='/static/experiments/beast_fmri_test/images/redD.png'></img>	go	1700.0	3.0	9.0	go	non-target	D	71,Index Finger	89,Middle Finger	650.0	1050.0	2150.0	1700.0	1.0	1050.0	1.0	n/a	go_stim
268139.43387015001	58.566129850000003	n/a	1904	89	2750	58.56612985	stim	stop-signal	315	941446	0.0-15.9-1.9	beast_fmri_test	162	939127,/,939807,/,940488,/,941167,/	t,t,t,t	<img class = center src='/static/experiments/beast_fmri_test/images/D.png'></img>	71,89	2750.0	test	<img class = center src='/static/experiments/beast_fmri_test/images/redD.png'></img>	go	1700.0	3.0	9.0	go	non-target	D	71,Index Finger	89,Middle Finger	650.0	1050.0	2150.0	1700.0	1.0	1050.0	1.0	n/a	ITI
268769	500	n/a	-1	-1	500	0.0	fixation	poldrack-single-stim	316	942017	0.0-15.10-0.10	beast_fmri_test	162	941847,/	t	<div class = centerbox2><div class = fixation>+</div></div>	none	500.0	test	n/a	n/a	n/a	n/a	n/a	n/a	n/a	n/a	n/a	n/a	n/a	n/a	n/a	n/a	n/a	n/a	n/a	n/a	fixation
263772.0	1050.0	n/a	-1	-1	2750	5000.0	stim	stop-signal	317	944770	0.0-15.10-1.10	beast_fmri_test	162	942527,/,943207,/,943888,/,944567,/,945248,/,945927,/,946607,/,947287,/,947967,/,948647,/,949327,/	t,t,t,t,t,t,t,t,t,t,t	<img class = center src='/static/experiments/beast_fmri_test/images/P.png'></img>	71,89	2750.0	test	<img class = center src='/static/experiments/beast_fmri_test/images/redP.png'></img>	stop	1700.0	3.0	10.0	stop	non-target	P	71,Index Finger	89,Middle Finger	650.0	1050.0	2150.0	1700.0	0.0	1050.0	n/a	1.0	go_stim
265472.0	1700.0	n/a	-1	-1	2750	5000.0	stim	stop-signal	317	944770	0.0-15.10-1.10	beast_fmri_test	162	942527,/,943207,/,943888,/,944567,/,945248,/,945927,/,946607,/,947287,/,947967,/,948647,/,949327,/	t,t,t,t,t,t,t,t,t,t,t	<img class = center src='/static/experiments/beast_fmri_test/images/P.png'></img>	71,89	2750.0	test	<img class = center src='/static/experiments/beast_fmri_test/images/redP.png'></img>	stop	1700.0	3.0	10.0	stop	non-target	P	71,Index Finger	89,Middle Finger	650.0	1050.0	2150.0	1700.0	0.0	1050.0	n/a	1.0	stop_stim
266522.0	5000.0	n/a	-1	-1	2750	5000.0	stim	stop-signal	317	944770	0.0-15.10-1.10	beast_fmri_test	162	942527,/,943207,/,943888,/,944567,/,945248,/,945927,/,946607,/,947287,/,947967,/,948647,/,949327,/	t,t,t,t,t,t,t,t,t,t,t	<img class = center src='/static/experiments/beast_fmri_test/images/P.png'></img>	71,89	2750.0	test	<img class = center src='/static/experiments/beast_fmri_test/images/redP.png'></img>	stop	1700.0	3.0	10.0	stop	non-target	P	71,Index Finger	89,Middle Finger	650.0	1050.0	2150.0	1700.0	0.0	1050.0	n/a	1.0	ITI
277035	500	n/a	-1	-1	500	0.0	fixation	poldrack-single-stim	318	950283	0.0-15.11-0.11	beast_fmri_test	162	950007,/	t	<div class = centerbox2><div class = fixation>+</div></div>	none	500.0	test	n/a	n/a	n/a	n/a	n/a	n/a	n/a	n/a	n/a	n/a	n/a	n/a	n/a	n/a	n/a	n/a	n/a	n/a	fixation
274353.47800500004	2750	n/a	733	71	2750	2683.521995	stim	stop-signal	319	953035	0.0-15.11-1.11	beast_fmri_test	162	950687,/,951367,/,952047,/,952727,/,953407,/,954087,/,954767,/,955447,/	t,t,t,t,t,t,t,t	<img class = center src='/static/experiments/beast_fmri_test/images/B.png'></img>	71,89	2750.0	test	<img class = center src='/static/experiments/beast_fmri_test/images/redB.png'></img>	go	2100.0	3.0	11.0	go	target	B	71,Index Finger	89,Middle Finger	650.0	1100.0	2100.0	1700.0	1.0	650.0	1.0	n/a	go_stim
277103.47800500004	2683.5219950000001	n/a	733	71	2750	2683.521995	stim	stop-signal	319	953035	0.0-15.11-1.11	beast_fmri_test	162	950687,/,951367,/,952047,/,952727,/,953407,/,954087,/,954767,/,955447,/	t,t,t,t,t,t,t,t	<img class = center src='/static/experiments/beast_fmri_test/images/B.png'></img>	71,89	2750.0	test	<img class = center src='/static/experiments/beast_fmri_test/images/redB.png'></img>	go	2100.0	3.0	11.0	go	target	B	71,Index Finger	89,Middle Finger	650.0	1100.0	2100.0	1700.0	1.0	650.0	1.0	n/a	ITI
282982	500	n/a	-1	-1	500	0.0	fixation	poldrack-single-stim	320	956230	0.0-15.12-0.12	beast_fmri_test	162	956127,/	t	<div class = centerbox2><div class = fixation>+</div></div>	none	500.0	test	n/a	n/a	n/a	n/a	n/a	n/a	n/a	n/a	n/a	n/a	n/a	n/a	n/a	n/a	n/a	n/a	n/a	n/a	fixation
281796.92053500004	2750	n/a	1145	89	2750	1187.079465	stim	stop-signal	321	958982	0.0-15.12-1.12	beast_fmri_test	162	956807,/,957487,/,958167,/,958847,/,959527,/	t,t,t,t,t	<img class = center src='/static/experiments/beast_fmri_test/images/V.png'></img>	71,89	2750.0	test	<img class = center src='/static/experiments/beast_fmri_test/images/redV.png'></img>	go	1650.0	3.0	12.0	go	non-target	V	71,Index Finger	89,Middle Finger	650.0	1100.0	2100.0	1650.0	1.0	1100.0	1.0	n/a	go_stim
284546.92053500004	1187.079465	n/a	1145	89	2750	1187.079465	stim	stop-signal	321	958982	0.0-15.12-1.12	beast_fmri_test	162	956807,/,957487,/,958167,/,958847,/,959527,/	t,t,t,t,t	<img class = center src='/static/experiments/beast_fmri_test/images/V.png'></img>	71,89	2750.0	test	<img class = center src='/static/experiments/beast_fmri_test/images/redV.png'></img>	go	1650.0	3.0	12.0	go	non-target	V	71,Index Finger	89,Middle Finger	650.0	1100.0	2100.0	1650.0	1.0	1100.0	1.0	n/a	ITI
287436	500	n/a	-1	-1	500	0.0	fixation	poldrack-single-stim	322	960684	0.0-15.13-0.13	beast_fmri_test	162	960207,/	t	<div class = centerbox2><div class = fixation>+</div></div>	none	500.0	test	n/a	n/a	n/a	n/a	n/a	n/a	n/a	n/a	n/a	n/a	n/a	n/a	n/a	n/a	n/a	n/a	n/a	n/a	fixation
282808.19160100003	2750	n/a	1116	89	2750	4629.808399	stim	stop-signal	323	963436	0.0-15.13-1.13	beast_fmri_test	162	960887,/,961567,/,962246,/,962927,/,963606,/,964287,/,964968,/,965648,/,966327,/,967007,/,967688,/	t,t,t,t,t,t,t,t,t,t,t	<img class = center src='/static/experiments/beast_fmri_test/images/B.png'></img>	71,89	2750.0	test	<img class = center src='/static/experiments/beast_fmri_test/images/redB.png'></img>	go	1650.0	3.0	13.0	go	non-target	B	71,Index Finger	89,Middle Finger	650.0	1100.0	2100.0	1650.0	1.0	1100.0	1.0	n/a	go_stim
285558.19160100003	4629.8083990000005	n/a	1116	89	2750	4629.808399	stim	stop-signal	323	963436	0.0-15.13-1.13	beast_fmri_test	162	960887,/,961567,/,962246,/,962927,/,963606,/,964287,/,964968,/,965648,/,966327,/,967007,/,967688,/	t,t,t,t,t,t,t,t,t,t,t	<img class = center src='/static/experiments/beast_fmri_test/images/B.png'></img>	71,89	2750.0	test	<img class = center src='/static/experiments/beast_fmri_test/images/redB.png'></img>	go	1650.0	3.0	13.0	go	non-target	B	71,Index Finger	89,Middle Finger	650.0	1100.0	2100.0	1650.0	1.0	1100.0	1.0	n/a	ITI
295328	500	n/a	-1	-1	500	0.0	fixation	poldrack-single-stim	324	968576	0.0-15.14-0.14	beast_fmri_test	162	968368,/	t	<div class = centerbox2><div class = fixation>+</div></div>	none	500.0	test	n/a	n/a	n/a	n/a	n/a	n/a	n/a	n/a	n/a	n/a	n/a	n/a	n/a	n/a	n/a	n/a	n/a	n/a	fixation
293841.13399700006	2750	n/a	973	89	2750	1488.866003	stim	stop-signal	325	971328	0.0-15.14-1.14	beast_fmri_test	162	969048,/,969727,/,970408,/,971087,/,971767,/,972447,/	t,t,t,t,t,t	<img class = center src='/static/experiments/beast_fmri_test/images/B.png'></img>	71,89	2750.0	test	<img class = center src='/static/experiments/beast_fmri_test/images/redB.png'></img>	go	2100.0	3.0	14.0	go	target	B	71,Index Finger	89,Middle Finger	650.0	1100.0	2100.0	1650.0	0.0	650.0	0.0	n/a	go_stim
296591.13399700006	1488.8660029999999	n/a	973	89	2750	1488.866003	stim	stop-signal	325	971328	0.0-15.14-1.14	beast_fmri_test	162	969048,/,969727,/,970408,/,971087,/,971767,/,972447,/	t,t,t,t,t,t	<img class = center src='/static/experiments/beast_fmri_test/images/B.png'></img>	71,89	2750.0	test	<img class = center src='/static/experiments/beast_fmri_test/images/redB.png'></img>	go	2100.0	3.0	14.0	go	target	B	71,Index Finger	89,Middle Finger	650.0	1100.0	2100.0	1650.0	0.0	650.0	0.0	n/a	ITI
300078	500	n/a	-1	-1	500	0.0	fixation	poldrack-single-stim	326	973326	0.0-15.15-0.15	beast_fmri_test	162	973127,/	t	<div class = centerbox2><div class = fixation>+</div></div>	none	500.0	test	n/a	n/a	n/a	n/a	n/a	n/a	n/a	n/a	n/a	n/a	n/a	n/a	n/a	n/a	n/a	n/a	n/a	n/a	fixation
299555.53701920004	2750	n/a	722	71	2750	524.4629808	stim	stop-signal	327	976078	0.0-15.15-1.15	beast_fmri_test	162	973807,/,974487,/,975167,/,975848,/,976527,/	t,t,t,t,t	<img class = center src='/static/experiments/beast_fmri_test/images/V.png'></img>	71,89	2750.0	test	<img class = center src='/static/experiments/beast_fmri_test/images/redV.png'></img>	go	2100.0	3.0	15.0	go	target	V	71,Index Finger	89,Middle Finger	650.0	1100.0	2100.0	1650.0	1.0	650.0	1.0	n/a	go_stim
302305.53701920004	524.46298079999997	n/a	722	71	2750	524.4629808	stim	stop-signal	327	976078	0.0-15.15-1.15	beast_fmri_test	162	973807,/,974487,/,975167,/,975848,/,976527,/	t,t,t,t,t	<img class = center src='/static/experiments/beast_fmri_test/images/V.png'></img>	71,89	2750.0	test	<img class = center src='/static/experiments/beast_fmri_test/images/redV.png'></img>	go	2100.0	3.0	15.0	go	target	V	71,Index Finger	89,Middle Finger	650.0	1100.0	2100.0	1650.0	1.0	650.0	1.0	n/a	ITI
303865	500	n/a	-1	-1	500	0.0	fixation	poldrack-single-stim	328	977113	0.0-15.16-0.16	beast_fmri_test	162	n/a	n/a	<div class = centerbox2><div class = fixation>+</div></div>	none	500.0	test	n/a	n/a	n/a	n/a	n/a	n/a	n/a	n/a	n/a	n/a	n/a	n/a	n/a	n/a	n/a	n/a	n/a	n/a	fixation
303561.39220350003	1100.0	n/a	1290	89	2750	305.6077965	stim	stop-signal	329	979865	0.0-15.16-1.16	beast_fmri_test	162	977207,/,977887,/,978567,/,979247,/,979927,/	t,t,t,t,t	<img class = center src='/static/experiments/beast_fmri_test/images/P.png'></img>	71,89	2750.0	test	<img class = center src='/static/experiments/beast_fmri_test/images/redP.png'></img>	stop	1650.0	3.0	16.0	stop	non-target	P	71,Index Finger	89,Middle Finger	650.0	1100.0	2100.0	1650.0	0.0	1100.0	n/a	0.0	go_stim
305211.39220350003	1650.0	n/a	1290	89	2750	305.6077965	stim	stop-signal	329	979865	0.0-15.16-1.16	beast_fmri_test	162	977207,/,977887,/,978567,/,979247,/,979927,/	t,t,t,t,t	<img class = center src='/static/experiments/beast_fmri_test/images/P.png'></img>	71,89	2750.0	test	<img class = center src='/static/experiments/beast_fmri_test/images/redP.png'></img>	stop	1650.0	3.0	16.0	stop	non-target	P	71,Index Finger	89,Middle Finger	650.0	1100.0	2100.0	1650.0	0.0	1100.0	n/a	0.0	stop_stim
306311.39220350003	305.60779650000001	n/a	1290	89	2750	305.6077965	stim	stop-signal	329	979865	0.0-15.16-1.16	beast_fmri_test	162	977207,/,977887,/,978567,/,979247,/,979927,/	t,t,t,t,t	<img class = center src='/static/experiments/beast_fmri_test/images/P.png'></img>	71,89	2750.0	test	<img class = center src='/static/experiments/beast_fmri_test/images/redP.png'></img>	stop	1650.0	3.0	16.0	stop	non-target	P	71,Index Finger	89,Middle Finger	650.0	1100.0	2100.0	1650.0	0.0	1100.0	n/a	0.0	ITI
307436	500	n/a	-1	-1	500	0.0	fixation	poldrack-single-stim	330	980684	0.0-15.17-0.17	beast_fmri_test	162	980607,/	t	<div class = centerbox2><div class = fixation>+</div></div>	none	500.0	test	n/a	n/a	n/a	n/a	n/a	n/a	n/a	n/a	n/a	n/a	n/a	n/a	n/a	n/a	n/a	n/a	n/a	n/a	fixation
307172.98231909995	2750	n/a	1414	89	2750	265.0176809	stim	stop-signal	331	983436	0.0-15.17-1.17	beast_fmri_test	162	981287,/,981967,/,982647,/,983327,/	t,t,t,t	<img class = center src='/static/experiments/beast_fmri_test/images/T.png'></img>	71,89	2750.0	test	<img class = center src='/static/experiments/beast_fmri_test/images/redT.png'></img>	go	1700.0	3.0	17.0	go	non-target	T	71,Index Finger	89,Middle Finger	650.0	1050.0	2100.0	1700.0	1.0	1050.0	1.0	n/a	go_stim
309922.98231909995	265.01768090000002	n/a	1414	89	2750	265.0176809	stim	stop-signal	331	983436	0.0-15.17-1.17	beast_fmri_test	162	981287,/,981967,/,982647,/,983327,/	t,t,t,t	<img class = center src='/static/experiments/beast_fmri_test/images/T.png'></img>	71,89	2750.0	test	<img class = center src='/static/experiments/beast_fmri_test/images/redT.png'></img>	go	1700.0	3.0	17.0	go	non-target	T	71,Index Finger	89,Middle Finger	650.0	1050.0	2100.0	1700.0	1.0	1050.0	1.0	n/a	ITI
310966	500	n/a	-1	-1	500	0.0	fixation	poldrack-single-stim	332	984214	0.0-15.18-0.18	beast_fmri_test	162	984007,/	t	<div class = centerbox2><div class = fixation>+</div></div>	none	500.0	test	n/a	n/a	n/a	n/a	n/a	n/a	n/a	n/a	n/a	n/a	n/a	n/a	n/a	n/a	n/a	n/a	n/a	n/a	fixation
310679.51786589995	2750	n/a	1128	71	2750	289.4821341	stim	stop-signal	333	986967	0.0-15.18-1.18	beast_fmri_test	162	984687,/,985367,/,986048,/,986727,/	t,t,t,t	<img class = center src='/static/experiments/beast_fmri_test/images/V.png'></img>	71,89	2750.0	test	<img class = center src='/static/experiments/beast_fmri_test/images/redV.png'></img>	go	2100.0	3.0	18.0	go	target	V	71,Index Finger	89,Middle Finger	650.0	1050.0	2100.0	1700.0	1.0	650.0	1.0	n/a	go_stim
313429.51786589995	289.4821341	n/a	1128	71	2750	289.4821341	stim	stop-signal	333	986967	0.0-15.18-1.18	beast_fmri_test	162	984687,/,985367,/,986048,/,986727,/	t,t,t,t	<img class = center src='/static/experiments/beast_fmri_test/images/V.png'></img>	71,89	2750.0	test	<img class = center src='/static/experiments/beast_fmri_test/images/redV.png'></img>	go	2100.0	3.0	18.0	go	target	V	71,Index Finger	89,Middle Finger	650.0	1050.0	2100.0	1700.0	1.0	650.0	1.0	n/a	ITI
314521	500	n/a	-1	-1	500	0.0	fixation	poldrack-single-stim	334	987769	0.0-15.19-0.19	beast_fmri_test	162	987407,/	t	<div class = centerbox2><div class = fixation>+</div></div>	none	500.0	test	n/a	n/a	n/a	n/a	n/a	n/a	n/a	n/a	n/a	n/a	n/a	n/a	n/a	n/a	n/a	n/a	n/a	n/a	fixation
313727.21766349999	650.0	n/a	-1	-1	2750	795.7823365	stim	stop-signal	335	990521	0.0-15.19-1.19	beast_fmri_test	162	988087,/,988767,/,989447,/,990130,/,990807,/	t,t,t,t,t	<img class = center src='/static/experiments/beast_fmri_test/images/P.png'></img>	71,89	2750.0	test	<img class = center src='/static/experiments/beast_fmri_test/images/redP.png'></img>	stop	2100.0	3.0	19.0	stop	target	P	71,Index Finger	89,Middle Finger	650.0	1050.0	2100.0	1700.0	0.0	650.0	n/a	1.0	go_stim
315827.21766349999	2100.0	n/a	-1	-1	2750	795.7823365	stim	stop-signal	335	990521	0.0-15.19-1.19	beast_fmri_test	162	988087,/,988767,/,989447,/,990130,/,990807,/	t,t,t,t,t	<img class = center src='/static/experiments/beast_fmri_test/images/P.png'></img>	71,89	2750.0	test	<img class = center src='/static/experiments/beast_fmri_test/images/redP.png'></img>	stop	2100.0	3.0	19.0	stop	target	P	71,Index Finger	89,Middle Finger	650.0	1050.0	2100.0	1700.0	0.0	650.0	n/a	1.0	stop_stim
316477.21766349999	795.78233650000004	n/a	-1	-1	2750	795.7823365	stim	stop-signal	335	990521	0.0-15.19-1.19	beast_fmri_test	162	988087,/,988767,/,989447,/,990130,/,990807,/	t,t,t,t,t	<img class = center src='/static/experiments/beast_fmri_test/images/P.png'></img>	71,89	2750.0	test	<img class = center src='/static/experiments/beast_fmri_test/images/redP.png'></img>	stop	2100.0	3.0	19.0	stop	target	P	71,Index Finger	89,Middle Finger	650.0	1050.0	2100.0	1700.0	0.0	650.0	n/a	1.0	ITI
318579	500	n/a	-1	-1	500	0.0	fixation	poldrack-single-stim	336	991827	0.0-15.20-0.20	beast_fmri_test	162	991487,/	t	<div class = centerbox2><div class = fixation>+</div></div>	none	500.0	test	n/a	n/a	n/a	n/a	n/a	n/a	n/a	n/a	n/a	n/a	n/a	n/a	n/a	n/a	n/a	n/a	n/a	n/a	fixation
317588.37308359996	700.0	n/a	-1	-1	2750	991.6269164	stim	stop-signal	337	994578	0.0-15.20-1.20	beast_fmri_test	162	992167,/,992847,/,993527,/,994206,/,994887,/,995567,/	t,t,t,t,t,t	<img class = center src='/static/experiments/beast_fmri_test/images/T.png'></img>	71,89	2750.0	test	<img class = center src='/static/experiments/beast_fmri_test/images/redT.png'></img>	stop	2050.0	3.0	20.0	stop	target	T	71,Index Finger	89,Middle Finger	700.0	1050.0	2050.0	1700.0	0.0	700.0	n/a	1.0	go_stim
319638.37308359996	2050.0	n/a	-1	-1	2750	991.6269164	stim	stop-signal	337	994578	0.0-15.20-1.20	beast_fmri_test	162	992167,/,992847,/,993527,/,994206,/,994887,/,995567,/	t,t,t,t,t,t	<img class = center src='/static/experiments/beast_fmri_test/images/T.png'></img>	71,89	2750.0	test	<img class = center src='/static/experiments/beast_fmri_test/images/redT.png'></img>	stop	2050.0	3.0	20.0	stop	target	T	71,Index Finger	89,Middle Finger	700.0	1050.0	2050.0	1700.0	0.0	700.0	n/a	1.0	stop_stim
320338.37308359996	991.62691639999991	n/a	-1	-1	2750	991.6269164	stim	stop-signal	337	994578	0.0-15.20-1.20	beast_fmri_test	162	992167,/,992847,/,993527,/,994206,/,994887,/,995567,/	t,t,t,t,t,t	<img class = center src='/static/experiments/beast_fmri_test/images/T.png'></img>	71,89	2750.0	test	<img class = center src='/static/experiments/beast_fmri_test/images/redT.png'></img>	stop	2050.0	3.0	20.0	stop	target	T	71,Index Finger	89,Middle Finger	700.0	1050.0	2050.0	1700.0	0.0	700.0	n/a	1.0	ITI
322834	500	n/a	-1	-1	500	0.0	fixation	poldrack-single-stim	338	996082	0.0-15.21-0.21	beast_fmri_test	162	n/a	n/a	<div class = centerbox2><div class = fixation>+</div></div>	none	500.0	test	n/a	n/a	n/a	n/a	n/a	n/a	n/a	n/a	n/a	n/a	n/a	n/a	n/a	n/a	n/a	n/a	n/a	n/a	fixation
321646.98882299999	2750	n/a	1184	89	2750	1189.011177	stim	stop-signal	339	998834	0.0-15.21-1.21	beast_fmri_test	162	996248,/,996928,/,997607,/,998287,/,998968,/,999647,/	t,t,t,t,t,t	<img class = center src='/static/experiments/beast_fmri_test/images/D.png'></img>	71,89	2750.0	test	<img class = center src='/static/experiments/beast_fmri_test/images/redD.png'></img>	go	1700.0	3.0	21.0	go	non-target	D	71,Index Finger	89,Middle Finger	750.0	1050.0	2050.0	1700.0	1.0	1050.0	1.0	n/a	go_stim
324396.98882299999	1189.0111769999999	n/a	1184	89	2750	1189.011177	stim	stop-signal	339	998834	0.0-15.21-1.21	beast_fmri_test	162	996248,/,996928,/,997607,/,998287,/,998968,/,999647,/	t,t,t,t,t,t	<img class = center src='/static/experiments/beast_fmri_test/images/D.png'></img>	71,89	2750.0	test	<img class = center src='/static/experiments/beast_fmri_test/images/redD.png'></img>	go	1700.0	3.0	21.0	go	non-target	D	71,Index Finger	89,Middle Finger	750.0	1050.0	2050.0	1700.0	1.0	1050.0	1.0	n/a	ITI
327287	500	n/a	-1	-1	500	0.0	fixation	poldrack-single-stim	340	1000535	0.0-15.22-0.22	beast_fmri_test	162	1000328,/	t	<div class = centerbox2><div class = fixation>+</div></div>	none	500.0	test	n/a	n/a	n/a	n/a	n/a	n/a	n/a	n/a	n/a	n/a	n/a	n/a	n/a	n/a	n/a	n/a	n/a	n/a	fixation
