onset	duration	text	rt	key_press	block_duration	timing_post_trial	trial_id	trial_type	trial_index	time_elapsed	internal_node_id	exp_id	subject_id	trigger_times	triggers	stimulus	possible_responses	stim_duration	exp_stage	SS_stimulus	SS_trial_type	SS_duration	load	trial_num	stop_trial_type	adaptive_trial_type	stim	yes_response_key	no_response_key	SSD_target	SSD_non_target	SSTarget	SSNonTarget	go_acc	SS_delay	adaptive_acc	stop_acc	new_trial_type
test	10880	n/a	-1	-1	10880	0.0	practice-no-stop-feedback	poldrack-single-stim	394	1191369	0.0-18.0	beast_fmri_test	162	1180489,/,1181167,/,1181848,/,1182528,/,1183208,/,1183888,/,1184569,/,1185248,/,1185928,/,1186608,/,1187288,/,1187968,/,1188648,/,1189328,/,1190008,/,1190688,/,1191368,/	t,t,t,t,t,t,t,t,t,t,t,t,t,t,t,t,t	"<div class = ""centerbox2_2""><p class = ""block-text2"">Your delay is 2 trials.</p><p class = block-text2>Please wait for the scanner to start the block</p></div>"	77	10880.0	n/a	n/a	n/a	n/a	n/a	n/a	n/a	n/a	n/a	n/a	n/a	n/a	n/a	n/a	n/a	n/a	n/a	n/a	n/a	start_functional_block
11381	500	n/a	-1	-1	500	0.0	fixation	poldrack-single-stim	395	1191870	0.0-19.0-0.0	beast_fmri_test	162	n/a	n/a	<div class = centerbox2><div class = fixation>+</div></div>	none	500.0	test	n/a	n/a	n/a	n/a	n/a	n/a	n/a	n/a	n/a	n/a	n/a	n/a	n/a	n/a	n/a	n/a	n/a	n/a	fixation
9724.850655999966	2750	n/a	979	89	2750	1658.149344	stim	stop-signal	396	1194622	0.0-19.0-1.0	beast_fmri_test	162	1192048,/,1192728,/,1193407,/,1194087,/,1194767,/,1195448,/,1196127,/	t,t,t,t,t,t,t	<img class = center src='/static/experiments/beast_fmri_test/images/P.png'></img>	71,89	2750.0	test	<img class = center src='/static/experiments/beast_fmri_test/images/redP.png'></img>	go	-1.0	2.0	0.0	go	temp-non-target	P	71,Index Finger	89,Middle Finger	800.0	1200.0	1950.0	1500.0	0.0	n/a	n/a	n/a	go_stim
12474.850655999966	1658.1493439999999	n/a	979	89	2750	1658.149344	stim	stop-signal	396	1194622	0.0-19.0-1.0	beast_fmri_test	162	1192048,/,1192728,/,1193407,/,1194087,/,1194767,/,1195448,/,1196127,/	t,t,t,t,t,t,t	<img class = center src='/static/experiments/beast_fmri_test/images/P.png'></img>	71,89	2750.0	test	<img class = center src='/static/experiments/beast_fmri_test/images/redP.png'></img>	go	-1.0	2.0	0.0	go	temp-non-target	P	71,Index Finger	89,Middle Finger	800.0	1200.0	1950.0	1500.0	0.0	n/a	n/a	n/a	ITI
16304	500	n/a	-1	-1	500	0.0	fixation	poldrack-single-stim	397	1196793	0.0-19.1-0.1	beast_fmri_test	162	n/a	n/a	<div class = centerbox2><div class = fixation>+</div></div>	none	500.0	test	n/a	n/a	n/a	n/a	n/a	n/a	n/a	n/a	n/a	n/a	n/a	n/a	n/a	n/a	n/a	n/a	n/a	n/a	fixation
15070.895269999979	temp_go_duration	n/a	618	89	2750	1235.10473	stim	stop-signal	398	1199545	0.0-19.1-1.1	beast_fmri_test	162	1196808,/,1197487,/,1198169,/,1198847,/,1199528,/,1200207,/	t,t,t,t,t,t	<img class = center src='/static/experiments/beast_fmri_test/images/P.png'></img>	71,89	2750.0	test	<img class = center src='/static/experiments/beast_fmri_test/images/redP.png'></img>	stop	-1.0	2.0	1.0	stop	temp-non-target	P	71,Index Finger	89,Middle Finger	800.0	1200.0	1950.0	1500.0	0.0	n/a	n/a	0.0	go_stim
temp-non-target	temp_stop_duration	n/a	618	89	2750	1235.10473	stim	stop-signal	398	1199545	0.0-19.1-1.1	beast_fmri_test	162	1196808,/,1197487,/,1198169,/,1198847,/,1199528,/,1200207,/	t,t,t,t,t,t	<img class = center src='/static/experiments/beast_fmri_test/images/P.png'></img>	71,89	2750.0	test	<img class = center src='/static/experiments/beast_fmri_test/images/redP.png'></img>	stop	-1.0	2.0	1.0	stop	temp-non-target	P	71,Index Finger	89,Middle Finger	800.0	1200.0	1950.0	1500.0	0.0	n/a	n/a	0.0	stop_stim
17820.895269999979	1235.10473	n/a	618	89	2750	1235.10473	stim	stop-signal	398	1199545	0.0-19.1-1.1	beast_fmri_test	162	1196808,/,1197487,/,1198169,/,1198847,/,1199528,/,1200207,/	t,t,t,t,t,t	<img class = center src='/static/experiments/beast_fmri_test/images/P.png'></img>	71,89	2750.0	test	<img class = center src='/static/experiments/beast_fmri_test/images/redP.png'></img>	stop	-1.0	2.0	1.0	stop	temp-non-target	P	71,Index Finger	89,Middle Finger	800.0	1200.0	1950.0	1500.0	0.0	n/a	n/a	0.0	ITI
20805	500	n/a	-1	-1	500	0.0	fixation	poldrack-single-stim	399	1201294	0.0-19.2-0.2	beast_fmri_test	162	1200888,/	t	<div class = centerbox2><div class = fixation>+</div></div>	none	500.0	test	n/a	n/a	n/a	n/a	n/a	n/a	n/a	n/a	n/a	n/a	n/a	n/a	n/a	n/a	n/a	n/a	n/a	n/a	fixation
19274.288942999905	1200.0	n/a	580	89	2750	1532.711057	stim	stop-signal	400	1204046	0.0-19.2-1.2	beast_fmri_test	162	1201567,/,1202247,/,1202927,/,1203607,/,1204287,/,1204967,/	t,t,t,t,t,t	<img class = center src='/static/experiments/beast_fmri_test/images/D.png'></img>	71,89	2750.0	test	<img class = center src='/static/experiments/beast_fmri_test/images/redD.png'></img>	stop	1550.0	2.0	2.0	stop	non-target	D	71,Index Finger	89,Middle Finger	800.0	1200.0	1950.0	1550.0	0.0	1200.0	n/a	0.0	go_stim
20824.288942999905	1550.0	n/a	580	89	2750	1532.711057	stim	stop-signal	400	1204046	0.0-19.2-1.2	beast_fmri_test	162	1201567,/,1202247,/,1202927,/,1203607,/,1204287,/,1204967,/	t,t,t,t,t,t	<img class = center src='/static/experiments/beast_fmri_test/images/D.png'></img>	71,89	2750.0	test	<img class = center src='/static/experiments/beast_fmri_test/images/redD.png'></img>	stop	1550.0	2.0	2.0	stop	non-target	D	71,Index Finger	89,Middle Finger	800.0	1200.0	1950.0	1550.0	0.0	1200.0	n/a	0.0	stop_stim
22024.288942999905	1532.711057	n/a	580	89	2750	1532.711057	stim	stop-signal	400	1204046	0.0-19.2-1.2	beast_fmri_test	162	1201567,/,1202247,/,1202927,/,1203607,/,1204287,/,1204967,/	t,t,t,t,t,t	<img class = center src='/static/experiments/beast_fmri_test/images/D.png'></img>	71,89	2750.0	test	<img class = center src='/static/experiments/beast_fmri_test/images/redD.png'></img>	stop	1550.0	2.0	2.0	stop	non-target	D	71,Index Finger	89,Middle Finger	800.0	1200.0	1950.0	1550.0	0.0	1200.0	n/a	0.0	ITI
25602	500	n/a	-1	-1	500	0.0	fixation	poldrack-single-stim	401	1206091	0.0-19.3-0.3	beast_fmri_test	162	1205647,/	t	<div class = centerbox2><div class = fixation>+</div></div>	none	500.0	test	n/a	n/a	n/a	n/a	n/a	n/a	n/a	n/a	n/a	n/a	n/a	n/a	n/a	n/a	n/a	n/a	n/a	n/a	fixation
25401.2635172999	2750	n/a	1250	89	2750	202.7364827	stim	stop-signal	402	1208843	0.0-19.3-1.3	beast_fmri_test	162	1206328,/,1207007,/,1207687,/,1208368,/	t,t,t,t	<img class = center src='/static/experiments/beast_fmri_test/images/V.png'></img>	71,89	2750.0	test	<img class = center src='/static/experiments/beast_fmri_test/images/redV.png'></img>	go	1600.0	2.0	3.0	go	non-target	V	71,Index Finger	89,Middle Finger	800.0	1150.0	1950.0	1600.0	1.0	1150.0	1.0	n/a	go_stim
28151.2635172999	202.73648269999998	n/a	1250	89	2750	202.7364827	stim	stop-signal	402	1208843	0.0-19.3-1.3	beast_fmri_test	162	1206328,/,1207007,/,1207687,/,1208368,/	t,t,t,t	<img class = center src='/static/experiments/beast_fmri_test/images/V.png'></img>	71,89	2750.0	test	<img class = center src='/static/experiments/beast_fmri_test/images/redV.png'></img>	go	1600.0	2.0	3.0	go	non-target	V	71,Index Finger	89,Middle Finger	800.0	1150.0	1950.0	1600.0	1.0	1150.0	1.0	n/a	ITI
29072	500	n/a	-1	-1	500	0.0	fixation	poldrack-single-stim	403	1209561	0.0-19.4-0.4	beast_fmri_test	162	1209059,/	t	<div class = centerbox2><div class = fixation>+</div></div>	none	500.0	test	n/a	n/a	n/a	n/a	n/a	n/a	n/a	n/a	n/a	n/a	n/a	n/a	n/a	n/a	n/a	n/a	n/a	n/a	fixation
28657.050023100106	1150.0	n/a	-1	-1	2750	416.9499769	stim	stop-signal	404	1212313	0.0-19.4-1.4	beast_fmri_test	162	1209727,/,1210407,/,1211087,/,1211767,/,1212447,/	t,t,t,t,t	<img class = center src='/static/experiments/beast_fmri_test/images/B.png'></img>	71,89	2750.0	test	<img class = center src='/static/experiments/beast_fmri_test/images/redB.png'></img>	stop	1600.0	2.0	4.0	stop	non-target	B	71,Index Finger	89,Middle Finger	800.0	1150.0	1950.0	1600.0	0.0	1150.0	n/a	1.0	go_stim
30257.050023100106	1600.0	n/a	-1	-1	2750	416.9499769	stim	stop-signal	404	1212313	0.0-19.4-1.4	beast_fmri_test	162	1209727,/,1210407,/,1211087,/,1211767,/,1212447,/	t,t,t,t,t	<img class = center src='/static/experiments/beast_fmri_test/images/B.png'></img>	71,89	2750.0	test	<img class = center src='/static/experiments/beast_fmri_test/images/redB.png'></img>	stop	1600.0	2.0	4.0	stop	non-target	B	71,Index Finger	89,Middle Finger	800.0	1150.0	1950.0	1600.0	0.0	1150.0	n/a	1.0	stop_stim
31407.050023100106	416.94997689999997	n/a	-1	-1	2750	416.9499769	stim	stop-signal	404	1212313	0.0-19.4-1.4	beast_fmri_test	162	1209727,/,1210407,/,1211087,/,1211767,/,1212447,/	t,t,t,t,t	<img class = center src='/static/experiments/beast_fmri_test/images/B.png'></img>	71,89	2750.0	test	<img class = center src='/static/experiments/beast_fmri_test/images/redB.png'></img>	stop	1600.0	2.0	4.0	stop	non-target	B	71,Index Finger	89,Middle Finger	800.0	1150.0	1950.0	1600.0	0.0	1150.0	n/a	1.0	ITI
32757	500	n/a	-1	-1	500	0.0	fixation	poldrack-single-stim	405	1213246	0.0-19.5-0.5	beast_fmri_test	162	1213127,/	t	<div class = centerbox2><div class = fixation>+</div></div>	none	500.0	test	n/a	n/a	n/a	n/a	n/a	n/a	n/a	n/a	n/a	n/a	n/a	n/a	n/a	n/a	n/a	n/a	n/a	n/a	fixation
32388.379459199961	2750	n/a	928	89	2750	370.6205408	stim	stop-signal	406	1215998	0.0-19.5-1.5	beast_fmri_test	162	1213808,/,1214488,/,1215168,/,1215848,/	t,t,t,t	<img class = center src='/static/experiments/beast_fmri_test/images/D.png'></img>	71,89	2750.0	test	<img class = center src='/static/experiments/beast_fmri_test/images/redD.png'></img>	go	1550.0	2.0	5.0	go	non-target	D	71,Index Finger	89,Middle Finger	800.0	1200.0	1950.0	1550.0	1.0	1200.0	1.0	n/a	go_stim
35138.379459199961	370.62054080000001	n/a	928	89	2750	370.6205408	stim	stop-signal	406	1215998	0.0-19.5-1.5	beast_fmri_test	162	1213808,/,1214488,/,1215168,/,1215848,/	t,t,t,t	<img class = center src='/static/experiments/beast_fmri_test/images/D.png'></img>	71,89	2750.0	test	<img class = center src='/static/experiments/beast_fmri_test/images/redD.png'></img>	go	1550.0	2.0	5.0	go	non-target	D	71,Index Finger	89,Middle Finger	800.0	1200.0	1950.0	1550.0	1.0	1200.0	1.0	n/a	ITI
36393	500	n/a	-1	-1	500	0.0	fixation	poldrack-single-stim	407	1216882	0.0-19.6-0.6	beast_fmri_test	162	1216528,/	t	<div class = centerbox2><div class = fixation>+</div></div>	none	500.0	test	n/a	n/a	n/a	n/a	n/a	n/a	n/a	n/a	n/a	n/a	n/a	n/a	n/a	n/a	n/a	n/a	n/a	n/a	fixation
34536.561891000019	2750	n/a	888	71	2750	1858.438109	stim	stop-signal	408	1219634	0.0-19.6-1.6	beast_fmri_test	162	1217208,/,1217888,/,1218569,/,1219248,/,1219928,/,1220608,/,1221288,/	t,t,t,t,t,t,t	<img class = center src='/static/experiments/beast_fmri_test/images/B.png'></img>	71,89	2750.0	test	<img class = center src='/static/experiments/beast_fmri_test/images/redB.png'></img>	go	1950.0	2.0	6.0	go	target	B	71,Index Finger	89,Middle Finger	800.0	1200.0	1950.0	1550.0	1.0	800.0	1.0	n/a	go_stim
37286.561891000019	1858.4381089999999	n/a	888	71	2750	1858.438109	stim	stop-signal	408	1219634	0.0-19.6-1.6	beast_fmri_test	162	1217208,/,1217888,/,1218569,/,1219248,/,1219928,/,1220608,/,1221288,/	t,t,t,t,t,t,t	<img class = center src='/static/experiments/beast_fmri_test/images/B.png'></img>	71,89	2750.0	test	<img class = center src='/static/experiments/beast_fmri_test/images/redB.png'></img>	go	1950.0	2.0	6.0	go	target	B	71,Index Finger	89,Middle Finger	800.0	1200.0	1950.0	1550.0	1.0	800.0	1.0	n/a	ITI
41518	500	n/a	-1	-1	500	0.0	fixation	poldrack-single-stim	409	1222007	0.0-19.7-0.7	beast_fmri_test	162	1221968,/	t	<div class = centerbox2><div class = fixation>+</div></div>	none	500.0	test	n/a	n/a	n/a	n/a	n/a	n/a	n/a	n/a	n/a	n/a	n/a	n/a	n/a	n/a	n/a	n/a	n/a	n/a	fixation
40987.625965300016	2750	n/a	828	89	2750	532.3740347	stim	stop-signal	410	1224759	0.0-19.7-1.7	beast_fmri_test	162	1222648,/,1223328,/,1224008,/,1224688,/	t,t,t,t	<img class = center src='/static/experiments/beast_fmri_test/images/V.png'></img>	71,89	2750.0	test	<img class = center src='/static/experiments/beast_fmri_test/images/redV.png'></img>	go	1550.0	2.0	7.0	go	non-target	V	71,Index Finger	89,Middle Finger	800.0	1200.0	1950.0	1550.0	1.0	1200.0	1.0	n/a	go_stim
43737.625965300016	532.37403470000004	n/a	828	89	2750	532.3740347	stim	stop-signal	410	1224759	0.0-19.7-1.7	beast_fmri_test	162	1222648,/,1223328,/,1224008,/,1224688,/	t,t,t,t	<img class = center src='/static/experiments/beast_fmri_test/images/V.png'></img>	71,89	2750.0	test	<img class = center src='/static/experiments/beast_fmri_test/images/redV.png'></img>	go	1550.0	2.0	7.0	go	non-target	V	71,Index Finger	89,Middle Finger	800.0	1200.0	1950.0	1550.0	1.0	1200.0	1.0	n/a	ITI
45319	500	n/a	-1	-1	500	0.0	fixation	poldrack-single-stim	411	1225808	0.0-19.8-0.8	beast_fmri_test	162	1225368,/	t	<div class = centerbox2><div class = fixation>+</div></div>	none	500.0	test	n/a	n/a	n/a	n/a	n/a	n/a	n/a	n/a	n/a	n/a	n/a	n/a	n/a	n/a	n/a	n/a	n/a	n/a	fixation
44872.9267215	2750	n/a	1261	89	2750	449.0732785	stim	stop-signal	412	1228561	0.0-19.8-1.8	beast_fmri_test	162	1226048,/,1226728,/,1227407,/,1228088,/,1228768,/	t,t,t,t,t	<img class = center src='/static/experiments/beast_fmri_test/images/P.png'></img>	71,89	2750.0	test	<img class = center src='/static/experiments/beast_fmri_test/images/redP.png'></img>	go	1550.0	2.0	8.0	go	non-target	P	71,Index Finger	89,Middle Finger	800.0	1200.0	1950.0	1550.0	1.0	1200.0	1.0	n/a	go_stim
47622.9267215	449.07327850000001	n/a	1261	89	2750	449.0732785	stim	stop-signal	412	1228561	0.0-19.8-1.8	beast_fmri_test	162	1226048,/,1226728,/,1227407,/,1228088,/,1228768,/	t,t,t,t,t	<img class = center src='/static/experiments/beast_fmri_test/images/P.png'></img>	71,89	2750.0	test	<img class = center src='/static/experiments/beast_fmri_test/images/redP.png'></img>	go	1550.0	2.0	8.0	go	non-target	P	71,Index Finger	89,Middle Finger	800.0	1200.0	1950.0	1550.0	1.0	1200.0	1.0	n/a	ITI
49034	500	n/a	-1	-1	500	0.0	fixation	poldrack-single-stim	413	1229523	0.0-19.9-0.9	beast_fmri_test	162	1229448,/	t	<div class = centerbox2><div class = fixation>+</div></div>	none	500.0	test	n/a	n/a	n/a	n/a	n/a	n/a	n/a	n/a	n/a	n/a	n/a	n/a	n/a	n/a	n/a	n/a	n/a	n/a	fixation
48217.365848799935	800.0	n/a	996	71	2750	818.6341512	stim	stop-signal	414	1232275	0.0-19.9-1.9	beast_fmri_test	162	1230127,/,1230808,/,1231487,/,1232167,/,1232847,/	t,t,t,t,t	<img class = center src='/static/experiments/beast_fmri_test/images/V.png'></img>	71,89	2750.0	test	<img class = center src='/static/experiments/beast_fmri_test/images/redV.png'></img>	stop	1950.0	2.0	9.0	stop	target	V	71,Index Finger	89,Middle Finger	800.0	1200.0	1950.0	1550.0	0.0	800.0	n/a	0.0	go_stim
50167.365848799935	1950.0	n/a	996	71	2750	818.6341512	stim	stop-signal	414	1232275	0.0-19.9-1.9	beast_fmri_test	162	1230127,/,1230808,/,1231487,/,1232167,/,1232847,/	t,t,t,t,t	<img class = center src='/static/experiments/beast_fmri_test/images/V.png'></img>	71,89	2750.0	test	<img class = center src='/static/experiments/beast_fmri_test/images/redV.png'></img>	stop	1950.0	2.0	9.0	stop	target	V	71,Index Finger	89,Middle Finger	800.0	1200.0	1950.0	1550.0	0.0	800.0	n/a	0.0	stop_stim
50967.365848799935	818.63415120000002	n/a	996	71	2750	818.6341512	stim	stop-signal	414	1232275	0.0-19.9-1.9	beast_fmri_test	162	1230127,/,1230808,/,1231487,/,1232167,/,1232847,/	t,t,t,t,t	<img class = center src='/static/experiments/beast_fmri_test/images/V.png'></img>	71,89	2750.0	test	<img class = center src='/static/experiments/beast_fmri_test/images/redV.png'></img>	stop	1950.0	2.0	9.0	stop	target	V	71,Index Finger	89,Middle Finger	800.0	1200.0	1950.0	1550.0	0.0	800.0	n/a	0.0	ITI
53119	500	n/a	-1	-1	500	0.0	fixation	poldrack-single-stim	415	1233608	0.0-19.10-0.10	beast_fmri_test	162	1233528,/	t	<div class = centerbox2><div class = fixation>+</div></div>	none	500.0	test	n/a	n/a	n/a	n/a	n/a	n/a	n/a	n/a	n/a	n/a	n/a	n/a	n/a	n/a	n/a	n/a	n/a	n/a	fixation
52933.656979999971	2750	n/a	1069	71	2750	187.34302	stim	stop-signal	416	1236360	0.0-19.10-1.10	beast_fmri_test	162	1234208,/,1234888,/,1235567,/,1236248,/	t,t,t,t	<img class = center src='/static/experiments/beast_fmri_test/images/P.png'></img>	71,89	2750.0	test	<img class = center src='/static/experiments/beast_fmri_test/images/redP.png'></img>	go	2000.0	2.0	10.0	go	target	P	71,Index Finger	89,Middle Finger	750.0	1200.0	2000.0	1550.0	1.0	750.0	1.0	n/a	go_stim
55683.656979999971	187.34302	n/a	1069	71	2750	187.34302	stim	stop-signal	416	1236360	0.0-19.10-1.10	beast_fmri_test	162	1234208,/,1234888,/,1235567,/,1236248,/	t,t,t,t	<img class = center src='/static/experiments/beast_fmri_test/images/P.png'></img>	71,89	2750.0	test	<img class = center src='/static/experiments/beast_fmri_test/images/redP.png'></img>	go	2000.0	2.0	10.0	go	target	P	71,Index Finger	89,Middle Finger	750.0	1200.0	2000.0	1550.0	1.0	750.0	1.0	n/a	ITI
56572	500	n/a	-1	-1	500	0.0	fixation	poldrack-single-stim	417	1237061	0.0-19.11-0.11	beast_fmri_test	162	1236927,/	t	<div class = centerbox2><div class = fixation>+</div></div>	none	500.0	test	n/a	n/a	n/a	n/a	n/a	n/a	n/a	n/a	n/a	n/a	n/a	n/a	n/a	n/a	n/a	n/a	n/a	n/a	fixation
55963.782652399968	2750	n/a	1295	71	2750	609.2173476	stim	stop-signal	418	1239812	0.0-19.11-1.11	beast_fmri_test	162	1237607,/,1238287,/,1238968,/,1239647,/,1240327,/	t,t,t,t,t	<img class = center src='/static/experiments/beast_fmri_test/images/V.png'></img>	71,89	2750.0	test	<img class = center src='/static/experiments/beast_fmri_test/images/redV.png'></img>	go	2000.0	2.0	11.0	go	target	V	71,Index Finger	89,Middle Finger	750.0	1200.0	2000.0	1550.0	1.0	750.0	1.0	n/a	go_stim
58713.782652399968	609.21734759999993	n/a	1295	71	2750	609.2173476	stim	stop-signal	418	1239812	0.0-19.11-1.11	beast_fmri_test	162	1237607,/,1238287,/,1238968,/,1239647,/,1240327,/	t,t,t,t,t	<img class = center src='/static/experiments/beast_fmri_test/images/V.png'></img>	71,89	2750.0	test	<img class = center src='/static/experiments/beast_fmri_test/images/redV.png'></img>	go	2000.0	2.0	11.0	go	target	V	71,Index Finger	89,Middle Finger	750.0	1200.0	2000.0	1550.0	1.0	750.0	1.0	n/a	ITI
60447	500	n/a	-1	-1	500	0.0	fixation	poldrack-single-stim	419	1240936	0.0-19.12-0.12	beast_fmri_test	162	n/a	n/a	<div class = centerbox2><div class = fixation>+</div></div>	none	500.0	test	n/a	n/a	n/a	n/a	n/a	n/a	n/a	n/a	n/a	n/a	n/a	n/a	n/a	n/a	n/a	n/a	n/a	n/a	fixation
59848.158538300078	750.0	n/a	-1	-1	2750	600.8414617	stim	stop-signal	420	1243688	0.0-19.12-1.12	beast_fmri_test	162	1241007,/,1241688,/,1242367,/,1243047,/,1243727,/	t,t,t,t,t	<img class = center src='/static/experiments/beast_fmri_test/images/P.png'></img>	71,89	2750.0	test	<img class = center src='/static/experiments/beast_fmri_test/images/redP.png'></img>	stop	2000.0	2.0	12.0	stop	target	P	71,Index Finger	89,Middle Finger	750.0	1200.0	2000.0	1550.0	0.0	750.0	n/a	1.0	go_stim
61848.158538300078	2000.0	n/a	-1	-1	2750	600.8414617	stim	stop-signal	420	1243688	0.0-19.12-1.12	beast_fmri_test	162	1241007,/,1241688,/,1242367,/,1243047,/,1243727,/	t,t,t,t,t	<img class = center src='/static/experiments/beast_fmri_test/images/P.png'></img>	71,89	2750.0	test	<img class = center src='/static/experiments/beast_fmri_test/images/redP.png'></img>	stop	2000.0	2.0	12.0	stop	target	P	71,Index Finger	89,Middle Finger	750.0	1200.0	2000.0	1550.0	0.0	750.0	n/a	1.0	stop_stim
62598.158538300078	600.84146170000008	n/a	-1	-1	2750	600.8414617	stim	stop-signal	420	1243688	0.0-19.12-1.12	beast_fmri_test	162	1241007,/,1241688,/,1242367,/,1243047,/,1243727,/	t,t,t,t,t	<img class = center src='/static/experiments/beast_fmri_test/images/P.png'></img>	71,89	2750.0	test	<img class = center src='/static/experiments/beast_fmri_test/images/redP.png'></img>	stop	2000.0	2.0	12.0	stop	target	P	71,Index Finger	89,Middle Finger	750.0	1200.0	2000.0	1550.0	0.0	750.0	n/a	1.0	ITI
64313	500	n/a	-1	-1	500	0.0	fixation	poldrack-single-stim	421	1244802	0.0-19.13-0.13	beast_fmri_test	162	1244407,/	t	<div class = centerbox2><div class = fixation>+</div></div>	none	500.0	test	n/a	n/a	n/a	n/a	n/a	n/a	n/a	n/a	n/a	n/a	n/a	n/a	n/a	n/a	n/a	n/a	n/a	n/a	fixation
64240.775732190115	1200.0	n/a	895	89	2750	74.22426781	stim	stop-signal	422	1247554	0.0-19.13-1.13	beast_fmri_test	162	1245087,/,1245767,/,1246448,/,1247128,/	t,t,t,t	<img class = center src='/static/experiments/beast_fmri_test/images/T.png'></img>	71,89	2750.0	test	<img class = center src='/static/experiments/beast_fmri_test/images/redT.png'></img>	stop	1550.0	2.0	13.0	stop	non-target	T	71,Index Finger	89,Middle Finger	800.0	1200.0	2000.0	1550.0	0.0	1200.0	n/a	0.0	go_stim
65790.775732190115	1550.0	n/a	895	89	2750	74.22426781	stim	stop-signal	422	1247554	0.0-19.13-1.13	beast_fmri_test	162	1245087,/,1245767,/,1246448,/,1247128,/	t,t,t,t	<img class = center src='/static/experiments/beast_fmri_test/images/T.png'></img>	71,89	2750.0	test	<img class = center src='/static/experiments/beast_fmri_test/images/redT.png'></img>	stop	1550.0	2.0	13.0	stop	non-target	T	71,Index Finger	89,Middle Finger	800.0	1200.0	2000.0	1550.0	0.0	1200.0	n/a	0.0	stop_stim
66990.775732190115	74.224267810000001	n/a	895	89	2750	74.22426781	stim	stop-signal	422	1247554	0.0-19.13-1.13	beast_fmri_test	162	1245087,/,1245767,/,1246448,/,1247128,/	t,t,t,t	<img class = center src='/static/experiments/beast_fmri_test/images/T.png'></img>	71,89	2750.0	test	<img class = center src='/static/experiments/beast_fmri_test/images/redT.png'></img>	stop	1550.0	2.0	13.0	stop	non-target	T	71,Index Finger	89,Middle Finger	800.0	1200.0	2000.0	1550.0	0.0	1200.0	n/a	0.0	ITI
67652	500	n/a	-1	-1	500	0.0	fixation	poldrack-single-stim	423	1248141	0.0-19.14-0.14	beast_fmri_test	162	1247808,/	t	<div class = centerbox2><div class = fixation>+</div></div>	none	500.0	test	n/a	n/a	n/a	n/a	n/a	n/a	n/a	n/a	n/a	n/a	n/a	n/a	n/a	n/a	n/a	n/a	n/a	n/a	fixation
66761.719634399982	2750	n/a	1291	71	2750	892.2803656	stim	stop-signal	424	1250893	0.0-19.14-1.14	beast_fmri_test	162	1248488,/,1249169,/,1249848,/,1250528,/,1251208,/	t,t,t,t,t	<img class = center src='/static/experiments/beast_fmri_test/images/P.png'></img>	71,89	2750.0	test	<img class = center src='/static/experiments/beast_fmri_test/images/redP.png'></img>	go	1950.0	2.0	14.0	go	target	P	71,Index Finger	89,Middle Finger	800.0	1150.0	1950.0	1550.0	1.0	800.0	1.0	n/a	go_stim
69511.719634399982	892.28036559999998	n/a	1291	71	2750	892.2803656	stim	stop-signal	424	1250893	0.0-19.14-1.14	beast_fmri_test	162	1248488,/,1249169,/,1249848,/,1250528,/,1251208,/	t,t,t,t,t	<img class = center src='/static/experiments/beast_fmri_test/images/P.png'></img>	71,89	2750.0	test	<img class = center src='/static/experiments/beast_fmri_test/images/redP.png'></img>	go	1950.0	2.0	14.0	go	target	P	71,Index Finger	89,Middle Finger	800.0	1150.0	1950.0	1550.0	1.0	800.0	1.0	n/a	ITI
71811	500	n/a	-1	-1	500	0.0	fixation	poldrack-single-stim	425	1252300	0.0-19.15-0.15	beast_fmri_test	162	1251888,/	t	<div class = centerbox2><div class = fixation>+</div></div>	none	500.0	test	n/a	n/a	n/a	n/a	n/a	n/a	n/a	n/a	n/a	n/a	n/a	n/a	n/a	n/a	n/a	n/a	n/a	n/a	fixation
70906.341740899952	2750	n/a	1310	89	2750	906.6582591	stim	stop-signal	426	1255052	0.0-19.15-1.15	beast_fmri_test	162	1252568,/,1253248,/,1253928,/,1254608,/,1255288,/	t,t,t,t,t	<img class = center src='/static/experiments/beast_fmri_test/images/D.png'></img>	71,89	2750.0	test	<img class = center src='/static/experiments/beast_fmri_test/images/redD.png'></img>	go	1600.0	2.0	15.0	go	non-target	D	71,Index Finger	89,Middle Finger	800.0	1150.0	1950.0	1600.0	1.0	1150.0	1.0	n/a	go_stim
73656.341740899952	906.65825910000001	n/a	1310	89	2750	906.6582591	stim	stop-signal	426	1255052	0.0-19.15-1.15	beast_fmri_test	162	1252568,/,1253248,/,1253928,/,1254608,/,1255288,/	t,t,t,t,t	<img class = center src='/static/experiments/beast_fmri_test/images/D.png'></img>	71,89	2750.0	test	<img class = center src='/static/experiments/beast_fmri_test/images/redD.png'></img>	go	1600.0	2.0	15.0	go	non-target	D	71,Index Finger	89,Middle Finger	800.0	1150.0	1950.0	1600.0	1.0	1150.0	1.0	n/a	ITI
75985	500	n/a	-1	-1	500	0.0	fixation	poldrack-single-stim	427	1256474	0.0-19.16-0.16	beast_fmri_test	162	1255972,/	t	<div class = centerbox2><div class = fixation>+</div></div>	none	500.0	test	n/a	n/a	n/a	n/a	n/a	n/a	n/a	n/a	n/a	n/a	n/a	n/a	n/a	n/a	n/a	n/a	n/a	n/a	fixation
75555.24996070005	800.0	n/a	-1	-1	2750	431.7500393	stim	stop-signal	428	1259226	0.0-19.16-1.16	beast_fmri_test	162	1256648,/,1257328,/,1258008,/,1258688,/,1259368,/	t,t,t,t,t	<img class = center src='/static/experiments/beast_fmri_test/images/P.png'></img>	71,89	2750.0	test	<img class = center src='/static/experiments/beast_fmri_test/images/redP.png'></img>	stop	1950.0	2.0	16.0	stop	target	P	71,Index Finger	89,Middle Finger	800.0	1150.0	1950.0	1600.0	0.0	800.0	n/a	1.0	go_stim
77505.24996070005	1950.0	n/a	-1	-1	2750	431.7500393	stim	stop-signal	428	1259226	0.0-19.16-1.16	beast_fmri_test	162	1256648,/,1257328,/,1258008,/,1258688,/,1259368,/	t,t,t,t,t	<img class = center src='/static/experiments/beast_fmri_test/images/P.png'></img>	71,89	2750.0	test	<img class = center src='/static/experiments/beast_fmri_test/images/redP.png'></img>	stop	1950.0	2.0	16.0	stop	target	P	71,Index Finger	89,Middle Finger	800.0	1150.0	1950.0	1600.0	0.0	800.0	n/a	1.0	stop_stim
78305.24996070005	431.75003930000003	n/a	-1	-1	2750	431.7500393	stim	stop-signal	428	1259226	0.0-19.16-1.16	beast_fmri_test	162	1256648,/,1257328,/,1258008,/,1258688,/,1259368,/	t,t,t,t,t	<img class = center src='/static/experiments/beast_fmri_test/images/P.png'></img>	71,89	2750.0	test	<img class = center src='/static/experiments/beast_fmri_test/images/redP.png'></img>	stop	1950.0	2.0	16.0	stop	target	P	71,Index Finger	89,Middle Finger	800.0	1150.0	1950.0	1600.0	0.0	800.0	n/a	1.0	ITI
79684	500	n/a	-1	-1	500	0.0	fixation	poldrack-single-stim	429	1260173	0.0-19.17-0.17	beast_fmri_test	162	1260048,/	t	<div class = centerbox2><div class = fixation>+</div></div>	none	500.0	test	n/a	n/a	n/a	n/a	n/a	n/a	n/a	n/a	n/a	n/a	n/a	n/a	n/a	n/a	n/a	n/a	n/a	n/a	fixation
79649.908947960008	1150.0	n/a	-1	-1	2750	36.09105204	stim	stop-signal	430	1262925	0.0-19.17-1.17	beast_fmri_test	162	1260728,/,1261407,/,1262088,/,1262767,/	t,t,t,t	<img class = center src='/static/experiments/beast_fmri_test/images/B.png'></img>	71,89	2750.0	test	<img class = center src='/static/experiments/beast_fmri_test/images/redB.png'></img>	stop	1600.0	2.0	17.0	stop	non-target	B	71,Index Finger	89,Middle Finger	850.0	1150.0	1950.0	1600.0	0.0	1150.0	n/a	1.0	go_stim
81249.908947960008	1600.0	n/a	-1	-1	2750	36.09105204	stim	stop-signal	430	1262925	0.0-19.17-1.17	beast_fmri_test	162	1260728,/,1261407,/,1262088,/,1262767,/	t,t,t,t	<img class = center src='/static/experiments/beast_fmri_test/images/B.png'></img>	71,89	2750.0	test	<img class = center src='/static/experiments/beast_fmri_test/images/redB.png'></img>	stop	1600.0	2.0	17.0	stop	non-target	B	71,Index Finger	89,Middle Finger	850.0	1150.0	1950.0	1600.0	0.0	1150.0	n/a	1.0	stop_stim
82399.908947960008	36.091052040000001	n/a	-1	-1	2750	36.09105204	stim	stop-signal	430	1262925	0.0-19.17-1.17	beast_fmri_test	162	1260728,/,1261407,/,1262088,/,1262767,/	t,t,t,t	<img class = center src='/static/experiments/beast_fmri_test/images/B.png'></img>	71,89	2750.0	test	<img class = center src='/static/experiments/beast_fmri_test/images/redB.png'></img>	stop	1600.0	2.0	17.0	stop	non-target	B	71,Index Finger	89,Middle Finger	850.0	1150.0	1950.0	1600.0	0.0	1150.0	n/a	1.0	ITI
82985	500	n/a	-1	-1	500	0.0	fixation	poldrack-single-stim	431	1263474	0.0-19.18-0.18	beast_fmri_test	162	1263448,/	t	<div class = centerbox2><div class = fixation>+</div></div>	none	500.0	test	n/a	n/a	n/a	n/a	n/a	n/a	n/a	n/a	n/a	n/a	n/a	n/a	n/a	n/a	n/a	n/a	n/a	n/a	fixation
81411.936868000077	2750	n/a	2160	89	2750	1575.063132	stim	stop-signal	432	1266226	0.0-19.18-1.18	beast_fmri_test	162	1264128,/,1264808,/,1265487,/,1266167,/,1266847,/,1267527,/	t,t,t,t,t,t	<img class = center src='/static/experiments/beast_fmri_test/images/V.png'></img>	71,89	2750.0	test	<img class = center src='/static/experiments/beast_fmri_test/images/redV.png'></img>	go	1550.0	2.0	18.0	go	non-target	V	71,Index Finger	89,Middle Finger	850.0	1200.0	1950.0	1550.0	1.0	1200.0	1.0	n/a	go_stim
84161.936868000077	1575.063132	n/a	2160	89	2750	1575.063132	stim	stop-signal	432	1266226	0.0-19.18-1.18	beast_fmri_test	162	1264128,/,1264808,/,1265487,/,1266167,/,1266847,/,1267527,/	t,t,t,t,t,t	<img class = center src='/static/experiments/beast_fmri_test/images/V.png'></img>	71,89	2750.0	test	<img class = center src='/static/experiments/beast_fmri_test/images/redV.png'></img>	go	1550.0	2.0	18.0	go	non-target	V	71,Index Finger	89,Middle Finger	850.0	1200.0	1950.0	1550.0	1.0	1200.0	1.0	n/a	ITI
87826	500	n/a	-1	-1	500	0.0	fixation	poldrack-single-stim	433	1268315	0.0-19.19-0.19	beast_fmri_test	162	1268207,/	t	<div class = centerbox2><div class = fixation>+</div></div>	none	500.0	test	n/a	n/a	n/a	n/a	n/a	n/a	n/a	n/a	n/a	n/a	n/a	n/a	n/a	n/a	n/a	n/a	n/a	n/a	fixation
87036.192211499903	1200.0	n/a	-1	-1	2750	791.8077885	stim	stop-signal	434	1271067	0.0-19.19-1.19	beast_fmri_test	162	1268887,/,1269569,/,1270247,/,1270927,/,1271607,/	t,t,t,t,t	<img class = center src='/static/experiments/beast_fmri_test/images/P.png'></img>	71,89	2750.0	test	<img class = center src='/static/experiments/beast_fmri_test/images/redP.png'></img>	stop	1550.0	2.0	19.0	stop	non-target	P	71,Index Finger	89,Middle Finger	850.0	1200.0	1950.0	1550.0	0.0	1200.0	n/a	1.0	go_stim
88586.192211499903	1550.0	n/a	-1	-1	2750	791.8077885	stim	stop-signal	434	1271067	0.0-19.19-1.19	beast_fmri_test	162	1268887,/,1269569,/,1270247,/,1270927,/,1271607,/	t,t,t,t,t	<img class = center src='/static/experiments/beast_fmri_test/images/P.png'></img>	71,89	2750.0	test	<img class = center src='/static/experiments/beast_fmri_test/images/redP.png'></img>	stop	1550.0	2.0	19.0	stop	non-target	P	71,Index Finger	89,Middle Finger	850.0	1200.0	1950.0	1550.0	0.0	1200.0	n/a	1.0	stop_stim
89786.192211499903	791.80778850000002	n/a	-1	-1	2750	791.8077885	stim	stop-signal	434	1271067	0.0-19.19-1.19	beast_fmri_test	162	1268887,/,1269569,/,1270247,/,1270927,/,1271607,/	t,t,t,t,t	<img class = center src='/static/experiments/beast_fmri_test/images/P.png'></img>	71,89	2750.0	test	<img class = center src='/static/experiments/beast_fmri_test/images/redP.png'></img>	stop	1550.0	2.0	19.0	stop	non-target	P	71,Index Finger	89,Middle Finger	850.0	1200.0	1950.0	1550.0	0.0	1200.0	n/a	1.0	ITI
91885	500	n/a	-1	-1	500	0.0	fixation	poldrack-single-stim	435	1272374	0.0-19.20-0.20	beast_fmri_test	162	1272287,/	t	<div class = centerbox2><div class = fixation>+</div></div>	none	500.0	test	n/a	n/a	n/a	n/a	n/a	n/a	n/a	n/a	n/a	n/a	n/a	n/a	n/a	n/a	n/a	n/a	n/a	n/a	fixation
91667.472786699887	2750	n/a	1016	71	2750	219.5272133	stim	stop-signal	436	1275126	0.0-19.20-1.20	beast_fmri_test	162	1272967,/,1273647,/,1274327,/,1275007,/	t,t,t,t	<img class = center src='/static/experiments/beast_fmri_test/images/V.png'></img>	71,89	2750.0	test	<img class = center src='/static/experiments/beast_fmri_test/images/redV.png'></img>	go	1900.0	2.0	20.0	go	target	V	71,Index Finger	89,Middle Finger	850.0	1250.0	1900.0	1550.0	1.0	850.0	1.0	n/a	go_stim
94417.472786699887	219.5272133	n/a	1016	71	2750	219.5272133	stim	stop-signal	436	1275126	0.0-19.20-1.20	beast_fmri_test	162	1272967,/,1273647,/,1274327,/,1275007,/	t,t,t,t	<img class = center src='/static/experiments/beast_fmri_test/images/V.png'></img>	71,89	2750.0	test	<img class = center src='/static/experiments/beast_fmri_test/images/redV.png'></img>	go	1900.0	2.0	20.0	go	target	V	71,Index Finger	89,Middle Finger	850.0	1250.0	1900.0	1550.0	1.0	850.0	1.0	n/a	ITI
95374	500	n/a	-1	-1	500	0.0	fixation	poldrack-single-stim	437	1275863	0.0-19.21-0.21	beast_fmri_test	162	1275687,/	t	<div class = centerbox2><div class = fixation>+</div></div>	none	500.0	test	n/a	n/a	n/a	n/a	n/a	n/a	n/a	n/a	n/a	n/a	n/a	n/a	n/a	n/a	n/a	n/a	n/a	n/a	fixation
95234.770117399981	2750	n/a	1464	89	2750	141.2298826	stim	stop-signal	438	1278615	0.0-19.21-1.21	beast_fmri_test	162	1276367,/,1277047,/,1277727,/,1278407,/	t,t,t,t	<img class = center src='/static/experiments/beast_fmri_test/images/D.png'></img>	71,89	2750.0	test	<img class = center src='/static/experiments/beast_fmri_test/images/redD.png'></img>	go	1500.0	2.0	21.0	go	non-target	D	71,Index Finger	89,Middle Finger	850.0	1250.0	1900.0	1500.0	1.0	1250.0	1.0	n/a	go_stim
97984.770117399981	141.2298826	n/a	1464	89	2750	141.2298826	stim	stop-signal	438	1278615	0.0-19.21-1.21	beast_fmri_test	162	1276367,/,1277047,/,1277727,/,1278407,/	t,t,t,t	<img class = center src='/static/experiments/beast_fmri_test/images/D.png'></img>	71,89	2750.0	test	<img class = center src='/static/experiments/beast_fmri_test/images/redD.png'></img>	go	1500.0	2.0	21.0	go	non-target	D	71,Index Finger	89,Middle Finger	850.0	1250.0	1900.0	1500.0	1.0	1250.0	1.0	n/a	ITI
98781	500	n/a	-1	-1	500	0.0	fixation	poldrack-single-stim	439	1279270	0.0-19.22-0.22	beast_fmri_test	162	1279088,/	t	<div class = centerbox2><div class = fixation>+</div></div>	none	500.0	test	n/a	n/a	n/a	n/a	n/a	n/a	n/a	n/a	n/a	n/a	n/a	n/a	n/a	n/a	n/a	n/a	n/a	n/a	fixation
98603.756431699963	2750	n/a	1829	71	2750	179.2435683	stim	stop-signal	440	1282022	0.0-19.22-1.22	beast_fmri_test	162	1279768,/,1280448,/,1281128,/,1281808,/	t,t,t,t	<img class = center src='/static/experiments/beast_fmri_test/images/V.png'></img>	71,89	2750.0	test	<img class = center src='/static/experiments/beast_fmri_test/images/redV.png'></img>	go	1900.0	2.0	22.0	go	target	V	71,Index Finger	89,Middle Finger	850.0	1250.0	1900.0	1500.0	1.0	850.0	1.0	n/a	go_stim
101353.75643169996	179.24356830000002	n/a	1829	71	2750	179.2435683	stim	stop-signal	440	1282022	0.0-19.22-1.22	beast_fmri_test	162	1279768,/,1280448,/,1281128,/,1281808,/	t,t,t,t	<img class = center src='/static/experiments/beast_fmri_test/images/V.png'></img>	71,89	2750.0	test	<img class = center src='/static/experiments/beast_fmri_test/images/redV.png'></img>	go	1900.0	2.0	22.0	go	target	V	71,Index Finger	89,Middle Finger	850.0	1250.0	1900.0	1500.0	1.0	850.0	1.0	n/a	ITI
102229	500	n/a	-1	-1	500	0.0	fixation	poldrack-single-stim	441	1282718	0.0-19.23-0.23	beast_fmri_test	162	1282488,/	t	<div class = centerbox2><div class = fixation>+</div></div>	none	500.0	test	n/a	n/a	n/a	n/a	n/a	n/a	n/a	n/a	n/a	n/a	n/a	n/a	n/a	n/a	n/a	n/a	n/a	n/a	fixation
102069.75958690001	850.0	n/a	-1	-1	2750	161.2404131	stim	stop-signal	442	1285470	0.0-19.23-1.23	beast_fmri_test	162	1283168,/,1283848,/,1284528,/,1285208,/	t,t,t,t	<img class = center src='/static/experiments/beast_fmri_test/images/D.png'></img>	71,89	2750.0	test	<img class = center src='/static/experiments/beast_fmri_test/images/redD.png'></img>	stop	1900.0	2.0	23.0	stop	target	D	71,Index Finger	89,Middle Finger	850.0	1250.0	1900.0	1500.0	0.0	850.0	n/a	1.0	go_stim
103969.75958690001	1900.0	n/a	-1	-1	2750	161.2404131	stim	stop-signal	442	1285470	0.0-19.23-1.23	beast_fmri_test	162	1283168,/,1283848,/,1284528,/,1285208,/	t,t,t,t	<img class = center src='/static/experiments/beast_fmri_test/images/D.png'></img>	71,89	2750.0	test	<img class = center src='/static/experiments/beast_fmri_test/images/redD.png'></img>	stop	1900.0	2.0	23.0	stop	target	D	71,Index Finger	89,Middle Finger	850.0	1250.0	1900.0	1500.0	0.0	850.0	n/a	1.0	stop_stim
104819.75958690001	161.24041310000001	n/a	-1	-1	2750	161.2404131	stim	stop-signal	442	1285470	0.0-19.23-1.23	beast_fmri_test	162	1283168,/,1283848,/,1284528,/,1285208,/	t,t,t,t	<img class = center src='/static/experiments/beast_fmri_test/images/D.png'></img>	71,89	2750.0	test	<img class = center src='/static/experiments/beast_fmri_test/images/redD.png'></img>	stop	1900.0	2.0	23.0	stop	target	D	71,Index Finger	89,Middle Finger	850.0	1250.0	1900.0	1500.0	0.0	850.0	n/a	1.0	ITI
105656	500	n/a	-1	-1	500	0.0	fixation	poldrack-single-stim	443	1286145	0.0-19.24-0.24	beast_fmri_test	162	1285888,/	t	<div class = centerbox2><div class = fixation>+</div></div>	none	500.0	test	n/a	n/a	n/a	n/a	n/a	n/a	n/a	n/a	n/a	n/a	n/a	n/a	n/a	n/a	n/a	n/a	n/a	n/a	fixation
103984.26233200007	1250.0	n/a	1389	89	2750	1672.737668	stim	stop-signal	444	1288896	0.0-19.24-1.24	beast_fmri_test	162	1286568,/,1287248,/,1287927,/,1288608,/,1289287,/,1289968,/	t,t,t,t,t,t	<img class = center src='/static/experiments/beast_fmri_test/images/P.png'></img>	71,89	2750.0	test	<img class = center src='/static/experiments/beast_fmri_test/images/redP.png'></img>	stop	1500.0	2.0	24.0	stop	non-target	P	71,Index Finger	89,Middle Finger	900.0	1250.0	1900.0	1500.0	0.0	1250.0	n/a	0.0	go_stim
105484.26233200007	1500.0	n/a	1389	89	2750	1672.737668	stim	stop-signal	444	1288896	0.0-19.24-1.24	beast_fmri_test	162	1286568,/,1287248,/,1287927,/,1288608,/,1289287,/,1289968,/	t,t,t,t,t,t	<img class = center src='/static/experiments/beast_fmri_test/images/P.png'></img>	71,89	2750.0	test	<img class = center src='/static/experiments/beast_fmri_test/images/redP.png'></img>	stop	1500.0	2.0	24.0	stop	non-target	P	71,Index Finger	89,Middle Finger	900.0	1250.0	1900.0	1500.0	0.0	1250.0	n/a	0.0	stop_stim
106734.26233200007	1672.737668	n/a	1389	89	2750	1672.737668	stim	stop-signal	444	1288896	0.0-19.24-1.24	beast_fmri_test	162	1286568,/,1287248,/,1287927,/,1288608,/,1289287,/,1289968,/	t,t,t,t,t,t	<img class = center src='/static/experiments/beast_fmri_test/images/P.png'></img>	71,89	2750.0	test	<img class = center src='/static/experiments/beast_fmri_test/images/redP.png'></img>	stop	1500.0	2.0	24.0	stop	non-target	P	71,Index Finger	89,Middle Finger	900.0	1250.0	1900.0	1500.0	0.0	1250.0	n/a	0.0	ITI
110594	500	n/a	-1	-1	500	0.0	fixation	poldrack-single-stim	445	1291083	0.0-19.25-0.25	beast_fmri_test	162	1290647,/	t	<div class = centerbox2><div class = fixation>+</div></div>	none	500.0	test	n/a	n/a	n/a	n/a	n/a	n/a	n/a	n/a	n/a	n/a	n/a	n/a	n/a	n/a	n/a	n/a	n/a	n/a	fixation
109261.794123	2750	n/a	1513	89	2750	1333.205877	stim	stop-signal	446	1293834	0.0-19.25-1.25	beast_fmri_test	162	1291328,/,1292008,/,1292688,/,1293367,/,1294048,/,1294728,/	t,t,t,t,t,t	<img class = center src='/static/experiments/beast_fmri_test/images/P.png'></img>	71,89	2750.0	test	<img class = center src='/static/experiments/beast_fmri_test/images/redP.png'></img>	go	1550.0	2.0	25.0	go	non-target	P	71,Index Finger	89,Middle Finger	900.0	1200.0	1900.0	1550.0	1.0	1200.0	1.0	n/a	go_stim
112011.794123	1333.2058769999999	n/a	1513	89	2750	1333.205877	stim	stop-signal	446	1293834	0.0-19.25-1.25	beast_fmri_test	162	1291328,/,1292008,/,1292688,/,1293367,/,1294048,/,1294728,/	t,t,t,t,t,t	<img class = center src='/static/experiments/beast_fmri_test/images/P.png'></img>	71,89	2750.0	test	<img class = center src='/static/experiments/beast_fmri_test/images/redP.png'></img>	go	1550.0	2.0	25.0	go	non-target	P	71,Index Finger	89,Middle Finger	900.0	1200.0	1900.0	1550.0	1.0	1200.0	1.0	n/a	ITI
115196	500	n/a	-1	-1	500	0.0	fixation	poldrack-single-stim	447	1295685	0.0-19.26-0.26	beast_fmri_test	162	1295411,/	t	<div class = centerbox2><div class = fixation>+</div></div>	none	500.0	test	n/a	n/a	n/a	n/a	n/a	n/a	n/a	n/a	n/a	n/a	n/a	n/a	n/a	n/a	n/a	n/a	n/a	n/a	fixation
112351.5929990001	2750	n/a	1187	89	2750	2846.407001	stim	stop-signal	448	1298437	0.0-19.26-1.26	beast_fmri_test	162	1296087,/,1296768,/,1297447,/,1298128,/,1298807,/,1299488,/,1300168,/,1300847,/	t,t,t,t,t,t,t,t	<img class = center src='/static/experiments/beast_fmri_test/images/V.png'></img>	71,89	2750.0	test	<img class = center src='/static/experiments/beast_fmri_test/images/redV.png'></img>	go	1550.0	2.0	26.0	go	non-target	V	71,Index Finger	89,Middle Finger	900.0	1200.0	1900.0	1550.0	1.0	1200.0	1.0	n/a	go_stim
115101.5929990001	2846.407001	n/a	1187	89	2750	2846.407001	stim	stop-signal	448	1298437	0.0-19.26-1.26	beast_fmri_test	162	1296087,/,1296768,/,1297447,/,1298128,/,1298807,/,1299488,/,1300168,/,1300847,/	t,t,t,t,t,t,t,t	<img class = center src='/static/experiments/beast_fmri_test/images/V.png'></img>	71,89	2750.0	test	<img class = center src='/static/experiments/beast_fmri_test/images/redV.png'></img>	go	1550.0	2.0	26.0	go	non-target	V	71,Index Finger	89,Middle Finger	900.0	1200.0	1900.0	1550.0	1.0	1200.0	1.0	n/a	ITI
121310	500	n/a	-1	-1	500	0.0	fixation	poldrack-single-stim	449	1301799	0.0-19.27-0.27	beast_fmri_test	162	1301527,/	t	<div class = centerbox2><div class = fixation>+</div></div>	none	500.0	test	n/a	n/a	n/a	n/a	n/a	n/a	n/a	n/a	n/a	n/a	n/a	n/a	n/a	n/a	n/a	n/a	n/a	n/a	fixation
120722.02517140005	2750	n/a	1323	89	2750	588.9748286	stim	stop-signal	450	1304550	0.0-19.27-1.27	beast_fmri_test	162	1302208,/,1302887,/,1303567,/,1304247,/,1304927,/	t,t,t,t,t	<img class = center src='/static/experiments/beast_fmri_test/images/B.png'></img>	71,89	2750.0	test	<img class = center src='/static/experiments/beast_fmri_test/images/redB.png'></img>	go	1550.0	2.0	27.0	go	non-target	B	71,Index Finger	89,Middle Finger	900.0	1200.0	1900.0	1550.0	1.0	1200.0	1.0	n/a	go_stim
123472.02517140005	588.97482860000002	n/a	1323	89	2750	588.9748286	stim	stop-signal	450	1304550	0.0-19.27-1.27	beast_fmri_test	162	1302208,/,1302887,/,1303567,/,1304247,/,1304927,/	t,t,t,t,t	<img class = center src='/static/experiments/beast_fmri_test/images/B.png'></img>	71,89	2750.0	test	<img class = center src='/static/experiments/beast_fmri_test/images/redB.png'></img>	go	1550.0	2.0	27.0	go	non-target	B	71,Index Finger	89,Middle Finger	900.0	1200.0	1900.0	1550.0	1.0	1200.0	1.0	n/a	ITI
125165	500	n/a	-1	-1	500	0.0	fixation	poldrack-single-stim	451	1305654	0.0-19.28-0.28	beast_fmri_test	162	1305607,/	t	<div class = centerbox2><div class = fixation>+</div></div>	none	500.0	test	n/a	n/a	n/a	n/a	n/a	n/a	n/a	n/a	n/a	n/a	n/a	n/a	n/a	n/a	n/a	n/a	n/a	n/a	fixation
123732.40583100007	2750	n/a	1747	89	2750	1433.594169	stim	stop-signal	452	1308405	0.0-19.28-1.28	beast_fmri_test	162	1306287,/,1306967,/,1307647,/,1308327,/,1309007,/,1309687,/	t,t,t,t,t,t	<img class = center src='/static/experiments/beast_fmri_test/images/T.png'></img>	71,89	2750.0	test	<img class = center src='/static/experiments/beast_fmri_test/images/redT.png'></img>	go	1550.0	2.0	28.0	go	non-target	T	71,Index Finger	89,Middle Finger	900.0	1200.0	1900.0	1550.0	1.0	1200.0	1.0	n/a	go_stim
126482.40583100007	1433.594169	n/a	1747	89	2750	1433.594169	stim	stop-signal	452	1308405	0.0-19.28-1.28	beast_fmri_test	162	1306287,/,1306967,/,1307647,/,1308327,/,1309007,/,1309687,/	t,t,t,t,t,t	<img class = center src='/static/experiments/beast_fmri_test/images/T.png'></img>	71,89	2750.0	test	<img class = center src='/static/experiments/beast_fmri_test/images/redT.png'></img>	go	1550.0	2.0	28.0	go	non-target	T	71,Index Finger	89,Middle Finger	900.0	1200.0	1900.0	1550.0	1.0	1200.0	1.0	n/a	ITI
129864	500	n/a	-1	-1	500	0.0	fixation	poldrack-single-stim	453	1310353	0.0-19.29-0.29	beast_fmri_test	162	n/a	n/a	<div class = centerbox2><div class = fixation>+</div></div>	none	500.0	test	n/a	n/a	n/a	n/a	n/a	n/a	n/a	n/a	n/a	n/a	n/a	n/a	n/a	n/a	n/a	n/a	n/a	n/a	fixation
127447.2903179999	2750	n/a	1610	89	2750	2418.709682	stim	stop-signal	454	1313105	0.0-19.29-1.29	beast_fmri_test	162	1310369,/,1311048,/,1311728,/,1312408,/,1313088,/,1313768,/,1314448,/,1315128,/	t,t,t,t,t,t,t,t	<img class = center src='/static/experiments/beast_fmri_test/images/T.png'></img>	71,89	2750.0	test	<img class = center src='/static/experiments/beast_fmri_test/images/redT.png'></img>	go	1550.0	2.0	29.0	go	non-target	T	71,Index Finger	89,Middle Finger	900.0	1200.0	1900.0	1550.0	1.0	1200.0	1.0	n/a	go_stim
130197.2903179999	2418.7096820000002	n/a	1610	89	2750	2418.709682	stim	stop-signal	454	1313105	0.0-19.29-1.29	beast_fmri_test	162	1310369,/,1311048,/,1311728,/,1312408,/,1313088,/,1313768,/,1314448,/,1315128,/	t,t,t,t,t,t,t,t	<img class = center src='/static/experiments/beast_fmri_test/images/T.png'></img>	71,89	2750.0	test	<img class = center src='/static/experiments/beast_fmri_test/images/redT.png'></img>	go	1550.0	2.0	29.0	go	non-target	T	71,Index Finger	89,Middle Finger	900.0	1200.0	1900.0	1550.0	1.0	1200.0	1.0	n/a	ITI
135549	500	n/a	-1	-1	500	0.0	fixation	poldrack-single-stim	455	1316038	0.0-19.30-0.30	beast_fmri_test	162	1315808,/	t	<div class = centerbox2><div class = fixation>+</div></div>	none	500.0	test	n/a	n/a	n/a	n/a	n/a	n/a	n/a	n/a	n/a	n/a	n/a	n/a	n/a	n/a	n/a	n/a	n/a	n/a	fixation
135540.09636775008	2750	n/a	1235	89	2750	10.90363225	stim	stop-signal	456	1318790	0.0-19.30-1.30	beast_fmri_test	162	1316488,/,1317168,/,1317848,/,1318528,/	t,t,t,t	<img class = center src='/static/experiments/beast_fmri_test/images/V.png'></img>	71,89	2750.0	test	<img class = center src='/static/experiments/beast_fmri_test/images/redV.png'></img>	go	1550.0	2.0	30.0	go	non-target	V	71,Index Finger	89,Middle Finger	900.0	1200.0	1900.0	1550.0	1.0	1200.0	1.0	n/a	go_stim
138290.09636775008	10.903632249999999	n/a	1235	89	2750	10.90363225	stim	stop-signal	456	1318790	0.0-19.30-1.30	beast_fmri_test	162	1316488,/,1317168,/,1317848,/,1318528,/	t,t,t,t	<img class = center src='/static/experiments/beast_fmri_test/images/V.png'></img>	71,89	2750.0	test	<img class = center src='/static/experiments/beast_fmri_test/images/redV.png'></img>	go	1550.0	2.0	30.0	go	non-target	V	71,Index Finger	89,Middle Finger	900.0	1200.0	1900.0	1550.0	1.0	1200.0	1.0	n/a	ITI
138826	500	n/a	-1	-1	500	0.0	fixation	poldrack-single-stim	457	1319315	0.0-19.31-0.31	beast_fmri_test	162	1319208,/	t	<div class = centerbox2><div class = fixation>+</div></div>	none	500.0	test	n/a	n/a	n/a	n/a	n/a	n/a	n/a	n/a	n/a	n/a	n/a	n/a	n/a	n/a	n/a	n/a	n/a	n/a	fixation
133828.0	2750	n/a	2060	89	2750	5000.0	stim	stop-signal	458	1322067	0.0-19.31-1.31	beast_fmri_test	162	1319888,/,1320568,/,1321248,/,1321928,/,1322608,/,1323287,/,1323968,/,1324647,/,1325328,/,1326007,/,1326688,/	t,t,t,t,t,t,t,t,t,t,t	<img class = center src='/static/experiments/beast_fmri_test/images/B.png'></img>	71,89	2750.0	test	<img class = center src='/static/experiments/beast_fmri_test/images/redB.png'></img>	go	1550.0	2.0	31.0	go	non-target	B	71,Index Finger	89,Middle Finger	900.0	1200.0	1900.0	1550.0	1.0	1200.0	1.0	n/a	go_stim
136578.0	5000.0	n/a	2060	89	2750	5000.0	stim	stop-signal	458	1322067	0.0-19.31-1.31	beast_fmri_test	162	1319888,/,1320568,/,1321248,/,1321928,/,1322608,/,1323287,/,1323968,/,1324647,/,1325328,/,1326007,/,1326688,/	t,t,t,t,t,t,t,t,t,t,t	<img class = center src='/static/experiments/beast_fmri_test/images/B.png'></img>	71,89	2750.0	test	<img class = center src='/static/experiments/beast_fmri_test/images/redB.png'></img>	go	1550.0	2.0	31.0	go	non-target	B	71,Index Finger	89,Middle Finger	900.0	1200.0	1900.0	1550.0	1.0	1200.0	1.0	n/a	ITI
147093	500	n/a	-1	-1	500	0.0	fixation	poldrack-single-stim	459	1327582	0.0-19.32-0.32	beast_fmri_test	162	1327368,/	t	<div class = centerbox2><div class = fixation>+</div></div>	none	500.0	test	n/a	n/a	n/a	n/a	n/a	n/a	n/a	n/a	n/a	n/a	n/a	n/a	n/a	n/a	n/a	n/a	n/a	n/a	fixation
143115.16774499998	2750	n/a	974	89	2750	3979.832255	stim	stop-signal	460	1330334	0.0-19.32-1.32	beast_fmri_test	162	1328048,/,1328727,/,1329408,/,1330087,/,1330768,/,1331447,/,1332128,/,1332807,/,1333487,/,1334167,/	t,t,t,t,t,t,t,t,t,t	<img class = center src='/static/experiments/beast_fmri_test/images/T.png'></img>	71,89	2750.0	test	<img class = center src='/static/experiments/beast_fmri_test/images/redT.png'></img>	go	1550.0	2.0	32.0	go	non-target	T	71,Index Finger	89,Middle Finger	900.0	1200.0	1900.0	1550.0	1.0	1200.0	1.0	n/a	go_stim
145865.16774499998	3979.8322549999998	n/a	974	89	2750	3979.832255	stim	stop-signal	460	1330334	0.0-19.32-1.32	beast_fmri_test	162	1328048,/,1328727,/,1329408,/,1330087,/,1330768,/,1331447,/,1332128,/,1332807,/,1333487,/,1334167,/	t,t,t,t,t,t,t,t,t,t	<img class = center src='/static/experiments/beast_fmri_test/images/T.png'></img>	71,89	2750.0	test	<img class = center src='/static/experiments/beast_fmri_test/images/redT.png'></img>	go	1550.0	2.0	32.0	go	non-target	T	71,Index Finger	89,Middle Finger	900.0	1200.0	1900.0	1550.0	1.0	1200.0	1.0	n/a	ITI
154343	500	n/a	-1	-1	500	0.0	fixation	poldrack-single-stim	461	1334832	0.0-19.33-0.33	beast_fmri_test	162	n/a	n/a	<div class = centerbox2><div class = fixation>+</div></div>	none	500.0	test	n/a	n/a	n/a	n/a	n/a	n/a	n/a	n/a	n/a	n/a	n/a	n/a	n/a	n/a	n/a	n/a	n/a	n/a	fixation
153438.93673039996	1200.0	n/a	952	89	2750	906.0632696	stim	stop-signal	462	1337584	0.0-19.33-1.33	beast_fmri_test	162	1334847,/,1335527,/,1336207,/,1336887,/,1337567,/,1338247,/	t,t,t,t,t,t	<img class = center src='/static/experiments/beast_fmri_test/images/D.png'></img>	71,89	2750.0	test	<img class = center src='/static/experiments/beast_fmri_test/images/redD.png'></img>	stop	1550.0	2.0	33.0	stop	non-target	D	71,Index Finger	89,Middle Finger	900.0	1200.0	1900.0	1550.0	0.0	1200.0	n/a	0.0	go_stim
154988.93673039996	1550.0	n/a	952	89	2750	906.0632696	stim	stop-signal	462	1337584	0.0-19.33-1.33	beast_fmri_test	162	1334847,/,1335527,/,1336207,/,1336887,/,1337567,/,1338247,/	t,t,t,t,t,t	<img class = center src='/static/experiments/beast_fmri_test/images/D.png'></img>	71,89	2750.0	test	<img class = center src='/static/experiments/beast_fmri_test/images/redD.png'></img>	stop	1550.0	2.0	33.0	stop	non-target	D	71,Index Finger	89,Middle Finger	900.0	1200.0	1900.0	1550.0	0.0	1200.0	n/a	0.0	stop_stim
156188.93673039996	906.06326960000001	n/a	952	89	2750	906.0632696	stim	stop-signal	462	1337584	0.0-19.33-1.33	beast_fmri_test	162	1334847,/,1335527,/,1336207,/,1336887,/,1337567,/,1338247,/	t,t,t,t,t,t	<img class = center src='/static/experiments/beast_fmri_test/images/D.png'></img>	71,89	2750.0	test	<img class = center src='/static/experiments/beast_fmri_test/images/redD.png'></img>	stop	1550.0	2.0	33.0	stop	non-target	D	71,Index Finger	89,Middle Finger	900.0	1200.0	1900.0	1550.0	0.0	1200.0	n/a	0.0	ITI
158518	500	n/a	-1	-1	500	0.0	fixation	poldrack-single-stim	463	1339007	0.0-19.34-0.34	beast_fmri_test	162	1338927,/	t	<div class = centerbox2><div class = fixation>+</div></div>	none	500.0	test	n/a	n/a	n/a	n/a	n/a	n/a	n/a	n/a	n/a	n/a	n/a	n/a	n/a	n/a	n/a	n/a	n/a	n/a	fixation
158190.26453189994	1150.0	n/a	1034	71	2750	329.7354681	stim	stop-signal	464	1341759	0.0-19.34-1.34	beast_fmri_test	162	1339607,/,1340287,/,1340968,/,1341647,/	t,t,t,t	<img class = center src='/static/experiments/beast_fmri_test/images/B.png'></img>	71,89	2750.0	test	<img class = center src='/static/experiments/beast_fmri_test/images/redB.png'></img>	stop	1600.0	2.0	34.0	stop	non-target	B	71,Index Finger	89,Middle Finger	900.0	1150.0	1900.0	1600.0	0.0	1150.0	n/a	0.0	go_stim
159790.26453189994	1600.0	n/a	1034	71	2750	329.7354681	stim	stop-signal	464	1341759	0.0-19.34-1.34	beast_fmri_test	162	1339607,/,1340287,/,1340968,/,1341647,/	t,t,t,t	<img class = center src='/static/experiments/beast_fmri_test/images/B.png'></img>	71,89	2750.0	test	<img class = center src='/static/experiments/beast_fmri_test/images/redB.png'></img>	stop	1600.0	2.0	34.0	stop	non-target	B	71,Index Finger	89,Middle Finger	900.0	1150.0	1900.0	1600.0	0.0	1150.0	n/a	0.0	stop_stim
160940.26453189994	329.73546810000005	n/a	1034	71	2750	329.7354681	stim	stop-signal	464	1341759	0.0-19.34-1.34	beast_fmri_test	162	1339607,/,1340287,/,1340968,/,1341647,/	t,t,t,t	<img class = center src='/static/experiments/beast_fmri_test/images/B.png'></img>	71,89	2750.0	test	<img class = center src='/static/experiments/beast_fmri_test/images/redB.png'></img>	stop	1600.0	2.0	34.0	stop	non-target	B	71,Index Finger	89,Middle Finger	900.0	1150.0	1900.0	1600.0	0.0	1150.0	n/a	0.0	ITI
162114	500	n/a	-1	-1	500	0.0	fixation	poldrack-single-stim	465	1342603	0.0-19.35-0.35	beast_fmri_test	162	1342328,/	t	<div class = centerbox2><div class = fixation>+</div></div>	none	500.0	test	n/a	n/a	n/a	n/a	n/a	n/a	n/a	n/a	n/a	n/a	n/a	n/a	n/a	n/a	n/a	n/a	n/a	n/a	fixation
160230.1671180001	900.0	n/a	-1	-1	2750	1885.832882	stim	stop-signal	466	1345355	0.0-19.35-1.35	beast_fmri_test	162	1343008,/,1343688,/,1344368,/,1345048,/,1345728,/,1346408,/,1347087,/	t,t,t,t,t,t,t	<img class = center src='/static/experiments/beast_fmri_test/images/D.png'></img>	71,89	2750.0	test	<img class = center src='/static/experiments/beast_fmri_test/images/redD.png'></img>	stop	1850.0	2.0	35.0	stop	target	D	71,Index Finger	89,Middle Finger	900.0	1100.0	1850.0	1600.0	0.0	900.0	n/a	1.0	go_stim
162080.1671180001	1850.0	n/a	-1	-1	2750	1885.832882	stim	stop-signal	466	1345355	0.0-19.35-1.35	beast_fmri_test	162	1343008,/,1343688,/,1344368,/,1345048,/,1345728,/,1346408,/,1347087,/	t,t,t,t,t,t,t	<img class = center src='/static/experiments/beast_fmri_test/images/D.png'></img>	71,89	2750.0	test	<img class = center src='/static/experiments/beast_fmri_test/images/redD.png'></img>	stop	1850.0	2.0	35.0	stop	target	D	71,Index Finger	89,Middle Finger	900.0	1100.0	1850.0	1600.0	0.0	900.0	n/a	1.0	stop_stim
162980.1671180001	1885.8328819999999	n/a	-1	-1	2750	1885.832882	stim	stop-signal	466	1345355	0.0-19.35-1.35	beast_fmri_test	162	1343008,/,1343688,/,1344368,/,1345048,/,1345728,/,1346408,/,1347087,/	t,t,t,t,t,t,t	<img class = center src='/static/experiments/beast_fmri_test/images/D.png'></img>	71,89	2750.0	test	<img class = center src='/static/experiments/beast_fmri_test/images/redD.png'></img>	stop	1850.0	2.0	35.0	stop	target	D	71,Index Finger	89,Middle Finger	900.0	1100.0	1850.0	1600.0	0.0	900.0	n/a	1.0	ITI
167268	500	n/a	-1	-1	500	0.0	fixation	poldrack-single-stim	467	1347757	0.0-19.36-0.36	beast_fmri_test	162	n/a	n/a	<div class = centerbox2><div class = fixation>+</div></div>	none	500.0	test	n/a	n/a	n/a	n/a	n/a	n/a	n/a	n/a	n/a	n/a	n/a	n/a	n/a	n/a	n/a	n/a	n/a	n/a	fixation
165542.48742199992	2750	n/a	787	71	2750	1727.512578	stim	stop-signal	468	1350509	0.0-19.36-1.36	beast_fmri_test	162	1347767,/,1348448,/,1349128,/,1349808,/,1350488,/,1351168,/,1351848,/	t,t,t,t,t,t,t	<img class = center src='/static/experiments/beast_fmri_test/images/B.png'></img>	71,89	2750.0	test	<img class = center src='/static/experiments/beast_fmri_test/images/redB.png'></img>	go	1800.0	2.0	36.0	go	target	B	71,Index Finger	89,Middle Finger	950.0	1100.0	1800.0	1600.0	1.0	950.0	1.0	n/a	go_stim
168292.48742199992	1727.5125780000001	n/a	787	71	2750	1727.512578	stim	stop-signal	468	1350509	0.0-19.36-1.36	beast_fmri_test	162	1347767,/,1348448,/,1349128,/,1349808,/,1350488,/,1351168,/,1351848,/	t,t,t,t,t,t,t	<img class = center src='/static/experiments/beast_fmri_test/images/B.png'></img>	71,89	2750.0	test	<img class = center src='/static/experiments/beast_fmri_test/images/redB.png'></img>	go	1800.0	2.0	36.0	go	target	B	71,Index Finger	89,Middle Finger	950.0	1100.0	1800.0	1600.0	1.0	950.0	1.0	n/a	ITI
172264	500	n/a	-1	-1	500	0.0	fixation	poldrack-single-stim	469	1352753	0.0-19.37-0.37	beast_fmri_test	162	1352528,/	t	<div class = centerbox2><div class = fixation>+</div></div>	none	500.0	test	n/a	n/a	n/a	n/a	n/a	n/a	n/a	n/a	n/a	n/a	n/a	n/a	n/a	n/a	n/a	n/a	n/a	n/a	fixation
171817.95330430008	2750	n/a	1909	71	2750	447.0466957	stim	stop-signal	470	1355504	0.0-19.37-1.37	beast_fmri_test	162	1353208,/,1353888,/,1354567,/,1355248,/,1355927,/	t,t,t,t,t	<img class = center src='/static/experiments/beast_fmri_test/images/D.png'></img>	71,89	2750.0	test	<img class = center src='/static/experiments/beast_fmri_test/images/redD.png'></img>	go	1800.0	2.0	37.0	go	target	D	71,Index Finger	89,Middle Finger	950.0	1100.0	1800.0	1600.0	1.0	950.0	1.0	n/a	go_stim
174567.95330430008	447.04669569999993	n/a	1909	71	2750	447.0466957	stim	stop-signal	470	1355504	0.0-19.37-1.37	beast_fmri_test	162	1353208,/,1353888,/,1354567,/,1355248,/,1355927,/	t,t,t,t,t	<img class = center src='/static/experiments/beast_fmri_test/images/D.png'></img>	71,89	2750.0	test	<img class = center src='/static/experiments/beast_fmri_test/images/redD.png'></img>	go	1800.0	2.0	37.0	go	target	D	71,Index Finger	89,Middle Finger	950.0	1100.0	1800.0	1600.0	1.0	950.0	1.0	n/a	ITI
175978	500	n/a	-1	-1	500	0.0	fixation	poldrack-single-stim	471	1356467	0.0-19.38-0.38	beast_fmri_test	162	n/a	n/a	<div class = centerbox2><div class = fixation>+</div></div>	none	500.0	test	n/a	n/a	n/a	n/a	n/a	n/a	n/a	n/a	n/a	n/a	n/a	n/a	n/a	n/a	n/a	n/a	n/a	n/a	fixation
175684.65442169993	2750	n/a	1635	71	2750	295.3455783	stim	stop-signal	472	1359219	0.0-19.38-1.38	beast_fmri_test	162	1356608,/,1357288,/,1357968,/,1358648,/,1359327,/	t,t,t,t,t	<img class = center src='/static/experiments/beast_fmri_test/images/B.png'></img>	71,89	2750.0	test	<img class = center src='/static/experiments/beast_fmri_test/images/redB.png'></img>	go	1800.0	2.0	38.0	go	target	B	71,Index Finger	89,Middle Finger	950.0	1100.0	1800.0	1600.0	1.0	950.0	1.0	n/a	go_stim
178434.65442169993	295.34557830000006	n/a	1635	71	2750	295.3455783	stim	stop-signal	472	1359219	0.0-19.38-1.38	beast_fmri_test	162	1356608,/,1357288,/,1357968,/,1358648,/,1359327,/	t,t,t,t,t	<img class = center src='/static/experiments/beast_fmri_test/images/B.png'></img>	71,89	2750.0	test	<img class = center src='/static/experiments/beast_fmri_test/images/redB.png'></img>	go	1800.0	2.0	38.0	go	target	B	71,Index Finger	89,Middle Finger	950.0	1100.0	1800.0	1600.0	1.0	950.0	1.0	n/a	ITI
179537	500	n/a	-1	-1	500	0.0	fixation	poldrack-single-stim	473	1360026	0.0-19.39-0.39	beast_fmri_test	162	1360007,/	t	<div class = centerbox2><div class = fixation>+</div></div>	none	500.0	test	n/a	n/a	n/a	n/a	n/a	n/a	n/a	n/a	n/a	n/a	n/a	n/a	n/a	n/a	n/a	n/a	n/a	n/a	fixation
178293.99499400007	1100.0	n/a	1306	89	2750	1245.005006	stim	stop-signal	474	1362778	0.0-19.39-1.39	beast_fmri_test	162	1360688,/,1361367,/,1362048,/,1362728,/,1363408,/	t,t,t,t,t	<img class = center src='/static/experiments/beast_fmri_test/images/V.png'></img>	71,89	2750.0	test	<img class = center src='/static/experiments/beast_fmri_test/images/redV.png'></img>	stop	1650.0	2.0	39.0	stop	non-target	V	71,Index Finger	89,Middle Finger	950.0	1100.0	1800.0	1650.0	0.0	1100.0	n/a	0.0	go_stim
179943.99499400007	1650.0	n/a	1306	89	2750	1245.005006	stim	stop-signal	474	1362778	0.0-19.39-1.39	beast_fmri_test	162	1360688,/,1361367,/,1362048,/,1362728,/,1363408,/	t,t,t,t,t	<img class = center src='/static/experiments/beast_fmri_test/images/V.png'></img>	71,89	2750.0	test	<img class = center src='/static/experiments/beast_fmri_test/images/redV.png'></img>	stop	1650.0	2.0	39.0	stop	non-target	V	71,Index Finger	89,Middle Finger	950.0	1100.0	1800.0	1650.0	0.0	1100.0	n/a	0.0	stop_stim
181043.99499400007	1245.0050060000001	n/a	1306	89	2750	1245.005006	stim	stop-signal	474	1362778	0.0-19.39-1.39	beast_fmri_test	162	1360688,/,1361367,/,1362048,/,1362728,/,1363408,/	t,t,t,t,t	<img class = center src='/static/experiments/beast_fmri_test/images/V.png'></img>	71,89	2750.0	test	<img class = center src='/static/experiments/beast_fmri_test/images/redV.png'></img>	stop	1650.0	2.0	39.0	stop	non-target	V	71,Index Finger	89,Middle Finger	950.0	1100.0	1800.0	1650.0	0.0	1100.0	n/a	0.0	ITI
184054	500	n/a	-1	-1	500	0.0	fixation	poldrack-single-stim	475	1364543	0.0-19.40-0.40	beast_fmri_test	162	1364087,/	t	<div class = centerbox2><div class = fixation>+</div></div>	none	500.0	test	n/a	n/a	n/a	n/a	n/a	n/a	n/a	n/a	n/a	n/a	n/a	n/a	n/a	n/a	n/a	n/a	n/a	n/a	fixation
182967.33426699997	2750	n/a	2587	89	2750	1088.665733	stim	stop-signal	476	1367295	0.0-19.40-1.40	beast_fmri_test	162	1364768,/,1365447,/,1366128,/,1366807,/,1367487,/,1368167,/	t,t,t,t,t,t	<img class = center src='/static/experiments/beast_fmri_test/images/V.png'></img>	71,89	2750.0	test	<img class = center src='/static/experiments/beast_fmri_test/images/redV.png'></img>	go	1700.0	2.0	40.0	go	non-target	V	71,Index Finger	89,Middle Finger	950.0	1050.0	1800.0	1700.0	1.0	1050.0	1.0	n/a	go_stim
185717.33426699997	1088.665733	n/a	2587	89	2750	1088.665733	stim	stop-signal	476	1367295	0.0-19.40-1.40	beast_fmri_test	162	1364768,/,1365447,/,1366128,/,1366807,/,1367487,/,1368167,/	t,t,t,t,t,t	<img class = center src='/static/experiments/beast_fmri_test/images/V.png'></img>	71,89	2750.0	test	<img class = center src='/static/experiments/beast_fmri_test/images/redV.png'></img>	go	1700.0	2.0	40.0	go	non-target	V	71,Index Finger	89,Middle Finger	950.0	1050.0	1800.0	1700.0	1.0	1050.0	1.0	n/a	ITI
188411	500	n/a	-1	-1	500	0.0	fixation	poldrack-single-stim	477	1368900	0.0-19.41-0.41	beast_fmri_test	162	1368847,/	t	<div class = centerbox2><div class = fixation>+</div></div>	none	500.0	test	n/a	n/a	n/a	n/a	n/a	n/a	n/a	n/a	n/a	n/a	n/a	n/a	n/a	n/a	n/a	n/a	n/a	n/a	fixation
188393.24001394003	2750	n/a	1441	89	2750	19.75998606	stim	stop-signal	478	1371652	0.0-19.41-1.41	beast_fmri_test	162	1369527,/,1370207,/,1370887,/,1371568,/	t,t,t,t	<img class = center src='/static/experiments/beast_fmri_test/images/D.png'></img>	71,89	2750.0	test	<img class = center src='/static/experiments/beast_fmri_test/images/redD.png'></img>	go	1700.0	2.0	41.0	go	non-target	D	71,Index Finger	89,Middle Finger	950.0	1050.0	1800.0	1700.0	1.0	1050.0	1.0	n/a	go_stim
191143.24001394003	19.759986059999999	n/a	1441	89	2750	19.75998606	stim	stop-signal	478	1371652	0.0-19.41-1.41	beast_fmri_test	162	1369527,/,1370207,/,1370887,/,1371568,/	t,t,t,t	<img class = center src='/static/experiments/beast_fmri_test/images/D.png'></img>	71,89	2750.0	test	<img class = center src='/static/experiments/beast_fmri_test/images/redD.png'></img>	go	1700.0	2.0	41.0	go	non-target	D	71,Index Finger	89,Middle Finger	950.0	1050.0	1800.0	1700.0	1.0	1050.0	1.0	n/a	ITI
191697	500	n/a	-1	-1	500	0.0	fixation	poldrack-single-stim	479	1372186	0.0-19.42-0.42	beast_fmri_test	162	n/a	n/a	<div class = centerbox2><div class = fixation>+</div></div>	none	500.0	test	n/a	n/a	n/a	n/a	n/a	n/a	n/a	n/a	n/a	n/a	n/a	n/a	n/a	n/a	n/a	n/a	n/a	n/a	fixation
191509.36892049992	2750	n/a	1896	71	2750	189.6310795	stim	stop-signal	480	1374938	0.0-19.42-1.42	beast_fmri_test	162	1372247,/,1372927,/,1373607,/,1374288,/,1374967,/	t,t,t,t,t	<img class = center src='/static/experiments/beast_fmri_test/images/V.png'></img>	71,89	2750.0	test	<img class = center src='/static/experiments/beast_fmri_test/images/redV.png'></img>	go	1800.0	2.0	42.0	go	target	V	71,Index Finger	89,Middle Finger	950.0	1050.0	1800.0	1700.0	1.0	950.0	1.0	n/a	go_stim
194259.36892049992	189.6310795	n/a	1896	71	2750	189.6310795	stim	stop-signal	480	1374938	0.0-19.42-1.42	beast_fmri_test	162	1372247,/,1372927,/,1373607,/,1374288,/,1374967,/	t,t,t,t,t	<img class = center src='/static/experiments/beast_fmri_test/images/V.png'></img>	71,89	2750.0	test	<img class = center src='/static/experiments/beast_fmri_test/images/redV.png'></img>	go	1800.0	2.0	42.0	go	target	V	71,Index Finger	89,Middle Finger	950.0	1050.0	1800.0	1700.0	1.0	950.0	1.0	n/a	ITI
195156	500	n/a	-1	-1	500	0.0	fixation	poldrack-single-stim	481	1375645	0.0-19.43-0.43	beast_fmri_test	162	n/a	n/a	<div class = centerbox2><div class = fixation>+</div></div>	none	500.0	test	n/a	n/a	n/a	n/a	n/a	n/a	n/a	n/a	n/a	n/a	n/a	n/a	n/a	n/a	n/a	n/a	n/a	n/a	fixation
192579.84407999995	2750	n/a	1050	89	2750	2579.15592	stim	stop-signal	482	1378398	0.0-19.43-1.43	beast_fmri_test	162	1375648,/,1376328,/,1377008,/,1377688,/,1378368,/,1379048,/,1379728,/,1380408,/	t,t,t,t,t,t,t,t	<img class = center src='/static/experiments/beast_fmri_test/images/P.png'></img>	71,89	2750.0	test	<img class = center src='/static/experiments/beast_fmri_test/images/redP.png'></img>	go	1700.0	2.0	43.0	go	non-target	P	71,Index Finger	89,Middle Finger	950.0	1050.0	1800.0	1700.0	1.0	1050.0	1.0	n/a	go_stim
195329.84407999995	2579.1559200000002	n/a	1050	89	2750	2579.15592	stim	stop-signal	482	1378398	0.0-19.43-1.43	beast_fmri_test	162	1375648,/,1376328,/,1377008,/,1377688,/,1378368,/,1379048,/,1379728,/,1380408,/	t,t,t,t,t,t,t,t	<img class = center src='/static/experiments/beast_fmri_test/images/P.png'></img>	71,89	2750.0	test	<img class = center src='/static/experiments/beast_fmri_test/images/redP.png'></img>	go	1700.0	2.0	43.0	go	non-target	P	71,Index Finger	89,Middle Finger	950.0	1050.0	1800.0	1700.0	1.0	1050.0	1.0	n/a	ITI
201005	500	n/a	-1	-1	500	0.0	fixation	poldrack-single-stim	483	1381494	0.0-19.44-0.44	beast_fmri_test	162	1381088,/	t	<div class = centerbox2><div class = fixation>+</div></div>	none	500.0	test	n/a	n/a	n/a	n/a	n/a	n/a	n/a	n/a	n/a	n/a	n/a	n/a	n/a	n/a	n/a	n/a	n/a	n/a	fixation
200573.28666680004	1050.0	n/a	971	89	2750	433.7133332	stim	stop-signal	484	1384246	0.0-19.44-1.44	beast_fmri_test	162	1381769,/,1382448,/,1383128,/,1383808,/,1384488,/	t,t,t,t,t	<img class = center src='/static/experiments/beast_fmri_test/images/D.png'></img>	71,89	2750.0	test	<img class = center src='/static/experiments/beast_fmri_test/images/redD.png'></img>	stop	1700.0	2.0	44.0	stop	non-target	D	71,Index Finger	89,Middle Finger	950.0	1050.0	1800.0	1700.0	0.0	1050.0	n/a	0.0	go_stim
202273.28666680004	1700.0	n/a	971	89	2750	433.7133332	stim	stop-signal	484	1384246	0.0-19.44-1.44	beast_fmri_test	162	1381769,/,1382448,/,1383128,/,1383808,/,1384488,/	t,t,t,t,t	<img class = center src='/static/experiments/beast_fmri_test/images/D.png'></img>	71,89	2750.0	test	<img class = center src='/static/experiments/beast_fmri_test/images/redD.png'></img>	stop	1700.0	2.0	44.0	stop	non-target	D	71,Index Finger	89,Middle Finger	950.0	1050.0	1800.0	1700.0	0.0	1050.0	n/a	0.0	stop_stim
203323.28666680004	433.71333319999997	n/a	971	89	2750	433.7133332	stim	stop-signal	484	1384246	0.0-19.44-1.44	beast_fmri_test	162	1381769,/,1382448,/,1383128,/,1383808,/,1384488,/	t,t,t,t,t	<img class = center src='/static/experiments/beast_fmri_test/images/D.png'></img>	71,89	2750.0	test	<img class = center src='/static/experiments/beast_fmri_test/images/redD.png'></img>	stop	1700.0	2.0	44.0	stop	non-target	D	71,Index Finger	89,Middle Finger	950.0	1050.0	1800.0	1700.0	0.0	1050.0	n/a	0.0	ITI
204710	500	n/a	-1	-1	500	0.0	fixation	poldrack-single-stim	485	1385199	0.0-19.45-0.45	beast_fmri_test	162	1385168,/	t	<div class = centerbox2><div class = fixation>+</div></div>	none	500.0	test	n/a	n/a	n/a	n/a	n/a	n/a	n/a	n/a	n/a	n/a	n/a	n/a	n/a	n/a	n/a	n/a	n/a	n/a	fixation
204167.60042340006	2750	n/a	1338	89	2750	544.3995766	stim	stop-signal	486	1387951	0.0-19.45-1.45	beast_fmri_test	162	1385848,/,1386528,/,1387208,/,1387888,/	t,t,t,t	<img class = center src='/static/experiments/beast_fmri_test/images/T.png'></img>	71,89	2750.0	test	<img class = center src='/static/experiments/beast_fmri_test/images/redT.png'></img>	go	1750.0	2.0	45.0	go	non-target	T	71,Index Finger	89,Middle Finger	950.0	1000.0	1800.0	1750.0	1.0	1000.0	1.0	n/a	go_stim
206917.60042340006	544.39957659999993	n/a	1338	89	2750	544.3995766	stim	stop-signal	486	1387951	0.0-19.45-1.45	beast_fmri_test	162	1385848,/,1386528,/,1387208,/,1387888,/	t,t,t,t	<img class = center src='/static/experiments/beast_fmri_test/images/T.png'></img>	71,89	2750.0	test	<img class = center src='/static/experiments/beast_fmri_test/images/redT.png'></img>	go	1750.0	2.0	45.0	go	non-target	T	71,Index Finger	89,Middle Finger	950.0	1000.0	1800.0	1750.0	1.0	1000.0	1.0	n/a	ITI
208523	500	n/a	-1	-1	500	0.0	fixation	poldrack-single-stim	487	1389012	0.0-19.46-0.46	beast_fmri_test	162	1388568,/	t	<div class = centerbox2><div class = fixation>+</div></div>	none	500.0	test	n/a	n/a	n/a	n/a	n/a	n/a	n/a	n/a	n/a	n/a	n/a	n/a	n/a	n/a	n/a	n/a	n/a	n/a	fixation
205440.54446	2750	n/a	1226	89	2750	3084.45554	stim	stop-signal	488	1391764	0.0-19.46-1.46	beast_fmri_test	162	1389248,/,1389928,/,1390607,/,1391287,/,1391968,/,1392648,/,1393327,/,1394008,/,1394687,/	t,t,t,t,t,t,t,t,t	<img class = center src='/static/experiments/beast_fmri_test/images/B.png'></img>	71,89	2750.0	test	<img class = center src='/static/experiments/beast_fmri_test/images/redB.png'></img>	go	1750.0	2.0	46.0	go	non-target	B	71,Index Finger	89,Middle Finger	950.0	1000.0	1800.0	1750.0	1.0	1000.0	1.0	n/a	go_stim
208190.54446	3084.4555399999999	n/a	1226	89	2750	3084.45554	stim	stop-signal	488	1391764	0.0-19.46-1.46	beast_fmri_test	162	1389248,/,1389928,/,1390607,/,1391287,/,1391968,/,1392648,/,1393327,/,1394008,/,1394687,/	t,t,t,t,t,t,t,t,t	<img class = center src='/static/experiments/beast_fmri_test/images/B.png'></img>	71,89	2750.0	test	<img class = center src='/static/experiments/beast_fmri_test/images/redB.png'></img>	go	1750.0	2.0	46.0	go	non-target	B	71,Index Finger	89,Middle Finger	950.0	1000.0	1800.0	1750.0	1.0	1000.0	1.0	n/a	ITI
229376	15000	n/a	-1	-1	15000	0.0	practice-no-stop-feedback	poldrack-single-stim	489	1409865	0.0-20.0	beast_fmri_test	162	1395368,/,1396047,/,1396728,/,1397407,/,1398088,/,1398767,/,1399448,/,1400127,/,1400807,/,1401487,/,1402168,/,1402847,/,1403527,/,1404207,/,1404887,/,1405567,/,1406247,/,1406927,/,1407608,/,1408288,/,1408968,/,1409648,/	t,t,t,t,t,t,t,t,t,t,t,t,t,t,t,t,t,t,t,t,t,t	"<div class = ""centerbox2_2""><p class = ""block-text2"">Your delay is 3 trials.</p><p class = block-text2>Please wait for the scanner to start the block</p></div>"	77	15000.0	n/a	n/a	n/a	n/a	n/a	n/a	n/a	n/a	n/a	n/a	n/a	n/a	n/a	n/a	n/a	n/a	n/a	n/a	n/a	practice-no-stop-feedback
229878	500	n/a	-1	-1	500	0.0	fixation	poldrack-single-stim	490	1410367	0.0-21.0-0.0	beast_fmri_test	162	1410328,/	t	<div class = centerbox2><div class = fixation>+</div></div>	none	500.0	test	n/a	n/a	n/a	n/a	n/a	n/a	n/a	n/a	n/a	n/a	n/a	n/a	n/a	n/a	n/a	n/a	n/a	n/a	fixation
228098.68511800002	2750	n/a	770	89	2750	1780.314882	stim	stop-signal	491	1413118	0.0-21.0-1.0	beast_fmri_test	162	1411008,/,1411688,/,1412369,/,1413048,/,1413728,/,1414408,/	t,t,t,t,t,t	<img class = center src='/static/experiments/beast_fmri_test/images/D.png'></img>	71,89	2750.0	test	<img class = center src='/static/experiments/beast_fmri_test/images/redD.png'></img>	go	-1.0	3.0	0.0	go	temp-non-target	D	71,Index Finger	89,Middle Finger	950.0	1000.0	1800.0	1750.0	0.0	n/a	n/a	n/a	go_stim
230848.68511800002	1780.3148820000001	n/a	770	89	2750	1780.314882	stim	stop-signal	491	1413118	0.0-21.0-1.0	beast_fmri_test	162	1411008,/,1411688,/,1412369,/,1413048,/,1413728,/,1414408,/	t,t,t,t,t,t	<img class = center src='/static/experiments/beast_fmri_test/images/D.png'></img>	71,89	2750.0	test	<img class = center src='/static/experiments/beast_fmri_test/images/redD.png'></img>	go	-1.0	3.0	0.0	go	temp-non-target	D	71,Index Finger	89,Middle Finger	950.0	1000.0	1800.0	1750.0	0.0	n/a	n/a	n/a	ITI
234925	500	n/a	-1	-1	500	0.0	fixation	poldrack-single-stim	492	1415414	0.0-21.1-0.1	beast_fmri_test	162	1415088,/	t	<div class = centerbox2><div class = fixation>+</div></div>	none	500.0	test	n/a	n/a	n/a	n/a	n/a	n/a	n/a	n/a	n/a	n/a	n/a	n/a	n/a	n/a	n/a	n/a	n/a	n/a	fixation
231679.66619800008	2750	n/a	816	89	2750	3247.333802	stim	stop-signal	493	1418166	0.0-21.1-1.1	beast_fmri_test	162	1415768,/,1416447,/,1417128,/,1417808,/,1418488,/,1419167,/,1419848,/,1420527,/,1421208,/	t,t,t,t,t,t,t,t,t	<img class = center src='/static/experiments/beast_fmri_test/images/D.png'></img>	71,89	2750.0	test	<img class = center src='/static/experiments/beast_fmri_test/images/redD.png'></img>	go	-1.0	3.0	1.0	go	temp-non-target	D	71,Index Finger	89,Middle Finger	950.0	1000.0	1800.0	1750.0	0.0	n/a	n/a	n/a	go_stim
234429.66619800008	3247.3338020000001	n/a	816	89	2750	3247.333802	stim	stop-signal	493	1418166	0.0-21.1-1.1	beast_fmri_test	162	1415768,/,1416447,/,1417128,/,1417808,/,1418488,/,1419167,/,1419848,/,1420527,/,1421208,/	t,t,t,t,t,t,t,t,t	<img class = center src='/static/experiments/beast_fmri_test/images/D.png'></img>	71,89	2750.0	test	<img class = center src='/static/experiments/beast_fmri_test/images/redD.png'></img>	go	-1.0	3.0	1.0	go	temp-non-target	D	71,Index Finger	89,Middle Finger	950.0	1000.0	1800.0	1750.0	0.0	n/a	n/a	n/a	ITI
241440	500	n/a	-1	-1	500	0.0	fixation	poldrack-single-stim	494	1421929	0.0-21.2-0.2	beast_fmri_test	162	1421888,/	t	<div class = centerbox2><div class = fixation>+</div></div>	none	500.0	test	n/a	n/a	n/a	n/a	n/a	n/a	n/a	n/a	n/a	n/a	n/a	n/a	n/a	n/a	n/a	n/a	n/a	n/a	fixation
240099.98138400004	2750	n/a	1060	89	2750	1342.018616	stim	stop-signal	495	1424681	0.0-21.2-1.2	beast_fmri_test	162	1422568,/,1423247,/,1423928,/,1424607,/,1425287,/,1425967,/	t,t,t,t,t,t	<img class = center src='/static/experiments/beast_fmri_test/images/V.png'></img>	71,89	2750.0	test	<img class = center src='/static/experiments/beast_fmri_test/images/redV.png'></img>	go	-1.0	3.0	2.0	go	temp-non-target	V	71,Index Finger	89,Middle Finger	950.0	1000.0	1800.0	1750.0	0.0	n/a	n/a	n/a	go_stim
242849.98138400004	1342.0186160000001	n/a	1060	89	2750	1342.018616	stim	stop-signal	495	1424681	0.0-21.2-1.2	beast_fmri_test	162	1422568,/,1423247,/,1423928,/,1424607,/,1425287,/,1425967,/	t,t,t,t,t,t	<img class = center src='/static/experiments/beast_fmri_test/images/V.png'></img>	71,89	2750.0	test	<img class = center src='/static/experiments/beast_fmri_test/images/redV.png'></img>	go	-1.0	3.0	2.0	go	temp-non-target	V	71,Index Finger	89,Middle Finger	950.0	1000.0	1800.0	1750.0	0.0	n/a	n/a	n/a	ITI
246054	500	n/a	-1	-1	500	0.0	fixation	poldrack-single-stim	496	1426543	0.0-21.3-0.3	beast_fmri_test	162	n/a	n/a	<div class = centerbox2><div class = fixation>+</div></div>	none	500.0	test	n/a	n/a	n/a	n/a	n/a	n/a	n/a	n/a	n/a	n/a	n/a	n/a	n/a	n/a	n/a	n/a	n/a	n/a	fixation
244206.20811500004	950.0	n/a	1012	71	2750	1849.791885	stim	stop-signal	497	1429295	0.0-21.3-1.3	beast_fmri_test	162	1426647,/,1427328,/,1428008,/,1428687,/,1429368,/,1430047,/,1430727,/	t,t,t,t,t,t,t	<img class = center src='/static/experiments/beast_fmri_test/images/D.png'></img>	71,89	2750.0	test	<img class = center src='/static/experiments/beast_fmri_test/images/redD.png'></img>	stop	1800.0	3.0	3.0	stop	target	D	71,Index Finger	89,Middle Finger	950.0	1000.0	1800.0	1750.0	0.0	950.0	n/a	0.0	go_stim
246006.20811500004	1800.0	n/a	1012	71	2750	1849.791885	stim	stop-signal	497	1429295	0.0-21.3-1.3	beast_fmri_test	162	1426647,/,1427328,/,1428008,/,1428687,/,1429368,/,1430047,/,1430727,/	t,t,t,t,t,t,t	<img class = center src='/static/experiments/beast_fmri_test/images/D.png'></img>	71,89	2750.0	test	<img class = center src='/static/experiments/beast_fmri_test/images/redD.png'></img>	stop	1800.0	3.0	3.0	stop	target	D	71,Index Finger	89,Middle Finger	950.0	1000.0	1800.0	1750.0	0.0	950.0	n/a	0.0	stop_stim
246956.20811500004	1849.7918850000001	n/a	1012	71	2750	1849.791885	stim	stop-signal	497	1429295	0.0-21.3-1.3	beast_fmri_test	162	1426647,/,1427328,/,1428008,/,1428687,/,1429368,/,1430047,/,1430727,/	t,t,t,t,t,t,t	<img class = center src='/static/experiments/beast_fmri_test/images/D.png'></img>	71,89	2750.0	test	<img class = center src='/static/experiments/beast_fmri_test/images/redD.png'></img>	stop	1800.0	3.0	3.0	stop	target	D	71,Index Finger	89,Middle Finger	950.0	1000.0	1800.0	1750.0	0.0	950.0	n/a	0.0	ITI
251170	500	n/a	-1	-1	500	0.0	fixation	poldrack-single-stim	498	1431659	0.0-21.4-0.4	beast_fmri_test	162	1431407,/	t	<div class = centerbox2><div class = fixation>+</div></div>	none	500.0	test	n/a	n/a	n/a	n/a	n/a	n/a	n/a	n/a	n/a	n/a	n/a	n/a	n/a	n/a	n/a	n/a	n/a	n/a	fixation
248677.08754199999	2750	n/a	917	89	2750	2494.912458	stim	stop-signal	499	1434411	0.0-21.4-1.4	beast_fmri_test	162	1432087,/,1432767,/,1433447,/,1434127,/,1434807,/,1435487,/,1436167,/,1436847,/	t,t,t,t,t,t,t,t	<img class = center src='/static/experiments/beast_fmri_test/images/T.png'></img>	71,89	2750.0	test	<img class = center src='/static/experiments/beast_fmri_test/images/redT.png'></img>	go	1750.0	3.0	4.0	go	non-target	T	71,Index Finger	89,Middle Finger	900.0	1000.0	1800.0	1750.0	1.0	1000.0	1.0	n/a	go_stim
251427.08754199999	2494.9124579999998	n/a	917	89	2750	2494.912458	stim	stop-signal	499	1434411	0.0-21.4-1.4	beast_fmri_test	162	1432087,/,1432767,/,1433447,/,1434127,/,1434807,/,1435487,/,1436167,/,1436847,/	t,t,t,t,t,t,t,t	<img class = center src='/static/experiments/beast_fmri_test/images/T.png'></img>	71,89	2750.0	test	<img class = center src='/static/experiments/beast_fmri_test/images/redT.png'></img>	go	1750.0	3.0	4.0	go	non-target	T	71,Index Finger	89,Middle Finger	900.0	1000.0	1800.0	1750.0	1.0	1000.0	1.0	n/a	ITI
256933	500	n/a	-1	-1	500	0.0	fixation	poldrack-single-stim	500	1437422	0.0-21.5-0.5	beast_fmri_test	162	n/a	n/a	<div class = centerbox2><div class = fixation>+</div></div>	none	500.0	test	n/a	n/a	n/a	n/a	n/a	n/a	n/a	n/a	n/a	n/a	n/a	n/a	n/a	n/a	n/a	n/a	n/a	n/a	fixation
255534.99193000002	2750	n/a	900	89	2750	1400.00807	stim	stop-signal	501	1440174	0.0-21.5-1.5	beast_fmri_test	162	1437527,/,1438207,/,1438887,/,1439567,/,1440248,/,1440928,/	t,t,t,t,t,t	<img class = center src='/static/experiments/beast_fmri_test/images/P.png'></img>	71,89	2750.0	test	<img class = center src='/static/experiments/beast_fmri_test/images/redP.png'></img>	go	1750.0	3.0	5.0	go	non-target	P	71,Index Finger	89,Middle Finger	900.0	1000.0	1800.0	1750.0	1.0	1000.0	1.0	n/a	go_stim
258284.99193000002	1400.0080699999999	n/a	900	89	2750	1400.00807	stim	stop-signal	501	1440174	0.0-21.5-1.5	beast_fmri_test	162	1437527,/,1438207,/,1438887,/,1439567,/,1440248,/,1440928,/	t,t,t,t,t,t	<img class = center src='/static/experiments/beast_fmri_test/images/P.png'></img>	71,89	2750.0	test	<img class = center src='/static/experiments/beast_fmri_test/images/redP.png'></img>	go	1750.0	3.0	5.0	go	non-target	P	71,Index Finger	89,Middle Finger	900.0	1000.0	1800.0	1750.0	1.0	1000.0	1.0	n/a	ITI
261599	500	n/a	-1	-1	500	0.0	fixation	poldrack-single-stim	502	1442088	0.0-21.6-0.6	beast_fmri_test	162	1441608,/	t	<div class = centerbox2><div class = fixation>+</div></div>	none	500.0	test	n/a	n/a	n/a	n/a	n/a	n/a	n/a	n/a	n/a	n/a	n/a	n/a	n/a	n/a	n/a	n/a	n/a	n/a	fixation
261196.93735100003	900.0	n/a	1015	71	2750	404.062649	stim	stop-signal	503	1444840	0.0-21.6-1.6	beast_fmri_test	162	1442288,/,1442969,/,1443648,/,1444328,/,1445008,/	t,t,t,t,t	<img class = center src='/static/experiments/beast_fmri_test/images/D.png'></img>	71,89	2750.0	test	<img class = center src='/static/experiments/beast_fmri_test/images/redD.png'></img>	stop	1850.0	3.0	6.0	stop	target	D	71,Index Finger	89,Middle Finger	900.0	1000.0	1850.0	1750.0	0.0	900.0	n/a	0.0	go_stim
263046.93735100003	1850.0	n/a	1015	71	2750	404.062649	stim	stop-signal	503	1444840	0.0-21.6-1.6	beast_fmri_test	162	1442288,/,1442969,/,1443648,/,1444328,/,1445008,/	t,t,t,t,t	<img class = center src='/static/experiments/beast_fmri_test/images/D.png'></img>	71,89	2750.0	test	<img class = center src='/static/experiments/beast_fmri_test/images/redD.png'></img>	stop	1850.0	3.0	6.0	stop	target	D	71,Index Finger	89,Middle Finger	900.0	1000.0	1850.0	1750.0	0.0	900.0	n/a	0.0	stop_stim
263946.93735100003	404.06264900000002	n/a	1015	71	2750	404.062649	stim	stop-signal	503	1444840	0.0-21.6-1.6	beast_fmri_test	162	1442288,/,1442969,/,1443648,/,1444328,/,1445008,/	t,t,t,t,t	<img class = center src='/static/experiments/beast_fmri_test/images/D.png'></img>	71,89	2750.0	test	<img class = center src='/static/experiments/beast_fmri_test/images/redD.png'></img>	stop	1850.0	3.0	6.0	stop	target	D	71,Index Finger	89,Middle Finger	900.0	1000.0	1850.0	1750.0	0.0	900.0	n/a	0.0	ITI
265269	500	n/a	-1	-1	500	0.0	fixation	poldrack-single-stim	504	1445758	0.0-21.7-0.7	beast_fmri_test	162	1445688,/	t	<div class = centerbox2><div class = fixation>+</div></div>	none	500.0	test	n/a	n/a	n/a	n/a	n/a	n/a	n/a	n/a	n/a	n/a	n/a	n/a	n/a	n/a	n/a	n/a	n/a	n/a	fixation
263785.20523900003	2750	n/a	1257	71	2750	1484.794761	stim	stop-signal	505	1448509	0.0-21.7-1.7	beast_fmri_test	162	1446368,/,1447048,/,1447728,/,1448408,/,1449088,/,1449768,/	t,t,t,t,t,t	<img class = center src='/static/experiments/beast_fmri_test/images/V.png'></img>	71,89	2750.0	test	<img class = center src='/static/experiments/beast_fmri_test/images/redV.png'></img>	go	1750.0	3.0	7.0	go	non-target	V	71,Index Finger	89,Middle Finger	850.0	1000.0	1850.0	1750.0	0.0	1000.0	0.0	n/a	go_stim
266535.20523900003	1484.7947609999999	n/a	1257	71	2750	1484.794761	stim	stop-signal	505	1448509	0.0-21.7-1.7	beast_fmri_test	162	1446368,/,1447048,/,1447728,/,1448408,/,1449088,/,1449768,/	t,t,t,t,t,t	<img class = center src='/static/experiments/beast_fmri_test/images/V.png'></img>	71,89	2750.0	test	<img class = center src='/static/experiments/beast_fmri_test/images/redV.png'></img>	go	1750.0	3.0	7.0	go	non-target	V	71,Index Finger	89,Middle Finger	850.0	1000.0	1850.0	1750.0	0.0	1000.0	0.0	n/a	ITI
270022	500	n/a	-1	-1	500	0.0	fixation	poldrack-single-stim	506	1450511	0.0-21.8-0.8	beast_fmri_test	162	1450448,/	t	<div class = centerbox2><div class = fixation>+</div></div>	none	500.0	test	n/a	n/a	n/a	n/a	n/a	n/a	n/a	n/a	n/a	n/a	n/a	n/a	n/a	n/a	n/a	n/a	n/a	n/a	fixation
269860.15918629989	2750	n/a	1348	71	2750	163.8408137	stim	stop-signal	507	1453263	0.0-21.8-1.8	beast_fmri_test	162	1451128,/,1451808,/,1452488,/,1453169,/	t,t,t,t	<img class = center src='/static/experiments/beast_fmri_test/images/V.png'></img>	71,89	2750.0	test	<img class = center src='/static/experiments/beast_fmri_test/images/redV.png'></img>	go	1750.0	3.0	8.0	go	non-target	V	71,Index Finger	89,Middle Finger	850.0	1000.0	1850.0	1750.0	0.0	1000.0	0.0	n/a	go_stim
272610.15918629989	163.84081369999998	n/a	1348	71	2750	163.8408137	stim	stop-signal	507	1453263	0.0-21.8-1.8	beast_fmri_test	162	1451128,/,1451808,/,1452488,/,1453169,/	t,t,t,t	<img class = center src='/static/experiments/beast_fmri_test/images/V.png'></img>	71,89	2750.0	test	<img class = center src='/static/experiments/beast_fmri_test/images/redV.png'></img>	go	1750.0	3.0	8.0	go	non-target	V	71,Index Finger	89,Middle Finger	850.0	1000.0	1850.0	1750.0	0.0	1000.0	0.0	n/a	ITI
273453	500	n/a	-1	-1	500	0.0	fixation	poldrack-single-stim	508	1453942	0.0-21.9-0.9	beast_fmri_test	162	1453848,/	t	<div class = centerbox2><div class = fixation>+</div></div>	none	500.0	test	n/a	n/a	n/a	n/a	n/a	n/a	n/a	n/a	n/a	n/a	n/a	n/a	n/a	n/a	n/a	n/a	n/a	n/a	fixation
272756.3861934999	2750	n/a	1511	89	2750	698.6138065	stim	stop-signal	509	1456694	0.0-21.9-1.9	beast_fmri_test	162	1454528,/,1455208,/,1455887,/,1456568,/,1457247,/	t,t,t,t,t	<img class = center src='/static/experiments/beast_fmri_test/images/D.png'></img>	71,89	2750.0	test	<img class = center src='/static/experiments/beast_fmri_test/images/redD.png'></img>	go	1900.0	3.0	9.0	go	target	D	71,Index Finger	89,Middle Finger	850.0	1000.0	1900.0	1750.0	0.0	850.0	0.0	n/a	go_stim
275506.3861934999	698.61380650000001	n/a	1511	89	2750	698.6138065	stim	stop-signal	509	1456694	0.0-21.9-1.9	beast_fmri_test	162	1454528,/,1455208,/,1455887,/,1456568,/,1457247,/	t,t,t,t,t	<img class = center src='/static/experiments/beast_fmri_test/images/D.png'></img>	71,89	2750.0	test	<img class = center src='/static/experiments/beast_fmri_test/images/redD.png'></img>	go	1900.0	3.0	9.0	go	target	D	71,Index Finger	89,Middle Finger	850.0	1000.0	1900.0	1750.0	0.0	850.0	0.0	n/a	ITI
277421	500	n/a	-1	-1	500	0.0	fixation	poldrack-single-stim	510	1457910	0.0-21.10-0.10	beast_fmri_test	162	n/a	n/a	<div class = centerbox2><div class = fixation>+</div></div>	none	500.0	test	n/a	n/a	n/a	n/a	n/a	n/a	n/a	n/a	n/a	n/a	n/a	n/a	n/a	n/a	n/a	n/a	n/a	n/a	fixation
277096.67775649996	2750	n/a	2058	71	2750	327.3222435	stim	stop-signal	511	1460663	0.0-21.10-1.10	beast_fmri_test	162	1457927,/,1458607,/,1459288,/,1459967,/,1460648,/	t,t,t,t,t	<img class = center src='/static/experiments/beast_fmri_test/images/V.png'></img>	71,89	2750.0	test	<img class = center src='/static/experiments/beast_fmri_test/images/redV.png'></img>	go	1900.0	3.0	10.0	go	target	V	71,Index Finger	89,Middle Finger	850.0	1000.0	1900.0	1750.0	1.0	850.0	1.0	n/a	go_stim
279846.67775649996	327.32224350000001	n/a	2058	71	2750	327.3222435	stim	stop-signal	511	1460663	0.0-21.10-1.10	beast_fmri_test	162	1457927,/,1458607,/,1459288,/,1459967,/,1460648,/	t,t,t,t,t	<img class = center src='/static/experiments/beast_fmri_test/images/V.png'></img>	71,89	2750.0	test	<img class = center src='/static/experiments/beast_fmri_test/images/redV.png'></img>	go	1900.0	3.0	10.0	go	target	V	71,Index Finger	89,Middle Finger	850.0	1000.0	1900.0	1750.0	1.0	850.0	1.0	n/a	ITI
281018	500	n/a	-1	-1	500	0.0	fixation	poldrack-single-stim	512	1461507	0.0-21.11-0.11	beast_fmri_test	162	1461327,/	t	<div class = centerbox2><div class = fixation>+</div></div>	none	500.0	test	n/a	n/a	n/a	n/a	n/a	n/a	n/a	n/a	n/a	n/a	n/a	n/a	n/a	n/a	n/a	n/a	n/a	n/a	fixation
278844.59739900008	2750	n/a	1743	71	2750	2174.402601	stim	stop-signal	513	1464258	0.0-21.11-1.11	beast_fmri_test	162	1462007,/,1462687,/,1463367,/,1464047,/,1464727,/,1465407,/,1466087,/	t,t,t,t,t,t,t	<img class = center src='/static/experiments/beast_fmri_test/images/T.png'></img>	71,89	2750.0	test	<img class = center src='/static/experiments/beast_fmri_test/images/redT.png'></img>	go	1750.0	3.0	11.0	go	non-target	T	71,Index Finger	89,Middle Finger	850.0	1000.0	1900.0	1750.0	0.0	1000.0	0.0	n/a	go_stim
281594.59739900008	2174.4026010000002	n/a	1743	71	2750	2174.402601	stim	stop-signal	513	1464258	0.0-21.11-1.11	beast_fmri_test	162	1462007,/,1462687,/,1463367,/,1464047,/,1464727,/,1465407,/,1466087,/	t,t,t,t,t,t,t	<img class = center src='/static/experiments/beast_fmri_test/images/T.png'></img>	71,89	2750.0	test	<img class = center src='/static/experiments/beast_fmri_test/images/redT.png'></img>	go	1750.0	3.0	11.0	go	non-target	T	71,Index Finger	89,Middle Finger	850.0	1000.0	1900.0	1750.0	0.0	1000.0	0.0	n/a	ITI
286460	500	n/a	-1	-1	500	0.0	fixation	poldrack-single-stim	514	1466949	0.0-21.12-0.12	beast_fmri_test	162	1466767,/	t	<div class = centerbox2><div class = fixation>+</div></div>	none	500.0	test	n/a	n/a	n/a	n/a	n/a	n/a	n/a	n/a	n/a	n/a	n/a	n/a	n/a	n/a	n/a	n/a	n/a	n/a	fixation
286295.55842350004	2750	n/a	1465	71	2750	167.4415765	stim	stop-signal	515	1469702	0.0-21.12-1.12	beast_fmri_test	162	1467447,/,1468127,/,1468807,/,1469487,/	t,t,t,t	<img class = center src='/static/experiments/beast_fmri_test/images/B.png'></img>	71,89	2750.0	test	<img class = center src='/static/experiments/beast_fmri_test/images/redB.png'></img>	go	1750.0	3.0	12.0	go	non-target	B	71,Index Finger	89,Middle Finger	850.0	1000.0	1900.0	1750.0	0.0	1000.0	0.0	n/a	go_stim
289045.55842350004	167.4415765	n/a	1465	71	2750	167.4415765	stim	stop-signal	515	1469702	0.0-21.12-1.12	beast_fmri_test	162	1467447,/,1468127,/,1468807,/,1469487,/	t,t,t,t	<img class = center src='/static/experiments/beast_fmri_test/images/B.png'></img>	71,89	2750.0	test	<img class = center src='/static/experiments/beast_fmri_test/images/redB.png'></img>	go	1750.0	3.0	12.0	go	non-target	B	71,Index Finger	89,Middle Finger	850.0	1000.0	1900.0	1750.0	0.0	1000.0	0.0	n/a	ITI
289897	500	n/a	-1	-1	500	0.0	fixation	poldrack-single-stim	516	1470386	0.0-21.13-0.13	beast_fmri_test	162	1470168,/	t	<div class = centerbox2><div class = fixation>+</div></div>	none	500.0	test	n/a	n/a	n/a	n/a	n/a	n/a	n/a	n/a	n/a	n/a	n/a	n/a	n/a	n/a	n/a	n/a	n/a	n/a	fixation
288558.42390100006	2750	n/a	1157	71	2750	1340.576099	stim	stop-signal	517	1473138	0.0-21.13-1.13	beast_fmri_test	162	1470847,/,1471528,/,1472208,/,1472888,/,1473569,/,1474248,/	t,t,t,t,t,t	<img class = center src='/static/experiments/beast_fmri_test/images/V.png'></img>	71,89	2750.0	test	<img class = center src='/static/experiments/beast_fmri_test/images/redV.png'></img>	go	1900.0	3.0	13.0	go	target	V	71,Index Finger	89,Middle Finger	850.0	1000.0	1900.0	1750.0	1.0	850.0	1.0	n/a	go_stim
291308.42390100006	1340.5760990000001	n/a	1157	71	2750	1340.576099	stim	stop-signal	517	1473138	0.0-21.13-1.13	beast_fmri_test	162	1470847,/,1471528,/,1472208,/,1472888,/,1473569,/,1474248,/	t,t,t,t,t,t	<img class = center src='/static/experiments/beast_fmri_test/images/V.png'></img>	71,89	2750.0	test	<img class = center src='/static/experiments/beast_fmri_test/images/redV.png'></img>	go	1900.0	3.0	13.0	go	target	V	71,Index Finger	89,Middle Finger	850.0	1000.0	1900.0	1750.0	1.0	850.0	1.0	n/a	ITI
294507	500	n/a	-1	-1	500	0.0	fixation	poldrack-single-stim	518	1474996	0.0-21.14-0.14	beast_fmri_test	162	1474928,/	t	<div class = centerbox2><div class = fixation>+</div></div>	none	500.0	test	n/a	n/a	n/a	n/a	n/a	n/a	n/a	n/a	n/a	n/a	n/a	n/a	n/a	n/a	n/a	n/a	n/a	n/a	fixation
292705.78285100008	850.0	n/a	-1	-1	2750	1803.217149	stim	stop-signal	519	1477748	0.0-21.14-1.14	beast_fmri_test	162	1475608,/,1476288,/,1476968,/,1477648,/,1478328,/,1479007,/	t,t,t,t,t,t	<img class = center src='/static/experiments/beast_fmri_test/images/T.png'></img>	71,89	2750.0	test	<img class = center src='/static/experiments/beast_fmri_test/images/redT.png'></img>	stop	1900.0	3.0	14.0	stop	target	T	71,Index Finger	89,Middle Finger	850.0	1000.0	1900.0	1750.0	0.0	850.0	n/a	1.0	go_stim
294605.78285100008	1900.0	n/a	-1	-1	2750	1803.217149	stim	stop-signal	519	1477748	0.0-21.14-1.14	beast_fmri_test	162	1475608,/,1476288,/,1476968,/,1477648,/,1478328,/,1479007,/	t,t,t,t,t,t	<img class = center src='/static/experiments/beast_fmri_test/images/T.png'></img>	71,89	2750.0	test	<img class = center src='/static/experiments/beast_fmri_test/images/redT.png'></img>	stop	1900.0	3.0	14.0	stop	target	T	71,Index Finger	89,Middle Finger	850.0	1000.0	1900.0	1750.0	0.0	850.0	n/a	1.0	stop_stim
295455.78285100008	1803.2171489999998	n/a	-1	-1	2750	1803.217149	stim	stop-signal	519	1477748	0.0-21.14-1.14	beast_fmri_test	162	1475608,/,1476288,/,1476968,/,1477648,/,1478328,/,1479007,/	t,t,t,t,t,t	<img class = center src='/static/experiments/beast_fmri_test/images/T.png'></img>	71,89	2750.0	test	<img class = center src='/static/experiments/beast_fmri_test/images/redT.png'></img>	stop	1900.0	3.0	14.0	stop	target	T	71,Index Finger	89,Middle Finger	850.0	1000.0	1900.0	1750.0	0.0	850.0	n/a	1.0	ITI
299581	500	n/a	-1	-1	500	0.0	fixation	poldrack-single-stim	520	1480070	0.0-21.15-0.15	beast_fmri_test	162	1479688,/	t	<div class = centerbox2><div class = fixation>+</div></div>	none	500.0	test	n/a	n/a	n/a	n/a	n/a	n/a	n/a	n/a	n/a	n/a	n/a	n/a	n/a	n/a	n/a	n/a	n/a	n/a	fixation
299331.44957439997	2750	n/a	1223	89	2750	251.5504256	stim	stop-signal	521	1482822	0.0-21.15-1.15	beast_fmri_test	162	1480368,/,1481048,/,1481728,/,1482408,/	t,t,t,t	<img class = center src='/static/experiments/beast_fmri_test/images/V.png'></img>	71,89	2750.0	test	<img class = center src='/static/experiments/beast_fmri_test/images/redV.png'></img>	go	1750.0	3.0	15.0	go	non-target	V	71,Index Finger	89,Middle Finger	900.0	1000.0	1900.0	1750.0	1.0	1000.0	1.0	n/a	go_stim
302081.44957439997	251.55042560000001	n/a	1223	89	2750	251.5504256	stim	stop-signal	521	1482822	0.0-21.15-1.15	beast_fmri_test	162	1480368,/,1481048,/,1481728,/,1482408,/	t,t,t,t	<img class = center src='/static/experiments/beast_fmri_test/images/V.png'></img>	71,89	2750.0	test	<img class = center src='/static/experiments/beast_fmri_test/images/redV.png'></img>	go	1750.0	3.0	15.0	go	non-target	V	71,Index Finger	89,Middle Finger	900.0	1000.0	1900.0	1750.0	1.0	1000.0	1.0	n/a	ITI
303099	500	n/a	-1	-1	500	0.0	fixation	poldrack-single-stim	522	1483588	0.0-21.16-0.16	beast_fmri_test	162	1483087,/	t	<div class = centerbox2><div class = fixation>+</div></div>	none	500.0	test	n/a	n/a	n/a	n/a	n/a	n/a	n/a	n/a	n/a	n/a	n/a	n/a	n/a	n/a	n/a	n/a	n/a	n/a	fixation
302623.87820130005	1000.0	n/a	-1	-1	2750	477.1217987	stim	stop-signal	523	1486340	0.0-21.16-1.16	beast_fmri_test	162	1483768,/,1484448,/,1485129,/,1485808,/,1486488,/	t,t,t,t,t	<img class = center src='/static/experiments/beast_fmri_test/images/T.png'></img>	71,89	2750.0	test	<img class = center src='/static/experiments/beast_fmri_test/images/redT.png'></img>	stop	1750.0	3.0	16.0	stop	non-target	T	71,Index Finger	89,Middle Finger	900.0	1000.0	1900.0	1750.0	0.0	1000.0	n/a	1.0	go_stim
304373.87820130005	1750.0	n/a	-1	-1	2750	477.1217987	stim	stop-signal	523	1486340	0.0-21.16-1.16	beast_fmri_test	162	1483768,/,1484448,/,1485129,/,1485808,/,1486488,/	t,t,t,t,t	<img class = center src='/static/experiments/beast_fmri_test/images/T.png'></img>	71,89	2750.0	test	<img class = center src='/static/experiments/beast_fmri_test/images/redT.png'></img>	stop	1750.0	3.0	16.0	stop	non-target	T	71,Index Finger	89,Middle Finger	900.0	1000.0	1900.0	1750.0	0.0	1000.0	n/a	1.0	stop_stim
305373.87820130005	477.1217987	n/a	-1	-1	2750	477.1217987	stim	stop-signal	523	1486340	0.0-21.16-1.16	beast_fmri_test	162	1483768,/,1484448,/,1485129,/,1485808,/,1486488,/	t,t,t,t,t	<img class = center src='/static/experiments/beast_fmri_test/images/T.png'></img>	71,89	2750.0	test	<img class = center src='/static/experiments/beast_fmri_test/images/redT.png'></img>	stop	1750.0	3.0	16.0	stop	non-target	T	71,Index Finger	89,Middle Finger	900.0	1000.0	1900.0	1750.0	0.0	1000.0	n/a	1.0	ITI
306845	500	n/a	-1	-1	500	0.0	fixation	poldrack-single-stim	524	1487334	0.0-21.17-0.17	beast_fmri_test	162	1487168,/	t	<div class = centerbox2><div class = fixation>+</div></div>	none	500.0	test	n/a	n/a	n/a	n/a	n/a	n/a	n/a	n/a	n/a	n/a	n/a	n/a	n/a	n/a	n/a	n/a	n/a	n/a	fixation
304643.10508199991	1050.0	n/a	-1	-1	2750	2203.894918	stim	stop-signal	525	1490086	0.0-21.17-1.17	beast_fmri_test	162	1487848,/,1488527,/,1489207,/,1489888,/,1490568,/,1491247,/,1491928,/	t,t,t,t,t,t,t	<img class = center src='/static/experiments/beast_fmri_test/images/B.png'></img>	71,89	2750.0	test	<img class = center src='/static/experiments/beast_fmri_test/images/redB.png'></img>	stop	1700.0	3.0	17.0	stop	non-target	B	71,Index Finger	89,Middle Finger	900.0	1050.0	1900.0	1700.0	0.0	1050.0	n/a	1.0	go_stim
306343.10508199991	1700.0	n/a	-1	-1	2750	2203.894918	stim	stop-signal	525	1490086	0.0-21.17-1.17	beast_fmri_test	162	1487848,/,1488527,/,1489207,/,1489888,/,1490568,/,1491247,/,1491928,/	t,t,t,t,t,t,t	<img class = center src='/static/experiments/beast_fmri_test/images/B.png'></img>	71,89	2750.0	test	<img class = center src='/static/experiments/beast_fmri_test/images/redB.png'></img>	stop	1700.0	3.0	17.0	stop	non-target	B	71,Index Finger	89,Middle Finger	900.0	1050.0	1900.0	1700.0	0.0	1050.0	n/a	1.0	stop_stim
307393.10508199991	2203.894918	n/a	-1	-1	2750	2203.894918	stim	stop-signal	525	1490086	0.0-21.17-1.17	beast_fmri_test	162	1487848,/,1488527,/,1489207,/,1489888,/,1490568,/,1491247,/,1491928,/	t,t,t,t,t,t,t	<img class = center src='/static/experiments/beast_fmri_test/images/B.png'></img>	71,89	2750.0	test	<img class = center src='/static/experiments/beast_fmri_test/images/redB.png'></img>	stop	1700.0	3.0	17.0	stop	non-target	B	71,Index Finger	89,Middle Finger	900.0	1050.0	1900.0	1700.0	0.0	1050.0	n/a	1.0	ITI
312317	500	n/a	-1	-1	500	0.0	fixation	poldrack-single-stim	526	1492806	0.0-21.18-0.18	beast_fmri_test	162	1492607,/	t	<div class = centerbox2><div class = fixation>+</div></div>	none	500.0	test	n/a	n/a	n/a	n/a	n/a	n/a	n/a	n/a	n/a	n/a	n/a	n/a	n/a	n/a	n/a	n/a	n/a	n/a	fixation
312170.6659907999	2750	n/a	1209	89	2750	148.3340092	stim	stop-signal	527	1495558	0.0-21.18-1.18	beast_fmri_test	162	1493288,/,1493969,/,1494647,/,1495328,/	t,t,t,t	<img class = center src='/static/experiments/beast_fmri_test/images/P.png'></img>	71,89	2750.0	test	<img class = center src='/static/experiments/beast_fmri_test/images/redP.png'></img>	go	1650.0	3.0	18.0	go	non-target	P	71,Index Finger	89,Middle Finger	900.0	1100.0	1900.0	1650.0	1.0	1100.0	1.0	n/a	go_stim
314920.6659907999	148.3340092	n/a	1209	89	2750	148.3340092	stim	stop-signal	527	1495558	0.0-21.18-1.18	beast_fmri_test	162	1493288,/,1493969,/,1494647,/,1495328,/	t,t,t,t	<img class = center src='/static/experiments/beast_fmri_test/images/P.png'></img>	71,89	2750.0	test	<img class = center src='/static/experiments/beast_fmri_test/images/redP.png'></img>	go	1650.0	3.0	18.0	go	non-target	P	71,Index Finger	89,Middle Finger	900.0	1100.0	1900.0	1650.0	1.0	1100.0	1.0	n/a	ITI
315734	500	n/a	-1	-1	500	0.0	fixation	poldrack-single-stim	528	1496223	0.0-21.19-0.19	beast_fmri_test	162	1496007,/	t	<div class = centerbox2><div class = fixation>+</div></div>	none	500.0	test	n/a	n/a	n/a	n/a	n/a	n/a	n/a	n/a	n/a	n/a	n/a	n/a	n/a	n/a	n/a	n/a	n/a	n/a	fixation
313052.36719999998	2750	n/a	1171	71	2750	2683.6328	stim	stop-signal	529	1498975	0.0-21.19-1.19	beast_fmri_test	162	1496688,/,1497367,/,1498047,/,1498727,/,1499407,/,1500087,/,1500767,/,1501447,/	t,t,t,t,t,t,t,t	<img class = center src='/static/experiments/beast_fmri_test/images/T.png'></img>	71,89	2750.0	test	<img class = center src='/static/experiments/beast_fmri_test/images/redT.png'></img>	go	1850.0	3.0	19.0	go	target	T	71,Index Finger	89,Middle Finger	900.0	1100.0	1850.0	1650.0	1.0	900.0	1.0	n/a	go_stim
315802.36719999998	2683.6327999999999	n/a	1171	71	2750	2683.6328	stim	stop-signal	529	1498975	0.0-21.19-1.19	beast_fmri_test	162	1496688,/,1497367,/,1498047,/,1498727,/,1499407,/,1500087,/,1500767,/,1501447,/	t,t,t,t,t,t,t,t	<img class = center src='/static/experiments/beast_fmri_test/images/T.png'></img>	71,89	2750.0	test	<img class = center src='/static/experiments/beast_fmri_test/images/redT.png'></img>	go	1850.0	3.0	19.0	go	target	T	71,Index Finger	89,Middle Finger	900.0	1100.0	1850.0	1650.0	1.0	900.0	1.0	n/a	ITI
321687	500	n/a	-1	-1	500	0.0	fixation	poldrack-single-stim	530	1502176	0.0-21.20-0.20	beast_fmri_test	162	1502127,/	t	<div class = centerbox2><div class = fixation>+</div></div>	none	500.0	test	n/a	n/a	n/a	n/a	n/a	n/a	n/a	n/a	n/a	n/a	n/a	n/a	n/a	n/a	n/a	n/a	n/a	n/a	fixation
321036.75033170008	1100.0	n/a	1122	89	2750	653.2496683	stim	stop-signal	531	1504929	0.0-21.20-1.20	beast_fmri_test	162	1502807,/,1503487,/,1504168,/,1504848,/,1505528,/	t,t,t,t,t	<img class = center src='/static/experiments/beast_fmri_test/images/T.png'></img>	71,89	2750.0	test	<img class = center src='/static/experiments/beast_fmri_test/images/redT.png'></img>	stop	1650.0	3.0	20.0	stop	non-target	T	71,Index Finger	89,Middle Finger	900.0	1100.0	1850.0	1650.0	0.0	1100.0	n/a	0.0	go_stim
322686.75033170008	1650.0	n/a	1122	89	2750	653.2496683	stim	stop-signal	531	1504929	0.0-21.20-1.20	beast_fmri_test	162	1502807,/,1503487,/,1504168,/,1504848,/,1505528,/	t,t,t,t,t	<img class = center src='/static/experiments/beast_fmri_test/images/T.png'></img>	71,89	2750.0	test	<img class = center src='/static/experiments/beast_fmri_test/images/redT.png'></img>	stop	1650.0	3.0	20.0	stop	non-target	T	71,Index Finger	89,Middle Finger	900.0	1100.0	1850.0	1650.0	0.0	1100.0	n/a	0.0	stop_stim
323786.75033170008	653.24966829999994	n/a	1122	89	2750	653.2496683	stim	stop-signal	531	1504929	0.0-21.20-1.20	beast_fmri_test	162	1502807,/,1503487,/,1504168,/,1504848,/,1505528,/	t,t,t,t,t	<img class = center src='/static/experiments/beast_fmri_test/images/T.png'></img>	71,89	2750.0	test	<img class = center src='/static/experiments/beast_fmri_test/images/redT.png'></img>	stop	1650.0	3.0	20.0	stop	non-target	T	71,Index Finger	89,Middle Finger	900.0	1100.0	1850.0	1650.0	0.0	1100.0	n/a	0.0	ITI
325610	500	n/a	-1	-1	500	0.0	fixation	poldrack-single-stim	532	1506099	0.0-21.21-0.21	beast_fmri_test	162	n/a	n/a	<div class = centerbox2><div class = fixation>+</div></div>	none	500.0	test	n/a	n/a	n/a	n/a	n/a	n/a	n/a	n/a	n/a	n/a	n/a	n/a	n/a	n/a	n/a	n/a	n/a	n/a	fixation
324796.56076969998	1050.0	n/a	-1	-1	2750	815.4392303	stim	stop-signal	533	1508851	0.0-21.21-1.21	beast_fmri_test	162	1506208,/,1506888,/,1507568,/,1508248,/,1508928,/,1509608,/	t,t,t,t,t,t	<img class = center src='/static/experiments/beast_fmri_test/images/V.png'></img>	71,89	2750.0	test	<img class = center src='/static/experiments/beast_fmri_test/images/redV.png'></img>	stop	1700.0	3.0	21.0	stop	non-target	V	71,Index Finger	89,Middle Finger	900.0	1050.0	1850.0	1700.0	0.0	1050.0	n/a	1.0	go_stim
326496.56076969998	1700.0	n/a	-1	-1	2750	815.4392303	stim	stop-signal	533	1508851	0.0-21.21-1.21	beast_fmri_test	162	1506208,/,1506888,/,1507568,/,1508248,/,1508928,/,1509608,/	t,t,t,t,t,t	<img class = center src='/static/experiments/beast_fmri_test/images/V.png'></img>	71,89	2750.0	test	<img class = center src='/static/experiments/beast_fmri_test/images/redV.png'></img>	stop	1700.0	3.0	21.0	stop	non-target	V	71,Index Finger	89,Middle Finger	900.0	1050.0	1850.0	1700.0	0.0	1050.0	n/a	1.0	stop_stim
