onset	duration	text	rt	key_press	block_duration	timing_post_trial	trial_id	trial_type	trial_index	time_elapsed	internal_node_id	exp_id	subject_id	trigger_times	triggers	stimulus	possible_responses	stim_duration	exp_stage	SS_stimulus	SS_trial_type	SS_duration	load	trial_num	stop_trial_type	adaptive_trial_type	stim	yes_response_key	no_response_key	SSD_target	SSD_non_target	SSTarget	SSNonTarget	go_acc	SS_delay	stop_acc	adaptive_acc	new_trial_type
test	10880	n/a	-1	-1	10880	0.0	practice-no-stop-feedback	poldrack-single-stim	578	1623426	0.0-24.0	beast_fmri_test	356	1612550,/,1613228,/,1613907,/,1614587,/,1615267,/,1615948,/,1616627,/,1617306,/,1617987,/,1618666,/,1619346,/,1620025,/,1620706,/,1621385,/,1622065,/,1622744,/,1623424,/	t,t,t,t,t,t,t,t,t,t,t,t,t,t,t,t,t	"<div class = ""centerbox""><p class = ""block-text"">Your delay is 1 trials.</p><p class = block-text>Please wait for the scanner to start the block</p></div>"	77	10880.0	n/a	n/a	n/a	n/a	n/a	n/a	n/a	n/a	n/a	n/a	n/a	n/a	n/a	n/a	n/a	n/a	n/a	n/a	n/a	start_functional_block
11380	500	n/a	-1	-1	500	0.0	fixation	poldrack-single-stim	579	1623930	0.0-25.0-0.0	beast_fmri_test	356	n/a	n/a	<div class = centerbox2><div class = fixation>+</div></div>	none	500.0	test	n/a	n/a	n/a	n/a	n/a	n/a	n/a	n/a	n/a	n/a	n/a	n/a	n/a	n/a	n/a	n/a	n/a	n/a	fixation
10348.434379969956	2750	n/a	733	89	2750	1033.56562003	stim	stop-signal	580	1626682	0.0-25.0-1.0	beast_fmri_test	356	1624104,/,1624783,/,1625463,/,1626142,/,1626823,/,1627501,/	t,t,t,t,t,t	<img class = center src='/static/experiments/beast_fmri_test/images/P.png'></img>	71,89	2750.0	test	<img class = center src='/static/experiments/beast_fmri_test/images/redP.png'></img>	go	-1.0	1.0	0.0	go	temp-non-target	P	71,Index Finger	89,Middle Finger	600.0	500.0	2200.0	2200.0	0.0	n/a	n/a	n/a	go_stim
13098.434379969956	1033.5656200300893	n/a	733	89	2750	1033.56562003	stim	stop-signal	580	1626682	0.0-25.0-1.0	beast_fmri_test	356	1624104,/,1624783,/,1625463,/,1626142,/,1626823,/,1627501,/	t,t,t,t,t,t	<img class = center src='/static/experiments/beast_fmri_test/images/P.png'></img>	71,89	2750.0	test	<img class = center src='/static/experiments/beast_fmri_test/images/redP.png'></img>	go	-1.0	1.0	0.0	go	temp-non-target	P	71,Index Finger	89,Middle Finger	600.0	500.0	2200.0	2200.0	0.0	n/a	n/a	n/a	ITI
15727	500	n/a	-1	-1	500	0.0	fixation	poldrack-single-stim	581	1628277	0.0-25.1-0.1	beast_fmri_test	356	1628181,/	t	<div class = centerbox2><div class = fixation>+</div></div>	none	500.0	test	n/a	n/a	n/a	n/a	n/a	n/a	n/a	n/a	n/a	n/a	n/a	n/a	n/a	n/a	n/a	n/a	n/a	n/a	fixation
15639.592472599586	600.0	n/a	1168	71	2750	89.4075274004	stim	stop-signal	582	1631029	0.0-25.1-1.1	beast_fmri_test	356	1628862,/,1629539,/,1630220,/,1630900,/	t,t,t,t	<img class = center src='/static/experiments/beast_fmri_test/images/P.png'></img>	71,89	2750.0	test	<img class = center src='/static/experiments/beast_fmri_test/images/redP.png'></img>	stop	2150.0	1.0	1.0	stop	target	P	71,Index Finger	89,Middle Finger	600.0	500.0	2150.0	2200.0	0.0	600.0	0.0	n/a	go_stim
17789.592472599586	2150.0	n/a	1168	71	2750	89.4075274004	stim	stop-signal	582	1631029	0.0-25.1-1.1	beast_fmri_test	356	1628862,/,1629539,/,1630220,/,1630900,/	t,t,t,t	<img class = center src='/static/experiments/beast_fmri_test/images/P.png'></img>	71,89	2750.0	test	<img class = center src='/static/experiments/beast_fmri_test/images/redP.png'></img>	stop	2150.0	1.0	1.0	stop	target	P	71,Index Finger	89,Middle Finger	600.0	500.0	2150.0	2200.0	0.0	600.0	0.0	n/a	stop_stim
18389.592472599586	89.407527400403438	n/a	1168	71	2750	89.4075274004	stim	stop-signal	582	1631029	0.0-25.1-1.1	beast_fmri_test	356	1628862,/,1629539,/,1630220,/,1630900,/	t,t,t,t	<img class = center src='/static/experiments/beast_fmri_test/images/P.png'></img>	71,89	2750.0	test	<img class = center src='/static/experiments/beast_fmri_test/images/redP.png'></img>	stop	2150.0	1.0	1.0	stop	target	P	71,Index Finger	89,Middle Finger	600.0	500.0	2150.0	2200.0	0.0	600.0	0.0	n/a	ITI
19133	500	n/a	-1	-1	500	0.0	fixation	poldrack-single-stim	583	1631683	0.0-25.2-0.2	beast_fmri_test	356	1631579,/	t	<div class = centerbox2><div class = fixation>+</div></div>	none	500.0	test	n/a	n/a	n/a	n/a	n/a	n/a	n/a	n/a	n/a	n/a	n/a	n/a	n/a	n/a	n/a	n/a	n/a	n/a	fixation
18908.045091543347	550.0	n/a	-1	-1	2750	225.954908457	stim	stop-signal	584	1634434	0.0-25.2-1.2	beast_fmri_test	356	1632263,/,1632941,/,1633619,/,1634297,/	t,t,t,t	<img class = center src='/static/experiments/beast_fmri_test/images/P.png'></img>	71,89	2750.0	test	<img class = center src='/static/experiments/beast_fmri_test/images/redP.png'></img>	stop	2200.0	1.0	2.0	stop	target	P	71,Index Finger	89,Middle Finger	550.0	500.0	2200.0	2200.0	0.0	550.0	1.0	n/a	go_stim
21108.045091543347	2200.0	n/a	-1	-1	2750	225.954908457	stim	stop-signal	584	1634434	0.0-25.2-1.2	beast_fmri_test	356	1632263,/,1632941,/,1633619,/,1634297,/	t,t,t,t	<img class = center src='/static/experiments/beast_fmri_test/images/P.png'></img>	71,89	2750.0	test	<img class = center src='/static/experiments/beast_fmri_test/images/redP.png'></img>	stop	2200.0	1.0	2.0	stop	target	P	71,Index Finger	89,Middle Finger	550.0	500.0	2200.0	2200.0	0.0	550.0	1.0	n/a	stop_stim
21658.045091543347	225.95490845663173	n/a	-1	-1	2750	225.954908457	stim	stop-signal	584	1634434	0.0-25.2-1.2	beast_fmri_test	356	1632263,/,1632941,/,1633619,/,1634297,/	t,t,t,t	<img class = center src='/static/experiments/beast_fmri_test/images/P.png'></img>	71,89	2750.0	test	<img class = center src='/static/experiments/beast_fmri_test/images/redP.png'></img>	stop	2200.0	1.0	2.0	stop	target	P	71,Index Finger	89,Middle Finger	550.0	500.0	2200.0	2200.0	0.0	550.0	1.0	n/a	ITI
22670	500	n/a	-1	-1	500	0.0	fixation	poldrack-single-stim	585	1635220	0.0-25.3-0.3	beast_fmri_test	356	1634979,/	t	<div class = centerbox2><div class = fixation>+</div></div>	none	500.0	test	n/a	n/a	n/a	n/a	n/a	n/a	n/a	n/a	n/a	n/a	n/a	n/a	n/a	n/a	n/a	n/a	n/a	n/a	fixation
22277.704495920334	2750	n/a	792	89	2750	394.29550408	stim	stop-signal	586	1637972	0.0-25.3-1.3	beast_fmri_test	356	1635658,/,1636337,/,1637016,/,1637697,/	t,t,t,t	<img class = center src='/static/experiments/beast_fmri_test/images/B.png'></img>	71,89	2750.0	test	<img class = center src='/static/experiments/beast_fmri_test/images/redB.png'></img>	go	2250.0	1.0	3.0	go	non-target	B	71,Index Finger	89,Middle Finger	600.0	500.0	2200.0	2250.0	1.0	500.0	n/a	1.0	go_stim
25027.704495920334	394.29550407974898	n/a	792	89	2750	394.29550408	stim	stop-signal	586	1637972	0.0-25.3-1.3	beast_fmri_test	356	1635658,/,1636337,/,1637016,/,1637697,/	t,t,t,t	<img class = center src='/static/experiments/beast_fmri_test/images/B.png'></img>	71,89	2750.0	test	<img class = center src='/static/experiments/beast_fmri_test/images/redB.png'></img>	go	2250.0	1.0	3.0	go	non-target	B	71,Index Finger	89,Middle Finger	600.0	500.0	2200.0	2250.0	1.0	500.0	n/a	1.0	ITI
26382	500	n/a	-1	-1	500	0.0	fixation	poldrack-single-stim	587	1638932	0.0-25.4-0.4	beast_fmri_test	356	1638430,/	t	<div class = centerbox2><div class = fixation>+</div></div>	none	500.0	test	n/a	n/a	n/a	n/a	n/a	n/a	n/a	n/a	n/a	n/a	n/a	n/a	n/a	n/a	n/a	n/a	n/a	n/a	fixation
25248.79449969111	2750	n/a	771	89	2750	1134.20550031	stim	stop-signal	588	1641683	0.0-25.4-1.4	beast_fmri_test	356	1639055,/,1639735,/,1640414,/,1641095,/,1641774,/,1642454,/	t,t,t,t,t,t	<img class = center src='/static/experiments/beast_fmri_test/images/V.png'></img>	71,89	2750.0	test	<img class = center src='/static/experiments/beast_fmri_test/images/redV.png'></img>	go	2250.0	1.0	4.0	go	non-target	V	71,Index Finger	89,Middle Finger	600.0	500.0	2200.0	2250.0	1.0	500.0	n/a	1.0	go_stim
27998.79449969111	1134.2055003088353	n/a	771	89	2750	1134.20550031	stim	stop-signal	588	1641683	0.0-25.4-1.4	beast_fmri_test	356	1639055,/,1639735,/,1640414,/,1641095,/,1641774,/,1642454,/	t,t,t,t,t,t	<img class = center src='/static/experiments/beast_fmri_test/images/V.png'></img>	71,89	2750.0	test	<img class = center src='/static/experiments/beast_fmri_test/images/redV.png'></img>	go	2250.0	1.0	4.0	go	non-target	V	71,Index Finger	89,Middle Finger	600.0	500.0	2200.0	2250.0	1.0	500.0	n/a	1.0	ITI
30832	500	n/a	-1	-1	500	0.0	fixation	poldrack-single-stim	589	1643382	0.0-25.5-0.5	beast_fmri_test	356	1643133,/	t	<div class = centerbox2><div class = fixation>+</div></div>	none	500.0	test	n/a	n/a	n/a	n/a	n/a	n/a	n/a	n/a	n/a	n/a	n/a	n/a	n/a	n/a	n/a	n/a	n/a	n/a	fixation
30529.011327467626	2750	n/a	851	71	2750	305.988672532	stim	stop-signal	590	1646135	0.0-25.5-1.5	beast_fmri_test	356	1643814,/,1644494,/,1645174,/,1645854,/	t,t,t,t	<img class = center src='/static/experiments/beast_fmri_test/images/V.png'></img>	71,89	2750.0	test	<img class = center src='/static/experiments/beast_fmri_test/images/redV.png'></img>	go	2150.0	1.0	5.0	go	target	V	71,Index Finger	89,Middle Finger	600.0	500.0	2150.0	2250.0	1.0	600.0	n/a	1.0	go_stim
33279.011327467626	305.98867253241451	n/a	851	71	2750	305.988672532	stim	stop-signal	590	1646135	0.0-25.5-1.5	beast_fmri_test	356	1643814,/,1644494,/,1645174,/,1645854,/	t,t,t,t	<img class = center src='/static/experiments/beast_fmri_test/images/V.png'></img>	71,89	2750.0	test	<img class = center src='/static/experiments/beast_fmri_test/images/redV.png'></img>	go	2150.0	1.0	5.0	go	target	V	71,Index Finger	89,Middle Finger	600.0	500.0	2150.0	2250.0	1.0	600.0	n/a	1.0	ITI
34452	500	n/a	-1	-1	500	0.0	fixation	poldrack-single-stim	591	1647002	0.0-25.6-0.6	beast_fmri_test	356	1646532,/	t	<div class = centerbox2><div class = fixation>+</div></div>	none	500.0	test	n/a	n/a	n/a	n/a	n/a	n/a	n/a	n/a	n/a	n/a	n/a	n/a	n/a	n/a	n/a	n/a	n/a	n/a	fixation
32766.859709953191	2750	n/a	1050	71	2750	1687.14029005	stim	stop-signal	592	1649754	0.0-25.6-1.6	beast_fmri_test	356	1647213,/,1647892,/,1648573,/,1649252,/,1649931,/,1650610,/,1651291,/	t,t,t,t,t,t,t	<img class = center src='/static/experiments/beast_fmri_test/images/V.png'></img>	71,89	2750.0	test	<img class = center src='/static/experiments/beast_fmri_test/images/redV.png'></img>	go	2150.0	1.0	6.0	go	target	V	71,Index Finger	89,Middle Finger	600.0	500.0	2150.0	2250.0	1.0	600.0	n/a	1.0	go_stim
35516.859709953191	1687.1402900467481	n/a	1050	71	2750	1687.14029005	stim	stop-signal	592	1649754	0.0-25.6-1.6	beast_fmri_test	356	1647213,/,1647892,/,1648573,/,1649252,/,1649931,/,1650610,/,1651291,/	t,t,t,t,t,t,t	<img class = center src='/static/experiments/beast_fmri_test/images/V.png'></img>	71,89	2750.0	test	<img class = center src='/static/experiments/beast_fmri_test/images/redV.png'></img>	go	2150.0	1.0	6.0	go	target	V	71,Index Finger	89,Middle Finger	600.0	500.0	2150.0	2250.0	1.0	600.0	n/a	1.0	ITI
39452	500	n/a	-1	-1	500	0.0	fixation	poldrack-single-stim	593	1652002	0.0-25.7-0.7	beast_fmri_test	356	1651971,/	t	<div class = centerbox2><div class = fixation>+</div></div>	none	500.0	test	n/a	n/a	n/a	n/a	n/a	n/a	n/a	n/a	n/a	n/a	n/a	n/a	n/a	n/a	n/a	n/a	n/a	n/a	fixation
38825.497915282845	600.0	n/a	660	71	2750	627.502084717	stim	stop-signal	594	1654753	0.0-25.7-1.7	beast_fmri_test	356	1652651,/,1653330,/,1654010,/,1654689,/,1655369,/	t,t,t,t,t	<img class = center src='/static/experiments/beast_fmri_test/images/V.png'></img>	71,89	2750.0	test	<img class = center src='/static/experiments/beast_fmri_test/images/redV.png'></img>	stop	2150.0	1.0	7.0	stop	target	V	71,Index Finger	89,Middle Finger	600.0	500.0	2150.0	2250.0	0.0	600.0	0.0	n/a	go_stim
40975.497915282845	2150.0	n/a	660	71	2750	627.502084717	stim	stop-signal	594	1654753	0.0-25.7-1.7	beast_fmri_test	356	1652651,/,1653330,/,1654010,/,1654689,/,1655369,/	t,t,t,t,t	<img class = center src='/static/experiments/beast_fmri_test/images/V.png'></img>	71,89	2750.0	test	<img class = center src='/static/experiments/beast_fmri_test/images/redV.png'></img>	stop	2150.0	1.0	7.0	stop	target	V	71,Index Finger	89,Middle Finger	600.0	500.0	2150.0	2250.0	0.0	600.0	0.0	n/a	stop_stim
41575.497915282845	627.50208471708982	n/a	660	71	2750	627.502084717	stim	stop-signal	594	1654753	0.0-25.7-1.7	beast_fmri_test	356	1652651,/,1653330,/,1654010,/,1654689,/,1655369,/	t,t,t,t,t	<img class = center src='/static/experiments/beast_fmri_test/images/V.png'></img>	71,89	2750.0	test	<img class = center src='/static/experiments/beast_fmri_test/images/redV.png'></img>	stop	2150.0	1.0	7.0	stop	target	V	71,Index Finger	89,Middle Finger	600.0	500.0	2150.0	2250.0	0.0	600.0	0.0	n/a	ITI
43397	500	n/a	-1	-1	500	0.0	fixation	poldrack-single-stim	595	1655947	0.0-25.8-0.8	beast_fmri_test	356	n/a	n/a	<div class = centerbox2><div class = fixation>+</div></div>	none	500.0	test	n/a	n/a	n/a	n/a	n/a	n/a	n/a	n/a	n/a	n/a	n/a	n/a	n/a	n/a	n/a	n/a	n/a	n/a	fixation
43060.707686560461	2750	n/a	724	89	2750	338.29231344	stim	stop-signal	596	1658699	0.0-25.8-1.8	beast_fmri_test	356	1656049,/,1656729,/,1657408,/,1658088,/,1658767,/	t,t,t,t,t	<img class = center src='/static/experiments/beast_fmri_test/images/B.png'></img>	71,89	2750.0	test	<img class = center src='/static/experiments/beast_fmri_test/images/redB.png'></img>	go	2250.0	1.0	8.0	go	non-target	B	71,Index Finger	89,Middle Finger	550.0	500.0	2150.0	2250.0	1.0	500.0	n/a	1.0	go_stim
45810.707686560461	338.2923134396338	n/a	724	89	2750	338.29231344	stim	stop-signal	596	1658699	0.0-25.8-1.8	beast_fmri_test	356	1656049,/,1656729,/,1657408,/,1658088,/,1658767,/	t,t,t,t,t	<img class = center src='/static/experiments/beast_fmri_test/images/B.png'></img>	71,89	2750.0	test	<img class = center src='/static/experiments/beast_fmri_test/images/redB.png'></img>	go	2250.0	1.0	8.0	go	non-target	B	71,Index Finger	89,Middle Finger	550.0	500.0	2150.0	2250.0	1.0	500.0	n/a	1.0	ITI
47058	500	n/a	-1	-1	500	0.0	fixation	poldrack-single-stim	597	1659608	0.0-25.9-0.9	beast_fmri_test	356	1659448,/	t	<div class = centerbox2><div class = fixation>+</div></div>	none	500.0	test	n/a	n/a	n/a	n/a	n/a	n/a	n/a	n/a	n/a	n/a	n/a	n/a	n/a	n/a	n/a	n/a	n/a	n/a	fixation
46188.567628579214	2750	n/a	854	89	2750	872.432371421	stim	stop-signal	598	1662361	0.0-25.9-1.9	beast_fmri_test	356	1660126,/,1660805,/,1661485,/,1662166,/,1662845,/	t,t,t,t,t	<img class = center src='/static/experiments/beast_fmri_test/images/V.png'></img>	71,89	2750.0	test	<img class = center src='/static/experiments/beast_fmri_test/images/redV.png'></img>	go	2250.0	1.0	9.0	go	non-target	V	71,Index Finger	89,Middle Finger	550.0	500.0	2150.0	2250.0	1.0	500.0	n/a	1.0	go_stim
48938.567628579214	872.43237142072019	n/a	854	89	2750	872.432371421	stim	stop-signal	598	1662361	0.0-25.9-1.9	beast_fmri_test	356	1660126,/,1660805,/,1661485,/,1662166,/,1662845,/	t,t,t,t,t	<img class = center src='/static/experiments/beast_fmri_test/images/V.png'></img>	71,89	2750.0	test	<img class = center src='/static/experiments/beast_fmri_test/images/redV.png'></img>	go	2250.0	1.0	9.0	go	non-target	V	71,Index Finger	89,Middle Finger	550.0	500.0	2150.0	2250.0	1.0	500.0	n/a	1.0	ITI
51247	500	n/a	-1	-1	500	0.0	fixation	poldrack-single-stim	599	1663797	0.0-25.10-0.10	beast_fmri_test	356	1663524,/	t	<div class = centerbox2><div class = fixation>+</div></div>	none	500.0	test	n/a	n/a	n/a	n/a	n/a	n/a	n/a	n/a	n/a	n/a	n/a	n/a	n/a	n/a	n/a	n/a	n/a	n/a	fixation
51022.427153550554	2750	n/a	918	89	2750	226.572846449	stim	stop-signal	600	1666549	0.0-25.10-1.10	beast_fmri_test	356	1664204,/,1664884,/,1665564,/,1666242,/	t,t,t,t	<img class = center src='/static/experiments/beast_fmri_test/images/D.png'></img>	71,89	2750.0	test	<img class = center src='/static/experiments/beast_fmri_test/images/redD.png'></img>	go	2250.0	1.0	10.0	go	non-target	D	71,Index Finger	89,Middle Finger	550.0	500.0	2150.0	2250.0	1.0	500.0	n/a	1.0	go_stim
53772.427153550554	226.57284644937198	n/a	918	89	2750	226.572846449	stim	stop-signal	600	1666549	0.0-25.10-1.10	beast_fmri_test	356	1664204,/,1664884,/,1665564,/,1666242,/	t,t,t,t	<img class = center src='/static/experiments/beast_fmri_test/images/D.png'></img>	71,89	2750.0	test	<img class = center src='/static/experiments/beast_fmri_test/images/redD.png'></img>	go	2250.0	1.0	10.0	go	non-target	D	71,Index Finger	89,Middle Finger	550.0	500.0	2150.0	2250.0	1.0	500.0	n/a	1.0	ITI
54786	500	n/a	-1	-1	500	0.0	fixation	poldrack-single-stim	601	1667336	0.0-25.11-0.11	beast_fmri_test	356	1666923,/	t	<div class = centerbox2><div class = fixation>+</div></div>	none	500.0	test	n/a	n/a	n/a	n/a	n/a	n/a	n/a	n/a	n/a	n/a	n/a	n/a	n/a	n/a	n/a	n/a	n/a	n/a	fixation
53895.75569906109	2750	n/a	1109	89	2750	892.244300939	stim	stop-signal	602	1670088	0.0-25.11-1.11	beast_fmri_test	356	1667602,/,1668283,/,1668962,/,1669641,/,1670321,/	t,t,t,t,t	<img class = center src='/static/experiments/beast_fmri_test/images/B.png'></img>	71,89	2750.0	test	<img class = center src='/static/experiments/beast_fmri_test/images/redB.png'></img>	go	2250.0	1.0	11.0	go	non-target	B	71,Index Finger	89,Middle Finger	550.0	500.0	2150.0	2250.0	1.0	500.0	n/a	1.0	go_stim
56645.75569906109	892.24430093881256	n/a	1109	89	2750	892.244300939	stim	stop-signal	602	1670088	0.0-25.11-1.11	beast_fmri_test	356	1667602,/,1668283,/,1668962,/,1669641,/,1670321,/	t,t,t,t,t	<img class = center src='/static/experiments/beast_fmri_test/images/B.png'></img>	71,89	2750.0	test	<img class = center src='/static/experiments/beast_fmri_test/images/redB.png'></img>	go	2250.0	1.0	11.0	go	non-target	B	71,Index Finger	89,Middle Finger	550.0	500.0	2150.0	2250.0	1.0	500.0	n/a	1.0	ITI
58995	500	n/a	-1	-1	500	0.0	fixation	poldrack-single-stim	603	1671545	0.0-25.12-0.12	beast_fmri_test	356	1671044,/	t	<div class = centerbox2><div class = fixation>+</div></div>	none	500.0	test	n/a	n/a	n/a	n/a	n/a	n/a	n/a	n/a	n/a	n/a	n/a	n/a	n/a	n/a	n/a	n/a	n/a	n/a	fixation
58448.781340828864	2750	n/a	1017	71	2750	549.218659171	stim	stop-signal	604	1674298	0.0-25.12-1.12	beast_fmri_test	356	1671681,/,1672360,/,1673042,/,1673720,/,1674400,/	t,t,t,t,t	<img class = center src='/static/experiments/beast_fmri_test/images/B.png'></img>	71,89	2750.0	test	<img class = center src='/static/experiments/beast_fmri_test/images/redB.png'></img>	go	2200.0	1.0	12.0	go	target	B	71,Index Finger	89,Middle Finger	550.0	500.0	2200.0	2250.0	1.0	550.0	n/a	1.0	go_stim
61198.781340828864	549.21865917124762	n/a	1017	71	2750	549.218659171	stim	stop-signal	604	1674298	0.0-25.12-1.12	beast_fmri_test	356	1671681,/,1672360,/,1673042,/,1673720,/,1674400,/	t,t,t,t,t	<img class = center src='/static/experiments/beast_fmri_test/images/B.png'></img>	71,89	2750.0	test	<img class = center src='/static/experiments/beast_fmri_test/images/redB.png'></img>	go	2200.0	1.0	12.0	go	target	B	71,Index Finger	89,Middle Finger	550.0	500.0	2200.0	2250.0	1.0	550.0	n/a	1.0	ITI
62861	500	n/a	-1	-1	500	0.0	fixation	poldrack-single-stim	605	1675411	0.0-25.13-0.13	beast_fmri_test	356	1675080,/	t	<div class = centerbox2><div class = fixation>+</div></div>	none	500.0	test	n/a	n/a	n/a	n/a	n/a	n/a	n/a	n/a	n/a	n/a	n/a	n/a	n/a	n/a	n/a	n/a	n/a	n/a	fixation
61923.156706403708	2750	n/a	905	89	2750	939.843293596	stim	stop-signal	606	1678163	0.0-25.13-1.13	beast_fmri_test	356	1675760,/,1676440,/,1677119,/,1677799,/,1678478,/	t,t,t,t,t	<img class = center src='/static/experiments/beast_fmri_test/images/P.png'></img>	71,89	2750.0	test	<img class = center src='/static/experiments/beast_fmri_test/images/redP.png'></img>	go	2250.0	1.0	13.0	go	non-target	P	71,Index Finger	89,Middle Finger	550.0	500.0	2200.0	2250.0	1.0	500.0	n/a	1.0	go_stim
64673.156706403708	939.84329359620756	n/a	905	89	2750	939.843293596	stim	stop-signal	606	1678163	0.0-25.13-1.13	beast_fmri_test	356	1675760,/,1676440,/,1677119,/,1677799,/,1678478,/	t,t,t,t,t	<img class = center src='/static/experiments/beast_fmri_test/images/P.png'></img>	71,89	2750.0	test	<img class = center src='/static/experiments/beast_fmri_test/images/redP.png'></img>	go	2250.0	1.0	13.0	go	non-target	P	71,Index Finger	89,Middle Finger	550.0	500.0	2200.0	2250.0	1.0	500.0	n/a	1.0	ITI
67116	500	n/a	-1	-1	500	0.0	fixation	poldrack-single-stim	607	1679666	0.0-25.14-0.14	beast_fmri_test	356	1679164,/	t	<div class = centerbox2><div class = fixation>+</div></div>	none	500.0	test	n/a	n/a	n/a	n/a	n/a	n/a	n/a	n/a	n/a	n/a	n/a	n/a	n/a	n/a	n/a	n/a	n/a	n/a	fixation
66616.825295320712	500.0	n/a	804	89	2750	501.174704679	stim	stop-signal	608	1682418	0.0-25.14-1.14	beast_fmri_test	356	1679838,/,1680516,/,1681197,/,1681877,/,1682555,/	t,t,t,t,t	<img class = center src='/static/experiments/beast_fmri_test/images/V.png'></img>	71,89	2750.0	test	<img class = center src='/static/experiments/beast_fmri_test/images/redV.png'></img>	stop	2250.0	1.0	14.0	stop	non-target	V	71,Index Finger	89,Middle Finger	550.0	500.0	2200.0	2250.0	0.0	500.0	0.0	n/a	go_stim
68866.825295320712	2250.0	n/a	804	89	2750	501.174704679	stim	stop-signal	608	1682418	0.0-25.14-1.14	beast_fmri_test	356	1679838,/,1680516,/,1681197,/,1681877,/,1682555,/	t,t,t,t,t	<img class = center src='/static/experiments/beast_fmri_test/images/V.png'></img>	71,89	2750.0	test	<img class = center src='/static/experiments/beast_fmri_test/images/redV.png'></img>	stop	2250.0	1.0	14.0	stop	non-target	V	71,Index Finger	89,Middle Finger	550.0	500.0	2200.0	2250.0	0.0	500.0	0.0	n/a	stop_stim
69366.825295320712	501.17470467920509	n/a	804	89	2750	501.174704679	stim	stop-signal	608	1682418	0.0-25.14-1.14	beast_fmri_test	356	1679838,/,1680516,/,1681197,/,1681877,/,1682555,/	t,t,t,t,t	<img class = center src='/static/experiments/beast_fmri_test/images/V.png'></img>	71,89	2750.0	test	<img class = center src='/static/experiments/beast_fmri_test/images/redV.png'></img>	stop	2250.0	1.0	14.0	stop	non-target	V	71,Index Finger	89,Middle Finger	550.0	500.0	2200.0	2250.0	0.0	500.0	0.0	n/a	ITI
70933	500	n/a	-1	-1	500	0.0	fixation	poldrack-single-stim	609	1683483	0.0-25.15-0.15	beast_fmri_test	356	1683236,/	t	<div class = centerbox2><div class = fixation>+</div></div>	none	500.0	test	n/a	n/a	n/a	n/a	n/a	n/a	n/a	n/a	n/a	n/a	n/a	n/a	n/a	n/a	n/a	n/a	n/a	n/a	fixation
70373.141169404844	2750	n/a	1002	89	2750	560.858830595	stim	stop-signal	610	1686234	0.0-25.15-1.15	beast_fmri_test	356	1683915,/,1684594,/,1685274,/,1685954,/,1686635,/	t,t,t,t,t	<img class = center src='/static/experiments/beast_fmri_test/images/B.png'></img>	71,89	2750.0	test	<img class = center src='/static/experiments/beast_fmri_test/images/redB.png'></img>	go	2300.0	1.0	15.0	go	non-target	B	71,Index Finger	89,Middle Finger	550.0	450.0	2200.0	2300.0	1.0	450.0	n/a	1.0	go_stim
73123.141169404844	560.85883059507796	n/a	1002	89	2750	560.858830595	stim	stop-signal	610	1686234	0.0-25.15-1.15	beast_fmri_test	356	1683915,/,1684594,/,1685274,/,1685954,/,1686635,/	t,t,t,t,t	<img class = center src='/static/experiments/beast_fmri_test/images/B.png'></img>	71,89	2750.0	test	<img class = center src='/static/experiments/beast_fmri_test/images/redB.png'></img>	go	2300.0	1.0	15.0	go	non-target	B	71,Index Finger	89,Middle Finger	550.0	450.0	2200.0	2300.0	1.0	450.0	n/a	1.0	ITI
74809	500	n/a	-1	-1	500	0.0	fixation	poldrack-single-stim	611	1687359	0.0-25.16-0.16	beast_fmri_test	356	1687313,/	t	<div class = centerbox2><div class = fixation>+</div></div>	none	500.0	test	n/a	n/a	n/a	n/a	n/a	n/a	n/a	n/a	n/a	n/a	n/a	n/a	n/a	n/a	n/a	n/a	n/a	n/a	fixation
72322.359350977466	2750	n/a	1023	71	2750	2488.64064902	stim	stop-signal	612	1690111	0.0-25.16-1.16	beast_fmri_test	356	1687994,/,1688673,/,1689353,/,1690033,/,1690713,/,1691392,/,1692072,/	t,t,t,t,t,t,t	<img class = center src='/static/experiments/beast_fmri_test/images/B.png'></img>	71,89	2750.0	test	<img class = center src='/static/experiments/beast_fmri_test/images/redB.png'></img>	go	2200.0	1.0	16.0	go	target	B	71,Index Finger	89,Middle Finger	550.0	450.0	2200.0	2300.0	1.0	550.0	n/a	1.0	go_stim
75072.359350977466	2488.640649022489	n/a	1023	71	2750	2488.64064902	stim	stop-signal	612	1690111	0.0-25.16-1.16	beast_fmri_test	356	1687994,/,1688673,/,1689353,/,1690033,/,1690713,/,1691392,/,1692072,/	t,t,t,t,t,t,t	<img class = center src='/static/experiments/beast_fmri_test/images/B.png'></img>	71,89	2750.0	test	<img class = center src='/static/experiments/beast_fmri_test/images/redB.png'></img>	go	2200.0	1.0	16.0	go	target	B	71,Index Finger	89,Middle Finger	550.0	450.0	2200.0	2300.0	1.0	550.0	n/a	1.0	ITI
80615	500	n/a	-1	-1	500	0.0	fixation	poldrack-single-stim	613	1693165	0.0-25.17-0.17	beast_fmri_test	356	1692751,/	t	<div class = centerbox2><div class = fixation>+</div></div>	none	500.0	test	n/a	n/a	n/a	n/a	n/a	n/a	n/a	n/a	n/a	n/a	n/a	n/a	n/a	n/a	n/a	n/a	n/a	n/a	fixation
79598.210390926106	450.0	n/a	-1	-1	2750	1019.78960907	stim	stop-signal	614	1695918	0.0-25.17-1.17	beast_fmri_test	356	1693431,/,1694110,/,1694791,/,1695470,/,1696150,/,1696829,/	t,t,t,t,t,t	<img class = center src='/static/experiments/beast_fmri_test/images/T.png'></img>	71,89	2750.0	test	<img class = center src='/static/experiments/beast_fmri_test/images/redT.png'></img>	stop	2300.0	1.0	17.0	stop	non-target	T	71,Index Finger	89,Middle Finger	550.0	450.0	2200.0	2300.0	0.0	450.0	1.0	n/a	go_stim
81898.210390926106	2300.0	n/a	-1	-1	2750	1019.78960907	stim	stop-signal	614	1695918	0.0-25.17-1.17	beast_fmri_test	356	1693431,/,1694110,/,1694791,/,1695470,/,1696150,/,1696829,/	t,t,t,t,t,t	<img class = center src='/static/experiments/beast_fmri_test/images/T.png'></img>	71,89	2750.0	test	<img class = center src='/static/experiments/beast_fmri_test/images/redT.png'></img>	stop	2300.0	1.0	17.0	stop	non-target	T	71,Index Finger	89,Middle Finger	550.0	450.0	2200.0	2300.0	0.0	450.0	1.0	n/a	stop_stim
82348.210390926106	1019.7896090738576	n/a	-1	-1	2750	1019.78960907	stim	stop-signal	614	1695918	0.0-25.17-1.17	beast_fmri_test	356	1693431,/,1694110,/,1694791,/,1695470,/,1696150,/,1696829,/	t,t,t,t,t,t	<img class = center src='/static/experiments/beast_fmri_test/images/T.png'></img>	71,89	2750.0	test	<img class = center src='/static/experiments/beast_fmri_test/images/redT.png'></img>	stop	2300.0	1.0	17.0	stop	non-target	T	71,Index Finger	89,Middle Finger	550.0	450.0	2200.0	2300.0	0.0	450.0	1.0	n/a	ITI
84951	500	n/a	-1	-1	500	0.0	fixation	poldrack-single-stim	615	1697501	0.0-25.18-0.18	beast_fmri_test	356	n/a	n/a	<div class = centerbox2><div class = fixation>+</div></div>	none	500.0	test	n/a	n/a	n/a	n/a	n/a	n/a	n/a	n/a	n/a	n/a	n/a	n/a	n/a	n/a	n/a	n/a	n/a	n/a	fixation
83307.254573748214	2750	n/a	604	89	2750	1644.74542625	stim	stop-signal	616	1700252	0.0-25.18-1.18	beast_fmri_test	356	1697509,/,1698188,/,1698868,/,1699548,/,1700228,/,1700908,/,1701587,/	t,t,t,t,t,t,t	<img class = center src='/static/experiments/beast_fmri_test/images/B.png'></img>	71,89	2750.0	test	<img class = center src='/static/experiments/beast_fmri_test/images/redB.png'></img>	go	2250.0	1.0	18.0	go	non-target	B	71,Index Finger	89,Middle Finger	550.0	500.0	2200.0	2250.0	1.0	500.0	n/a	1.0	go_stim
86057.254573748214	1644.7454262518115	n/a	604	89	2750	1644.74542625	stim	stop-signal	616	1700252	0.0-25.18-1.18	beast_fmri_test	356	1697509,/,1698188,/,1698868,/,1699548,/,1700228,/,1700908,/,1701587,/	t,t,t,t,t,t,t	<img class = center src='/static/experiments/beast_fmri_test/images/B.png'></img>	71,89	2750.0	test	<img class = center src='/static/experiments/beast_fmri_test/images/redB.png'></img>	go	2250.0	1.0	18.0	go	non-target	B	71,Index Finger	89,Middle Finger	550.0	500.0	2200.0	2250.0	1.0	500.0	n/a	1.0	ITI
89916	500	n/a	-1	-1	500	0.0	fixation	poldrack-single-stim	617	1702466	0.0-25.19-0.19	beast_fmri_test	356	1702267,/	t	<div class = centerbox2><div class = fixation>+</div></div>	none	500.0	test	n/a	n/a	n/a	n/a	n/a	n/a	n/a	n/a	n/a	n/a	n/a	n/a	n/a	n/a	n/a	n/a	n/a	n/a	fixation
84918.0	2750	n/a	882	71	2750	5000.0	stim	stop-signal	618	1705218	0.0-25.19-1.19	beast_fmri_test	356	1702946,/,1703626,/,1704306,/,1704986,/,1705666,/,1706345,/,1707025,/,1707705,/,1708383,/,1709065,/,1709744,/	t,t,t,t,t,t,t,t,t,t,t	<img class = center src='/static/experiments/beast_fmri_test/images/B.png'></img>	71,89	2750.0	test	<img class = center src='/static/experiments/beast_fmri_test/images/redB.png'></img>	go	2200.0	1.0	19.0	go	target	B	71,Index Finger	89,Middle Finger	550.0	500.0	2200.0	2250.0	1.0	550.0	n/a	1.0	go_stim
87668.0	5000.0	n/a	882	71	2750	5000.0	stim	stop-signal	618	1705218	0.0-25.19-1.19	beast_fmri_test	356	1702946,/,1703626,/,1704306,/,1704986,/,1705666,/,1706345,/,1707025,/,1707705,/,1708383,/,1709065,/,1709744,/	t,t,t,t,t,t,t,t,t,t,t	<img class = center src='/static/experiments/beast_fmri_test/images/B.png'></img>	71,89	2750.0	test	<img class = center src='/static/experiments/beast_fmri_test/images/redB.png'></img>	go	2200.0	1.0	19.0	go	target	B	71,Index Finger	89,Middle Finger	550.0	500.0	2200.0	2250.0	1.0	550.0	n/a	1.0	ITI
98241	500	n/a	-1	-1	500	0.0	fixation	poldrack-single-stim	619	1710791	0.0-25.20-0.20	beast_fmri_test	356	1710424,/	t	<div class = centerbox2><div class = fixation>+</div></div>	none	500.0	test	n/a	n/a	n/a	n/a	n/a	n/a	n/a	n/a	n/a	n/a	n/a	n/a	n/a	n/a	n/a	n/a	n/a	n/a	fixation
98163.693777499022	500.0	n/a	683	89	2750	79.306222501	stim	stop-signal	620	1713543	0.0-25.20-1.20	beast_fmri_test	356	1711104,/,1711782,/,1712461,/,1713143,/	t,t,t,t	<img class = center src='/static/experiments/beast_fmri_test/images/P.png'></img>	71,89	2750.0	test	<img class = center src='/static/experiments/beast_fmri_test/images/redP.png'></img>	stop	2250.0	1.0	20.0	stop	non-target	P	71,Index Finger	89,Middle Finger	550.0	500.0	2200.0	2250.0	0.0	500.0	0.0	n/a	go_stim
100413.69377749902	2250.0	n/a	683	89	2750	79.306222501	stim	stop-signal	620	1713543	0.0-25.20-1.20	beast_fmri_test	356	1711104,/,1711782,/,1712461,/,1713143,/	t,t,t,t	<img class = center src='/static/experiments/beast_fmri_test/images/P.png'></img>	71,89	2750.0	test	<img class = center src='/static/experiments/beast_fmri_test/images/redP.png'></img>	stop	2250.0	1.0	20.0	stop	non-target	P	71,Index Finger	89,Middle Finger	550.0	500.0	2200.0	2250.0	0.0	500.0	0.0	n/a	stop_stim
100913.69377749902	79.30622250104507	n/a	683	89	2750	79.306222501	stim	stop-signal	620	1713543	0.0-25.20-1.20	beast_fmri_test	356	1711104,/,1711782,/,1712461,/,1713143,/	t,t,t,t	<img class = center src='/static/experiments/beast_fmri_test/images/P.png'></img>	71,89	2750.0	test	<img class = center src='/static/experiments/beast_fmri_test/images/redP.png'></img>	stop	2250.0	1.0	20.0	stop	non-target	P	71,Index Finger	89,Middle Finger	550.0	500.0	2200.0	2250.0	0.0	500.0	0.0	n/a	ITI
101644	500	n/a	-1	-1	500	0.0	fixation	poldrack-single-stim	621	1714194	0.0-25.21-0.21	beast_fmri_test	356	1713822,/	t	<div class = centerbox2><div class = fixation>+</div></div>	none	500.0	test	n/a	n/a	n/a	n/a	n/a	n/a	n/a	n/a	n/a	n/a	n/a	n/a	n/a	n/a	n/a	n/a	n/a	n/a	fixation
100902.24577914295	450.0	n/a	-1	-1	2750	744.754220857	stim	stop-signal	622	1716947	0.0-25.21-1.21	beast_fmri_test	356	1714502,/,1715180,/,1715861,/,1716540,/,1717220,/	t,t,t,t,t	<img class = center src='/static/experiments/beast_fmri_test/images/D.png'></img>	71,89	2750.0	test	<img class = center src='/static/experiments/beast_fmri_test/images/redD.png'></img>	stop	2300.0	1.0	21.0	stop	non-target	D	71,Index Finger	89,Middle Finger	550.0	450.0	2200.0	2300.0	0.0	450.0	1.0	n/a	go_stim
103202.24577914295	2300.0	n/a	-1	-1	2750	744.754220857	stim	stop-signal	622	1716947	0.0-25.21-1.21	beast_fmri_test	356	1714502,/,1715180,/,1715861,/,1716540,/,1717220,/	t,t,t,t,t	<img class = center src='/static/experiments/beast_fmri_test/images/D.png'></img>	71,89	2750.0	test	<img class = center src='/static/experiments/beast_fmri_test/images/redD.png'></img>	stop	2300.0	1.0	21.0	stop	non-target	D	71,Index Finger	89,Middle Finger	550.0	450.0	2200.0	2300.0	0.0	450.0	1.0	n/a	stop_stim
103652.24577914295	744.75422085716707	n/a	-1	-1	2750	744.754220857	stim	stop-signal	622	1716947	0.0-25.21-1.21	beast_fmri_test	356	1714502,/,1715180,/,1715861,/,1716540,/,1717220,/	t,t,t,t,t	<img class = center src='/static/experiments/beast_fmri_test/images/D.png'></img>	71,89	2750.0	test	<img class = center src='/static/experiments/beast_fmri_test/images/redD.png'></img>	stop	2300.0	1.0	21.0	stop	non-target	D	71,Index Finger	89,Middle Finger	550.0	450.0	2200.0	2300.0	0.0	450.0	1.0	n/a	ITI
105711	500	n/a	-1	-1	500	0.0	fixation	poldrack-single-stim	623	1718261	0.0-25.22-0.22	beast_fmri_test	356	1717901,/	t	<div class = centerbox2><div class = fixation>+</div></div>	none	500.0	test	n/a	n/a	n/a	n/a	n/a	n/a	n/a	n/a	n/a	n/a	n/a	n/a	n/a	n/a	n/a	n/a	n/a	n/a	fixation
104898.08436888619	550.0	n/a	681	71	2750	813.915631114	stim	stop-signal	624	1721012	0.0-25.22-1.22	beast_fmri_test	356	1718580,/,1719258,/,1719938,/,1720618,/,1721298,/	t,t,t,t,t	<img class = center src='/static/experiments/beast_fmri_test/images/D.png'></img>	71,89	2750.0	test	<img class = center src='/static/experiments/beast_fmri_test/images/redD.png'></img>	stop	2200.0	1.0	22.0	stop	target	D	71,Index Finger	89,Middle Finger	550.0	500.0	2200.0	2300.0	0.0	550.0	0.0	n/a	go_stim
107098.08436888619	2200.0	n/a	681	71	2750	813.915631114	stim	stop-signal	624	1721012	0.0-25.22-1.22	beast_fmri_test	356	1718580,/,1719258,/,1719938,/,1720618,/,1721298,/	t,t,t,t,t	<img class = center src='/static/experiments/beast_fmri_test/images/D.png'></img>	71,89	2750.0	test	<img class = center src='/static/experiments/beast_fmri_test/images/redD.png'></img>	stop	2200.0	1.0	22.0	stop	target	D	71,Index Finger	89,Middle Finger	550.0	500.0	2200.0	2300.0	0.0	550.0	0.0	n/a	stop_stim
107648.08436888619	813.91563111375058	n/a	681	71	2750	813.915631114	stim	stop-signal	624	1721012	0.0-25.22-1.22	beast_fmri_test	356	1718580,/,1719258,/,1719938,/,1720618,/,1721298,/	t,t,t,t,t	<img class = center src='/static/experiments/beast_fmri_test/images/D.png'></img>	71,89	2750.0	test	<img class = center src='/static/experiments/beast_fmri_test/images/redD.png'></img>	stop	2200.0	1.0	22.0	stop	target	D	71,Index Finger	89,Middle Finger	550.0	500.0	2200.0	2300.0	0.0	550.0	0.0	n/a	ITI
109845	500	n/a	-1	-1	500	0.0	fixation	poldrack-single-stim	625	1722395	0.0-25.23-0.23	beast_fmri_test	356	1721978,/	t	<div class = centerbox2><div class = fixation>+</div></div>	none	500.0	test	n/a	n/a	n/a	n/a	n/a	n/a	n/a	n/a	n/a	n/a	n/a	n/a	n/a	n/a	n/a	n/a	n/a	n/a	fixation
109309.20239575766	2750	n/a	977	89	2750	537.797604242	stim	stop-signal	626	1725147	0.0-25.23-1.23	beast_fmri_test	356	1722658,/,1723338,/,1724016,/,1724697,/,1725376,/	t,t,t,t,t	<img class = center src='/static/experiments/beast_fmri_test/images/P.png'></img>	71,89	2750.0	test	<img class = center src='/static/experiments/beast_fmri_test/images/redP.png'></img>	go	2250.0	1.0	23.0	go	non-target	P	71,Index Finger	89,Middle Finger	500.0	500.0	2200.0	2250.0	1.0	500.0	n/a	1.0	go_stim
112059.20239575766	537.79760424234144	n/a	977	89	2750	537.797604242	stim	stop-signal	626	1725147	0.0-25.23-1.23	beast_fmri_test	356	1722658,/,1723338,/,1724016,/,1724697,/,1725376,/	t,t,t,t,t	<img class = center src='/static/experiments/beast_fmri_test/images/P.png'></img>	71,89	2750.0	test	<img class = center src='/static/experiments/beast_fmri_test/images/redP.png'></img>	go	2250.0	1.0	23.0	go	non-target	P	71,Index Finger	89,Middle Finger	500.0	500.0	2200.0	2250.0	1.0	500.0	n/a	1.0	ITI
113706	500	n/a	-1	-1	500	0.0	fixation	poldrack-single-stim	627	1726256	0.0-25.24-0.24	beast_fmri_test	356	1726055,/	t	<div class = centerbox2><div class = fixation>+</div></div>	none	500.0	test	n/a	n/a	n/a	n/a	n/a	n/a	n/a	n/a	n/a	n/a	n/a	n/a	n/a	n/a	n/a	n/a	n/a	n/a	fixation
110386.8079404484	500.0	n/a	-1	-1	2750	3321.19205955	stim	stop-signal	628	1729008	0.0-25.24-1.24	beast_fmri_test	356	1726735,/,1727417,/,1728096,/,1728775,/,1729454,/,1730133,/,1730814,/,1731494,/,1732172,/	t,t,t,t,t,t,t,t,t	<img class = center src='/static/experiments/beast_fmri_test/images/V.png'></img>	71,89	2750.0	test	<img class = center src='/static/experiments/beast_fmri_test/images/redV.png'></img>	stop	2250.0	1.0	24.0	stop	non-target	V	71,Index Finger	89,Middle Finger	500.0	500.0	2200.0	2250.0	0.0	500.0	1.0	n/a	go_stim
112636.8079404484	2250.0	n/a	-1	-1	2750	3321.19205955	stim	stop-signal	628	1729008	0.0-25.24-1.24	beast_fmri_test	356	1726735,/,1727417,/,1728096,/,1728775,/,1729454,/,1730133,/,1730814,/,1731494,/,1732172,/	t,t,t,t,t,t,t,t,t	<img class = center src='/static/experiments/beast_fmri_test/images/V.png'></img>	71,89	2750.0	test	<img class = center src='/static/experiments/beast_fmri_test/images/redV.png'></img>	stop	2250.0	1.0	24.0	stop	non-target	V	71,Index Finger	89,Middle Finger	500.0	500.0	2200.0	2250.0	0.0	500.0	1.0	n/a	stop_stim
113136.8079404484	3321.1920595516804	n/a	-1	-1	2750	3321.19205955	stim	stop-signal	628	1729008	0.0-25.24-1.24	beast_fmri_test	356	1726735,/,1727417,/,1728096,/,1728775,/,1729454,/,1730133,/,1730814,/,1731494,/,1732172,/	t,t,t,t,t,t,t,t,t	<img class = center src='/static/experiments/beast_fmri_test/images/V.png'></img>	71,89	2750.0	test	<img class = center src='/static/experiments/beast_fmri_test/images/redV.png'></img>	stop	2250.0	1.0	24.0	stop	non-target	V	71,Index Finger	89,Middle Finger	500.0	500.0	2200.0	2250.0	0.0	500.0	1.0	n/a	ITI
120348	500	n/a	-1	-1	500	0.0	fixation	poldrack-single-stim	629	1732898	0.0-25.25-0.25	beast_fmri_test	356	1732854,/	t	<div class = centerbox2><div class = fixation>+</div></div>	none	500.0	test	n/a	n/a	n/a	n/a	n/a	n/a	n/a	n/a	n/a	n/a	n/a	n/a	n/a	n/a	n/a	n/a	n/a	n/a	fixation
118634.48593044793	2750	n/a	824	89	2750	1715.51406955	stim	stop-signal	630	1735650	0.0-25.25-1.25	beast_fmri_test	356	1733534,/,1734213,/,1734894,/,1735571,/,1736250,/,1736932,/	t,t,t,t,t,t	<img class = center src='/static/experiments/beast_fmri_test/images/T.png'></img>	71,89	2750.0	test	<img class = center src='/static/experiments/beast_fmri_test/images/redT.png'></img>	go	2200.0	1.0	25.0	go	non-target	T	71,Index Finger	89,Middle Finger	500.0	550.0	2200.0	2200.0	1.0	550.0	n/a	1.0	go_stim
121384.48593044793	1715.5140695520456	n/a	824	89	2750	1715.51406955	stim	stop-signal	630	1735650	0.0-25.25-1.25	beast_fmri_test	356	1733534,/,1734213,/,1734894,/,1735571,/,1736250,/,1736932,/	t,t,t,t,t,t	<img class = center src='/static/experiments/beast_fmri_test/images/T.png'></img>	71,89	2750.0	test	<img class = center src='/static/experiments/beast_fmri_test/images/redT.png'></img>	go	2200.0	1.0	25.0	go	non-target	T	71,Index Finger	89,Middle Finger	500.0	550.0	2200.0	2200.0	1.0	550.0	n/a	1.0	ITI
125388	500	n/a	-1	-1	500	0.0	fixation	poldrack-single-stim	631	1737938	0.0-25.26-0.26	beast_fmri_test	356	1737612,/	t	<div class = centerbox2><div class = fixation>+</div></div>	none	500.0	test	n/a	n/a	n/a	n/a	n/a	n/a	n/a	n/a	n/a	n/a	n/a	n/a	n/a	n/a	n/a	n/a	n/a	n/a	fixation
124607.96840441902	550.0	n/a	-1	-1	2750	783.031595581	stim	stop-signal	632	1740691	0.0-25.26-1.26	beast_fmri_test	356	1738291,/,1738970,/,1739650,/,1740329,/,1741009,/	t,t,t,t,t	<img class = center src='/static/experiments/beast_fmri_test/images/D.png'></img>	71,89	2750.0	test	<img class = center src='/static/experiments/beast_fmri_test/images/redD.png'></img>	stop	2200.0	1.0	26.0	stop	non-target	D	71,Index Finger	89,Middle Finger	500.0	550.0	2200.0	2200.0	0.0	550.0	1.0	n/a	go_stim
126807.96840441902	2200.0	n/a	-1	-1	2750	783.031595581	stim	stop-signal	632	1740691	0.0-25.26-1.26	beast_fmri_test	356	1738291,/,1738970,/,1739650,/,1740329,/,1741009,/	t,t,t,t,t	<img class = center src='/static/experiments/beast_fmri_test/images/D.png'></img>	71,89	2750.0	test	<img class = center src='/static/experiments/beast_fmri_test/images/redD.png'></img>	stop	2200.0	1.0	26.0	stop	non-target	D	71,Index Finger	89,Middle Finger	500.0	550.0	2200.0	2200.0	0.0	550.0	1.0	n/a	stop_stim
127357.96840441902	783.03159558105312	n/a	-1	-1	2750	783.031595581	stim	stop-signal	632	1740691	0.0-25.26-1.26	beast_fmri_test	356	1738291,/,1738970,/,1739650,/,1740329,/,1741009,/	t,t,t,t,t	<img class = center src='/static/experiments/beast_fmri_test/images/D.png'></img>	71,89	2750.0	test	<img class = center src='/static/experiments/beast_fmri_test/images/redD.png'></img>	stop	2200.0	1.0	26.0	stop	non-target	D	71,Index Finger	89,Middle Finger	500.0	550.0	2200.0	2200.0	0.0	550.0	1.0	n/a	ITI
129502	500	n/a	-1	-1	500	0.0	fixation	poldrack-single-stim	633	1742052	0.0-25.27-0.27	beast_fmri_test	356	1741690,/	t	<div class = centerbox2><div class = fixation>+</div></div>	none	500.0	test	n/a	n/a	n/a	n/a	n/a	n/a	n/a	n/a	n/a	n/a	n/a	n/a	n/a	n/a	n/a	n/a	n/a	n/a	fixation
129495.5146626411	2750	n/a	707	89	2750	8.48533735899	stim	stop-signal	634	1744804	0.0-25.27-1.27	beast_fmri_test	356	1742369,/,1743049,/,1743728,/,1744408,/	t,t,t,t	<img class = center src='/static/experiments/beast_fmri_test/images/V.png'></img>	71,89	2750.0	test	<img class = center src='/static/experiments/beast_fmri_test/images/redV.png'></img>	go	2150.0	1.0	27.0	go	non-target	V	71,Index Finger	89,Middle Finger	500.0	600.0	2200.0	2150.0	1.0	600.0	n/a	1.0	go_stim
132245.5146626411	8.4853373589944958	n/a	707	89	2750	8.48533735899	stim	stop-signal	634	1744804	0.0-25.27-1.27	beast_fmri_test	356	1742369,/,1743049,/,1743728,/,1744408,/	t,t,t,t	<img class = center src='/static/experiments/beast_fmri_test/images/V.png'></img>	71,89	2750.0	test	<img class = center src='/static/experiments/beast_fmri_test/images/redV.png'></img>	go	2150.0	1.0	27.0	go	non-target	V	71,Index Finger	89,Middle Finger	500.0	600.0	2200.0	2150.0	1.0	600.0	n/a	1.0	ITI
132847	500	n/a	-1	-1	500	0.0	fixation	poldrack-single-stim	635	1745397	0.0-25.28-0.28	beast_fmri_test	356	1745088,/	t	<div class = centerbox2><div class = fixation>+</div></div>	none	500.0	test	n/a	n/a	n/a	n/a	n/a	n/a	n/a	n/a	n/a	n/a	n/a	n/a	n/a	n/a	n/a	n/a	n/a	n/a	fixation
130107.61530534527	2750	n/a	837	89	2750	2741.38469465	stim	stop-signal	636	1748149	0.0-25.28-1.28	beast_fmri_test	356	1745767,/,1746445,/,1747126,/,1747806,/,1748486,/,1749166,/,1749844,/,1750523,/	t,t,t,t,t,t,t,t	<img class = center src='/static/experiments/beast_fmri_test/images/B.png'></img>	71,89	2750.0	test	<img class = center src='/static/experiments/beast_fmri_test/images/redB.png'></img>	go	2150.0	1.0	28.0	go	non-target	B	71,Index Finger	89,Middle Finger	500.0	600.0	2200.0	2150.0	1.0	600.0	n/a	1.0	go_stim
132857.61530534527	2741.3846946546723	n/a	837	89	2750	2741.38469465	stim	stop-signal	636	1748149	0.0-25.28-1.28	beast_fmri_test	356	1745767,/,1746445,/,1747126,/,1747806,/,1748486,/,1749166,/,1749844,/,1750523,/	t,t,t,t,t,t,t,t	<img class = center src='/static/experiments/beast_fmri_test/images/B.png'></img>	71,89	2750.0	test	<img class = center src='/static/experiments/beast_fmri_test/images/redB.png'></img>	go	2150.0	1.0	28.0	go	non-target	B	71,Index Finger	89,Middle Finger	500.0	600.0	2200.0	2150.0	1.0	600.0	n/a	1.0	ITI
138902	500	n/a	-1	-1	500	0.0	fixation	poldrack-single-stim	637	1751452	0.0-25.29-0.29	beast_fmri_test	356	1751207,/	t	<div class = centerbox2><div class = fixation>+</div></div>	none	500.0	test	n/a	n/a	n/a	n/a	n/a	n/a	n/a	n/a	n/a	n/a	n/a	n/a	n/a	n/a	n/a	n/a	n/a	n/a	fixation
138705.65906677069	600.0	n/a	639	89	2750	200.340933229	stim	stop-signal	638	1754206	0.0-25.29-1.29	beast_fmri_test	356	1751885,/,1752563,/,1753242,/,1753922,/	t,t,t,t	<img class = center src='/static/experiments/beast_fmri_test/images/P.png'></img>	71,89	2750.0	test	<img class = center src='/static/experiments/beast_fmri_test/images/redP.png'></img>	stop	2150.0	1.0	29.0	stop	non-target	P	71,Index Finger	89,Middle Finger	500.0	600.0	2200.0	2150.0	0.0	600.0	0.0	n/a	go_stim
140855.65906677069	2150.0	n/a	639	89	2750	200.340933229	stim	stop-signal	638	1754206	0.0-25.29-1.29	beast_fmri_test	356	1751885,/,1752563,/,1753242,/,1753922,/	t,t,t,t	<img class = center src='/static/experiments/beast_fmri_test/images/P.png'></img>	71,89	2750.0	test	<img class = center src='/static/experiments/beast_fmri_test/images/redP.png'></img>	stop	2150.0	1.0	29.0	stop	non-target	P	71,Index Finger	89,Middle Finger	500.0	600.0	2200.0	2150.0	0.0	600.0	0.0	n/a	stop_stim
141455.65906677069	200.34093322924446	n/a	639	89	2750	200.340933229	stim	stop-signal	638	1754206	0.0-25.29-1.29	beast_fmri_test	356	1751885,/,1752563,/,1753242,/,1753922,/	t,t,t,t	<img class = center src='/static/experiments/beast_fmri_test/images/P.png'></img>	71,89	2750.0	test	<img class = center src='/static/experiments/beast_fmri_test/images/redP.png'></img>	stop	2150.0	1.0	29.0	stop	non-target	P	71,Index Finger	89,Middle Finger	500.0	600.0	2200.0	2150.0	0.0	600.0	0.0	n/a	ITI
142421	500	n/a	-1	-1	500	0.0	fixation	poldrack-single-stim	639	1754971	0.0-25.30-0.30	beast_fmri_test	356	1754603,/	t	<div class = centerbox2><div class = fixation>+</div></div>	none	500.0	test	n/a	n/a	n/a	n/a	n/a	n/a	n/a	n/a	n/a	n/a	n/a	n/a	n/a	n/a	n/a	n/a	n/a	n/a	fixation
142219.69889225485	2750	n/a	1181	71	2750	202.301107745	stim	stop-signal	640	1757722	0.0-25.30-1.30	beast_fmri_test	356	1755282,/,1755963,/,1756640,/,1757322,/	t,t,t,t	<img class = center src='/static/experiments/beast_fmri_test/images/P.png'></img>	71,89	2750.0	test	<img class = center src='/static/experiments/beast_fmri_test/images/redP.png'></img>	go	2250.0	1.0	30.0	go	target	P	71,Index Finger	89,Middle Finger	500.0	550.0	2250.0	2150.0	1.0	500.0	n/a	1.0	go_stim
144969.69889225485	202.30110774523013	n/a	1181	71	2750	202.301107745	stim	stop-signal	640	1757722	0.0-25.30-1.30	beast_fmri_test	356	1755282,/,1755963,/,1756640,/,1757322,/	t,t,t,t	<img class = center src='/static/experiments/beast_fmri_test/images/P.png'></img>	71,89	2750.0	test	<img class = center src='/static/experiments/beast_fmri_test/images/redP.png'></img>	go	2250.0	1.0	30.0	go	target	P	71,Index Finger	89,Middle Finger	500.0	550.0	2250.0	2150.0	1.0	500.0	n/a	1.0	ITI
145943	500	n/a	-1	-1	500	0.0	fixation	poldrack-single-stim	641	1758493	0.0-25.31-0.31	beast_fmri_test	356	1758000,/	t	<div class = centerbox2><div class = fixation>+</div></div>	none	500.0	test	n/a	n/a	n/a	n/a	n/a	n/a	n/a	n/a	n/a	n/a	n/a	n/a	n/a	n/a	n/a	n/a	n/a	n/a	fixation
144505.83528634347	2750	n/a	718	89	2750	1439.16471366	stim	stop-signal	642	1761245	0.0-25.31-1.31	beast_fmri_test	356	1758682,/,1759361,/,1760042,/,1760720,/,1761400,/,1762080,/	t,t,t,t,t,t	<img class = center src='/static/experiments/beast_fmri_test/images/V.png'></img>	71,89	2750.0	test	<img class = center src='/static/experiments/beast_fmri_test/images/redV.png'></img>	go	2200.0	1.0	31.0	go	non-target	V	71,Index Finger	89,Middle Finger	500.0	550.0	2250.0	2200.0	1.0	550.0	n/a	1.0	go_stim
147255.83528634347	1439.1647136564745	n/a	718	89	2750	1439.16471366	stim	stop-signal	642	1761245	0.0-25.31-1.31	beast_fmri_test	356	1758682,/,1759361,/,1760042,/,1760720,/,1761400,/,1762080,/	t,t,t,t,t,t	<img class = center src='/static/experiments/beast_fmri_test/images/V.png'></img>	71,89	2750.0	test	<img class = center src='/static/experiments/beast_fmri_test/images/redV.png'></img>	go	2200.0	1.0	31.0	go	non-target	V	71,Index Finger	89,Middle Finger	500.0	550.0	2250.0	2200.0	1.0	550.0	n/a	1.0	ITI
150703	500	n/a	-1	-1	500	0.0	fixation	poldrack-single-stim	643	1763253	0.0-25.32-0.32	beast_fmri_test	356	1762761,/	t	<div class = centerbox2><div class = fixation>+</div></div>	none	500.0	test	n/a	n/a	n/a	n/a	n/a	n/a	n/a	n/a	n/a	n/a	n/a	n/a	n/a	n/a	n/a	n/a	n/a	n/a	fixation
149515.5630793157	2750	n/a	1042	71	2750	1189.43692068	stim	stop-signal	644	1766005	0.0-25.32-1.32	beast_fmri_test	356	1763439,/,1764119,/,1764797,/,1765478,/,1766158,/,1766838,/	t,t,t,t,t,t	<img class = center src='/static/experiments/beast_fmri_test/images/V.png'></img>	71,89	2750.0	test	<img class = center src='/static/experiments/beast_fmri_test/images/redV.png'></img>	go	2250.0	1.0	32.0	go	target	V	71,Index Finger	89,Middle Finger	500.0	550.0	2250.0	2200.0	1.0	500.0	n/a	1.0	go_stim
152265.5630793157	1189.4369206842907	n/a	1042	71	2750	1189.43692068	stim	stop-signal	644	1766005	0.0-25.32-1.32	beast_fmri_test	356	1763439,/,1764119,/,1764797,/,1765478,/,1766158,/,1766838,/	t,t,t,t,t,t	<img class = center src='/static/experiments/beast_fmri_test/images/V.png'></img>	71,89	2750.0	test	<img class = center src='/static/experiments/beast_fmri_test/images/redV.png'></img>	go	2250.0	1.0	32.0	go	target	V	71,Index Finger	89,Middle Finger	500.0	550.0	2250.0	2200.0	1.0	500.0	n/a	1.0	ITI
155211	500	n/a	-1	-1	500	0.0	fixation	poldrack-single-stim	645	1767761	0.0-25.33-0.33	beast_fmri_test	356	1767518,/	t	<div class = centerbox2><div class = fixation>+</div></div>	none	500.0	test	n/a	n/a	n/a	n/a	n/a	n/a	n/a	n/a	n/a	n/a	n/a	n/a	n/a	n/a	n/a	n/a	n/a	n/a	fixation
152667.97543768934	2750	n/a	757	71	2750	2544.02456231	stim	stop-signal	646	1770512	0.0-25.33-1.33	beast_fmri_test	356	1768196,/,1768875,/,1769555,/,1770236,/,1770915,/,1771595,/,1772274,/,1772953,/	t,t,t,t,t,t,t,t	<img class = center src='/static/experiments/beast_fmri_test/images/V.png'></img>	71,89	2750.0	test	<img class = center src='/static/experiments/beast_fmri_test/images/redV.png'></img>	go	2250.0	1.0	33.0	go	target	V	71,Index Finger	89,Middle Finger	500.0	550.0	2250.0	2200.0	1.0	500.0	n/a	1.0	go_stim
155417.97543768934	2544.0245623106416	n/a	757	71	2750	2544.02456231	stim	stop-signal	646	1770512	0.0-25.33-1.33	beast_fmri_test	356	1768196,/,1768875,/,1769555,/,1770236,/,1770915,/,1771595,/,1772274,/,1772953,/	t,t,t,t,t,t,t,t	<img class = center src='/static/experiments/beast_fmri_test/images/V.png'></img>	71,89	2750.0	test	<img class = center src='/static/experiments/beast_fmri_test/images/redV.png'></img>	go	2250.0	1.0	33.0	go	target	V	71,Index Finger	89,Middle Finger	500.0	550.0	2250.0	2200.0	1.0	500.0	n/a	1.0	ITI
161075	500	n/a	-1	-1	500	0.0	fixation	poldrack-single-stim	647	1773625	0.0-25.34-0.34	beast_fmri_test	356	n/a	n/a	<div class = centerbox2><div class = fixation>+</div></div>	none	500.0	test	n/a	n/a	n/a	n/a	n/a	n/a	n/a	n/a	n/a	n/a	n/a	n/a	n/a	n/a	n/a	n/a	n/a	n/a	fixation
160093.39054711279	550.0	n/a	-1	-1	2750	982.609452887	stim	stop-signal	648	1776376	0.0-25.34-1.34	beast_fmri_test	356	1773634,/,1774314,/,1774994,/,1775673,/,1776353,/,1777032,/	t,t,t,t,t,t	<img class = center src='/static/experiments/beast_fmri_test/images/D.png'></img>	71,89	2750.0	test	<img class = center src='/static/experiments/beast_fmri_test/images/redD.png'></img>	stop	2200.0	1.0	34.0	stop	non-target	D	71,Index Finger	89,Middle Finger	500.0	550.0	2250.0	2200.0	0.0	550.0	1.0	n/a	go_stim
162293.39054711279	2200.0	n/a	-1	-1	2750	982.609452887	stim	stop-signal	648	1776376	0.0-25.34-1.34	beast_fmri_test	356	1773634,/,1774314,/,1774994,/,1775673,/,1776353,/,1777032,/	t,t,t,t,t,t	<img class = center src='/static/experiments/beast_fmri_test/images/D.png'></img>	71,89	2750.0	test	<img class = center src='/static/experiments/beast_fmri_test/images/redD.png'></img>	stop	2200.0	1.0	34.0	stop	non-target	D	71,Index Finger	89,Middle Finger	500.0	550.0	2250.0	2200.0	0.0	550.0	1.0	n/a	stop_stim
162843.39054711279	982.60945288716277	n/a	-1	-1	2750	982.609452887	stim	stop-signal	648	1776376	0.0-25.34-1.34	beast_fmri_test	356	1773634,/,1774314,/,1774994,/,1775673,/,1776353,/,1777032,/	t,t,t,t,t,t	<img class = center src='/static/experiments/beast_fmri_test/images/D.png'></img>	71,89	2750.0	test	<img class = center src='/static/experiments/beast_fmri_test/images/redD.png'></img>	stop	2200.0	1.0	34.0	stop	non-target	D	71,Index Finger	89,Middle Finger	500.0	550.0	2250.0	2200.0	0.0	550.0	1.0	n/a	ITI
165379	500	n/a	-1	-1	500	0.0	fixation	poldrack-single-stim	649	1777929	0.0-25.35-0.35	beast_fmri_test	356	1777712,/	t	<div class = centerbox2><div class = fixation>+</div></div>	none	500.0	test	n/a	n/a	n/a	n/a	n/a	n/a	n/a	n/a	n/a	n/a	n/a	n/a	n/a	n/a	n/a	n/a	n/a	n/a	fixation
164524.37592413882	600.0	n/a	590	89	2750	855.624075861	stim	stop-signal	650	1780680	0.0-25.35-1.35	beast_fmri_test	356	1778391,/,1779072,/,1779751,/,1780431,/,1781110,/	t,t,t,t,t	<img class = center src='/static/experiments/beast_fmri_test/images/V.png'></img>	71,89	2750.0	test	<img class = center src='/static/experiments/beast_fmri_test/images/redV.png'></img>	stop	2150.0	1.0	35.0	stop	non-target	V	71,Index Finger	89,Middle Finger	500.0	600.0	2250.0	2150.0	0.0	600.0	0.0	n/a	go_stim
166674.37592413882	2150.0	n/a	590	89	2750	855.624075861	stim	stop-signal	650	1780680	0.0-25.35-1.35	beast_fmri_test	356	1778391,/,1779072,/,1779751,/,1780431,/,1781110,/	t,t,t,t,t	<img class = center src='/static/experiments/beast_fmri_test/images/V.png'></img>	71,89	2750.0	test	<img class = center src='/static/experiments/beast_fmri_test/images/redV.png'></img>	stop	2150.0	1.0	35.0	stop	non-target	V	71,Index Finger	89,Middle Finger	500.0	600.0	2250.0	2150.0	0.0	600.0	0.0	n/a	stop_stim
167274.37592413882	855.62407586111522	n/a	590	89	2750	855.624075861	stim	stop-signal	650	1780680	0.0-25.35-1.35	beast_fmri_test	356	1778391,/,1779072,/,1779751,/,1780431,/,1781110,/	t,t,t,t,t	<img class = center src='/static/experiments/beast_fmri_test/images/V.png'></img>	71,89	2750.0	test	<img class = center src='/static/experiments/beast_fmri_test/images/redV.png'></img>	stop	2150.0	1.0	35.0	stop	non-target	V	71,Index Finger	89,Middle Finger	500.0	600.0	2250.0	2150.0	0.0	600.0	0.0	n/a	ITI
169555	500	n/a	-1	-1	500	0.0	fixation	poldrack-single-stim	651	1782105	0.0-25.36-0.36	beast_fmri_test	356	1781790,/	t	<div class = centerbox2><div class = fixation>+</div></div>	none	500.0	test	n/a	n/a	n/a	n/a	n/a	n/a	n/a	n/a	n/a	n/a	n/a	n/a	n/a	n/a	n/a	n/a	n/a	n/a	fixation
168755.76545788278	2750	n/a	741	89	2750	801.234542117	stim	stop-signal	652	1784857	0.0-25.36-1.36	beast_fmri_test	356	1782469,/,1783148,/,1783828,/,1784507,/,1785187,/	t,t,t,t,t	<img class = center src='/static/experiments/beast_fmri_test/images/T.png'></img>	71,89	2750.0	test	<img class = center src='/static/experiments/beast_fmri_test/images/redT.png'></img>	go	2200.0	1.0	36.0	go	non-target	T	71,Index Finger	89,Middle Finger	500.0	550.0	2250.0	2200.0	1.0	550.0	n/a	1.0	go_stim
171505.76545788278	801.2345421173261	n/a	741	89	2750	801.234542117	stim	stop-signal	652	1784857	0.0-25.36-1.36	beast_fmri_test	356	1782469,/,1783148,/,1783828,/,1784507,/,1785187,/	t,t,t,t,t	<img class = center src='/static/experiments/beast_fmri_test/images/T.png'></img>	71,89	2750.0	test	<img class = center src='/static/experiments/beast_fmri_test/images/redT.png'></img>	go	2200.0	1.0	36.0	go	non-target	T	71,Index Finger	89,Middle Finger	500.0	550.0	2250.0	2200.0	1.0	550.0	n/a	1.0	ITI
173674	500	n/a	-1	-1	500	0.0	fixation	poldrack-single-stim	653	1786224	0.0-25.37-0.37	beast_fmri_test	356	1785868,/	t	<div class = centerbox2><div class = fixation>+</div></div>	none	500.0	test	n/a	n/a	n/a	n/a	n/a	n/a	n/a	n/a	n/a	n/a	n/a	n/a	n/a	n/a	n/a	n/a	n/a	n/a	fixation
173572.99362050695	2750	n/a	729	89	2750	103.006379493	stim	stop-signal	654	1788976	0.0-25.37-1.37	beast_fmri_test	356	1786547,/,1787226,/,1787908,/,1788586,/	t,t,t,t	<img class = center src='/static/experiments/beast_fmri_test/images/D.png'></img>	71,89	2750.0	test	<img class = center src='/static/experiments/beast_fmri_test/images/redD.png'></img>	go	2200.0	1.0	37.0	go	non-target	D	71,Index Finger	89,Middle Finger	500.0	550.0	2250.0	2200.0	1.0	550.0	n/a	1.0	go_stim
176322.99362050695	103.00637949313726	n/a	729	89	2750	103.006379493	stim	stop-signal	654	1788976	0.0-25.37-1.37	beast_fmri_test	356	1786547,/,1787226,/,1787908,/,1788586,/	t,t,t,t	<img class = center src='/static/experiments/beast_fmri_test/images/D.png'></img>	71,89	2750.0	test	<img class = center src='/static/experiments/beast_fmri_test/images/redD.png'></img>	go	2200.0	1.0	37.0	go	non-target	D	71,Index Finger	89,Middle Finger	500.0	550.0	2250.0	2200.0	1.0	550.0	n/a	1.0	ITI
177106	500	n/a	-1	-1	500	0.0	fixation	poldrack-single-stim	655	1789656	0.0-25.38-0.38	beast_fmri_test	356	1789268,/	t	<div class = centerbox2><div class = fixation>+</div></div>	none	500.0	test	n/a	n/a	n/a	n/a	n/a	n/a	n/a	n/a	n/a	n/a	n/a	n/a	n/a	n/a	n/a	n/a	n/a	n/a	fixation
175679.05038637575	2750	n/a	866	71	2750	1427.94961362	stim	stop-signal	656	1792407	0.0-25.38-1.38	beast_fmri_test	356	1789948,/,1790627,/,1791306,/,1791985,/,1792666,/,1793346,/	t,t,t,t,t,t	<img class = center src='/static/experiments/beast_fmri_test/images/D.png'></img>	71,89	2750.0	test	<img class = center src='/static/experiments/beast_fmri_test/images/redD.png'></img>	go	2250.0	1.0	38.0	go	target	D	71,Index Finger	89,Middle Finger	500.0	550.0	2250.0	2200.0	1.0	500.0	n/a	1.0	go_stim
178429.05038637575	1427.9496136242894	n/a	866	71	2750	1427.94961362	stim	stop-signal	656	1792407	0.0-25.38-1.38	beast_fmri_test	356	1789948,/,1790627,/,1791306,/,1791985,/,1792666,/,1793346,/	t,t,t,t,t,t	<img class = center src='/static/experiments/beast_fmri_test/images/D.png'></img>	71,89	2750.0	test	<img class = center src='/static/experiments/beast_fmri_test/images/redD.png'></img>	go	2250.0	1.0	38.0	go	target	D	71,Index Finger	89,Middle Finger	500.0	550.0	2250.0	2200.0	1.0	500.0	n/a	1.0	ITI
181859	500	n/a	-1	-1	500	0.0	fixation	poldrack-single-stim	657	1794409	0.0-25.39-0.39	beast_fmri_test	356	1794026,/	t	<div class = centerbox2><div class = fixation>+</div></div>	none	500.0	test	n/a	n/a	n/a	n/a	n/a	n/a	n/a	n/a	n/a	n/a	n/a	n/a	n/a	n/a	n/a	n/a	n/a	n/a	fixation
181498.04357316485	2750	n/a	807	71	2750	362.956426835	stim	stop-signal	658	1797161	0.0-25.39-1.39	beast_fmri_test	356	1794705,/,1795385,/,1796063,/,1796744,/,1797423,/	t,t,t,t,t	<img class = center src='/static/experiments/beast_fmri_test/images/D.png'></img>	71,89	2750.0	test	<img class = center src='/static/experiments/beast_fmri_test/images/redD.png'></img>	go	2250.0	1.0	39.0	go	target	D	71,Index Finger	89,Middle Finger	500.0	550.0	2250.0	2200.0	1.0	500.0	n/a	1.0	go_stim
184248.04357316485	362.9564268352575	n/a	807	71	2750	362.956426835	stim	stop-signal	658	1797161	0.0-25.39-1.39	beast_fmri_test	356	1794705,/,1795385,/,1796063,/,1796744,/,1797423,/	t,t,t,t,t	<img class = center src='/static/experiments/beast_fmri_test/images/D.png'></img>	71,89	2750.0	test	<img class = center src='/static/experiments/beast_fmri_test/images/redD.png'></img>	go	2250.0	1.0	39.0	go	target	D	71,Index Finger	89,Middle Finger	500.0	550.0	2250.0	2200.0	1.0	500.0	n/a	1.0	ITI
185547	500	n/a	-1	-1	500	0.0	fixation	poldrack-single-stim	659	1798097	0.0-25.40-0.40	beast_fmri_test	356	n/a	n/a	<div class = centerbox2><div class = fixation>+</div></div>	none	500.0	test	n/a	n/a	n/a	n/a	n/a	n/a	n/a	n/a	n/a	n/a	n/a	n/a	n/a	n/a	n/a	n/a	n/a	n/a	fixation
184260.49759878824	2750	n/a	777	89	2750	1288.50240121	stim	stop-signal	660	1800849	0.0-25.40-1.40	beast_fmri_test	356	1798103,/,1798783,/,1799463,/,1800142,/,1800822,/,1801500,/	t,t,t,t,t,t	<img class = center src='/static/experiments/beast_fmri_test/images/T.png'></img>	71,89	2750.0	test	<img class = center src='/static/experiments/beast_fmri_test/images/redT.png'></img>	go	2200.0	1.0	40.0	go	non-target	T	71,Index Finger	89,Middle Finger	500.0	550.0	2250.0	2200.0	1.0	550.0	n/a	1.0	go_stim
187010.49759878824	1288.5024012117069	n/a	777	89	2750	1288.50240121	stim	stop-signal	660	1800849	0.0-25.40-1.40	beast_fmri_test	356	1798103,/,1798783,/,1799463,/,1800142,/,1800822,/,1801500,/	t,t,t,t,t,t	<img class = center src='/static/experiments/beast_fmri_test/images/T.png'></img>	71,89	2750.0	test	<img class = center src='/static/experiments/beast_fmri_test/images/redT.png'></img>	go	2200.0	1.0	40.0	go	non-target	T	71,Index Finger	89,Middle Finger	500.0	550.0	2250.0	2200.0	1.0	550.0	n/a	1.0	ITI
190161	500	n/a	-1	-1	500	0.0	fixation	poldrack-single-stim	661	1802711	0.0-25.41-0.41	beast_fmri_test	356	1802209,/	t	<div class = centerbox2><div class = fixation>+</div></div>	none	500.0	test	n/a	n/a	n/a	n/a	n/a	n/a	n/a	n/a	n/a	n/a	n/a	n/a	n/a	n/a	n/a	n/a	n/a	n/a	fixation
189700.79695612239	2750	n/a	761	89	2750	462.203043878	stim	stop-signal	662	1805463	0.0-25.41-1.41	beast_fmri_test	356	1802860,/,1803540,/,1804220,/,1804900,/,1805579,/	t,t,t,t,t	<img class = center src='/static/experiments/beast_fmri_test/images/P.png'></img>	71,89	2750.0	test	<img class = center src='/static/experiments/beast_fmri_test/images/redP.png'></img>	go	2200.0	1.0	41.0	go	non-target	P	71,Index Finger	89,Middle Finger	500.0	550.0	2250.0	2200.0	1.0	550.0	n/a	1.0	go_stim
192450.79695612239	462.20304387751463	n/a	761	89	2750	462.203043878	stim	stop-signal	662	1805463	0.0-25.41-1.41	beast_fmri_test	356	1802860,/,1803540,/,1804220,/,1804900,/,1805579,/	t,t,t,t,t	<img class = center src='/static/experiments/beast_fmri_test/images/P.png'></img>	71,89	2750.0	test	<img class = center src='/static/experiments/beast_fmri_test/images/redP.png'></img>	go	2200.0	1.0	41.0	go	non-target	P	71,Index Finger	89,Middle Finger	500.0	550.0	2250.0	2200.0	1.0	550.0	n/a	1.0	ITI
193950	500	n/a	-1	-1	500	0.0	fixation	poldrack-single-stim	663	1806500	0.0-25.42-0.42	beast_fmri_test	356	1806259,/	t	<div class = centerbox2><div class = fixation>+</div></div>	none	500.0	test	n/a	n/a	n/a	n/a	n/a	n/a	n/a	n/a	n/a	n/a	n/a	n/a	n/a	n/a	n/a	n/a	n/a	n/a	fixation
193940.0128490522	500.0	n/a	635	71	2750	10.9871509479	stim	stop-signal	664	1809251	0.0-25.42-1.42	beast_fmri_test	356	1806939,/,1807619,/,1808298,/,1808978,/	t,t,t,t	<img class = center src='/static/experiments/beast_fmri_test/images/P.png'></img>	71,89	2750.0	test	<img class = center src='/static/experiments/beast_fmri_test/images/redP.png'></img>	stop	2250.0	1.0	42.0	stop	target	P	71,Index Finger	89,Middle Finger	500.0	550.0	2250.0	2200.0	0.0	500.0	0.0	n/a	go_stim
196190.0128490522	2250.0	n/a	635	71	2750	10.9871509479	stim	stop-signal	664	1809251	0.0-25.42-1.42	beast_fmri_test	356	1806939,/,1807619,/,1808298,/,1808978,/	t,t,t,t	<img class = center src='/static/experiments/beast_fmri_test/images/P.png'></img>	71,89	2750.0	test	<img class = center src='/static/experiments/beast_fmri_test/images/redP.png'></img>	stop	2250.0	1.0	42.0	stop	target	P	71,Index Finger	89,Middle Finger	500.0	550.0	2250.0	2200.0	0.0	500.0	0.0	n/a	stop_stim
196690.0128490522	10.987150947850566	n/a	635	71	2750	10.9871509479	stim	stop-signal	664	1809251	0.0-25.42-1.42	beast_fmri_test	356	1806939,/,1807619,/,1808298,/,1808978,/	t,t,t,t	<img class = center src='/static/experiments/beast_fmri_test/images/P.png'></img>	71,89	2750.0	test	<img class = center src='/static/experiments/beast_fmri_test/images/redP.png'></img>	stop	2250.0	1.0	42.0	stop	target	P	71,Index Finger	89,Middle Finger	500.0	550.0	2250.0	2200.0	0.0	500.0	0.0	n/a	ITI
197280	500	n/a	-1	-1	500	0.0	fixation	poldrack-single-stim	665	1809830	0.0-25.43-0.43	beast_fmri_test	356	1809657,/	t	<div class = centerbox2><div class = fixation>+</div></div>	none	500.0	test	n/a	n/a	n/a	n/a	n/a	n/a	n/a	n/a	n/a	n/a	n/a	n/a	n/a	n/a	n/a	n/a	n/a	n/a	fixation
194718.19753359072	550.0	n/a	-1	-1	2750	2562.80246641	stim	stop-signal	666	1812581	0.0-25.43-1.43	beast_fmri_test	356	1810337,/,1811017,/,1811696,/,1812376,/,1813055,/,1813736,/,1814415,/,1815095,/	t,t,t,t,t,t,t,t	<img class = center src='/static/experiments/beast_fmri_test/images/T.png'></img>	71,89	2750.0	test	<img class = center src='/static/experiments/beast_fmri_test/images/redT.png'></img>	stop	2200.0	1.0	43.0	stop	non-target	T	71,Index Finger	89,Middle Finger	450.0	550.0	2250.0	2200.0	0.0	550.0	1.0	n/a	go_stim
196918.19753359072	2200.0	n/a	-1	-1	2750	2562.80246641	stim	stop-signal	666	1812581	0.0-25.43-1.43	beast_fmri_test	356	1810337,/,1811017,/,1811696,/,1812376,/,1813055,/,1813736,/,1814415,/,1815095,/	t,t,t,t,t,t,t,t	<img class = center src='/static/experiments/beast_fmri_test/images/T.png'></img>	71,89	2750.0	test	<img class = center src='/static/experiments/beast_fmri_test/images/redT.png'></img>	stop	2200.0	1.0	43.0	stop	non-target	T	71,Index Finger	89,Middle Finger	450.0	550.0	2250.0	2200.0	0.0	550.0	1.0	n/a	stop_stim
197468.19753359072	2562.8024664092818	n/a	-1	-1	2750	2562.80246641	stim	stop-signal	666	1812581	0.0-25.43-1.43	beast_fmri_test	356	1810337,/,1811017,/,1811696,/,1812376,/,1813055,/,1813736,/,1814415,/,1815095,/	t,t,t,t,t,t,t,t	<img class = center src='/static/experiments/beast_fmri_test/images/T.png'></img>	71,89	2750.0	test	<img class = center src='/static/experiments/beast_fmri_test/images/redT.png'></img>	stop	2200.0	1.0	43.0	stop	non-target	T	71,Index Finger	89,Middle Finger	450.0	550.0	2250.0	2200.0	0.0	550.0	1.0	n/a	ITI
203164	500	n/a	-1	-1	500	0.0	fixation	poldrack-single-stim	667	1815714	0.0-25.44-0.44	beast_fmri_test	356	n/a	n/a	<div class = centerbox2><div class = fixation>+</div></div>	none	500.0	test	n/a	n/a	n/a	n/a	n/a	n/a	n/a	n/a	n/a	n/a	n/a	n/a	n/a	n/a	n/a	n/a	n/a	n/a	fixation
202599.03638366214	2750	n/a	628	89	2750	566.963616338	stim	stop-signal	668	1818466	0.0-25.44-1.44	beast_fmri_test	356	1815773,/,1816454,/,1817132,/,1817814,/,1818492,/	t,t,t,t,t	<img class = center src='/static/experiments/beast_fmri_test/images/V.png'></img>	71,89	2750.0	test	<img class = center src='/static/experiments/beast_fmri_test/images/redV.png'></img>	go	2150.0	1.0	44.0	go	non-target	V	71,Index Finger	89,Middle Finger	450.0	600.0	2250.0	2150.0	1.0	600.0	n/a	1.0	go_stim
205349.03638366214	566.96361633778531	n/a	628	89	2750	566.963616338	stim	stop-signal	668	1818466	0.0-25.44-1.44	beast_fmri_test	356	1815773,/,1816454,/,1817132,/,1817814,/,1818492,/	t,t,t,t,t	<img class = center src='/static/experiments/beast_fmri_test/images/V.png'></img>	71,89	2750.0	test	<img class = center src='/static/experiments/beast_fmri_test/images/redV.png'></img>	go	2150.0	1.0	44.0	go	non-target	V	71,Index Finger	89,Middle Finger	450.0	600.0	2250.0	2150.0	1.0	600.0	n/a	1.0	ITI
207051	500	n/a	-1	-1	500	0.0	fixation	poldrack-single-stim	669	1819601	0.0-25.45-0.45	beast_fmri_test	356	1819172,/	t	<div class = centerbox2><div class = fixation>+</div></div>	none	500.0	test	n/a	n/a	n/a	n/a	n/a	n/a	n/a	n/a	n/a	n/a	n/a	n/a	n/a	n/a	n/a	n/a	n/a	n/a	fixation
206608.81018128316	2750	n/a	1496	89	2750	443.189818717	stim	stop-signal	670	1822352	0.0-25.45-1.45	beast_fmri_test	356	1819853,/,1820532,/,1821213,/,1821892,/,1822571,/	t,t,t,t,t	<img class = center src='/static/experiments/beast_fmri_test/images/D.png'></img>	71,89	2750.0	test	<img class = center src='/static/experiments/beast_fmri_test/images/redD.png'></img>	go	2150.0	1.0	45.0	go	non-target	D	71,Index Finger	89,Middle Finger	450.0	600.0	2250.0	2150.0	1.0	600.0	n/a	1.0	go_stim
209358.81018128316	443.18981871695161	n/a	1496	89	2750	443.189818717	stim	stop-signal	670	1822352	0.0-25.45-1.45	beast_fmri_test	356	1819853,/,1820532,/,1821213,/,1821892,/,1822571,/	t,t,t,t,t	<img class = center src='/static/experiments/beast_fmri_test/images/D.png'></img>	71,89	2750.0	test	<img class = center src='/static/experiments/beast_fmri_test/images/redD.png'></img>	go	2150.0	1.0	45.0	go	non-target	D	71,Index Finger	89,Middle Finger	450.0	600.0	2250.0	2150.0	1.0	600.0	n/a	1.0	ITI
225313	15000	n/a	-1	-1	15000	0.0	practice-no-stop-feedback	poldrack-single-stim	671	1837863	0.0-26.0	beast_fmri_test	356	1823252,/,1823932,/,1824611,/,1825290,/,1825971,/,1826650,/,1827329,/,1828010,/,1828688,/,1829368,/,1830048,/,1830727,/,1831408,/,1832087,/,1832767,/,1833446,/,1834126,/,1834805,/,1835486,/,1836164,/,1836846,/,1837524,/	t,t,t,t,t,t,t,t,t,t,t,t,t,t,t,t,t,t,t,t,t,t	"<div class = ""centerbox""><p class = ""block-text"">Your delay is 2 trials.</p><p class = block-text>Please wait for the scanner to start the block</p></div>"	77	15000.0	n/a	n/a	n/a	n/a	n/a	n/a	n/a	n/a	n/a	n/a	n/a	n/a	n/a	n/a	n/a	n/a	n/a	n/a	n/a	practice-no-stop-feedback
225814	500	n/a	-1	-1	500	0.0	fixation	poldrack-single-stim	672	1838364	0.0-27.0-0.0	beast_fmri_test	356	1838203,/	t	<div class = centerbox2><div class = fixation>+</div></div>	none	500.0	test	n/a	n/a	n/a	n/a	n/a	n/a	n/a	n/a	n/a	n/a	n/a	n/a	n/a	n/a	n/a	n/a	n/a	n/a	fixation
225659.44816144719	2750	n/a	818	89	2750	155.551838553	stim	stop-signal	673	1841115	0.0-27.0-1.0	beast_fmri_test	356	1838884,/,1839563,/,1840242,/,1840923,/	t,t,t,t	<img class = center src='/static/experiments/beast_fmri_test/images/P.png'></img>	71,89	2750.0	test	<img class = center src='/static/experiments/beast_fmri_test/images/redP.png'></img>	go	-1.0	2.0	0.0	go	temp-non-target	P	71,Index Finger	89,Middle Finger	450.0	600.0	2250.0	2150.0	0.0	n/a	n/a	n/a	go_stim
228409.44816144719	155.55183855289337	n/a	818	89	2750	155.551838553	stim	stop-signal	673	1841115	0.0-27.0-1.0	beast_fmri_test	356	1838884,/,1839563,/,1840242,/,1840923,/	t,t,t,t	<img class = center src='/static/experiments/beast_fmri_test/images/P.png'></img>	71,89	2750.0	test	<img class = center src='/static/experiments/beast_fmri_test/images/redP.png'></img>	go	-1.0	2.0	0.0	go	temp-non-target	P	71,Index Finger	89,Middle Finger	450.0	600.0	2250.0	2150.0	0.0	n/a	n/a	n/a	ITI
229296	500	n/a	-1	-1	500	0.0	fixation	poldrack-single-stim	674	1841846	0.0-27.1-0.1	beast_fmri_test	356	1841603,/	t	<div class = centerbox2><div class = fixation>+</div></div>	none	500.0	test	n/a	n/a	n/a	n/a	n/a	n/a	n/a	n/a	n/a	n/a	n/a	n/a	n/a	n/a	n/a	n/a	n/a	n/a	fixation
229000.29263472697	temp_go_duration	n/a	678	89	2750	296.707365273	stim	stop-signal	675	1844597	0.0-27.1-1.1	beast_fmri_test	356	1842282,/,1842962,/,1843641,/,1844322,/	t,t,t,t	<img class = center src='/static/experiments/beast_fmri_test/images/B.png'></img>	71,89	2750.0	test	<img class = center src='/static/experiments/beast_fmri_test/images/redB.png'></img>	stop	-1.0	2.0	1.0	stop	temp-non-target	B	71,Index Finger	89,Middle Finger	450.0	600.0	2250.0	2150.0	0.0	n/a	0.0	n/a	go_stim
temp-non-target	temp_stop_duration	n/a	678	89	2750	296.707365273	stim	stop-signal	675	1844597	0.0-27.1-1.1	beast_fmri_test	356	1842282,/,1842962,/,1843641,/,1844322,/	t,t,t,t	<img class = center src='/static/experiments/beast_fmri_test/images/B.png'></img>	71,89	2750.0	test	<img class = center src='/static/experiments/beast_fmri_test/images/redB.png'></img>	stop	-1.0	2.0	1.0	stop	temp-non-target	B	71,Index Finger	89,Middle Finger	450.0	600.0	2250.0	2150.0	0.0	n/a	0.0	n/a	stop_stim
231750.29263472697	296.70736527299619	n/a	678	89	2750	296.707365273	stim	stop-signal	675	1844597	0.0-27.1-1.1	beast_fmri_test	356	1842282,/,1842962,/,1843641,/,1844322,/	t,t,t,t	<img class = center src='/static/experiments/beast_fmri_test/images/B.png'></img>	71,89	2750.0	test	<img class = center src='/static/experiments/beast_fmri_test/images/redB.png'></img>	stop	-1.0	2.0	1.0	stop	temp-non-target	B	71,Index Finger	89,Middle Finger	450.0	600.0	2250.0	2150.0	0.0	n/a	0.0	n/a	ITI
232923	500	n/a	-1	-1	500	0.0	fixation	poldrack-single-stim	676	1845473	0.0-27.2-0.2	beast_fmri_test	356	1845001,/	t	<div class = centerbox2><div class = fixation>+</div></div>	none	500.0	test	n/a	n/a	n/a	n/a	n/a	n/a	n/a	n/a	n/a	n/a	n/a	n/a	n/a	n/a	n/a	n/a	n/a	n/a	fixation
231768.42534791259	600.0	n/a	607	89	2750	1156.57465209	stim	stop-signal	677	1848225	0.0-27.2-1.2	beast_fmri_test	356	1845681,/,1846361,/,1847041,/,1847719,/,1848400,/,1849078,/	t,t,t,t,t,t	<img class = center src='/static/experiments/beast_fmri_test/images/V.png'></img>	71,89	2750.0	test	<img class = center src='/static/experiments/beast_fmri_test/images/redV.png'></img>	stop	2150.0	2.0	2.0	stop	non-target	V	71,Index Finger	89,Middle Finger	450.0	600.0	2250.0	2150.0	0.0	600.0	0.0	n/a	go_stim
233918.42534791259	2150.0	n/a	607	89	2750	1156.57465209	stim	stop-signal	677	1848225	0.0-27.2-1.2	beast_fmri_test	356	1845681,/,1846361,/,1847041,/,1847719,/,1848400,/,1849078,/	t,t,t,t,t,t	<img class = center src='/static/experiments/beast_fmri_test/images/V.png'></img>	71,89	2750.0	test	<img class = center src='/static/experiments/beast_fmri_test/images/redV.png'></img>	stop	2150.0	2.0	2.0	stop	non-target	V	71,Index Finger	89,Middle Finger	450.0	600.0	2250.0	2150.0	0.0	600.0	0.0	n/a	stop_stim
234518.42534791259	1156.5746520874716	n/a	607	89	2750	1156.57465209	stim	stop-signal	677	1848225	0.0-27.2-1.2	beast_fmri_test	356	1845681,/,1846361,/,1847041,/,1847719,/,1848400,/,1849078,/	t,t,t,t,t,t	<img class = center src='/static/experiments/beast_fmri_test/images/V.png'></img>	71,89	2750.0	test	<img class = center src='/static/experiments/beast_fmri_test/images/redV.png'></img>	stop	2150.0	2.0	2.0	stop	non-target	V	71,Index Finger	89,Middle Finger	450.0	600.0	2250.0	2150.0	0.0	600.0	0.0	n/a	ITI
237405	500	n/a	-1	-1	500	0.0	fixation	poldrack-single-stim	678	1849955	0.0-27.3-0.3	beast_fmri_test	356	1849760,/	t	<div class = centerbox2><div class = fixation>+</div></div>	none	500.0	test	n/a	n/a	n/a	n/a	n/a	n/a	n/a	n/a	n/a	n/a	n/a	n/a	n/a	n/a	n/a	n/a	n/a	n/a	fixation
236387.05547833722	2750	n/a	550	89	2750	1020.94452166	stim	stop-signal	679	1852708	0.0-27.3-1.3	beast_fmri_test	356	1850439,/,1851119,/,1851798,/,1852478,/,1853156,/	t,t,t,t,t	<img class = center src='/static/experiments/beast_fmri_test/images/P.png'></img>	71,89	2750.0	test	<img class = center src='/static/experiments/beast_fmri_test/images/redP.png'></img>	go	2200.0	2.0	3.0	go	non-target	P	71,Index Finger	89,Middle Finger	450.0	550.0	2250.0	2200.0	1.0	550.0	n/a	1.0	go_stim
239137.05547833722	1020.9445216628146	n/a	550	89	2750	1020.94452166	stim	stop-signal	679	1852708	0.0-27.3-1.3	beast_fmri_test	356	1850439,/,1851119,/,1851798,/,1852478,/,1853156,/	t,t,t,t,t	<img class = center src='/static/experiments/beast_fmri_test/images/P.png'></img>	71,89	2750.0	test	<img class = center src='/static/experiments/beast_fmri_test/images/redP.png'></img>	go	2200.0	2.0	3.0	go	non-target	P	71,Index Finger	89,Middle Finger	450.0	550.0	2250.0	2200.0	1.0	550.0	n/a	1.0	ITI
241752	500	n/a	-1	-1	500	0.0	fixation	poldrack-single-stim	680	1854302	0.0-27.4-0.4	beast_fmri_test	356	1853836,/	t	<div class = centerbox2><div class = fixation>+</div></div>	none	500.0	test	n/a	n/a	n/a	n/a	n/a	n/a	n/a	n/a	n/a	n/a	n/a	n/a	n/a	n/a	n/a	n/a	n/a	n/a	fixation
241335.75442622788	550.0	n/a	-1	-1	2750	418.245573772	stim	stop-signal	681	1857054	0.0-27.4-1.4	beast_fmri_test	356	1854516,/,1855197,/,1855876,/,1856556,/,1857235,/	t,t,t,t,t	<img class = center src='/static/experiments/beast_fmri_test/images/P.png'></img>	71,89	2750.0	test	<img class = center src='/static/experiments/beast_fmri_test/images/redP.png'></img>	stop	2200.0	2.0	4.0	stop	non-target	P	71,Index Finger	89,Middle Finger	450.0	550.0	2250.0	2200.0	0.0	550.0	1.0	n/a	go_stim
243535.75442622788	2200.0	n/a	-1	-1	2750	418.245573772	stim	stop-signal	681	1857054	0.0-27.4-1.4	beast_fmri_test	356	1854516,/,1855197,/,1855876,/,1856556,/,1857235,/	t,t,t,t,t	<img class = center src='/static/experiments/beast_fmri_test/images/P.png'></img>	71,89	2750.0	test	<img class = center src='/static/experiments/beast_fmri_test/images/redP.png'></img>	stop	2200.0	2.0	4.0	stop	non-target	P	71,Index Finger	89,Middle Finger	450.0	550.0	2250.0	2200.0	0.0	550.0	1.0	n/a	stop_stim
244085.75442622788	418.24557377202638	n/a	-1	-1	2750	418.245573772	stim	stop-signal	681	1857054	0.0-27.4-1.4	beast_fmri_test	356	1854516,/,1855197,/,1855876,/,1856556,/,1857235,/	t,t,t,t,t	<img class = center src='/static/experiments/beast_fmri_test/images/P.png'></img>	71,89	2750.0	test	<img class = center src='/static/experiments/beast_fmri_test/images/redP.png'></img>	stop	2200.0	2.0	4.0	stop	non-target	P	71,Index Finger	89,Middle Finger	450.0	550.0	2250.0	2200.0	0.0	550.0	1.0	n/a	ITI
245495	500	n/a	-1	-1	500	0.0	fixation	poldrack-single-stim	682	1858045	0.0-27.5-0.5	beast_fmri_test	356	1857915,/	t	<div class = centerbox2><div class = fixation>+</div></div>	none	500.0	test	n/a	n/a	n/a	n/a	n/a	n/a	n/a	n/a	n/a	n/a	n/a	n/a	n/a	n/a	n/a	n/a	n/a	n/a	fixation
245184.04725483106	2750	n/a	979	89	2750	311.952745169	stim	stop-signal	683	1860796	0.0-27.5-1.5	beast_fmri_test	356	1858594,/,1859273,/,1859954,/,1860634,/	t,t,t,t	<img class = center src='/static/experiments/beast_fmri_test/images/V.png'></img>	71,89	2750.0	test	<img class = center src='/static/experiments/beast_fmri_test/images/redV.png'></img>	go	2150.0	2.0	5.0	go	non-target	V	71,Index Finger	89,Middle Finger	450.0	600.0	2250.0	2150.0	1.0	600.0	n/a	1.0	go_stim
247934.04725483106	311.95274516900469	n/a	979	89	2750	311.952745169	stim	stop-signal	683	1860796	0.0-27.5-1.5	beast_fmri_test	356	1858594,/,1859273,/,1859954,/,1860634,/	t,t,t,t	<img class = center src='/static/experiments/beast_fmri_test/images/V.png'></img>	71,89	2750.0	test	<img class = center src='/static/experiments/beast_fmri_test/images/redV.png'></img>	go	2150.0	2.0	5.0	go	non-target	V	71,Index Finger	89,Middle Finger	450.0	600.0	2250.0	2150.0	1.0	600.0	n/a	1.0	ITI
249132	500	n/a	-1	-1	500	0.0	fixation	poldrack-single-stim	684	1861682	0.0-27.6-0.6	beast_fmri_test	356	1861313,/	t	<div class = centerbox2><div class = fixation>+</div></div>	none	500.0	test	n/a	n/a	n/a	n/a	n/a	n/a	n/a	n/a	n/a	n/a	n/a	n/a	n/a	n/a	n/a	n/a	n/a	n/a	fixation
248667.27765235025	600.0	n/a	1102	89	2750	466.72234765	stim	stop-signal	685	1864434	0.0-27.6-1.6	beast_fmri_test	356	1861994,/,1862673,/,1863352,/,1864033,/,1864712,/	t,t,t,t,t	<img class = center src='/static/experiments/beast_fmri_test/images/V.png'></img>	71,89	2750.0	test	<img class = center src='/static/experiments/beast_fmri_test/images/redV.png'></img>	stop	2150.0	2.0	6.0	stop	non-target	V	71,Index Finger	89,Middle Finger	450.0	600.0	2250.0	2150.0	0.0	600.0	0.0	n/a	go_stim
250817.27765235025	2150.0	n/a	1102	89	2750	466.72234765	stim	stop-signal	685	1864434	0.0-27.6-1.6	beast_fmri_test	356	1861994,/,1862673,/,1863352,/,1864033,/,1864712,/	t,t,t,t,t	<img class = center src='/static/experiments/beast_fmri_test/images/V.png'></img>	71,89	2750.0	test	<img class = center src='/static/experiments/beast_fmri_test/images/redV.png'></img>	stop	2150.0	2.0	6.0	stop	non-target	V	71,Index Finger	89,Middle Finger	450.0	600.0	2250.0	2150.0	0.0	600.0	0.0	n/a	stop_stim
251417.27765235025	466.72234764974962	n/a	1102	89	2750	466.72234765	stim	stop-signal	685	1864434	0.0-27.6-1.6	beast_fmri_test	356	1861994,/,1862673,/,1863352,/,1864033,/,1864712,/	t,t,t,t,t	<img class = center src='/static/experiments/beast_fmri_test/images/V.png'></img>	71,89	2750.0	test	<img class = center src='/static/experiments/beast_fmri_test/images/redV.png'></img>	stop	2150.0	2.0	6.0	stop	non-target	V	71,Index Finger	89,Middle Finger	450.0	600.0	2250.0	2150.0	0.0	600.0	0.0	n/a	ITI
252922	500	n/a	-1	-1	500	0.0	fixation	poldrack-single-stim	686	1865472	0.0-27.7-0.7	beast_fmri_test	356	1865392,/	t	<div class = centerbox2><div class = fixation>+</div></div>	none	500.0	test	n/a	n/a	n/a	n/a	n/a	n/a	n/a	n/a	n/a	n/a	n/a	n/a	n/a	n/a	n/a	n/a	n/a	n/a	fixation
252919.28492480377	2750	n/a	1050	89	2750	4.71507519635	stim	stop-signal	687	1868224	0.0-27.7-1.7	beast_fmri_test	356	1866072,/,1866751,/,1867430,/,1868110,/	t,t,t,t	<img class = center src='/static/experiments/beast_fmri_test/images/B.png'></img>	71,89	2750.0	test	<img class = center src='/static/experiments/beast_fmri_test/images/redB.png'></img>	go	2200.0	2.0	7.0	go	non-target	B	71,Index Finger	89,Middle Finger	450.0	550.0	2250.0	2200.0	1.0	550.0	n/a	1.0	go_stim
255669.28492480377	4.7150751963481365	n/a	1050	89	2750	4.71507519635	stim	stop-signal	687	1868224	0.0-27.7-1.7	beast_fmri_test	356	1866072,/,1866751,/,1867430,/,1868110,/	t,t,t,t	<img class = center src='/static/experiments/beast_fmri_test/images/B.png'></img>	71,89	2750.0	test	<img class = center src='/static/experiments/beast_fmri_test/images/redB.png'></img>	go	2200.0	2.0	7.0	go	non-target	B	71,Index Finger	89,Middle Finger	450.0	550.0	2250.0	2200.0	1.0	550.0	n/a	1.0	ITI
256251	500	n/a	-1	-1	500	0.0	fixation	poldrack-single-stim	688	1868801	0.0-27.8-0.8	beast_fmri_test	356	1868791,/	t	<div class = centerbox2><div class = fixation>+</div></div>	none	500.0	test	n/a	n/a	n/a	n/a	n/a	n/a	n/a	n/a	n/a	n/a	n/a	n/a	n/a	n/a	n/a	n/a	n/a	n/a	fixation
254502.59444361716	2750	n/a	675	71	2750	1750.40555638	stim	stop-signal	689	1871553	0.0-27.8-1.8	beast_fmri_test	356	1869469,/,1870148,/,1870830,/,1871508,/,1872188,/,1872868,/	t,t,t,t,t,t	<img class = center src='/static/experiments/beast_fmri_test/images/V.png'></img>	71,89	2750.0	test	<img class = center src='/static/experiments/beast_fmri_test/images/redV.png'></img>	go	2300.0	2.0	8.0	go	target	V	71,Index Finger	89,Middle Finger	450.0	550.0	2300.0	2200.0	1.0	450.0	n/a	1.0	go_stim
257252.59444361716	1750.4055563829324	n/a	675	71	2750	1750.40555638	stim	stop-signal	689	1871553	0.0-27.8-1.8	beast_fmri_test	356	1869469,/,1870148,/,1870830,/,1871508,/,1872188,/,1872868,/	t,t,t,t,t,t	<img class = center src='/static/experiments/beast_fmri_test/images/V.png'></img>	71,89	2750.0	test	<img class = center src='/static/experiments/beast_fmri_test/images/redV.png'></img>	go	2300.0	2.0	8.0	go	target	V	71,Index Finger	89,Middle Finger	450.0	550.0	2300.0	2200.0	1.0	450.0	n/a	1.0	ITI
261317	500	n/a	-1	-1	500	0.0	fixation	poldrack-single-stim	690	1873867	0.0-27.9-0.9	beast_fmri_test	356	1873548,/	t	<div class = centerbox2><div class = fixation>+</div></div>	none	500.0	test	n/a	n/a	n/a	n/a	n/a	n/a	n/a	n/a	n/a	n/a	n/a	n/a	n/a	n/a	n/a	n/a	n/a	n/a	fixation
259957.17396784271	2750	n/a	786	89	2750	1361.82603216	stim	stop-signal	691	1876619	0.0-27.9-1.9	beast_fmri_test	356	1874229,/,1874908,/,1875587,/,1876267,/,1876947,/,1877627,/	t,t,t,t,t,t	<img class = center src='/static/experiments/beast_fmri_test/images/T.png'></img>	71,89	2750.0	test	<img class = center src='/static/experiments/beast_fmri_test/images/redT.png'></img>	go	2200.0	2.0	9.0	go	non-target	T	71,Index Finger	89,Middle Finger	450.0	550.0	2300.0	2200.0	1.0	550.0	n/a	1.0	go_stim
262707.17396784271	1361.8260321573066	n/a	786	89	2750	1361.82603216	stim	stop-signal	691	1876619	0.0-27.9-1.9	beast_fmri_test	356	1874229,/,1874908,/,1875587,/,1876267,/,1876947,/,1877627,/	t,t,t,t,t,t	<img class = center src='/static/experiments/beast_fmri_test/images/T.png'></img>	71,89	2750.0	test	<img class = center src='/static/experiments/beast_fmri_test/images/redT.png'></img>	go	2200.0	2.0	9.0	go	non-target	T	71,Index Finger	89,Middle Finger	450.0	550.0	2300.0	2200.0	1.0	550.0	n/a	1.0	ITI
266002	500	n/a	-1	-1	500	0.0	fixation	poldrack-single-stim	692	1878552	0.0-27.10-0.10	beast_fmri_test	356	1878307,/	t	<div class = centerbox2><div class = fixation>+</div></div>	none	500.0	test	n/a	n/a	n/a	n/a	n/a	n/a	n/a	n/a	n/a	n/a	n/a	n/a	n/a	n/a	n/a	n/a	n/a	n/a	fixation
265978.3029654359	550.0	n/a	-1	-1	2750	26.697034564	stim	stop-signal	693	1881305	0.0-27.10-1.10	beast_fmri_test	356	1878987,/,1879666,/,1880345,/,1881025,/	t,t,t,t	<img class = center src='/static/experiments/beast_fmri_test/images/D.png'></img>	71,89	2750.0	test	<img class = center src='/static/experiments/beast_fmri_test/images/redD.png'></img>	stop	2200.0	2.0	10.0	stop	non-target	D	71,Index Finger	89,Middle Finger	450.0	550.0	2300.0	2200.0	0.0	550.0	1.0	n/a	go_stim
268178.3029654359	2200.0	n/a	-1	-1	2750	26.697034564	stim	stop-signal	693	1881305	0.0-27.10-1.10	beast_fmri_test	356	1878987,/,1879666,/,1880345,/,1881025,/	t,t,t,t	<img class = center src='/static/experiments/beast_fmri_test/images/D.png'></img>	71,89	2750.0	test	<img class = center src='/static/experiments/beast_fmri_test/images/redD.png'></img>	stop	2200.0	2.0	10.0	stop	non-target	D	71,Index Finger	89,Middle Finger	450.0	550.0	2300.0	2200.0	0.0	550.0	1.0	n/a	stop_stim
268728.3029654359	26.697034564029309	n/a	-1	-1	2750	26.697034564	stim	stop-signal	693	1881305	0.0-27.10-1.10	beast_fmri_test	356	1878987,/,1879666,/,1880345,/,1881025,/	t,t,t,t	<img class = center src='/static/experiments/beast_fmri_test/images/D.png'></img>	71,89	2750.0	test	<img class = center src='/static/experiments/beast_fmri_test/images/redD.png'></img>	stop	2200.0	2.0	10.0	stop	non-target	D	71,Index Finger	89,Middle Finger	450.0	550.0	2300.0	2200.0	0.0	550.0	1.0	n/a	ITI
269354	500	n/a	-1	-1	500	0.0	fixation	poldrack-single-stim	694	1881904	0.0-27.11-0.11	beast_fmri_test	356	1881704,/	t	<div class = centerbox2><div class = fixation>+</div></div>	none	500.0	test	n/a	n/a	n/a	n/a	n/a	n/a	n/a	n/a	n/a	n/a	n/a	n/a	n/a	n/a	n/a	n/a	n/a	n/a	fixation
269275.65675966768	2750	n/a	907	89	2750	80.3432403324	stim	stop-signal	695	1884656	0.0-27.11-1.11	beast_fmri_test	356	1882385,/,1883063,/,1883744,/,1884423,/	t,t,t,t	<img class = center src='/static/experiments/beast_fmri_test/images/T.png'></img>	71,89	2750.0	test	<img class = center src='/static/experiments/beast_fmri_test/images/redT.png'></img>	go	2300.0	2.0	11.0	go	target	T	71,Index Finger	89,Middle Finger	450.0	600.0	2300.0	2200.0	0.0	450.0	n/a	0.0	go_stim
272025.65675966768	80.34324033236166	n/a	907	89	2750	80.3432403324	stim	stop-signal	695	1884656	0.0-27.11-1.11	beast_fmri_test	356	1882385,/,1883063,/,1883744,/,1884423,/	t,t,t,t	<img class = center src='/static/experiments/beast_fmri_test/images/T.png'></img>	71,89	2750.0	test	<img class = center src='/static/experiments/beast_fmri_test/images/redT.png'></img>	go	2300.0	2.0	11.0	go	target	T	71,Index Finger	89,Middle Finger	450.0	600.0	2300.0	2200.0	0.0	450.0	n/a	0.0	ITI
272766	500	n/a	-1	-1	500	0.0	fixation	poldrack-single-stim	696	1885316	0.0-27.12-0.12	beast_fmri_test	356	1885102,/	t	<div class = centerbox2><div class = fixation>+</div></div>	none	500.0	test	n/a	n/a	n/a	n/a	n/a	n/a	n/a	n/a	n/a	n/a	n/a	n/a	n/a	n/a	n/a	n/a	n/a	n/a	fixation
272520.47819637391	600.0	n/a	-1	-1	2750	248.521803626	stim	stop-signal	697	1888069	0.0-27.12-1.12	beast_fmri_test	356	1885781,/,1886462,/,1887140,/,1887821,/	t,t,t,t	<img class = center src='/static/experiments/beast_fmri_test/images/V.png'></img>	71,89	2750.0	test	<img class = center src='/static/experiments/beast_fmri_test/images/redV.png'></img>	stop	2150.0	2.0	12.0	stop	non-target	V	71,Index Finger	89,Middle Finger	450.0	600.0	2300.0	2150.0	0.0	600.0	1.0	n/a	go_stim
274670.47819637391	2150.0	n/a	-1	-1	2750	248.521803626	stim	stop-signal	697	1888069	0.0-27.12-1.12	beast_fmri_test	356	1885781,/,1886462,/,1887140,/,1887821,/	t,t,t,t	<img class = center src='/static/experiments/beast_fmri_test/images/V.png'></img>	71,89	2750.0	test	<img class = center src='/static/experiments/beast_fmri_test/images/redV.png'></img>	stop	2150.0	2.0	12.0	stop	non-target	V	71,Index Finger	89,Middle Finger	450.0	600.0	2300.0	2150.0	0.0	600.0	1.0	n/a	stop_stim
275270.47819637391	248.52180362599282	n/a	-1	-1	2750	248.521803626	stim	stop-signal	697	1888069	0.0-27.12-1.12	beast_fmri_test	356	1885781,/,1886462,/,1887140,/,1887821,/	t,t,t,t	<img class = center src='/static/experiments/beast_fmri_test/images/V.png'></img>	71,89	2750.0	test	<img class = center src='/static/experiments/beast_fmri_test/images/redV.png'></img>	stop	2150.0	2.0	12.0	stop	non-target	V	71,Index Finger	89,Middle Finger	450.0	600.0	2300.0	2150.0	0.0	600.0	1.0	n/a	ITI
276338	500	n/a	-1	-1	500	0.0	fixation	poldrack-single-stim	698	1888888	0.0-27.13-0.13	beast_fmri_test	356	1888501,/	t	<div class = centerbox2><div class = fixation>+</div></div>	none	500.0	test	n/a	n/a	n/a	n/a	n/a	n/a	n/a	n/a	n/a	n/a	n/a	n/a	n/a	n/a	n/a	n/a	n/a	n/a	fixation
271341.0	650.0	n/a	-1	-1	2750	5000.0	stim	stop-signal	699	1891641	0.0-27.13-1.13	beast_fmri_test	356	1889181,/,1889860,/,1890540,/,1891222,/,1891898,/,1892578,/,1893259,/,1893938,/,1894617,/,1895297,/,1895977,/	t,t,t,t,t,t,t,t,t,t,t	<img class = center src='/static/experiments/beast_fmri_test/images/D.png'></img>	71,89	2750.0	test	<img class = center src='/static/experiments/beast_fmri_test/images/redD.png'></img>	stop	2100.0	2.0	13.0	stop	non-target	D	71,Index Finger	89,Middle Finger	450.0	650.0	2300.0	2100.0	0.0	650.0	1.0	n/a	go_stim
273441.0	2100.0	n/a	-1	-1	2750	5000.0	stim	stop-signal	699	1891641	0.0-27.13-1.13	beast_fmri_test	356	1889181,/,1889860,/,1890540,/,1891222,/,1891898,/,1892578,/,1893259,/,1893938,/,1894617,/,1895297,/,1895977,/	t,t,t,t,t,t,t,t,t,t,t	<img class = center src='/static/experiments/beast_fmri_test/images/D.png'></img>	71,89	2750.0	test	<img class = center src='/static/experiments/beast_fmri_test/images/redD.png'></img>	stop	2100.0	2.0	13.0	stop	non-target	D	71,Index Finger	89,Middle Finger	450.0	650.0	2300.0	2100.0	0.0	650.0	1.0	n/a	stop_stim
274091.0	5000.0	n/a	-1	-1	2750	5000.0	stim	stop-signal	699	1891641	0.0-27.13-1.13	beast_fmri_test	356	1889181,/,1889860,/,1890540,/,1891222,/,1891898,/,1892578,/,1893259,/,1893938,/,1894617,/,1895297,/,1895977,/	t,t,t,t,t,t,t,t,t,t,t	<img class = center src='/static/experiments/beast_fmri_test/images/D.png'></img>	71,89	2750.0	test	<img class = center src='/static/experiments/beast_fmri_test/images/redD.png'></img>	stop	2100.0	2.0	13.0	stop	non-target	D	71,Index Finger	89,Middle Finger	450.0	650.0	2300.0	2100.0	0.0	650.0	1.0	n/a	ITI
284663	500	n/a	-1	-1	500	0.0	fixation	poldrack-single-stim	700	1897213	0.0-27.14-0.14	beast_fmri_test	356	1896711,/	t	<div class = centerbox2><div class = fixation>+</div></div>	none	500.0	test	n/a	n/a	n/a	n/a	n/a	n/a	n/a	n/a	n/a	n/a	n/a	n/a	n/a	n/a	n/a	n/a	n/a	n/a	fixation
284523.60142445425	700.0	n/a	731	89	2750	142.398575546	stim	stop-signal	701	1899966	0.0-27.14-1.14	beast_fmri_test	356	1897337,/,1898016,/,1898697,/,1899375,/,1900054,/	t,t,t,t,t	<img class = center src='/static/experiments/beast_fmri_test/images/P.png'></img>	71,89	2750.0	test	<img class = center src='/static/experiments/beast_fmri_test/images/redP.png'></img>	stop	2050.0	2.0	14.0	stop	non-target	P	71,Index Finger	89,Middle Finger	450.0	700.0	2300.0	2050.0	0.0	700.0	0.0	n/a	go_stim
286573.60142445425	2050.0	n/a	731	89	2750	142.398575546	stim	stop-signal	701	1899966	0.0-27.14-1.14	beast_fmri_test	356	1897337,/,1898016,/,1898697,/,1899375,/,1900054,/	t,t,t,t,t	<img class = center src='/static/experiments/beast_fmri_test/images/P.png'></img>	71,89	2750.0	test	<img class = center src='/static/experiments/beast_fmri_test/images/redP.png'></img>	stop	2050.0	2.0	14.0	stop	non-target	P	71,Index Finger	89,Middle Finger	450.0	700.0	2300.0	2050.0	0.0	700.0	0.0	n/a	stop_stim
287273.60142445425	142.39857554564369	n/a	731	89	2750	142.398575546	stim	stop-signal	701	1899966	0.0-27.14-1.14	beast_fmri_test	356	1897337,/,1898016,/,1898697,/,1899375,/,1900054,/	t,t,t,t,t	<img class = center src='/static/experiments/beast_fmri_test/images/P.png'></img>	71,89	2750.0	test	<img class = center src='/static/experiments/beast_fmri_test/images/redP.png'></img>	stop	2050.0	2.0	14.0	stop	non-target	P	71,Index Finger	89,Middle Finger	450.0	700.0	2300.0	2050.0	0.0	700.0	0.0	n/a	ITI
288135	500	n/a	-1	-1	500	0.0	fixation	poldrack-single-stim	702	1900685	0.0-27.15-0.15	beast_fmri_test	356	n/a	n/a	<div class = centerbox2><div class = fixation>+</div></div>	none	500.0	test	n/a	n/a	n/a	n/a	n/a	n/a	n/a	n/a	n/a	n/a	n/a	n/a	n/a	n/a	n/a	n/a	n/a	n/a	fixation
287861.30213367636	2750	n/a	974	71	2750	275.697866324	stim	stop-signal	703	1903437	0.0-27.15-1.15	beast_fmri_test	356	1900734,/,1901414,/,1902094,/,1902774,/,1903454,/	t,t,t,t,t	<img class = center src='/static/experiments/beast_fmri_test/images/T.png'></img>	71,89	2750.0	test	<img class = center src='/static/experiments/beast_fmri_test/images/redT.png'></img>	go	2100.0	2.0	15.0	go	non-target	T	71,Index Finger	89,Middle Finger	450.0	650.0	2300.0	2100.0	0.0	650.0	n/a	0.0	go_stim
290611.30213367636	275.69786632358415	n/a	974	71	2750	275.697866324	stim	stop-signal	703	1903437	0.0-27.15-1.15	beast_fmri_test	356	1900734,/,1901414,/,1902094,/,1902774,/,1903454,/	t,t,t,t,t	<img class = center src='/static/experiments/beast_fmri_test/images/T.png'></img>	71,89	2750.0	test	<img class = center src='/static/experiments/beast_fmri_test/images/redT.png'></img>	go	2100.0	2.0	15.0	go	non-target	T	71,Index Finger	89,Middle Finger	450.0	650.0	2300.0	2100.0	0.0	650.0	n/a	0.0	ITI
291738	500	n/a	-1	-1	500	0.0	fixation	poldrack-single-stim	704	1904288	0.0-27.16-0.16	beast_fmri_test	356	1904132,/	t	<div class = centerbox2><div class = fixation>+</div></div>	none	500.0	test	n/a	n/a	n/a	n/a	n/a	n/a	n/a	n/a	n/a	n/a	n/a	n/a	n/a	n/a	n/a	n/a	n/a	n/a	fixation
291238.95387143758	2750	n/a	686	71	2750	500.046128562	stim	stop-signal	705	1907039	0.0-27.16-1.16	beast_fmri_test	356	1904813,/,1905493,/,1906174,/,1906854,/,1907533,/	t,t,t,t,t	<img class = center src='/static/experiments/beast_fmri_test/images/P.png'></img>	71,89	2750.0	test	<img class = center src='/static/experiments/beast_fmri_test/images/redP.png'></img>	go	2300.0	2.0	16.0	go	target	P	71,Index Finger	89,Middle Finger	450.0	650.0	2300.0	2100.0	1.0	450.0	n/a	1.0	go_stim
293988.95387143758	500.04612856230864	n/a	686	71	2750	500.046128562	stim	stop-signal	705	1907039	0.0-27.16-1.16	beast_fmri_test	356	1904813,/,1905493,/,1906174,/,1906854,/,1907533,/	t,t,t,t,t	<img class = center src='/static/experiments/beast_fmri_test/images/P.png'></img>	71,89	2750.0	test	<img class = center src='/static/experiments/beast_fmri_test/images/redP.png'></img>	go	2300.0	2.0	16.0	go	target	P	71,Index Finger	89,Middle Finger	450.0	650.0	2300.0	2100.0	1.0	450.0	n/a	1.0	ITI
295562	500	n/a	-1	-1	500	0.0	fixation	poldrack-single-stim	706	1908112	0.0-27.17-0.17	beast_fmri_test	356	n/a	n/a	<div class = centerbox2><div class = fixation>+</div></div>	none	500.0	test	n/a	n/a	n/a	n/a	n/a	n/a	n/a	n/a	n/a	n/a	n/a	n/a	n/a	n/a	n/a	n/a	n/a	n/a	fixation
293596.41060722619	2750	n/a	820	89	2750	1967.58939277	stim	stop-signal	707	1910864	0.0-27.17-1.17	beast_fmri_test	356	1908212,/,1908892,/,1909571,/,1910250,/,1910930,/,1911611,/,1912290,/	t,t,t,t,t,t,t	<img class = center src='/static/experiments/beast_fmri_test/images/V.png'></img>	71,89	2750.0	test	<img class = center src='/static/experiments/beast_fmri_test/images/redV.png'></img>	go	2100.0	2.0	17.0	go	non-target	V	71,Index Finger	89,Middle Finger	450.0	650.0	2300.0	2100.0	1.0	650.0	n/a	1.0	go_stim
296346.41060722619	1967.5893927739005	n/a	820	89	2750	1967.58939277	stim	stop-signal	707	1910864	0.0-27.17-1.17	beast_fmri_test	356	1908212,/,1908892,/,1909571,/,1910250,/,1910930,/,1911611,/,1912290,/	t,t,t,t,t,t,t	<img class = center src='/static/experiments/beast_fmri_test/images/V.png'></img>	71,89	2750.0	test	<img class = center src='/static/experiments/beast_fmri_test/images/redV.png'></img>	go	2100.0	2.0	17.0	go	non-target	V	71,Index Finger	89,Middle Finger	450.0	650.0	2300.0	2100.0	1.0	650.0	n/a	1.0	ITI
300853	500	n/a	-1	-1	500	0.0	fixation	poldrack-single-stim	708	1913403	0.0-27.18-0.18	beast_fmri_test	356	1912970,/	t	<div class = centerbox2><div class = fixation>+</div></div>	none	500.0	test	n/a	n/a	n/a	n/a	n/a	n/a	n/a	n/a	n/a	n/a	n/a	n/a	n/a	n/a	n/a	n/a	n/a	n/a	fixation
300815.104452878	650.0	n/a	-1	-1	2750	39.895547122	stim	stop-signal	709	1916155	0.0-27.18-1.18	beast_fmri_test	356	1913650,/,1914329,/,1915008,/,1915689,/	t,t,t,t	<img class = center src='/static/experiments/beast_fmri_test/images/D.png'></img>	71,89	2750.0	test	<img class = center src='/static/experiments/beast_fmri_test/images/redD.png'></img>	stop	2100.0	2.0	18.0	stop	non-target	D	71,Index Finger	89,Middle Finger	450.0	650.0	2300.0	2100.0	0.0	650.0	1.0	n/a	go_stim
302915.104452878	2100.0	n/a	-1	-1	2750	39.895547122	stim	stop-signal	709	1916155	0.0-27.18-1.18	beast_fmri_test	356	1913650,/,1914329,/,1915008,/,1915689,/	t,t,t,t	<img class = center src='/static/experiments/beast_fmri_test/images/D.png'></img>	71,89	2750.0	test	<img class = center src='/static/experiments/beast_fmri_test/images/redD.png'></img>	stop	2100.0	2.0	18.0	stop	non-target	D	71,Index Finger	89,Middle Finger	450.0	650.0	2300.0	2100.0	0.0	650.0	1.0	n/a	stop_stim
303565.104452878	39.895547122029527	n/a	-1	-1	2750	39.895547122	stim	stop-signal	709	1916155	0.0-27.18-1.18	beast_fmri_test	356	1913650,/,1914329,/,1915008,/,1915689,/	t,t,t,t	<img class = center src='/static/experiments/beast_fmri_test/images/D.png'></img>	71,89	2750.0	test	<img class = center src='/static/experiments/beast_fmri_test/images/redD.png'></img>	stop	2100.0	2.0	18.0	stop	non-target	D	71,Index Finger	89,Middle Finger	450.0	650.0	2300.0	2100.0	0.0	650.0	1.0	n/a	ITI
304219	500	n/a	-1	-1	500	0.0	fixation	poldrack-single-stim	710	1916769	0.0-27.19-0.19	beast_fmri_test	356	1916369,/	t	<div class = centerbox2><div class = fixation>+</div></div>	none	500.0	test	n/a	n/a	n/a	n/a	n/a	n/a	n/a	n/a	n/a	n/a	n/a	n/a	n/a	n/a	n/a	n/a	n/a	n/a	fixation
303883.96056405478	2750	n/a	1356	71	2750	337.039435945	stim	stop-signal	711	1919521	0.0-27.19-1.19	beast_fmri_test	356	1917048,/,1917728,/,1918406,/,1919086,/,1919765,/	t,t,t,t,t	<img class = center src='/static/experiments/beast_fmri_test/images/V.png'></img>	71,89	2750.0	test	<img class = center src='/static/experiments/beast_fmri_test/images/redV.png'></img>	go	2300.0	2.0	19.0	go	target	V	71,Index Finger	89,Middle Finger	450.0	700.0	2300.0	2100.0	1.0	450.0	n/a	1.0	go_stim
306633.96056405478	337.03943594529733	n/a	1356	71	2750	337.039435945	stim	stop-signal	711	1919521	0.0-27.19-1.19	beast_fmri_test	356	1917048,/,1917728,/,1918406,/,1919086,/,1919765,/	t,t,t,t,t	<img class = center src='/static/experiments/beast_fmri_test/images/V.png'></img>	71,89	2750.0	test	<img class = center src='/static/experiments/beast_fmri_test/images/redV.png'></img>	go	2300.0	2.0	19.0	go	target	V	71,Index Finger	89,Middle Finger	450.0	700.0	2300.0	2100.0	1.0	450.0	n/a	1.0	ITI
307880	500	n/a	-1	-1	500	0.0	fixation	poldrack-single-stim	712	1920430	0.0-27.20-0.20	beast_fmri_test	356	n/a	n/a	<div class = centerbox2><div class = fixation>+</div></div>	none	500.0	test	n/a	n/a	n/a	n/a	n/a	n/a	n/a	n/a	n/a	n/a	n/a	n/a	n/a	n/a	n/a	n/a	n/a	n/a	fixation
306643.23776308983	2750	n/a	830	71	2750	1238.76223691	stim	stop-signal	713	1923182	0.0-27.20-1.20	beast_fmri_test	356	1920446,/,1921125,/,1921805,/,1922485,/,1923164,/,1923844,/	t,t,t,t,t,t	<img class = center src='/static/experiments/beast_fmri_test/images/D.png'></img>	71,89	2750.0	test	<img class = center src='/static/experiments/beast_fmri_test/images/redD.png'></img>	go	2300.0	2.0	20.0	go	target	D	71,Index Finger	89,Middle Finger	450.0	700.0	2300.0	2100.0	1.0	450.0	n/a	1.0	go_stim
309393.23776308983	1238.7622369101109	n/a	830	71	2750	1238.76223691	stim	stop-signal	713	1923182	0.0-27.20-1.20	beast_fmri_test	356	1920446,/,1921125,/,1921805,/,1922485,/,1923164,/,1923844,/	t,t,t,t,t,t	<img class = center src='/static/experiments/beast_fmri_test/images/D.png'></img>	71,89	2750.0	test	<img class = center src='/static/experiments/beast_fmri_test/images/redD.png'></img>	go	2300.0	2.0	20.0	go	target	D	71,Index Finger	89,Middle Finger	450.0	700.0	2300.0	2100.0	1.0	450.0	n/a	1.0	ITI
312454	500	n/a	-1	-1	500	0.0	fixation	poldrack-single-stim	714	1925004	0.0-27.21-0.21	beast_fmri_test	356	1924523,/	t	<div class = centerbox2><div class = fixation>+</div></div>	none	500.0	test	n/a	n/a	n/a	n/a	n/a	n/a	n/a	n/a	n/a	n/a	n/a	n/a	n/a	n/a	n/a	n/a	n/a	n/a	fixation
312171.46008403576	2750	n/a	809	89	2750	284.539915964	stim	stop-signal	715	1927756	0.0-27.21-1.21	beast_fmri_test	356	1925203,/,1925883,/,1926563,/,1927243,/,1927922,/	t,t,t,t,t	<img class = center src='/static/experiments/beast_fmri_test/images/D.png'></img>	71,89	2750.0	test	<img class = center src='/static/experiments/beast_fmri_test/images/redD.png'></img>	go	2050.0	2.0	21.0	go	non-target	D	71,Index Finger	89,Middle Finger	450.0	700.0	2300.0	2050.0	1.0	700.0	n/a	1.0	go_stim
314921.46008403576	284.53991596425089	n/a	809	89	2750	284.539915964	stim	stop-signal	715	1927756	0.0-27.21-1.21	beast_fmri_test	356	1925203,/,1925883,/,1926563,/,1927243,/,1927922,/	t,t,t,t,t	<img class = center src='/static/experiments/beast_fmri_test/images/D.png'></img>	71,89	2750.0	test	<img class = center src='/static/experiments/beast_fmri_test/images/redD.png'></img>	go	2050.0	2.0	21.0	go	non-target	D	71,Index Finger	89,Middle Finger	450.0	700.0	2300.0	2050.0	1.0	700.0	n/a	1.0	ITI
316070	500	n/a	-1	-1	500	0.0	fixation	poldrack-single-stim	716	1928620	0.0-27.22-0.22	beast_fmri_test	356	1928602,/	t	<div class = centerbox2><div class = fixation>+</div></div>	none	500.0	test	n/a	n/a	n/a	n/a	n/a	n/a	n/a	n/a	n/a	n/a	n/a	n/a	n/a	n/a	n/a	n/a	n/a	n/a	fixation
315961.9809119727	450.0	n/a	536	71	2750	111.019088027	stim	stop-signal	717	1931373	0.0-27.22-1.22	beast_fmri_test	356	1929281,/,1929962,/,1930641,/,1931321,/	t,t,t,t	<img class = center src='/static/experiments/beast_fmri_test/images/D.png'></img>	71,89	2750.0	test	<img class = center src='/static/experiments/beast_fmri_test/images/redD.png'></img>	stop	2300.0	2.0	22.0	stop	target	D	71,Index Finger	89,Middle Finger	450.0	700.0	2300.0	2050.0	0.0	450.0	0.0	n/a	go_stim
