onset	duration	text	rt	key_press	block_duration	timing_post_trial	trial_id	trial_type	trial_index	time_elapsed	internal_node_id	exp_id	subject_id	trigger_times	triggers	stimulus	possible_responses	stim_duration	exp_stage	SS_stimulus	SS_trial_type	SS_duration	load	trial_num	stop_trial_type	adaptive_trial_type	stim	yes_response_key	no_response_key	SSD_target	SSD_non_target	SSTarget	SSNonTarget	go_acc	SS_delay	stop_acc	adaptive_acc	new_trial_type
test	10880	n/a	-1	-1	10880	0.0	practice-no-stop-feedback	poldrack-single-stim	6	74847	0.0-6.0	beast_fmri_test	356	63969,/,64647,/,65327,/,66006,/,66686,/,67366,/,68045,/,68723,/,69405,/,70084,/,70764,/,71443,/,72123,/,72802,/,73482,/,74162,/,74842,/	t,t,t,t,t,t,t,t,t,t,t,t,t,t,t,t,t	"<div class = ""centerbox""><p class = ""block-text"">Your delay is 2 trials.</p><p class = block-text>Please wait for the scanner to start the block</p></div>"	77	10880.0	n/a	n/a	n/a	n/a	n/a	n/a	n/a	n/a	n/a	n/a	n/a	n/a	n/a	n/a	n/a	n/a	n/a	n/a	n/a	start_functional_block
11381	500	n/a	-1	-1	500	0.0	fixation	poldrack-single-stim	7	75350	0.0-7.0-0.0	beast_fmri_test	356	n/a	n/a	<div class = centerbox2><div class = fixation>+</div></div>	none	500.0	test	n/a	n/a	n/a	n/a	n/a	n/a	n/a	n/a	n/a	n/a	n/a	n/a	n/a	n/a	n/a	n/a	n/a	n/a	fixation
8365.930250278936	2750	n/a	493	89	2750	3023.06974972	stim	stop-signal	8	78108	0.0-7.0-1.0	beast_fmri_test	356	75520,/,76201,/,76881,/,77560,/,78239,/,78920,/,79599,/,80279,/,80959,/	t,t,t,t,t,t,t,t,t	<img class = center src='/static/experiments/beast_fmri_test/images/V.png'></img>	71,89	2750.0	test	<img class = center src='/static/experiments/beast_fmri_test/images/redV.png'></img>	go	-1.0	2.0	0.0	go	temp-non-target	V	71,Index Finger	89,Middle Finger	500.0	500.0	0.0	0.0	0.0	n/a	n/a	n/a	go_stim
11115.930250278936	3023.0697497210626	n/a	493	89	2750	3023.06974972	stim	stop-signal	8	78108	0.0-7.0-1.0	beast_fmri_test	356	75520,/,76201,/,76881,/,77560,/,78239,/,78920,/,79599,/,80279,/,80959,/	t,t,t,t,t,t,t,t,t	<img class = center src='/static/experiments/beast_fmri_test/images/V.png'></img>	71,89	2750.0	test	<img class = center src='/static/experiments/beast_fmri_test/images/redV.png'></img>	go	-1.0	2.0	0.0	go	temp-non-target	V	71,Index Finger	89,Middle Finger	500.0	500.0	0.0	0.0	0.0	n/a	n/a	n/a	ITI
17670	500	n/a	-1	-1	500	0.0	fixation	poldrack-single-stim	9	81639	0.0-7.1-0.1	beast_fmri_test	356	81639,/	t	<div class = centerbox2><div class = fixation>+</div></div>	none	500.0	test	n/a	n/a	n/a	n/a	n/a	n/a	n/a	n/a	n/a	n/a	n/a	n/a	n/a	n/a	n/a	n/a	n/a	n/a	fixation
17169.968467619183	2750	n/a	447	89	2750	504.031532381	stim	stop-signal	10	84393	0.0-7.1-1.1	beast_fmri_test	356	82318,/,82997,/,83678,/,84357,/	t,t,t,t	<img class = center src='/static/experiments/beast_fmri_test/images/V.png'></img>	71,89	2750.0	test	<img class = center src='/static/experiments/beast_fmri_test/images/redV.png'></img>	go	-1.0	2.0	1.0	go	temp-non-target	V	71,Index Finger	89,Middle Finger	500.0	500.0	0.0	0.0	0.0	n/a	n/a	n/a	go_stim
19919.968467619183	504.03153238081535	n/a	447	89	2750	504.031532381	stim	stop-signal	10	84393	0.0-7.1-1.1	beast_fmri_test	356	82318,/,82997,/,83678,/,84357,/	t,t,t,t	<img class = center src='/static/experiments/beast_fmri_test/images/V.png'></img>	71,89	2750.0	test	<img class = center src='/static/experiments/beast_fmri_test/images/redV.png'></img>	go	-1.0	2.0	1.0	go	temp-non-target	V	71,Index Finger	89,Middle Finger	500.0	500.0	0.0	0.0	0.0	n/a	n/a	n/a	ITI
21435	500	n/a	-1	-1	500	0.0	fixation	poldrack-single-stim	11	85404	0.0-7.2-0.2	beast_fmri_test	356	85037,/	t	<div class = centerbox2><div class = fixation>+</div></div>	none	500.0	test	n/a	n/a	n/a	n/a	n/a	n/a	n/a	n/a	n/a	n/a	n/a	n/a	n/a	n/a	n/a	n/a	n/a	n/a	fixation
21395.907339302357	500.0	n/a	642	89	2750	43.0926606976	stim	stop-signal	12	88158	0.0-7.2-1.2	beast_fmri_test	356	85717,/,86396,/,87076,/,87757,/	t,t,t,t	<img class = center src='/static/experiments/beast_fmri_test/images/B.png'></img>	71,89	2750.0	test	<img class = center src='/static/experiments/beast_fmri_test/images/redB.png'></img>	stop	2250.0	2.0	2.0	stop	non-target	B	71,Index Finger	89,Middle Finger	500.0	500.0	0.0	2250.0	0.0	500.0	0.0	n/a	go_stim
23645.907339302357	2250.0	n/a	642	89	2750	43.0926606976	stim	stop-signal	12	88158	0.0-7.2-1.2	beast_fmri_test	356	85717,/,86396,/,87076,/,87757,/	t,t,t,t	<img class = center src='/static/experiments/beast_fmri_test/images/B.png'></img>	71,89	2750.0	test	<img class = center src='/static/experiments/beast_fmri_test/images/redB.png'></img>	stop	2250.0	2.0	2.0	stop	non-target	B	71,Index Finger	89,Middle Finger	500.0	500.0	0.0	2250.0	0.0	500.0	0.0	n/a	stop_stim
24145.907339302357	43.092660697641108	n/a	642	89	2750	43.0926606976	stim	stop-signal	12	88158	0.0-7.2-1.2	beast_fmri_test	356	85717,/,86396,/,87076,/,87757,/	t,t,t,t	<img class = center src='/static/experiments/beast_fmri_test/images/B.png'></img>	71,89	2750.0	test	<img class = center src='/static/experiments/beast_fmri_test/images/redB.png'></img>	stop	2250.0	2.0	2.0	stop	non-target	B	71,Index Finger	89,Middle Finger	500.0	500.0	0.0	2250.0	0.0	500.0	0.0	n/a	ITI
24739	500	n/a	-1	-1	500	0.0	fixation	poldrack-single-stim	13	88708	0.0-7.3-0.3	beast_fmri_test	356	88436,/	t	<div class = centerbox2><div class = fixation>+</div></div>	none	500.0	test	n/a	n/a	n/a	n/a	n/a	n/a	n/a	n/a	n/a	n/a	n/a	n/a	n/a	n/a	n/a	n/a	n/a	n/a	fixation
23978.45332962164	2750	n/a	952	89	2750	761.546670378	stim	stop-signal	14	91459	0.0-7.3-1.3	beast_fmri_test	356	89116,/,89795,/,90474,/,91153,/,91833,/	t,t,t,t,t	<img class = center src='/static/experiments/beast_fmri_test/images/V.png'></img>	71,89	2750.0	test	<img class = center src='/static/experiments/beast_fmri_test/images/redV.png'></img>	go	2250.0	2.0	3.0	go	target	V	71,Index Finger	89,Middle Finger	500.0	450.0	2250.0	2250.0	0.0	500.0	n/a	0.0	go_stim
26728.45332962164	761.54667037836043	n/a	952	89	2750	761.546670378	stim	stop-signal	14	91459	0.0-7.3-1.3	beast_fmri_test	356	89116,/,89795,/,90474,/,91153,/,91833,/	t,t,t,t,t	<img class = center src='/static/experiments/beast_fmri_test/images/V.png'></img>	71,89	2750.0	test	<img class = center src='/static/experiments/beast_fmri_test/images/redV.png'></img>	go	2250.0	2.0	3.0	go	target	V	71,Index Finger	89,Middle Finger	500.0	450.0	2250.0	2250.0	0.0	500.0	n/a	0.0	ITI
28757	500	n/a	-1	-1	500	0.0	fixation	poldrack-single-stim	15	92726	0.0-7.4-0.4	beast_fmri_test	356	92515,/	t	<div class = centerbox2><div class = fixation>+</div></div>	none	500.0	test	n/a	n/a	n/a	n/a	n/a	n/a	n/a	n/a	n/a	n/a	n/a	n/a	n/a	n/a	n/a	n/a	n/a	n/a	fixation
26320.65794432057	500.0	n/a	713	71	2750	2439.34205568	stim	stop-signal	16	95479	0.0-7.4-1.4	beast_fmri_test	356	93193,/,93874,/,94553,/,95232,/,95911,/,96592,/,97272,/	t,t,t,t,t,t,t	<img class = center src='/static/experiments/beast_fmri_test/images/B.png'></img>	71,89	2750.0	test	<img class = center src='/static/experiments/beast_fmri_test/images/redB.png'></img>	stop	2250.0	2.0	4.0	stop	target	B	71,Index Finger	89,Middle Finger	500.0	450.0	2250.0	2250.0	0.0	500.0	0.0	n/a	go_stim
28570.65794432057	2250.0	n/a	713	71	2750	2439.34205568	stim	stop-signal	16	95479	0.0-7.4-1.4	beast_fmri_test	356	93193,/,93874,/,94553,/,95232,/,95911,/,96592,/,97272,/	t,t,t,t,t,t,t	<img class = center src='/static/experiments/beast_fmri_test/images/B.png'></img>	71,89	2750.0	test	<img class = center src='/static/experiments/beast_fmri_test/images/redB.png'></img>	stop	2250.0	2.0	4.0	stop	target	B	71,Index Finger	89,Middle Finger	500.0	450.0	2250.0	2250.0	0.0	500.0	0.0	n/a	stop_stim
29070.65794432057	2439.3420556794249	n/a	713	71	2750	2439.34205568	stim	stop-signal	16	95479	0.0-7.4-1.4	beast_fmri_test	356	93193,/,93874,/,94553,/,95232,/,95911,/,96592,/,97272,/	t,t,t,t,t,t,t	<img class = center src='/static/experiments/beast_fmri_test/images/B.png'></img>	71,89	2750.0	test	<img class = center src='/static/experiments/beast_fmri_test/images/redB.png'></img>	stop	2250.0	2.0	4.0	stop	target	B	71,Index Finger	89,Middle Finger	500.0	450.0	2250.0	2250.0	0.0	500.0	0.0	n/a	ITI
34455	500	n/a	-1	-1	500	0.0	fixation	poldrack-single-stim	17	98424	0.0-7.5-0.5	beast_fmri_test	356	97949,/	t	<div class = centerbox2><div class = fixation>+</div></div>	none	500.0	test	n/a	n/a	n/a	n/a	n/a	n/a	n/a	n/a	n/a	n/a	n/a	n/a	n/a	n/a	n/a	n/a	n/a	n/a	fixation
33579.472165045954	450.0	n/a	595	71	2750	876.527834954	stim	stop-signal	18	101175	0.0-7.5-1.5	beast_fmri_test	356	98632,/,99310,/,99989,/,100670,/,101349,/,102029,/	t,t,t,t,t,t	<img class = center src='/static/experiments/beast_fmri_test/images/V.png'></img>	71,89	2750.0	test	<img class = center src='/static/experiments/beast_fmri_test/images/redV.png'></img>	stop	2300.0	2.0	5.0	stop	target	V	71,Index Finger	89,Middle Finger	450.0	450.0	2300.0	2250.0	0.0	450.0	0.0	n/a	go_stim
35879.472165045954	2300.0	n/a	595	71	2750	876.527834954	stim	stop-signal	18	101175	0.0-7.5-1.5	beast_fmri_test	356	98632,/,99310,/,99989,/,100670,/,101349,/,102029,/	t,t,t,t,t,t	<img class = center src='/static/experiments/beast_fmri_test/images/V.png'></img>	71,89	2750.0	test	<img class = center src='/static/experiments/beast_fmri_test/images/redV.png'></img>	stop	2300.0	2.0	5.0	stop	target	V	71,Index Finger	89,Middle Finger	450.0	450.0	2300.0	2250.0	0.0	450.0	0.0	n/a	stop_stim
36329.472165045954	876.52783495404378	n/a	595	71	2750	876.527834954	stim	stop-signal	18	101175	0.0-7.5-1.5	beast_fmri_test	356	98632,/,99310,/,99989,/,100670,/,101349,/,102029,/	t,t,t,t,t,t	<img class = center src='/static/experiments/beast_fmri_test/images/V.png'></img>	71,89	2750.0	test	<img class = center src='/static/experiments/beast_fmri_test/images/redV.png'></img>	stop	2300.0	2.0	5.0	stop	target	V	71,Index Finger	89,Middle Finger	450.0	450.0	2300.0	2250.0	0.0	450.0	0.0	n/a	ITI
38589	500	n/a	-1	-1	500	0.0	fixation	poldrack-single-stim	19	102558	0.0-7.6-0.6	beast_fmri_test	356	n/a	n/a	<div class = centerbox2><div class = fixation>+</div></div>	none	500.0	test	n/a	n/a	n/a	n/a	n/a	n/a	n/a	n/a	n/a	n/a	n/a	n/a	n/a	n/a	n/a	n/a	n/a	n/a	fixation
38388.29360422329	2750	n/a	766	89	2750	201.706395777	stim	stop-signal	20	105309	0.0-7.6-1.6	beast_fmri_test	356	102708,/,103388,/,104067,/,104748,/,105427,/	t,t,t,t,t	<img class = center src='/static/experiments/beast_fmri_test/images/D.png'></img>	71,89	2750.0	test	<img class = center src='/static/experiments/beast_fmri_test/images/redD.png'></img>	go	2300.0	2.0	6.0	go	non-target	D	71,Index Finger	89,Middle Finger	400.0	450.0	2300.0	2300.0	1.0	450.0	n/a	1.0	go_stim
41138.29360422329	201.70639577671091	n/a	766	89	2750	201.706395777	stim	stop-signal	20	105309	0.0-7.6-1.6	beast_fmri_test	356	102708,/,103388,/,104067,/,104748,/,105427,/	t,t,t,t,t	<img class = center src='/static/experiments/beast_fmri_test/images/D.png'></img>	71,89	2750.0	test	<img class = center src='/static/experiments/beast_fmri_test/images/redD.png'></img>	go	2300.0	2.0	6.0	go	non-target	D	71,Index Finger	89,Middle Finger	400.0	450.0	2300.0	2300.0	1.0	450.0	n/a	1.0	ITI
42050	500	n/a	-1	-1	500	0.0	fixation	poldrack-single-stim	21	106019	0.0-7.7-0.7	beast_fmri_test	356	n/a	n/a	<div class = centerbox2><div class = fixation>+</div></div>	none	500.0	test	n/a	n/a	n/a	n/a	n/a	n/a	n/a	n/a	n/a	n/a	n/a	n/a	n/a	n/a	n/a	n/a	n/a	n/a	fixation
41697.223669111263	2750	n/a	822	89	2750	355.776330889	stim	stop-signal	22	108772	0.0-7.7-1.7	beast_fmri_test	356	106107,/,106787,/,107465,/,108145,/,108826,/	t,t,t,t,t	<img class = center src='/static/experiments/beast_fmri_test/images/P.png'></img>	71,89	2750.0	test	<img class = center src='/static/experiments/beast_fmri_test/images/redP.png'></img>	go	2300.0	2.0	7.0	go	non-target	P	71,Index Finger	89,Middle Finger	400.0	450.0	2300.0	2300.0	1.0	450.0	n/a	1.0	go_stim
44447.223669111263	355.77633088873529	n/a	822	89	2750	355.776330889	stim	stop-signal	22	108772	0.0-7.7-1.7	beast_fmri_test	356	106107,/,106787,/,107465,/,108145,/,108826,/	t,t,t,t,t	<img class = center src='/static/experiments/beast_fmri_test/images/P.png'></img>	71,89	2750.0	test	<img class = center src='/static/experiments/beast_fmri_test/images/redP.png'></img>	go	2300.0	2.0	7.0	go	non-target	P	71,Index Finger	89,Middle Finger	400.0	450.0	2300.0	2300.0	1.0	450.0	n/a	1.0	ITI
45665	500	n/a	-1	-1	500	0.0	fixation	poldrack-single-stim	23	109634	0.0-7.8-0.8	beast_fmri_test	356	109506,/	t	<div class = centerbox2><div class = fixation>+</div></div>	none	500.0	test	n/a	n/a	n/a	n/a	n/a	n/a	n/a	n/a	n/a	n/a	n/a	n/a	n/a	n/a	n/a	n/a	n/a	n/a	fixation
44580.927566221886	2750	n/a	429	71	2750	1085.07243378	stim	stop-signal	24	112385	0.0-7.8-1.8	beast_fmri_test	356	110185,/,110864,/,111544,/,112224,/,112904,/	t,t,t,t,t	<img class = center src='/static/experiments/beast_fmri_test/images/D.png'></img>	71,89	2750.0	test	<img class = center src='/static/experiments/beast_fmri_test/images/redD.png'></img>	go	2350.0	2.0	8.0	go	target	D	71,Index Finger	89,Middle Finger	400.0	450.0	2350.0	2300.0	1.0	400.0	n/a	1.0	go_stim
47330.927566221886	1085.0724337781135	n/a	429	71	2750	1085.07243378	stim	stop-signal	24	112385	0.0-7.8-1.8	beast_fmri_test	356	110185,/,110864,/,111544,/,112224,/,112904,/	t,t,t,t,t	<img class = center src='/static/experiments/beast_fmri_test/images/D.png'></img>	71,89	2750.0	test	<img class = center src='/static/experiments/beast_fmri_test/images/redD.png'></img>	go	2350.0	2.0	8.0	go	target	D	71,Index Finger	89,Middle Finger	400.0	450.0	2350.0	2300.0	1.0	400.0	n/a	1.0	ITI
50008	500	n/a	-1	-1	500	0.0	fixation	poldrack-single-stim	25	113977	0.0-7.9-0.9	beast_fmri_test	356	113585,/	t	<div class = centerbox2><div class = fixation>+</div></div>	none	500.0	test	n/a	n/a	n/a	n/a	n/a	n/a	n/a	n/a	n/a	n/a	n/a	n/a	n/a	n/a	n/a	n/a	n/a	n/a	fixation
49304.845605743714	450.0	n/a	660	89	2750	706.154394256	stim	stop-signal	26	116730	0.0-7.9-1.9	beast_fmri_test	356	114264,/,114943,/,115623,/,116304,/,116983,/	t,t,t,t,t	<img class = center src='/static/experiments/beast_fmri_test/images/V.png'></img>	71,89	2750.0	test	<img class = center src='/static/experiments/beast_fmri_test/images/redV.png'></img>	stop	2300.0	2.0	9.0	stop	non-target	V	71,Index Finger	89,Middle Finger	400.0	450.0	2350.0	2300.0	0.0	450.0	0.0	n/a	go_stim
51604.845605743714	2300.0	n/a	660	89	2750	706.154394256	stim	stop-signal	26	116730	0.0-7.9-1.9	beast_fmri_test	356	114264,/,114943,/,115623,/,116304,/,116983,/	t,t,t,t,t	<img class = center src='/static/experiments/beast_fmri_test/images/V.png'></img>	71,89	2750.0	test	<img class = center src='/static/experiments/beast_fmri_test/images/redV.png'></img>	stop	2300.0	2.0	9.0	stop	non-target	V	71,Index Finger	89,Middle Finger	400.0	450.0	2350.0	2300.0	0.0	450.0	0.0	n/a	stop_stim
52054.845605743714	706.15439425627903	n/a	660	89	2750	706.154394256	stim	stop-signal	26	116730	0.0-7.9-1.9	beast_fmri_test	356	114264,/,114943,/,115623,/,116304,/,116983,/	t,t,t,t,t	<img class = center src='/static/experiments/beast_fmri_test/images/V.png'></img>	71,89	2750.0	test	<img class = center src='/static/experiments/beast_fmri_test/images/redV.png'></img>	stop	2300.0	2.0	9.0	stop	non-target	V	71,Index Finger	89,Middle Finger	400.0	450.0	2350.0	2300.0	0.0	450.0	0.0	n/a	ITI
53975	500	n/a	-1	-1	500	0.0	fixation	poldrack-single-stim	27	117944	0.0-7.10-0.10	beast_fmri_test	356	117663,/	t	<div class = centerbox2><div class = fixation>+</div></div>	none	500.0	test	n/a	n/a	n/a	n/a	n/a	n/a	n/a	n/a	n/a	n/a	n/a	n/a	n/a	n/a	n/a	n/a	n/a	n/a	fixation
51732.952155151725	400.0	n/a	1018	89	2750	2244.04784485	stim	stop-signal	28	120696	0.0-7.10-1.10	beast_fmri_test	356	118343,/,119021,/,119700,/,120380,/,121061,/,121741,/,122420,/	t,t,t,t,t,t,t	<img class = center src='/static/experiments/beast_fmri_test/images/P.png'></img>	71,89	2750.0	test	<img class = center src='/static/experiments/beast_fmri_test/images/redP.png'></img>	stop	2350.0	2.0	10.0	stop	non-target	P	71,Index Finger	89,Middle Finger	400.0	400.0	2350.0	2350.0	0.0	400.0	0.0	n/a	go_stim
54082.952155151725	2350.0	n/a	1018	89	2750	2244.04784485	stim	stop-signal	28	120696	0.0-7.10-1.10	beast_fmri_test	356	118343,/,119021,/,119700,/,120380,/,121061,/,121741,/,122420,/	t,t,t,t,t,t,t	<img class = center src='/static/experiments/beast_fmri_test/images/P.png'></img>	71,89	2750.0	test	<img class = center src='/static/experiments/beast_fmri_test/images/redP.png'></img>	stop	2350.0	2.0	10.0	stop	non-target	P	71,Index Finger	89,Middle Finger	400.0	400.0	2350.0	2350.0	0.0	400.0	0.0	n/a	stop_stim
54482.952155151725	2244.0478448482736	n/a	1018	89	2750	2244.04784485	stim	stop-signal	28	120696	0.0-7.10-1.10	beast_fmri_test	356	118343,/,119021,/,119700,/,120380,/,121061,/,121741,/,122420,/	t,t,t,t,t,t,t	<img class = center src='/static/experiments/beast_fmri_test/images/P.png'></img>	71,89	2750.0	test	<img class = center src='/static/experiments/beast_fmri_test/images/redP.png'></img>	stop	2350.0	2.0	10.0	stop	non-target	P	71,Index Finger	89,Middle Finger	400.0	400.0	2350.0	2350.0	0.0	400.0	0.0	n/a	ITI
59477	500	n/a	-1	-1	500	0.0	fixation	poldrack-single-stim	29	123446	0.0-7.11-0.11	beast_fmri_test	356	123098,/	t	<div class = centerbox2><div class = fixation>+</div></div>	none	500.0	test	n/a	n/a	n/a	n/a	n/a	n/a	n/a	n/a	n/a	n/a	n/a	n/a	n/a	n/a	n/a	n/a	n/a	n/a	fixation
58795.874116026273	2750	n/a	1081	71	2750	682.125883974	stim	stop-signal	30	126197	0.0-7.11-1.11	beast_fmri_test	356	123779,/,124458,/,125137,/,125817,/,126497,/	t,t,t,t,t	<img class = center src='/static/experiments/beast_fmri_test/images/B.png'></img>	71,89	2750.0	test	<img class = center src='/static/experiments/beast_fmri_test/images/redB.png'></img>	go	2400.0	2.0	11.0	go	non-target	B	71,Index Finger	89,Middle Finger	400.0	350.0	2350.0	2400.0	0.0	350.0	n/a	0.0	go_stim
61545.874116026273	682.12588397372951	n/a	1081	71	2750	682.125883974	stim	stop-signal	30	126197	0.0-7.11-1.11	beast_fmri_test	356	123779,/,124458,/,125137,/,125817,/,126497,/	t,t,t,t,t	<img class = center src='/static/experiments/beast_fmri_test/images/B.png'></img>	71,89	2750.0	test	<img class = center src='/static/experiments/beast_fmri_test/images/redB.png'></img>	go	2400.0	2.0	11.0	go	non-target	B	71,Index Finger	89,Middle Finger	400.0	350.0	2350.0	2400.0	0.0	350.0	n/a	0.0	ITI
63420	500	n/a	-1	-1	500	0.0	fixation	poldrack-single-stim	31	127389	0.0-7.12-0.12	beast_fmri_test	356	127178,/	t	<div class = centerbox2><div class = fixation>+</div></div>	none	500.0	test	n/a	n/a	n/a	n/a	n/a	n/a	n/a	n/a	n/a	n/a	n/a	n/a	n/a	n/a	n/a	n/a	n/a	n/a	fixation
62138.400142787403	350.0	n/a	-1	-1	2750	1284.59985721	stim	stop-signal	32	130142	0.0-7.12-1.12	beast_fmri_test	356	127856,/,128537,/,129216,/,129895,/,130577,/,131255,/	t,t,t,t,t,t	<img class = center src='/static/experiments/beast_fmri_test/images/V.png'></img>	71,89	2750.0	test	<img class = center src='/static/experiments/beast_fmri_test/images/redV.png'></img>	stop	2400.0	2.0	12.0	stop	non-target	V	71,Index Finger	89,Middle Finger	400.0	350.0	2350.0	2400.0	0.0	350.0	1.0	n/a	go_stim
64538.400142787403	2400.0	n/a	-1	-1	2750	1284.59985721	stim	stop-signal	32	130142	0.0-7.12-1.12	beast_fmri_test	356	127856,/,128537,/,129216,/,129895,/,130577,/,131255,/	t,t,t,t,t,t	<img class = center src='/static/experiments/beast_fmri_test/images/V.png'></img>	71,89	2750.0	test	<img class = center src='/static/experiments/beast_fmri_test/images/redV.png'></img>	stop	2400.0	2.0	12.0	stop	non-target	V	71,Index Finger	89,Middle Finger	400.0	350.0	2350.0	2400.0	0.0	350.0	1.0	n/a	stop_stim
64888.400142787403	1284.5998572126005	n/a	-1	-1	2750	1284.59985721	stim	stop-signal	32	130142	0.0-7.12-1.12	beast_fmri_test	356	127856,/,128537,/,129216,/,129895,/,130577,/,131255,/	t,t,t,t,t,t	<img class = center src='/static/experiments/beast_fmri_test/images/V.png'></img>	71,89	2750.0	test	<img class = center src='/static/experiments/beast_fmri_test/images/redV.png'></img>	stop	2400.0	2.0	12.0	stop	non-target	V	71,Index Finger	89,Middle Finger	400.0	350.0	2350.0	2400.0	0.0	350.0	1.0	n/a	ITI
67964	500	n/a	-1	-1	500	0.0	fixation	poldrack-single-stim	33	131933	0.0-7.13-0.13	beast_fmri_test	356	n/a	n/a	<div class = centerbox2><div class = fixation>+</div></div>	none	500.0	test	n/a	n/a	n/a	n/a	n/a	n/a	n/a	n/a	n/a	n/a	n/a	n/a	n/a	n/a	n/a	n/a	n/a	n/a	fixation
67728.498481630842	2750	n/a	1059	89	2750	238.501518369	stim	stop-signal	34	134686	0.0-7.13-1.13	beast_fmri_test	356	131936,/,132615,/,133294,/,133973,/,134654,/	t,t,t,t,t	<img class = center src='/static/experiments/beast_fmri_test/images/B.png'></img>	71,89	2750.0	test	<img class = center src='/static/experiments/beast_fmri_test/images/redB.png'></img>	go	2350.0	2.0	13.0	go	target	B	71,Index Finger	89,Middle Finger	400.0	400.0	2350.0	2400.0	0.0	400.0	n/a	0.0	go_stim
70478.498481630842	238.50151836916973	n/a	1059	89	2750	238.501518369	stim	stop-signal	34	134686	0.0-7.13-1.13	beast_fmri_test	356	131936,/,132615,/,133294,/,133973,/,134654,/	t,t,t,t,t	<img class = center src='/static/experiments/beast_fmri_test/images/B.png'></img>	71,89	2750.0	test	<img class = center src='/static/experiments/beast_fmri_test/images/redB.png'></img>	go	2350.0	2.0	13.0	go	target	B	71,Index Finger	89,Middle Finger	400.0	400.0	2350.0	2400.0	0.0	400.0	n/a	0.0	ITI
71465	500	n/a	-1	-1	500	0.0	fixation	poldrack-single-stim	35	135434	0.0-7.14-0.14	beast_fmri_test	356	135334,/	t	<div class = centerbox2><div class = fixation>+</div></div>	none	500.0	test	n/a	n/a	n/a	n/a	n/a	n/a	n/a	n/a	n/a	n/a	n/a	n/a	n/a	n/a	n/a	n/a	n/a	n/a	fixation
69452.553341299121	2750	n/a	1416	89	2750	2014.4466587	stim	stop-signal	36	138186	0.0-7.14-1.14	beast_fmri_test	356	136013,/,136693,/,137372,/,138051,/,138731,/,139411,/,140092,/	t,t,t,t,t,t,t	<img class = center src='/static/experiments/beast_fmri_test/images/D.png'></img>	71,89	2750.0	test	<img class = center src='/static/experiments/beast_fmri_test/images/redD.png'></img>	go	2350.0	2.0	14.0	go	non-target	D	71,Index Finger	89,Middle Finger	400.0	400.0	2350.0	2350.0	1.0	400.0	n/a	1.0	go_stim
72202.553341299121	2014.4466587008897	n/a	1416	89	2750	2014.4466587	stim	stop-signal	36	138186	0.0-7.14-1.14	beast_fmri_test	356	136013,/,136693,/,137372,/,138051,/,138731,/,139411,/,140092,/	t,t,t,t,t,t,t	<img class = center src='/static/experiments/beast_fmri_test/images/D.png'></img>	71,89	2750.0	test	<img class = center src='/static/experiments/beast_fmri_test/images/redD.png'></img>	go	2350.0	2.0	14.0	go	non-target	D	71,Index Finger	89,Middle Finger	400.0	400.0	2350.0	2350.0	1.0	400.0	n/a	1.0	ITI
76739	500	n/a	-1	-1	500	0.0	fixation	poldrack-single-stim	37	140708	0.0-7.15-0.15	beast_fmri_test	356	n/a	n/a	<div class = centerbox2><div class = fixation>+</div></div>	none	500.0	test	n/a	n/a	n/a	n/a	n/a	n/a	n/a	n/a	n/a	n/a	n/a	n/a	n/a	n/a	n/a	n/a	n/a	n/a	fixation
75828.930401851831	2750	n/a	1561	89	2750	912.069598148	stim	stop-signal	38	143460	0.0-7.15-1.15	beast_fmri_test	356	140772,/,141450,/,142130,/,142811,/,143489,/,144170,/	t,t,t,t,t,t	<img class = center src='/static/experiments/beast_fmri_test/images/V.png'></img>	71,89	2750.0	test	<img class = center src='/static/experiments/beast_fmri_test/images/redV.png'></img>	go	2350.0	2.0	15.0	go	non-target	V	71,Index Finger	89,Middle Finger	400.0	400.0	2350.0	2350.0	1.0	400.0	n/a	1.0	go_stim
78578.930401851831	912.06959814815923	n/a	1561	89	2750	912.069598148	stim	stop-signal	38	143460	0.0-7.15-1.15	beast_fmri_test	356	140772,/,141450,/,142130,/,142811,/,143489,/,144170,/	t,t,t,t,t,t	<img class = center src='/static/experiments/beast_fmri_test/images/V.png'></img>	71,89	2750.0	test	<img class = center src='/static/experiments/beast_fmri_test/images/redV.png'></img>	go	2350.0	2.0	15.0	go	non-target	V	71,Index Finger	89,Middle Finger	400.0	400.0	2350.0	2350.0	1.0	400.0	n/a	1.0	ITI
80912	500	n/a	-1	-1	500	0.0	fixation	poldrack-single-stim	39	144881	0.0-7.16-0.16	beast_fmri_test	356	144851,/	t	<div class = centerbox2><div class = fixation>+</div></div>	none	500.0	test	n/a	n/a	n/a	n/a	n/a	n/a	n/a	n/a	n/a	n/a	n/a	n/a	n/a	n/a	n/a	n/a	n/a	n/a	fixation
80153.399308203429	2750	n/a	1191	89	2750	760.600691797	stim	stop-signal	40	147633	0.0-7.16-1.16	beast_fmri_test	356	145529,/,146209,/,146888,/,147568,/,148247,/	t,t,t,t,t	<img class = center src='/static/experiments/beast_fmri_test/images/P.png'></img>	71,89	2750.0	test	<img class = center src='/static/experiments/beast_fmri_test/images/redP.png'></img>	go	2350.0	2.0	16.0	go	non-target	P	71,Index Finger	89,Middle Finger	400.0	400.0	2350.0	2350.0	1.0	400.0	n/a	1.0	go_stim
82903.399308203429	760.60069179656443	n/a	1191	89	2750	760.600691797	stim	stop-signal	40	147633	0.0-7.16-1.16	beast_fmri_test	356	145529,/,146209,/,146888,/,147568,/,148247,/	t,t,t,t,t	<img class = center src='/static/experiments/beast_fmri_test/images/P.png'></img>	71,89	2750.0	test	<img class = center src='/static/experiments/beast_fmri_test/images/redP.png'></img>	go	2350.0	2.0	16.0	go	non-target	P	71,Index Finger	89,Middle Finger	400.0	400.0	2350.0	2350.0	1.0	400.0	n/a	1.0	ITI
84933	500	n/a	-1	-1	500	0.0	fixation	poldrack-single-stim	41	148902	0.0-7.17-0.17	beast_fmri_test	356	n/a	n/a	<div class = centerbox2><div class = fixation>+</div></div>	none	500.0	test	n/a	n/a	n/a	n/a	n/a	n/a	n/a	n/a	n/a	n/a	n/a	n/a	n/a	n/a	n/a	n/a	n/a	n/a	fixation
84856.460714892222	2750	n/a	1131	71	2750	77.5392851078	stim	stop-signal	42	151653	0.0-7.17-1.17	beast_fmri_test	356	148928,/,149607,/,150286,/,150966,/,151647,/	t,t,t,t,t	<img class = center src='/static/experiments/beast_fmri_test/images/V.png'></img>	71,89	2750.0	test	<img class = center src='/static/experiments/beast_fmri_test/images/redV.png'></img>	go	2350.0	2.0	17.0	go	target	V	71,Index Finger	89,Middle Finger	400.0	400.0	2350.0	2350.0	1.0	400.0	n/a	1.0	go_stim
87606.460714892222	77.539285107774731	n/a	1131	71	2750	77.5392851078	stim	stop-signal	42	151653	0.0-7.17-1.17	beast_fmri_test	356	148928,/,149607,/,150286,/,150966,/,151647,/	t,t,t,t,t	<img class = center src='/static/experiments/beast_fmri_test/images/V.png'></img>	71,89	2750.0	test	<img class = center src='/static/experiments/beast_fmri_test/images/redV.png'></img>	go	2350.0	2.0	17.0	go	target	V	71,Index Finger	89,Middle Finger	400.0	400.0	2350.0	2350.0	1.0	400.0	n/a	1.0	ITI
88273	500	n/a	-1	-1	500	0.0	fixation	poldrack-single-stim	43	152242	0.0-7.18-0.18	beast_fmri_test	356	n/a	n/a	<div class = centerbox2><div class = fixation>+</div></div>	none	500.0	test	n/a	n/a	n/a	n/a	n/a	n/a	n/a	n/a	n/a	n/a	n/a	n/a	n/a	n/a	n/a	n/a	n/a	n/a	fixation
87522.067995049554	2750	n/a	970	89	2750	750.93200495	stim	stop-signal	44	154992	0.0-7.18-1.18	beast_fmri_test	356	152326,/,153005,/,153684,/,154365,/,155043,/,155724,/	t,t,t,t,t,t	<img class = center src='/static/experiments/beast_fmri_test/images/T.png'></img>	71,89	2750.0	test	<img class = center src='/static/experiments/beast_fmri_test/images/redT.png'></img>	go	2350.0	2.0	18.0	go	non-target	T	71,Index Finger	89,Middle Finger	400.0	400.0	2350.0	2350.0	1.0	400.0	n/a	1.0	go_stim
90272.067995049554	750.93200495045062	n/a	970	89	2750	750.93200495	stim	stop-signal	44	154992	0.0-7.18-1.18	beast_fmri_test	356	152326,/,153005,/,153684,/,154365,/,155043,/,155724,/	t,t,t,t,t,t	<img class = center src='/static/experiments/beast_fmri_test/images/T.png'></img>	71,89	2750.0	test	<img class = center src='/static/experiments/beast_fmri_test/images/redT.png'></img>	go	2350.0	2.0	18.0	go	non-target	T	71,Index Finger	89,Middle Finger	400.0	400.0	2350.0	2350.0	1.0	400.0	n/a	1.0	ITI
92282	500	n/a	-1	-1	500	0.0	fixation	poldrack-single-stim	45	156251	0.0-7.19-0.19	beast_fmri_test	356	n/a	n/a	<div class = centerbox2><div class = fixation>+</div></div>	none	500.0	test	n/a	n/a	n/a	n/a	n/a	n/a	n/a	n/a	n/a	n/a	n/a	n/a	n/a	n/a	n/a	n/a	n/a	n/a	fixation
90242.845788130915	2750	n/a	778	89	2750	2041.15421187	stim	stop-signal	46	159003	0.0-7.19-1.19	beast_fmri_test	356	156403,/,157082,/,157763,/,158443,/,159123,/,159803,/,160482,/	t,t,t,t,t,t,t	<img class = center src='/static/experiments/beast_fmri_test/images/D.png'></img>	71,89	2750.0	test	<img class = center src='/static/experiments/beast_fmri_test/images/redD.png'></img>	go	2350.0	2.0	19.0	go	non-target	D	71,Index Finger	89,Middle Finger	400.0	400.0	2350.0	2350.0	1.0	400.0	n/a	1.0	go_stim
92992.845788130915	2041.1542118690786	n/a	778	89	2750	2041.15421187	stim	stop-signal	46	159003	0.0-7.19-1.19	beast_fmri_test	356	156403,/,157082,/,157763,/,158443,/,159123,/,159803,/,160482,/	t,t,t,t,t,t,t	<img class = center src='/static/experiments/beast_fmri_test/images/D.png'></img>	71,89	2750.0	test	<img class = center src='/static/experiments/beast_fmri_test/images/redD.png'></img>	go	2350.0	2.0	19.0	go	non-target	D	71,Index Finger	89,Middle Finger	400.0	400.0	2350.0	2350.0	1.0	400.0	n/a	1.0	ITI
97593	500	n/a	-1	-1	500	0.0	fixation	poldrack-single-stim	47	161562	0.0-7.20-0.20	beast_fmri_test	356	161162,/	t	<div class = centerbox2><div class = fixation>+</div></div>	none	500.0	test	n/a	n/a	n/a	n/a	n/a	n/a	n/a	n/a	n/a	n/a	n/a	n/a	n/a	n/a	n/a	n/a	n/a	n/a	fixation
96197.745069312165	2750	n/a	790	89	2750	1396.25493069	stim	stop-signal	48	164313	0.0-7.20-1.20	beast_fmri_test	356	161841,/,162521,/,163201,/,163880,/,164561,/,165240,/	t,t,t,t,t,t	<img class = center src='/static/experiments/beast_fmri_test/images/P.png'></img>	71,89	2750.0	test	<img class = center src='/static/experiments/beast_fmri_test/images/redP.png'></img>	go	2350.0	2.0	20.0	go	non-target	P	71,Index Finger	89,Middle Finger	400.0	400.0	2350.0	2350.0	1.0	400.0	n/a	1.0	go_stim
98947.745069312165	1396.2549306878366	n/a	790	89	2750	1396.25493069	stim	stop-signal	48	164313	0.0-7.20-1.20	beast_fmri_test	356	161841,/,162521,/,163201,/,163880,/,164561,/,165240,/	t,t,t,t,t,t	<img class = center src='/static/experiments/beast_fmri_test/images/P.png'></img>	71,89	2750.0	test	<img class = center src='/static/experiments/beast_fmri_test/images/redP.png'></img>	go	2350.0	2.0	20.0	go	non-target	P	71,Index Finger	89,Middle Finger	400.0	400.0	2350.0	2350.0	1.0	400.0	n/a	1.0	ITI
102250	500	n/a	-1	-1	500	0.0	fixation	poldrack-single-stim	49	166219	0.0-7.21-0.21	beast_fmri_test	356	165919,/	t	<div class = centerbox2><div class = fixation>+</div></div>	none	500.0	test	n/a	n/a	n/a	n/a	n/a	n/a	n/a	n/a	n/a	n/a	n/a	n/a	n/a	n/a	n/a	n/a	n/a	n/a	fixation
101707.31382404862	2750	n/a	1031	89	2750	543.686175951	stim	stop-signal	50	168970	0.0-7.21-1.21	beast_fmri_test	356	166599,/,167278,/,167958,/,168638,/,169318,/	t,t,t,t,t	<img class = center src='/static/experiments/beast_fmri_test/images/T.png'></img>	71,89	2750.0	test	<img class = center src='/static/experiments/beast_fmri_test/images/redT.png'></img>	go	2350.0	2.0	21.0	go	non-target	T	71,Index Finger	89,Middle Finger	400.0	400.0	2350.0	2350.0	1.0	400.0	n/a	1.0	go_stim
104457.31382404862	543.6861759513863	n/a	1031	89	2750	543.686175951	stim	stop-signal	50	168970	0.0-7.21-1.21	beast_fmri_test	356	166599,/,167278,/,167958,/,168638,/,169318,/	t,t,t,t,t	<img class = center src='/static/experiments/beast_fmri_test/images/T.png'></img>	71,89	2750.0	test	<img class = center src='/static/experiments/beast_fmri_test/images/redT.png'></img>	go	2350.0	2.0	21.0	go	non-target	T	71,Index Finger	89,Middle Finger	400.0	400.0	2350.0	2350.0	1.0	400.0	n/a	1.0	ITI
106055	500	n/a	-1	-1	500	0.0	fixation	poldrack-single-stim	51	170024	0.0-7.22-0.22	beast_fmri_test	356	169997,/	t	<div class = centerbox2><div class = fixation>+</div></div>	none	500.0	test	n/a	n/a	n/a	n/a	n/a	n/a	n/a	n/a	n/a	n/a	n/a	n/a	n/a	n/a	n/a	n/a	n/a	n/a	fixation
105172.33867345995	2750	n/a	1060	89	2750	884.66132654	stim	stop-signal	52	172776	0.0-7.22-1.22	beast_fmri_test	356	170677,/,171356,/,172037,/,172716,/,173397,/	t,t,t,t,t	<img class = center src='/static/experiments/beast_fmri_test/images/D.png'></img>	71,89	2750.0	test	<img class = center src='/static/experiments/beast_fmri_test/images/redD.png'></img>	go	2350.0	2.0	22.0	go	non-target	D	71,Index Finger	89,Middle Finger	400.0	400.0	2350.0	2350.0	1.0	400.0	n/a	1.0	go_stim
107922.33867345995	884.66132654006617	n/a	1060	89	2750	884.66132654	stim	stop-signal	52	172776	0.0-7.22-1.22	beast_fmri_test	356	170677,/,171356,/,172037,/,172716,/,173397,/	t,t,t,t,t	<img class = center src='/static/experiments/beast_fmri_test/images/D.png'></img>	71,89	2750.0	test	<img class = center src='/static/experiments/beast_fmri_test/images/redD.png'></img>	go	2350.0	2.0	22.0	go	non-target	D	71,Index Finger	89,Middle Finger	400.0	400.0	2350.0	2350.0	1.0	400.0	n/a	1.0	ITI
110204	500	n/a	-1	-1	500	0.0	fixation	poldrack-single-stim	53	174173	0.0-7.23-0.23	beast_fmri_test	356	174076,/	t	<div class = centerbox2><div class = fixation>+</div></div>	none	500.0	test	n/a	n/a	n/a	n/a	n/a	n/a	n/a	n/a	n/a	n/a	n/a	n/a	n/a	n/a	n/a	n/a	n/a	n/a	fixation
109762.91638977246	2750	n/a	1306	71	2750	442.083610228	stim	stop-signal	54	176924	0.0-7.23-1.23	beast_fmri_test	356	174756,/,175435,/,176115,/,176795,/	t,t,t,t	<img class = center src='/static/experiments/beast_fmri_test/images/T.png'></img>	71,89	2750.0	test	<img class = center src='/static/experiments/beast_fmri_test/images/redT.png'></img>	go	2350.0	2.0	23.0	go	target	T	71,Index Finger	89,Middle Finger	400.0	400.0	2350.0	2350.0	1.0	400.0	n/a	1.0	go_stim
112512.91638977246	442.08361022754639	n/a	1306	71	2750	442.083610228	stim	stop-signal	54	176924	0.0-7.23-1.23	beast_fmri_test	356	174756,/,175435,/,176115,/,176795,/	t,t,t,t	<img class = center src='/static/experiments/beast_fmri_test/images/T.png'></img>	71,89	2750.0	test	<img class = center src='/static/experiments/beast_fmri_test/images/redT.png'></img>	go	2350.0	2.0	23.0	go	target	T	71,Index Finger	89,Middle Finger	400.0	400.0	2350.0	2350.0	1.0	400.0	n/a	1.0	ITI
113907	500	n/a	-1	-1	500	0.0	fixation	poldrack-single-stim	55	177876	0.0-7.24-0.24	beast_fmri_test	356	177475,/	t	<div class = centerbox2><div class = fixation>+</div></div>	none	500.0	test	n/a	n/a	n/a	n/a	n/a	n/a	n/a	n/a	n/a	n/a	n/a	n/a	n/a	n/a	n/a	n/a	n/a	n/a	fixation
113102.52948706286	400.0	n/a	-1	-1	2750	806.470512937	stim	stop-signal	56	180628	0.0-7.24-1.24	beast_fmri_test	356	178155,/,178835,/,179514,/,180193,/,180872,/	t,t,t,t,t	<img class = center src='/static/experiments/beast_fmri_test/images/B.png'></img>	71,89	2750.0	test	<img class = center src='/static/experiments/beast_fmri_test/images/redB.png'></img>	stop	2350.0	2.0	24.0	stop	non-target	B	71,Index Finger	89,Middle Finger	400.0	400.0	2350.0	2350.0	0.0	400.0	1.0	n/a	go_stim
115452.52948706286	2350.0	n/a	-1	-1	2750	806.470512937	stim	stop-signal	56	180628	0.0-7.24-1.24	beast_fmri_test	356	178155,/,178835,/,179514,/,180193,/,180872,/	t,t,t,t,t	<img class = center src='/static/experiments/beast_fmri_test/images/B.png'></img>	71,89	2750.0	test	<img class = center src='/static/experiments/beast_fmri_test/images/redB.png'></img>	stop	2350.0	2.0	24.0	stop	non-target	B	71,Index Finger	89,Middle Finger	400.0	400.0	2350.0	2350.0	0.0	400.0	1.0	n/a	stop_stim
115852.52948706286	806.47051293713969	n/a	-1	-1	2750	806.470512937	stim	stop-signal	56	180628	0.0-7.24-1.24	beast_fmri_test	356	178155,/,178835,/,179514,/,180193,/,180872,/	t,t,t,t,t	<img class = center src='/static/experiments/beast_fmri_test/images/B.png'></img>	71,89	2750.0	test	<img class = center src='/static/experiments/beast_fmri_test/images/redB.png'></img>	stop	2350.0	2.0	24.0	stop	non-target	B	71,Index Finger	89,Middle Finger	400.0	400.0	2350.0	2350.0	0.0	400.0	1.0	n/a	ITI
117978	500	n/a	-1	-1	500	0.0	fixation	poldrack-single-stim	57	181947	0.0-7.25-0.25	beast_fmri_test	356	181552,/	t	<div class = centerbox2><div class = fixation>+</div></div>	none	500.0	test	n/a	n/a	n/a	n/a	n/a	n/a	n/a	n/a	n/a	n/a	n/a	n/a	n/a	n/a	n/a	n/a	n/a	n/a	fixation
116658.52292921804	400.0	n/a	542	71	2750	1321.47707078	stim	stop-signal	58	184699	0.0-7.25-1.25	beast_fmri_test	356	182233,/,182911,/,183592,/,184271,/,184950,/,185630,/	t,t,t,t,t,t	<img class = center src='/static/experiments/beast_fmri_test/images/T.png'></img>	71,89	2750.0	test	<img class = center src='/static/experiments/beast_fmri_test/images/redT.png'></img>	stop	2350.0	2.0	25.0	stop	target	T	71,Index Finger	89,Middle Finger	400.0	450.0	2350.0	2350.0	0.0	400.0	0.0	n/a	go_stim
119008.52292921804	2350.0	n/a	542	71	2750	1321.47707078	stim	stop-signal	58	184699	0.0-7.25-1.25	beast_fmri_test	356	182233,/,182911,/,183592,/,184271,/,184950,/,185630,/	t,t,t,t,t,t	<img class = center src='/static/experiments/beast_fmri_test/images/T.png'></img>	71,89	2750.0	test	<img class = center src='/static/experiments/beast_fmri_test/images/redT.png'></img>	stop	2350.0	2.0	25.0	stop	target	T	71,Index Finger	89,Middle Finger	400.0	450.0	2350.0	2350.0	0.0	400.0	0.0	n/a	stop_stim
119408.52292921804	1321.4770707819616	n/a	542	71	2750	1321.47707078	stim	stop-signal	58	184699	0.0-7.25-1.25	beast_fmri_test	356	182233,/,182911,/,183592,/,184271,/,184950,/,185630,/	t,t,t,t,t,t	<img class = center src='/static/experiments/beast_fmri_test/images/T.png'></img>	71,89	2750.0	test	<img class = center src='/static/experiments/beast_fmri_test/images/redT.png'></img>	stop	2350.0	2.0	25.0	stop	target	T	71,Index Finger	89,Middle Finger	400.0	450.0	2350.0	2350.0	0.0	400.0	0.0	n/a	ITI
122562	500	n/a	-1	-1	500	0.0	fixation	poldrack-single-stim	59	186531	0.0-7.26-0.26	beast_fmri_test	356	186310,/	t	<div class = centerbox2><div class = fixation>+</div></div>	none	500.0	test	n/a	n/a	n/a	n/a	n/a	n/a	n/a	n/a	n/a	n/a	n/a	n/a	n/a	n/a	n/a	n/a	n/a	n/a	fixation
121708.44550447678	2750	n/a	905	71	2750	855.554495523	stim	stop-signal	60	189283	0.0-7.26-1.26	beast_fmri_test	356	186990,/,187669,/,188348,/,189029,/,189708,/	t,t,t,t,t	<img class = center src='/static/experiments/beast_fmri_test/images/B.png'></img>	71,89	2750.0	test	<img class = center src='/static/experiments/beast_fmri_test/images/redB.png'></img>	go	2400.0	2.0	26.0	go	target	B	71,Index Finger	89,Middle Finger	350.0	450.0	2400.0	2350.0	1.0	350.0	n/a	1.0	go_stim
124458.44550447678	855.55449552320874	n/a	905	71	2750	855.554495523	stim	stop-signal	60	189283	0.0-7.26-1.26	beast_fmri_test	356	186990,/,187669,/,188348,/,189029,/,189708,/	t,t,t,t,t	<img class = center src='/static/experiments/beast_fmri_test/images/B.png'></img>	71,89	2750.0	test	<img class = center src='/static/experiments/beast_fmri_test/images/redB.png'></img>	go	2400.0	2.0	26.0	go	target	B	71,Index Finger	89,Middle Finger	350.0	450.0	2400.0	2350.0	1.0	350.0	n/a	1.0	ITI
126682	500	n/a	-1	-1	500	0.0	fixation	poldrack-single-stim	61	190651	0.0-7.27-0.27	beast_fmri_test	356	190388,/	t	<div class = centerbox2><div class = fixation>+</div></div>	none	500.0	test	n/a	n/a	n/a	n/a	n/a	n/a	n/a	n/a	n/a	n/a	n/a	n/a	n/a	n/a	n/a	n/a	n/a	n/a	fixation
125765.59193167667	2750	n/a	923	89	2750	917.408068323	stim	stop-signal	62	193402	0.0-7.27-1.27	beast_fmri_test	356	191067,/,191748,/,192426,/,193106,/,193787,/	t,t,t,t,t	<img class = center src='/static/experiments/beast_fmri_test/images/D.png'></img>	71,89	2750.0	test	<img class = center src='/static/experiments/beast_fmri_test/images/redD.png'></img>	go	2300.0	2.0	27.0	go	non-target	D	71,Index Finger	89,Middle Finger	350.0	450.0	2400.0	2300.0	1.0	450.0	n/a	1.0	go_stim
128515.59193167667	917.40806832332794	n/a	923	89	2750	917.408068323	stim	stop-signal	62	193402	0.0-7.27-1.27	beast_fmri_test	356	191067,/,191748,/,192426,/,193106,/,193787,/	t,t,t,t,t	<img class = center src='/static/experiments/beast_fmri_test/images/D.png'></img>	71,89	2750.0	test	<img class = center src='/static/experiments/beast_fmri_test/images/redD.png'></img>	go	2300.0	2.0	27.0	go	non-target	D	71,Index Finger	89,Middle Finger	350.0	450.0	2400.0	2300.0	1.0	450.0	n/a	1.0	ITI
130863	500	n/a	-1	-1	500	0.0	fixation	poldrack-single-stim	63	194832	0.0-7.28-0.28	beast_fmri_test	356	194466,/	t	<div class = centerbox2><div class = fixation>+</div></div>	none	500.0	test	n/a	n/a	n/a	n/a	n/a	n/a	n/a	n/a	n/a	n/a	n/a	n/a	n/a	n/a	n/a	n/a	n/a	n/a	fixation
129173.33303389372	2750	n/a	719	89	2750	1691.66696611	stim	stop-signal	64	197584	0.0-7.28-1.28	beast_fmri_test	356	195144,/,195825,/,196505,/,197185,/,197865,/,198544,/,199224,/	t,t,t,t,t,t,t	<img class = center src='/static/experiments/beast_fmri_test/images/V.png'></img>	71,89	2750.0	test	<img class = center src='/static/experiments/beast_fmri_test/images/redV.png'></img>	go	2300.0	2.0	28.0	go	non-target	V	71,Index Finger	89,Middle Finger	350.0	450.0	2400.0	2300.0	1.0	450.0	n/a	1.0	go_stim
131923.33303389372	1691.6669661062685	n/a	719	89	2750	1691.66696611	stim	stop-signal	64	197584	0.0-7.28-1.28	beast_fmri_test	356	195144,/,195825,/,196505,/,197185,/,197865,/,198544,/,199224,/	t,t,t,t,t,t,t	<img class = center src='/static/experiments/beast_fmri_test/images/V.png'></img>	71,89	2750.0	test	<img class = center src='/static/experiments/beast_fmri_test/images/redV.png'></img>	go	2300.0	2.0	28.0	go	non-target	V	71,Index Finger	89,Middle Finger	350.0	450.0	2400.0	2300.0	1.0	450.0	n/a	1.0	ITI
135818	500	n/a	-1	-1	500	0.0	fixation	poldrack-single-stim	65	199787	0.0-7.29-0.29	beast_fmri_test	356	n/a	n/a	<div class = centerbox2><div class = fixation>+</div></div>	none	500.0	test	n/a	n/a	n/a	n/a	n/a	n/a	n/a	n/a	n/a	n/a	n/a	n/a	n/a	n/a	n/a	n/a	n/a	n/a	fixation
135189.9096360321	450.0	n/a	-1	-1	2750	631.090363968	stim	stop-signal	66	202540	0.0-7.29-1.29	beast_fmri_test	356	199904,/,200585,/,201263,/,201943,/,202623,/	t,t,t,t,t	<img class = center src='/static/experiments/beast_fmri_test/images/V.png'></img>	71,89	2750.0	test	<img class = center src='/static/experiments/beast_fmri_test/images/redV.png'></img>	stop	2300.0	2.0	29.0	stop	non-target	V	71,Index Finger	89,Middle Finger	350.0	450.0	2400.0	2300.0	0.0	450.0	1.0	n/a	go_stim
137489.9096360321	2300.0	n/a	-1	-1	2750	631.090363968	stim	stop-signal	66	202540	0.0-7.29-1.29	beast_fmri_test	356	199904,/,200585,/,201263,/,201943,/,202623,/	t,t,t,t,t	<img class = center src='/static/experiments/beast_fmri_test/images/V.png'></img>	71,89	2750.0	test	<img class = center src='/static/experiments/beast_fmri_test/images/redV.png'></img>	stop	2300.0	2.0	29.0	stop	non-target	V	71,Index Finger	89,Middle Finger	350.0	450.0	2400.0	2300.0	0.0	450.0	1.0	n/a	stop_stim
137939.9096360321	631.09036396790873	n/a	-1	-1	2750	631.090363968	stim	stop-signal	66	202540	0.0-7.29-1.29	beast_fmri_test	356	199904,/,200585,/,201263,/,201943,/,202623,/	t,t,t,t,t	<img class = center src='/static/experiments/beast_fmri_test/images/V.png'></img>	71,89	2750.0	test	<img class = center src='/static/experiments/beast_fmri_test/images/redV.png'></img>	stop	2300.0	2.0	29.0	stop	non-target	V	71,Index Finger	89,Middle Finger	350.0	450.0	2400.0	2300.0	0.0	450.0	1.0	n/a	ITI
139714	500	n/a	-1	-1	500	0.0	fixation	poldrack-single-stim	67	203683	0.0-7.30-0.30	beast_fmri_test	356	203302,/	t	<div class = centerbox2><div class = fixation>+</div></div>	none	500.0	test	n/a	n/a	n/a	n/a	n/a	n/a	n/a	n/a	n/a	n/a	n/a	n/a	n/a	n/a	n/a	n/a	n/a	n/a	fixation
139647.29334896084	2750	n/a	938	89	2750	67.7066510392	stim	stop-signal	68	206434	0.0-7.30-1.30	beast_fmri_test	356	203982,/,204661,/,205342,/,206020,/	t,t,t,t	<img class = center src='/static/experiments/beast_fmri_test/images/T.png'></img>	71,89	2750.0	test	<img class = center src='/static/experiments/beast_fmri_test/images/redT.png'></img>	go	2250.0	2.0	30.0	go	non-target	T	71,Index Finger	89,Middle Finger	350.0	500.0	2400.0	2250.0	1.0	500.0	n/a	1.0	go_stim
142397.29334896084	67.706651039153087	n/a	938	89	2750	67.7066510392	stim	stop-signal	68	206434	0.0-7.30-1.30	beast_fmri_test	356	203982,/,204661,/,205342,/,206020,/	t,t,t,t	<img class = center src='/static/experiments/beast_fmri_test/images/T.png'></img>	71,89	2750.0	test	<img class = center src='/static/experiments/beast_fmri_test/images/redT.png'></img>	go	2250.0	2.0	30.0	go	non-target	T	71,Index Finger	89,Middle Finger	350.0	500.0	2400.0	2250.0	1.0	500.0	n/a	1.0	ITI
143045	500	n/a	-1	-1	500	0.0	fixation	poldrack-single-stim	69	207014	0.0-7.31-0.31	beast_fmri_test	356	206702,/	t	<div class = centerbox2><div class = fixation>+</div></div>	none	500.0	test	n/a	n/a	n/a	n/a	n/a	n/a	n/a	n/a	n/a	n/a	n/a	n/a	n/a	n/a	n/a	n/a	n/a	n/a	fixation
142754.62118946531	2750	n/a	992	71	2750	293.378810535	stim	stop-signal	70	209767	0.0-7.31-1.31	beast_fmri_test	356	207381,/,208060,/,208740,/,209419,/	t,t,t,t	<img class = center src='/static/experiments/beast_fmri_test/images/V.png'></img>	71,89	2750.0	test	<img class = center src='/static/experiments/beast_fmri_test/images/redV.png'></img>	go	2400.0	2.0	31.0	go	target	V	71,Index Finger	89,Middle Finger	350.0	500.0	2400.0	2250.0	1.0	350.0	n/a	1.0	go_stim
145504.62118946531	293.37881053468817	n/a	992	71	2750	293.378810535	stim	stop-signal	70	209767	0.0-7.31-1.31	beast_fmri_test	356	207381,/,208060,/,208740,/,209419,/	t,t,t,t	<img class = center src='/static/experiments/beast_fmri_test/images/V.png'></img>	71,89	2750.0	test	<img class = center src='/static/experiments/beast_fmri_test/images/redV.png'></img>	go	2400.0	2.0	31.0	go	target	V	71,Index Finger	89,Middle Finger	350.0	500.0	2400.0	2250.0	1.0	350.0	n/a	1.0	ITI
146604	500	n/a	-1	-1	500	0.0	fixation	poldrack-single-stim	71	210573	0.0-7.32-0.32	beast_fmri_test	356	210097,/	t	<div class = centerbox2><div class = fixation>+</div></div>	none	500.0	test	n/a	n/a	n/a	n/a	n/a	n/a	n/a	n/a	n/a	n/a	n/a	n/a	n/a	n/a	n/a	n/a	n/a	n/a	fixation
144930.00540078862	500.0	n/a	-1	-1	2750	1674.99459921	stim	stop-signal	72	213324	0.0-7.32-1.32	beast_fmri_test	356	210780,/,211459,/,212138,/,212818,/,213497,/,214177,/,214857,/	t,t,t,t,t,t,t	<img class = center src='/static/experiments/beast_fmri_test/images/P.png'></img>	71,89	2750.0	test	<img class = center src='/static/experiments/beast_fmri_test/images/redP.png'></img>	stop	2250.0	2.0	32.0	stop	non-target	P	71,Index Finger	89,Middle Finger	350.0	500.0	2400.0	2250.0	0.0	500.0	1.0	n/a	go_stim
147180.00540078862	2250.0	n/a	-1	-1	2750	1674.99459921	stim	stop-signal	72	213324	0.0-7.32-1.32	beast_fmri_test	356	210780,/,211459,/,212138,/,212818,/,213497,/,214177,/,214857,/	t,t,t,t,t,t,t	<img class = center src='/static/experiments/beast_fmri_test/images/P.png'></img>	71,89	2750.0	test	<img class = center src='/static/experiments/beast_fmri_test/images/redP.png'></img>	stop	2250.0	2.0	32.0	stop	non-target	P	71,Index Finger	89,Middle Finger	350.0	500.0	2400.0	2250.0	0.0	500.0	1.0	n/a	stop_stim
147680.00540078862	1674.9945992113742	n/a	-1	-1	2750	1674.99459921	stim	stop-signal	72	213324	0.0-7.32-1.32	beast_fmri_test	356	210780,/,211459,/,212138,/,212818,/,213497,/,214177,/,214857,/	t,t,t,t,t,t,t	<img class = center src='/static/experiments/beast_fmri_test/images/P.png'></img>	71,89	2750.0	test	<img class = center src='/static/experiments/beast_fmri_test/images/redP.png'></img>	stop	2250.0	2.0	32.0	stop	non-target	P	71,Index Finger	89,Middle Finger	350.0	500.0	2400.0	2250.0	0.0	500.0	1.0	n/a	ITI
151543	500	n/a	-1	-1	500	0.0	fixation	poldrack-single-stim	73	215512	0.0-7.33-0.33	beast_fmri_test	356	n/a	n/a	<div class = centerbox2><div class = fixation>+</div></div>	none	500.0	test	n/a	n/a	n/a	n/a	n/a	n/a	n/a	n/a	n/a	n/a	n/a	n/a	n/a	n/a	n/a	n/a	n/a	n/a	fixation
150150.07194163586	350.0	n/a	-1	-1	2750	1394.92805836	stim	stop-signal	74	218264	0.0-7.33-1.33	beast_fmri_test	356	215536,/,216216,/,216896,/,217576,/,218254,/,218933,/,219615,/	t,t,t,t,t,t,t	<img class = center src='/static/experiments/beast_fmri_test/images/V.png'></img>	71,89	2750.0	test	<img class = center src='/static/experiments/beast_fmri_test/images/redV.png'></img>	stop	2400.0	2.0	33.0	stop	target	V	71,Index Finger	89,Middle Finger	350.0	550.0	2400.0	2250.0	0.0	350.0	1.0	n/a	go_stim
152550.07194163586	2400.0	n/a	-1	-1	2750	1394.92805836	stim	stop-signal	74	218264	0.0-7.33-1.33	beast_fmri_test	356	215536,/,216216,/,216896,/,217576,/,218254,/,218933,/,219615,/	t,t,t,t,t,t,t	<img class = center src='/static/experiments/beast_fmri_test/images/V.png'></img>	71,89	2750.0	test	<img class = center src='/static/experiments/beast_fmri_test/images/redV.png'></img>	stop	2400.0	2.0	33.0	stop	target	V	71,Index Finger	89,Middle Finger	350.0	550.0	2400.0	2250.0	0.0	350.0	1.0	n/a	stop_stim
152900.07194163586	1394.928058364151	n/a	-1	-1	2750	1394.92805836	stim	stop-signal	74	218264	0.0-7.33-1.33	beast_fmri_test	356	215536,/,216216,/,216896,/,217576,/,218254,/,218933,/,219615,/	t,t,t,t,t,t,t	<img class = center src='/static/experiments/beast_fmri_test/images/V.png'></img>	71,89	2750.0	test	<img class = center src='/static/experiments/beast_fmri_test/images/redV.png'></img>	stop	2400.0	2.0	33.0	stop	target	V	71,Index Finger	89,Middle Finger	350.0	550.0	2400.0	2250.0	0.0	350.0	1.0	n/a	ITI
156205	500	n/a	-1	-1	500	0.0	fixation	poldrack-single-stim	75	220174	0.0-7.34-0.34	beast_fmri_test	356	n/a	n/a	<div class = centerbox2><div class = fixation>+</div></div>	none	500.0	test	n/a	n/a	n/a	n/a	n/a	n/a	n/a	n/a	n/a	n/a	n/a	n/a	n/a	n/a	n/a	n/a	n/a	n/a	fixation
155931.81419204618	400.0	n/a	-1	-1	2750	274.185807954	stim	stop-signal	76	222925	0.0-7.34-1.34	beast_fmri_test	356	220294,/,220973,/,221653,/,222333,/,223012,/	t,t,t,t,t	<img class = center src='/static/experiments/beast_fmri_test/images/P.png'></img>	71,89	2750.0	test	<img class = center src='/static/experiments/beast_fmri_test/images/redP.png'></img>	stop	2350.0	2.0	34.0	stop	target	P	71,Index Finger	89,Middle Finger	400.0	550.0	2350.0	2250.0	0.0	400.0	1.0	n/a	go_stim
158281.81419204618	2350.0	n/a	-1	-1	2750	274.185807954	stim	stop-signal	76	222925	0.0-7.34-1.34	beast_fmri_test	356	220294,/,220973,/,221653,/,222333,/,223012,/	t,t,t,t,t	<img class = center src='/static/experiments/beast_fmri_test/images/P.png'></img>	71,89	2750.0	test	<img class = center src='/static/experiments/beast_fmri_test/images/redP.png'></img>	stop	2350.0	2.0	34.0	stop	target	P	71,Index Finger	89,Middle Finger	400.0	550.0	2350.0	2250.0	0.0	400.0	1.0	n/a	stop_stim
158681.81419204618	274.18580795380751	n/a	-1	-1	2750	274.185807954	stim	stop-signal	76	222925	0.0-7.34-1.34	beast_fmri_test	356	220294,/,220973,/,221653,/,222333,/,223012,/	t,t,t,t,t	<img class = center src='/static/experiments/beast_fmri_test/images/P.png'></img>	71,89	2750.0	test	<img class = center src='/static/experiments/beast_fmri_test/images/redP.png'></img>	stop	2350.0	2.0	34.0	stop	target	P	71,Index Finger	89,Middle Finger	400.0	550.0	2350.0	2250.0	0.0	400.0	1.0	n/a	ITI
159744	500	n/a	-1	-1	500	0.0	fixation	poldrack-single-stim	77	223713	0.0-7.35-0.35	beast_fmri_test	356	223693,/	t	<div class = centerbox2><div class = fixation>+</div></div>	none	500.0	test	n/a	n/a	n/a	n/a	n/a	n/a	n/a	n/a	n/a	n/a	n/a	n/a	n/a	n/a	n/a	n/a	n/a	n/a	fixation
159515.76472433226	2750	n/a	798	89	2750	229.235275668	stim	stop-signal	78	226464	0.0-7.35-1.35	beast_fmri_test	356	224373,/,225050,/,225731,/,226411,/	t,t,t,t	<img class = center src='/static/experiments/beast_fmri_test/images/D.png'></img>	71,89	2750.0	test	<img class = center src='/static/experiments/beast_fmri_test/images/redD.png'></img>	go	2200.0	2.0	35.0	go	non-target	D	71,Index Finger	89,Middle Finger	450.0	550.0	2350.0	2200.0	1.0	550.0	n/a	1.0	go_stim
162265.76472433226	229.23527566774246	n/a	798	89	2750	229.235275668	stim	stop-signal	78	226464	0.0-7.35-1.35	beast_fmri_test	356	224373,/,225050,/,225731,/,226411,/	t,t,t,t	<img class = center src='/static/experiments/beast_fmri_test/images/D.png'></img>	71,89	2750.0	test	<img class = center src='/static/experiments/beast_fmri_test/images/redD.png'></img>	go	2200.0	2.0	35.0	go	non-target	D	71,Index Finger	89,Middle Finger	450.0	550.0	2350.0	2200.0	1.0	550.0	n/a	1.0	ITI
163237	500	n/a	-1	-1	500	0.0	fixation	poldrack-single-stim	79	227206	0.0-7.36-0.36	beast_fmri_test	356	227092,/	t	<div class = centerbox2><div class = fixation>+</div></div>	none	500.0	test	n/a	n/a	n/a	n/a	n/a	n/a	n/a	n/a	n/a	n/a	n/a	n/a	n/a	n/a	n/a	n/a	n/a	n/a	fixation
161716.52416180063	550.0	n/a	-1	-1	2750	1522.4758382	stim	stop-signal	80	229958	0.0-7.36-1.36	beast_fmri_test	356	227770,/,228452,/,229130,/,229811,/,230489,/,231169,/	t,t,t,t,t,t	<img class = center src='/static/experiments/beast_fmri_test/images/D.png'></img>	71,89	2750.0	test	<img class = center src='/static/experiments/beast_fmri_test/images/redD.png'></img>	stop	2200.0	2.0	36.0	stop	non-target	D	71,Index Finger	89,Middle Finger	450.0	550.0	2350.0	2200.0	0.0	550.0	1.0	n/a	go_stim
163916.52416180063	2200.0	n/a	-1	-1	2750	1522.4758382	stim	stop-signal	80	229958	0.0-7.36-1.36	beast_fmri_test	356	227770,/,228452,/,229130,/,229811,/,230489,/,231169,/	t,t,t,t,t,t	<img class = center src='/static/experiments/beast_fmri_test/images/D.png'></img>	71,89	2750.0	test	<img class = center src='/static/experiments/beast_fmri_test/images/redD.png'></img>	stop	2200.0	2.0	36.0	stop	non-target	D	71,Index Finger	89,Middle Finger	450.0	550.0	2350.0	2200.0	0.0	550.0	1.0	n/a	stop_stim
164466.52416180063	1522.4758381993793	n/a	-1	-1	2750	1522.4758382	stim	stop-signal	80	229958	0.0-7.36-1.36	beast_fmri_test	356	227770,/,228452,/,229130,/,229811,/,230489,/,231169,/	t,t,t,t,t,t	<img class = center src='/static/experiments/beast_fmri_test/images/D.png'></img>	71,89	2750.0	test	<img class = center src='/static/experiments/beast_fmri_test/images/redD.png'></img>	stop	2200.0	2.0	36.0	stop	non-target	D	71,Index Finger	89,Middle Finger	450.0	550.0	2350.0	2200.0	0.0	550.0	1.0	n/a	ITI
168023	500	n/a	-1	-1	500	0.0	fixation	poldrack-single-stim	81	231992	0.0-7.37-0.37	beast_fmri_test	356	231849,/	t	<div class = centerbox2><div class = fixation>+</div></div>	none	500.0	test	n/a	n/a	n/a	n/a	n/a	n/a	n/a	n/a	n/a	n/a	n/a	n/a	n/a	n/a	n/a	n/a	n/a	n/a	fixation
167682.18383143601	600.0	n/a	829	89	2750	342.816168564	stim	stop-signal	82	234744	0.0-7.37-1.37	beast_fmri_test	356	232528,/,233209,/,233887,/,234568,/	t,t,t,t	<img class = center src='/static/experiments/beast_fmri_test/images/B.png'></img>	71,89	2750.0	test	<img class = center src='/static/experiments/beast_fmri_test/images/redB.png'></img>	stop	2150.0	2.0	37.0	stop	non-target	B	71,Index Finger	89,Middle Finger	450.0	600.0	2350.0	2150.0	0.0	600.0	0.0	n/a	go_stim
169832.18383143601	2150.0	n/a	829	89	2750	342.816168564	stim	stop-signal	82	234744	0.0-7.37-1.37	beast_fmri_test	356	232528,/,233209,/,233887,/,234568,/	t,t,t,t	<img class = center src='/static/experiments/beast_fmri_test/images/B.png'></img>	71,89	2750.0	test	<img class = center src='/static/experiments/beast_fmri_test/images/redB.png'></img>	stop	2150.0	2.0	37.0	stop	non-target	B	71,Index Finger	89,Middle Finger	450.0	600.0	2350.0	2150.0	0.0	600.0	0.0	n/a	stop_stim
170432.18383143601	342.81616856399802	n/a	829	89	2750	342.816168564	stim	stop-signal	82	234744	0.0-7.37-1.37	beast_fmri_test	356	232528,/,233209,/,233887,/,234568,/	t,t,t,t	<img class = center src='/static/experiments/beast_fmri_test/images/B.png'></img>	71,89	2750.0	test	<img class = center src='/static/experiments/beast_fmri_test/images/redB.png'></img>	stop	2150.0	2.0	37.0	stop	non-target	B	71,Index Finger	89,Middle Finger	450.0	600.0	2350.0	2150.0	0.0	600.0	0.0	n/a	ITI
171631	500	n/a	-1	-1	500	0.0	fixation	poldrack-single-stim	83	235600	0.0-7.38-0.38	beast_fmri_test	356	235248,/	t	<div class = centerbox2><div class = fixation>+</div></div>	none	500.0	test	n/a	n/a	n/a	n/a	n/a	n/a	n/a	n/a	n/a	n/a	n/a	n/a	n/a	n/a	n/a	n/a	n/a	n/a	fixation
170073.99839393448	2750	n/a	1104	71	2750	1560.00160607	stim	stop-signal	84	238353	0.0-7.38-1.38	beast_fmri_test	356	235928,/,236606,/,237286,/,237967,/,238646,/,239326,/	t,t,t,t,t,t	<img class = center src='/static/experiments/beast_fmri_test/images/D.png'></img>	71,89	2750.0	test	<img class = center src='/static/experiments/beast_fmri_test/images/redD.png'></img>	go	2300.0	2.0	38.0	go	target	D	71,Index Finger	89,Middle Finger	450.0	550.0	2300.0	2150.0	1.0	450.0	n/a	1.0	go_stim
172823.99839393448	1560.0016060655109	n/a	1104	71	2750	1560.00160607	stim	stop-signal	84	238353	0.0-7.38-1.38	beast_fmri_test	356	235928,/,236606,/,237286,/,237967,/,238646,/,239326,/	t,t,t,t,t,t	<img class = center src='/static/experiments/beast_fmri_test/images/D.png'></img>	71,89	2750.0	test	<img class = center src='/static/experiments/beast_fmri_test/images/redD.png'></img>	go	2300.0	2.0	38.0	go	target	D	71,Index Finger	89,Middle Finger	450.0	550.0	2300.0	2150.0	1.0	450.0	n/a	1.0	ITI
176458	500	n/a	-1	-1	500	0.0	fixation	poldrack-single-stim	85	240427	0.0-7.39-0.39	beast_fmri_test	356	240006,/	t	<div class = centerbox2><div class = fixation>+</div></div>	none	500.0	test	n/a	n/a	n/a	n/a	n/a	n/a	n/a	n/a	n/a	n/a	n/a	n/a	n/a	n/a	n/a	n/a	n/a	n/a	fixation
176453.84765590372	550.0	n/a	-1	-1	2750	6.15234409627	stim	stop-signal	86	243179	0.0-7.39-1.39	beast_fmri_test	356	240686,/,241364,/,242044,/,242725,/	t,t,t,t	<img class = center src='/static/experiments/beast_fmri_test/images/T.png'></img>	71,89	2750.0	test	<img class = center src='/static/experiments/beast_fmri_test/images/redT.png'></img>	stop	2200.0	2.0	39.0	stop	non-target	T	71,Index Finger	89,Middle Finger	450.0	550.0	2300.0	2200.0	0.0	550.0	1.0	n/a	go_stim
178653.84765590372	2200.0	n/a	-1	-1	2750	6.15234409627	stim	stop-signal	86	243179	0.0-7.39-1.39	beast_fmri_test	356	240686,/,241364,/,242044,/,242725,/	t,t,t,t	<img class = center src='/static/experiments/beast_fmri_test/images/T.png'></img>	71,89	2750.0	test	<img class = center src='/static/experiments/beast_fmri_test/images/redT.png'></img>	stop	2200.0	2.0	39.0	stop	non-target	T	71,Index Finger	89,Middle Finger	450.0	550.0	2300.0	2200.0	0.0	550.0	1.0	n/a	stop_stim
179203.84765590372	6.1523440962662876	n/a	-1	-1	2750	6.15234409627	stim	stop-signal	86	243179	0.0-7.39-1.39	beast_fmri_test	356	240686,/,241364,/,242044,/,242725,/	t,t,t,t	<img class = center src='/static/experiments/beast_fmri_test/images/T.png'></img>	71,89	2750.0	test	<img class = center src='/static/experiments/beast_fmri_test/images/redT.png'></img>	stop	2200.0	2.0	39.0	stop	non-target	T	71,Index Finger	89,Middle Finger	450.0	550.0	2300.0	2200.0	0.0	550.0	1.0	n/a	ITI
179729	500	n/a	-1	-1	500	0.0	fixation	poldrack-single-stim	87	243698	0.0-7.40-0.40	beast_fmri_test	356	243404,/	t	<div class = centerbox2><div class = fixation>+</div></div>	none	500.0	test	n/a	n/a	n/a	n/a	n/a	n/a	n/a	n/a	n/a	n/a	n/a	n/a	n/a	n/a	n/a	n/a	n/a	n/a	fixation
179505.08143591834	2750	n/a	1908	89	2750	225.918564082	stim	stop-signal	88	246450	0.0-7.40-1.40	beast_fmri_test	356	244084,/,244764,/,245443,/,246122,/	t,t,t,t	<img class = center src='/static/experiments/beast_fmri_test/images/B.png'></img>	71,89	2750.0	test	<img class = center src='/static/experiments/beast_fmri_test/images/redB.png'></img>	go	2150.0	2.0	40.0	go	non-target	B	71,Index Finger	89,Middle Finger	450.0	600.0	2300.0	2150.0	1.0	600.0	n/a	1.0	go_stim
182255.08143591834	225.91856408164989	n/a	1908	89	2750	225.918564082	stim	stop-signal	88	246450	0.0-7.40-1.40	beast_fmri_test	356	244084,/,244764,/,245443,/,246122,/	t,t,t,t	<img class = center src='/static/experiments/beast_fmri_test/images/B.png'></img>	71,89	2750.0	test	<img class = center src='/static/experiments/beast_fmri_test/images/redB.png'></img>	go	2150.0	2.0	40.0	go	non-target	B	71,Index Finger	89,Middle Finger	450.0	600.0	2300.0	2150.0	1.0	600.0	n/a	1.0	ITI
183218	500	n/a	-1	-1	500	0.0	fixation	poldrack-single-stim	89	247187	0.0-7.41-0.41	beast_fmri_test	356	246802,/	t	<div class = centerbox2><div class = fixation>+</div></div>	none	500.0	test	n/a	n/a	n/a	n/a	n/a	n/a	n/a	n/a	n/a	n/a	n/a	n/a	n/a	n/a	n/a	n/a	n/a	n/a	fixation
182490.09139575291	2750	n/a	1009	89	2750	728.908604247	stim	stop-signal	90	249938	0.0-7.41-1.41	beast_fmri_test	356	247481,/,248160,/,248841,/,249521,/,250200,/	t,t,t,t,t	<img class = center src='/static/experiments/beast_fmri_test/images/V.png'></img>	71,89	2750.0	test	<img class = center src='/static/experiments/beast_fmri_test/images/redV.png'></img>	go	2150.0	2.0	41.0	go	non-target	V	71,Index Finger	89,Middle Finger	450.0	600.0	2300.0	2150.0	1.0	600.0	n/a	1.0	go_stim
185240.09139575291	728.90860424710002	n/a	1009	89	2750	728.908604247	stim	stop-signal	90	249938	0.0-7.41-1.41	beast_fmri_test	356	247481,/,248160,/,248841,/,249521,/,250200,/	t,t,t,t,t	<img class = center src='/static/experiments/beast_fmri_test/images/V.png'></img>	71,89	2750.0	test	<img class = center src='/static/experiments/beast_fmri_test/images/redV.png'></img>	go	2150.0	2.0	41.0	go	non-target	V	71,Index Finger	89,Middle Finger	450.0	600.0	2300.0	2150.0	1.0	600.0	n/a	1.0	ITI
187210	500	n/a	-1	-1	500	0.0	fixation	poldrack-single-stim	91	251179	0.0-7.42-0.42	beast_fmri_test	356	250879,/	t	<div class = centerbox2><div class = fixation>+</div></div>	none	500.0	test	n/a	n/a	n/a	n/a	n/a	n/a	n/a	n/a	n/a	n/a	n/a	n/a	n/a	n/a	n/a	n/a	n/a	n/a	fixation
184723.03252564999	2750	n/a	971	89	2750	2486.96747435	stim	stop-signal	92	253929	0.0-7.42-1.42	beast_fmri_test	356	251559,/,252238,/,252917,/,253599,/,254278,/,254956,/,255636,/,256317,/	t,t,t,t,t,t,t,t	<img class = center src='/static/experiments/beast_fmri_test/images/B.png'></img>	71,89	2750.0	test	<img class = center src='/static/experiments/beast_fmri_test/images/redB.png'></img>	go	2300.0	2.0	42.0	go	target	B	71,Index Finger	89,Middle Finger	450.0	600.0	2300.0	2150.0	0.0	450.0	n/a	0.0	go_stim
187473.03252564999	2486.9674743499954	n/a	971	89	2750	2486.96747435	stim	stop-signal	92	253929	0.0-7.42-1.42	beast_fmri_test	356	251559,/,252238,/,252917,/,253599,/,254278,/,254956,/,255636,/,256317,/	t,t,t,t,t,t,t,t	<img class = center src='/static/experiments/beast_fmri_test/images/B.png'></img>	71,89	2750.0	test	<img class = center src='/static/experiments/beast_fmri_test/images/redB.png'></img>	go	2300.0	2.0	42.0	go	target	B	71,Index Finger	89,Middle Finger	450.0	600.0	2300.0	2150.0	0.0	450.0	n/a	0.0	ITI
192960	500	n/a	-1	-1	500	0.0	fixation	poldrack-single-stim	93	256929	0.0-7.43-0.43	beast_fmri_test	356	n/a	n/a	<div class = centerbox2><div class = fixation>+</div></div>	none	500.0	test	n/a	n/a	n/a	n/a	n/a	n/a	n/a	n/a	n/a	n/a	n/a	n/a	n/a	n/a	n/a	n/a	n/a	n/a	fixation
192719.80081444277	2750	n/a	1146	71	2750	242.199185557	stim	stop-signal	94	259681	0.0-7.43-1.43	beast_fmri_test	356	256996,/,257676,/,258356,/,259036,/,259714,/	t,t,t,t,t	<img class = center src='/static/experiments/beast_fmri_test/images/B.png'></img>	71,89	2750.0	test	<img class = center src='/static/experiments/beast_fmri_test/images/redB.png'></img>	go	2150.0	2.0	43.0	go	non-target	B	71,Index Finger	89,Middle Finger	450.0	600.0	2300.0	2150.0	0.0	600.0	n/a	0.0	go_stim
195469.80081444277	242.19918555723046	n/a	1146	71	2750	242.199185557	stim	stop-signal	94	259681	0.0-7.43-1.43	beast_fmri_test	356	256996,/,257676,/,258356,/,259036,/,259714,/	t,t,t,t,t	<img class = center src='/static/experiments/beast_fmri_test/images/B.png'></img>	71,89	2750.0	test	<img class = center src='/static/experiments/beast_fmri_test/images/redB.png'></img>	go	2150.0	2.0	43.0	go	non-target	B	71,Index Finger	89,Middle Finger	450.0	600.0	2300.0	2150.0	0.0	600.0	n/a	0.0	ITI
196471	500	n/a	-1	-1	500	0.0	fixation	poldrack-single-stim	95	260440	0.0-7.44-0.44	beast_fmri_test	356	260395,/	t	<div class = centerbox2><div class = fixation>+</div></div>	none	500.0	test	n/a	n/a	n/a	n/a	n/a	n/a	n/a	n/a	n/a	n/a	n/a	n/a	n/a	n/a	n/a	n/a	n/a	n/a	fixation
196351.94102234003	2750	n/a	888	89	2750	119.05897766	stim	stop-signal	96	263190	0.0-7.44-1.44	beast_fmri_test	356	261075,/,261755,/,262436,/,263115,/	t,t,t,t	<img class = center src='/static/experiments/beast_fmri_test/images/T.png'></img>	71,89	2750.0	test	<img class = center src='/static/experiments/beast_fmri_test/images/redT.png'></img>	go	2150.0	2.0	44.0	go	non-target	T	71,Index Finger	89,Middle Finger	450.0	600.0	2300.0	2150.0	1.0	600.0	n/a	1.0	go_stim
199101.94102234003	119.05897765997256	n/a	888	89	2750	119.05897766	stim	stop-signal	96	263190	0.0-7.44-1.44	beast_fmri_test	356	261075,/,261755,/,262436,/,263115,/	t,t,t,t	<img class = center src='/static/experiments/beast_fmri_test/images/T.png'></img>	71,89	2750.0	test	<img class = center src='/static/experiments/beast_fmri_test/images/redT.png'></img>	go	2150.0	2.0	44.0	go	non-target	T	71,Index Finger	89,Middle Finger	450.0	600.0	2300.0	2150.0	1.0	600.0	n/a	1.0	ITI
199854	500	n/a	-1	-1	500	0.0	fixation	poldrack-single-stim	97	263823	0.0-7.45-0.45	beast_fmri_test	356	263795,/	t	<div class = centerbox2><div class = fixation>+</div></div>	none	500.0	test	n/a	n/a	n/a	n/a	n/a	n/a	n/a	n/a	n/a	n/a	n/a	n/a	n/a	n/a	n/a	n/a	n/a	n/a	fixation
198632.89395441685	2750	n/a	858	89	2750	1223.10604558	stim	stop-signal	98	266575	0.0-7.45-1.45	beast_fmri_test	356	264475,/,265154,/,265833,/,266514,/,267194,/	t,t,t,t,t	<img class = center src='/static/experiments/beast_fmri_test/images/V.png'></img>	71,89	2750.0	test	<img class = center src='/static/experiments/beast_fmri_test/images/redV.png'></img>	go	2150.0	2.0	45.0	go	non-target	V	71,Index Finger	89,Middle Finger	450.0	600.0	2300.0	2150.0	1.0	600.0	n/a	1.0	go_stim
201382.89395441685	1223.1060455831414	n/a	858	89	2750	1223.10604558	stim	stop-signal	98	266575	0.0-7.45-1.45	beast_fmri_test	356	264475,/,265154,/,265833,/,266514,/,267194,/	t,t,t,t,t	<img class = center src='/static/experiments/beast_fmri_test/images/V.png'></img>	71,89	2750.0	test	<img class = center src='/static/experiments/beast_fmri_test/images/redV.png'></img>	go	2150.0	2.0	45.0	go	non-target	V	71,Index Finger	89,Middle Finger	450.0	600.0	2300.0	2150.0	1.0	600.0	n/a	1.0	ITI
204345	500	n/a	-1	-1	500	0.0	fixation	poldrack-single-stim	99	268314	0.0-7.46-0.46	beast_fmri_test	356	267873,/	t	<div class = centerbox2><div class = fixation>+</div></div>	none	500.0	test	n/a	n/a	n/a	n/a	n/a	n/a	n/a	n/a	n/a	n/a	n/a	n/a	n/a	n/a	n/a	n/a	n/a	n/a	fixation
203637.67316203791	2750	n/a	712	71	2750	709.326837962	stim	stop-signal	100	271066	0.0-7.46-1.46	beast_fmri_test	356	268552,/,269231,/,269911,/,270591,/,271271,/	t,t,t,t,t	<img class = center src='/static/experiments/beast_fmri_test/images/T.png'></img>	71,89	2750.0	test	<img class = center src='/static/experiments/beast_fmri_test/images/redT.png'></img>	go	2300.0	2.0	46.0	go	target	T	71,Index Finger	89,Middle Finger	450.0	600.0	2300.0	2150.0	1.0	450.0	n/a	1.0	go_stim
206387.67316203791	709.32683796211029	n/a	712	71	2750	709.326837962	stim	stop-signal	100	271066	0.0-7.46-1.46	beast_fmri_test	356	268552,/,269231,/,269911,/,270591,/,271271,/	t,t,t,t,t	<img class = center src='/static/experiments/beast_fmri_test/images/T.png'></img>	71,89	2750.0	test	<img class = center src='/static/experiments/beast_fmri_test/images/redT.png'></img>	go	2300.0	2.0	46.0	go	target	T	71,Index Finger	89,Middle Finger	450.0	600.0	2300.0	2150.0	1.0	450.0	n/a	1.0	ITI
222816	15000	n/a	-1	-1	15000	0.0	practice-no-stop-feedback	poldrack-single-stim	101	286785	0.0-8.0	beast_fmri_test	356	271951,/,272631,/,273310,/,273990,/,274669,/,275349,/,276029,/,276709,/,277388,/,278067,/,278747,/,279426,/,280105,/,280787,/,281465,/,282146,/,282825,/,283505,/,284183,/,284864,/,285543,/,286224,/	t,t,t,t,t,t,t,t,t,t,t,t,t,t,t,t,t,t,t,t,t,t	"<div class = ""centerbox""><p class = ""block-text"">Your delay is 2 trials.</p><p class = block-text>Please wait for the scanner to start the block</p></div>"	77	15000.0	n/a	n/a	n/a	n/a	n/a	n/a	n/a	n/a	n/a	n/a	n/a	n/a	n/a	n/a	n/a	n/a	n/a	n/a	n/a	practice-no-stop-feedback
223319	500	n/a	-1	-1	500	0.0	fixation	poldrack-single-stim	102	287288	0.0-9.0-0.0	beast_fmri_test	356	286903,/	t	<div class = centerbox2><div class = fixation>+</div></div>	none	500.0	test	n/a	n/a	n/a	n/a	n/a	n/a	n/a	n/a	n/a	n/a	n/a	n/a	n/a	n/a	n/a	n/a	n/a	n/a	fixation
222426.87048065965	temp_go_duration	n/a	1186	89	2750	895.12951934	stim	stop-signal	103	290041	0.0-9.0-1.0	beast_fmri_test	356	287583,/,288263,/,288942,/,289623,/,290303,/	t,t,t,t,t	<img class = center src='/static/experiments/beast_fmri_test/images/D.png'></img>	71,89	2750.0	test	<img class = center src='/static/experiments/beast_fmri_test/images/redD.png'></img>	stop	-1.0	2.0	0.0	stop	temp-non-target	D	71,Index Finger	89,Middle Finger	450.0	600.0	2300.0	2150.0	0.0	n/a	0.0	n/a	go_stim
temp-non-target	temp_stop_duration	n/a	1186	89	2750	895.12951934	stim	stop-signal	103	290041	0.0-9.0-1.0	beast_fmri_test	356	287583,/,288263,/,288942,/,289623,/,290303,/	t,t,t,t,t	<img class = center src='/static/experiments/beast_fmri_test/images/D.png'></img>	71,89	2750.0	test	<img class = center src='/static/experiments/beast_fmri_test/images/redD.png'></img>	stop	-1.0	2.0	0.0	stop	temp-non-target	D	71,Index Finger	89,Middle Finger	450.0	600.0	2300.0	2150.0	0.0	n/a	0.0	n/a	stop_stim
225176.87048065965	895.12951934034788	n/a	1186	89	2750	895.12951934	stim	stop-signal	103	290041	0.0-9.0-1.0	beast_fmri_test	356	287583,/,288263,/,288942,/,289623,/,290303,/	t,t,t,t,t	<img class = center src='/static/experiments/beast_fmri_test/images/D.png'></img>	71,89	2750.0	test	<img class = center src='/static/experiments/beast_fmri_test/images/redD.png'></img>	stop	-1.0	2.0	0.0	stop	temp-non-target	D	71,Index Finger	89,Middle Finger	450.0	600.0	2300.0	2150.0	0.0	n/a	0.0	n/a	ITI
227483	500	n/a	-1	-1	500	0.0	fixation	poldrack-single-stim	104	291452	0.0-9.1-0.1	beast_fmri_test	356	290981,/	t	<div class = centerbox2><div class = fixation>+</div></div>	none	500.0	test	n/a	n/a	n/a	n/a	n/a	n/a	n/a	n/a	n/a	n/a	n/a	n/a	n/a	n/a	n/a	n/a	n/a	n/a	fixation
226218.68574345438	2750	n/a	739	89	2750	1266.31425655	stim	stop-signal	105	294204	0.0-9.1-1.1	beast_fmri_test	356	291662,/,292342,/,293021,/,293701,/,294379,/,295059,/	t,t,t,t,t,t	<img class = center src='/static/experiments/beast_fmri_test/images/D.png'></img>	71,89	2750.0	test	<img class = center src='/static/experiments/beast_fmri_test/images/redD.png'></img>	go	-1.0	2.0	1.0	go	temp-non-target	D	71,Index Finger	89,Middle Finger	450.0	600.0	2300.0	2150.0	0.0	n/a	n/a	n/a	go_stim
228968.68574345438	1266.3142565456426	n/a	739	89	2750	1266.31425655	stim	stop-signal	105	294204	0.0-9.1-1.1	beast_fmri_test	356	291662,/,292342,/,293021,/,293701,/,294379,/,295059,/	t,t,t,t,t,t	<img class = center src='/static/experiments/beast_fmri_test/images/D.png'></img>	71,89	2750.0	test	<img class = center src='/static/experiments/beast_fmri_test/images/redD.png'></img>	go	-1.0	2.0	1.0	go	temp-non-target	D	71,Index Finger	89,Middle Finger	450.0	600.0	2300.0	2150.0	0.0	n/a	n/a	n/a	ITI
232015	500	n/a	-1	-1	500	0.0	fixation	poldrack-single-stim	106	295984	0.0-9.2-0.2	beast_fmri_test	356	295739,/	t	<div class = centerbox2><div class = fixation>+</div></div>	none	500.0	test	n/a	n/a	n/a	n/a	n/a	n/a	n/a	n/a	n/a	n/a	n/a	n/a	n/a	n/a	n/a	n/a	n/a	n/a	fixation
230570.12423758797	600.0	n/a	798	89	2750	1446.87576241	stim	stop-signal	107	298736	0.0-9.2-1.2	beast_fmri_test	356	296420,/,297099,/,297778,/,298458,/,299138,/,299818,/	t,t,t,t,t,t	<img class = center src='/static/experiments/beast_fmri_test/images/V.png'></img>	71,89	2750.0	test	<img class = center src='/static/experiments/beast_fmri_test/images/redV.png'></img>	stop	2150.0	2.0	2.0	stop	non-target	V	71,Index Finger	89,Middle Finger	450.0	600.0	2300.0	2150.0	0.0	600.0	0.0	n/a	go_stim
232720.12423758797	2150.0	n/a	798	89	2750	1446.87576241	stim	stop-signal	107	298736	0.0-9.2-1.2	beast_fmri_test	356	296420,/,297099,/,297778,/,298458,/,299138,/,299818,/	t,t,t,t,t,t	<img class = center src='/static/experiments/beast_fmri_test/images/V.png'></img>	71,89	2750.0	test	<img class = center src='/static/experiments/beast_fmri_test/images/redV.png'></img>	stop	2150.0	2.0	2.0	stop	non-target	V	71,Index Finger	89,Middle Finger	450.0	600.0	2300.0	2150.0	0.0	600.0	0.0	n/a	stop_stim
233320.12423758797	1446.8757624120187	n/a	798	89	2750	1446.87576241	stim	stop-signal	107	298736	0.0-9.2-1.2	beast_fmri_test	356	296420,/,297099,/,297778,/,298458,/,299138,/,299818,/	t,t,t,t,t,t	<img class = center src='/static/experiments/beast_fmri_test/images/V.png'></img>	71,89	2750.0	test	<img class = center src='/static/experiments/beast_fmri_test/images/redV.png'></img>	stop	2150.0	2.0	2.0	stop	non-target	V	71,Index Finger	89,Middle Finger	450.0	600.0	2300.0	2150.0	0.0	600.0	0.0	n/a	ITI
236729	500	n/a	-1	-1	500	0.0	fixation	poldrack-single-stim	108	300698	0.0-9.3-0.3	beast_fmri_test	356	300497,/	t	<div class = centerbox2><div class = fixation>+</div></div>	none	500.0	test	n/a	n/a	n/a	n/a	n/a	n/a	n/a	n/a	n/a	n/a	n/a	n/a	n/a	n/a	n/a	n/a	n/a	n/a	fixation
235589.82476332953	2750	n/a	839	89	2750	1142.17523667	stim	stop-signal	109	303451	0.0-9.3-1.3	beast_fmri_test	356	301177,/,301856,/,302536,/,303216,/,303895,/,304576,/	t,t,t,t,t,t	<img class = center src='/static/experiments/beast_fmri_test/images/P.png'></img>	71,89	2750.0	test	<img class = center src='/static/experiments/beast_fmri_test/images/redP.png'></img>	go	2200.0	2.0	3.0	go	non-target	P	71,Index Finger	89,Middle Finger	450.0	550.0	2300.0	2200.0	1.0	550.0	n/a	1.0	go_stim
238339.82476332953	1142.1752366704734	n/a	839	89	2750	1142.17523667	stim	stop-signal	109	303451	0.0-9.3-1.3	beast_fmri_test	356	301177,/,301856,/,302536,/,303216,/,303895,/,304576,/	t,t,t,t,t,t	<img class = center src='/static/experiments/beast_fmri_test/images/P.png'></img>	71,89	2750.0	test	<img class = center src='/static/experiments/beast_fmri_test/images/redP.png'></img>	go	2200.0	2.0	3.0	go	non-target	P	71,Index Finger	89,Middle Finger	450.0	550.0	2300.0	2200.0	1.0	550.0	n/a	1.0	ITI
241140	500	n/a	-1	-1	500	0.0	fixation	poldrack-single-stim	110	305109	0.0-9.4-0.4	beast_fmri_test	356	n/a	n/a	<div class = centerbox2><div class = fixation>+</div></div>	none	500.0	test	n/a	n/a	n/a	n/a	n/a	n/a	n/a	n/a	n/a	n/a	n/a	n/a	n/a	n/a	n/a	n/a	n/a	n/a	fixation
240986.60705763078	450.0	n/a	-1	-1	2750	154.392942369	stim	stop-signal	111	307860	0.0-9.4-1.4	beast_fmri_test	356	305255,/,305935,/,306614,/,307292,/,307974,/	t,t,t,t,t	<img class = center src='/static/experiments/beast_fmri_test/images/V.png'></img>	71,89	2750.0	test	<img class = center src='/static/experiments/beast_fmri_test/images/redV.png'></img>	stop	2300.0	2.0	4.0	stop	target	V	71,Index Finger	89,Middle Finger	450.0	550.0	2300.0	2200.0	0.0	450.0	1.0	n/a	go_stim
243286.60705763078	2300.0	n/a	-1	-1	2750	154.392942369	stim	stop-signal	111	307860	0.0-9.4-1.4	beast_fmri_test	356	305255,/,305935,/,306614,/,307292,/,307974,/	t,t,t,t,t	<img class = center src='/static/experiments/beast_fmri_test/images/V.png'></img>	71,89	2750.0	test	<img class = center src='/static/experiments/beast_fmri_test/images/redV.png'></img>	stop	2300.0	2.0	4.0	stop	target	V	71,Index Finger	89,Middle Finger	450.0	550.0	2300.0	2200.0	0.0	450.0	1.0	n/a	stop_stim
243736.60705763078	154.39294236921523	n/a	-1	-1	2750	154.392942369	stim	stop-signal	111	307860	0.0-9.4-1.4	beast_fmri_test	356	305255,/,305935,/,306614,/,307292,/,307974,/	t,t,t,t,t	<img class = center src='/static/experiments/beast_fmri_test/images/V.png'></img>	71,89	2750.0	test	<img class = center src='/static/experiments/beast_fmri_test/images/redV.png'></img>	stop	2300.0	2.0	4.0	stop	target	V	71,Index Finger	89,Middle Finger	450.0	550.0	2300.0	2200.0	0.0	450.0	1.0	n/a	ITI
244563	500	n/a	-1	-1	500	0.0	fixation	poldrack-single-stim	112	308532	0.0-9.5-0.5	beast_fmri_test	356	n/a	n/a	<div class = centerbox2><div class = fixation>+</div></div>	none	500.0	test	n/a	n/a	n/a	n/a	n/a	n/a	n/a	n/a	n/a	n/a	n/a	n/a	n/a	n/a	n/a	n/a	n/a	n/a	fixation
244054.9774623526	2750	n/a	598	89	2750	510.022537647	stim	stop-signal	113	311284	0.0-9.5-1.5	beast_fmri_test	356	308654,/,309333,/,310013,/,310693,/,311372,/	t,t,t,t,t	<img class = center src='/static/experiments/beast_fmri_test/images/P.png'></img>	71,89	2750.0	test	<img class = center src='/static/experiments/beast_fmri_test/images/redP.png'></img>	go	2250.0	2.0	5.0	go	target	P	71,Index Finger	89,Middle Finger	500.0	550.0	2250.0	2200.0	0.0	500.0	n/a	0.0	go_stim
246804.9774623526	510.02253764736861	n/a	598	89	2750	510.022537647	stim	stop-signal	113	311284	0.0-9.5-1.5	beast_fmri_test	356	308654,/,309333,/,310013,/,310693,/,311372,/	t,t,t,t,t	<img class = center src='/static/experiments/beast_fmri_test/images/P.png'></img>	71,89	2750.0	test	<img class = center src='/static/experiments/beast_fmri_test/images/redP.png'></img>	go	2250.0	2.0	5.0	go	target	P	71,Index Finger	89,Middle Finger	500.0	550.0	2250.0	2200.0	0.0	500.0	n/a	0.0	ITI
248342	500	n/a	-1	-1	500	0.0	fixation	poldrack-single-stim	114	312311	0.0-9.6-0.6	beast_fmri_test	356	312051,/	t	<div class = centerbox2><div class = fixation>+</div></div>	none	500.0	test	n/a	n/a	n/a	n/a	n/a	n/a	n/a	n/a	n/a	n/a	n/a	n/a	n/a	n/a	n/a	n/a	n/a	n/a	fixation
247452.75011464715	2750	n/a	754	89	2750	890.249885353	stim	stop-signal	115	315062	0.0-9.6-1.6	beast_fmri_test	356	312730,/,313411,/,314091,/,314785,/,315449,/	t,t,t,t,t	<img class = center src='/static/experiments/beast_fmri_test/images/T.png'></img>	71,89	2750.0	test	<img class = center src='/static/experiments/beast_fmri_test/images/redT.png'></img>	go	2200.0	2.0	6.0	go	non-target	T	71,Index Finger	89,Middle Finger	500.0	550.0	2250.0	2200.0	1.0	550.0	n/a	1.0	go_stim
250202.75011464715	890.24988535285138	n/a	754	89	2750	890.249885353	stim	stop-signal	115	315062	0.0-9.6-1.6	beast_fmri_test	356	312730,/,313411,/,314091,/,314785,/,315449,/	t,t,t,t,t	<img class = center src='/static/experiments/beast_fmri_test/images/T.png'></img>	71,89	2750.0	test	<img class = center src='/static/experiments/beast_fmri_test/images/redT.png'></img>	go	2200.0	2.0	6.0	go	non-target	T	71,Index Finger	89,Middle Finger	500.0	550.0	2250.0	2200.0	1.0	550.0	n/a	1.0	ITI
252496	500	n/a	-1	-1	500	0.0	fixation	poldrack-single-stim	116	316465	0.0-9.7-0.7	beast_fmri_test	356	316130,/	t	<div class = centerbox2><div class = fixation>+</div></div>	none	500.0	test	n/a	n/a	n/a	n/a	n/a	n/a	n/a	n/a	n/a	n/a	n/a	n/a	n/a	n/a	n/a	n/a	n/a	n/a	fixation
249834.66360668972	2750	n/a	801	89	2750	2663.33639331	stim	stop-signal	117	319217	0.0-9.7-1.7	beast_fmri_test	356	316809,/,317490,/,318170,/,318850,/,319530,/,320209,/,320887,/,321567,/	t,t,t,t,t,t,t,t	<img class = center src='/static/experiments/beast_fmri_test/images/B.png'></img>	71,89	2750.0	test	<img class = center src='/static/experiments/beast_fmri_test/images/redB.png'></img>	go	2200.0	2.0	7.0	go	non-target	B	71,Index Finger	89,Middle Finger	500.0	550.0	2250.0	2200.0	1.0	550.0	n/a	1.0	go_stim
252584.66360668972	2663.3363933102528	n/a	801	89	2750	2663.33639331	stim	stop-signal	117	319217	0.0-9.7-1.7	beast_fmri_test	356	316809,/,317490,/,318170,/,318850,/,319530,/,320209,/,320887,/,321567,/	t,t,t,t,t,t,t,t	<img class = center src='/static/experiments/beast_fmri_test/images/B.png'></img>	71,89	2750.0	test	<img class = center src='/static/experiments/beast_fmri_test/images/redB.png'></img>	go	2200.0	2.0	7.0	go	non-target	B	71,Index Finger	89,Middle Finger	500.0	550.0	2250.0	2200.0	1.0	550.0	n/a	1.0	ITI
258427	500	n/a	-1	-1	500	0.0	fixation	poldrack-single-stim	118	322396	0.0-9.8-0.8	beast_fmri_test	356	322249,/	t	<div class = centerbox2><div class = fixation>+</div></div>	none	500.0	test	n/a	n/a	n/a	n/a	n/a	n/a	n/a	n/a	n/a	n/a	n/a	n/a	n/a	n/a	n/a	n/a	n/a	n/a	fixation
258290.04151178576	2750	n/a	1009	89	2750	138.958488214	stim	stop-signal	119	325148	0.0-9.8-1.8	beast_fmri_test	356	322928,/,323608,/,324287,/,324966,/	t,t,t,t	<img class = center src='/static/experiments/beast_fmri_test/images/T.png'></img>	71,89	2750.0	test	<img class = center src='/static/experiments/beast_fmri_test/images/redT.png'></img>	go	2250.0	2.0	8.0	go	target	T	71,Index Finger	89,Middle Finger	500.0	550.0	2250.0	2200.0	0.0	500.0	n/a	0.0	go_stim
261040.04151178576	138.95848821421455	n/a	1009	89	2750	138.958488214	stim	stop-signal	119	325148	0.0-9.8-1.8	beast_fmri_test	356	322928,/,323608,/,324287,/,324966,/	t,t,t,t	<img class = center src='/static/experiments/beast_fmri_test/images/T.png'></img>	71,89	2750.0	test	<img class = center src='/static/experiments/beast_fmri_test/images/redT.png'></img>	go	2250.0	2.0	8.0	go	target	T	71,Index Finger	89,Middle Finger	500.0	550.0	2250.0	2200.0	0.0	500.0	n/a	0.0	ITI
261832	500	n/a	-1	-1	500	0.0	fixation	poldrack-single-stim	120	325801	0.0-9.9-0.9	beast_fmri_test	356	325647,/	t	<div class = centerbox2><div class = fixation>+</div></div>	none	500.0	test	n/a	n/a	n/a	n/a	n/a	n/a	n/a	n/a	n/a	n/a	n/a	n/a	n/a	n/a	n/a	n/a	n/a	n/a	fixation
261488.84641102218	2750	n/a	937	71	2750	345.153588978	stim	stop-signal	121	328553	0.0-9.9-1.9	beast_fmri_test	356	326326,/,327004,/,327684,/,328365,/	t,t,t,t	<img class = center src='/static/experiments/beast_fmri_test/images/B.png'></img>	71,89	2750.0	test	<img class = center src='/static/experiments/beast_fmri_test/images/redB.png'></img>	go	2250.0	2.0	9.0	go	target	B	71,Index Finger	89,Middle Finger	500.0	550.0	2250.0	2200.0	1.0	500.0	n/a	1.0	go_stim
264238.84641102218	345.15358897781783	n/a	937	71	2750	345.153588978	stim	stop-signal	121	328553	0.0-9.9-1.9	beast_fmri_test	356	326326,/,327004,/,327684,/,328365,/	t,t,t,t	<img class = center src='/static/experiments/beast_fmri_test/images/B.png'></img>	71,89	2750.0	test	<img class = center src='/static/experiments/beast_fmri_test/images/redB.png'></img>	go	2250.0	2.0	9.0	go	target	B	71,Index Finger	89,Middle Finger	500.0	550.0	2250.0	2200.0	1.0	500.0	n/a	1.0	ITI
265447	500	n/a	-1	-1	500	0.0	fixation	poldrack-single-stim	122	329416	0.0-9.10-0.10	beast_fmri_test	356	329045,/	t	<div class = centerbox2><div class = fixation>+</div></div>	none	500.0	test	n/a	n/a	n/a	n/a	n/a	n/a	n/a	n/a	n/a	n/a	n/a	n/a	n/a	n/a	n/a	n/a	n/a	n/a	fixation
265097.24979796598	2750	n/a	848	89	2750	350.750202034	stim	stop-signal	123	332167	0.0-9.10-1.10	beast_fmri_test	356	329724,/,330404,/,331083,/,331763,/,332442,/	t,t,t,t,t	<img class = center src='/static/experiments/beast_fmri_test/images/D.png'></img>	71,89	2750.0	test	<img class = center src='/static/experiments/beast_fmri_test/images/redD.png'></img>	go	2200.0	2.0	10.0	go	non-target	D	71,Index Finger	89,Middle Finger	500.0	550.0	2250.0	2200.0	1.0	550.0	n/a	1.0	go_stim
267847.24979796598	350.75020203400686	n/a	848	89	2750	350.750202034	stim	stop-signal	123	332167	0.0-9.10-1.10	beast_fmri_test	356	329724,/,330404,/,331083,/,331763,/,332442,/	t,t,t,t,t	<img class = center src='/static/experiments/beast_fmri_test/images/D.png'></img>	71,89	2750.0	test	<img class = center src='/static/experiments/beast_fmri_test/images/redD.png'></img>	go	2200.0	2.0	10.0	go	non-target	D	71,Index Finger	89,Middle Finger	500.0	550.0	2250.0	2200.0	1.0	550.0	n/a	1.0	ITI
269067	500	n/a	-1	-1	500	0.0	fixation	poldrack-single-stim	124	333036	0.0-9.11-0.11	beast_fmri_test	356	n/a	n/a	<div class = centerbox2><div class = fixation>+</div></div>	none	500.0	test	n/a	n/a	n/a	n/a	n/a	n/a	n/a	n/a	n/a	n/a	n/a	n/a	n/a	n/a	n/a	n/a	n/a	n/a	fixation
268828.16933320236	2750	n/a	711	89	2750	239.830666798	stim	stop-signal	125	335787	0.0-9.11-1.11	beast_fmri_test	356	333122,/,333802,/,334481,/,335162,/,335840,/	t,t,t,t,t	<img class = center src='/static/experiments/beast_fmri_test/images/T.png'></img>	71,89	2750.0	test	<img class = center src='/static/experiments/beast_fmri_test/images/redT.png'></img>	go	2200.0	2.0	11.0	go	non-target	T	71,Index Finger	89,Middle Finger	500.0	550.0	2250.0	2200.0	1.0	550.0	n/a	1.0	go_stim
271578.16933320236	239.83066679762183	n/a	711	89	2750	239.830666798	stim	stop-signal	125	335787	0.0-9.11-1.11	beast_fmri_test	356	333122,/,333802,/,334481,/,335162,/,335840,/	t,t,t,t,t	<img class = center src='/static/experiments/beast_fmri_test/images/T.png'></img>	71,89	2750.0	test	<img class = center src='/static/experiments/beast_fmri_test/images/redT.png'></img>	go	2200.0	2.0	11.0	go	non-target	T	71,Index Finger	89,Middle Finger	500.0	550.0	2250.0	2200.0	1.0	550.0	n/a	1.0	ITI
272574	500	n/a	-1	-1	500	0.0	fixation	poldrack-single-stim	126	336543	0.0-9.12-0.12	beast_fmri_test	356	336520,/	t	<div class = centerbox2><div class = fixation>+</div></div>	none	500.0	test	n/a	n/a	n/a	n/a	n/a	n/a	n/a	n/a	n/a	n/a	n/a	n/a	n/a	n/a	n/a	n/a	n/a	n/a	fixation
272327.27209790191	2750	n/a	940	89	2750	249.727902098	stim	stop-signal	127	339296	0.0-9.12-1.12	beast_fmri_test	356	337201,/,337880,/,338559,/,339239,/	t,t,t,t	<img class = center src='/static/experiments/beast_fmri_test/images/P.png'></img>	71,89	2750.0	test	<img class = center src='/static/experiments/beast_fmri_test/images/redP.png'></img>	go	2200.0	2.0	12.0	go	non-target	P	71,Index Finger	89,Middle Finger	500.0	550.0	2250.0	2200.0	1.0	550.0	n/a	1.0	go_stim
275077.27209790191	249.7279020981079	n/a	940	89	2750	249.727902098	stim	stop-signal	127	339296	0.0-9.12-1.12	beast_fmri_test	356	337201,/,337880,/,338559,/,339239,/	t,t,t,t	<img class = center src='/static/experiments/beast_fmri_test/images/P.png'></img>	71,89	2750.0	test	<img class = center src='/static/experiments/beast_fmri_test/images/redP.png'></img>	go	2200.0	2.0	12.0	go	non-target	P	71,Index Finger	89,Middle Finger	500.0	550.0	2250.0	2200.0	1.0	550.0	n/a	1.0	ITI
276093	500	n/a	-1	-1	500	0.0	fixation	poldrack-single-stim	128	340062	0.0-9.13-0.13	beast_fmri_test	356	339918,/	t	<div class = centerbox2><div class = fixation>+</div></div>	none	500.0	test	n/a	n/a	n/a	n/a	n/a	n/a	n/a	n/a	n/a	n/a	n/a	n/a	n/a	n/a	n/a	n/a	n/a	n/a	fixation
274357.16264586855	2750	n/a	644	89	2750	1736.83735413	stim	stop-signal	129	342813	0.0-9.13-1.13	beast_fmri_test	356	340598,/,341278,/,341958,/,342637,/,343318,/,343997,/	t,t,t,t,t,t	<img class = center src='/static/experiments/beast_fmri_test/images/P.png'></img>	71,89	2750.0	test	<img class = center src='/static/experiments/beast_fmri_test/images/redP.png'></img>	go	2200.0	2.0	13.0	go	non-target	P	71,Index Finger	89,Middle Finger	500.0	550.0	2250.0	2200.0	1.0	550.0	n/a	1.0	go_stim
277107.16264586855	1736.8373541314445	n/a	644	89	2750	1736.83735413	stim	stop-signal	129	342813	0.0-9.13-1.13	beast_fmri_test	356	340598,/,341278,/,341958,/,342637,/,343318,/,343997,/	t,t,t,t,t,t	<img class = center src='/static/experiments/beast_fmri_test/images/P.png'></img>	71,89	2750.0	test	<img class = center src='/static/experiments/beast_fmri_test/images/redP.png'></img>	go	2200.0	2.0	13.0	go	non-target	P	71,Index Finger	89,Middle Finger	500.0	550.0	2250.0	2200.0	1.0	550.0	n/a	1.0	ITI
281098	500	n/a	-1	-1	500	0.0	fixation	poldrack-single-stim	130	345067	0.0-9.14-0.14	beast_fmri_test	356	344677,/	t	<div class = centerbox2><div class = fixation>+</div></div>	none	500.0	test	n/a	n/a	n/a	n/a	n/a	n/a	n/a	n/a	n/a	n/a	n/a	n/a	n/a	n/a	n/a	n/a	n/a	n/a	fixation
280737.48511412385	2750	n/a	683	89	2750	363.514885876	stim	stop-signal	131	347820	0.0-9.14-1.14	beast_fmri_test	356	345356,/,346037,/,346717,/,347396,/,348076,/	t,t,t,t,t	<img class = center src='/static/experiments/beast_fmri_test/images/B.png'></img>	71,89	2750.0	test	<img class = center src='/static/experiments/beast_fmri_test/images/redB.png'></img>	go	2200.0	2.0	14.0	go	non-target	B	71,Index Finger	89,Middle Finger	500.0	550.0	2250.0	2200.0	1.0	550.0	n/a	1.0	go_stim
283487.48511412385	363.51488587612585	n/a	683	89	2750	363.514885876	stim	stop-signal	131	347820	0.0-9.14-1.14	beast_fmri_test	356	345356,/,346037,/,346717,/,347396,/,348076,/	t,t,t,t,t	<img class = center src='/static/experiments/beast_fmri_test/images/B.png'></img>	71,89	2750.0	test	<img class = center src='/static/experiments/beast_fmri_test/images/redB.png'></img>	go	2200.0	2.0	14.0	go	non-target	B	71,Index Finger	89,Middle Finger	500.0	550.0	2250.0	2200.0	1.0	550.0	n/a	1.0	ITI
284737	500	n/a	-1	-1	500	0.0	fixation	poldrack-single-stim	132	348706	0.0-9.15-0.15	beast_fmri_test	356	n/a	n/a	<div class = centerbox2><div class = fixation>+</div></div>	none	500.0	test	n/a	n/a	n/a	n/a	n/a	n/a	n/a	n/a	n/a	n/a	n/a	n/a	n/a	n/a	n/a	n/a	n/a	n/a	fixation
282786.60250489006	2750	n/a	828	89	2750	1952.39749511	stim	stop-signal	133	351458	0.0-9.15-1.15	beast_fmri_test	356	348757,/,349435,/,350114,/,350795,/,351473,/,352155,/,352833,/	t,t,t,t,t,t,t	<img class = center src='/static/experiments/beast_fmri_test/images/V.png'></img>	71,89	2750.0	test	<img class = center src='/static/experiments/beast_fmri_test/images/redV.png'></img>	go	2200.0	2.0	15.0	go	non-target	V	71,Index Finger	89,Middle Finger	500.0	550.0	2250.0	2200.0	1.0	550.0	n/a	1.0	go_stim
285536.60250489006	1952.3974951099169	n/a	828	89	2750	1952.39749511	stim	stop-signal	133	351458	0.0-9.15-1.15	beast_fmri_test	356	348757,/,349435,/,350114,/,350795,/,351473,/,352155,/,352833,/	t,t,t,t,t,t,t	<img class = center src='/static/experiments/beast_fmri_test/images/V.png'></img>	71,89	2750.0	test	<img class = center src='/static/experiments/beast_fmri_test/images/redV.png'></img>	go	2200.0	2.0	15.0	go	non-target	V	71,Index Finger	89,Middle Finger	500.0	550.0	2250.0	2200.0	1.0	550.0	n/a	1.0	ITI
289961	500	n/a	-1	-1	500	0.0	fixation	poldrack-single-stim	134	353930	0.0-9.16-0.16	beast_fmri_test	356	353513,/	t	<div class = centerbox2><div class = fixation>+</div></div>	none	500.0	test	n/a	n/a	n/a	n/a	n/a	n/a	n/a	n/a	n/a	n/a	n/a	n/a	n/a	n/a	n/a	n/a	n/a	n/a	fixation
289816.35499234579	2750	n/a	775	71	2750	146.645007654	stim	stop-signal	135	356682	0.0-9.16-1.16	beast_fmri_test	356	354193,/,354871,/,355552,/,356232,/	t,t,t,t	<img class = center src='/static/experiments/beast_fmri_test/images/B.png'></img>	71,89	2750.0	test	<img class = center src='/static/experiments/beast_fmri_test/images/redB.png'></img>	go	2250.0	2.0	16.0	go	target	B	71,Index Finger	89,Middle Finger	500.0	550.0	2250.0	2200.0	1.0	500.0	n/a	1.0	go_stim
292566.35499234579	146.64500765418606	n/a	775	71	2750	146.645007654	stim	stop-signal	135	356682	0.0-9.16-1.16	beast_fmri_test	356	354193,/,354871,/,355552,/,356232,/	t,t,t,t	<img class = center src='/static/experiments/beast_fmri_test/images/B.png'></img>	71,89	2750.0	test	<img class = center src='/static/experiments/beast_fmri_test/images/redB.png'></img>	go	2250.0	2.0	16.0	go	target	B	71,Index Finger	89,Middle Finger	500.0	550.0	2250.0	2200.0	1.0	500.0	n/a	1.0	ITI
293381	500	n/a	-1	-1	500	0.0	fixation	poldrack-single-stim	136	357350	0.0-9.17-0.17	beast_fmri_test	356	356910,/	t	<div class = centerbox2><div class = fixation>+</div></div>	none	500.0	test	n/a	n/a	n/a	n/a	n/a	n/a	n/a	n/a	n/a	n/a	n/a	n/a	n/a	n/a	n/a	n/a	n/a	n/a	fixation
292700.78104613116	2750	n/a	755	89	2750	683.218953869	stim	stop-signal	137	360103	0.0-9.17-1.17	beast_fmri_test	356	357592,/,358270,/,358950,/,359630,/,360311,/	t,t,t,t,t	<img class = center src='/static/experiments/beast_fmri_test/images/B.png'></img>	71,89	2750.0	test	<img class = center src='/static/experiments/beast_fmri_test/images/redB.png'></img>	go	2200.0	2.0	17.0	go	non-target	B	71,Index Finger	89,Middle Finger	500.0	550.0	2250.0	2200.0	1.0	550.0	n/a	1.0	go_stim
295450.78104613116	683.2189538688483	n/a	755	89	2750	683.218953869	stim	stop-signal	137	360103	0.0-9.17-1.17	beast_fmri_test	356	357592,/,358270,/,358950,/,359630,/,360311,/	t,t,t,t,t	<img class = center src='/static/experiments/beast_fmri_test/images/B.png'></img>	71,89	2750.0	test	<img class = center src='/static/experiments/beast_fmri_test/images/redB.png'></img>	go	2200.0	2.0	17.0	go	non-target	B	71,Index Finger	89,Middle Finger	500.0	550.0	2250.0	2200.0	1.0	550.0	n/a	1.0	ITI
297337	500	n/a	-1	-1	500	0.0	fixation	poldrack-single-stim	138	361306	0.0-9.18-0.18	beast_fmri_test	356	360990,/	t	<div class = centerbox2><div class = fixation>+</div></div>	none	500.0	test	n/a	n/a	n/a	n/a	n/a	n/a	n/a	n/a	n/a	n/a	n/a	n/a	n/a	n/a	n/a	n/a	n/a	n/a	fixation
297006.53724472551	2750	n/a	678	89	2750	333.462755275	stim	stop-signal	139	364059	0.0-9.18-1.18	beast_fmri_test	356	361670,/,362349,/,363029,/,363708,/,364388,/	t,t,t,t,t	<img class = center src='/static/experiments/beast_fmri_test/images/T.png'></img>	71,89	2750.0	test	<img class = center src='/static/experiments/beast_fmri_test/images/redT.png'></img>	go	2200.0	2.0	18.0	go	non-target	T	71,Index Finger	89,Middle Finger	500.0	550.0	2250.0	2200.0	1.0	550.0	n/a	1.0	go_stim
299756.53724472551	333.46275527450661	n/a	678	89	2750	333.462755275	stim	stop-signal	139	364059	0.0-9.18-1.18	beast_fmri_test	356	361670,/,362349,/,363029,/,363708,/,364388,/	t,t,t,t,t	<img class = center src='/static/experiments/beast_fmri_test/images/T.png'></img>	71,89	2750.0	test	<img class = center src='/static/experiments/beast_fmri_test/images/redT.png'></img>	go	2200.0	2.0	18.0	go	non-target	T	71,Index Finger	89,Middle Finger	500.0	550.0	2250.0	2200.0	1.0	550.0	n/a	1.0	ITI
300941	500	n/a	-1	-1	500	0.0	fixation	poldrack-single-stim	140	364910	0.0-9.19-0.19	beast_fmri_test	356	n/a	n/a	<div class = centerbox2><div class = fixation>+</div></div>	none	500.0	test	n/a	n/a	n/a	n/a	n/a	n/a	n/a	n/a	n/a	n/a	n/a	n/a	n/a	n/a	n/a	n/a	n/a	n/a	fixation
299689.14505909424	2750	n/a	595	89	2750	1254.85494091	stim	stop-signal	141	367663	0.0-9.19-1.19	beast_fmri_test	356	365067,/,365748,/,366428,/,367107,/,367786,/,368466,/	t,t,t,t,t,t	<img class = center src='/static/experiments/beast_fmri_test/images/D.png'></img>	71,89	2750.0	test	<img class = center src='/static/experiments/beast_fmri_test/images/redD.png'></img>	go	2200.0	2.0	19.0	go	non-target	D	71,Index Finger	89,Middle Finger	500.0	550.0	2250.0	2200.0	1.0	550.0	n/a	1.0	go_stim
302439.14505909424	1254.8549409057821	n/a	595	89	2750	1254.85494091	stim	stop-signal	141	367663	0.0-9.19-1.19	beast_fmri_test	356	365067,/,365748,/,366428,/,367107,/,367786,/,368466,/	t,t,t,t,t,t	<img class = center src='/static/experiments/beast_fmri_test/images/D.png'></img>	71,89	2750.0	test	<img class = center src='/static/experiments/beast_fmri_test/images/redD.png'></img>	go	2200.0	2.0	19.0	go	non-target	D	71,Index Finger	89,Middle Finger	500.0	550.0	2250.0	2200.0	1.0	550.0	n/a	1.0	ITI
305469	500	n/a	-1	-1	500	0.0	fixation	poldrack-single-stim	142	369438	0.0-9.20-0.20	beast_fmri_test	356	369146,/	t	<div class = centerbox2><div class = fixation>+</div></div>	none	500.0	test	n/a	n/a	n/a	n/a	n/a	n/a	n/a	n/a	n/a	n/a	n/a	n/a	n/a	n/a	n/a	n/a	n/a	n/a	fixation
304015.52146087476	2750	n/a	618	89	2750	1454.47853913	stim	stop-signal	143	372189	0.0-9.20-1.20	beast_fmri_test	356	369826,/,370505,/,371185,/,371863,/,372544,/,373224,/	t,t,t,t,t,t	<img class = center src='/static/experiments/beast_fmri_test/images/P.png'></img>	71,89	2750.0	test	<img class = center src='/static/experiments/beast_fmri_test/images/redP.png'></img>	go	2200.0	2.0	20.0	go	non-target	P	71,Index Finger	89,Middle Finger	500.0	550.0	2250.0	2200.0	1.0	550.0	n/a	1.0	go_stim
306765.52146087476	1454.4785391252155	n/a	618	89	2750	1454.47853913	stim	stop-signal	143	372189	0.0-9.20-1.20	beast_fmri_test	356	369826,/,370505,/,371185,/,371863,/,372544,/,373224,/	t,t,t,t,t,t	<img class = center src='/static/experiments/beast_fmri_test/images/P.png'></img>	71,89	2750.0	test	<img class = center src='/static/experiments/beast_fmri_test/images/redP.png'></img>	go	2200.0	2.0	20.0	go	non-target	P	71,Index Finger	89,Middle Finger	500.0	550.0	2250.0	2200.0	1.0	550.0	n/a	1.0	ITI
310192	500	n/a	-1	-1	500	0.0	fixation	poldrack-single-stim	144	374161	0.0-9.21-0.21	beast_fmri_test	356	373903,/	t	<div class = centerbox2><div class = fixation>+</div></div>	none	500.0	test	n/a	n/a	n/a	n/a	n/a	n/a	n/a	n/a	n/a	n/a	n/a	n/a	n/a	n/a	n/a	n/a	n/a	n/a	fixation
310020.86422900058	550.0	n/a	646	89	2750	172.135770999	stim	stop-signal	145	376912	0.0-9.21-1.21	beast_fmri_test	356	374583,/,375263,/,375943,/,376623,/	t,t,t,t	<img class = center src='/static/experiments/beast_fmri_test/images/B.png'></img>	71,89	2750.0	test	<img class = center src='/static/experiments/beast_fmri_test/images/redB.png'></img>	stop	2200.0	2.0	21.0	stop	non-target	B	71,Index Finger	89,Middle Finger	500.0	550.0	2250.0	2200.0	0.0	550.0	0.0	n/a	go_stim
312220.86422900058	2200.0	n/a	646	89	2750	172.135770999	stim	stop-signal	145	376912	0.0-9.21-1.21	beast_fmri_test	356	374583,/,375263,/,375943,/,376623,/	t,t,t,t	<img class = center src='/static/experiments/beast_fmri_test/images/B.png'></img>	71,89	2750.0	test	<img class = center src='/static/experiments/beast_fmri_test/images/redB.png'></img>	stop	2200.0	2.0	21.0	stop	non-target	B	71,Index Finger	89,Middle Finger	500.0	550.0	2250.0	2200.0	0.0	550.0	0.0	n/a	stop_stim
312770.86422900058	172.13577099941318	n/a	646	89	2750	172.135770999	stim	stop-signal	145	376912	0.0-9.21-1.21	beast_fmri_test	356	374583,/,375263,/,375943,/,376623,/	t,t,t,t	<img class = center src='/static/experiments/beast_fmri_test/images/B.png'></img>	71,89	2750.0	test	<img class = center src='/static/experiments/beast_fmri_test/images/redB.png'></img>	stop	2200.0	2.0	21.0	stop	non-target	B	71,Index Finger	89,Middle Finger	500.0	550.0	2250.0	2200.0	0.0	550.0	0.0	n/a	ITI
313634	500	n/a	-1	-1	500	0.0	fixation	poldrack-single-stim	146	377603	0.0-9.22-0.22	beast_fmri_test	356	377303,/	t	<div class = centerbox2><div class = fixation>+</div></div>	none	500.0	test	n/a	n/a	n/a	n/a	n/a	n/a	n/a	n/a	n/a	n/a	n/a	n/a	n/a	n/a	n/a	n/a	n/a	n/a	fixation
313474.89918311872	500.0	n/a	-1	-1	2750	160.100816881	stim	stop-signal	147	380354	0.0-9.22-1.22	beast_fmri_test	356	377982,/,378661,/,379342,/,380022,/	t,t,t,t	<img class = center src='/static/experiments/beast_fmri_test/images/P.png'></img>	71,89	2750.0	test	<img class = center src='/static/experiments/beast_fmri_test/images/redP.png'></img>	stop	2250.0	2.0	22.0	stop	target	P	71,Index Finger	89,Middle Finger	500.0	500.0	2250.0	2200.0	0.0	500.0	1.0	n/a	go_stim
315724.89918311872	2250.0	n/a	-1	-1	2750	160.100816881	stim	stop-signal	147	380354	0.0-9.22-1.22	beast_fmri_test	356	377982,/,378661,/,379342,/,380022,/	t,t,t,t	<img class = center src='/static/experiments/beast_fmri_test/images/P.png'></img>	71,89	2750.0	test	<img class = center src='/static/experiments/beast_fmri_test/images/redP.png'></img>	stop	2250.0	2.0	22.0	stop	target	P	71,Index Finger	89,Middle Finger	500.0	500.0	2250.0	2200.0	0.0	500.0	1.0	n/a	stop_stim
316224.89918311872	160.10081688129333	n/a	-1	-1	2750	160.100816881	stim	stop-signal	147	380354	0.0-9.22-1.22	beast_fmri_test	356	377982,/,378661,/,379342,/,380022,/	t,t,t,t	<img class = center src='/static/experiments/beast_fmri_test/images/P.png'></img>	71,89	2750.0	test	<img class = center src='/static/experiments/beast_fmri_test/images/redP.png'></img>	stop	2250.0	2.0	22.0	stop	target	P	71,Index Finger	89,Middle Finger	500.0	500.0	2250.0	2200.0	0.0	500.0	1.0	n/a	ITI
317065	500	n/a	-1	-1	500	0.0	fixation	poldrack-single-stim	148	381034	0.0-9.23-0.23	beast_fmri_test	356	380702,/	t	<div class = centerbox2><div class = fixation>+</div></div>	none	500.0	test	n/a	n/a	n/a	n/a	n/a	n/a	n/a	n/a	n/a	n/a	n/a	n/a	n/a	n/a	n/a	n/a	n/a	n/a	fixation
316720.55560583854	2750	n/a	688	71	2750	346.444394161	stim	stop-signal	149	383786	0.0-9.23-1.23	beast_fmri_test	356	381381,/,382059,/,382740,/,383419,/,384099,/	t,t,t,t,t	<img class = center src='/static/experiments/beast_fmri_test/images/B.png'></img>	71,89	2750.0	test	<img class = center src='/static/experiments/beast_fmri_test/images/redB.png'></img>	go	2200.0	2.0	23.0	go	target	B	71,Index Finger	89,Middle Finger	550.0	500.0	2200.0	2200.0	1.0	550.0	n/a	1.0	go_stim
319470.55560583854	346.44439416143183	n/a	688	71	2750	346.444394161	stim	stop-signal	149	383786	0.0-9.23-1.23	beast_fmri_test	356	381381,/,382059,/,382740,/,383419,/,384099,/	t,t,t,t,t	<img class = center src='/static/experiments/beast_fmri_test/images/B.png'></img>	71,89	2750.0	test	<img class = center src='/static/experiments/beast_fmri_test/images/redB.png'></img>	go	2200.0	2.0	23.0	go	target	B	71,Index Finger	89,Middle Finger	550.0	500.0	2200.0	2200.0	1.0	550.0	n/a	1.0	ITI
320683	500	n/a	-1	-1	500	0.0	fixation	poldrack-single-stim	150	384652	0.0-9.24-0.24	beast_fmri_test	356	n/a	n/a	<div class = centerbox2><div class = fixation>+</div></div>	none	500.0	test	n/a	n/a	n/a	n/a	n/a	n/a	n/a	n/a	n/a	n/a	n/a	n/a	n/a	n/a	n/a	n/a	n/a	n/a	fixation
320409.26153239171	550.0	n/a	-1	-1	2750	275.738467608	stim	stop-signal	151	387404	0.0-9.24-1.24	beast_fmri_test	356	384779,/,385459,/,386139,/,386817,/,387497,/	t,t,t,t,t	<img class = center src='/static/experiments/beast_fmri_test/images/P.png'></img>	71,89	2750.0	test	<img class = center src='/static/experiments/beast_fmri_test/images/redP.png'></img>	stop	2200.0	2.0	24.0	stop	target	P	71,Index Finger	89,Middle Finger	550.0	500.0	2200.0	2200.0	0.0	550.0	1.0	n/a	go_stim
