onset	duration	text	rt	key_press	block_duration	timing_post_trial	trial_id	trial_type	trial_index	time_elapsed	internal_node_id	exp_id	subject_id	trigger_times	triggers	stimulus	possible_responses	stim_duration	exp_stage	SS_stimulus	SS_trial_type	SS_duration	load	trial_num	stop_trial_type	adaptive_trial_type	stim	yes_response_key	no_response_key	SSD_target	SSD_non_target	SSTarget	SSNonTarget	go_acc	SS_delay	stop_acc	adaptive_acc	new_trial_type
test	10880	n/a	-1	-1	10880	0.0	practice-no-stop-feedback	poldrack-single-stim	198	580784	0.0-12.0	beast_fmri_test	356	569908,/,570588,/,571267,/,571947,/,572626,/,573306,/,573985,/,574666,/,575346,/,576025,/,576704,/,577384,/,578062,/,578742,/,579422,/,580102,/,580782,/	t,t,t,t,t,t,t,t,t,t,t,t,t,t,t,t,t	"<div class = ""centerbox""><p class = ""block-text"">Your delay is 2 trials.</p><p class = block-text>Please wait for the scanner to start the block</p></div>"	77	10880.0	n/a	n/a	n/a	n/a	n/a	n/a	n/a	n/a	n/a	n/a	n/a	n/a	n/a	n/a	n/a	n/a	n/a	n/a	n/a	start_functional_block
11379	500	n/a	-1	-1	500	0.0	fixation	poldrack-single-stim	199	581287	0.0-13.0-0.0	beast_fmri_test	356	n/a	n/a	<div class = centerbox2><div class = fixation>+</div></div>	none	500.0	test	n/a	n/a	n/a	n/a	n/a	n/a	n/a	n/a	n/a	n/a	n/a	n/a	n/a	n/a	n/a	n/a	n/a	n/a	fixation
10374.706059698481	temp_go_duration	n/a	545	89	2750	1006.2939403	stim	stop-signal	200	584039	0.0-13.0-1.0	beast_fmri_test	356	581461,/,582142,/,582822,/,583501,/,584181,/,584860,/	t,t,t,t,t,t	<img class = center src='/static/experiments/beast_fmri_test/images/T.png'></img>	71,89	2750.0	test	<img class = center src='/static/experiments/beast_fmri_test/images/redT.png'></img>	stop	-1.0	2.0	0.0	stop	temp-non-target	T	71,Index Finger	89,Middle Finger	500.0	600.0	2250.0	2200.0	0.0	n/a	0.0	n/a	go_stim
temp-non-target	temp_stop_duration	n/a	545	89	2750	1006.2939403	stim	stop-signal	200	584039	0.0-13.0-1.0	beast_fmri_test	356	581461,/,582142,/,582822,/,583501,/,584181,/,584860,/	t,t,t,t,t,t	<img class = center src='/static/experiments/beast_fmri_test/images/T.png'></img>	71,89	2750.0	test	<img class = center src='/static/experiments/beast_fmri_test/images/redT.png'></img>	stop	-1.0	2.0	0.0	stop	temp-non-target	T	71,Index Finger	89,Middle Finger	500.0	600.0	2250.0	2200.0	0.0	n/a	0.0	n/a	stop_stim
13124.706059698481	1006.2939403015472	n/a	545	89	2750	1006.2939403	stim	stop-signal	200	584039	0.0-13.0-1.0	beast_fmri_test	356	581461,/,582142,/,582822,/,583501,/,584181,/,584860,/	t,t,t,t,t,t	<img class = center src='/static/experiments/beast_fmri_test/images/T.png'></img>	71,89	2750.0	test	<img class = center src='/static/experiments/beast_fmri_test/images/redT.png'></img>	stop	-1.0	2.0	0.0	stop	temp-non-target	T	71,Index Finger	89,Middle Finger	500.0	600.0	2250.0	2200.0	0.0	n/a	0.0	n/a	ITI
15663	500	n/a	-1	-1	500	0.0	fixation	poldrack-single-stim	201	585571	0.0-13.1-0.1	beast_fmri_test	356	585541,/	t	<div class = centerbox2><div class = fixation>+</div></div>	none	500.0	test	n/a	n/a	n/a	n/a	n/a	n/a	n/a	n/a	n/a	n/a	n/a	n/a	n/a	n/a	n/a	n/a	n/a	n/a	fixation
15574.493452285999	temp_go_duration	n/a	711	89	2750	90.506547714	stim	stop-signal	202	588323	0.0-13.1-1.1	beast_fmri_test	356	586221,/,586900,/,587580,/,588259,/	t,t,t,t	<img class = center src='/static/experiments/beast_fmri_test/images/P.png'></img>	71,89	2750.0	test	<img class = center src='/static/experiments/beast_fmri_test/images/redP.png'></img>	stop	-1.0	2.0	1.0	stop	temp-non-target	P	71,Index Finger	89,Middle Finger	500.0	600.0	2250.0	2200.0	0.0	n/a	0.0	n/a	go_stim
temp-non-target	temp_stop_duration	n/a	711	89	2750	90.506547714	stim	stop-signal	202	588323	0.0-13.1-1.1	beast_fmri_test	356	586221,/,586900,/,587580,/,588259,/	t,t,t,t	<img class = center src='/static/experiments/beast_fmri_test/images/P.png'></img>	71,89	2750.0	test	<img class = center src='/static/experiments/beast_fmri_test/images/redP.png'></img>	stop	-1.0	2.0	1.0	stop	temp-non-target	P	71,Index Finger	89,Middle Finger	500.0	600.0	2250.0	2200.0	0.0	n/a	0.0	n/a	stop_stim
18324.493452285999	90.506547714047315	n/a	711	89	2750	90.506547714	stim	stop-signal	202	588323	0.0-13.1-1.1	beast_fmri_test	356	586221,/,586900,/,587580,/,588259,/	t,t,t,t	<img class = center src='/static/experiments/beast_fmri_test/images/P.png'></img>	71,89	2750.0	test	<img class = center src='/static/experiments/beast_fmri_test/images/redP.png'></img>	stop	-1.0	2.0	1.0	stop	temp-non-target	P	71,Index Finger	89,Middle Finger	500.0	600.0	2250.0	2200.0	0.0	n/a	0.0	n/a	ITI
19031	500	n/a	-1	-1	500	0.0	fixation	poldrack-single-stim	203	588939	0.0-13.2-0.2	beast_fmri_test	356	n/a	n/a	<div class = centerbox2><div class = fixation>+</div></div>	none	500.0	test	n/a	n/a	n/a	n/a	n/a	n/a	n/a	n/a	n/a	n/a	n/a	n/a	n/a	n/a	n/a	n/a	n/a	n/a	fixation
18562.277619302506	2750	n/a	886	89	2750	469.722380698	stim	stop-signal	204	591690	0.0-13.2-1.2	beast_fmri_test	356	588940,/,589619,/,590298,/,590978,/,591657,/	t,t,t,t,t	<img class = center src='/static/experiments/beast_fmri_test/images/B.png'></img>	71,89	2750.0	test	<img class = center src='/static/experiments/beast_fmri_test/images/redB.png'></img>	go	2150.0	2.0	2.0	go	non-target	B	71,Index Finger	89,Middle Finger	500.0	600.0	2250.0	2150.0	1.0	600.0	n/a	1.0	go_stim
21312.277619302506	469.72238069754735	n/a	886	89	2750	469.722380698	stim	stop-signal	204	591690	0.0-13.2-1.2	beast_fmri_test	356	588940,/,589619,/,590298,/,590978,/,591657,/	t,t,t,t,t	<img class = center src='/static/experiments/beast_fmri_test/images/B.png'></img>	71,89	2750.0	test	<img class = center src='/static/experiments/beast_fmri_test/images/redB.png'></img>	go	2150.0	2.0	2.0	go	non-target	B	71,Index Finger	89,Middle Finger	500.0	600.0	2250.0	2150.0	1.0	600.0	n/a	1.0	ITI
22779	500	n/a	-1	-1	500	0.0	fixation	poldrack-single-stim	205	592687	0.0-13.3-0.3	beast_fmri_test	356	592337,/	t	<div class = centerbox2><div class = fixation>+</div></div>	none	500.0	test	n/a	n/a	n/a	n/a	n/a	n/a	n/a	n/a	n/a	n/a	n/a	n/a	n/a	n/a	n/a	n/a	n/a	n/a	fixation
22620.050120990956	2750	n/a	783	89	2750	159.949879009	stim	stop-signal	206	595438	0.0-13.3-1.3	beast_fmri_test	356	593018,/,593696,/,594377,/,595056,/	t,t,t,t	<img class = center src='/static/experiments/beast_fmri_test/images/V.png'></img>	71,89	2750.0	test	<img class = center src='/static/experiments/beast_fmri_test/images/redV.png'></img>	go	2150.0	2.0	3.0	go	non-target	V	71,Index Finger	89,Middle Finger	500.0	600.0	2250.0	2150.0	1.0	600.0	n/a	1.0	go_stim
25370.050120990956	159.9498790091011	n/a	783	89	2750	159.949879009	stim	stop-signal	206	595438	0.0-13.3-1.3	beast_fmri_test	356	593018,/,593696,/,594377,/,595056,/	t,t,t,t	<img class = center src='/static/experiments/beast_fmri_test/images/V.png'></img>	71,89	2750.0	test	<img class = center src='/static/experiments/beast_fmri_test/images/redV.png'></img>	go	2150.0	2.0	3.0	go	non-target	V	71,Index Finger	89,Middle Finger	500.0	600.0	2250.0	2150.0	1.0	600.0	n/a	1.0	ITI
26211	500	n/a	-1	-1	500	0.0	fixation	poldrack-single-stim	207	596119	0.0-13.4-0.4	beast_fmri_test	356	595735,/	t	<div class = centerbox2><div class = fixation>+</div></div>	none	500.0	test	n/a	n/a	n/a	n/a	n/a	n/a	n/a	n/a	n/a	n/a	n/a	n/a	n/a	n/a	n/a	n/a	n/a	n/a	fixation
25422.032853640616	2750	n/a	799	89	2750	791.967146359	stim	stop-signal	208	598872	0.0-13.4-1.4	beast_fmri_test	356	596415,/,597094,/,597773,/,598454,/,599134,/	t,t,t,t,t	<img class = center src='/static/experiments/beast_fmri_test/images/P.png'></img>	71,89	2750.0	test	<img class = center src='/static/experiments/beast_fmri_test/images/redP.png'></img>	go	2150.0	2.0	4.0	go	non-target	P	71,Index Finger	89,Middle Finger	500.0	600.0	2250.0	2150.0	1.0	600.0	n/a	1.0	go_stim
28172.032853640616	791.96714635940305	n/a	799	89	2750	791.967146359	stim	stop-signal	208	598872	0.0-13.4-1.4	beast_fmri_test	356	596415,/,597094,/,597773,/,598454,/,599134,/	t,t,t,t,t	<img class = center src='/static/experiments/beast_fmri_test/images/P.png'></img>	71,89	2750.0	test	<img class = center src='/static/experiments/beast_fmri_test/images/redP.png'></img>	go	2150.0	2.0	4.0	go	non-target	P	71,Index Finger	89,Middle Finger	500.0	600.0	2250.0	2150.0	1.0	600.0	n/a	1.0	ITI
30282	500	n/a	-1	-1	500	0.0	fixation	poldrack-single-stim	209	600190	0.0-13.5-0.5	beast_fmri_test	356	599814,/	t	<div class = centerbox2><div class = fixation>+</div></div>	none	500.0	test	n/a	n/a	n/a	n/a	n/a	n/a	n/a	n/a	n/a	n/a	n/a	n/a	n/a	n/a	n/a	n/a	n/a	n/a	fixation
29971.018271051347	500.0	n/a	602	71	2750	312.981728949	stim	stop-signal	210	602942	0.0-13.5-1.5	beast_fmri_test	356	600494,/,601173,/,601852,/,602531,/,603212,/	t,t,t,t,t	<img class = center src='/static/experiments/beast_fmri_test/images/V.png'></img>	71,89	2750.0	test	<img class = center src='/static/experiments/beast_fmri_test/images/redV.png'></img>	stop	2250.0	2.0	5.0	stop	target	V	71,Index Finger	89,Middle Finger	500.0	600.0	2250.0	2150.0	0.0	500.0	0.0	n/a	go_stim
32221.018271051347	2250.0	n/a	602	71	2750	312.981728949	stim	stop-signal	210	602942	0.0-13.5-1.5	beast_fmri_test	356	600494,/,601173,/,601852,/,602531,/,603212,/	t,t,t,t,t	<img class = center src='/static/experiments/beast_fmri_test/images/V.png'></img>	71,89	2750.0	test	<img class = center src='/static/experiments/beast_fmri_test/images/redV.png'></img>	stop	2250.0	2.0	5.0	stop	target	V	71,Index Finger	89,Middle Finger	500.0	600.0	2250.0	2150.0	0.0	500.0	0.0	n/a	stop_stim
32721.018271051347	312.98172894871027	n/a	602	71	2750	312.981728949	stim	stop-signal	210	602942	0.0-13.5-1.5	beast_fmri_test	356	600494,/,601173,/,601852,/,602531,/,603212,/	t,t,t,t,t	<img class = center src='/static/experiments/beast_fmri_test/images/V.png'></img>	71,89	2750.0	test	<img class = center src='/static/experiments/beast_fmri_test/images/redV.png'></img>	stop	2250.0	2.0	5.0	stop	target	V	71,Index Finger	89,Middle Finger	500.0	600.0	2250.0	2150.0	0.0	500.0	0.0	n/a	ITI
33873	500	n/a	-1	-1	500	0.0	fixation	poldrack-single-stim	211	603781	0.0-13.6-0.6	beast_fmri_test	356	n/a	n/a	<div class = centerbox2><div class = fixation>+</div></div>	none	500.0	test	n/a	n/a	n/a	n/a	n/a	n/a	n/a	n/a	n/a	n/a	n/a	n/a	n/a	n/a	n/a	n/a	n/a	n/a	fixation
32243.715122790774	2750	n/a	1204	89	2750	1630.28487721	stim	stop-signal	212	606532	0.0-13.6-1.6	beast_fmri_test	356	603892,/,604572,/,605251,/,605930,/,606610,/,607290,/,607970,/	t,t,t,t,t,t,t	<img class = center src='/static/experiments/beast_fmri_test/images/T.png'></img>	71,89	2750.0	test	<img class = center src='/static/experiments/beast_fmri_test/images/redT.png'></img>	go	2150.0	2.0	6.0	go	non-target	T	71,Index Finger	89,Middle Finger	450.0	600.0	2250.0	2150.0	1.0	600.0	n/a	1.0	go_stim
34993.715122790774	1630.2848772092368	n/a	1204	89	2750	1630.28487721	stim	stop-signal	212	606532	0.0-13.6-1.6	beast_fmri_test	356	603892,/,604572,/,605251,/,605930,/,606610,/,607290,/,607970,/	t,t,t,t,t,t,t	<img class = center src='/static/experiments/beast_fmri_test/images/T.png'></img>	71,89	2750.0	test	<img class = center src='/static/experiments/beast_fmri_test/images/redT.png'></img>	go	2150.0	2.0	6.0	go	non-target	T	71,Index Finger	89,Middle Finger	450.0	600.0	2250.0	2150.0	1.0	600.0	n/a	1.0	ITI
38781	500	n/a	-1	-1	500	0.0	fixation	poldrack-single-stim	213	608689	0.0-13.7-0.7	beast_fmri_test	356	608649,/	t	<div class = centerbox2><div class = fixation>+</div></div>	none	500.0	test	n/a	n/a	n/a	n/a	n/a	n/a	n/a	n/a	n/a	n/a	n/a	n/a	n/a	n/a	n/a	n/a	n/a	n/a	fixation
38214.224948191317	600.0	n/a	849	89	2750	566.775051809	stim	stop-signal	214	611439	0.0-13.7-1.7	beast_fmri_test	356	609329,/,610008,/,610688,/,611367,/	t,t,t,t	<img class = center src='/static/experiments/beast_fmri_test/images/B.png'></img>	71,89	2750.0	test	<img class = center src='/static/experiments/beast_fmri_test/images/redB.png'></img>	stop	2150.0	2.0	7.0	stop	non-target	B	71,Index Finger	89,Middle Finger	450.0	600.0	2250.0	2150.0	0.0	600.0	0.0	n/a	go_stim
40364.224948191317	2150.0	n/a	849	89	2750	566.775051809	stim	stop-signal	214	611439	0.0-13.7-1.7	beast_fmri_test	356	609329,/,610008,/,610688,/,611367,/	t,t,t,t	<img class = center src='/static/experiments/beast_fmri_test/images/B.png'></img>	71,89	2750.0	test	<img class = center src='/static/experiments/beast_fmri_test/images/redB.png'></img>	stop	2150.0	2.0	7.0	stop	non-target	B	71,Index Finger	89,Middle Finger	450.0	600.0	2250.0	2150.0	0.0	600.0	0.0	n/a	stop_stim
40964.224948191317	566.77505180866797	n/a	849	89	2750	566.775051809	stim	stop-signal	214	611439	0.0-13.7-1.7	beast_fmri_test	356	609329,/,610008,/,610688,/,611367,/	t,t,t,t	<img class = center src='/static/experiments/beast_fmri_test/images/B.png'></img>	71,89	2750.0	test	<img class = center src='/static/experiments/beast_fmri_test/images/redB.png'></img>	stop	2150.0	2.0	7.0	stop	non-target	B	71,Index Finger	89,Middle Finger	450.0	600.0	2250.0	2150.0	0.0	600.0	0.0	n/a	ITI
42623	500	n/a	-1	-1	500	0.0	fixation	poldrack-single-stim	215	612531	0.0-13.8-0.8	beast_fmri_test	356	612048,/	t	<div class = centerbox2><div class = fixation>+</div></div>	none	500.0	test	n/a	n/a	n/a	n/a	n/a	n/a	n/a	n/a	n/a	n/a	n/a	n/a	n/a	n/a	n/a	n/a	n/a	n/a	fixation
40349.840432646801	550.0	n/a	-1	-1	2750	2275.15956735	stim	stop-signal	216	615283	0.0-13.8-1.8	beast_fmri_test	356	612727,/,613408,/,614087,/,614767,/,615447,/,616127,/,616806,/,617486,/	t,t,t,t,t,t,t,t	<img class = center src='/static/experiments/beast_fmri_test/images/D.png'></img>	71,89	2750.0	test	<img class = center src='/static/experiments/beast_fmri_test/images/redD.png'></img>	stop	2200.0	2.0	8.0	stop	non-target	D	71,Index Finger	89,Middle Finger	450.0	550.0	2250.0	2200.0	0.0	550.0	1.0	n/a	go_stim
42549.840432646801	2200.0	n/a	-1	-1	2750	2275.15956735	stim	stop-signal	216	615283	0.0-13.8-1.8	beast_fmri_test	356	612727,/,613408,/,614087,/,614767,/,615447,/,616127,/,616806,/,617486,/	t,t,t,t,t,t,t,t	<img class = center src='/static/experiments/beast_fmri_test/images/D.png'></img>	71,89	2750.0	test	<img class = center src='/static/experiments/beast_fmri_test/images/redD.png'></img>	stop	2200.0	2.0	8.0	stop	non-target	D	71,Index Finger	89,Middle Finger	450.0	550.0	2250.0	2200.0	0.0	550.0	1.0	n/a	stop_stim
43099.840432646801	2275.1595673531892	n/a	-1	-1	2750	2275.15956735	stim	stop-signal	216	615283	0.0-13.8-1.8	beast_fmri_test	356	612727,/,613408,/,614087,/,614767,/,615447,/,616127,/,616806,/,617486,/	t,t,t,t,t,t,t,t	<img class = center src='/static/experiments/beast_fmri_test/images/D.png'></img>	71,89	2750.0	test	<img class = center src='/static/experiments/beast_fmri_test/images/redD.png'></img>	stop	2200.0	2.0	8.0	stop	non-target	D	71,Index Finger	89,Middle Finger	450.0	550.0	2250.0	2200.0	0.0	550.0	1.0	n/a	ITI
48176	500	n/a	-1	-1	500	0.0	fixation	poldrack-single-stim	217	618084	0.0-13.9-0.9	beast_fmri_test	356	n/a	n/a	<div class = centerbox2><div class = fixation>+</div></div>	none	500.0	test	n/a	n/a	n/a	n/a	n/a	n/a	n/a	n/a	n/a	n/a	n/a	n/a	n/a	n/a	n/a	n/a	n/a	n/a	fixation
46037.591911026509	2750	n/a	876	89	2750	2138.40808897	stim	stop-signal	218	620834	0.0-13.9-1.9	beast_fmri_test	356	618165,/,618846,/,619525,/,620205,/,620883,/,621565,/,622244,/,622924,/	t,t,t,t,t,t,t,t	<img class = center src='/static/experiments/beast_fmri_test/images/T.png'></img>	71,89	2750.0	test	<img class = center src='/static/experiments/beast_fmri_test/images/redT.png'></img>	go	2150.0	2.0	9.0	go	non-target	T	71,Index Finger	89,Middle Finger	450.0	600.0	2250.0	2150.0	1.0	600.0	n/a	1.0	go_stim
48787.591911026509	2138.4080889734869	n/a	876	89	2750	2138.40808897	stim	stop-signal	218	620834	0.0-13.9-1.9	beast_fmri_test	356	618165,/,618846,/,619525,/,620205,/,620883,/,621565,/,622244,/,622924,/	t,t,t,t,t,t,t,t	<img class = center src='/static/experiments/beast_fmri_test/images/T.png'></img>	71,89	2750.0	test	<img class = center src='/static/experiments/beast_fmri_test/images/redT.png'></img>	go	2150.0	2.0	9.0	go	non-target	T	71,Index Finger	89,Middle Finger	450.0	600.0	2250.0	2150.0	1.0	600.0	n/a	1.0	ITI
53590	500	n/a	-1	-1	500	0.0	fixation	poldrack-single-stim	219	623498	0.0-13.10-0.10	beast_fmri_test	356	n/a	n/a	<div class = centerbox2><div class = fixation>+</div></div>	none	500.0	test	n/a	n/a	n/a	n/a	n/a	n/a	n/a	n/a	n/a	n/a	n/a	n/a	n/a	n/a	n/a	n/a	n/a	n/a	fixation
53093.483293552068	2750	n/a	1020	89	2750	497.516706448	stim	stop-signal	220	626249	0.0-13.10-1.10	beast_fmri_test	356	623604,/,624282,/,624962,/,625643,/,626320,/	t,t,t,t,t	<img class = center src='/static/experiments/beast_fmri_test/images/B.png'></img>	71,89	2750.0	test	<img class = center src='/static/experiments/beast_fmri_test/images/redB.png'></img>	go	2150.0	2.0	10.0	go	non-target	B	71,Index Finger	89,Middle Finger	450.0	600.0	2250.0	2150.0	1.0	600.0	n/a	1.0	go_stim
55843.483293552068	497.51670644788391	n/a	1020	89	2750	497.516706448	stim	stop-signal	220	626249	0.0-13.10-1.10	beast_fmri_test	356	623604,/,624282,/,624962,/,625643,/,626320,/	t,t,t,t,t	<img class = center src='/static/experiments/beast_fmri_test/images/B.png'></img>	71,89	2750.0	test	<img class = center src='/static/experiments/beast_fmri_test/images/redB.png'></img>	go	2150.0	2.0	10.0	go	non-target	B	71,Index Finger	89,Middle Finger	450.0	600.0	2250.0	2150.0	1.0	600.0	n/a	1.0	ITI
57366	500	n/a	-1	-1	500	0.0	fixation	poldrack-single-stim	221	627274	0.0-13.11-0.11	beast_fmri_test	356	627001,/	t	<div class = centerbox2><div class = fixation>+</div></div>	none	500.0	test	n/a	n/a	n/a	n/a	n/a	n/a	n/a	n/a	n/a	n/a	n/a	n/a	n/a	n/a	n/a	n/a	n/a	n/a	fixation
56897.728064688039	2750	n/a	918	89	2750	470.271935312	stim	stop-signal	222	630026	0.0-13.11-1.11	beast_fmri_test	356	627681,/,628360,/,629041,/,629720,/,630400,/	t,t,t,t,t	<img class = center src='/static/experiments/beast_fmri_test/images/V.png'></img>	71,89	2750.0	test	<img class = center src='/static/experiments/beast_fmri_test/images/redV.png'></img>	go	2150.0	2.0	11.0	go	non-target	V	71,Index Finger	89,Middle Finger	450.0	600.0	2250.0	2150.0	1.0	600.0	n/a	1.0	go_stim
59647.728064688039	470.2719353119104	n/a	918	89	2750	470.271935312	stim	stop-signal	222	630026	0.0-13.11-1.11	beast_fmri_test	356	627681,/,628360,/,629041,/,629720,/,630400,/	t,t,t,t,t	<img class = center src='/static/experiments/beast_fmri_test/images/V.png'></img>	71,89	2750.0	test	<img class = center src='/static/experiments/beast_fmri_test/images/redV.png'></img>	go	2150.0	2.0	11.0	go	non-target	V	71,Index Finger	89,Middle Finger	450.0	600.0	2250.0	2150.0	1.0	600.0	n/a	1.0	ITI
61116	500	n/a	-1	-1	500	0.0	fixation	poldrack-single-stim	223	631024	0.0-13.12-0.12	beast_fmri_test	356	n/a	n/a	<div class = centerbox2><div class = fixation>+</div></div>	none	500.0	test	n/a	n/a	n/a	n/a	n/a	n/a	n/a	n/a	n/a	n/a	n/a	n/a	n/a	n/a	n/a	n/a	n/a	n/a	fixation
59942.329699270427	2750	n/a	724	89	2750	1175.67030073	stim	stop-signal	224	633776	0.0-13.12-1.12	beast_fmri_test	356	631078,/,631757,/,632440,/,633118,/,633798,/,634478,/	t,t,t,t,t,t	<img class = center src='/static/experiments/beast_fmri_test/images/P.png'></img>	71,89	2750.0	test	<img class = center src='/static/experiments/beast_fmri_test/images/redP.png'></img>	go	2150.0	2.0	12.0	go	non-target	P	71,Index Finger	89,Middle Finger	450.0	600.0	2250.0	2150.0	1.0	600.0	n/a	1.0	go_stim
62692.329699270427	1175.6703007295575	n/a	724	89	2750	1175.67030073	stim	stop-signal	224	633776	0.0-13.12-1.12	beast_fmri_test	356	631078,/,631757,/,632440,/,633118,/,633798,/,634478,/	t,t,t,t,t,t	<img class = center src='/static/experiments/beast_fmri_test/images/P.png'></img>	71,89	2750.0	test	<img class = center src='/static/experiments/beast_fmri_test/images/redP.png'></img>	go	2150.0	2.0	12.0	go	non-target	P	71,Index Finger	89,Middle Finger	450.0	600.0	2250.0	2150.0	1.0	600.0	n/a	1.0	ITI
65570	500	n/a	-1	-1	500	0.0	fixation	poldrack-single-stim	225	635478	0.0-13.13-0.13	beast_fmri_test	356	635157,/	t	<div class = centerbox2><div class = fixation>+</div></div>	none	500.0	test	n/a	n/a	n/a	n/a	n/a	n/a	n/a	n/a	n/a	n/a	n/a	n/a	n/a	n/a	n/a	n/a	n/a	n/a	fixation
62730.233713092632	2750	n/a	709	89	2750	2840.76628691	stim	stop-signal	226	638229	0.0-13.13-1.13	beast_fmri_test	356	635837,/,636518,/,637197,/,637876,/,638556,/,639236,/,639916,/,640595,/	t,t,t,t,t,t,t,t	<img class = center src='/static/experiments/beast_fmri_test/images/P.png'></img>	71,89	2750.0	test	<img class = center src='/static/experiments/beast_fmri_test/images/redP.png'></img>	go	2150.0	2.0	13.0	go	non-target	P	71,Index Finger	89,Middle Finger	450.0	600.0	2250.0	2150.0	1.0	600.0	n/a	1.0	go_stim
65480.233713092632	2840.7662869073492	n/a	709	89	2750	2840.76628691	stim	stop-signal	226	638229	0.0-13.13-1.13	beast_fmri_test	356	635837,/,636518,/,637197,/,637876,/,638556,/,639236,/,639916,/,640595,/	t,t,t,t,t,t,t,t	<img class = center src='/static/experiments/beast_fmri_test/images/P.png'></img>	71,89	2750.0	test	<img class = center src='/static/experiments/beast_fmri_test/images/redP.png'></img>	go	2150.0	2.0	13.0	go	non-target	P	71,Index Finger	89,Middle Finger	450.0	600.0	2250.0	2150.0	1.0	600.0	n/a	1.0	ITI
71687	500	n/a	-1	-1	500	0.0	fixation	poldrack-single-stim	227	641595	0.0-13.14-0.14	beast_fmri_test	356	641275,/	t	<div class = centerbox2><div class = fixation>+</div></div>	none	500.0	test	n/a	n/a	n/a	n/a	n/a	n/a	n/a	n/a	n/a	n/a	n/a	n/a	n/a	n/a	n/a	n/a	n/a	n/a	fixation
71474.880268284469	2750	n/a	674	89	2750	213.119731716	stim	stop-signal	228	644346	0.0-13.14-1.14	beast_fmri_test	356	641955,/,642634,/,643313,/,643993,/	t,t,t,t	<img class = center src='/static/experiments/beast_fmri_test/images/B.png'></img>	71,89	2750.0	test	<img class = center src='/static/experiments/beast_fmri_test/images/redB.png'></img>	go	2150.0	2.0	14.0	go	non-target	B	71,Index Finger	89,Middle Finger	450.0	600.0	2250.0	2150.0	1.0	600.0	n/a	1.0	go_stim
74224.880268284469	213.11973171556167	n/a	674	89	2750	213.119731716	stim	stop-signal	228	644346	0.0-13.14-1.14	beast_fmri_test	356	641955,/,642634,/,643313,/,643993,/	t,t,t,t	<img class = center src='/static/experiments/beast_fmri_test/images/B.png'></img>	71,89	2750.0	test	<img class = center src='/static/experiments/beast_fmri_test/images/redB.png'></img>	go	2150.0	2.0	14.0	go	non-target	B	71,Index Finger	89,Middle Finger	450.0	600.0	2250.0	2150.0	1.0	600.0	n/a	1.0	ITI
75178	500	n/a	-1	-1	500	0.0	fixation	poldrack-single-stim	229	645086	0.0-13.15-0.15	beast_fmri_test	356	644673,/	t	<div class = centerbox2><div class = fixation>+</div></div>	none	500.0	test	n/a	n/a	n/a	n/a	n/a	n/a	n/a	n/a	n/a	n/a	n/a	n/a	n/a	n/a	n/a	n/a	n/a	n/a	fixation
75120.61829828145	2750	n/a	720	89	2750	58.3817017186	stim	stop-signal	230	647837	0.0-13.15-1.15	beast_fmri_test	356	645354,/,646032,/,646712,/,647391,/	t,t,t,t	<img class = center src='/static/experiments/beast_fmri_test/images/V.png'></img>	71,89	2750.0	test	<img class = center src='/static/experiments/beast_fmri_test/images/redV.png'></img>	go	2150.0	2.0	15.0	go	non-target	V	71,Index Finger	89,Middle Finger	450.0	600.0	2250.0	2150.0	1.0	600.0	n/a	1.0	go_stim
77870.61829828145	58.381701718599693	n/a	720	89	2750	58.3817017186	stim	stop-signal	230	647837	0.0-13.15-1.15	beast_fmri_test	356	645354,/,646032,/,646712,/,647391,/	t,t,t,t	<img class = center src='/static/experiments/beast_fmri_test/images/V.png'></img>	71,89	2750.0	test	<img class = center src='/static/experiments/beast_fmri_test/images/redV.png'></img>	go	2150.0	2.0	15.0	go	non-target	V	71,Index Finger	89,Middle Finger	450.0	600.0	2250.0	2150.0	1.0	600.0	n/a	1.0	ITI
78515	500	n/a	-1	-1	500	0.0	fixation	poldrack-single-stim	231	648423	0.0-13.16-0.16	beast_fmri_test	356	648072,/	t	<div class = centerbox2><div class = fixation>+</div></div>	none	500.0	test	n/a	n/a	n/a	n/a	n/a	n/a	n/a	n/a	n/a	n/a	n/a	n/a	n/a	n/a	n/a	n/a	n/a	n/a	fixation
77738.20937313186	2750	n/a	692	71	2750	778.790626868	stim	stop-signal	232	651175	0.0-13.16-1.16	beast_fmri_test	356	648751,/,649431,/,650111,/,650791,/,651470,/	t,t,t,t,t	<img class = center src='/static/experiments/beast_fmri_test/images/B.png'></img>	71,89	2750.0	test	<img class = center src='/static/experiments/beast_fmri_test/images/redB.png'></img>	go	2300.0	2.0	16.0	go	target	B	71,Index Finger	89,Middle Finger	450.0	600.0	2300.0	2150.0	1.0	450.0	n/a	1.0	go_stim
80488.20937313186	778.79062686811403	n/a	692	71	2750	778.790626868	stim	stop-signal	232	651175	0.0-13.16-1.16	beast_fmri_test	356	648751,/,649431,/,650111,/,650791,/,651470,/	t,t,t,t,t	<img class = center src='/static/experiments/beast_fmri_test/images/B.png'></img>	71,89	2750.0	test	<img class = center src='/static/experiments/beast_fmri_test/images/redB.png'></img>	go	2300.0	2.0	16.0	go	target	B	71,Index Finger	89,Middle Finger	450.0	600.0	2300.0	2150.0	1.0	450.0	n/a	1.0	ITI
82574	500	n/a	-1	-1	500	0.0	fixation	poldrack-single-stim	233	652482	0.0-13.17-0.17	beast_fmri_test	356	652150,/	t	<div class = centerbox2><div class = fixation>+</div></div>	none	500.0	test	n/a	n/a	n/a	n/a	n/a	n/a	n/a	n/a	n/a	n/a	n/a	n/a	n/a	n/a	n/a	n/a	n/a	n/a	fixation
80954.306615407113	450.0	n/a	-1	-1	2750	1621.69338459	stim	stop-signal	234	655234	0.0-13.17-1.17	beast_fmri_test	356	652829,/,653509,/,654190,/,654868,/,655548,/,656228,/	t,t,t,t,t,t	<img class = center src='/static/experiments/beast_fmri_test/images/V.png'></img>	71,89	2750.0	test	<img class = center src='/static/experiments/beast_fmri_test/images/redV.png'></img>	stop	2300.0	2.0	17.0	stop	target	V	71,Index Finger	89,Middle Finger	450.0	600.0	2300.0	2150.0	0.0	450.0	1.0	n/a	go_stim
83254.306615407113	2300.0	n/a	-1	-1	2750	1621.69338459	stim	stop-signal	234	655234	0.0-13.17-1.17	beast_fmri_test	356	652829,/,653509,/,654190,/,654868,/,655548,/,656228,/	t,t,t,t,t,t	<img class = center src='/static/experiments/beast_fmri_test/images/V.png'></img>	71,89	2750.0	test	<img class = center src='/static/experiments/beast_fmri_test/images/redV.png'></img>	stop	2300.0	2.0	17.0	stop	target	V	71,Index Finger	89,Middle Finger	450.0	600.0	2300.0	2150.0	0.0	450.0	1.0	n/a	stop_stim
83704.306615407113	1621.6933845928888	n/a	-1	-1	2750	1621.69338459	stim	stop-signal	234	655234	0.0-13.17-1.17	beast_fmri_test	356	652829,/,653509,/,654190,/,654868,/,655548,/,656228,/	t,t,t,t,t,t	<img class = center src='/static/experiments/beast_fmri_test/images/V.png'></img>	71,89	2750.0	test	<img class = center src='/static/experiments/beast_fmri_test/images/redV.png'></img>	stop	2300.0	2.0	17.0	stop	target	V	71,Index Finger	89,Middle Finger	450.0	600.0	2300.0	2150.0	0.0	450.0	1.0	n/a	ITI
87474	500	n/a	-1	-1	500	0.0	fixation	poldrack-single-stim	235	657382	0.0-13.18-0.18	beast_fmri_test	356	656907,/	t	<div class = centerbox2><div class = fixation>+</div></div>	none	500.0	test	n/a	n/a	n/a	n/a	n/a	n/a	n/a	n/a	n/a	n/a	n/a	n/a	n/a	n/a	n/a	n/a	n/a	n/a	fixation
84532.921225374099	500.0	n/a	-1	-1	2750	2943.07877463	stim	stop-signal	236	660134	0.0-13.18-1.18	beast_fmri_test	356	657586,/,658267,/,658946,/,659627,/,660305,/,660986,/,661665,/,662344,/,663024,/	t,t,t,t,t,t,t,t,t	<img class = center src='/static/experiments/beast_fmri_test/images/B.png'></img>	71,89	2750.0	test	<img class = center src='/static/experiments/beast_fmri_test/images/redB.png'></img>	stop	2250.0	2.0	18.0	stop	target	B	71,Index Finger	89,Middle Finger	500.0	600.0	2250.0	2150.0	0.0	500.0	1.0	n/a	go_stim
86782.921225374099	2250.0	n/a	-1	-1	2750	2943.07877463	stim	stop-signal	236	660134	0.0-13.18-1.18	beast_fmri_test	356	657586,/,658267,/,658946,/,659627,/,660305,/,660986,/,661665,/,662344,/,663024,/	t,t,t,t,t,t,t,t,t	<img class = center src='/static/experiments/beast_fmri_test/images/B.png'></img>	71,89	2750.0	test	<img class = center src='/static/experiments/beast_fmri_test/images/redB.png'></img>	stop	2250.0	2.0	18.0	stop	target	B	71,Index Finger	89,Middle Finger	500.0	600.0	2250.0	2150.0	0.0	500.0	1.0	n/a	stop_stim
87282.921225374099	2943.0787746259352	n/a	-1	-1	2750	2943.07877463	stim	stop-signal	236	660134	0.0-13.18-1.18	beast_fmri_test	356	657586,/,658267,/,658946,/,659627,/,660305,/,660986,/,661665,/,662344,/,663024,/	t,t,t,t,t,t,t,t,t	<img class = center src='/static/experiments/beast_fmri_test/images/B.png'></img>	71,89	2750.0	test	<img class = center src='/static/experiments/beast_fmri_test/images/redB.png'></img>	stop	2250.0	2.0	18.0	stop	target	B	71,Index Finger	89,Middle Finger	500.0	600.0	2250.0	2150.0	0.0	500.0	1.0	n/a	ITI
93695	500	n/a	-1	-1	500	0.0	fixation	poldrack-single-stim	237	663603	0.0-13.19-0.19	beast_fmri_test	356	n/a	n/a	<div class = centerbox2><div class = fixation>+</div></div>	none	500.0	test	n/a	n/a	n/a	n/a	n/a	n/a	n/a	n/a	n/a	n/a	n/a	n/a	n/a	n/a	n/a	n/a	n/a	n/a	fixation
90183.557483113836	2750	n/a	1040	71	2750	3513.44251689	stim	stop-signal	238	666355	0.0-13.19-1.19	beast_fmri_test	356	663705,/,664384,/,665064,/,665743,/,666423,/,667102,/,667781,/,668463,/,669143,/,669822,/	t,t,t,t,t,t,t,t,t,t	<img class = center src='/static/experiments/beast_fmri_test/images/V.png'></img>	71,89	2750.0	test	<img class = center src='/static/experiments/beast_fmri_test/images/redV.png'></img>	go	2200.0	2.0	19.0	go	target	V	71,Index Finger	89,Middle Finger	550.0	600.0	2200.0	2150.0	1.0	550.0	n/a	1.0	go_stim
92933.557483113836	3513.4425168862172	n/a	1040	71	2750	3513.44251689	stim	stop-signal	238	666355	0.0-13.19-1.19	beast_fmri_test	356	663705,/,664384,/,665064,/,665743,/,666423,/,667102,/,667781,/,668463,/,669143,/,669822,/	t,t,t,t,t,t,t,t,t,t	<img class = center src='/static/experiments/beast_fmri_test/images/V.png'></img>	71,89	2750.0	test	<img class = center src='/static/experiments/beast_fmri_test/images/redV.png'></img>	go	2200.0	2.0	19.0	go	target	V	71,Index Finger	89,Middle Finger	550.0	600.0	2200.0	2150.0	1.0	550.0	n/a	1.0	ITI
100488	500	n/a	-1	-1	500	0.0	fixation	poldrack-single-stim	239	670396	0.0-13.20-0.20	beast_fmri_test	356	n/a	n/a	<div class = centerbox2><div class = fixation>+</div></div>	none	500.0	test	n/a	n/a	n/a	n/a	n/a	n/a	n/a	n/a	n/a	n/a	n/a	n/a	n/a	n/a	n/a	n/a	n/a	n/a	fixation
97291.800777742988	2750	n/a	843	89	2750	3197.19922226	stim	stop-signal	240	673147	0.0-13.20-1.20	beast_fmri_test	356	670503,/,671181,/,671861,/,672541,/,673220,/,673900,/,674580,/,675259,/,675939,/	t,t,t,t,t,t,t,t,t	<img class = center src='/static/experiments/beast_fmri_test/images/B.png'></img>	71,89	2750.0	test	<img class = center src='/static/experiments/beast_fmri_test/images/redB.png'></img>	go	2200.0	2.0	20.0	go	target	B	71,Index Finger	89,Middle Finger	550.0	600.0	2200.0	2150.0	0.0	550.0	n/a	0.0	go_stim
100041.80077774299	3197.1992222570552	n/a	843	89	2750	3197.19922226	stim	stop-signal	240	673147	0.0-13.20-1.20	beast_fmri_test	356	670503,/,671181,/,671861,/,672541,/,673220,/,673900,/,674580,/,675259,/,675939,/	t,t,t,t,t,t,t,t,t	<img class = center src='/static/experiments/beast_fmri_test/images/B.png'></img>	71,89	2750.0	test	<img class = center src='/static/experiments/beast_fmri_test/images/redB.png'></img>	go	2200.0	2.0	20.0	go	target	B	71,Index Finger	89,Middle Finger	550.0	600.0	2200.0	2150.0	0.0	550.0	n/a	0.0	ITI
106963	500	n/a	-1	-1	500	0.0	fixation	poldrack-single-stim	241	676871	0.0-13.21-0.21	beast_fmri_test	356	676618,/	t	<div class = centerbox2><div class = fixation>+</div></div>	none	500.0	test	n/a	n/a	n/a	n/a	n/a	n/a	n/a	n/a	n/a	n/a	n/a	n/a	n/a	n/a	n/a	n/a	n/a	n/a	fixation
106500.99287602783	600.0	n/a	688	89	2750	464.007123972	stim	stop-signal	242	679623	0.0-13.21-1.21	beast_fmri_test	356	677299,/,677978,/,678659,/,679337,/,680018,/	t,t,t,t,t	<img class = center src='/static/experiments/beast_fmri_test/images/T.png'></img>	71,89	2750.0	test	<img class = center src='/static/experiments/beast_fmri_test/images/redT.png'></img>	stop	2150.0	2.0	21.0	stop	non-target	T	71,Index Finger	89,Middle Finger	550.0	600.0	2200.0	2150.0	0.0	600.0	0.0	n/a	go_stim
108650.99287602783	2150.0	n/a	688	89	2750	464.007123972	stim	stop-signal	242	679623	0.0-13.21-1.21	beast_fmri_test	356	677299,/,677978,/,678659,/,679337,/,680018,/	t,t,t,t,t	<img class = center src='/static/experiments/beast_fmri_test/images/T.png'></img>	71,89	2750.0	test	<img class = center src='/static/experiments/beast_fmri_test/images/redT.png'></img>	stop	2150.0	2.0	21.0	stop	non-target	T	71,Index Finger	89,Middle Finger	550.0	600.0	2200.0	2150.0	0.0	600.0	0.0	n/a	stop_stim
109250.99287602783	464.00712397213925	n/a	688	89	2750	464.007123972	stim	stop-signal	242	679623	0.0-13.21-1.21	beast_fmri_test	356	677299,/,677978,/,678659,/,679337,/,680018,/	t,t,t,t,t	<img class = center src='/static/experiments/beast_fmri_test/images/T.png'></img>	71,89	2750.0	test	<img class = center src='/static/experiments/beast_fmri_test/images/redT.png'></img>	stop	2150.0	2.0	21.0	stop	non-target	T	71,Index Finger	89,Middle Finger	550.0	600.0	2200.0	2150.0	0.0	600.0	0.0	n/a	ITI
110712	500	n/a	-1	-1	500	0.0	fixation	poldrack-single-stim	243	680620	0.0-13.22-0.22	beast_fmri_test	356	n/a	n/a	<div class = centerbox2><div class = fixation>+</div></div>	none	500.0	test	n/a	n/a	n/a	n/a	n/a	n/a	n/a	n/a	n/a	n/a	n/a	n/a	n/a	n/a	n/a	n/a	n/a	n/a	fixation
110262.15121076966	2750	n/a	763	89	2750	450.84878923	stim	stop-signal	244	683371	0.0-13.22-1.22	beast_fmri_test	356	680696,/,681377,/,682056,/,682736,/,683417,/	t,t,t,t,t	<img class = center src='/static/experiments/beast_fmri_test/images/P.png'></img>	71,89	2750.0	test	<img class = center src='/static/experiments/beast_fmri_test/images/redP.png'></img>	go	2200.0	2.0	22.0	go	non-target	P	71,Index Finger	89,Middle Finger	550.0	550.0	2200.0	2200.0	1.0	550.0	n/a	1.0	go_stim
113012.15121076966	450.84878923035245	n/a	763	89	2750	450.84878923	stim	stop-signal	244	683371	0.0-13.22-1.22	beast_fmri_test	356	680696,/,681377,/,682056,/,682736,/,683417,/	t,t,t,t,t	<img class = center src='/static/experiments/beast_fmri_test/images/P.png'></img>	71,89	2750.0	test	<img class = center src='/static/experiments/beast_fmri_test/images/redP.png'></img>	go	2200.0	2.0	22.0	go	non-target	P	71,Index Finger	89,Middle Finger	550.0	550.0	2200.0	2200.0	1.0	550.0	n/a	1.0	ITI
114445	500	n/a	-1	-1	500	0.0	fixation	poldrack-single-stim	245	684353	0.0-13.23-0.23	beast_fmri_test	356	684096,/	t	<div class = centerbox2><div class = fixation>+</div></div>	none	500.0	test	n/a	n/a	n/a	n/a	n/a	n/a	n/a	n/a	n/a	n/a	n/a	n/a	n/a	n/a	n/a	n/a	n/a	n/a	fixation
112915.58289919281	550.0	n/a	-1	-1	2750	1530.41710081	stim	stop-signal	246	687104	0.0-13.23-1.23	beast_fmri_test	356	684775,/,685454,/,686134,/,686815,/,687494,/,688174,/	t,t,t,t,t,t	<img class = center src='/static/experiments/beast_fmri_test/images/B.png'></img>	71,89	2750.0	test	<img class = center src='/static/experiments/beast_fmri_test/images/redB.png'></img>	stop	2200.0	2.0	23.0	stop	non-target	B	71,Index Finger	89,Middle Finger	550.0	550.0	2200.0	2200.0	0.0	550.0	1.0	n/a	go_stim
115115.58289919281	2200.0	n/a	-1	-1	2750	1530.41710081	stim	stop-signal	246	687104	0.0-13.23-1.23	beast_fmri_test	356	684775,/,685454,/,686134,/,686815,/,687494,/,688174,/	t,t,t,t,t,t	<img class = center src='/static/experiments/beast_fmri_test/images/B.png'></img>	71,89	2750.0	test	<img class = center src='/static/experiments/beast_fmri_test/images/redB.png'></img>	stop	2200.0	2.0	23.0	stop	non-target	B	71,Index Finger	89,Middle Finger	550.0	550.0	2200.0	2200.0	0.0	550.0	1.0	n/a	stop_stim
115665.58289919281	1530.4171008071585	n/a	-1	-1	2750	1530.41710081	stim	stop-signal	246	687104	0.0-13.23-1.23	beast_fmri_test	356	684775,/,685454,/,686134,/,686815,/,687494,/,688174,/	t,t,t,t,t,t	<img class = center src='/static/experiments/beast_fmri_test/images/B.png'></img>	71,89	2750.0	test	<img class = center src='/static/experiments/beast_fmri_test/images/redB.png'></img>	stop	2200.0	2.0	23.0	stop	non-target	B	71,Index Finger	89,Middle Finger	550.0	550.0	2200.0	2200.0	0.0	550.0	1.0	n/a	ITI
119255	500	n/a	-1	-1	500	0.0	fixation	poldrack-single-stim	247	689163	0.0-13.24-0.24	beast_fmri_test	356	688854,/	t	<div class = centerbox2><div class = fixation>+</div></div>	none	500.0	test	n/a	n/a	n/a	n/a	n/a	n/a	n/a	n/a	n/a	n/a	n/a	n/a	n/a	n/a	n/a	n/a	n/a	n/a	fixation
118502.76374000614	2750	n/a	823	71	2750	755.236259994	stim	stop-signal	248	691916	0.0-13.24-1.24	beast_fmri_test	356	689533,/,690213,/,690892,/,691572,/,692252,/	t,t,t,t,t	<img class = center src='/static/experiments/beast_fmri_test/images/P.png'></img>	71,89	2750.0	test	<img class = center src='/static/experiments/beast_fmri_test/images/redP.png'></img>	go	2200.0	2.0	24.0	go	target	P	71,Index Finger	89,Middle Finger	550.0	600.0	2200.0	2200.0	1.0	550.0	n/a	1.0	go_stim
121252.76374000614	755.23625999389071	n/a	823	71	2750	755.236259994	stim	stop-signal	248	691916	0.0-13.24-1.24	beast_fmri_test	356	689533,/,690213,/,690892,/,691572,/,692252,/	t,t,t,t,t	<img class = center src='/static/experiments/beast_fmri_test/images/P.png'></img>	71,89	2750.0	test	<img class = center src='/static/experiments/beast_fmri_test/images/redP.png'></img>	go	2200.0	2.0	24.0	go	target	P	71,Index Finger	89,Middle Finger	550.0	600.0	2200.0	2200.0	1.0	550.0	n/a	1.0	ITI
123294	500	n/a	-1	-1	500	0.0	fixation	poldrack-single-stim	249	693202	0.0-13.25-0.25	beast_fmri_test	356	692932,/	t	<div class = centerbox2><div class = fixation>+</div></div>	none	500.0	test	n/a	n/a	n/a	n/a	n/a	n/a	n/a	n/a	n/a	n/a	n/a	n/a	n/a	n/a	n/a	n/a	n/a	n/a	fixation
120677.12422214157	600.0	n/a	-1	-1	2750	2618.87577786	stim	stop-signal	250	695954	0.0-13.25-1.25	beast_fmri_test	356	693612,/,694291,/,694970,/,695650,/,696331,/,697009,/,697688,/,698370,/	t,t,t,t,t,t,t,t	<img class = center src='/static/experiments/beast_fmri_test/images/D.png'></img>	71,89	2750.0	test	<img class = center src='/static/experiments/beast_fmri_test/images/redD.png'></img>	stop	2150.0	2.0	25.0	stop	non-target	D	71,Index Finger	89,Middle Finger	550.0	600.0	2200.0	2150.0	0.0	600.0	1.0	n/a	go_stim
122827.12422214157	2150.0	n/a	-1	-1	2750	2618.87577786	stim	stop-signal	250	695954	0.0-13.25-1.25	beast_fmri_test	356	693612,/,694291,/,694970,/,695650,/,696331,/,697009,/,697688,/,698370,/	t,t,t,t,t,t,t,t	<img class = center src='/static/experiments/beast_fmri_test/images/D.png'></img>	71,89	2750.0	test	<img class = center src='/static/experiments/beast_fmri_test/images/redD.png'></img>	stop	2150.0	2.0	25.0	stop	non-target	D	71,Index Finger	89,Middle Finger	550.0	600.0	2200.0	2150.0	0.0	600.0	1.0	n/a	stop_stim
123427.12422214157	2618.8757778583881	n/a	-1	-1	2750	2618.87577786	stim	stop-signal	250	695954	0.0-13.25-1.25	beast_fmri_test	356	693612,/,694291,/,694970,/,695650,/,696331,/,697009,/,697688,/,698370,/	t,t,t,t,t,t,t,t	<img class = center src='/static/experiments/beast_fmri_test/images/D.png'></img>	71,89	2750.0	test	<img class = center src='/static/experiments/beast_fmri_test/images/redD.png'></img>	stop	2150.0	2.0	25.0	stop	non-target	D	71,Index Finger	89,Middle Finger	550.0	600.0	2200.0	2150.0	0.0	600.0	1.0	n/a	ITI
129191	500	n/a	-1	-1	500	0.0	fixation	poldrack-single-stim	251	699099	0.0-13.26-0.26	beast_fmri_test	356	699049,/	t	<div class = centerbox2><div class = fixation>+</div></div>	none	500.0	test	n/a	n/a	n/a	n/a	n/a	n/a	n/a	n/a	n/a	n/a	n/a	n/a	n/a	n/a	n/a	n/a	n/a	n/a	fixation
128729.52684126713	2750	n/a	796	71	2750	463.473158733	stim	stop-signal	252	701851	0.0-13.26-1.26	beast_fmri_test	356	699729,/,700408,/,701089,/,701768,/	t,t,t,t	<img class = center src='/static/experiments/beast_fmri_test/images/V.png'></img>	71,89	2750.0	test	<img class = center src='/static/experiments/beast_fmri_test/images/redV.png'></img>	go	2100.0	2.0	26.0	go	non-target	V	71,Index Finger	89,Middle Finger	550.0	650.0	2200.0	2100.0	0.0	650.0	n/a	0.0	go_stim
131479.52684126713	463.47315873287567	n/a	796	71	2750	463.473158733	stim	stop-signal	252	701851	0.0-13.26-1.26	beast_fmri_test	356	699729,/,700408,/,701089,/,701768,/	t,t,t,t	<img class = center src='/static/experiments/beast_fmri_test/images/V.png'></img>	71,89	2750.0	test	<img class = center src='/static/experiments/beast_fmri_test/images/redV.png'></img>	go	2100.0	2.0	26.0	go	non-target	V	71,Index Finger	89,Middle Finger	550.0	650.0	2200.0	2100.0	0.0	650.0	n/a	0.0	ITI
132936	500	n/a	-1	-1	500	0.0	fixation	poldrack-single-stim	253	702844	0.0-13.27-0.27	beast_fmri_test	356	702448,/	t	<div class = centerbox2><div class = fixation>+</div></div>	none	500.0	test	n/a	n/a	n/a	n/a	n/a	n/a	n/a	n/a	n/a	n/a	n/a	n/a	n/a	n/a	n/a	n/a	n/a	n/a	fixation
132220.02213411313	2750	n/a	821	71	2750	717.977865887	stim	stop-signal	254	705596	0.0-13.27-1.27	beast_fmri_test	356	703127,/,703807,/,704486,/,705165,/,705846,/	t,t,t,t,t	<img class = center src='/static/experiments/beast_fmri_test/images/D.png'></img>	71,89	2750.0	test	<img class = center src='/static/experiments/beast_fmri_test/images/redD.png'></img>	go	2200.0	2.0	27.0	go	target	D	71,Index Finger	89,Middle Finger	550.0	650.0	2200.0	2100.0	1.0	550.0	n/a	1.0	go_stim
134970.02213411313	717.97786588685881	n/a	821	71	2750	717.977865887	stim	stop-signal	254	705596	0.0-13.27-1.27	beast_fmri_test	356	703127,/,703807,/,704486,/,705165,/,705846,/	t,t,t,t,t	<img class = center src='/static/experiments/beast_fmri_test/images/D.png'></img>	71,89	2750.0	test	<img class = center src='/static/experiments/beast_fmri_test/images/redD.png'></img>	go	2200.0	2.0	27.0	go	target	D	71,Index Finger	89,Middle Finger	550.0	650.0	2200.0	2100.0	1.0	550.0	n/a	1.0	ITI
136936	500	n/a	-1	-1	500	0.0	fixation	poldrack-single-stim	255	706844	0.0-13.28-0.28	beast_fmri_test	356	706526,/	t	<div class = centerbox2><div class = fixation>+</div></div>	none	500.0	test	n/a	n/a	n/a	n/a	n/a	n/a	n/a	n/a	n/a	n/a	n/a	n/a	n/a	n/a	n/a	n/a	n/a	n/a	fixation
136096.05766441196	650.0	n/a	-1	-1	2750	841.942335588	stim	stop-signal	256	709596	0.0-13.28-1.28	beast_fmri_test	356	707205,/,707885,/,708565,/,709244,/,709924,/	t,t,t,t,t	<img class = center src='/static/experiments/beast_fmri_test/images/T.png'></img>	71,89	2750.0	test	<img class = center src='/static/experiments/beast_fmri_test/images/redT.png'></img>	stop	2100.0	2.0	28.0	stop	non-target	T	71,Index Finger	89,Middle Finger	550.0	650.0	2200.0	2100.0	0.0	650.0	1.0	n/a	go_stim
138196.05766441196	2100.0	n/a	-1	-1	2750	841.942335588	stim	stop-signal	256	709596	0.0-13.28-1.28	beast_fmri_test	356	707205,/,707885,/,708565,/,709244,/,709924,/	t,t,t,t,t	<img class = center src='/static/experiments/beast_fmri_test/images/T.png'></img>	71,89	2750.0	test	<img class = center src='/static/experiments/beast_fmri_test/images/redT.png'></img>	stop	2100.0	2.0	28.0	stop	non-target	T	71,Index Finger	89,Middle Finger	550.0	650.0	2200.0	2100.0	0.0	650.0	1.0	n/a	stop_stim
138846.05766441196	841.94233558799624	n/a	-1	-1	2750	841.942335588	stim	stop-signal	256	709596	0.0-13.28-1.28	beast_fmri_test	356	707205,/,707885,/,708565,/,709244,/,709924,/	t,t,t,t,t	<img class = center src='/static/experiments/beast_fmri_test/images/T.png'></img>	71,89	2750.0	test	<img class = center src='/static/experiments/beast_fmri_test/images/redT.png'></img>	stop	2100.0	2.0	28.0	stop	non-target	T	71,Index Finger	89,Middle Finger	550.0	650.0	2200.0	2100.0	0.0	650.0	1.0	n/a	ITI
141060	500	n/a	-1	-1	500	0.0	fixation	poldrack-single-stim	257	710968	0.0-13.29-0.29	beast_fmri_test	356	710604,/	t	<div class = centerbox2><div class = fixation>+</div></div>	none	500.0	test	n/a	n/a	n/a	n/a	n/a	n/a	n/a	n/a	n/a	n/a	n/a	n/a	n/a	n/a	n/a	n/a	n/a	n/a	fixation
140818.42870095233	2750	n/a	970	71	2750	243.571299048	stim	stop-signal	258	713720	0.0-13.29-1.29	beast_fmri_test	356	711284,/,711962,/,712643,/,713323,/	t,t,t,t	<img class = center src='/static/experiments/beast_fmri_test/images/B.png'></img>	71,89	2750.0	test	<img class = center src='/static/experiments/beast_fmri_test/images/redB.png'></img>	go	2050.0	2.0	29.0	go	non-target	B	71,Index Finger	89,Middle Finger	550.0	700.0	2200.0	2050.0	0.0	700.0	n/a	0.0	go_stim
143568.42870095233	243.57129904769562	n/a	970	71	2750	243.571299048	stim	stop-signal	258	713720	0.0-13.29-1.29	beast_fmri_test	356	711284,/,711962,/,712643,/,713323,/	t,t,t,t	<img class = center src='/static/experiments/beast_fmri_test/images/B.png'></img>	71,89	2750.0	test	<img class = center src='/static/experiments/beast_fmri_test/images/redB.png'></img>	go	2050.0	2.0	29.0	go	non-target	B	71,Index Finger	89,Middle Finger	550.0	700.0	2200.0	2050.0	0.0	700.0	n/a	0.0	ITI
144585	500	n/a	-1	-1	500	0.0	fixation	poldrack-single-stim	259	714493	0.0-13.30-0.30	beast_fmri_test	356	714000,/	t	<div class = centerbox2><div class = fixation>+</div></div>	none	500.0	test	n/a	n/a	n/a	n/a	n/a	n/a	n/a	n/a	n/a	n/a	n/a	n/a	n/a	n/a	n/a	n/a	n/a	n/a	fixation
143549.85454042803	2750	n/a	905	71	2750	1036.14545957	stim	stop-signal	260	717244	0.0-13.30-1.30	beast_fmri_test	356	714681,/,715362,/,716041,/,716720,/,717399,/,718080,/	t,t,t,t,t,t	<img class = center src='/static/experiments/beast_fmri_test/images/T.png'></img>	71,89	2750.0	test	<img class = center src='/static/experiments/beast_fmri_test/images/redT.png'></img>	go	2200.0	2.0	30.0	go	target	T	71,Index Finger	89,Middle Finger	550.0	700.0	2200.0	2050.0	1.0	550.0	n/a	1.0	go_stim
146299.85454042803	1036.1454595720254	n/a	905	71	2750	1036.14545957	stim	stop-signal	260	717244	0.0-13.30-1.30	beast_fmri_test	356	714681,/,715362,/,716041,/,716720,/,717399,/,718080,/	t,t,t,t,t,t	<img class = center src='/static/experiments/beast_fmri_test/images/T.png'></img>	71,89	2750.0	test	<img class = center src='/static/experiments/beast_fmri_test/images/redT.png'></img>	go	2200.0	2.0	30.0	go	target	T	71,Index Finger	89,Middle Finger	550.0	700.0	2200.0	2050.0	1.0	550.0	n/a	1.0	ITI
148901	500	n/a	-1	-1	500	0.0	fixation	poldrack-single-stim	261	718809	0.0-13.31-0.31	beast_fmri_test	356	718759,/	t	<div class = centerbox2><div class = fixation>+</div></div>	none	500.0	test	n/a	n/a	n/a	n/a	n/a	n/a	n/a	n/a	n/a	n/a	n/a	n/a	n/a	n/a	n/a	n/a	n/a	n/a	fixation
148304.95334211539	2750	n/a	759	89	2750	597.046657885	stim	stop-signal	262	721560	0.0-13.31-1.31	beast_fmri_test	356	719439,/,720119,/,720798,/,721478,/,722157,/	t,t,t,t,t	<img class = center src='/static/experiments/beast_fmri_test/images/D.png'></img>	71,89	2750.0	test	<img class = center src='/static/experiments/beast_fmri_test/images/redD.png'></img>	go	2050.0	2.0	31.0	go	non-target	D	71,Index Finger	89,Middle Finger	550.0	700.0	2200.0	2050.0	1.0	700.0	n/a	1.0	go_stim
151054.95334211539	597.046657884561	n/a	759	89	2750	597.046657885	stim	stop-signal	262	721560	0.0-13.31-1.31	beast_fmri_test	356	719439,/,720119,/,720798,/,721478,/,722157,/	t,t,t,t,t	<img class = center src='/static/experiments/beast_fmri_test/images/D.png'></img>	71,89	2750.0	test	<img class = center src='/static/experiments/beast_fmri_test/images/redD.png'></img>	go	2050.0	2.0	31.0	go	non-target	D	71,Index Finger	89,Middle Finger	550.0	700.0	2200.0	2050.0	1.0	700.0	n/a	1.0	ITI
152777	500	n/a	-1	-1	500	0.0	fixation	poldrack-single-stim	263	722685	0.0-13.32-0.32	beast_fmri_test	356	n/a	n/a	<div class = centerbox2><div class = fixation>+</div></div>	none	500.0	test	n/a	n/a	n/a	n/a	n/a	n/a	n/a	n/a	n/a	n/a	n/a	n/a	n/a	n/a	n/a	n/a	n/a	n/a	fixation
151819.14779997978	2750	n/a	754	89	2750	959.85220002	stim	stop-signal	264	725437	0.0-13.32-1.32	beast_fmri_test	356	722838,/,723516,/,724195,/,724877,/,725557,/,726236,/	t,t,t,t,t,t	<img class = center src='/static/experiments/beast_fmri_test/images/D.png'></img>	71,89	2750.0	test	<img class = center src='/static/experiments/beast_fmri_test/images/redD.png'></img>	go	2050.0	2.0	32.0	go	non-target	D	71,Index Finger	89,Middle Finger	550.0	700.0	2200.0	2050.0	1.0	700.0	n/a	1.0	go_stim
154569.14779997978	959.85220002021128	n/a	754	89	2750	959.85220002	stim	stop-signal	264	725437	0.0-13.32-1.32	beast_fmri_test	356	722838,/,723516,/,724195,/,724877,/,725557,/,726236,/	t,t,t,t,t,t	<img class = center src='/static/experiments/beast_fmri_test/images/D.png'></img>	71,89	2750.0	test	<img class = center src='/static/experiments/beast_fmri_test/images/redD.png'></img>	go	2050.0	2.0	32.0	go	non-target	D	71,Index Finger	89,Middle Finger	550.0	700.0	2200.0	2050.0	1.0	700.0	n/a	1.0	ITI
157014	500	n/a	-1	-1	500	0.0	fixation	poldrack-single-stim	265	726922	0.0-13.33-0.33	beast_fmri_test	356	726917,/	t	<div class = centerbox2><div class = fixation>+</div></div>	none	500.0	test	n/a	n/a	n/a	n/a	n/a	n/a	n/a	n/a	n/a	n/a	n/a	n/a	n/a	n/a	n/a	n/a	n/a	n/a	fixation
156741.09737915755	700.0	n/a	743	89	2750	275.902620842	stim	stop-signal	266	729675	0.0-13.33-1.33	beast_fmri_test	356	727596,/,728276,/,728956,/,729635,/	t,t,t,t	<img class = center src='/static/experiments/beast_fmri_test/images/P.png'></img>	71,89	2750.0	test	<img class = center src='/static/experiments/beast_fmri_test/images/redP.png'></img>	stop	2050.0	2.0	33.0	stop	non-target	P	71,Index Finger	89,Middle Finger	550.0	700.0	2200.0	2050.0	0.0	700.0	0.0	n/a	go_stim
158791.09737915755	2050.0	n/a	743	89	2750	275.902620842	stim	stop-signal	266	729675	0.0-13.33-1.33	beast_fmri_test	356	727596,/,728276,/,728956,/,729635,/	t,t,t,t	<img class = center src='/static/experiments/beast_fmri_test/images/P.png'></img>	71,89	2750.0	test	<img class = center src='/static/experiments/beast_fmri_test/images/redP.png'></img>	stop	2050.0	2.0	33.0	stop	non-target	P	71,Index Finger	89,Middle Finger	550.0	700.0	2200.0	2050.0	0.0	700.0	0.0	n/a	stop_stim
159491.09737915755	275.90262084241647	n/a	743	89	2750	275.902620842	stim	stop-signal	266	729675	0.0-13.33-1.33	beast_fmri_test	356	727596,/,728276,/,728956,/,729635,/	t,t,t,t	<img class = center src='/static/experiments/beast_fmri_test/images/P.png'></img>	71,89	2750.0	test	<img class = center src='/static/experiments/beast_fmri_test/images/redP.png'></img>	stop	2050.0	2.0	33.0	stop	non-target	P	71,Index Finger	89,Middle Finger	550.0	700.0	2200.0	2050.0	0.0	700.0	0.0	n/a	ITI
160574	500	n/a	-1	-1	500	0.0	fixation	poldrack-single-stim	267	730482	0.0-13.34-0.34	beast_fmri_test	356	730315,/	t	<div class = centerbox2><div class = fixation>+</div></div>	none	500.0	test	n/a	n/a	n/a	n/a	n/a	n/a	n/a	n/a	n/a	n/a	n/a	n/a	n/a	n/a	n/a	n/a	n/a	n/a	fixation
160550.82740912749	2750	n/a	935	89	2750	24.1725908726	stim	stop-signal	268	733233	0.0-13.34-1.34	beast_fmri_test	356	730995,/,731674,/,732354,/,733032,/	t,t,t,t	<img class = center src='/static/experiments/beast_fmri_test/images/B.png'></img>	71,89	2750.0	test	<img class = center src='/static/experiments/beast_fmri_test/images/redB.png'></img>	go	2100.0	2.0	34.0	go	non-target	B	71,Index Finger	89,Middle Finger	550.0	650.0	2200.0	2100.0	1.0	650.0	n/a	1.0	go_stim
163300.82740912749	24.172590872553158	n/a	935	89	2750	24.1725908726	stim	stop-signal	268	733233	0.0-13.34-1.34	beast_fmri_test	356	730995,/,731674,/,732354,/,733032,/	t,t,t,t	<img class = center src='/static/experiments/beast_fmri_test/images/B.png'></img>	71,89	2750.0	test	<img class = center src='/static/experiments/beast_fmri_test/images/redB.png'></img>	go	2100.0	2.0	34.0	go	non-target	B	71,Index Finger	89,Middle Finger	550.0	650.0	2200.0	2100.0	1.0	650.0	n/a	1.0	ITI
163876	500	n/a	-1	-1	500	0.0	fixation	poldrack-single-stim	269	733784	0.0-13.35-0.35	beast_fmri_test	356	733712,/	t	<div class = centerbox2><div class = fixation>+</div></div>	none	500.0	test	n/a	n/a	n/a	n/a	n/a	n/a	n/a	n/a	n/a	n/a	n/a	n/a	n/a	n/a	n/a	n/a	n/a	n/a	fixation
162884.55782169348	550.0	n/a	-1	-1	2750	994.442178307	stim	stop-signal	270	736537	0.0-13.35-1.35	beast_fmri_test	356	734392,/,735073,/,735752,/,736431,/,737111,/	t,t,t,t,t	<img class = center src='/static/experiments/beast_fmri_test/images/P.png'></img>	71,89	2750.0	test	<img class = center src='/static/experiments/beast_fmri_test/images/redP.png'></img>	stop	2200.0	2.0	35.0	stop	target	P	71,Index Finger	89,Middle Finger	550.0	650.0	2200.0	2100.0	0.0	550.0	1.0	n/a	go_stim
165084.55782169348	2200.0	n/a	-1	-1	2750	994.442178307	stim	stop-signal	270	736537	0.0-13.35-1.35	beast_fmri_test	356	734392,/,735073,/,735752,/,736431,/,737111,/	t,t,t,t,t	<img class = center src='/static/experiments/beast_fmri_test/images/P.png'></img>	71,89	2750.0	test	<img class = center src='/static/experiments/beast_fmri_test/images/redP.png'></img>	stop	2200.0	2.0	35.0	stop	target	P	71,Index Finger	89,Middle Finger	550.0	650.0	2200.0	2100.0	0.0	550.0	1.0	n/a	stop_stim
165634.55782169348	994.44217830650632	n/a	-1	-1	2750	994.442178307	stim	stop-signal	270	736537	0.0-13.35-1.35	beast_fmri_test	356	734392,/,735073,/,735752,/,736431,/,737111,/	t,t,t,t,t	<img class = center src='/static/experiments/beast_fmri_test/images/P.png'></img>	71,89	2750.0	test	<img class = center src='/static/experiments/beast_fmri_test/images/redP.png'></img>	stop	2200.0	2.0	35.0	stop	target	P	71,Index Finger	89,Middle Finger	550.0	650.0	2200.0	2100.0	0.0	550.0	1.0	n/a	ITI
168149	500	n/a	-1	-1	500	0.0	fixation	poldrack-single-stim	271	738057	0.0-13.36-0.36	beast_fmri_test	356	737791,/	t	<div class = centerbox2><div class = fixation>+</div></div>	none	500.0	test	n/a	n/a	n/a	n/a	n/a	n/a	n/a	n/a	n/a	n/a	n/a	n/a	n/a	n/a	n/a	n/a	n/a	n/a	fixation
168052.09456808819	600.0	n/a	809	71	2750	99.9054319118	stim	stop-signal	272	740810	0.0-13.36-1.36	beast_fmri_test	356	738470,/,739151,/,739830,/,740510,/	t,t,t,t	<img class = center src='/static/experiments/beast_fmri_test/images/B.png'></img>	71,89	2750.0	test	<img class = center src='/static/experiments/beast_fmri_test/images/redB.png'></img>	stop	2150.0	2.0	36.0	stop	target	B	71,Index Finger	89,Middle Finger	600.0	650.0	2150.0	2100.0	0.0	600.0	0.0	n/a	go_stim
170202.09456808819	2150.0	n/a	809	71	2750	99.9054319118	stim	stop-signal	272	740810	0.0-13.36-1.36	beast_fmri_test	356	738470,/,739151,/,739830,/,740510,/	t,t,t,t	<img class = center src='/static/experiments/beast_fmri_test/images/B.png'></img>	71,89	2750.0	test	<img class = center src='/static/experiments/beast_fmri_test/images/redB.png'></img>	stop	2150.0	2.0	36.0	stop	target	B	71,Index Finger	89,Middle Finger	600.0	650.0	2150.0	2100.0	0.0	600.0	0.0	n/a	stop_stim
170802.09456808819	99.905431911787872	n/a	809	71	2750	99.9054319118	stim	stop-signal	272	740810	0.0-13.36-1.36	beast_fmri_test	356	738470,/,739151,/,739830,/,740510,/	t,t,t,t	<img class = center src='/static/experiments/beast_fmri_test/images/B.png'></img>	71,89	2750.0	test	<img class = center src='/static/experiments/beast_fmri_test/images/redB.png'></img>	stop	2150.0	2.0	36.0	stop	target	B	71,Index Finger	89,Middle Finger	600.0	650.0	2150.0	2100.0	0.0	600.0	0.0	n/a	ITI
171531	500	n/a	-1	-1	500	0.0	fixation	poldrack-single-stim	273	741439	0.0-13.37-0.37	beast_fmri_test	356	741190,/	t	<div class = centerbox2><div class = fixation>+</div></div>	none	500.0	test	n/a	n/a	n/a	n/a	n/a	n/a	n/a	n/a	n/a	n/a	n/a	n/a	n/a	n/a	n/a	n/a	n/a	n/a	fixation
171499.05466380913	650.0	n/a	-1	-1	2750	34.9453361909	stim	stop-signal	274	744192	0.0-13.37-1.37	beast_fmri_test	356	741868,/,742549,/,743228,/,743909,/	t,t,t,t	<img class = center src='/static/experiments/beast_fmri_test/images/T.png'></img>	71,89	2750.0	test	<img class = center src='/static/experiments/beast_fmri_test/images/redT.png'></img>	stop	2100.0	2.0	37.0	stop	non-target	T	71,Index Finger	89,Middle Finger	550.0	650.0	2150.0	2100.0	0.0	650.0	1.0	n/a	go_stim
173599.05466380913	2100.0	n/a	-1	-1	2750	34.9453361909	stim	stop-signal	274	744192	0.0-13.37-1.37	beast_fmri_test	356	741868,/,742549,/,743228,/,743909,/	t,t,t,t	<img class = center src='/static/experiments/beast_fmri_test/images/T.png'></img>	71,89	2750.0	test	<img class = center src='/static/experiments/beast_fmri_test/images/redT.png'></img>	stop	2100.0	2.0	37.0	stop	non-target	T	71,Index Finger	89,Middle Finger	550.0	650.0	2150.0	2100.0	0.0	650.0	1.0	n/a	stop_stim
174249.05466380913	34.945336190923769	n/a	-1	-1	2750	34.9453361909	stim	stop-signal	274	744192	0.0-13.37-1.37	beast_fmri_test	356	741868,/,742549,/,743228,/,743909,/	t,t,t,t	<img class = center src='/static/experiments/beast_fmri_test/images/T.png'></img>	71,89	2750.0	test	<img class = center src='/static/experiments/beast_fmri_test/images/redT.png'></img>	stop	2100.0	2.0	37.0	stop	non-target	T	71,Index Finger	89,Middle Finger	550.0	650.0	2150.0	2100.0	0.0	650.0	1.0	n/a	ITI
174843	500	n/a	-1	-1	500	0.0	fixation	poldrack-single-stim	275	744751	0.0-13.38-0.38	beast_fmri_test	356	744588,/	t	<div class = centerbox2><div class = fixation>+</div></div>	none	500.0	test	n/a	n/a	n/a	n/a	n/a	n/a	n/a	n/a	n/a	n/a	n/a	n/a	n/a	n/a	n/a	n/a	n/a	n/a	fixation
174792.59672944259	2750	n/a	976	71	2750	52.4032705574	stim	stop-signal	276	747503	0.0-13.38-1.38	beast_fmri_test	356	745267,/,745947,/,746626,/,747307,/	t,t,t,t	<img class = center src='/static/experiments/beast_fmri_test/images/B.png'></img>	71,89	2750.0	test	<img class = center src='/static/experiments/beast_fmri_test/images/redB.png'></img>	go	2200.0	2.0	38.0	go	target	B	71,Index Finger	89,Middle Finger	550.0	700.0	2200.0	2100.0	1.0	550.0	n/a	1.0	go_stim
177542.59672944259	52.403270557356862	n/a	976	71	2750	52.4032705574	stim	stop-signal	276	747503	0.0-13.38-1.38	beast_fmri_test	356	745267,/,745947,/,746626,/,747307,/	t,t,t,t	<img class = center src='/static/experiments/beast_fmri_test/images/B.png'></img>	71,89	2750.0	test	<img class = center src='/static/experiments/beast_fmri_test/images/redB.png'></img>	go	2200.0	2.0	38.0	go	target	B	71,Index Finger	89,Middle Finger	550.0	700.0	2200.0	2100.0	1.0	550.0	n/a	1.0	ITI
178178	500	n/a	-1	-1	500	0.0	fixation	poldrack-single-stim	277	748086	0.0-13.39-0.39	beast_fmri_test	356	747987,/	t	<div class = centerbox2><div class = fixation>+</div></div>	none	500.0	test	n/a	n/a	n/a	n/a	n/a	n/a	n/a	n/a	n/a	n/a	n/a	n/a	n/a	n/a	n/a	n/a	n/a	n/a	fixation
177861.04261925002	2750	n/a	1224	71	2750	317.95738075	stim	stop-signal	278	750837	0.0-13.39-1.39	beast_fmri_test	356	748666,/,749346,/,750026,/,750705,/	t,t,t,t	<img class = center src='/static/experiments/beast_fmri_test/images/T.png'></img>	71,89	2750.0	test	<img class = center src='/static/experiments/beast_fmri_test/images/redT.png'></img>	go	2200.0	2.0	39.0	go	target	T	71,Index Finger	89,Middle Finger	550.0	700.0	2200.0	2100.0	1.0	550.0	n/a	1.0	go_stim
180611.04261925002	317.95738074994182	n/a	1224	71	2750	317.95738075	stim	stop-signal	278	750837	0.0-13.39-1.39	beast_fmri_test	356	748666,/,749346,/,750026,/,750705,/	t,t,t,t	<img class = center src='/static/experiments/beast_fmri_test/images/T.png'></img>	71,89	2750.0	test	<img class = center src='/static/experiments/beast_fmri_test/images/redT.png'></img>	go	2200.0	2.0	39.0	go	target	T	71,Index Finger	89,Middle Finger	550.0	700.0	2200.0	2100.0	1.0	550.0	n/a	1.0	ITI
181779	500	n/a	-1	-1	500	0.0	fixation	poldrack-single-stim	279	751687	0.0-13.40-0.40	beast_fmri_test	356	751384,/	t	<div class = centerbox2><div class = fixation>+</div></div>	none	500.0	test	n/a	n/a	n/a	n/a	n/a	n/a	n/a	n/a	n/a	n/a	n/a	n/a	n/a	n/a	n/a	n/a	n/a	n/a	fixation
180931.52612632187	700.0	n/a	711	89	2750	850.473873678	stim	stop-signal	280	754440	0.0-13.40-1.40	beast_fmri_test	356	752064,/,752743,/,753424,/,754104,/,754783,/	t,t,t,t,t	<img class = center src='/static/experiments/beast_fmri_test/images/D.png'></img>	71,89	2750.0	test	<img class = center src='/static/experiments/beast_fmri_test/images/redD.png'></img>	stop	2050.0	2.0	40.0	stop	non-target	D	71,Index Finger	89,Middle Finger	550.0	700.0	2200.0	2050.0	0.0	700.0	0.0	n/a	go_stim
182981.52612632187	2050.0	n/a	711	89	2750	850.473873678	stim	stop-signal	280	754440	0.0-13.40-1.40	beast_fmri_test	356	752064,/,752743,/,753424,/,754104,/,754783,/	t,t,t,t,t	<img class = center src='/static/experiments/beast_fmri_test/images/D.png'></img>	71,89	2750.0	test	<img class = center src='/static/experiments/beast_fmri_test/images/redD.png'></img>	stop	2050.0	2.0	40.0	stop	non-target	D	71,Index Finger	89,Middle Finger	550.0	700.0	2200.0	2050.0	0.0	700.0	0.0	n/a	stop_stim
183681.52612632187	850.47387367811564	n/a	711	89	2750	850.473873678	stim	stop-signal	280	754440	0.0-13.40-1.40	beast_fmri_test	356	752064,/,752743,/,753424,/,754104,/,754783,/	t,t,t,t,t	<img class = center src='/static/experiments/beast_fmri_test/images/D.png'></img>	71,89	2750.0	test	<img class = center src='/static/experiments/beast_fmri_test/images/redD.png'></img>	stop	2050.0	2.0	40.0	stop	non-target	D	71,Index Finger	89,Middle Finger	550.0	700.0	2200.0	2050.0	0.0	700.0	0.0	n/a	ITI
185913	500	n/a	-1	-1	500	0.0	fixation	poldrack-single-stim	281	755821	0.0-13.41-0.41	beast_fmri_test	356	755463,/	t	<div class = centerbox2><div class = fixation>+</div></div>	none	500.0	test	n/a	n/a	n/a	n/a	n/a	n/a	n/a	n/a	n/a	n/a	n/a	n/a	n/a	n/a	n/a	n/a	n/a	n/a	fixation
185210.36751003028	2750	n/a	842	71	2750	703.63248997	stim	stop-signal	282	758572	0.0-13.41-1.41	beast_fmri_test	356	756142,/,756822,/,757502,/,758182,/,758863,/	t,t,t,t,t	<img class = center src='/static/experiments/beast_fmri_test/images/P.png'></img>	71,89	2750.0	test	<img class = center src='/static/experiments/beast_fmri_test/images/redP.png'></img>	go	2100.0	2.0	41.0	go	non-target	P	71,Index Finger	89,Middle Finger	550.0	650.0	2200.0	2100.0	0.0	650.0	n/a	0.0	go_stim
187960.36751003028	703.63248996971117	n/a	842	71	2750	703.63248997	stim	stop-signal	282	758572	0.0-13.41-1.41	beast_fmri_test	356	756142,/,756822,/,757502,/,758182,/,758863,/	t,t,t,t,t	<img class = center src='/static/experiments/beast_fmri_test/images/P.png'></img>	71,89	2750.0	test	<img class = center src='/static/experiments/beast_fmri_test/images/redP.png'></img>	go	2100.0	2.0	41.0	go	non-target	P	71,Index Finger	89,Middle Finger	550.0	650.0	2200.0	2100.0	0.0	650.0	n/a	0.0	ITI
189900	500	n/a	-1	-1	500	0.0	fixation	poldrack-single-stim	283	759808	0.0-13.42-0.42	beast_fmri_test	356	759542,/	t	<div class = centerbox2><div class = fixation>+</div></div>	none	500.0	test	n/a	n/a	n/a	n/a	n/a	n/a	n/a	n/a	n/a	n/a	n/a	n/a	n/a	n/a	n/a	n/a	n/a	n/a	fixation
188365.52212978317	650.0	n/a	994	89	2750	1536.47787022	stim	stop-signal	284	762560	0.0-13.42-1.42	beast_fmri_test	356	760221,/,760901,/,761579,/,762259,/,762940,/,763620,/	t,t,t,t,t,t	<img class = center src='/static/experiments/beast_fmri_test/images/V.png'></img>	71,89	2750.0	test	<img class = center src='/static/experiments/beast_fmri_test/images/redV.png'></img>	stop	2100.0	2.0	42.0	stop	non-target	V	71,Index Finger	89,Middle Finger	550.0	650.0	2200.0	2100.0	0.0	650.0	0.0	n/a	go_stim
190465.52212978317	2100.0	n/a	994	89	2750	1536.47787022	stim	stop-signal	284	762560	0.0-13.42-1.42	beast_fmri_test	356	760221,/,760901,/,761579,/,762259,/,762940,/,763620,/	t,t,t,t,t,t	<img class = center src='/static/experiments/beast_fmri_test/images/V.png'></img>	71,89	2750.0	test	<img class = center src='/static/experiments/beast_fmri_test/images/redV.png'></img>	stop	2100.0	2.0	42.0	stop	non-target	V	71,Index Finger	89,Middle Finger	550.0	650.0	2200.0	2100.0	0.0	650.0	0.0	n/a	stop_stim
191115.52212978317	1536.4778702168051	n/a	994	89	2750	1536.47787022	stim	stop-signal	284	762560	0.0-13.42-1.42	beast_fmri_test	356	760221,/,760901,/,761579,/,762259,/,762940,/,763620,/	t,t,t,t,t,t	<img class = center src='/static/experiments/beast_fmri_test/images/V.png'></img>	71,89	2750.0	test	<img class = center src='/static/experiments/beast_fmri_test/images/redV.png'></img>	stop	2100.0	2.0	42.0	stop	non-target	V	71,Index Finger	89,Middle Finger	550.0	650.0	2200.0	2100.0	0.0	650.0	0.0	n/a	ITI
194720	500	n/a	-1	-1	500	0.0	fixation	poldrack-single-stim	285	764628	0.0-13.43-0.43	beast_fmri_test	356	764300,/	t	<div class = centerbox2><div class = fixation>+</div></div>	none	500.0	test	n/a	n/a	n/a	n/a	n/a	n/a	n/a	n/a	n/a	n/a	n/a	n/a	n/a	n/a	n/a	n/a	n/a	n/a	fixation
194590.12810004363	2750	n/a	1052	71	2750	131.871899956	stim	stop-signal	286	767380	0.0-13.43-1.43	beast_fmri_test	356	764979,/,765658,/,766338,/,767017,/	t,t,t,t	<img class = center src='/static/experiments/beast_fmri_test/images/P.png'></img>	71,89	2750.0	test	<img class = center src='/static/experiments/beast_fmri_test/images/redP.png'></img>	go	2200.0	2.0	43.0	go	target	P	71,Index Finger	89,Middle Finger	550.0	600.0	2200.0	2100.0	1.0	550.0	n/a	1.0	go_stim
197340.12810004363	131.87189995633028	n/a	1052	71	2750	131.871899956	stim	stop-signal	286	767380	0.0-13.43-1.43	beast_fmri_test	356	764979,/,765658,/,766338,/,767017,/	t,t,t,t	<img class = center src='/static/experiments/beast_fmri_test/images/P.png'></img>	71,89	2750.0	test	<img class = center src='/static/experiments/beast_fmri_test/images/redP.png'></img>	go	2200.0	2.0	43.0	go	target	P	71,Index Finger	89,Middle Finger	550.0	600.0	2200.0	2100.0	1.0	550.0	n/a	1.0	ITI
198133	500	n/a	-1	-1	500	0.0	fixation	poldrack-single-stim	287	768041	0.0-13.44-0.44	beast_fmri_test	356	767698,/	t	<div class = centerbox2><div class = fixation>+</div></div>	none	500.0	test	n/a	n/a	n/a	n/a	n/a	n/a	n/a	n/a	n/a	n/a	n/a	n/a	n/a	n/a	n/a	n/a	n/a	n/a	fixation
194429.24627828354	2750	n/a	1106	89	2750	3705.75372172	stim	stop-signal	288	770793	0.0-13.44-1.44	beast_fmri_test	356	768377,/,769057,/,769737,/,770416,/,771096,/,771776,/,772456,/,773135,/,773814,/,774495,/	t,t,t,t,t,t,t,t,t,t	<img class = center src='/static/experiments/beast_fmri_test/images/P.png'></img>	71,89	2750.0	test	<img class = center src='/static/experiments/beast_fmri_test/images/redP.png'></img>	go	2150.0	2.0	44.0	go	non-target	P	71,Index Finger	89,Middle Finger	550.0	600.0	2200.0	2150.0	1.0	600.0	n/a	1.0	go_stim
197179.24627828354	3705.7537217164599	n/a	1106	89	2750	3705.75372172	stim	stop-signal	288	770793	0.0-13.44-1.44	beast_fmri_test	356	768377,/,769057,/,769737,/,770416,/,771096,/,771776,/,772456,/,773135,/,773814,/,774495,/	t,t,t,t,t,t,t,t,t,t	<img class = center src='/static/experiments/beast_fmri_test/images/P.png'></img>	71,89	2750.0	test	<img class = center src='/static/experiments/beast_fmri_test/images/redP.png'></img>	go	2150.0	2.0	44.0	go	non-target	P	71,Index Finger	89,Middle Finger	550.0	600.0	2200.0	2150.0	1.0	600.0	n/a	1.0	ITI
205119	500	n/a	-1	-1	500	0.0	fixation	poldrack-single-stim	289	775027	0.0-13.45-0.45	beast_fmri_test	356	n/a	n/a	<div class = centerbox2><div class = fixation>+</div></div>	none	500.0	test	n/a	n/a	n/a	n/a	n/a	n/a	n/a	n/a	n/a	n/a	n/a	n/a	n/a	n/a	n/a	n/a	n/a	n/a	fixation
202293.13881477469	2750	n/a	1151	71	2750	2826.86118523	stim	stop-signal	290	777778	0.0-13.45-1.45	beast_fmri_test	356	775173,/,775853,/,776534,/,777212,/,777893,/,778573,/,779252,/,779931,/	t,t,t,t,t,t,t,t	<img class = center src='/static/experiments/beast_fmri_test/images/P.png'></img>	71,89	2750.0	test	<img class = center src='/static/experiments/beast_fmri_test/images/redP.png'></img>	go	2200.0	2.0	45.0	go	target	P	71,Index Finger	89,Middle Finger	550.0	600.0	2200.0	2150.0	1.0	550.0	n/a	1.0	go_stim
205043.13881477469	2826.8611852253034	n/a	1151	71	2750	2826.86118523	stim	stop-signal	290	777778	0.0-13.45-1.45	beast_fmri_test	356	775173,/,775853,/,776534,/,777212,/,777893,/,778573,/,779252,/,779931,/	t,t,t,t,t,t,t,t	<img class = center src='/static/experiments/beast_fmri_test/images/P.png'></img>	71,89	2750.0	test	<img class = center src='/static/experiments/beast_fmri_test/images/redP.png'></img>	go	2200.0	2.0	45.0	go	target	P	71,Index Finger	89,Middle Finger	550.0	600.0	2200.0	2150.0	1.0	550.0	n/a	1.0	ITI
211228	500	n/a	-1	-1	500	0.0	fixation	poldrack-single-stim	291	781136	0.0-13.46-0.46	beast_fmri_test	356	780634,/	t	<div class = centerbox2><div class = fixation>+</div></div>	none	500.0	test	n/a	n/a	n/a	n/a	n/a	n/a	n/a	n/a	n/a	n/a	n/a	n/a	n/a	n/a	n/a	n/a	n/a	n/a	fixation
209466.25690584211	2750	n/a	819	89	2750	1763.74309416	stim	stop-signal	292	783888	0.0-13.46-1.46	beast_fmri_test	356	781291,/,781970,/,782651,/,783330,/,784009,/,784690,/,785369,/	t,t,t,t,t,t,t	<img class = center src='/static/experiments/beast_fmri_test/images/V.png'></img>	71,89	2750.0	test	<img class = center src='/static/experiments/beast_fmri_test/images/redV.png'></img>	go	2150.0	2.0	46.0	go	non-target	V	71,Index Finger	89,Middle Finger	550.0	600.0	2200.0	2150.0	1.0	600.0	n/a	1.0	go_stim
212216.25690584211	1763.743094157925	n/a	819	89	2750	1763.74309416	stim	stop-signal	292	783888	0.0-13.46-1.46	beast_fmri_test	356	781291,/,781970,/,782651,/,783330,/,784009,/,784690,/,785369,/	t,t,t,t,t,t,t	<img class = center src='/static/experiments/beast_fmri_test/images/V.png'></img>	71,89	2750.0	test	<img class = center src='/static/experiments/beast_fmri_test/images/redV.png'></img>	go	2150.0	2.0	46.0	go	non-target	V	71,Index Finger	89,Middle Finger	550.0	600.0	2200.0	2150.0	1.0	600.0	n/a	1.0	ITI
230769	15000	n/a	-1	-1	15000	0.0	practice-no-stop-feedback	poldrack-single-stim	293	800677	0.0-14.0	beast_fmri_test	356	786050,/,786729,/,787409,/,788089,/,788768,/,789447,/,790128,/,790807,/,791486,/,792167,/,792846,/,793526,/,794204,/,794884,/,795565,/,796245,/,796924,/,797603,/,798283,/,798962,/,799644,/,800322,/	t,t,t,t,t,t,t,t,t,t,t,t,t,t,t,t,t,t,t,t,t,t	"<div class = ""centerbox""><p class = ""block-text"">Your delay is 2 trials.</p><p class = block-text>Please wait for the scanner to start the block</p></div>"	77	15000.0	n/a	n/a	n/a	n/a	n/a	n/a	n/a	n/a	n/a	n/a	n/a	n/a	n/a	n/a	n/a	n/a	n/a	n/a	n/a	practice-no-stop-feedback
231272	500	n/a	-1	-1	500	0.0	fixation	poldrack-single-stim	294	801180	0.0-15.0-0.0	beast_fmri_test	356	801003,/	t	<div class = centerbox2><div class = fixation>+</div></div>	none	500.0	test	n/a	n/a	n/a	n/a	n/a	n/a	n/a	n/a	n/a	n/a	n/a	n/a	n/a	n/a	n/a	n/a	n/a	n/a	fixation
229812.41016266448	2750	n/a	1158	89	2750	1461.58983734	stim	stop-signal	295	803932	0.0-15.0-1.0	beast_fmri_test	356	801683,/,802361,/,803041,/,803721,/,804401,/,805081,/	t,t,t,t,t,t	<img class = center src='/static/experiments/beast_fmri_test/images/B.png'></img>	71,89	2750.0	test	<img class = center src='/static/experiments/beast_fmri_test/images/redB.png'></img>	go	-1.0	2.0	0.0	go	temp-non-target	B	71,Index Finger	89,Middle Finger	550.0	600.0	2200.0	2150.0	0.0	n/a	n/a	n/a	go_stim
232562.41016266448	1461.5898373355415	n/a	1158	89	2750	1461.58983734	stim	stop-signal	295	803932	0.0-15.0-1.0	beast_fmri_test	356	801683,/,802361,/,803041,/,803721,/,804401,/,805081,/	t,t,t,t,t,t	<img class = center src='/static/experiments/beast_fmri_test/images/B.png'></img>	71,89	2750.0	test	<img class = center src='/static/experiments/beast_fmri_test/images/redB.png'></img>	go	-1.0	2.0	0.0	go	temp-non-target	B	71,Index Finger	89,Middle Finger	550.0	600.0	2200.0	2150.0	0.0	n/a	n/a	n/a	ITI
236015	500	n/a	-1	-1	500	0.0	fixation	poldrack-single-stim	296	805923	0.0-15.1-0.1	beast_fmri_test	356	805760,/	t	<div class = centerbox2><div class = fixation>+</div></div>	none	500.0	test	n/a	n/a	n/a	n/a	n/a	n/a	n/a	n/a	n/a	n/a	n/a	n/a	n/a	n/a	n/a	n/a	n/a	n/a	fixation
234920.91464075365	2750	n/a	849	89	2750	1095.08535925	stim	stop-signal	297	808674	0.0-15.1-1.1	beast_fmri_test	356	806440,/,807120,/,807799,/,808478,/,809157,/	t,t,t,t,t	<img class = center src='/static/experiments/beast_fmri_test/images/P.png'></img>	71,89	2750.0	test	<img class = center src='/static/experiments/beast_fmri_test/images/redP.png'></img>	go	-1.0	2.0	1.0	go	temp-non-target	P	71,Index Finger	89,Middle Finger	550.0	600.0	2200.0	2150.0	0.0	n/a	n/a	n/a	go_stim
237670.91464075365	1095.0853592463402	n/a	849	89	2750	1095.08535925	stim	stop-signal	297	808674	0.0-15.1-1.1	beast_fmri_test	356	806440,/,807120,/,807799,/,808478,/,809157,/	t,t,t,t,t	<img class = center src='/static/experiments/beast_fmri_test/images/P.png'></img>	71,89	2750.0	test	<img class = center src='/static/experiments/beast_fmri_test/images/redP.png'></img>	go	-1.0	2.0	1.0	go	temp-non-target	P	71,Index Finger	89,Middle Finger	550.0	600.0	2200.0	2150.0	0.0	n/a	n/a	n/a	ITI
240395	500	n/a	-1	-1	500	0.0	fixation	poldrack-single-stim	298	810303	0.0-15.2-0.2	beast_fmri_test	356	809837,/	t	<div class = centerbox2><div class = fixation>+</div></div>	none	500.0	test	n/a	n/a	n/a	n/a	n/a	n/a	n/a	n/a	n/a	n/a	n/a	n/a	n/a	n/a	n/a	n/a	n/a	n/a	fixation
240175.65995310014	2750	n/a	648	89	2750	220.3400469	stim	stop-signal	299	813054	0.0-15.2-1.2	beast_fmri_test	356	810519,/,811198,/,811877,/,812557,/,813236,/	t,t,t,t,t	<img class = center src='/static/experiments/beast_fmri_test/images/D.png'></img>	71,89	2750.0	test	<img class = center src='/static/experiments/beast_fmri_test/images/redD.png'></img>	go	2150.0	2.0	2.0	go	non-target	D	71,Index Finger	89,Middle Finger	550.0	600.0	2200.0	2150.0	1.0	600.0	n/a	1.0	go_stim
242925.65995310014	220.3400468998027	n/a	648	89	2750	220.3400469	stim	stop-signal	299	813054	0.0-15.2-1.2	beast_fmri_test	356	810519,/,811198,/,811877,/,812557,/,813236,/	t,t,t,t,t	<img class = center src='/static/experiments/beast_fmri_test/images/D.png'></img>	71,89	2750.0	test	<img class = center src='/static/experiments/beast_fmri_test/images/redD.png'></img>	go	2150.0	2.0	2.0	go	non-target	D	71,Index Finger	89,Middle Finger	550.0	600.0	2200.0	2150.0	1.0	600.0	n/a	1.0	ITI
243899	500	n/a	-1	-1	500	0.0	fixation	poldrack-single-stim	300	813807	0.0-15.3-0.3	beast_fmri_test	356	n/a	n/a	<div class = centerbox2><div class = fixation>+</div></div>	none	500.0	test	n/a	n/a	n/a	n/a	n/a	n/a	n/a	n/a	n/a	n/a	n/a	n/a	n/a	n/a	n/a	n/a	n/a	n/a	fixation
243402.42876568262	2750	n/a	930	89	2750	497.571234317	stim	stop-signal	301	816558	0.0-15.3-1.3	beast_fmri_test	356	813917,/,814597,/,815277,/,815956,/,816635,/	t,t,t,t,t	<img class = center src='/static/experiments/beast_fmri_test/images/D.png'></img>	71,89	2750.0	test	<img class = center src='/static/experiments/beast_fmri_test/images/redD.png'></img>	go	2150.0	2.0	3.0	go	non-target	D	71,Index Finger	89,Middle Finger	550.0	600.0	2200.0	2150.0	1.0	600.0	n/a	1.0	go_stim
246152.42876568262	497.57123431738637	n/a	930	89	2750	497.571234317	stim	stop-signal	301	816558	0.0-15.3-1.3	beast_fmri_test	356	813917,/,814597,/,815277,/,815956,/,816635,/	t,t,t,t,t	<img class = center src='/static/experiments/beast_fmri_test/images/D.png'></img>	71,89	2750.0	test	<img class = center src='/static/experiments/beast_fmri_test/images/redD.png'></img>	go	2150.0	2.0	3.0	go	non-target	D	71,Index Finger	89,Middle Finger	550.0	600.0	2200.0	2150.0	1.0	600.0	n/a	1.0	ITI
247682	500	n/a	-1	-1	500	0.0	fixation	poldrack-single-stim	302	817590	0.0-15.4-0.4	beast_fmri_test	356	817316,/	t	<div class = centerbox2><div class = fixation>+</div></div>	none	500.0	test	n/a	n/a	n/a	n/a	n/a	n/a	n/a	n/a	n/a	n/a	n/a	n/a	n/a	n/a	n/a	n/a	n/a	n/a	fixation
246635.73297975876	2750	n/a	537	71	2750	1047.26702024	stim	stop-signal	303	820341	0.0-15.4-1.4	beast_fmri_test	356	817996,/,818675,/,819354,/,820034,/,820713,/	t,t,t,t,t	<img class = center src='/static/experiments/beast_fmri_test/images/D.png'></img>	71,89	2750.0	test	<img class = center src='/static/experiments/beast_fmri_test/images/redD.png'></img>	go	2200.0	2.0	4.0	go	target	D	71,Index Finger	89,Middle Finger	550.0	600.0	2200.0	2150.0	1.0	550.0	n/a	1.0	go_stim
249385.73297975876	1047.2670202412905	n/a	537	71	2750	1047.26702024	stim	stop-signal	303	820341	0.0-15.4-1.4	beast_fmri_test	356	817996,/,818675,/,819354,/,820034,/,820713,/	t,t,t,t,t	<img class = center src='/static/experiments/beast_fmri_test/images/D.png'></img>	71,89	2750.0	test	<img class = center src='/static/experiments/beast_fmri_test/images/redD.png'></img>	go	2200.0	2.0	4.0	go	target	D	71,Index Finger	89,Middle Finger	550.0	600.0	2200.0	2150.0	1.0	550.0	n/a	1.0	ITI
252011	500	n/a	-1	-1	500	0.0	fixation	poldrack-single-stim	304	821919	0.0-15.5-0.5	beast_fmri_test	356	821418,/	t	<div class = centerbox2><div class = fixation>+</div></div>	none	500.0	test	n/a	n/a	n/a	n/a	n/a	n/a	n/a	n/a	n/a	n/a	n/a	n/a	n/a	n/a	n/a	n/a	n/a	n/a	fixation
251702.81971076876	550.0	n/a	596	71	2750	309.180289231	stim	stop-signal	305	824670	0.0-15.5-1.5	beast_fmri_test	356	822072,/,822751,/,823433,/,824112,/,824790,/	t,t,t,t,t	<img class = center src='/static/experiments/beast_fmri_test/images/D.png'></img>	71,89	2750.0	test	<img class = center src='/static/experiments/beast_fmri_test/images/redD.png'></img>	stop	2200.0	2.0	5.0	stop	target	D	71,Index Finger	89,Middle Finger	550.0	600.0	2200.0	2150.0	0.0	550.0	0.0	n/a	go_stim
253902.81971076876	2200.0	n/a	596	71	2750	309.180289231	stim	stop-signal	305	824670	0.0-15.5-1.5	beast_fmri_test	356	822072,/,822751,/,823433,/,824112,/,824790,/	t,t,t,t,t	<img class = center src='/static/experiments/beast_fmri_test/images/D.png'></img>	71,89	2750.0	test	<img class = center src='/static/experiments/beast_fmri_test/images/redD.png'></img>	stop	2200.0	2.0	5.0	stop	target	D	71,Index Finger	89,Middle Finger	550.0	600.0	2200.0	2150.0	0.0	550.0	0.0	n/a	stop_stim
254452.81971076876	309.18028923127866	n/a	596	71	2750	309.180289231	stim	stop-signal	305	824670	0.0-15.5-1.5	beast_fmri_test	356	822072,/,822751,/,823433,/,824112,/,824790,/	t,t,t,t,t	<img class = center src='/static/experiments/beast_fmri_test/images/D.png'></img>	71,89	2750.0	test	<img class = center src='/static/experiments/beast_fmri_test/images/redD.png'></img>	stop	2200.0	2.0	5.0	stop	target	D	71,Index Finger	89,Middle Finger	550.0	600.0	2200.0	2150.0	0.0	550.0	0.0	n/a	ITI
255606	500	n/a	-1	-1	500	0.0	fixation	poldrack-single-stim	306	825514	0.0-15.6-0.6	beast_fmri_test	356	825471,/	t	<div class = centerbox2><div class = fixation>+</div></div>	none	500.0	test	n/a	n/a	n/a	n/a	n/a	n/a	n/a	n/a	n/a	n/a	n/a	n/a	n/a	n/a	n/a	n/a	n/a	n/a	fixation
255416.91869415878	500.0	n/a	-1	-1	2750	192.081305841	stim	stop-signal	307	828267	0.0-15.6-1.6	beast_fmri_test	356	826151,/,826831,/,827512,/,828191,/	t,t,t,t	<img class = center src='/static/experiments/beast_fmri_test/images/D.png'></img>	71,89	2750.0	test	<img class = center src='/static/experiments/beast_fmri_test/images/redD.png'></img>	stop	2250.0	2.0	6.0	stop	target	D	71,Index Finger	89,Middle Finger	500.0	600.0	2250.0	2150.0	0.0	500.0	1.0	n/a	go_stim
257666.91869415878	2250.0	n/a	-1	-1	2750	192.081305841	stim	stop-signal	307	828267	0.0-15.6-1.6	beast_fmri_test	356	826151,/,826831,/,827512,/,828191,/	t,t,t,t	<img class = center src='/static/experiments/beast_fmri_test/images/D.png'></img>	71,89	2750.0	test	<img class = center src='/static/experiments/beast_fmri_test/images/redD.png'></img>	stop	2250.0	2.0	6.0	stop	target	D	71,Index Finger	89,Middle Finger	500.0	600.0	2250.0	2150.0	0.0	500.0	1.0	n/a	stop_stim
258166.91869415878	192.08130584126329	n/a	-1	-1	2750	192.081305841	stim	stop-signal	307	828267	0.0-15.6-1.6	beast_fmri_test	356	826151,/,826831,/,827512,/,828191,/	t,t,t,t	<img class = center src='/static/experiments/beast_fmri_test/images/D.png'></img>	71,89	2750.0	test	<img class = center src='/static/experiments/beast_fmri_test/images/redD.png'></img>	stop	2250.0	2.0	6.0	stop	target	D	71,Index Finger	89,Middle Finger	500.0	600.0	2250.0	2150.0	0.0	500.0	1.0	n/a	ITI
259088	500	n/a	-1	-1	500	0.0	fixation	poldrack-single-stim	308	828996	0.0-15.7-0.7	beast_fmri_test	356	828870,/	t	<div class = centerbox2><div class = fixation>+</div></div>	none	500.0	test	n/a	n/a	n/a	n/a	n/a	n/a	n/a	n/a	n/a	n/a	n/a	n/a	n/a	n/a	n/a	n/a	n/a	n/a	fixation
258669.60158783209	2750	n/a	786	89	2750	420.398412168	stim	stop-signal	309	831748	0.0-15.7-1.7	beast_fmri_test	356	829550,/,830229,/,830907,/,831588,/	t,t,t,t	<img class = center src='/static/experiments/beast_fmri_test/images/V.png'></img>	71,89	2750.0	test	<img class = center src='/static/experiments/beast_fmri_test/images/redV.png'></img>	go	2150.0	2.0	7.0	go	non-target	V	71,Index Finger	89,Middle Finger	550.0	600.0	2250.0	2150.0	1.0	600.0	n/a	1.0	go_stim
261419.60158783209	420.39841216786971	n/a	786	89	2750	420.398412168	stim	stop-signal	309	831748	0.0-15.7-1.7	beast_fmri_test	356	829550,/,830229,/,830907,/,831588,/	t,t,t,t	<img class = center src='/static/experiments/beast_fmri_test/images/V.png'></img>	71,89	2750.0	test	<img class = center src='/static/experiments/beast_fmri_test/images/redV.png'></img>	go	2150.0	2.0	7.0	go	non-target	V	71,Index Finger	89,Middle Finger	550.0	600.0	2250.0	2150.0	1.0	600.0	n/a	1.0	ITI
262794	500	n/a	-1	-1	500	0.0	fixation	poldrack-single-stim	310	832702	0.0-15.8-0.8	beast_fmri_test	356	832267,/	t	<div class = centerbox2><div class = fixation>+</div></div>	none	500.0	test	n/a	n/a	n/a	n/a	n/a	n/a	n/a	n/a	n/a	n/a	n/a	n/a	n/a	n/a	n/a	n/a	n/a	n/a	fixation
262729.79000429029	2750	n/a	927	89	2750	66.2099957098	stim	stop-signal	311	835454	0.0-15.8-1.8	beast_fmri_test	356	832947,/,833628,/,834308,/,834986,/	t,t,t,t	<img class = center src='/static/experiments/beast_fmri_test/images/T.png'></img>	71,89	2750.0	test	<img class = center src='/static/experiments/beast_fmri_test/images/redT.png'></img>	go	2150.0	2.0	8.0	go	non-target	T	71,Index Finger	89,Middle Finger	550.0	600.0	2250.0	2150.0	1.0	600.0	n/a	1.0	go_stim
265479.79000429029	66.209995709750757	n/a	927	89	2750	66.2099957098	stim	stop-signal	311	835454	0.0-15.8-1.8	beast_fmri_test	356	832947,/,833628,/,834308,/,834986,/	t,t,t,t	<img class = center src='/static/experiments/beast_fmri_test/images/T.png'></img>	71,89	2750.0	test	<img class = center src='/static/experiments/beast_fmri_test/images/redT.png'></img>	go	2150.0	2.0	8.0	go	non-target	T	71,Index Finger	89,Middle Finger	550.0	600.0	2250.0	2150.0	1.0	600.0	n/a	1.0	ITI
266147	500	n/a	-1	-1	500	0.0	fixation	poldrack-single-stim	312	836055	0.0-15.9-0.9	beast_fmri_test	356	835666,/	t	<div class = centerbox2><div class = fixation>+</div></div>	none	500.0	test	n/a	n/a	n/a	n/a	n/a	n/a	n/a	n/a	n/a	n/a	n/a	n/a	n/a	n/a	n/a	n/a	n/a	n/a	fixation
261913.20561777754	550.0	n/a	1457	89	2750	4234.79438222	stim	stop-signal	313	838806	0.0-15.9-1.9	beast_fmri_test	356	836346,/,837025,/,837705,/,838385,/,839065,/,839744,/,840424,/,841103,/,841785,/,842465,/	t,t,t,t,t,t,t,t,t,t	<img class = center src='/static/experiments/beast_fmri_test/images/V.png'></img>	71,89	2750.0	test	<img class = center src='/static/experiments/beast_fmri_test/images/redV.png'></img>	stop	2200.0	2.0	9.0	stop	target	V	71,Index Finger	89,Middle Finger	550.0	600.0	2200.0	2150.0	0.0	550.0	0.0	n/a	go_stim
264113.20561777754	2200.0	n/a	1457	89	2750	4234.79438222	stim	stop-signal	313	838806	0.0-15.9-1.9	beast_fmri_test	356	836346,/,837025,/,837705,/,838385,/,839065,/,839744,/,840424,/,841103,/,841785,/,842465,/	t,t,t,t,t,t,t,t,t,t	<img class = center src='/static/experiments/beast_fmri_test/images/V.png'></img>	71,89	2750.0	test	<img class = center src='/static/experiments/beast_fmri_test/images/redV.png'></img>	stop	2200.0	2.0	9.0	stop	target	V	71,Index Finger	89,Middle Finger	550.0	600.0	2200.0	2150.0	0.0	550.0	0.0	n/a	stop_stim
264663.20561777754	4234.7943822224797	n/a	1457	89	2750	4234.79438222	stim	stop-signal	313	838806	0.0-15.9-1.9	beast_fmri_test	356	836346,/,837025,/,837705,/,838385,/,839065,/,839744,/,840424,/,841103,/,841785,/,842465,/	t,t,t,t,t,t,t,t,t,t	<img class = center src='/static/experiments/beast_fmri_test/images/V.png'></img>	71,89	2750.0	test	<img class = center src='/static/experiments/beast_fmri_test/images/redV.png'></img>	stop	2200.0	2.0	9.0	stop	target	V	71,Index Finger	89,Middle Finger	550.0	600.0	2200.0	2150.0	0.0	550.0	0.0	n/a	ITI
273665	500	n/a	-1	-1	500	0.0	fixation	poldrack-single-stim	314	843573	0.0-15.10-0.10	beast_fmri_test	356	843144,/	t	<div class = centerbox2><div class = fixation>+</div></div>	none	500.0	test	n/a	n/a	n/a	n/a	n/a	n/a	n/a	n/a	n/a	n/a	n/a	n/a	n/a	n/a	n/a	n/a	n/a	n/a	fixation
272595.65039393771	2750	n/a	1249	89	2750	1071.34960606	stim	stop-signal	315	846325	0.0-15.10-1.10	beast_fmri_test	356	843824,/,844503,/,845182,/,845862,/,846542,/,847222,/	t,t,t,t,t,t	<img class = center src='/static/experiments/beast_fmri_test/images/T.png'></img>	71,89	2750.0	test	<img class = center src='/static/experiments/beast_fmri_test/images/redT.png'></img>	go	2250.0	2.0	10.0	go	target	T	71,Index Finger	89,Middle Finger	500.0	600.0	2250.0	2150.0	0.0	500.0	n/a	0.0	go_stim
275345.65039393771	1071.3496060622597	n/a	1249	89	2750	1071.34960606	stim	stop-signal	315	846325	0.0-15.10-1.10	beast_fmri_test	356	843824,/,844503,/,845182,/,845862,/,846542,/,847222,/	t,t,t,t,t,t	<img class = center src='/static/experiments/beast_fmri_test/images/T.png'></img>	71,89	2750.0	test	<img class = center src='/static/experiments/beast_fmri_test/images/redT.png'></img>	go	2250.0	2.0	10.0	go	target	T	71,Index Finger	89,Middle Finger	500.0	600.0	2250.0	2150.0	0.0	500.0	n/a	0.0	ITI
278027	500	n/a	-1	-1	500	0.0	fixation	poldrack-single-stim	316	847935	0.0-15.11-0.11	beast_fmri_test	356	847902,/	t	<div class = centerbox2><div class = fixation>+</div></div>	none	500.0	test	n/a	n/a	n/a	n/a	n/a	n/a	n/a	n/a	n/a	n/a	n/a	n/a	n/a	n/a	n/a	n/a	n/a	n/a	fixation
275530.89237668214	2750	n/a	939	71	2750	2497.10762332	stim	stop-signal	317	850686	0.0-15.11-1.11	beast_fmri_test	356	848580,/,849261,/,849939,/,850620,/,851299,/,851978,/,852658,/	t,t,t,t,t,t,t	<img class = center src='/static/experiments/beast_fmri_test/images/V.png'></img>	71,89	2750.0	test	<img class = center src='/static/experiments/beast_fmri_test/images/redV.png'></img>	go	2250.0	2.0	11.0	go	target	V	71,Index Finger	89,Middle Finger	500.0	600.0	2250.0	2150.0	1.0	500.0	n/a	1.0	go_stim
278280.89237668214	2497.1076233178546	n/a	939	71	2750	2497.10762332	stim	stop-signal	317	850686	0.0-15.11-1.11	beast_fmri_test	356	848580,/,849261,/,849939,/,850620,/,851299,/,851978,/,852658,/	t,t,t,t,t,t,t	<img class = center src='/static/experiments/beast_fmri_test/images/V.png'></img>	71,89	2750.0	test	<img class = center src='/static/experiments/beast_fmri_test/images/redV.png'></img>	go	2250.0	2.0	11.0	go	target	V	71,Index Finger	89,Middle Finger	500.0	600.0	2250.0	2150.0	1.0	500.0	n/a	1.0	ITI
283809	500	n/a	-1	-1	500	0.0	fixation	poldrack-single-stim	318	853717	0.0-15.12-0.12	beast_fmri_test	356	853338,/	t	<div class = centerbox2><div class = fixation>+</div></div>	none	500.0	test	n/a	n/a	n/a	n/a	n/a	n/a	n/a	n/a	n/a	n/a	n/a	n/a	n/a	n/a	n/a	n/a	n/a	n/a	fixation
282170.76074398577	2750	n/a	956	89	2750	1641.23925601	stim	stop-signal	319	856470	0.0-15.12-1.12	beast_fmri_test	356	854017,/,854696,/,855378,/,856058,/,856736,/,857416,/,858097,/	t,t,t,t,t,t,t	<img class = center src='/static/experiments/beast_fmri_test/images/D.png'></img>	71,89	2750.0	test	<img class = center src='/static/experiments/beast_fmri_test/images/redD.png'></img>	go	2150.0	2.0	12.0	go	non-target	D	71,Index Finger	89,Middle Finger	500.0	600.0	2250.0	2150.0	1.0	600.0	n/a	1.0	go_stim
284920.76074398577	1641.2392560141855	n/a	956	89	2750	1641.23925601	stim	stop-signal	319	856470	0.0-15.12-1.12	beast_fmri_test	356	854017,/,854696,/,855378,/,856058,/,856736,/,857416,/,858097,/	t,t,t,t,t,t,t	<img class = center src='/static/experiments/beast_fmri_test/images/D.png'></img>	71,89	2750.0	test	<img class = center src='/static/experiments/beast_fmri_test/images/redD.png'></img>	go	2150.0	2.0	12.0	go	non-target	D	71,Index Finger	89,Middle Finger	500.0	600.0	2250.0	2150.0	1.0	600.0	n/a	1.0	ITI
288739	500	n/a	-1	-1	500	0.0	fixation	poldrack-single-stim	320	858647	0.0-15.13-0.13	beast_fmri_test	356	n/a	n/a	<div class = centerbox2><div class = fixation>+</div></div>	none	500.0	test	n/a	n/a	n/a	n/a	n/a	n/a	n/a	n/a	n/a	n/a	n/a	n/a	n/a	n/a	n/a	n/a	n/a	n/a	fixation
288150.34915955702	2750	n/a	801	71	2750	590.650840443	stim	stop-signal	321	861399	0.0-15.13-1.13	beast_fmri_test	356	858776,/,859455,/,860136,/,860814,/,861495,/	t,t,t,t,t	<img class = center src='/static/experiments/beast_fmri_test/images/T.png'></img>	71,89	2750.0	test	<img class = center src='/static/experiments/beast_fmri_test/images/redT.png'></img>	go	2150.0	2.0	13.0	go	non-target	T	71,Index Finger	89,Middle Finger	500.0	600.0	2250.0	2150.0	0.0	600.0	n/a	0.0	go_stim
290900.34915955702	590.65084044301273	n/a	801	71	2750	590.650840443	stim	stop-signal	321	861399	0.0-15.13-1.13	beast_fmri_test	356	858776,/,859455,/,860136,/,860814,/,861495,/	t,t,t,t,t	<img class = center src='/static/experiments/beast_fmri_test/images/T.png'></img>	71,89	2750.0	test	<img class = center src='/static/experiments/beast_fmri_test/images/redT.png'></img>	go	2150.0	2.0	13.0	go	non-target	T	71,Index Finger	89,Middle Finger	500.0	600.0	2250.0	2150.0	0.0	600.0	n/a	0.0	ITI
292617	500	n/a	-1	-1	500	0.0	fixation	poldrack-single-stim	322	862525	0.0-15.14-0.14	beast_fmri_test	356	862175,/	t	<div class = centerbox2><div class = fixation>+</div></div>	none	500.0	test	n/a	n/a	n/a	n/a	n/a	n/a	n/a	n/a	n/a	n/a	n/a	n/a	n/a	n/a	n/a	n/a	n/a	n/a	fixation
292600.91055475094	600.0	n/a	-1	-1	2750	19.089445249	stim	stop-signal	323	865278	0.0-15.14-1.14	beast_fmri_test	356	862855,/,863534,/,864214,/,864893,/	t,t,t,t	<img class = center src='/static/experiments/beast_fmri_test/images/V.png'></img>	71,89	2750.0	test	<img class = center src='/static/experiments/beast_fmri_test/images/redV.png'></img>	stop	2150.0	2.0	14.0	stop	non-target	V	71,Index Finger	89,Middle Finger	500.0	600.0	2250.0	2150.0	0.0	600.0	1.0	n/a	go_stim
294750.91055475094	2150.0	n/a	-1	-1	2750	19.089445249	stim	stop-signal	323	865278	0.0-15.14-1.14	beast_fmri_test	356	862855,/,863534,/,864214,/,864893,/	t,t,t,t	<img class = center src='/static/experiments/beast_fmri_test/images/V.png'></img>	71,89	2750.0	test	<img class = center src='/static/experiments/beast_fmri_test/images/redV.png'></img>	stop	2150.0	2.0	14.0	stop	non-target	V	71,Index Finger	89,Middle Finger	500.0	600.0	2250.0	2150.0	0.0	600.0	1.0	n/a	stop_stim
295350.91055475094	19.089445249025914	n/a	-1	-1	2750	19.089445249	stim	stop-signal	323	865278	0.0-15.14-1.14	beast_fmri_test	356	862855,/,863534,/,864214,/,864893,/	t,t,t,t	<img class = center src='/static/experiments/beast_fmri_test/images/V.png'></img>	71,89	2750.0	test	<img class = center src='/static/experiments/beast_fmri_test/images/redV.png'></img>	stop	2150.0	2.0	14.0	stop	non-target	V	71,Index Finger	89,Middle Finger	500.0	600.0	2250.0	2150.0	0.0	600.0	1.0	n/a	ITI
295924	500	n/a	-1	-1	500	0.0	fixation	poldrack-single-stim	324	865832	0.0-15.15-0.15	beast_fmri_test	356	865572,/	t	<div class = centerbox2><div class = fixation>+</div></div>	none	500.0	test	n/a	n/a	n/a	n/a	n/a	n/a	n/a	n/a	n/a	n/a	n/a	n/a	n/a	n/a	n/a	n/a	n/a	n/a	fixation
295794.90898367297	500.0	n/a	756	71	2750	131.091016327	stim	stop-signal	325	868584	0.0-15.15-1.15	beast_fmri_test	356	866253,/,866932,/,867612,/,868292,/	t,t,t,t	<img class = center src='/static/experiments/beast_fmri_test/images/T.png'></img>	71,89	2750.0	test	<img class = center src='/static/experiments/beast_fmri_test/images/redT.png'></img>	stop	2250.0	2.0	15.0	stop	target	T	71,Index Finger	89,Middle Finger	500.0	650.0	2250.0	2150.0	0.0	500.0	0.0	n/a	go_stim
298044.90898367297	2250.0	n/a	756	71	2750	131.091016327	stim	stop-signal	325	868584	0.0-15.15-1.15	beast_fmri_test	356	866253,/,866932,/,867612,/,868292,/	t,t,t,t	<img class = center src='/static/experiments/beast_fmri_test/images/T.png'></img>	71,89	2750.0	test	<img class = center src='/static/experiments/beast_fmri_test/images/redT.png'></img>	stop	2250.0	2.0	15.0	stop	target	T	71,Index Finger	89,Middle Finger	500.0	650.0	2250.0	2150.0	0.0	500.0	0.0	n/a	stop_stim
298544.90898367297	131.0910163270176	n/a	756	71	2750	131.091016327	stim	stop-signal	325	868584	0.0-15.15-1.15	beast_fmri_test	356	866253,/,866932,/,867612,/,868292,/	t,t,t,t	<img class = center src='/static/experiments/beast_fmri_test/images/T.png'></img>	71,89	2750.0	test	<img class = center src='/static/experiments/beast_fmri_test/images/redT.png'></img>	stop	2250.0	2.0	15.0	stop	target	T	71,Index Finger	89,Middle Finger	500.0	650.0	2250.0	2150.0	0.0	500.0	0.0	n/a	ITI
299345	500	n/a	-1	-1	500	0.0	fixation	poldrack-single-stim	326	869253	0.0-15.16-0.16	beast_fmri_test	356	868971,/	t	<div class = centerbox2><div class = fixation>+</div></div>	none	500.0	test	n/a	n/a	n/a	n/a	n/a	n/a	n/a	n/a	n/a	n/a	n/a	n/a	n/a	n/a	n/a	n/a	n/a	n/a	fixation
296025.76997523033	2750	n/a	894	71	2750	3320.23002477	stim	stop-signal	327	872004	0.0-15.16-1.16	beast_fmri_test	356	869652,/,870329,/,871011,/,871691,/,872370,/,873049,/,873729,/,874409,/,875089,/	t,t,t,t,t,t,t,t,t	<img class = center src='/static/experiments/beast_fmri_test/images/V.png'></img>	71,89	2750.0	test	<img class = center src='/static/experiments/beast_fmri_test/images/redV.png'></img>	go	2300.0	2.0	16.0	go	target	V	71,Index Finger	89,Middle Finger	450.0	650.0	2300.0	2150.0	1.0	450.0	n/a	1.0	go_stim
298775.76997523033	3320.2300247696285	n/a	894	71	2750	3320.23002477	stim	stop-signal	327	872004	0.0-15.16-1.16	beast_fmri_test	356	869652,/,870329,/,871011,/,871691,/,872370,/,873049,/,873729,/,874409,/,875089,/	t,t,t,t,t,t,t,t,t	<img class = center src='/static/experiments/beast_fmri_test/images/V.png'></img>	71,89	2750.0	test	<img class = center src='/static/experiments/beast_fmri_test/images/redV.png'></img>	go	2300.0	2.0	16.0	go	target	V	71,Index Finger	89,Middle Finger	450.0	650.0	2300.0	2150.0	1.0	450.0	n/a	1.0	ITI
305951	500	n/a	-1	-1	500	0.0	fixation	poldrack-single-stim	328	875859	0.0-15.17-0.17	beast_fmri_test	356	875770,/	t	<div class = centerbox2><div class = fixation>+</div></div>	none	500.0	test	n/a	n/a	n/a	n/a	n/a	n/a	n/a	n/a	n/a	n/a	n/a	n/a	n/a	n/a	n/a	n/a	n/a	n/a	fixation
304214.6750404106	2750	n/a	818	89	2750	1737.32495959	stim	stop-signal	329	878610	0.0-15.17-1.17	beast_fmri_test	356	876448,/,877129,/,877806,/,878488,/,879168,/,879847,/	t,t,t,t,t,t	<img class = center src='/static/experiments/beast_fmri_test/images/P.png'></img>	71,89	2750.0	test	<img class = center src='/static/experiments/beast_fmri_test/images/redP.png'></img>	go	2100.0	2.0	17.0	go	non-target	P	71,Index Finger	89,Middle Finger	450.0	650.0	2300.0	2100.0	1.0	650.0	n/a	1.0	go_stim
306964.6750404106	1737.3249595893647	n/a	818	89	2750	1737.32495959	stim	stop-signal	329	878610	0.0-15.17-1.17	beast_fmri_test	356	876448,/,877129,/,877806,/,878488,/,879168,/,879847,/	t,t,t,t,t,t	<img class = center src='/static/experiments/beast_fmri_test/images/P.png'></img>	71,89	2750.0	test	<img class = center src='/static/experiments/beast_fmri_test/images/redP.png'></img>	go	2100.0	2.0	17.0	go	non-target	P	71,Index Finger	89,Middle Finger	450.0	650.0	2300.0	2100.0	1.0	650.0	n/a	1.0	ITI
310976	500	n/a	-1	-1	500	0.0	fixation	poldrack-single-stim	330	880884	0.0-15.18-0.18	beast_fmri_test	356	880526,/	t	<div class = centerbox2><div class = fixation>+</div></div>	none	500.0	test	n/a	n/a	n/a	n/a	n/a	n/a	n/a	n/a	n/a	n/a	n/a	n/a	n/a	n/a	n/a	n/a	n/a	n/a	fixation
310515.82636528066	2750	n/a	1422	89	2750	462.173634719	stim	stop-signal	331	883636	0.0-15.18-1.18	beast_fmri_test	356	881207,/,881886,/,882565,/,883245,/,883923,/	t,t,t,t,t	<img class = center src='/static/experiments/beast_fmri_test/images/D.png'></img>	71,89	2750.0	test	<img class = center src='/static/experiments/beast_fmri_test/images/redD.png'></img>	go	2100.0	2.0	18.0	go	non-target	D	71,Index Finger	89,Middle Finger	450.0	650.0	2300.0	2100.0	1.0	650.0	n/a	1.0	go_stim
313265.82636528066	462.17363471936477	n/a	1422	89	2750	462.173634719	stim	stop-signal	331	883636	0.0-15.18-1.18	beast_fmri_test	356	881207,/,881886,/,882565,/,883245,/,883923,/	t,t,t,t,t	<img class = center src='/static/experiments/beast_fmri_test/images/D.png'></img>	71,89	2750.0	test	<img class = center src='/static/experiments/beast_fmri_test/images/redD.png'></img>	go	2100.0	2.0	18.0	go	non-target	D	71,Index Finger	89,Middle Finger	450.0	650.0	2300.0	2100.0	1.0	650.0	n/a	1.0	ITI
314728	500	n/a	-1	-1	500	0.0	fixation	poldrack-single-stim	332	884636	0.0-15.19-0.19	beast_fmri_test	356	884603,/	t	<div class = centerbox2><div class = fixation>+</div></div>	none	500.0	test	n/a	n/a	n/a	n/a	n/a	n/a	n/a	n/a	n/a	n/a	n/a	n/a	n/a	n/a	n/a	n/a	n/a	n/a	fixation
314259.83179735672	2750	n/a	932	71	2750	470.168202643	stim	stop-signal	333	887388	0.0-15.19-1.19	beast_fmri_test	356	885284,/,885963,/,886643,/,887322,/	t,t,t,t	<img class = center src='/static/experiments/beast_fmri_test/images/V.png'></img>	71,89	2750.0	test	<img class = center src='/static/experiments/beast_fmri_test/images/redV.png'></img>	go	2100.0	2.0	19.0	go	non-target	V	71,Index Finger	89,Middle Finger	450.0	650.0	2300.0	2100.0	0.0	650.0	n/a	0.0	go_stim
317009.83179735672	470.16820264325139	n/a	932	71	2750	470.168202643	stim	stop-signal	333	887388	0.0-15.19-1.19	beast_fmri_test	356	885284,/,885963,/,886643,/,887322,/	t,t,t,t	<img class = center src='/static/experiments/beast_fmri_test/images/V.png'></img>	71,89	2750.0	test	<img class = center src='/static/experiments/beast_fmri_test/images/redV.png'></img>	go	2100.0	2.0	19.0	go	non-target	V	71,Index Finger	89,Middle Finger	450.0	650.0	2300.0	2100.0	0.0	650.0	n/a	0.0	ITI
318486	500	n/a	-1	-1	500	0.0	fixation	poldrack-single-stim	334	888394	0.0-15.20-0.20	beast_fmri_test	356	888001,/	t	<div class = centerbox2><div class = fixation>+</div></div>	none	500.0	test	n/a	n/a	n/a	n/a	n/a	n/a	n/a	n/a	n/a	n/a	n/a	n/a	n/a	n/a	n/a	n/a	n/a	n/a	fixation
318323.99244188308	2750	n/a	738	71	2750	163.007558117	stim	stop-signal	335	891145	0.0-15.20-1.20	beast_fmri_test	356	888682,/,889363,/,890042,/,890722,/	t,t,t,t	<img class = center src='/static/experiments/beast_fmri_test/images/D.png'></img>	71,89	2750.0	test	<img class = center src='/static/experiments/beast_fmri_test/images/redD.png'></img>	go	2300.0	2.0	20.0	go	target	D	71,Index Finger	89,Middle Finger	450.0	650.0	2300.0	2100.0	1.0	450.0	n/a	1.0	go_stim
321073.99244188308	163.00755811697678	n/a	738	71	2750	163.007558117	stim	stop-signal	335	891145	0.0-15.20-1.20	beast_fmri_test	356	888682,/,889363,/,890042,/,890722,/	t,t,t,t	<img class = center src='/static/experiments/beast_fmri_test/images/D.png'></img>	71,89	2750.0	test	<img class = center src='/static/experiments/beast_fmri_test/images/redD.png'></img>	go	2300.0	2.0	20.0	go	target	D	71,Index Finger	89,Middle Finger	450.0	650.0	2300.0	2100.0	1.0	450.0	n/a	1.0	ITI
321935	500	n/a	-1	-1	500	0.0	fixation	poldrack-single-stim	336	891843	0.0-15.21-0.21	beast_fmri_test	356	891401,/	t	<div class = centerbox2><div class = fixation>+</div></div>	none	500.0	test	n/a	n/a	n/a	n/a	n/a	n/a	n/a	n/a	n/a	n/a	n/a	n/a	n/a	n/a	n/a	n/a	n/a	n/a	fixation
320671.7749056234	650.0	n/a	1026	89	2750	1266.22509438	stim	stop-signal	337	894596	0.0-15.21-1.21	beast_fmri_test	356	892080,/,892760,/,893439,/,894120,/,894798,/,895480,/	t,t,t,t,t,t	<img class = center src='/static/experiments/beast_fmri_test/images/D.png'></img>	71,89	2750.0	test	<img class = center src='/static/experiments/beast_fmri_test/images/redD.png'></img>	stop	2100.0	2.0	21.0	stop	non-target	D	71,Index Finger	89,Middle Finger	450.0	650.0	2300.0	2100.0	0.0	650.0	0.0	n/a	go_stim
322771.7749056234	2100.0	n/a	1026	89	2750	1266.22509438	stim	stop-signal	337	894596	0.0-15.21-1.21	beast_fmri_test	356	892080,/,892760,/,893439,/,894120,/,894798,/,895480,/	t,t,t,t,t,t	<img class = center src='/static/experiments/beast_fmri_test/images/D.png'></img>	71,89	2750.0	test	<img class = center src='/static/experiments/beast_fmri_test/images/redD.png'></img>	stop	2100.0	2.0	21.0	stop	non-target	D	71,Index Finger	89,Middle Finger	450.0	650.0	2300.0	2100.0	0.0	650.0	0.0	n/a	stop_stim
323421.7749056234	1266.2250943765566	n/a	1026	89	2750	1266.22509438	stim	stop-signal	337	894596	0.0-15.21-1.21	beast_fmri_test	356	892080,/,892760,/,893439,/,894120,/,894798,/,895480,/	t,t,t,t,t,t	<img class = center src='/static/experiments/beast_fmri_test/images/D.png'></img>	71,89	2750.0	test	<img class = center src='/static/experiments/beast_fmri_test/images/redD.png'></img>	stop	2100.0	2.0	21.0	stop	non-target	D	71,Index Finger	89,Middle Finger	450.0	650.0	2300.0	2100.0	0.0	650.0	0.0	n/a	ITI
326491	500	n/a	-1	-1	500	0.0	fixation	poldrack-single-stim	338	896399	0.0-15.22-0.22	beast_fmri_test	356	896159,/	t	<div class = centerbox2><div class = fixation>+</div></div>	none	500.0	test	n/a	n/a	n/a	n/a	n/a	n/a	n/a	n/a	n/a	n/a	n/a	n/a	n/a	n/a	n/a	n/a	n/a	n/a	fixation
326396.73417896754	600.0	n/a	-1	-1	2750	95.2658210325	stim	stop-signal	339	899150	0.0-15.22-1.22	beast_fmri_test	356	896839,/,897518,/,898197,/,898878,/	t,t,t,t	<img class = center src='/static/experiments/beast_fmri_test/images/B.png'></img>	71,89	2750.0	test	<img class = center src='/static/experiments/beast_fmri_test/images/redB.png'></img>	stop	2150.0	2.0	22.0	stop	non-target	B	71,Index Finger	89,Middle Finger	450.0	600.0	2300.0	2150.0	0.0	600.0	1.0	n/a	go_stim
