onset	duration	text	rt	key_press	block_duration	timing_post_trial	trial_id	trial_type	trial_index	time_elapsed	internal_node_id	exp_id	subject_id	trigger_times	triggers	stimulus	possible_responses	stim_duration	exp_stage	SS_stimulus	SS_trial_type	SS_duration	load	trial_num	stop_trial_type	adaptive_trial_type	stim	yes_response_key	no_response_key	SSD_target	SSD_non_target	SSTarget	SSNonTarget	go_acc	SS_delay	stop_acc	adaptive_acc	new_trial_type
test	10880.0	n/a	-1	-1	10880	0.0	practice-no-stop-feedback	poldrack-single-stim	390	1096175	0.0-18.0	beast_fmri_test	356	1085298,/,1085972,/,1086651,/,1087332,/,1088011,/,1088691,/,1089371,/,1090050,/,1090729,/,1091409,/,1092089,/,1092769,/,1093448,/,1094130,/,1094808,/,1095488,/,1096167,/	t,t,t,t,t,t,t,t,t,t,t,t,t,t,t,t,t	"<div class = ""centerbox""><p class = ""block-text"">Your delay is 1 trials.</p><p class = block-text>Please wait for the scanner to start the block</p></div>"	77	10880.0	n/a	n/a	n/a	n/a	n/a	n/a	n/a	n/a	n/a	n/a	n/a	n/a	n/a	n/a	n/a	n/a	n/a	n/a	n/a	start_functional_block
11381	500.0	n/a	-1	-1	500	0.0	fixation	poldrack-single-stim	391	1096679	0.0-19.0-0.0	beast_fmri_test	356	n/a	n/a	<div class = centerbox2><div class = fixation>+</div></div>	none	500.0	test	n/a	n/a	n/a	n/a	n/a	n/a	n/a	n/a	n/a	n/a	n/a	n/a	n/a	n/a	n/a	n/a	n/a	n/a	fixation
11069.429765538312	2750.0	n/a	632	89	2750	313.570234462	stim	stop-signal	392	1099431	0.0-19.0-1.0	beast_fmri_test	356	1096847,/,1097528,/,1098207,/,1098887,/,1099565,/	t,t,t,t,t	<img class = center src='/static/experiments/beast_fmri_test/images/P.png'></img>	71,89	2750.0	test	<img class = center src='/static/experiments/beast_fmri_test/images/redP.png'></img>	go	-1.0	1.0	0.0	go	temp-non-target	P	71,Index Finger	89,Middle Finger	500.0	600.0	2250.0	2150.0	0.0	n/a	n/a	n/a	go_stim
13819.429765538312	313.570234462	n/a	632	89	2750	313.570234462	stim	stop-signal	392	1099431	0.0-19.0-1.0	beast_fmri_test	356	1096847,/,1097528,/,1098207,/,1098887,/,1099565,/	t,t,t,t,t	<img class = center src='/static/experiments/beast_fmri_test/images/P.png'></img>	71,89	2750.0	test	<img class = center src='/static/experiments/beast_fmri_test/images/redP.png'></img>	go	-1.0	1.0	0.0	go	temp-non-target	P	71,Index Finger	89,Middle Finger	500.0	600.0	2250.0	2150.0	0.0	n/a	n/a	n/a	ITI
14995	500.0	n/a	-1	-1	500	0.0	fixation	poldrack-single-stim	393	1100293	0.0-19.1-0.1	beast_fmri_test	356	1100245,/	t	<div class = centerbox2><div class = fixation>+</div></div>	none	500.0	test	n/a	n/a	n/a	n/a	n/a	n/a	n/a	n/a	n/a	n/a	n/a	n/a	n/a	n/a	n/a	n/a	n/a	n/a	fixation
13175.838352958672	600.0	n/a	589	89	2750	1821.16164704	stim	stop-signal	394	1103045	0.0-19.1-1.1	beast_fmri_test	356	1100924,/,1101606,/,1102286,/,1102965,/,1103644,/,1104324,/	t,t,t,t,t,t	<img class = center src='/static/experiments/beast_fmri_test/images/T.png'></img>	71,89	2750.0	test	<img class = center src='/static/experiments/beast_fmri_test/images/redT.png'></img>	stop	2150.0	1.0	1.0	stop	non-target	T	71,Index Finger	89,Middle Finger	500.0	600.0	2250.0	2150.0	0.0	600.0	0.0	n/a	go_stim
15325.838352958672	2150.0	n/a	589	89	2750	1821.16164704	stim	stop-signal	394	1103045	0.0-19.1-1.1	beast_fmri_test	356	1100924,/,1101606,/,1102286,/,1102965,/,1103644,/,1104324,/	t,t,t,t,t,t	<img class = center src='/static/experiments/beast_fmri_test/images/T.png'></img>	71,89	2750.0	test	<img class = center src='/static/experiments/beast_fmri_test/images/redT.png'></img>	stop	2150.0	1.0	1.0	stop	non-target	T	71,Index Finger	89,Middle Finger	500.0	600.0	2250.0	2150.0	0.0	600.0	0.0	n/a	stop_stim
15925.838352958672	1821.16164704	n/a	589	89	2750	1821.16164704	stim	stop-signal	394	1103045	0.0-19.1-1.1	beast_fmri_test	356	1100924,/,1101606,/,1102286,/,1102965,/,1103644,/,1104324,/	t,t,t,t,t,t	<img class = center src='/static/experiments/beast_fmri_test/images/T.png'></img>	71,89	2750.0	test	<img class = center src='/static/experiments/beast_fmri_test/images/redT.png'></img>	stop	2150.0	1.0	1.0	stop	non-target	T	71,Index Finger	89,Middle Finger	500.0	600.0	2250.0	2150.0	0.0	600.0	0.0	n/a	ITI
20114	500.0	n/a	-1	-1	500	0.0	fixation	poldrack-single-stim	395	1105412	0.0-19.2-0.2	beast_fmri_test	356	1105004,/	t	<div class = centerbox2><div class = fixation>+</div></div>	none	500.0	test	n/a	n/a	n/a	n/a	n/a	n/a	n/a	n/a	n/a	n/a	n/a	n/a	n/a	n/a	n/a	n/a	n/a	n/a	fixation
17850.380310220178	2750.0	n/a	434	71	2750	2264.61968978	stim	stop-signal	396	1108163	0.0-19.2-1.2	beast_fmri_test	356	1105684,/,1106364,/,1107044,/,1107723,/,1108403,/,1109081,/,1109761,/	t,t,t,t,t,t,t	<img class = center src='/static/experiments/beast_fmri_test/images/T.png'></img>	71,89	2750.0	test	<img class = center src='/static/experiments/beast_fmri_test/images/redT.png'></img>	go	2250.0	1.0	2.0	go	target	T	71,Index Finger	89,Middle Finger	500.0	550.0	2250.0	2150.0	1.0	500.0	n/a	1.0	go_stim
20600.380310220178	2264.61968978	n/a	434	71	2750	2264.61968978	stim	stop-signal	396	1108163	0.0-19.2-1.2	beast_fmri_test	356	1105684,/,1106364,/,1107044,/,1107723,/,1108403,/,1109081,/,1109761,/	t,t,t,t,t,t,t	<img class = center src='/static/experiments/beast_fmri_test/images/T.png'></img>	71,89	2750.0	test	<img class = center src='/static/experiments/beast_fmri_test/images/redT.png'></img>	go	2250.0	1.0	2.0	go	target	T	71,Index Finger	89,Middle Finger	500.0	550.0	2250.0	2150.0	1.0	500.0	n/a	1.0	ITI
25675	500.0	n/a	-1	-1	500	0.0	fixation	poldrack-single-stim	397	1110973	0.0-19.3-0.3	beast_fmri_test	356	1110471,/	t	<div class = centerbox2><div class = fixation>+</div></div>	none	500.0	test	n/a	n/a	n/a	n/a	n/a	n/a	n/a	n/a	n/a	n/a	n/a	n/a	n/a	n/a	n/a	n/a	n/a	n/a	fixation
24049.878485177411	550.0	n/a	717	89	2750	1628.12151482	stim	stop-signal	398	1113726	0.0-19.3-1.3	beast_fmri_test	356	1111121,/,1111801,/,1112479,/,1113160,/,1113839,/,1114519,/,1115199,/	t,t,t,t,t,t,t	<img class = center src='/static/experiments/beast_fmri_test/images/B.png'></img>	71,89	2750.0	test	<img class = center src='/static/experiments/beast_fmri_test/images/redB.png'></img>	stop	2200.0	1.0	3.0	stop	non-target	B	71,Index Finger	89,Middle Finger	500.0	550.0	2250.0	2200.0	0.0	550.0	0.0	n/a	go_stim
26249.878485177411	2200.0	n/a	717	89	2750	1628.12151482	stim	stop-signal	398	1113726	0.0-19.3-1.3	beast_fmri_test	356	1111121,/,1111801,/,1112479,/,1113160,/,1113839,/,1114519,/,1115199,/	t,t,t,t,t,t,t	<img class = center src='/static/experiments/beast_fmri_test/images/B.png'></img>	71,89	2750.0	test	<img class = center src='/static/experiments/beast_fmri_test/images/redB.png'></img>	stop	2200.0	1.0	3.0	stop	non-target	B	71,Index Finger	89,Middle Finger	500.0	550.0	2250.0	2200.0	0.0	550.0	0.0	n/a	stop_stim
26799.878485177411	1628.12151482	n/a	717	89	2750	1628.12151482	stim	stop-signal	398	1113726	0.0-19.3-1.3	beast_fmri_test	356	1111121,/,1111801,/,1112479,/,1113160,/,1113839,/,1114519,/,1115199,/	t,t,t,t,t,t,t	<img class = center src='/static/experiments/beast_fmri_test/images/B.png'></img>	71,89	2750.0	test	<img class = center src='/static/experiments/beast_fmri_test/images/redB.png'></img>	stop	2200.0	1.0	3.0	stop	non-target	B	71,Index Finger	89,Middle Finger	500.0	550.0	2250.0	2200.0	0.0	550.0	0.0	n/a	ITI
30604	500.0	n/a	-1	-1	500	0.0	fixation	poldrack-single-stim	399	1115902	0.0-19.4-0.4	beast_fmri_test	356	1115879,/	t	<div class = centerbox2><div class = fixation>+</div></div>	none	500.0	test	n/a	n/a	n/a	n/a	n/a	n/a	n/a	n/a	n/a	n/a	n/a	n/a	n/a	n/a	n/a	n/a	n/a	n/a	fixation
30031.292312343605	2750.0	n/a	593	89	2750	573.707687656	stim	stop-signal	400	1118653	0.0-19.4-1.4	beast_fmri_test	356	1116558,/,1117238,/,1117918,/,1118598,/	t,t,t,t	<img class = center src='/static/experiments/beast_fmri_test/images/D.png'></img>	71,89	2750.0	test	<img class = center src='/static/experiments/beast_fmri_test/images/redD.png'></img>	go	2250.0	1.0	4.0	go	non-target	D	71,Index Finger	89,Middle Finger	500.0	500.0	2250.0	2250.0	1.0	500.0	n/a	1.0	go_stim
32781.292312343605	573.707687656	n/a	593	89	2750	573.707687656	stim	stop-signal	400	1118653	0.0-19.4-1.4	beast_fmri_test	356	1116558,/,1117238,/,1117918,/,1118598,/	t,t,t,t	<img class = center src='/static/experiments/beast_fmri_test/images/D.png'></img>	71,89	2750.0	test	<img class = center src='/static/experiments/beast_fmri_test/images/redD.png'></img>	go	2250.0	1.0	4.0	go	non-target	D	71,Index Finger	89,Middle Finger	500.0	500.0	2250.0	2250.0	1.0	500.0	n/a	1.0	ITI
34475	500.0	n/a	-1	-1	500	0.0	fixation	poldrack-single-stim	401	1119773	0.0-19.5-0.5	beast_fmri_test	356	1119277,/	t	<div class = centerbox2><div class = fixation>+</div></div>	none	500.0	test	n/a	n/a	n/a	n/a	n/a	n/a	n/a	n/a	n/a	n/a	n/a	n/a	n/a	n/a	n/a	n/a	n/a	n/a	fixation
31524.324758910341	500.0	n/a	-1	-1	2750	2952.67524109	stim	stop-signal	402	1122525	0.0-19.5-1.5	beast_fmri_test	356	1119958,/,1120638,/,1121317,/,1121997,/,1122675,/,1123356,/,1124035,/,1124715,/,1125396,/	t,t,t,t,t,t,t,t,t	<img class = center src='/static/experiments/beast_fmri_test/images/B.png'></img>	71,89	2750.0	test	<img class = center src='/static/experiments/beast_fmri_test/images/redB.png'></img>	stop	2250.0	1.0	5.0	stop	non-target	B	71,Index Finger	89,Middle Finger	500.0	500.0	2250.0	2250.0	0.0	500.0	1.0	n/a	go_stim
33774.324758910341	2250.0	n/a	-1	-1	2750	2952.67524109	stim	stop-signal	402	1122525	0.0-19.5-1.5	beast_fmri_test	356	1119958,/,1120638,/,1121317,/,1121997,/,1122675,/,1123356,/,1124035,/,1124715,/,1125396,/	t,t,t,t,t,t,t,t,t	<img class = center src='/static/experiments/beast_fmri_test/images/B.png'></img>	71,89	2750.0	test	<img class = center src='/static/experiments/beast_fmri_test/images/redB.png'></img>	stop	2250.0	1.0	5.0	stop	non-target	B	71,Index Finger	89,Middle Finger	500.0	500.0	2250.0	2250.0	0.0	500.0	1.0	n/a	stop_stim
34274.324758910341	2952.67524109	n/a	-1	-1	2750	2952.67524109	stim	stop-signal	402	1122525	0.0-19.5-1.5	beast_fmri_test	356	1119958,/,1120638,/,1121317,/,1121997,/,1122675,/,1123356,/,1124035,/,1124715,/,1125396,/	t,t,t,t,t,t,t,t,t	<img class = center src='/static/experiments/beast_fmri_test/images/B.png'></img>	71,89	2750.0	test	<img class = center src='/static/experiments/beast_fmri_test/images/redB.png'></img>	stop	2250.0	1.0	5.0	stop	non-target	B	71,Index Finger	89,Middle Finger	500.0	500.0	2250.0	2250.0	0.0	500.0	1.0	n/a	ITI
40731	500.0	n/a	-1	-1	500	0.0	fixation	poldrack-single-stim	403	1126029	0.0-19.6-0.6	beast_fmri_test	356	n/a	n/a	<div class = centerbox2><div class = fixation>+</div></div>	none	500.0	test	n/a	n/a	n/a	n/a	n/a	n/a	n/a	n/a	n/a	n/a	n/a	n/a	n/a	n/a	n/a	n/a	n/a	n/a	fixation
39611.118966182228	2750.0	n/a	752	89	2750	1122.88103382	stim	stop-signal	404	1128782	0.0-19.6-1.6	beast_fmri_test	356	1126075,/,1126755,/,1127433,/,1128112,/,1128792,/,1129471,/	t,t,t,t,t,t	<img class = center src='/static/experiments/beast_fmri_test/images/V.png'></img>	71,89	2750.0	test	<img class = center src='/static/experiments/beast_fmri_test/images/redV.png'></img>	go	2200.0	1.0	6.0	go	non-target	V	71,Index Finger	89,Middle Finger	500.0	550.0	2250.0	2200.0	1.0	550.0	n/a	1.0	go_stim
42361.118966182228	1122.88103382	n/a	752	89	2750	1122.88103382	stim	stop-signal	404	1128782	0.0-19.6-1.6	beast_fmri_test	356	1126075,/,1126755,/,1127433,/,1128112,/,1128792,/,1129471,/	t,t,t,t,t,t	<img class = center src='/static/experiments/beast_fmri_test/images/V.png'></img>	71,89	2750.0	test	<img class = center src='/static/experiments/beast_fmri_test/images/redV.png'></img>	go	2200.0	1.0	6.0	go	non-target	V	71,Index Finger	89,Middle Finger	500.0	550.0	2250.0	2200.0	1.0	550.0	n/a	1.0	ITI
45150	500.0	n/a	-1	-1	500	0.0	fixation	poldrack-single-stim	405	1130448	0.0-19.7-0.7	beast_fmri_test	356	1130153,/	t	<div class = centerbox2><div class = fixation>+</div></div>	none	500.0	test	n/a	n/a	n/a	n/a	n/a	n/a	n/a	n/a	n/a	n/a	n/a	n/a	n/a	n/a	n/a	n/a	n/a	n/a	fixation
44651.532023018925	550.0	n/a	705	89	2750	502.467976981	stim	stop-signal	406	1133202	0.0-19.7-1.7	beast_fmri_test	356	1130832,/,1131512,/,1132191,/,1132871,/,1133550,/	t,t,t,t,t	<img class = center src='/static/experiments/beast_fmri_test/images/T.png'></img>	71,89	2750.0	test	<img class = center src='/static/experiments/beast_fmri_test/images/redT.png'></img>	stop	2200.0	1.0	7.0	stop	non-target	T	71,Index Finger	89,Middle Finger	500.0	550.0	2250.0	2200.0	0.0	550.0	0.0	n/a	go_stim
46851.532023018925	2200.0	n/a	705	89	2750	502.467976981	stim	stop-signal	406	1133202	0.0-19.7-1.7	beast_fmri_test	356	1130832,/,1131512,/,1132191,/,1132871,/,1133550,/	t,t,t,t,t	<img class = center src='/static/experiments/beast_fmri_test/images/T.png'></img>	71,89	2750.0	test	<img class = center src='/static/experiments/beast_fmri_test/images/redT.png'></img>	stop	2200.0	1.0	7.0	stop	non-target	T	71,Index Finger	89,Middle Finger	500.0	550.0	2250.0	2200.0	0.0	550.0	0.0	n/a	stop_stim
47401.532023018925	502.467976981	n/a	705	89	2750	502.467976981	stim	stop-signal	406	1133202	0.0-19.7-1.7	beast_fmri_test	356	1130832,/,1131512,/,1132191,/,1132871,/,1133550,/	t,t,t,t,t	<img class = center src='/static/experiments/beast_fmri_test/images/T.png'></img>	71,89	2750.0	test	<img class = center src='/static/experiments/beast_fmri_test/images/redT.png'></img>	stop	2200.0	1.0	7.0	stop	non-target	T	71,Index Finger	89,Middle Finger	500.0	550.0	2250.0	2200.0	0.0	550.0	0.0	n/a	ITI
48951	500.0	n/a	-1	-1	500	0.0	fixation	poldrack-single-stim	407	1134249	0.0-19.8-0.8	beast_fmri_test	356	1134232,/	t	<div class = centerbox2><div class = fixation>+</div></div>	none	500.0	test	n/a	n/a	n/a	n/a	n/a	n/a	n/a	n/a	n/a	n/a	n/a	n/a	n/a	n/a	n/a	n/a	n/a	n/a	fixation
48773.38594438415	500.0	n/a	-1	-1	2750	178.614055616	stim	stop-signal	408	1137000	0.0-19.8-1.8	beast_fmri_test	356	1134911,/,1135590,/,1136270,/,1136949,/	t,t,t,t	<img class = center src='/static/experiments/beast_fmri_test/images/T.png'></img>	71,89	2750.0	test	<img class = center src='/static/experiments/beast_fmri_test/images/redT.png'></img>	stop	2250.0	1.0	8.0	stop	target	T	71,Index Finger	89,Middle Finger	500.0	500.0	2250.0	2200.0	0.0	500.0	1.0	n/a	go_stim
51023.38594438415	2250.0	n/a	-1	-1	2750	178.614055616	stim	stop-signal	408	1137000	0.0-19.8-1.8	beast_fmri_test	356	1134911,/,1135590,/,1136270,/,1136949,/	t,t,t,t	<img class = center src='/static/experiments/beast_fmri_test/images/T.png'></img>	71,89	2750.0	test	<img class = center src='/static/experiments/beast_fmri_test/images/redT.png'></img>	stop	2250.0	1.0	8.0	stop	target	T	71,Index Finger	89,Middle Finger	500.0	500.0	2250.0	2200.0	0.0	500.0	1.0	n/a	stop_stim
51523.38594438415	178.614055616	n/a	-1	-1	2750	178.614055616	stim	stop-signal	408	1137000	0.0-19.8-1.8	beast_fmri_test	356	1134911,/,1135590,/,1136270,/,1136949,/	t,t,t,t	<img class = center src='/static/experiments/beast_fmri_test/images/T.png'></img>	71,89	2750.0	test	<img class = center src='/static/experiments/beast_fmri_test/images/redT.png'></img>	stop	2250.0	1.0	8.0	stop	target	T	71,Index Finger	89,Middle Finger	500.0	500.0	2250.0	2200.0	0.0	500.0	1.0	n/a	ITI
52428	500.0	n/a	-1	-1	500	0.0	fixation	poldrack-single-stim	409	1137726	0.0-19.9-0.9	beast_fmri_test	356	1137628,/	t	<div class = centerbox2><div class = fixation>+</div></div>	none	500.0	test	n/a	n/a	n/a	n/a	n/a	n/a	n/a	n/a	n/a	n/a	n/a	n/a	n/a	n/a	n/a	n/a	n/a	n/a	fixation
52375.570389658678	2750.0	n/a	798	89	2750	54.4296103412	stim	stop-signal	410	1140478	0.0-19.9-1.9	beast_fmri_test	356	1138308,/,1138989,/,1139668,/,1140348,/	t,t,t,t	<img class = center src='/static/experiments/beast_fmri_test/images/B.png'></img>	71,89	2750.0	test	<img class = center src='/static/experiments/beast_fmri_test/images/redB.png'></img>	go	2250.0	1.0	9.0	go	non-target	B	71,Index Finger	89,Middle Finger	550.0	500.0	2250.0	2250.0	1.0	500.0	n/a	1.0	go_stim
55125.570389658678	54.4296103412	n/a	798	89	2750	54.4296103412	stim	stop-signal	410	1140478	0.0-19.9-1.9	beast_fmri_test	356	1138308,/,1138989,/,1139668,/,1140348,/	t,t,t,t	<img class = center src='/static/experiments/beast_fmri_test/images/B.png'></img>	71,89	2750.0	test	<img class = center src='/static/experiments/beast_fmri_test/images/redB.png'></img>	go	2250.0	1.0	9.0	go	non-target	B	71,Index Finger	89,Middle Finger	550.0	500.0	2250.0	2250.0	1.0	500.0	n/a	1.0	ITI
55782	500.0	n/a	-1	-1	500	0.0	fixation	poldrack-single-stim	411	1141080	0.0-19.10-0.10	beast_fmri_test	356	1141027,/	t	<div class = centerbox2><div class = fixation>+</div></div>	none	500.0	test	n/a	n/a	n/a	n/a	n/a	n/a	n/a	n/a	n/a	n/a	n/a	n/a	n/a	n/a	n/a	n/a	n/a	n/a	fixation
54581.990742069669	500.0	n/a	-1	-1	2750	1201.00925793	stim	stop-signal	412	1143831	0.0-19.10-1.10	beast_fmri_test	356	1141707,/,1142385,/,1143066,/,1143746,/,1144425,/	t,t,t,t,t	<img class = center src='/static/experiments/beast_fmri_test/images/V.png'></img>	71,89	2750.0	test	<img class = center src='/static/experiments/beast_fmri_test/images/redV.png'></img>	stop	2250.0	1.0	10.0	stop	non-target	V	71,Index Finger	89,Middle Finger	550.0	500.0	2250.0	2250.0	0.0	500.0	1.0	n/a	go_stim
56831.990742069669	2250.0	n/a	-1	-1	2750	1201.00925793	stim	stop-signal	412	1143831	0.0-19.10-1.10	beast_fmri_test	356	1141707,/,1142385,/,1143066,/,1143746,/,1144425,/	t,t,t,t,t	<img class = center src='/static/experiments/beast_fmri_test/images/V.png'></img>	71,89	2750.0	test	<img class = center src='/static/experiments/beast_fmri_test/images/redV.png'></img>	stop	2250.0	1.0	10.0	stop	non-target	V	71,Index Finger	89,Middle Finger	550.0	500.0	2250.0	2250.0	0.0	500.0	1.0	n/a	stop_stim
57331.990742069669	1201.00925793	n/a	-1	-1	2750	1201.00925793	stim	stop-signal	412	1143831	0.0-19.10-1.10	beast_fmri_test	356	1141707,/,1142385,/,1143066,/,1143746,/,1144425,/	t,t,t,t,t	<img class = center src='/static/experiments/beast_fmri_test/images/V.png'></img>	71,89	2750.0	test	<img class = center src='/static/experiments/beast_fmri_test/images/redV.png'></img>	stop	2250.0	1.0	10.0	stop	non-target	V	71,Index Finger	89,Middle Finger	550.0	500.0	2250.0	2250.0	0.0	500.0	1.0	n/a	ITI
60279	500.0	n/a	-1	-1	500	0.0	fixation	poldrack-single-stim	413	1145577	0.0-19.11-0.11	beast_fmri_test	356	1145104,/	t	<div class = centerbox2><div class = fixation>+</div></div>	none	500.0	test	n/a	n/a	n/a	n/a	n/a	n/a	n/a	n/a	n/a	n/a	n/a	n/a	n/a	n/a	n/a	n/a	n/a	n/a	fixation
59895.55118608661	550.0	n/a	675	89	2750	386.448813913	stim	stop-signal	414	1148330	0.0-19.11-1.11	beast_fmri_test	356	1145785,/,1146464,/,1147145,/,1147825,/,1148504,/	t,t,t,t,t	<img class = center src='/static/experiments/beast_fmri_test/images/D.png'></img>	71,89	2750.0	test	<img class = center src='/static/experiments/beast_fmri_test/images/redD.png'></img>	stop	2200.0	1.0	11.0	stop	non-target	D	71,Index Finger	89,Middle Finger	550.0	550.0	2250.0	2200.0	0.0	550.0	0.0	n/a	go_stim
62095.55118608661	2200.0	n/a	675	89	2750	386.448813913	stim	stop-signal	414	1148330	0.0-19.11-1.11	beast_fmri_test	356	1145785,/,1146464,/,1147145,/,1147825,/,1148504,/	t,t,t,t,t	<img class = center src='/static/experiments/beast_fmri_test/images/D.png'></img>	71,89	2750.0	test	<img class = center src='/static/experiments/beast_fmri_test/images/redD.png'></img>	stop	2200.0	1.0	11.0	stop	non-target	D	71,Index Finger	89,Middle Finger	550.0	550.0	2250.0	2200.0	0.0	550.0	0.0	n/a	stop_stim
62645.55118608661	386.448813913	n/a	675	89	2750	386.448813913	stim	stop-signal	414	1148330	0.0-19.11-1.11	beast_fmri_test	356	1145785,/,1146464,/,1147145,/,1147825,/,1148504,/	t,t,t,t,t	<img class = center src='/static/experiments/beast_fmri_test/images/D.png'></img>	71,89	2750.0	test	<img class = center src='/static/experiments/beast_fmri_test/images/redD.png'></img>	stop	2200.0	1.0	11.0	stop	non-target	D	71,Index Finger	89,Middle Finger	550.0	550.0	2250.0	2200.0	0.0	550.0	0.0	n/a	ITI
63968	500.0	n/a	-1	-1	500	0.0	fixation	poldrack-single-stim	415	1149266	0.0-19.12-0.12	beast_fmri_test	356	1149185,/	t	<div class = centerbox2><div class = fixation>+</div></div>	none	500.0	test	n/a	n/a	n/a	n/a	n/a	n/a	n/a	n/a	n/a	n/a	n/a	n/a	n/a	n/a	n/a	n/a	n/a	n/a	fixation
63532.052710029995	2750.0	n/a	1288	71	2750	436.94728997	stim	stop-signal	416	1152017	0.0-19.12-1.12	beast_fmri_test	356	1149864,/,1150544,/,1151222,/,1151902,/	t,t,t,t	<img class = center src='/static/experiments/beast_fmri_test/images/D.png'></img>	71,89	2750.0	test	<img class = center src='/static/experiments/beast_fmri_test/images/redD.png'></img>	go	2200.0	1.0	12.0	go	target	D	71,Index Finger	89,Middle Finger	550.0	500.0	2200.0	2200.0	1.0	550.0	n/a	1.0	go_stim
66282.052710029995	436.94728997	n/a	1288	71	2750	436.94728997	stim	stop-signal	416	1152017	0.0-19.12-1.12	beast_fmri_test	356	1149864,/,1150544,/,1151222,/,1151902,/	t,t,t,t	<img class = center src='/static/experiments/beast_fmri_test/images/D.png'></img>	71,89	2750.0	test	<img class = center src='/static/experiments/beast_fmri_test/images/redD.png'></img>	go	2200.0	1.0	12.0	go	target	D	71,Index Finger	89,Middle Finger	550.0	500.0	2200.0	2200.0	1.0	550.0	n/a	1.0	ITI
67704	500.0	n/a	-1	-1	500	0.0	fixation	poldrack-single-stim	417	1153002	0.0-19.13-0.13	beast_fmri_test	356	1152583,/	t	<div class = centerbox2><div class = fixation>+</div></div>	none	500.0	test	n/a	n/a	n/a	n/a	n/a	n/a	n/a	n/a	n/a	n/a	n/a	n/a	n/a	n/a	n/a	n/a	n/a	n/a	fixation
67601.813018263318	500.0	n/a	-1	-1	2750	104.186981737	stim	stop-signal	418	1155754	0.0-19.13-1.13	beast_fmri_test	356	1153263,/,1153942,/,1154621,/,1155301,/	t,t,t,t	<img class = center src='/static/experiments/beast_fmri_test/images/P.png'></img>	71,89	2750.0	test	<img class = center src='/static/experiments/beast_fmri_test/images/redP.png'></img>	stop	2250.0	1.0	13.0	stop	non-target	P	71,Index Finger	89,Middle Finger	550.0	500.0	2200.0	2250.0	0.0	500.0	1.0	n/a	go_stim
69851.813018263318	2250.0	n/a	-1	-1	2750	104.186981737	stim	stop-signal	418	1155754	0.0-19.13-1.13	beast_fmri_test	356	1153263,/,1153942,/,1154621,/,1155301,/	t,t,t,t	<img class = center src='/static/experiments/beast_fmri_test/images/P.png'></img>	71,89	2750.0	test	<img class = center src='/static/experiments/beast_fmri_test/images/redP.png'></img>	stop	2250.0	1.0	13.0	stop	non-target	P	71,Index Finger	89,Middle Finger	550.0	500.0	2200.0	2250.0	0.0	500.0	1.0	n/a	stop_stim
70351.813018263318	104.186981737	n/a	-1	-1	2750	104.186981737	stim	stop-signal	418	1155754	0.0-19.13-1.13	beast_fmri_test	356	1153263,/,1153942,/,1154621,/,1155301,/	t,t,t,t	<img class = center src='/static/experiments/beast_fmri_test/images/P.png'></img>	71,89	2750.0	test	<img class = center src='/static/experiments/beast_fmri_test/images/redP.png'></img>	stop	2250.0	1.0	13.0	stop	non-target	P	71,Index Finger	89,Middle Finger	550.0	500.0	2200.0	2250.0	0.0	500.0	1.0	n/a	ITI
71109	500.0	n/a	-1	-1	500	0.0	fixation	poldrack-single-stim	419	1156407	0.0-19.14-0.14	beast_fmri_test	356	1155980,/	t	<div class = centerbox2><div class = fixation>+</div></div>	none	500.0	test	n/a	n/a	n/a	n/a	n/a	n/a	n/a	n/a	n/a	n/a	n/a	n/a	n/a	n/a	n/a	n/a	n/a	n/a	fixation
66459.591237535467	2750.0	n/a	643	71	2750	4651.40876246	stim	stop-signal	420	1159159	0.0-19.14-1.14	beast_fmri_test	356	1156661,/,1157341,/,1158020,/,1158699,/,1159379,/,1160059,/,1160737,/,1161417,/,1162097,/,1162777,/,1163457,/	t,t,t,t,t,t,t,t,t,t,t	<img class = center src='/static/experiments/beast_fmri_test/images/P.png'></img>	71,89	2750.0	test	<img class = center src='/static/experiments/beast_fmri_test/images/redP.png'></img>	go	2200.0	1.0	14.0	go	target	P	71,Index Finger	89,Middle Finger	550.0	550.0	2200.0	2250.0	1.0	550.0	n/a	1.0	go_stim
69209.591237535467	4651.40876246	n/a	643	71	2750	4651.40876246	stim	stop-signal	420	1159159	0.0-19.14-1.14	beast_fmri_test	356	1156661,/,1157341,/,1158020,/,1158699,/,1159379,/,1160059,/,1160737,/,1161417,/,1162097,/,1162777,/,1163457,/	t,t,t,t,t,t,t,t,t,t,t	<img class = center src='/static/experiments/beast_fmri_test/images/P.png'></img>	71,89	2750.0	test	<img class = center src='/static/experiments/beast_fmri_test/images/redP.png'></img>	go	2200.0	1.0	14.0	go	target	P	71,Index Finger	89,Middle Finger	550.0	550.0	2200.0	2250.0	1.0	550.0	n/a	1.0	ITI
79057	500.0	n/a	-1	-1	500	0.0	fixation	poldrack-single-stim	421	1164355	0.0-19.15-0.15	beast_fmri_test	356	1164138,/	t	<div class = centerbox2><div class = fixation>+</div></div>	none	500.0	test	n/a	n/a	n/a	n/a	n/a	n/a	n/a	n/a	n/a	n/a	n/a	n/a	n/a	n/a	n/a	n/a	n/a	n/a	fixation
77426.235587741481	2750.0	n/a	1102	71	2750	1632.76441226	stim	stop-signal	422	1167107	0.0-19.15-1.15	beast_fmri_test	356	1164817,/,1165495,/,1166176,/,1166854,/,1167535,/,1168216,/	t,t,t,t,t,t	<img class = center src='/static/experiments/beast_fmri_test/images/P.png'></img>	71,89	2750.0	test	<img class = center src='/static/experiments/beast_fmri_test/images/redP.png'></img>	go	2200.0	1.0	15.0	go	target	P	71,Index Finger	89,Middle Finger	550.0	550.0	2200.0	2250.0	1.0	550.0	n/a	1.0	go_stim
80176.235587741481	1632.76441226	n/a	1102	71	2750	1632.76441226	stim	stop-signal	422	1167107	0.0-19.15-1.15	beast_fmri_test	356	1164817,/,1165495,/,1166176,/,1166854,/,1167535,/,1168216,/	t,t,t,t,t,t	<img class = center src='/static/experiments/beast_fmri_test/images/P.png'></img>	71,89	2750.0	test	<img class = center src='/static/experiments/beast_fmri_test/images/redP.png'></img>	go	2200.0	1.0	15.0	go	target	P	71,Index Finger	89,Middle Finger	550.0	550.0	2200.0	2250.0	1.0	550.0	n/a	1.0	ITI
83985	500.0	n/a	-1	-1	500	0.0	fixation	poldrack-single-stim	423	1169283	0.0-19.16-0.16	beast_fmri_test	356	1168895,/	t	<div class = centerbox2><div class = fixation>+</div></div>	none	500.0	test	n/a	n/a	n/a	n/a	n/a	n/a	n/a	n/a	n/a	n/a	n/a	n/a	n/a	n/a	n/a	n/a	n/a	n/a	fixation
79995.68821864645	2750.0	n/a	729	89	2750	3991.31178135	stim	stop-signal	424	1172035	0.0-19.16-1.16	beast_fmri_test	356	1169574,/,1170254,/,1170933,/,1171614,/,1172293,/,1172973,/,1173653,/,1174333,/,1175012,/,1175693,/	t,t,t,t,t,t,t,t,t,t	<img class = center src='/static/experiments/beast_fmri_test/images/B.png'></img>	71,89	2750.0	test	<img class = center src='/static/experiments/beast_fmri_test/images/redB.png'></img>	go	2200.0	1.0	16.0	go	non-target	B	71,Index Finger	89,Middle Finger	550.0	550.0	2200.0	2200.0	1.0	550.0	n/a	1.0	go_stim
82745.68821864645	3991.31178135	n/a	729	89	2750	3991.31178135	stim	stop-signal	424	1172035	0.0-19.16-1.16	beast_fmri_test	356	1169574,/,1170254,/,1170933,/,1171614,/,1172293,/,1172973,/,1173653,/,1174333,/,1175012,/,1175693,/	t,t,t,t,t,t,t,t,t,t	<img class = center src='/static/experiments/beast_fmri_test/images/B.png'></img>	71,89	2750.0	test	<img class = center src='/static/experiments/beast_fmri_test/images/redB.png'></img>	go	2200.0	1.0	16.0	go	non-target	B	71,Index Finger	89,Middle Finger	550.0	550.0	2200.0	2200.0	1.0	550.0	n/a	1.0	ITI
91275	500.0	n/a	-1	-1	500	0.0	fixation	poldrack-single-stim	425	1176573	0.0-19.17-0.17	beast_fmri_test	356	1176372,/	t	<div class = centerbox2><div class = fixation>+</div></div>	none	500.0	test	n/a	n/a	n/a	n/a	n/a	n/a	n/a	n/a	n/a	n/a	n/a	n/a	n/a	n/a	n/a	n/a	n/a	n/a	fixation
90584.537469533505	2750.0	n/a	513	89	2750	693.462530466	stim	stop-signal	426	1179326	0.0-19.17-1.17	beast_fmri_test	356	1177052,/,1177731,/,1178411,/,1179089,/,1179770,/	t,t,t,t,t	<img class = center src='/static/experiments/beast_fmri_test/images/V.png'></img>	71,89	2750.0	test	<img class = center src='/static/experiments/beast_fmri_test/images/redV.png'></img>	go	2200.0	1.0	17.0	go	non-target	V	71,Index Finger	89,Middle Finger	550.0	550.0	2200.0	2200.0	1.0	550.0	n/a	1.0	go_stim
93334.537469533505	693.462530466	n/a	513	89	2750	693.462530466	stim	stop-signal	426	1179326	0.0-19.17-1.17	beast_fmri_test	356	1177052,/,1177731,/,1178411,/,1179089,/,1179770,/	t,t,t,t,t	<img class = center src='/static/experiments/beast_fmri_test/images/V.png'></img>	71,89	2750.0	test	<img class = center src='/static/experiments/beast_fmri_test/images/redV.png'></img>	go	2200.0	1.0	17.0	go	non-target	V	71,Index Finger	89,Middle Finger	550.0	550.0	2200.0	2200.0	1.0	550.0	n/a	1.0	ITI
95270	500.0	n/a	-1	-1	500	0.0	fixation	poldrack-single-stim	427	1180568	0.0-19.18-0.18	beast_fmri_test	356	1180449,/	t	<div class = centerbox2><div class = fixation>+</div></div>	none	500.0	test	n/a	n/a	n/a	n/a	n/a	n/a	n/a	n/a	n/a	n/a	n/a	n/a	n/a	n/a	n/a	n/a	n/a	n/a	fixation
95259.944782066857	2750.0	n/a	925	71	2750	12.0552179332	stim	stop-signal	428	1183320	0.0-19.18-1.18	beast_fmri_test	356	1181130,/,1181810,/,1182488,/,1183168,/	t,t,t,t	<img class = center src='/static/experiments/beast_fmri_test/images/V.png'></img>	71,89	2750.0	test	<img class = center src='/static/experiments/beast_fmri_test/images/redV.png'></img>	go	2200.0	1.0	18.0	go	target	V	71,Index Finger	89,Middle Finger	550.0	550.0	2200.0	2200.0	1.0	550.0	n/a	1.0	go_stim
98009.944782066857	12.0552179332	n/a	925	71	2750	12.0552179332	stim	stop-signal	428	1183320	0.0-19.18-1.18	beast_fmri_test	356	1181130,/,1181810,/,1182488,/,1183168,/	t,t,t,t	<img class = center src='/static/experiments/beast_fmri_test/images/V.png'></img>	71,89	2750.0	test	<img class = center src='/static/experiments/beast_fmri_test/images/redV.png'></img>	go	2200.0	1.0	18.0	go	target	V	71,Index Finger	89,Middle Finger	550.0	550.0	2200.0	2200.0	1.0	550.0	n/a	1.0	ITI
98580	500.0	n/a	-1	-1	500	0.0	fixation	poldrack-single-stim	429	1183878	0.0-19.19-0.19	beast_fmri_test	356	1183848,/	t	<div class = centerbox2><div class = fixation>+</div></div>	none	500.0	test	n/a	n/a	n/a	n/a	n/a	n/a	n/a	n/a	n/a	n/a	n/a	n/a	n/a	n/a	n/a	n/a	n/a	n/a	fixation
98472.574573367834	2750.0	n/a	878	71	2750	109.425426632	stim	stop-signal	430	1186630	0.0-19.19-1.19	beast_fmri_test	356	1184527,/,1185208,/,1185888,/,1186567,/	t,t,t,t	<img class = center src='/static/experiments/beast_fmri_test/images/V.png'></img>	71,89	2750.0	test	<img class = center src='/static/experiments/beast_fmri_test/images/redV.png'></img>	go	2200.0	1.0	19.0	go	target	V	71,Index Finger	89,Middle Finger	550.0	550.0	2200.0	2200.0	1.0	550.0	n/a	1.0	go_stim
101222.57457336783	109.425426632	n/a	878	71	2750	109.425426632	stim	stop-signal	430	1186630	0.0-19.19-1.19	beast_fmri_test	356	1184527,/,1185208,/,1185888,/,1186567,/	t,t,t,t	<img class = center src='/static/experiments/beast_fmri_test/images/V.png'></img>	71,89	2750.0	test	<img class = center src='/static/experiments/beast_fmri_test/images/redV.png'></img>	go	2200.0	1.0	19.0	go	target	V	71,Index Finger	89,Middle Finger	550.0	550.0	2200.0	2200.0	1.0	550.0	n/a	1.0	ITI
101994	500.0	n/a	-1	-1	500	0.0	fixation	poldrack-single-stim	431	1187292	0.0-19.20-0.20	beast_fmri_test	356	1187247,/	t	<div class = centerbox2><div class = fixation>+</div></div>	none	500.0	test	n/a	n/a	n/a	n/a	n/a	n/a	n/a	n/a	n/a	n/a	n/a	n/a	n/a	n/a	n/a	n/a	n/a	n/a	fixation
100724.18682600791	550.0	n/a	818	89	2750	1271.81317399	stim	stop-signal	432	1190044	0.0-19.20-1.20	beast_fmri_test	356	1187927,/,1188605,/,1189286,/,1189964,/,1190645,/	t,t,t,t,t	<img class = center src='/static/experiments/beast_fmri_test/images/P.png'></img>	71,89	2750.0	test	<img class = center src='/static/experiments/beast_fmri_test/images/redP.png'></img>	stop	2200.0	1.0	20.0	stop	non-target	P	71,Index Finger	89,Middle Finger	550.0	550.0	2200.0	2200.0	0.0	550.0	0.0	n/a	go_stim
102924.18682600791	2200.0	n/a	818	89	2750	1271.81317399	stim	stop-signal	432	1190044	0.0-19.20-1.20	beast_fmri_test	356	1187927,/,1188605,/,1189286,/,1189964,/,1190645,/	t,t,t,t,t	<img class = center src='/static/experiments/beast_fmri_test/images/P.png'></img>	71,89	2750.0	test	<img class = center src='/static/experiments/beast_fmri_test/images/redP.png'></img>	stop	2200.0	1.0	20.0	stop	non-target	P	71,Index Finger	89,Middle Finger	550.0	550.0	2200.0	2200.0	0.0	550.0	0.0	n/a	stop_stim
103474.18682600791	1271.81317399	n/a	818	89	2750	1271.81317399	stim	stop-signal	432	1190044	0.0-19.20-1.20	beast_fmri_test	356	1187927,/,1188605,/,1189286,/,1189964,/,1190645,/	t,t,t,t,t	<img class = center src='/static/experiments/beast_fmri_test/images/P.png'></img>	71,89	2750.0	test	<img class = center src='/static/experiments/beast_fmri_test/images/redP.png'></img>	stop	2200.0	1.0	20.0	stop	non-target	P	71,Index Finger	89,Middle Finger	550.0	550.0	2200.0	2200.0	0.0	550.0	0.0	n/a	ITI
106572	500.0	n/a	-1	-1	500	0.0	fixation	poldrack-single-stim	433	1191870	0.0-19.21-0.21	beast_fmri_test	356	1191368,/	t	<div class = centerbox2><div class = fixation>+</div></div>	none	500.0	test	n/a	n/a	n/a	n/a	n/a	n/a	n/a	n/a	n/a	n/a	n/a	n/a	n/a	n/a	n/a	n/a	n/a	n/a	fixation
105629.83009913261	2750.0	n/a	1069	89	2750	945.169900867	stim	stop-signal	434	1194623	0.0-19.21-1.21	beast_fmri_test	356	1192005,/,1192684,/,1193364,/,1194043,/,1194722,/,1195403,/	t,t,t,t,t,t	<img class = center src='/static/experiments/beast_fmri_test/images/D.png'></img>	71,89	2750.0	test	<img class = center src='/static/experiments/beast_fmri_test/images/redD.png'></img>	go	2250.0	1.0	21.0	go	non-target	D	71,Index Finger	89,Middle Finger	550.0	500.0	2200.0	2250.0	1.0	500.0	n/a	1.0	go_stim
108379.83009913261	945.169900867	n/a	1069	89	2750	945.169900867	stim	stop-signal	434	1194623	0.0-19.21-1.21	beast_fmri_test	356	1192005,/,1192684,/,1193364,/,1194043,/,1194722,/,1195403,/	t,t,t,t,t,t	<img class = center src='/static/experiments/beast_fmri_test/images/D.png'></img>	71,89	2750.0	test	<img class = center src='/static/experiments/beast_fmri_test/images/redD.png'></img>	go	2250.0	1.0	21.0	go	non-target	D	71,Index Finger	89,Middle Finger	550.0	500.0	2200.0	2250.0	1.0	500.0	n/a	1.0	ITI
110820	500.0	n/a	-1	-1	500	0.0	fixation	poldrack-single-stim	435	1196118	0.0-19.22-0.22	beast_fmri_test	356	1196082,/	t	<div class = centerbox2><div class = fixation>+</div></div>	none	500.0	test	n/a	n/a	n/a	n/a	n/a	n/a	n/a	n/a	n/a	n/a	n/a	n/a	n/a	n/a	n/a	n/a	n/a	n/a	fixation
110545.32943125721	2750.0	n/a	985	89	2750	276.670568743	stim	stop-signal	436	1198870	0.0-19.22-1.22	beast_fmri_test	356	1196761,/,1197441,/,1198120,/,1198801,/	t,t,t,t	<img class = center src='/static/experiments/beast_fmri_test/images/B.png'></img>	71,89	2750.0	test	<img class = center src='/static/experiments/beast_fmri_test/images/redB.png'></img>	go	2250.0	1.0	22.0	go	non-target	B	71,Index Finger	89,Middle Finger	550.0	500.0	2200.0	2250.0	1.0	500.0	n/a	1.0	go_stim
113295.32943125721	276.670568743	n/a	985	89	2750	276.670568743	stim	stop-signal	436	1198870	0.0-19.22-1.22	beast_fmri_test	356	1196761,/,1197441,/,1198120,/,1198801,/	t,t,t,t	<img class = center src='/static/experiments/beast_fmri_test/images/B.png'></img>	71,89	2750.0	test	<img class = center src='/static/experiments/beast_fmri_test/images/redB.png'></img>	go	2250.0	1.0	22.0	go	non-target	B	71,Index Finger	89,Middle Finger	550.0	500.0	2200.0	2250.0	1.0	500.0	n/a	1.0	ITI
114402	500.0	n/a	-1	-1	500	0.0	fixation	poldrack-single-stim	437	1199700	0.0-19.23-0.23	beast_fmri_test	356	1199481,/	t	<div class = centerbox2><div class = fixation>+</div></div>	none	500.0	test	n/a	n/a	n/a	n/a	n/a	n/a	n/a	n/a	n/a	n/a	n/a	n/a	n/a	n/a	n/a	n/a	n/a	n/a	fixation
113532.70748098241	500.0	n/a	-1	-1	2750	871.292519018	stim	stop-signal	438	1202452	0.0-19.23-1.23	beast_fmri_test	356	1200161,/,1200839,/,1201520,/,1202199,/,1202878,/	t,t,t,t,t	<img class = center src='/static/experiments/beast_fmri_test/images/D.png'></img>	71,89	2750.0	test	<img class = center src='/static/experiments/beast_fmri_test/images/redD.png'></img>	stop	2250.0	1.0	23.0	stop	non-target	D	71,Index Finger	89,Middle Finger	550.0	500.0	2200.0	2250.0	0.0	500.0	1.0	n/a	go_stim
115782.70748098241	2250.0	n/a	-1	-1	2750	871.292519018	stim	stop-signal	438	1202452	0.0-19.23-1.23	beast_fmri_test	356	1200161,/,1200839,/,1201520,/,1202199,/,1202878,/	t,t,t,t,t	<img class = center src='/static/experiments/beast_fmri_test/images/D.png'></img>	71,89	2750.0	test	<img class = center src='/static/experiments/beast_fmri_test/images/redD.png'></img>	stop	2250.0	1.0	23.0	stop	non-target	D	71,Index Finger	89,Middle Finger	550.0	500.0	2200.0	2250.0	0.0	500.0	1.0	n/a	stop_stim
116282.70748098241	871.292519018	n/a	-1	-1	2750	871.292519018	stim	stop-signal	438	1202452	0.0-19.23-1.23	beast_fmri_test	356	1200161,/,1200839,/,1201520,/,1202199,/,1202878,/	t,t,t,t,t	<img class = center src='/static/experiments/beast_fmri_test/images/D.png'></img>	71,89	2750.0	test	<img class = center src='/static/experiments/beast_fmri_test/images/redD.png'></img>	stop	2250.0	1.0	23.0	stop	non-target	D	71,Index Finger	89,Middle Finger	550.0	500.0	2200.0	2250.0	0.0	500.0	1.0	n/a	ITI
118574	500.0	n/a	-1	-1	500	0.0	fixation	poldrack-single-stim	439	1203872	0.0-19.24-0.24	beast_fmri_test	356	1203558,/	t	<div class = centerbox2><div class = fixation>+</div></div>	none	500.0	test	n/a	n/a	n/a	n/a	n/a	n/a	n/a	n/a	n/a	n/a	n/a	n/a	n/a	n/a	n/a	n/a	n/a	n/a	fixation
118327.17929192958	550.0	n/a	-1	-1	2750	248.82070807	stim	stop-signal	440	1206624	0.0-19.24-1.24	beast_fmri_test	356	1204240,/,1204917,/,1205599,/,1206279,/	t,t,t,t	<img class = center src='/static/experiments/beast_fmri_test/images/D.png'></img>	71,89	2750.0	test	<img class = center src='/static/experiments/beast_fmri_test/images/redD.png'></img>	stop	2200.0	1.0	24.0	stop	target	D	71,Index Finger	89,Middle Finger	550.0	550.0	2200.0	2250.0	0.0	550.0	1.0	n/a	go_stim
120527.17929192958	2200.0	n/a	-1	-1	2750	248.82070807	stim	stop-signal	440	1206624	0.0-19.24-1.24	beast_fmri_test	356	1204240,/,1204917,/,1205599,/,1206279,/	t,t,t,t	<img class = center src='/static/experiments/beast_fmri_test/images/D.png'></img>	71,89	2750.0	test	<img class = center src='/static/experiments/beast_fmri_test/images/redD.png'></img>	stop	2200.0	1.0	24.0	stop	target	D	71,Index Finger	89,Middle Finger	550.0	550.0	2200.0	2250.0	0.0	550.0	1.0	n/a	stop_stim
121077.17929192958	248.82070807	n/a	-1	-1	2750	248.82070807	stim	stop-signal	440	1206624	0.0-19.24-1.24	beast_fmri_test	356	1204240,/,1204917,/,1205599,/,1206279,/	t,t,t,t	<img class = center src='/static/experiments/beast_fmri_test/images/D.png'></img>	71,89	2750.0	test	<img class = center src='/static/experiments/beast_fmri_test/images/redD.png'></img>	stop	2200.0	1.0	24.0	stop	target	D	71,Index Finger	89,Middle Finger	550.0	550.0	2200.0	2250.0	0.0	550.0	1.0	n/a	ITI
122124	500.0	n/a	-1	-1	500	0.0	fixation	poldrack-single-stim	441	1207422	0.0-19.25-0.25	beast_fmri_test	356	1206957,/	t	<div class = centerbox2><div class = fixation>+</div></div>	none	500.0	test	n/a	n/a	n/a	n/a	n/a	n/a	n/a	n/a	n/a	n/a	n/a	n/a	n/a	n/a	n/a	n/a	n/a	n/a	fixation
119919.84939905885	2750.0	n/a	729	89	2750	2205.15060094	stim	stop-signal	442	1210173	0.0-19.25-1.25	beast_fmri_test	356	1207636,/,1208319,/,1208997,/,1209677,/,1210357,/,1211036,/,1211716,/	t,t,t,t,t,t,t	<img class = center src='/static/experiments/beast_fmri_test/images/P.png'></img>	71,89	2750.0	test	<img class = center src='/static/experiments/beast_fmri_test/images/redP.png'></img>	go	2200.0	1.0	25.0	go	non-target	P	71,Index Finger	89,Middle Finger	600.0	550.0	2200.0	2200.0	1.0	550.0	n/a	1.0	go_stim
122669.84939905885	2205.15060094	n/a	729	89	2750	2205.15060094	stim	stop-signal	442	1210173	0.0-19.25-1.25	beast_fmri_test	356	1207636,/,1208319,/,1208997,/,1209677,/,1210357,/,1211036,/,1211716,/	t,t,t,t,t,t,t	<img class = center src='/static/experiments/beast_fmri_test/images/P.png'></img>	71,89	2750.0	test	<img class = center src='/static/experiments/beast_fmri_test/images/redP.png'></img>	go	2200.0	1.0	25.0	go	non-target	P	71,Index Finger	89,Middle Finger	600.0	550.0	2200.0	2200.0	1.0	550.0	n/a	1.0	ITI
127634	500.0	n/a	-1	-1	500	0.0	fixation	poldrack-single-stim	443	1212932	0.0-19.26-0.26	beast_fmri_test	356	1212430,/	t	<div class = centerbox2><div class = fixation>+</div></div>	none	500.0	test	n/a	n/a	n/a	n/a	n/a	n/a	n/a	n/a	n/a	n/a	n/a	n/a	n/a	n/a	n/a	n/a	n/a	n/a	fixation
126964.42383886664	600.0	n/a	719	71	2750	671.576161133	stim	stop-signal	444	1215684	0.0-19.26-1.26	beast_fmri_test	356	1213075,/,1213755,/,1214434,/,1215114,/,1215793,/	t,t,t,t,t	<img class = center src='/static/experiments/beast_fmri_test/images/P.png'></img>	71,89	2750.0	test	<img class = center src='/static/experiments/beast_fmri_test/images/redP.png'></img>	stop	2150.0	1.0	26.0	stop	target	P	71,Index Finger	89,Middle Finger	600.0	550.0	2150.0	2200.0	0.0	600.0	0.0	n/a	go_stim
129114.42383886664	2150.0	n/a	719	71	2750	671.576161133	stim	stop-signal	444	1215684	0.0-19.26-1.26	beast_fmri_test	356	1213075,/,1213755,/,1214434,/,1215114,/,1215793,/	t,t,t,t,t	<img class = center src='/static/experiments/beast_fmri_test/images/P.png'></img>	71,89	2750.0	test	<img class = center src='/static/experiments/beast_fmri_test/images/redP.png'></img>	stop	2150.0	1.0	26.0	stop	target	P	71,Index Finger	89,Middle Finger	600.0	550.0	2150.0	2200.0	0.0	600.0	0.0	n/a	stop_stim
129714.42383886664	671.576161133	n/a	719	71	2750	671.576161133	stim	stop-signal	444	1215684	0.0-19.26-1.26	beast_fmri_test	356	1213075,/,1213755,/,1214434,/,1215114,/,1215793,/	t,t,t,t,t	<img class = center src='/static/experiments/beast_fmri_test/images/P.png'></img>	71,89	2750.0	test	<img class = center src='/static/experiments/beast_fmri_test/images/redP.png'></img>	stop	2150.0	1.0	26.0	stop	target	P	71,Index Finger	89,Middle Finger	600.0	550.0	2150.0	2200.0	0.0	600.0	0.0	n/a	ITI
131611	500.0	n/a	-1	-1	500	0.0	fixation	poldrack-single-stim	445	1216909	0.0-19.27-0.27	beast_fmri_test	356	1216474,/	t	<div class = centerbox2><div class = fixation>+</div></div>	none	500.0	test	n/a	n/a	n/a	n/a	n/a	n/a	n/a	n/a	n/a	n/a	n/a	n/a	n/a	n/a	n/a	n/a	n/a	n/a	fixation
130843.2415733051	2750.0	n/a	1186	71	2750	769.758426695	stim	stop-signal	446	1219661	0.0-19.27-1.27	beast_fmri_test	356	1217153,/,1217833,/,1218513,/,1219193,/,1219873,/	t,t,t,t,t	<img class = center src='/static/experiments/beast_fmri_test/images/P.png'></img>	71,89	2750.0	test	<img class = center src='/static/experiments/beast_fmri_test/images/redP.png'></img>	go	2200.0	1.0	27.0	go	target	P	71,Index Finger	89,Middle Finger	550.0	550.0	2200.0	2200.0	1.0	550.0	n/a	1.0	go_stim
133593.2415733051	769.758426695	n/a	1186	71	2750	769.758426695	stim	stop-signal	446	1219661	0.0-19.27-1.27	beast_fmri_test	356	1217153,/,1217833,/,1218513,/,1219193,/,1219873,/	t,t,t,t,t	<img class = center src='/static/experiments/beast_fmri_test/images/P.png'></img>	71,89	2750.0	test	<img class = center src='/static/experiments/beast_fmri_test/images/redP.png'></img>	go	2200.0	1.0	27.0	go	target	P	71,Index Finger	89,Middle Finger	550.0	550.0	2200.0	2200.0	1.0	550.0	n/a	1.0	ITI
135683	500.0	n/a	-1	-1	500	0.0	fixation	poldrack-single-stim	447	1220981	0.0-19.28-0.28	beast_fmri_test	356	1220550,/	t	<div class = centerbox2><div class = fixation>+</div></div>	none	500.0	test	n/a	n/a	n/a	n/a	n/a	n/a	n/a	n/a	n/a	n/a	n/a	n/a	n/a	n/a	n/a	n/a	n/a	n/a	fixation
134515.02760132006	2750.0	n/a	1552	89	2750	1169.97239868	stim	stop-signal	448	1223733	0.0-19.28-1.28	beast_fmri_test	356	1221232,/,1221910,/,1222590,/,1223271,/,1223950,/,1224630,/	t,t,t,t,t,t	<img class = center src='/static/experiments/beast_fmri_test/images/V.png'></img>	71,89	2750.0	test	<img class = center src='/static/experiments/beast_fmri_test/images/redV.png'></img>	go	2200.0	1.0	28.0	go	non-target	V	71,Index Finger	89,Middle Finger	550.0	550.0	2200.0	2200.0	1.0	550.0	n/a	1.0	go_stim
137265.02760132006	1169.97239868	n/a	1552	89	2750	1169.97239868	stim	stop-signal	448	1223733	0.0-19.28-1.28	beast_fmri_test	356	1221232,/,1221910,/,1222590,/,1223271,/,1223950,/,1224630,/	t,t,t,t,t,t	<img class = center src='/static/experiments/beast_fmri_test/images/V.png'></img>	71,89	2750.0	test	<img class = center src='/static/experiments/beast_fmri_test/images/redV.png'></img>	go	2200.0	1.0	28.0	go	non-target	V	71,Index Finger	89,Middle Finger	550.0	550.0	2200.0	2200.0	1.0	550.0	n/a	1.0	ITI
140155	500.0	n/a	-1	-1	500	0.0	fixation	poldrack-single-stim	449	1225453	0.0-19.29-0.29	beast_fmri_test	356	1225310,/	t	<div class = centerbox2><div class = fixation>+</div></div>	none	500.0	test	n/a	n/a	n/a	n/a	n/a	n/a	n/a	n/a	n/a	n/a	n/a	n/a	n/a	n/a	n/a	n/a	n/a	n/a	fixation
140063.39547928213	2750.0	n/a	680	71	2750	94.6045207178	stim	stop-signal	450	1228206	0.0-19.29-1.29	beast_fmri_test	356	1225988,/,1226668,/,1227347,/,1228027,/	t,t,t,t	<img class = center src='/static/experiments/beast_fmri_test/images/V.png'></img>	71,89	2750.0	test	<img class = center src='/static/experiments/beast_fmri_test/images/redV.png'></img>	go	2200.0	1.0	29.0	go	target	V	71,Index Finger	89,Middle Finger	550.0	550.0	2200.0	2200.0	1.0	550.0	n/a	1.0	go_stim
142813.39547928213	94.6045207178	n/a	680	71	2750	94.6045207178	stim	stop-signal	450	1228206	0.0-19.29-1.29	beast_fmri_test	356	1225988,/,1226668,/,1227347,/,1228027,/	t,t,t,t	<img class = center src='/static/experiments/beast_fmri_test/images/V.png'></img>	71,89	2750.0	test	<img class = center src='/static/experiments/beast_fmri_test/images/redV.png'></img>	go	2200.0	1.0	29.0	go	target	V	71,Index Finger	89,Middle Finger	550.0	550.0	2200.0	2200.0	1.0	550.0	n/a	1.0	ITI
143555	500.0	n/a	-1	-1	500	0.0	fixation	poldrack-single-stim	451	1228853	0.0-19.30-0.30	beast_fmri_test	356	1228708,/	t	<div class = centerbox2><div class = fixation>+</div></div>	none	500.0	test	n/a	n/a	n/a	n/a	n/a	n/a	n/a	n/a	n/a	n/a	n/a	n/a	n/a	n/a	n/a	n/a	n/a	n/a	fixation
143417.80661280011	2750.0	n/a	1005	71	2750	139.1933872	stim	stop-signal	452	1231605	0.0-19.30-1.30	beast_fmri_test	356	1229388,/,1230067,/,1230747,/,1231426,/	t,t,t,t	<img class = center src='/static/experiments/beast_fmri_test/images/P.png'></img>	71,89	2750.0	test	<img class = center src='/static/experiments/beast_fmri_test/images/redP.png'></img>	go	2200.0	1.0	30.0	go	non-target	P	71,Index Finger	89,Middle Finger	550.0	550.0	2200.0	2200.0	0.0	550.0	n/a	0.0	go_stim
146167.80661280011	139.1933872	n/a	1005	71	2750	139.1933872	stim	stop-signal	452	1231605	0.0-19.30-1.30	beast_fmri_test	356	1229388,/,1230067,/,1230747,/,1231426,/	t,t,t,t	<img class = center src='/static/experiments/beast_fmri_test/images/P.png'></img>	71,89	2750.0	test	<img class = center src='/static/experiments/beast_fmri_test/images/redP.png'></img>	go	2200.0	1.0	30.0	go	non-target	P	71,Index Finger	89,Middle Finger	550.0	550.0	2200.0	2200.0	0.0	550.0	n/a	0.0	ITI
147002	500.0	n/a	-1	-1	500	0.0	fixation	poldrack-single-stim	453	1232300	0.0-19.31-0.31	beast_fmri_test	356	1232105,/	t	<div class = centerbox2><div class = fixation>+</div></div>	none	500.0	test	n/a	n/a	n/a	n/a	n/a	n/a	n/a	n/a	n/a	n/a	n/a	n/a	n/a	n/a	n/a	n/a	n/a	n/a	fixation
146883.92866074364	2750.0	n/a	1224	89	2750	119.071339256	stim	stop-signal	454	1235051	0.0-19.31-1.31	beast_fmri_test	356	1232786,/,1233466,/,1234145,/,1234826,/	t,t,t,t	<img class = center src='/static/experiments/beast_fmri_test/images/V.png'></img>	71,89	2750.0	test	<img class = center src='/static/experiments/beast_fmri_test/images/redV.png'></img>	go	2200.0	1.0	31.0	go	non-target	V	71,Index Finger	89,Middle Finger	550.0	550.0	2200.0	2200.0	1.0	550.0	n/a	1.0	go_stim
149633.92866074364	119.071339256	n/a	1224	89	2750	119.071339256	stim	stop-signal	454	1235051	0.0-19.31-1.31	beast_fmri_test	356	1232786,/,1233466,/,1234145,/,1234826,/	t,t,t,t	<img class = center src='/static/experiments/beast_fmri_test/images/V.png'></img>	71,89	2750.0	test	<img class = center src='/static/experiments/beast_fmri_test/images/redV.png'></img>	go	2200.0	1.0	31.0	go	non-target	V	71,Index Finger	89,Middle Finger	550.0	550.0	2200.0	2200.0	1.0	550.0	n/a	1.0	ITI
150423	500.0	n/a	-1	-1	500	0.0	fixation	poldrack-single-stim	455	1235721	0.0-19.32-0.32	beast_fmri_test	356	1235504,/	t	<div class = centerbox2><div class = fixation>+</div></div>	none	500.0	test	n/a	n/a	n/a	n/a	n/a	n/a	n/a	n/a	n/a	n/a	n/a	n/a	n/a	n/a	n/a	n/a	n/a	n/a	fixation
148943.80440142564	2750.0	n/a	856	89	2750	1481.19559857	stim	stop-signal	456	1238473	0.0-19.32-1.32	beast_fmri_test	356	1236184,/,1236865,/,1237544,/,1238224,/,1238904,/,1239582,/	t,t,t,t,t,t	<img class = center src='/static/experiments/beast_fmri_test/images/D.png'></img>	71,89	2750.0	test	<img class = center src='/static/experiments/beast_fmri_test/images/redD.png'></img>	go	2200.0	1.0	32.0	go	non-target	D	71,Index Finger	89,Middle Finger	550.0	550.0	2200.0	2200.0	1.0	550.0	n/a	1.0	go_stim
151693.80440142564	1481.19559857	n/a	856	89	2750	1481.19559857	stim	stop-signal	456	1238473	0.0-19.32-1.32	beast_fmri_test	356	1236184,/,1236865,/,1237544,/,1238224,/,1238904,/,1239582,/	t,t,t,t,t,t	<img class = center src='/static/experiments/beast_fmri_test/images/D.png'></img>	71,89	2750.0	test	<img class = center src='/static/experiments/beast_fmri_test/images/redD.png'></img>	go	2200.0	1.0	32.0	go	non-target	D	71,Index Finger	89,Middle Finger	550.0	550.0	2200.0	2200.0	1.0	550.0	n/a	1.0	ITI
155208	500.0	n/a	-1	-1	500	0.0	fixation	poldrack-single-stim	457	1240506	0.0-19.33-0.33	beast_fmri_test	356	1240263,/	t	<div class = centerbox2><div class = fixation>+</div></div>	none	500.0	test	n/a	n/a	n/a	n/a	n/a	n/a	n/a	n/a	n/a	n/a	n/a	n/a	n/a	n/a	n/a	n/a	n/a	n/a	fixation
153779.99032966094	550.0	n/a	788	71	2750	1431.00967034	stim	stop-signal	458	1243259	0.0-19.33-1.33	beast_fmri_test	356	1240941,/,1241623,/,1242302,/,1242982,/,1243661,/,1244341,/	t,t,t,t,t,t	<img class = center src='/static/experiments/beast_fmri_test/images/D.png'></img>	71,89	2750.0	test	<img class = center src='/static/experiments/beast_fmri_test/images/redD.png'></img>	stop	2200.0	1.0	33.0	stop	target	D	71,Index Finger	89,Middle Finger	550.0	550.0	2200.0	2200.0	0.0	550.0	0.0	n/a	go_stim
155979.99032966094	2200.0	n/a	788	71	2750	1431.00967034	stim	stop-signal	458	1243259	0.0-19.33-1.33	beast_fmri_test	356	1240941,/,1241623,/,1242302,/,1242982,/,1243661,/,1244341,/	t,t,t,t,t,t	<img class = center src='/static/experiments/beast_fmri_test/images/D.png'></img>	71,89	2750.0	test	<img class = center src='/static/experiments/beast_fmri_test/images/redD.png'></img>	stop	2200.0	1.0	33.0	stop	target	D	71,Index Finger	89,Middle Finger	550.0	550.0	2200.0	2200.0	0.0	550.0	0.0	n/a	stop_stim
156529.99032966094	1431.00967034	n/a	788	71	2750	1431.00967034	stim	stop-signal	458	1243259	0.0-19.33-1.33	beast_fmri_test	356	1240941,/,1241623,/,1242302,/,1242982,/,1243661,/,1244341,/	t,t,t,t,t,t	<img class = center src='/static/experiments/beast_fmri_test/images/D.png'></img>	71,89	2750.0	test	<img class = center src='/static/experiments/beast_fmri_test/images/redD.png'></img>	stop	2200.0	1.0	33.0	stop	target	D	71,Index Finger	89,Middle Finger	550.0	550.0	2200.0	2200.0	0.0	550.0	0.0	n/a	ITI
159946	500.0	n/a	-1	-1	500	0.0	fixation	poldrack-single-stim	459	1245244	0.0-19.34-0.34	beast_fmri_test	356	1245020,/	t	<div class = centerbox2><div class = fixation>+</div></div>	none	500.0	test	n/a	n/a	n/a	n/a	n/a	n/a	n/a	n/a	n/a	n/a	n/a	n/a	n/a	n/a	n/a	n/a	n/a	n/a	fixation
158911.070421885	2750.0	n/a	2605	71	2750	1037.92957812	stim	stop-signal	460	1247997	0.0-19.34-1.34	beast_fmri_test	356	1245699,/,1246378,/,1247058,/,1247739,/,1248418,/	t,t,t,t,t	<img class = center src='/static/experiments/beast_fmri_test/images/P.png'></img>	71,89	2750.0	test	<img class = center src='/static/experiments/beast_fmri_test/images/redP.png'></img>	go	2200.0	1.0	34.0	go	non-target	P	71,Index Finger	89,Middle Finger	500.0	550.0	2200.0	2200.0	0.0	550.0	n/a	0.0	go_stim
161661.070421885	1037.92957812	n/a	2605	71	2750	1037.92957812	stim	stop-signal	460	1247997	0.0-19.34-1.34	beast_fmri_test	356	1245699,/,1246378,/,1247058,/,1247739,/,1248418,/	t,t,t,t,t	<img class = center src='/static/experiments/beast_fmri_test/images/P.png'></img>	71,89	2750.0	test	<img class = center src='/static/experiments/beast_fmri_test/images/redP.png'></img>	go	2200.0	1.0	34.0	go	non-target	P	71,Index Finger	89,Middle Finger	500.0	550.0	2200.0	2200.0	0.0	550.0	n/a	0.0	ITI
164289	500.0	n/a	-1	-1	500	0.0	fixation	poldrack-single-stim	461	1249587	0.0-19.35-0.35	beast_fmri_test	356	1249098,/	t	<div class = centerbox2><div class = fixation>+</div></div>	none	500.0	test	n/a	n/a	n/a	n/a	n/a	n/a	n/a	n/a	n/a	n/a	n/a	n/a	n/a	n/a	n/a	n/a	n/a	n/a	fixation
163538.62602455681	2750.0	n/a	773	89	2750	751.373975443	stim	stop-signal	462	1252338	0.0-19.35-1.35	beast_fmri_test	356	1249777,/,1250457,/,1251137,/,1251817,/,1252496,/	t,t,t,t,t	<img class = center src='/static/experiments/beast_fmri_test/images/V.png'></img>	71,89	2750.0	test	<img class = center src='/static/experiments/beast_fmri_test/images/redV.png'></img>	go	2200.0	1.0	35.0	go	non-target	V	71,Index Finger	89,Middle Finger	500.0	550.0	2200.0	2200.0	1.0	550.0	n/a	1.0	go_stim
166288.62602455681	751.373975443	n/a	773	89	2750	751.373975443	stim	stop-signal	462	1252338	0.0-19.35-1.35	beast_fmri_test	356	1249777,/,1250457,/,1251137,/,1251817,/,1252496,/	t,t,t,t,t	<img class = center src='/static/experiments/beast_fmri_test/images/V.png'></img>	71,89	2750.0	test	<img class = center src='/static/experiments/beast_fmri_test/images/redV.png'></img>	go	2200.0	1.0	35.0	go	non-target	V	71,Index Finger	89,Middle Finger	500.0	550.0	2200.0	2200.0	1.0	550.0	n/a	1.0	ITI
168351	500.0	n/a	-1	-1	500	0.0	fixation	poldrack-single-stim	463	1253649	0.0-19.36-0.36	beast_fmri_test	356	1253175,/	t	<div class = centerbox2><div class = fixation>+</div></div>	none	500.0	test	n/a	n/a	n/a	n/a	n/a	n/a	n/a	n/a	n/a	n/a	n/a	n/a	n/a	n/a	n/a	n/a	n/a	n/a	fixation
168184.03967423015	2750.0	n/a	741	89	2750	169.96032577	stim	stop-signal	464	1256402	0.0-19.36-1.36	beast_fmri_test	356	1253855,/,1254534,/,1255214,/,1255894,/,1256573,/	t,t,t,t,t	<img class = center src='/static/experiments/beast_fmri_test/images/T.png'></img>	71,89	2750.0	test	<img class = center src='/static/experiments/beast_fmri_test/images/redT.png'></img>	go	2200.0	1.0	36.0	go	non-target	T	71,Index Finger	89,Middle Finger	500.0	550.0	2200.0	2200.0	1.0	550.0	n/a	1.0	go_stim
170934.03967423015	169.96032577	n/a	741	89	2750	169.96032577	stim	stop-signal	464	1256402	0.0-19.36-1.36	beast_fmri_test	356	1253855,/,1254534,/,1255214,/,1255894,/,1256573,/	t,t,t,t,t	<img class = center src='/static/experiments/beast_fmri_test/images/T.png'></img>	71,89	2750.0	test	<img class = center src='/static/experiments/beast_fmri_test/images/redT.png'></img>	go	2200.0	1.0	36.0	go	non-target	T	71,Index Finger	89,Middle Finger	500.0	550.0	2200.0	2200.0	1.0	550.0	n/a	1.0	ITI
171839	500.0	n/a	-1	-1	500	0.0	fixation	poldrack-single-stim	465	1257137	0.0-19.37-0.37	beast_fmri_test	356	n/a	n/a	<div class = centerbox2><div class = fixation>+</div></div>	none	500.0	test	n/a	n/a	n/a	n/a	n/a	n/a	n/a	n/a	n/a	n/a	n/a	n/a	n/a	n/a	n/a	n/a	n/a	n/a	fixation
168668.93435976328	2750.0	n/a	738	89	2750	3172.06564024	stim	stop-signal	466	1259889	0.0-19.37-1.37	beast_fmri_test	356	1257256,/,1257934,/,1258613,/,1259293,/,1259971,/,1260652,/,1261333,/,1262013,/,1262692,/	t,t,t,t,t,t,t,t,t	<img class = center src='/static/experiments/beast_fmri_test/images/B.png'></img>	71,89	2750.0	test	<img class = center src='/static/experiments/beast_fmri_test/images/redB.png'></img>	go	2200.0	1.0	37.0	go	non-target	B	71,Index Finger	89,Middle Finger	500.0	550.0	2200.0	2200.0	1.0	550.0	n/a	1.0	go_stim
171418.93435976328	3172.06564024	n/a	738	89	2750	3172.06564024	stim	stop-signal	466	1259889	0.0-19.37-1.37	beast_fmri_test	356	1257256,/,1257934,/,1258613,/,1259293,/,1259971,/,1260652,/,1261333,/,1262013,/,1262692,/	t,t,t,t,t,t,t,t,t	<img class = center src='/static/experiments/beast_fmri_test/images/B.png'></img>	71,89	2750.0	test	<img class = center src='/static/experiments/beast_fmri_test/images/redB.png'></img>	go	2200.0	1.0	37.0	go	non-target	B	71,Index Finger	89,Middle Finger	500.0	550.0	2200.0	2200.0	1.0	550.0	n/a	1.0	ITI
178315	500.0	n/a	-1	-1	500	0.0	fixation	poldrack-single-stim	467	1263613	0.0-19.38-0.38	beast_fmri_test	356	1263373,/	t	<div class = centerbox2><div class = fixation>+</div></div>	none	500.0	test	n/a	n/a	n/a	n/a	n/a	n/a	n/a	n/a	n/a	n/a	n/a	n/a	n/a	n/a	n/a	n/a	n/a	n/a	fixation
177924.70426512533	2750.0	n/a	847	71	2750	391.295734875	stim	stop-signal	468	1266364	0.0-19.38-1.38	beast_fmri_test	356	1264052,/,1264731,/,1265411,/,1266091,/	t,t,t,t	<img class = center src='/static/experiments/beast_fmri_test/images/V.png'></img>	71,89	2750.0	test	<img class = center src='/static/experiments/beast_fmri_test/images/redV.png'></img>	go	2200.0	1.0	38.0	go	non-target	V	71,Index Finger	89,Middle Finger	500.0	550.0	2200.0	2200.0	0.0	550.0	n/a	0.0	go_stim
180674.70426512533	391.295734875	n/a	847	71	2750	391.295734875	stim	stop-signal	468	1266364	0.0-19.38-1.38	beast_fmri_test	356	1264052,/,1264731,/,1265411,/,1266091,/	t,t,t,t	<img class = center src='/static/experiments/beast_fmri_test/images/V.png'></img>	71,89	2750.0	test	<img class = center src='/static/experiments/beast_fmri_test/images/redV.png'></img>	go	2200.0	1.0	38.0	go	non-target	V	71,Index Finger	89,Middle Finger	500.0	550.0	2200.0	2200.0	0.0	550.0	n/a	0.0	ITI
182012	500.0	n/a	-1	-1	500	0.0	fixation	poldrack-single-stim	469	1267310	0.0-19.39-0.39	beast_fmri_test	356	1266809,/	t	<div class = centerbox2><div class = fixation>+</div></div>	none	500.0	test	n/a	n/a	n/a	n/a	n/a	n/a	n/a	n/a	n/a	n/a	n/a	n/a	n/a	n/a	n/a	n/a	n/a	n/a	fixation
180895.12316559069	2750.0	n/a	474	89	2750	1118.87683441	stim	stop-signal	470	1270062	0.0-19.39-1.39	beast_fmri_test	356	1267450,/,1268129,/,1268809,/,1269489,/,1270168,/,1270848,/	t,t,t,t,t,t	<img class = center src='/static/experiments/beast_fmri_test/images/P.png'></img>	71,89	2750.0	test	<img class = center src='/static/experiments/beast_fmri_test/images/redP.png'></img>	go	2200.0	1.0	39.0	go	non-target	P	71,Index Finger	89,Middle Finger	500.0	550.0	2200.0	2200.0	1.0	550.0	n/a	1.0	go_stim
183645.12316559069	1118.87683441	n/a	474	89	2750	1118.87683441	stim	stop-signal	470	1270062	0.0-19.39-1.39	beast_fmri_test	356	1267450,/,1268129,/,1268809,/,1269489,/,1270168,/,1270848,/	t,t,t,t,t,t	<img class = center src='/static/experiments/beast_fmri_test/images/P.png'></img>	71,89	2750.0	test	<img class = center src='/static/experiments/beast_fmri_test/images/redP.png'></img>	go	2200.0	1.0	39.0	go	non-target	P	71,Index Finger	89,Middle Finger	500.0	550.0	2200.0	2200.0	1.0	550.0	n/a	1.0	ITI
186434	500.0	n/a	-1	-1	500	0.0	fixation	poldrack-single-stim	471	1271732	0.0-19.40-0.40	beast_fmri_test	356	1271527,/	t	<div class = centerbox2><div class = fixation>+</div></div>	none	500.0	test	n/a	n/a	n/a	n/a	n/a	n/a	n/a	n/a	n/a	n/a	n/a	n/a	n/a	n/a	n/a	n/a	n/a	n/a	fixation
185824.18749068677	2750.0	n/a	905	71	2750	610.812509313	stim	stop-signal	472	1274483	0.0-19.40-1.40	beast_fmri_test	356	1272208,/,1272886,/,1273567,/,1274247,/,1274926,/	t,t,t,t,t	<img class = center src='/static/experiments/beast_fmri_test/images/P.png'></img>	71,89	2750.0	test	<img class = center src='/static/experiments/beast_fmri_test/images/redP.png'></img>	go	2250.0	1.0	40.0	go	target	P	71,Index Finger	89,Middle Finger	500.0	550.0	2250.0	2200.0	1.0	500.0	n/a	1.0	go_stim
188574.18749068677	610.812509313	n/a	905	71	2750	610.812509313	stim	stop-signal	472	1274483	0.0-19.40-1.40	beast_fmri_test	356	1272208,/,1272886,/,1273567,/,1274247,/,1274926,/	t,t,t,t,t	<img class = center src='/static/experiments/beast_fmri_test/images/P.png'></img>	71,89	2750.0	test	<img class = center src='/static/experiments/beast_fmri_test/images/redP.png'></img>	go	2250.0	1.0	40.0	go	target	P	71,Index Finger	89,Middle Finger	500.0	550.0	2250.0	2200.0	1.0	500.0	n/a	1.0	ITI
190353	500.0	n/a	-1	-1	500	0.0	fixation	poldrack-single-stim	473	1275651	0.0-19.41-0.41	beast_fmri_test	356	1275606,/	t	<div class = centerbox2><div class = fixation>+</div></div>	none	500.0	test	n/a	n/a	n/a	n/a	n/a	n/a	n/a	n/a	n/a	n/a	n/a	n/a	n/a	n/a	n/a	n/a	n/a	n/a	fixation
190210.705441206	2750.0	n/a	1407	71	2750	144.294558794	stim	stop-signal	474	1278403	0.0-19.41-1.41	beast_fmri_test	356	1276288,/,1276965,/,1277646,/,1278325,/	t,t,t,t	<img class = center src='/static/experiments/beast_fmri_test/images/B.png'></img>	71,89	2750.0	test	<img class = center src='/static/experiments/beast_fmri_test/images/redB.png'></img>	go	2200.0	1.0	41.0	go	non-target	B	71,Index Finger	89,Middle Finger	500.0	550.0	2250.0	2200.0	0.0	550.0	n/a	0.0	go_stim
192960.705441206	144.294558794	n/a	1407	71	2750	144.294558794	stim	stop-signal	474	1278403	0.0-19.41-1.41	beast_fmri_test	356	1276288,/,1276965,/,1277646,/,1278325,/	t,t,t,t	<img class = center src='/static/experiments/beast_fmri_test/images/B.png'></img>	71,89	2750.0	test	<img class = center src='/static/experiments/beast_fmri_test/images/redB.png'></img>	go	2200.0	1.0	41.0	go	non-target	B	71,Index Finger	89,Middle Finger	500.0	550.0	2250.0	2200.0	0.0	550.0	n/a	0.0	ITI
193801	500.0	n/a	-1	-1	500	0.0	fixation	poldrack-single-stim	475	1279099	0.0-19.42-0.42	beast_fmri_test	356	1279005,/	t	<div class = centerbox2><div class = fixation>+</div></div>	none	500.0	test	n/a	n/a	n/a	n/a	n/a	n/a	n/a	n/a	n/a	n/a	n/a	n/a	n/a	n/a	n/a	n/a	n/a	n/a	fixation
193159.10679635219	2750.0	n/a	1010	71	2750	642.893203648	stim	stop-signal	476	1281850	0.0-19.42-1.42	beast_fmri_test	356	1279683,/,1280364,/,1281044,/,1281724,/,1282403,/	t,t,t,t,t	<img class = center src='/static/experiments/beast_fmri_test/images/B.png'></img>	71,89	2750.0	test	<img class = center src='/static/experiments/beast_fmri_test/images/redB.png'></img>	go	2250.0	1.0	42.0	go	target	B	71,Index Finger	89,Middle Finger	500.0	550.0	2250.0	2200.0	1.0	500.0	n/a	1.0	go_stim
195909.10679635219	642.893203648	n/a	1010	71	2750	642.893203648	stim	stop-signal	476	1281850	0.0-19.42-1.42	beast_fmri_test	356	1279683,/,1280364,/,1281044,/,1281724,/,1282403,/	t,t,t,t,t	<img class = center src='/static/experiments/beast_fmri_test/images/B.png'></img>	71,89	2750.0	test	<img class = center src='/static/experiments/beast_fmri_test/images/redB.png'></img>	go	2250.0	1.0	42.0	go	target	B	71,Index Finger	89,Middle Finger	500.0	550.0	2250.0	2200.0	1.0	500.0	n/a	1.0	ITI
197750	500.0	n/a	-1	-1	500	0.0	fixation	poldrack-single-stim	477	1283048	0.0-19.43-0.43	beast_fmri_test	356	n/a	n/a	<div class = centerbox2><div class = fixation>+</div></div>	none	500.0	test	n/a	n/a	n/a	n/a	n/a	n/a	n/a	n/a	n/a	n/a	n/a	n/a	n/a	n/a	n/a	n/a	n/a	n/a	fixation
197297.13593359757	500.0	n/a	-1	-1	2750	455.864066403	stim	stop-signal	478	1285801	0.0-19.43-1.43	beast_fmri_test	356	1283082,/,1283762,/,1284443,/,1285123,/,1285802,/	t,t,t,t,t	<img class = center src='/static/experiments/beast_fmri_test/images/B.png'></img>	71,89	2750.0	test	<img class = center src='/static/experiments/beast_fmri_test/images/redB.png'></img>	stop	2250.0	1.0	43.0	stop	target	B	71,Index Finger	89,Middle Finger	500.0	550.0	2250.0	2200.0	0.0	500.0	1.0	n/a	go_stim
199547.13593359757	2250.0	n/a	-1	-1	2750	455.864066403	stim	stop-signal	478	1285801	0.0-19.43-1.43	beast_fmri_test	356	1283082,/,1283762,/,1284443,/,1285123,/,1285802,/	t,t,t,t,t	<img class = center src='/static/experiments/beast_fmri_test/images/B.png'></img>	71,89	2750.0	test	<img class = center src='/static/experiments/beast_fmri_test/images/redB.png'></img>	stop	2250.0	1.0	43.0	stop	target	B	71,Index Finger	89,Middle Finger	500.0	550.0	2250.0	2200.0	0.0	500.0	1.0	n/a	stop_stim
200047.13593359757	455.864066403	n/a	-1	-1	2750	455.864066403	stim	stop-signal	478	1285801	0.0-19.43-1.43	beast_fmri_test	356	1283082,/,1283762,/,1284443,/,1285123,/,1285802,/	t,t,t,t,t	<img class = center src='/static/experiments/beast_fmri_test/images/B.png'></img>	71,89	2750.0	test	<img class = center src='/static/experiments/beast_fmri_test/images/redB.png'></img>	stop	2250.0	1.0	43.0	stop	target	B	71,Index Finger	89,Middle Finger	500.0	550.0	2250.0	2200.0	0.0	500.0	1.0	n/a	ITI
201514	500.0	n/a	-1	-1	500	0.0	fixation	poldrack-single-stim	479	1286812	0.0-19.44-0.44	beast_fmri_test	356	1286480,/	t	<div class = centerbox2><div class = fixation>+</div></div>	none	500.0	test	n/a	n/a	n/a	n/a	n/a	n/a	n/a	n/a	n/a	n/a	n/a	n/a	n/a	n/a	n/a	n/a	n/a	n/a	fixation
200057.02974780765	2750.0	n/a	1059	89	2750	1458.97025219	stim	stop-signal	480	1289564	0.0-19.44-1.44	beast_fmri_test	356	1287161,/,1287839,/,1288520,/,1289200,/,1289879,/,1290559,/	t,t,t,t,t,t	<img class = center src='/static/experiments/beast_fmri_test/images/D.png'></img>	71,89	2750.0	test	<img class = center src='/static/experiments/beast_fmri_test/images/redD.png'></img>	go	2200.0	1.0	44.0	go	non-target	D	71,Index Finger	89,Middle Finger	550.0	550.0	2250.0	2200.0	1.0	550.0	n/a	1.0	go_stim
202807.02974780765	1458.97025219	n/a	1059	89	2750	1458.97025219	stim	stop-signal	480	1289564	0.0-19.44-1.44	beast_fmri_test	356	1287161,/,1287839,/,1288520,/,1289200,/,1289879,/,1290559,/	t,t,t,t,t,t	<img class = center src='/static/experiments/beast_fmri_test/images/D.png'></img>	71,89	2750.0	test	<img class = center src='/static/experiments/beast_fmri_test/images/redD.png'></img>	go	2200.0	1.0	44.0	go	non-target	D	71,Index Finger	89,Middle Finger	550.0	550.0	2250.0	2200.0	1.0	550.0	n/a	1.0	ITI
206276	500.0	n/a	-1	-1	500	0.0	fixation	poldrack-single-stim	481	1291574	0.0-19.45-0.45	beast_fmri_test	356	1291239,/	t	<div class = centerbox2><div class = fixation>+</div></div>	none	500.0	test	n/a	n/a	n/a	n/a	n/a	n/a	n/a	n/a	n/a	n/a	n/a	n/a	n/a	n/a	n/a	n/a	n/a	n/a	fixation
204750.62566210772	550.0	n/a	-1	-1	2750	1528.37433789	stim	stop-signal	482	1294327	0.0-19.45-1.45	beast_fmri_test	356	1291919,/,1292599,/,1293278,/,1293959,/,1294638,/,1295318,/	t,t,t,t,t,t	<img class = center src='/static/experiments/beast_fmri_test/images/P.png'></img>	71,89	2750.0	test	<img class = center src='/static/experiments/beast_fmri_test/images/redP.png'></img>	stop	2200.0	1.0	45.0	stop	non-target	P	71,Index Finger	89,Middle Finger	550.0	550.0	2250.0	2200.0	0.0	550.0	1.0	n/a	go_stim
206950.62566210772	2200.0	n/a	-1	-1	2750	1528.37433789	stim	stop-signal	482	1294327	0.0-19.45-1.45	beast_fmri_test	356	1291919,/,1292599,/,1293278,/,1293959,/,1294638,/,1295318,/	t,t,t,t,t,t	<img class = center src='/static/experiments/beast_fmri_test/images/P.png'></img>	71,89	2750.0	test	<img class = center src='/static/experiments/beast_fmri_test/images/redP.png'></img>	stop	2200.0	1.0	45.0	stop	non-target	P	71,Index Finger	89,Middle Finger	550.0	550.0	2250.0	2200.0	0.0	550.0	1.0	n/a	stop_stim
207500.62566210772	1528.37433789	n/a	-1	-1	2750	1528.37433789	stim	stop-signal	482	1294327	0.0-19.45-1.45	beast_fmri_test	356	1291919,/,1292599,/,1293278,/,1293959,/,1294638,/,1295318,/	t,t,t,t,t,t	<img class = center src='/static/experiments/beast_fmri_test/images/P.png'></img>	71,89	2750.0	test	<img class = center src='/static/experiments/beast_fmri_test/images/redP.png'></img>	stop	2200.0	1.0	45.0	stop	non-target	P	71,Index Finger	89,Middle Finger	550.0	550.0	2250.0	2200.0	0.0	550.0	1.0	n/a	ITI
225603	15000.0	n/a	-1	-1	15000	0.0	practice-no-stop-feedback	poldrack-single-stim	483	1310901	0.0-20.0	beast_fmri_test	356	1295998,/,1296676,/,1297357,/,1298037,/,1298717,/,1299396,/,1300076,/,1300754,/,1301434,/,1302114,/,1302794,/,1303474,/,1304154,/,1304833,/,1305513,/,1306192,/,1306871,/,1307550,/,1308232,/,1308912,/,1309591,/,1310270,/	t,t,t,t,t,t,t,t,t,t,t,t,t,t,t,t,t,t,t,t,t,t	"<div class = ""centerbox""><p class = ""block-text"">Your delay is 1 trials.</p><p class = block-text>Please wait for the scanner to start the block</p></div>"	77	15000.0	n/a	n/a	n/a	n/a	n/a	n/a	n/a	n/a	n/a	n/a	n/a	n/a	n/a	n/a	n/a	n/a	n/a	n/a	n/a	practice-no-stop-feedback
226107	500.0	n/a	-1	-1	500	0.0	fixation	poldrack-single-stim	484	1311405	0.0-21.0-0.0	beast_fmri_test	356	1310949,/	t	<div class = centerbox2><div class = fixation>+</div></div>	none	500.0	test	n/a	n/a	n/a	n/a	n/a	n/a	n/a	n/a	n/a	n/a	n/a	n/a	n/a	n/a	n/a	n/a	n/a	n/a	fixation
225610.74400551105	2750.0	n/a	803	89	2750	498.255994489	stim	stop-signal	485	1314157	0.0-21.0-1.0	beast_fmri_test	356	1311630,/,1312308,/,1312989,/,1313669,/,1314349,/	t,t,t,t,t	<img class = center src='/static/experiments/beast_fmri_test/images/P.png'></img>	71,89	2750.0	test	<img class = center src='/static/experiments/beast_fmri_test/images/redP.png'></img>	go	-1.0	1.0	0.0	go	temp-non-target	P	71,Index Finger	89,Middle Finger	550.0	600.0	2250.0	2200.0	0.0	n/a	n/a	n/a	go_stim
228360.74400551105	498.255994489	n/a	803	89	2750	498.255994489	stim	stop-signal	485	1314157	0.0-21.0-1.0	beast_fmri_test	356	1311630,/,1312308,/,1312989,/,1313669,/,1314349,/	t,t,t,t,t	<img class = center src='/static/experiments/beast_fmri_test/images/P.png'></img>	71,89	2750.0	test	<img class = center src='/static/experiments/beast_fmri_test/images/redP.png'></img>	go	-1.0	1.0	0.0	go	temp-non-target	P	71,Index Finger	89,Middle Finger	550.0	600.0	2250.0	2200.0	0.0	n/a	n/a	n/a	ITI
229915	500.0	n/a	-1	-1	500	0.0	fixation	poldrack-single-stim	486	1315213	0.0-21.1-0.1	beast_fmri_test	356	1315029,/	t	<div class = centerbox2><div class = fixation>+</div></div>	none	500.0	test	n/a	n/a	n/a	n/a	n/a	n/a	n/a	n/a	n/a	n/a	n/a	n/a	n/a	n/a	n/a	n/a	n/a	n/a	fixation
228307.73121115216	600.0	n/a	656	89	2750	1608.26878885	stim	stop-signal	487	1317964	0.0-21.1-1.1	beast_fmri_test	356	1315707,/,1316387,/,1317067,/,1317745,/,1318426,/,1319105,/	t,t,t,t,t,t	<img class = center src='/static/experiments/beast_fmri_test/images/B.png'></img>	71,89	2750.0	test	<img class = center src='/static/experiments/beast_fmri_test/images/redB.png'></img>	stop	2150.0	1.0	1.0	stop	non-target	B	71,Index Finger	89,Middle Finger	550.0	600.0	2250.0	2150.0	0.0	600.0	0.0	n/a	go_stim
230457.73121115216	2150.0	n/a	656	89	2750	1608.26878885	stim	stop-signal	487	1317964	0.0-21.1-1.1	beast_fmri_test	356	1315707,/,1316387,/,1317067,/,1317745,/,1318426,/,1319105,/	t,t,t,t,t,t	<img class = center src='/static/experiments/beast_fmri_test/images/B.png'></img>	71,89	2750.0	test	<img class = center src='/static/experiments/beast_fmri_test/images/redB.png'></img>	stop	2150.0	1.0	1.0	stop	non-target	B	71,Index Finger	89,Middle Finger	550.0	600.0	2250.0	2150.0	0.0	600.0	0.0	n/a	stop_stim
231057.73121115216	1608.26878885	n/a	656	89	2750	1608.26878885	stim	stop-signal	487	1317964	0.0-21.1-1.1	beast_fmri_test	356	1315707,/,1316387,/,1317067,/,1317745,/,1318426,/,1319105,/	t,t,t,t,t,t	<img class = center src='/static/experiments/beast_fmri_test/images/B.png'></img>	71,89	2750.0	test	<img class = center src='/static/experiments/beast_fmri_test/images/redB.png'></img>	stop	2150.0	1.0	1.0	stop	non-target	B	71,Index Finger	89,Middle Finger	550.0	600.0	2250.0	2150.0	0.0	600.0	0.0	n/a	ITI
234838	500.0	n/a	-1	-1	500	0.0	fixation	poldrack-single-stim	488	1320136	0.0-21.2-0.2	beast_fmri_test	356	1319786,/	t	<div class = centerbox2><div class = fixation>+</div></div>	none	500.0	test	n/a	n/a	n/a	n/a	n/a	n/a	n/a	n/a	n/a	n/a	n/a	n/a	n/a	n/a	n/a	n/a	n/a	n/a	fixation
234698.68923805607	2750.0	n/a	764	89	2750	142.310761944	stim	stop-signal	489	1322889	0.0-21.2-1.2	beast_fmri_test	356	1320465,/,1321145,/,1321824,/,1322505,/	t,t,t,t	<img class = center src='/static/experiments/beast_fmri_test/images/D.png'></img>	71,89	2750.0	test	<img class = center src='/static/experiments/beast_fmri_test/images/redD.png'></img>	go	2200.0	1.0	2.0	go	non-target	D	71,Index Finger	89,Middle Finger	550.0	550.0	2250.0	2200.0	1.0	550.0	n/a	1.0	go_stim
237448.68923805607	142.310761944	n/a	764	89	2750	142.310761944	stim	stop-signal	489	1322889	0.0-21.2-1.2	beast_fmri_test	356	1320465,/,1321145,/,1321824,/,1322505,/	t,t,t,t	<img class = center src='/static/experiments/beast_fmri_test/images/D.png'></img>	71,89	2750.0	test	<img class = center src='/static/experiments/beast_fmri_test/images/redD.png'></img>	go	2200.0	1.0	2.0	go	non-target	D	71,Index Finger	89,Middle Finger	550.0	550.0	2250.0	2200.0	1.0	550.0	n/a	1.0	ITI
238287	500.0	n/a	-1	-1	500	0.0	fixation	poldrack-single-stim	490	1323585	0.0-21.3-0.3	beast_fmri_test	356	1323186,/	t	<div class = centerbox2><div class = fixation>+</div></div>	none	500.0	test	n/a	n/a	n/a	n/a	n/a	n/a	n/a	n/a	n/a	n/a	n/a	n/a	n/a	n/a	n/a	n/a	n/a	n/a	fixation
237994.22322658519	2750.0	n/a	700	89	2750	294.776773415	stim	stop-signal	491	1326337	0.0-21.3-1.3	beast_fmri_test	356	1323864,/,1324544,/,1325224,/,1325903,/,1326584,/	t,t,t,t,t	<img class = center src='/static/experiments/beast_fmri_test/images/V.png'></img>	71,89	2750.0	test	<img class = center src='/static/experiments/beast_fmri_test/images/redV.png'></img>	go	2200.0	1.0	3.0	go	non-target	V	71,Index Finger	89,Middle Finger	550.0	550.0	2250.0	2200.0	1.0	550.0	n/a	1.0	go_stim
240744.22322658519	294.776773415	n/a	700	89	2750	294.776773415	stim	stop-signal	491	1326337	0.0-21.3-1.3	beast_fmri_test	356	1323864,/,1324544,/,1325224,/,1325903,/,1326584,/	t,t,t,t,t	<img class = center src='/static/experiments/beast_fmri_test/images/V.png'></img>	71,89	2750.0	test	<img class = center src='/static/experiments/beast_fmri_test/images/redV.png'></img>	go	2200.0	1.0	3.0	go	non-target	V	71,Index Finger	89,Middle Finger	550.0	550.0	2250.0	2200.0	1.0	550.0	n/a	1.0	ITI
241890	500.0	n/a	-1	-1	500	0.0	fixation	poldrack-single-stim	492	1327188	0.0-21.4-0.4	beast_fmri_test	356	n/a	n/a	<div class = centerbox2><div class = fixation>+</div></div>	none	500.0	test	n/a	n/a	n/a	n/a	n/a	n/a	n/a	n/a	n/a	n/a	n/a	n/a	n/a	n/a	n/a	n/a	n/a	n/a	fixation
236891.0	2750.0	n/a	630	89	2750	5000.0	stim	stop-signal	493	1329939	0.0-21.4-1.4	beast_fmri_test	356	1327264,/,1327942,/,1328622,/,1329301,/,1329981,/,1330661,/,1331340,/,1332021,/,1332700,/,1333379,/,1334060,/,1334738,/	t,t,t,t,t,t,t,t,t,t,t,t	<img class = center src='/static/experiments/beast_fmri_test/images/T.png'></img>	71,89	2750.0	test	<img class = center src='/static/experiments/beast_fmri_test/images/redT.png'></img>	go	2200.0	1.0	4.0	go	non-target	T	71,Index Finger	89,Middle Finger	550.0	550.0	2250.0	2200.0	1.0	550.0	n/a	1.0	go_stim
239641.0	5000.0	n/a	630	89	2750	5000.0	stim	stop-signal	493	1329939	0.0-21.4-1.4	beast_fmri_test	356	1327264,/,1327942,/,1328622,/,1329301,/,1329981,/,1330661,/,1331340,/,1332021,/,1332700,/,1333379,/,1334060,/,1334738,/	t,t,t,t,t,t,t,t,t,t,t,t	<img class = center src='/static/experiments/beast_fmri_test/images/T.png'></img>	71,89	2750.0	test	<img class = center src='/static/experiments/beast_fmri_test/images/redT.png'></img>	go	2200.0	1.0	4.0	go	non-target	T	71,Index Finger	89,Middle Finger	550.0	550.0	2250.0	2200.0	1.0	550.0	n/a	1.0	ITI
250191	500.0	n/a	-1	-1	500	0.0	fixation	poldrack-single-stim	494	1335489	0.0-21.5-0.5	beast_fmri_test	356	1335419,/	t	<div class = centerbox2><div class = fixation>+</div></div>	none	500.0	test	n/a	n/a	n/a	n/a	n/a	n/a	n/a	n/a	n/a	n/a	n/a	n/a	n/a	n/a	n/a	n/a	n/a	n/a	fixation
250079.90513142734	2750.0	n/a	996	89	2750	113.094868573	stim	stop-signal	495	1338241	0.0-21.5-1.5	beast_fmri_test	356	1336098,/,1336778,/,1337458,/,1338138,/	t,t,t,t	<img class = center src='/static/experiments/beast_fmri_test/images/V.png'></img>	71,89	2750.0	test	<img class = center src='/static/experiments/beast_fmri_test/images/redV.png'></img>	go	2200.0	1.0	5.0	go	non-target	V	71,Index Finger	89,Middle Finger	550.0	550.0	2250.0	2200.0	1.0	550.0	n/a	1.0	go_stim
252829.90513142734	113.094868573	n/a	996	89	2750	113.094868573	stim	stop-signal	495	1338241	0.0-21.5-1.5	beast_fmri_test	356	1336098,/,1336778,/,1337458,/,1338138,/	t,t,t,t	<img class = center src='/static/experiments/beast_fmri_test/images/V.png'></img>	71,89	2750.0	test	<img class = center src='/static/experiments/beast_fmri_test/images/redV.png'></img>	go	2200.0	1.0	5.0	go	non-target	V	71,Index Finger	89,Middle Finger	550.0	550.0	2250.0	2200.0	1.0	550.0	n/a	1.0	ITI
253617	500.0	n/a	-1	-1	500	0.0	fixation	poldrack-single-stim	496	1338915	0.0-21.6-0.6	beast_fmri_test	356	1338818,/	t	<div class = centerbox2><div class = fixation>+</div></div>	none	500.0	test	n/a	n/a	n/a	n/a	n/a	n/a	n/a	n/a	n/a	n/a	n/a	n/a	n/a	n/a	n/a	n/a	n/a	n/a	fixation
253367.94626697805	550.0	n/a	738	71	2750	251.053733022	stim	stop-signal	497	1341667	0.0-21.6-1.6	beast_fmri_test	356	1339495,/,1340177,/,1340855,/,1341534,/	t,t,t,t	<img class = center src='/static/experiments/beast_fmri_test/images/V.png'></img>	71,89	2750.0	test	<img class = center src='/static/experiments/beast_fmri_test/images/redV.png'></img>	stop	2200.0	1.0	6.0	stop	target	V	71,Index Finger	89,Middle Finger	550.0	550.0	2200.0	2200.0	0.0	550.0	0.0	n/a	go_stim
255567.94626697805	2200.0	n/a	738	71	2750	251.053733022	stim	stop-signal	497	1341667	0.0-21.6-1.6	beast_fmri_test	356	1339495,/,1340177,/,1340855,/,1341534,/	t,t,t,t	<img class = center src='/static/experiments/beast_fmri_test/images/V.png'></img>	71,89	2750.0	test	<img class = center src='/static/experiments/beast_fmri_test/images/redV.png'></img>	stop	2200.0	1.0	6.0	stop	target	V	71,Index Finger	89,Middle Finger	550.0	550.0	2200.0	2200.0	0.0	550.0	0.0	n/a	stop_stim
256117.94626697805	251.053733022	n/a	738	71	2750	251.053733022	stim	stop-signal	497	1341667	0.0-21.6-1.6	beast_fmri_test	356	1339495,/,1340177,/,1340855,/,1341534,/	t,t,t,t	<img class = center src='/static/experiments/beast_fmri_test/images/V.png'></img>	71,89	2750.0	test	<img class = center src='/static/experiments/beast_fmri_test/images/redV.png'></img>	stop	2200.0	1.0	6.0	stop	target	V	71,Index Finger	89,Middle Finger	550.0	550.0	2200.0	2200.0	0.0	550.0	0.0	n/a	ITI
257178	500.0	n/a	-1	-1	500	0.0	fixation	poldrack-single-stim	498	1342476	0.0-21.7-0.7	beast_fmri_test	356	1342216,/	t	<div class = centerbox2><div class = fixation>+</div></div>	none	500.0	test	n/a	n/a	n/a	n/a	n/a	n/a	n/a	n/a	n/a	n/a	n/a	n/a	n/a	n/a	n/a	n/a	n/a	n/a	fixation
256809.44676621468	550.0	n/a	762	89	2750	368.553233785	stim	stop-signal	499	1345226	0.0-21.7-1.7	beast_fmri_test	356	1342895,/,1343575,/,1344254,/,1344933,/	t,t,t,t	<img class = center src='/static/experiments/beast_fmri_test/images/D.png'></img>	71,89	2750.0	test	<img class = center src='/static/experiments/beast_fmri_test/images/redD.png'></img>	stop	2200.0	1.0	7.0	stop	non-target	D	71,Index Finger	89,Middle Finger	500.0	550.0	2200.0	2200.0	0.0	550.0	0.0	n/a	go_stim
259009.44676621468	2200.0	n/a	762	89	2750	368.553233785	stim	stop-signal	499	1345226	0.0-21.7-1.7	beast_fmri_test	356	1342895,/,1343575,/,1344254,/,1344933,/	t,t,t,t	<img class = center src='/static/experiments/beast_fmri_test/images/D.png'></img>	71,89	2750.0	test	<img class = center src='/static/experiments/beast_fmri_test/images/redD.png'></img>	stop	2200.0	1.0	7.0	stop	non-target	D	71,Index Finger	89,Middle Finger	500.0	550.0	2200.0	2200.0	0.0	550.0	0.0	n/a	stop_stim
259559.44676621468	368.553233785	n/a	762	89	2750	368.553233785	stim	stop-signal	499	1345226	0.0-21.7-1.7	beast_fmri_test	356	1342895,/,1343575,/,1344254,/,1344933,/	t,t,t,t	<img class = center src='/static/experiments/beast_fmri_test/images/D.png'></img>	71,89	2750.0	test	<img class = center src='/static/experiments/beast_fmri_test/images/redD.png'></img>	stop	2200.0	1.0	7.0	stop	non-target	D	71,Index Finger	89,Middle Finger	500.0	550.0	2200.0	2200.0	0.0	550.0	0.0	n/a	ITI
260853	500.0	n/a	-1	-1	500	0.0	fixation	poldrack-single-stim	500	1346151	0.0-21.8-0.8	beast_fmri_test	356	1345649,/	t	<div class = centerbox2><div class = fixation>+</div></div>	none	500.0	test	n/a	n/a	n/a	n/a	n/a	n/a	n/a	n/a	n/a	n/a	n/a	n/a	n/a	n/a	n/a	n/a	n/a	n/a	fixation
260682.16370974039	2750.0	n/a	629	71	2750	172.83629026	stim	stop-signal	501	1348903	0.0-21.8-1.8	beast_fmri_test	356	1346294,/,1346974,/,1347653,/,1348333,/,1349014,/	t,t,t,t,t	<img class = center src='/static/experiments/beast_fmri_test/images/D.png'></img>	71,89	2750.0	test	<img class = center src='/static/experiments/beast_fmri_test/images/redD.png'></img>	go	2250.0	1.0	8.0	go	target	D	71,Index Finger	89,Middle Finger	500.0	500.0	2250.0	2200.0	1.0	500.0	n/a	1.0	go_stim
263432.16370974039	172.83629026	n/a	629	71	2750	172.83629026	stim	stop-signal	501	1348903	0.0-21.8-1.8	beast_fmri_test	356	1346294,/,1346974,/,1347653,/,1348333,/,1349014,/	t,t,t,t,t	<img class = center src='/static/experiments/beast_fmri_test/images/D.png'></img>	71,89	2750.0	test	<img class = center src='/static/experiments/beast_fmri_test/images/redD.png'></img>	go	2250.0	1.0	8.0	go	target	D	71,Index Finger	89,Middle Finger	500.0	500.0	2250.0	2200.0	1.0	500.0	n/a	1.0	ITI
264331	500.0	n/a	-1	-1	500	0.0	fixation	poldrack-single-stim	502	1349629	0.0-21.9-0.9	beast_fmri_test	356	n/a	n/a	<div class = centerbox2><div class = fixation>+</div></div>	none	500.0	test	n/a	n/a	n/a	n/a	n/a	n/a	n/a	n/a	n/a	n/a	n/a	n/a	n/a	n/a	n/a	n/a	n/a	n/a	fixation
260065.89561785199	2750.0	n/a	924	89	2750	4267.10438215	stim	stop-signal	503	1352381	0.0-21.9-1.9	beast_fmri_test	356	1349691,/,1350372,/,1351053,/,1351732,/,1352410,/,1353090,/,1353770,/,1354449,/,1355131,/,1355810,/,1356489,/	t,t,t,t,t,t,t,t,t,t,t	<img class = center src='/static/experiments/beast_fmri_test/images/V.png'></img>	71,89	2750.0	test	<img class = center src='/static/experiments/beast_fmri_test/images/redV.png'></img>	go	2250.0	1.0	9.0	go	non-target	V	71,Index Finger	89,Middle Finger	500.0	500.0	2250.0	2250.0	1.0	500.0	n/a	1.0	go_stim
262815.89561785199	4267.10438215	n/a	924	89	2750	4267.10438215	stim	stop-signal	503	1352381	0.0-21.9-1.9	beast_fmri_test	356	1349691,/,1350372,/,1351053,/,1351732,/,1352410,/,1353090,/,1353770,/,1354449,/,1355131,/,1355810,/,1356489,/	t,t,t,t,t,t,t,t,t,t,t	<img class = center src='/static/experiments/beast_fmri_test/images/V.png'></img>	71,89	2750.0	test	<img class = center src='/static/experiments/beast_fmri_test/images/redV.png'></img>	go	2250.0	1.0	9.0	go	non-target	V	71,Index Finger	89,Middle Finger	500.0	500.0	2250.0	2250.0	1.0	500.0	n/a	1.0	ITI
271908	500.0	n/a	-1	-1	500	0.0	fixation	poldrack-single-stim	504	1357206	0.0-21.10-0.10	beast_fmri_test	356	1357169,/	t	<div class = centerbox2><div class = fixation>+</div></div>	none	500.0	test	n/a	n/a	n/a	n/a	n/a	n/a	n/a	n/a	n/a	n/a	n/a	n/a	n/a	n/a	n/a	n/a	n/a	n/a	fixation
269945.1733682272	2750.0	n/a	891	89	2750	1964.82663177	stim	stop-signal	505	1359958	0.0-21.10-1.10	beast_fmri_test	356	1357849,/,1358528,/,1359209,/,1359887,/,1360568,/,1361247,/	t,t,t,t,t,t	<img class = center src='/static/experiments/beast_fmri_test/images/B.png'></img>	71,89	2750.0	test	<img class = center src='/static/experiments/beast_fmri_test/images/redB.png'></img>	go	2250.0	1.0	10.0	go	non-target	B	71,Index Finger	89,Middle Finger	500.0	500.0	2250.0	2250.0	1.0	500.0	n/a	1.0	go_stim
272695.1733682272	1964.82663177	n/a	891	89	2750	1964.82663177	stim	stop-signal	505	1359958	0.0-21.10-1.10	beast_fmri_test	356	1357849,/,1358528,/,1359209,/,1359887,/,1360568,/,1361247,/	t,t,t,t,t,t	<img class = center src='/static/experiments/beast_fmri_test/images/B.png'></img>	71,89	2750.0	test	<img class = center src='/static/experiments/beast_fmri_test/images/redB.png'></img>	go	2250.0	1.0	10.0	go	non-target	B	71,Index Finger	89,Middle Finger	500.0	500.0	2250.0	2250.0	1.0	500.0	n/a	1.0	ITI
277178	500.0	n/a	-1	-1	500	0.0	fixation	poldrack-single-stim	506	1362476	0.0-21.11-0.11	beast_fmri_test	356	1361975,/	t	<div class = centerbox2><div class = fixation>+</div></div>	none	500.0	test	n/a	n/a	n/a	n/a	n/a	n/a	n/a	n/a	n/a	n/a	n/a	n/a	n/a	n/a	n/a	n/a	n/a	n/a	fixation
276274.92042973009	2750.0	n/a	25	71	2750	905.07957027	stim	stop-signal	507	1365228	0.0-21.11-1.11	beast_fmri_test	356	1362606,/,1363286,/,1363965,/,1364646,/,1365324,/,1366004,/	t,t,t,t,t,t	<img class = center src='/static/experiments/beast_fmri_test/images/D.png'></img>	71,89	2750.0	test	<img class = center src='/static/experiments/beast_fmri_test/images/redD.png'></img>	go	2250.0	1.0	11.0	go	non-target	D	71,Index Finger	89,Middle Finger	500.0	500.0	2250.0	2250.0	0.0	500.0	n/a	0.0	go_stim
279024.92042973009	905.07957027	n/a	25	71	2750	905.07957027	stim	stop-signal	507	1365228	0.0-21.11-1.11	beast_fmri_test	356	1362606,/,1363286,/,1363965,/,1364646,/,1365324,/,1366004,/	t,t,t,t,t,t	<img class = center src='/static/experiments/beast_fmri_test/images/D.png'></img>	71,89	2750.0	test	<img class = center src='/static/experiments/beast_fmri_test/images/redD.png'></img>	go	2250.0	1.0	11.0	go	non-target	D	71,Index Finger	89,Middle Finger	500.0	500.0	2250.0	2250.0	0.0	500.0	n/a	0.0	ITI
281388	500.0	n/a	-1	-1	500	0.0	fixation	poldrack-single-stim	508	1366686	0.0-21.12-0.12	beast_fmri_test	356	1366685,/	t	<div class = centerbox2><div class = fixation>+</div></div>	none	500.0	test	n/a	n/a	n/a	n/a	n/a	n/a	n/a	n/a	n/a	n/a	n/a	n/a	n/a	n/a	n/a	n/a	n/a	n/a	fixation
279517.98644338734	2750.0	n/a	878	71	2750	1872.01355661	stim	stop-signal	509	1369438	0.0-21.12-1.12	beast_fmri_test	356	1367364,/,1368044,/,1368722,/,1369403,/,1370083,/,1370762,/	t,t,t,t,t,t	<img class = center src='/static/experiments/beast_fmri_test/images/D.png'></img>	71,89	2750.0	test	<img class = center src='/static/experiments/beast_fmri_test/images/redD.png'></img>	go	2250.0	1.0	12.0	go	target	D	71,Index Finger	89,Middle Finger	500.0	500.0	2250.0	2250.0	1.0	500.0	n/a	1.0	go_stim
282267.98644338734	1872.01355661	n/a	878	71	2750	1872.01355661	stim	stop-signal	509	1369438	0.0-21.12-1.12	beast_fmri_test	356	1367364,/,1368044,/,1368722,/,1369403,/,1370083,/,1370762,/	t,t,t,t,t,t	<img class = center src='/static/experiments/beast_fmri_test/images/D.png'></img>	71,89	2750.0	test	<img class = center src='/static/experiments/beast_fmri_test/images/redD.png'></img>	go	2250.0	1.0	12.0	go	target	D	71,Index Finger	89,Middle Finger	500.0	500.0	2250.0	2250.0	1.0	500.0	n/a	1.0	ITI
286571	500.0	n/a	-1	-1	500	0.0	fixation	poldrack-single-stim	510	1371869	0.0-21.13-0.13	beast_fmri_test	356	1371442,/	t	<div class = centerbox2><div class = fixation>+</div></div>	none	500.0	test	n/a	n/a	n/a	n/a	n/a	n/a	n/a	n/a	n/a	n/a	n/a	n/a	n/a	n/a	n/a	n/a	n/a	n/a	fixation
285968.7848361677	500.0	n/a	724	89	2750	603.215163832	stim	stop-signal	511	1374620	0.0-21.13-1.13	beast_fmri_test	356	1372122,/,1372800,/,1373480,/,1374161,/,1374840,/	t,t,t,t,t	<img class = center src='/static/experiments/beast_fmri_test/images/P.png'></img>	71,89	2750.0	test	<img class = center src='/static/experiments/beast_fmri_test/images/redP.png'></img>	stop	2250.0	1.0	13.0	stop	non-target	P	71,Index Finger	89,Middle Finger	500.0	500.0	2250.0	2250.0	0.0	500.0	0.0	n/a	go_stim
288218.7848361677	2250.0	n/a	724	89	2750	603.215163832	stim	stop-signal	511	1374620	0.0-21.13-1.13	beast_fmri_test	356	1372122,/,1372800,/,1373480,/,1374161,/,1374840,/	t,t,t,t,t	<img class = center src='/static/experiments/beast_fmri_test/images/P.png'></img>	71,89	2750.0	test	<img class = center src='/static/experiments/beast_fmri_test/images/redP.png'></img>	stop	2250.0	1.0	13.0	stop	non-target	P	71,Index Finger	89,Middle Finger	500.0	500.0	2250.0	2250.0	0.0	500.0	0.0	n/a	stop_stim
288718.7848361677	603.215163832	n/a	724	89	2750	603.215163832	stim	stop-signal	511	1374620	0.0-21.13-1.13	beast_fmri_test	356	1372122,/,1372800,/,1373480,/,1374161,/,1374840,/	t,t,t,t,t	<img class = center src='/static/experiments/beast_fmri_test/images/P.png'></img>	71,89	2750.0	test	<img class = center src='/static/experiments/beast_fmri_test/images/redP.png'></img>	stop	2250.0	1.0	13.0	stop	non-target	P	71,Index Finger	89,Middle Finger	500.0	500.0	2250.0	2250.0	0.0	500.0	0.0	n/a	ITI
290477	500.0	n/a	-1	-1	500	0.0	fixation	poldrack-single-stim	512	1375775	0.0-21.14-0.14	beast_fmri_test	356	1375521,/	t	<div class = centerbox2><div class = fixation>+</div></div>	none	500.0	test	n/a	n/a	n/a	n/a	n/a	n/a	n/a	n/a	n/a	n/a	n/a	n/a	n/a	n/a	n/a	n/a	n/a	n/a	fixation
290452.20760148531	450.0	n/a	-1	-1	2750	26.7923985146	stim	stop-signal	513	1378527	0.0-21.14-1.14	beast_fmri_test	356	1376200,/,1376879,/,1377562,/,1378240,/	t,t,t,t	<img class = center src='/static/experiments/beast_fmri_test/images/D.png'></img>	71,89	2750.0	test	<img class = center src='/static/experiments/beast_fmri_test/images/redD.png'></img>	stop	2300.0	1.0	14.0	stop	non-target	D	71,Index Finger	89,Middle Finger	500.0	450.0	2250.0	2300.0	0.0	450.0	1.0	n/a	go_stim
292752.20760148531	2300.0	n/a	-1	-1	2750	26.7923985146	stim	stop-signal	513	1378527	0.0-21.14-1.14	beast_fmri_test	356	1376200,/,1376879,/,1377562,/,1378240,/	t,t,t,t	<img class = center src='/static/experiments/beast_fmri_test/images/D.png'></img>	71,89	2750.0	test	<img class = center src='/static/experiments/beast_fmri_test/images/redD.png'></img>	stop	2300.0	1.0	14.0	stop	non-target	D	71,Index Finger	89,Middle Finger	500.0	450.0	2250.0	2300.0	0.0	450.0	1.0	n/a	stop_stim
293202.20760148531	26.7923985146	n/a	-1	-1	2750	26.7923985146	stim	stop-signal	513	1378527	0.0-21.14-1.14	beast_fmri_test	356	1376200,/,1376879,/,1377562,/,1378240,/	t,t,t,t	<img class = center src='/static/experiments/beast_fmri_test/images/D.png'></img>	71,89	2750.0	test	<img class = center src='/static/experiments/beast_fmri_test/images/redD.png'></img>	stop	2300.0	1.0	14.0	stop	non-target	D	71,Index Finger	89,Middle Finger	500.0	450.0	2250.0	2300.0	0.0	450.0	1.0	n/a	ITI
293809	500.0	n/a	-1	-1	500	0.0	fixation	poldrack-single-stim	514	1379107	0.0-21.15-0.15	beast_fmri_test	356	1378919,/	t	<div class = centerbox2><div class = fixation>+</div></div>	none	500.0	test	n/a	n/a	n/a	n/a	n/a	n/a	n/a	n/a	n/a	n/a	n/a	n/a	n/a	n/a	n/a	n/a	n/a	n/a	fixation
291050.50193877448	2750.0	n/a	752	89	2750	2761.49806123	stim	stop-signal	515	1381860	0.0-21.15-1.15	beast_fmri_test	356	1379599,/,1380279,/,1380958,/,1381637,/,1382318,/,1382997,/,1383677,/,1384357,/	t,t,t,t,t,t,t,t	<img class = center src='/static/experiments/beast_fmri_test/images/P.png'></img>	71,89	2750.0	test	<img class = center src='/static/experiments/beast_fmri_test/images/redP.png'></img>	go	2250.0	1.0	15.0	go	non-target	P	71,Index Finger	89,Middle Finger	500.0	500.0	2250.0	2250.0	1.0	500.0	n/a	1.0	go_stim
293800.50193877448	2761.49806123	n/a	752	89	2750	2761.49806123	stim	stop-signal	515	1381860	0.0-21.15-1.15	beast_fmri_test	356	1379599,/,1380279,/,1380958,/,1381637,/,1382318,/,1382997,/,1383677,/,1384357,/	t,t,t,t,t,t,t,t	<img class = center src='/static/experiments/beast_fmri_test/images/P.png'></img>	71,89	2750.0	test	<img class = center src='/static/experiments/beast_fmri_test/images/redP.png'></img>	go	2250.0	1.0	15.0	go	non-target	P	71,Index Finger	89,Middle Finger	500.0	500.0	2250.0	2250.0	1.0	500.0	n/a	1.0	ITI
299878	500.0	n/a	-1	-1	500	0.0	fixation	poldrack-single-stim	516	1385176	0.0-21.16-0.16	beast_fmri_test	356	1385037,/	t	<div class = centerbox2><div class = fixation>+</div></div>	none	500.0	test	n/a	n/a	n/a	n/a	n/a	n/a	n/a	n/a	n/a	n/a	n/a	n/a	n/a	n/a	n/a	n/a	n/a	n/a	fixation
298790.85588701256	2750.0	n/a	538	71	2750	1089.14411299	stim	stop-signal	517	1387928	0.0-21.16-1.16	beast_fmri_test	356	1385716,/,1386395,/,1387074,/,1387754,/,1388434,/	t,t,t,t,t	<img class = center src='/static/experiments/beast_fmri_test/images/P.png'></img>	71,89	2750.0	test	<img class = center src='/static/experiments/beast_fmri_test/images/redP.png'></img>	go	2250.0	1.0	16.0	go	target	P	71,Index Finger	89,Middle Finger	500.0	500.0	2250.0	2250.0	1.0	500.0	n/a	1.0	go_stim
301540.85588701256	1089.14411299	n/a	538	71	2750	1089.14411299	stim	stop-signal	517	1387928	0.0-21.16-1.16	beast_fmri_test	356	1385716,/,1386395,/,1387074,/,1387754,/,1388434,/	t,t,t,t,t	<img class = center src='/static/experiments/beast_fmri_test/images/P.png'></img>	71,89	2750.0	test	<img class = center src='/static/experiments/beast_fmri_test/images/redP.png'></img>	go	2250.0	1.0	16.0	go	target	P	71,Index Finger	89,Middle Finger	500.0	500.0	2250.0	2250.0	1.0	500.0	n/a	1.0	ITI
304271	500.0	n/a	-1	-1	500	0.0	fixation	poldrack-single-stim	518	1389569	0.0-21.17-0.17	beast_fmri_test	356	1389113,/	t	<div class = centerbox2><div class = fixation>+</div></div>	none	500.0	test	n/a	n/a	n/a	n/a	n/a	n/a	n/a	n/a	n/a	n/a	n/a	n/a	n/a	n/a	n/a	n/a	n/a	n/a	fixation
304175.32345531113	2750.0	n/a	498	89	2750	98.6765446888	stim	stop-signal	519	1392322	0.0-21.17-1.17	beast_fmri_test	356	1389794,/,1390473,/,1391153,/,1391833,/	t,t,t,t	<img class = center src='/static/experiments/beast_fmri_test/images/V.png'></img>	71,89	2750.0	test	<img class = center src='/static/experiments/beast_fmri_test/images/redV.png'></img>	go	2250.0	1.0	17.0	go	non-target	V	71,Index Finger	89,Middle Finger	500.0	500.0	2250.0	2250.0	1.0	500.0	n/a	1.0	go_stim
306925.32345531113	98.6765446888	n/a	498	89	2750	98.6765446888	stim	stop-signal	519	1392322	0.0-21.17-1.17	beast_fmri_test	356	1389794,/,1390473,/,1391153,/,1391833,/	t,t,t,t	<img class = center src='/static/experiments/beast_fmri_test/images/V.png'></img>	71,89	2750.0	test	<img class = center src='/static/experiments/beast_fmri_test/images/redV.png'></img>	go	2250.0	1.0	17.0	go	non-target	V	71,Index Finger	89,Middle Finger	500.0	500.0	2250.0	2250.0	1.0	500.0	n/a	1.0	ITI
307680	500.0	n/a	-1	-1	500	0.0	fixation	poldrack-single-stim	520	1392978	0.0-21.18-0.18	beast_fmri_test	356	1392513,/	t	<div class = centerbox2><div class = fixation>+</div></div>	none	500.0	test	n/a	n/a	n/a	n/a	n/a	n/a	n/a	n/a	n/a	n/a	n/a	n/a	n/a	n/a	n/a	n/a	n/a	n/a	fixation
307174.4454456293	500.0	n/a	-1	-1	2750	507.554554371	stim	stop-signal	521	1395730	0.0-21.18-1.18	beast_fmri_test	356	1393193,/,1393871,/,1394552,/,1395231,/,1395911,/	t,t,t,t,t	<img class = center src='/static/experiments/beast_fmri_test/images/V.png'></img>	71,89	2750.0	test	<img class = center src='/static/experiments/beast_fmri_test/images/redV.png'></img>	stop	2250.0	1.0	18.0	stop	target	V	71,Index Finger	89,Middle Finger	500.0	500.0	2250.0	2250.0	0.0	500.0	1.0	n/a	go_stim
309424.4454456293	2250.0	n/a	-1	-1	2750	507.554554371	stim	stop-signal	521	1395730	0.0-21.18-1.18	beast_fmri_test	356	1393193,/,1393871,/,1394552,/,1395231,/,1395911,/	t,t,t,t,t	<img class = center src='/static/experiments/beast_fmri_test/images/V.png'></img>	71,89	2750.0	test	<img class = center src='/static/experiments/beast_fmri_test/images/redV.png'></img>	stop	2250.0	1.0	18.0	stop	target	V	71,Index Finger	89,Middle Finger	500.0	500.0	2250.0	2250.0	0.0	500.0	1.0	n/a	stop_stim
309924.4454456293	507.554554371	n/a	-1	-1	2750	507.554554371	stim	stop-signal	521	1395730	0.0-21.18-1.18	beast_fmri_test	356	1393193,/,1393871,/,1394552,/,1395231,/,1395911,/	t,t,t,t,t	<img class = center src='/static/experiments/beast_fmri_test/images/V.png'></img>	71,89	2750.0	test	<img class = center src='/static/experiments/beast_fmri_test/images/redV.png'></img>	stop	2250.0	1.0	18.0	stop	target	V	71,Index Finger	89,Middle Finger	500.0	500.0	2250.0	2250.0	0.0	500.0	1.0	n/a	ITI
311498	500.0	n/a	-1	-1	500	0.0	fixation	poldrack-single-stim	522	1396796	0.0-21.19-0.19	beast_fmri_test	356	1396590,/	t	<div class = centerbox2><div class = fixation>+</div></div>	none	500.0	test	n/a	n/a	n/a	n/a	n/a	n/a	n/a	n/a	n/a	n/a	n/a	n/a	n/a	n/a	n/a	n/a	n/a	n/a	fixation
310945.13427664386	2750.0	n/a	923	71	2750	554.865723356	stim	stop-signal	523	1399548	0.0-21.19-1.19	beast_fmri_test	356	1397271,/,1397951,/,1398630,/,1399309,/,1399989,/	t,t,t,t,t	<img class = center src='/static/experiments/beast_fmri_test/images/V.png'></img>	71,89	2750.0	test	<img class = center src='/static/experiments/beast_fmri_test/images/redV.png'></img>	go	2200.0	1.0	19.0	go	target	V	71,Index Finger	89,Middle Finger	550.0	500.0	2200.0	2250.0	1.0	550.0	n/a	1.0	go_stim
313695.13427664386	554.865723356	n/a	923	71	2750	554.865723356	stim	stop-signal	523	1399548	0.0-21.19-1.19	beast_fmri_test	356	1397271,/,1397951,/,1398630,/,1399309,/,1399989,/	t,t,t,t,t	<img class = center src='/static/experiments/beast_fmri_test/images/V.png'></img>	71,89	2750.0	test	<img class = center src='/static/experiments/beast_fmri_test/images/redV.png'></img>	go	2200.0	1.0	19.0	go	target	V	71,Index Finger	89,Middle Finger	550.0	500.0	2200.0	2250.0	1.0	550.0	n/a	1.0	ITI
315362	500.0	n/a	-1	-1	500	0.0	fixation	poldrack-single-stim	524	1400660	0.0-21.20-0.20	beast_fmri_test	356	n/a	n/a	<div class = centerbox2><div class = fixation>+</div></div>	none	500.0	test	n/a	n/a	n/a	n/a	n/a	n/a	n/a	n/a	n/a	n/a	n/a	n/a	n/a	n/a	n/a	n/a	n/a	n/a	fixation
314267.39743083948	2750.0	n/a	1151	89	2750	1096.60256916	stim	stop-signal	525	1403412	0.0-21.20-1.20	beast_fmri_test	356	1400668,/,1401348,/,1402027,/,1402708,/,1403386,/,1404066,/	t,t,t,t,t,t	<img class = center src='/static/experiments/beast_fmri_test/images/T.png'></img>	71,89	2750.0	test	<img class = center src='/static/experiments/beast_fmri_test/images/redT.png'></img>	go	2250.0	1.0	20.0	go	non-target	T	71,Index Finger	89,Middle Finger	550.0	500.0	2200.0	2250.0	1.0	500.0	n/a	1.0	go_stim
317017.39743083948	1096.60256916	n/a	1151	89	2750	1096.60256916	stim	stop-signal	525	1403412	0.0-21.20-1.20	beast_fmri_test	356	1400668,/,1401348,/,1402027,/,1402708,/,1403386,/,1404066,/	t,t,t,t,t,t	<img class = center src='/static/experiments/beast_fmri_test/images/T.png'></img>	71,89	2750.0	test	<img class = center src='/static/experiments/beast_fmri_test/images/redT.png'></img>	go	2250.0	1.0	20.0	go	non-target	T	71,Index Finger	89,Middle Finger	550.0	500.0	2200.0	2250.0	1.0	500.0	n/a	1.0	ITI
319765	500.0	n/a	-1	-1	500	0.0	fixation	poldrack-single-stim	526	1405063	0.0-21.21-0.21	beast_fmri_test	356	1404745,/	t	<div class = centerbox2><div class = fixation>+</div></div>	none	500.0	test	n/a	n/a	n/a	n/a	n/a	n/a	n/a	n/a	n/a	n/a	n/a	n/a	n/a	n/a	n/a	n/a	n/a	n/a	fixation
318097.76087928447	2750.0	n/a	833	89	2750	1668.23912072	stim	stop-signal	527	1407814	0.0-21.21-1.21	beast_fmri_test	356	1405427,/,1406107,/,1406786,/,1407465,/,1408146,/,1408824,/	t,t,t,t,t,t	<img class = center src='/static/experiments/beast_fmri_test/images/D.png'></img>	71,89	2750.0	test	<img class = center src='/static/experiments/beast_fmri_test/images/redD.png'></img>	go	2250.0	1.0	21.0	go	non-target	D	71,Index Finger	89,Middle Finger	550.0	500.0	2200.0	2250.0	1.0	500.0	n/a	1.0	go_stim
320847.76087928447	1668.23912072	n/a	833	89	2750	1668.23912072	stim	stop-signal	527	1407814	0.0-21.21-1.21	beast_fmri_test	356	1405427,/,1406107,/,1406786,/,1407465,/,1408146,/,1408824,/	t,t,t,t,t,t	<img class = center src='/static/experiments/beast_fmri_test/images/D.png'></img>	71,89	2750.0	test	<img class = center src='/static/experiments/beast_fmri_test/images/redD.png'></img>	go	2250.0	1.0	21.0	go	non-target	D	71,Index Finger	89,Middle Finger	550.0	500.0	2200.0	2250.0	1.0	500.0	n/a	1.0	ITI
324742	500.0	n/a	-1	-1	500	0.0	fixation	poldrack-single-stim	528	1410040	0.0-21.22-0.22	beast_fmri_test	356	1409538,/	t	<div class = centerbox2><div class = fixation>+</div></div>	none	500.0	test	n/a	n/a	n/a	n/a	n/a	n/a	n/a	n/a	n/a	n/a	n/a	n/a	n/a	n/a	n/a	n/a	n/a	n/a	fixation
322340.25588191324	500.0	n/a	912	89	2750	2403.74411809	stim	stop-signal	529	1412792	0.0-21.22-1.22	beast_fmri_test	356	1410185,/,1410863,/,1411544,/,1412224,/,1412903,/,1413583,/,1414262,/,1414942,/	t,t,t,t,t,t,t,t	<img class = center src='/static/experiments/beast_fmri_test/images/T.png'></img>	71,89	2750.0	test	<img class = center src='/static/experiments/beast_fmri_test/images/redT.png'></img>	stop	2250.0	1.0	22.0	stop	non-target	T	71,Index Finger	89,Middle Finger	550.0	500.0	2200.0	2250.0	0.0	500.0	0.0	n/a	go_stim
324590.25588191324	2250.0	n/a	912	89	2750	2403.74411809	stim	stop-signal	529	1412792	0.0-21.22-1.22	beast_fmri_test	356	1410185,/,1410863,/,1411544,/,1412224,/,1412903,/,1413583,/,1414262,/,1414942,/	t,t,t,t,t,t,t,t	<img class = center src='/static/experiments/beast_fmri_test/images/T.png'></img>	71,89	2750.0	test	<img class = center src='/static/experiments/beast_fmri_test/images/redT.png'></img>	stop	2250.0	1.0	22.0	stop	non-target	T	71,Index Finger	89,Middle Finger	550.0	500.0	2200.0	2250.0	0.0	500.0	0.0	n/a	stop_stim
325090.25588191324	2403.74411809	n/a	912	89	2750	2403.74411809	stim	stop-signal	529	1412792	0.0-21.22-1.22	beast_fmri_test	356	1410185,/,1410863,/,1411544,/,1412224,/,1412903,/,1413583,/,1414262,/,1414942,/	t,t,t,t,t,t,t,t	<img class = center src='/static/experiments/beast_fmri_test/images/T.png'></img>	71,89	2750.0	test	<img class = center src='/static/experiments/beast_fmri_test/images/redT.png'></img>	stop	2250.0	1.0	22.0	stop	non-target	T	71,Index Finger	89,Middle Finger	550.0	500.0	2200.0	2250.0	0.0	500.0	0.0	n/a	ITI
330460	500.0	n/a	-1	-1	500	0.0	fixation	poldrack-single-stim	530	1415758	0.0-21.23-0.23	beast_fmri_test	356	1415623,/	t	<div class = centerbox2><div class = fixation>+</div></div>	none	500.0	test	n/a	n/a	n/a	n/a	n/a	n/a	n/a	n/a	n/a	n/a	n/a	n/a	n/a	n/a	n/a	n/a	n/a	n/a	fixation
