onset	duration	text	rt	key_press	block_duration	timing_post_trial	trial_id	trial_type	trial_index	time_elapsed	internal_node_id	exp_id	subject_id	trigger_times	triggers	stimulus	possible_responses	stim_duration	exp_stage	SS_stimulus	SS_trial_type	SS_duration	load	trial_num	stop_trial_type	adaptive_trial_type	stim	yes_response_key	no_response_key	SSD_target	SSD_non_target	SSTarget	SSNonTarget	go_acc	stop_acc	SS_delay	adaptive_acc	new_trial_type
test	10880	n/a	-1	-1	10880	0.0	practice-no-stop-feedback	poldrack-single-stim	6	35253	0.0-6.0	beast_fmri_test	300	24371,/,25049,/,25730,/,26410,/,27089,/,27769,/,28449,/,29129,/,29809,/,30490,/,31169,/,31850,/,32530,/,33209,/,33889,/,34570,/,35250,/	t,t,t,t,t,t,t,t,t,t,t,t,t,t,t,t,t	"<div class = ""centerbox""><p class = ""center-block-text"">Your delay is 2 trials.</p><p class = center-block-text>Please wait for the scanner to start the block</p></div>"	77	10880.0	n/a	n/a	n/a	n/a	n/a	n/a	n/a	n/a	n/a	n/a	n/a	n/a	n/a	n/a	n/a	n/a	n/a	n/a	n/a	start_functional_block
11383	500	n/a	-1	-1	500	0.0	fixation	poldrack-single-stim	7	35754	0.0-7.0-0.0	beast_fmri_test	300	n/a	n/a	<div class = centerbox><div class = fixation>+</div></div>	none	500.0	test	n/a	n/a	n/a	n/a	n/a	n/a	n/a	n/a	n/a	n/a	n/a	n/a	n/a	n/a	n/a	n/a	n/a	n/a	fixation
11304.106043130247	temp_go_duration	n/a	1214	89	2750	83.8939568698	stim	stop-signal	8	38509	0.0-7.0-1.0	beast_fmri_test	300	35931,/,36611,/,37290,/,37970,/	t,t,t,t	<img class = center src='/static/experiments/beast_fmri_test/images/B.png'></img>	71,89	2750.0	test	<img class = center src='/static/experiments/beast_fmri_test/images/redB.png'></img>	stop	-1.0	2.0	0.0	stop	temp-non-target	B	71,Green Button	89,Yellow Button	500.0	500.0	0.0	0.0	0.0	0.0	n/a	n/a	go_stim
temp-non-target	temp_stop_duration	n/a	1214	89	2750	83.8939568698	stim	stop-signal	8	38509	0.0-7.0-1.0	beast_fmri_test	300	35931,/,36611,/,37290,/,37970,/	t,t,t,t	<img class = center src='/static/experiments/beast_fmri_test/images/B.png'></img>	71,89	2750.0	test	<img class = center src='/static/experiments/beast_fmri_test/images/redB.png'></img>	stop	-1.0	2.0	0.0	stop	temp-non-target	B	71,Green Button	89,Yellow Button	500.0	500.0	0.0	0.0	0.0	0.0	n/a	n/a	stop_stim
14054.106043130247	83.893956869756096	n/a	1214	89	2750	83.8939568698	stim	stop-signal	8	38509	0.0-7.0-1.0	beast_fmri_test	300	35931,/,36611,/,37290,/,37970,/	t,t,t,t	<img class = center src='/static/experiments/beast_fmri_test/images/B.png'></img>	71,89	2750.0	test	<img class = center src='/static/experiments/beast_fmri_test/images/redB.png'></img>	stop	-1.0	2.0	0.0	stop	temp-non-target	B	71,Green Button	89,Yellow Button	500.0	500.0	0.0	0.0	0.0	0.0	n/a	n/a	ITI
14729	500	n/a	-1	-1	500	0.0	fixation	poldrack-single-stim	9	39100	0.0-7.1-0.1	beast_fmri_test	300	38650,/	t	<div class = centerbox><div class = fixation>+</div></div>	none	500.0	test	n/a	n/a	n/a	n/a	n/a	n/a	n/a	n/a	n/a	n/a	n/a	n/a	n/a	n/a	n/a	n/a	n/a	n/a	fixation
12769.996420307391	2750	n/a	1142	89	2750	1962.00357969	stim	stop-signal	10	41853	0.0-7.1-1.1	beast_fmri_test	300	39330,/,40010,/,40690,/,41370,/,42050,/,42730,/,43410,/	t,t,t,t,t,t,t	<img class = center src='/static/experiments/beast_fmri_test/images/P.png'></img>	71,89	2750.0	test	<img class = center src='/static/experiments/beast_fmri_test/images/redP.png'></img>	go	-1.0	2.0	1.0	go	temp-non-target	P	71,Green Button	89,Yellow Button	500.0	500.0	0.0	0.0	0.0	n/a	n/a	n/a	go_stim
15519.996420307391	1962.0035796926099	n/a	1142	89	2750	1962.00357969	stim	stop-signal	10	41853	0.0-7.1-1.1	beast_fmri_test	300	39330,/,40010,/,40690,/,41370,/,42050,/,42730,/,43410,/	t,t,t,t,t,t,t	<img class = center src='/static/experiments/beast_fmri_test/images/P.png'></img>	71,89	2750.0	test	<img class = center src='/static/experiments/beast_fmri_test/images/redP.png'></img>	go	-1.0	2.0	1.0	go	temp-non-target	P	71,Green Button	89,Yellow Button	500.0	500.0	0.0	0.0	0.0	n/a	n/a	n/a	ITI
19948	500	n/a	-1	-1	500	0.0	fixation	poldrack-single-stim	11	44319	0.0-7.2-0.2	beast_fmri_test	300	44091,/	t	<div class = centerbox><div class = fixation>+</div></div>	none	500.0	test	n/a	n/a	n/a	n/a	n/a	n/a	n/a	n/a	n/a	n/a	n/a	n/a	n/a	n/a	n/a	n/a	n/a	n/a	fixation
18861.604551422999	2750	n/a	986	89	2750	1088.39544858	stim	stop-signal	12	47071	0.0-7.2-1.2	beast_fmri_test	300	44771,/,45450,/,46130,/,46810,/,47490,/	t,t,t,t,t	<img class = center src='/static/experiments/beast_fmri_test/images/D.png'></img>	71,89	2750.0	test	<img class = center src='/static/experiments/beast_fmri_test/images/redD.png'></img>	go	2250.0	2.0	2.0	go	non-target	D	71,Green Button	89,Yellow Button	500.0	500.0	0.0	2250.0	1.0	n/a	500.0	1.0	go_stim
21611.604551422999	1088.395448577	n/a	986	89	2750	1088.39544858	stim	stop-signal	12	47071	0.0-7.2-1.2	beast_fmri_test	300	44771,/,45450,/,46130,/,46810,/,47490,/	t,t,t,t,t	<img class = center src='/static/experiments/beast_fmri_test/images/D.png'></img>	71,89	2750.0	test	<img class = center src='/static/experiments/beast_fmri_test/images/redD.png'></img>	go	2250.0	2.0	2.0	go	non-target	D	71,Green Button	89,Yellow Button	500.0	500.0	0.0	2250.0	1.0	n/a	500.0	1.0	ITI
24293	500	n/a	-1	-1	500	0.0	fixation	poldrack-single-stim	13	48664	0.0-7.3-0.3	beast_fmri_test	300	48170,/	t	<div class = centerbox><div class = fixation>+</div></div>	none	500.0	test	n/a	n/a	n/a	n/a	n/a	n/a	n/a	n/a	n/a	n/a	n/a	n/a	n/a	n/a	n/a	n/a	n/a	n/a	fixation
24063.103947697608	500.0	n/a	898	89	2750	231.896052302	stim	stop-signal	14	51416	0.0-7.3-1.3	beast_fmri_test	300	48850,/,49530,/,50210,/,50890,/,51570,/	t,t,t,t,t	<img class = center src='/static/experiments/beast_fmri_test/images/D.png'></img>	71,89	2750.0	test	<img class = center src='/static/experiments/beast_fmri_test/images/redD.png'></img>	stop	2250.0	2.0	3.0	stop	non-target	D	71,Green Button	89,Yellow Button	500.0	500.0	0.0	2250.0	0.0	0.0	500.0	1.0	go_stim
26313.103947697608	2250.0	n/a	898	89	2750	231.896052302	stim	stop-signal	14	51416	0.0-7.3-1.3	beast_fmri_test	300	48850,/,49530,/,50210,/,50890,/,51570,/	t,t,t,t,t	<img class = center src='/static/experiments/beast_fmri_test/images/D.png'></img>	71,89	2750.0	test	<img class = center src='/static/experiments/beast_fmri_test/images/redD.png'></img>	stop	2250.0	2.0	3.0	stop	non-target	D	71,Green Button	89,Yellow Button	500.0	500.0	0.0	2250.0	0.0	0.0	500.0	1.0	stop_stim
26813.103947697608	231.89605230239499	n/a	898	89	2750	231.896052302	stim	stop-signal	14	51416	0.0-7.3-1.3	beast_fmri_test	300	48850,/,49530,/,50210,/,50890,/,51570,/	t,t,t,t,t	<img class = center src='/static/experiments/beast_fmri_test/images/D.png'></img>	71,89	2750.0	test	<img class = center src='/static/experiments/beast_fmri_test/images/redD.png'></img>	stop	2250.0	2.0	3.0	stop	non-target	D	71,Green Button	89,Yellow Button	500.0	500.0	0.0	2250.0	0.0	0.0	500.0	1.0	ITI
27781	500	n/a	-1	-1	500	0.0	fixation	poldrack-single-stim	15	52152	0.0-7.4-0.4	beast_fmri_test	300	n/a	n/a	<div class = centerbox><div class = fixation>+</div></div>	none	500.0	test	n/a	n/a	n/a	n/a	n/a	n/a	n/a	n/a	n/a	n/a	n/a	n/a	n/a	n/a	n/a	n/a	n/a	n/a	fixation
25819.912784572989	2750	n/a	1343	89	2750	1963.08721543	stim	stop-signal	16	54904	0.0-7.4-1.4	beast_fmri_test	300	52250,/,52930,/,53610,/,54290,/,54971,/,55650,/,56330,/	t,t,t,t,t,t,t	<img class = center src='/static/experiments/beast_fmri_test/images/B.png'></img>	71,89	2750.0	test	<img class = center src='/static/experiments/beast_fmri_test/images/redB.png'></img>	go	2300.0	2.0	4.0	go	non-target	B	71,Green Button	89,Yellow Button	500.0	450.0	0.0	2300.0	1.0	n/a	450.0	1.0	go_stim
28569.912784572989	1963.0872154270101	n/a	1343	89	2750	1963.08721543	stim	stop-signal	16	54904	0.0-7.4-1.4	beast_fmri_test	300	52250,/,52930,/,53610,/,54290,/,54971,/,55650,/,56330,/	t,t,t,t,t,t,t	<img class = center src='/static/experiments/beast_fmri_test/images/B.png'></img>	71,89	2750.0	test	<img class = center src='/static/experiments/beast_fmri_test/images/redB.png'></img>	go	2300.0	2.0	4.0	go	non-target	B	71,Green Button	89,Yellow Button	500.0	450.0	0.0	2300.0	1.0	n/a	450.0	1.0	ITI
32999	500	n/a	-1	-1	500	0.0	fixation	poldrack-single-stim	17	57370	0.0-7.5-0.5	beast_fmri_test	300	57010,/	t	<div class = centerbox><div class = fixation>+</div></div>	none	500.0	test	n/a	n/a	n/a	n/a	n/a	n/a	n/a	n/a	n/a	n/a	n/a	n/a	n/a	n/a	n/a	n/a	n/a	n/a	fixation
30726.913461212709	2750	n/a	1224	89	2750	2274.08653879	stim	stop-signal	18	60122	0.0-7.5-1.5	beast_fmri_test	300	57690,/,58370,/,59050,/,59730,/,60410,/,61090,/,61770,/	t,t,t,t,t,t,t	<img class = center src='/static/experiments/beast_fmri_test/images/P.png'></img>	71,89	2750.0	test	<img class = center src='/static/experiments/beast_fmri_test/images/redP.png'></img>	go	2300.0	2.0	5.0	go	non-target	P	71,Green Button	89,Yellow Button	500.0	450.0	0.0	2300.0	1.0	n/a	450.0	1.0	go_stim
33476.913461212709	2274.08653878729	n/a	1224	89	2750	2274.08653879	stim	stop-signal	18	60122	0.0-7.5-1.5	beast_fmri_test	300	57690,/,58370,/,59050,/,59730,/,60410,/,61090,/,61770,/	t,t,t,t,t,t,t	<img class = center src='/static/experiments/beast_fmri_test/images/P.png'></img>	71,89	2750.0	test	<img class = center src='/static/experiments/beast_fmri_test/images/redP.png'></img>	go	2300.0	2.0	5.0	go	non-target	P	71,Green Button	89,Yellow Button	500.0	450.0	0.0	2300.0	1.0	n/a	450.0	1.0	ITI
38530	500	n/a	-1	-1	500	0.0	fixation	poldrack-single-stim	19	62901	0.0-7.6-0.6	beast_fmri_test	300	62450,/	t	<div class = centerbox><div class = fixation>+</div></div>	none	500.0	test	n/a	n/a	n/a	n/a	n/a	n/a	n/a	n/a	n/a	n/a	n/a	n/a	n/a	n/a	n/a	n/a	n/a	n/a	fixation
38233.512465909844	2750	n/a	1047	71	2750	297.48753409	stim	stop-signal	20	65652	0.0-7.6-1.6	beast_fmri_test	300	63130,/,63810,/,64490,/,65170,/,65850,/	t,t,t,t,t	<img class = center src='/static/experiments/beast_fmri_test/images/B.png'></img>	71,89	2750.0	test	<img class = center src='/static/experiments/beast_fmri_test/images/redB.png'></img>	go	2250.0	2.0	6.0	go	target	B	71,Green Button	89,Yellow Button	500.0	450.0	2250.0	2300.0	1.0	n/a	500.0	1.0	go_stim
40983.512465909844	297.48753409015302	n/a	1047	71	2750	297.48753409	stim	stop-signal	20	65652	0.0-7.6-1.6	beast_fmri_test	300	63130,/,63810,/,64490,/,65170,/,65850,/	t,t,t,t,t	<img class = center src='/static/experiments/beast_fmri_test/images/B.png'></img>	71,89	2750.0	test	<img class = center src='/static/experiments/beast_fmri_test/images/redB.png'></img>	go	2250.0	2.0	6.0	go	target	B	71,Green Button	89,Yellow Button	500.0	450.0	2250.0	2300.0	1.0	n/a	500.0	1.0	ITI
42083	500	n/a	-1	-1	500	0.0	fixation	poldrack-single-stim	21	66454	0.0-7.7-0.7	beast_fmri_test	300	n/a	n/a	<div class = centerbox><div class = fixation>+</div></div>	none	500.0	test	n/a	n/a	n/a	n/a	n/a	n/a	n/a	n/a	n/a	n/a	n/a	n/a	n/a	n/a	n/a	n/a	n/a	n/a	fixation
41372.887039866284	2750	n/a	1221	89	2750	712.112960134	stim	stop-signal	22	69206	0.0-7.7-1.7	beast_fmri_test	300	66530,/,67210,/,67891,/,68570,/,69251,/	t,t,t,t,t	<img class = center src='/static/experiments/beast_fmri_test/images/B.png'></img>	71,89	2750.0	test	<img class = center src='/static/experiments/beast_fmri_test/images/redB.png'></img>	go	2300.0	2.0	7.0	go	non-target	B	71,Green Button	89,Yellow Button	500.0	450.0	2250.0	2300.0	1.0	n/a	450.0	1.0	go_stim
44122.887039866284	712.11296013371498	n/a	1221	89	2750	712.112960134	stim	stop-signal	22	69206	0.0-7.7-1.7	beast_fmri_test	300	66530,/,67210,/,67891,/,68570,/,69251,/	t,t,t,t,t	<img class = center src='/static/experiments/beast_fmri_test/images/B.png'></img>	71,89	2750.0	test	<img class = center src='/static/experiments/beast_fmri_test/images/redB.png'></img>	go	2300.0	2.0	7.0	go	non-target	B	71,Green Button	89,Yellow Button	500.0	450.0	2250.0	2300.0	1.0	n/a	450.0	1.0	ITI
46051	500	n/a	-1	-1	500	0.0	fixation	poldrack-single-stim	23	70422	0.0-7.8-0.8	beast_fmri_test	300	69930,/	t	<div class = centerbox><div class = fixation>+</div></div>	none	500.0	test	n/a	n/a	n/a	n/a	n/a	n/a	n/a	n/a	n/a	n/a	n/a	n/a	n/a	n/a	n/a	n/a	n/a	n/a	fixation
45892.232655480504	2750	n/a	1241	89	2750	161.76734452	stim	stop-signal	24	73175	0.0-7.8-1.8	beast_fmri_test	300	70611,/,71291,/,71971,/,72651,/,73330,/	t,t,t,t,t	<img class = center src='/static/experiments/beast_fmri_test/images/V.png'></img>	71,89	2750.0	test	<img class = center src='/static/experiments/beast_fmri_test/images/redV.png'></img>	go	2300.0	2.0	8.0	go	non-target	V	71,Green Button	89,Yellow Button	500.0	450.0	2250.0	2300.0	1.0	n/a	450.0	1.0	go_stim
48642.232655480504	161.76734451950199	n/a	1241	89	2750	161.76734452	stim	stop-signal	24	73175	0.0-7.8-1.8	beast_fmri_test	300	70611,/,71291,/,71971,/,72651,/,73330,/	t,t,t,t,t	<img class = center src='/static/experiments/beast_fmri_test/images/V.png'></img>	71,89	2750.0	test	<img class = center src='/static/experiments/beast_fmri_test/images/redV.png'></img>	go	2300.0	2.0	8.0	go	non-target	V	71,Green Button	89,Yellow Button	500.0	450.0	2250.0	2300.0	1.0	n/a	450.0	1.0	ITI
49469	500	n/a	-1	-1	500	0.0	fixation	poldrack-single-stim	25	73840	0.0-7.9-0.9	beast_fmri_test	300	n/a	n/a	<div class = centerbox><div class = fixation>+</div></div>	none	500.0	test	n/a	n/a	n/a	n/a	n/a	n/a	n/a	n/a	n/a	n/a	n/a	n/a	n/a	n/a	n/a	n/a	n/a	n/a	fixation
48914.400484665239	450.0	n/a	-1	-1	2750	557.599515335	stim	stop-signal	26	76593	0.0-7.9-1.9	beast_fmri_test	300	74011,/,74691,/,75371,/,76051,/,76731,/	t,t,t,t,t	<img class = center src='/static/experiments/beast_fmri_test/images/V.png'></img>	71,89	2750.0	test	<img class = center src='/static/experiments/beast_fmri_test/images/redV.png'></img>	stop	2300.0	2.0	9.0	stop	non-target	V	71,Green Button	89,Yellow Button	500.0	450.0	2250.0	2300.0	0.0	1.0	450.0	0.0	go_stim
51214.400484665239	2300.0	n/a	-1	-1	2750	557.599515335	stim	stop-signal	26	76593	0.0-7.9-1.9	beast_fmri_test	300	74011,/,74691,/,75371,/,76051,/,76731,/	t,t,t,t,t	<img class = center src='/static/experiments/beast_fmri_test/images/V.png'></img>	71,89	2750.0	test	<img class = center src='/static/experiments/beast_fmri_test/images/redV.png'></img>	stop	2300.0	2.0	9.0	stop	non-target	V	71,Green Button	89,Yellow Button	500.0	450.0	2250.0	2300.0	0.0	1.0	450.0	0.0	stop_stim
51664.400484665239	557.59951533475896	n/a	-1	-1	2750	557.599515335	stim	stop-signal	26	76593	0.0-7.9-1.9	beast_fmri_test	300	74011,/,74691,/,75371,/,76051,/,76731,/	t,t,t,t,t	<img class = center src='/static/experiments/beast_fmri_test/images/V.png'></img>	71,89	2750.0	test	<img class = center src='/static/experiments/beast_fmri_test/images/redV.png'></img>	stop	2300.0	2.0	9.0	stop	non-target	V	71,Green Button	89,Yellow Button	500.0	450.0	2250.0	2300.0	0.0	1.0	450.0	0.0	ITI
53284	500	n/a	-1	-1	500	0.0	fixation	poldrack-single-stim	27	77655	0.0-7.10-0.10	beast_fmri_test	300	77411,/	t	<div class = centerbox><div class = fixation>+</div></div>	none	500.0	test	n/a	n/a	n/a	n/a	n/a	n/a	n/a	n/a	n/a	n/a	n/a	n/a	n/a	n/a	n/a	n/a	n/a	n/a	fixation
51295.814511370903	500.0	n/a	-1	-1	2750	1989.18548863	stim	stop-signal	28	80406	0.0-7.10-1.10	beast_fmri_test	300	78091,/,78770,/,79450,/,80130,/,80811,/,81490,/,82170,/	t,t,t,t,t,t,t	<img class = center src='/static/experiments/beast_fmri_test/images/T.png'></img>	71,89	2750.0	test	<img class = center src='/static/experiments/beast_fmri_test/images/redT.png'></img>	stop	2250.0	2.0	10.0	stop	non-target	T	71,Green Button	89,Yellow Button	500.0	500.0	2250.0	2250.0	0.0	1.0	500.0	0.0	go_stim
53545.814511370903	2250.0	n/a	-1	-1	2750	1989.18548863	stim	stop-signal	28	80406	0.0-7.10-1.10	beast_fmri_test	300	78091,/,78770,/,79450,/,80130,/,80811,/,81490,/,82170,/	t,t,t,t,t,t,t	<img class = center src='/static/experiments/beast_fmri_test/images/T.png'></img>	71,89	2750.0	test	<img class = center src='/static/experiments/beast_fmri_test/images/redT.png'></img>	stop	2250.0	2.0	10.0	stop	non-target	T	71,Green Button	89,Yellow Button	500.0	500.0	2250.0	2250.0	0.0	1.0	500.0	0.0	stop_stim
54045.814511370903	1989.1854886291001	n/a	-1	-1	2750	1989.18548863	stim	stop-signal	28	80406	0.0-7.10-1.10	beast_fmri_test	300	78091,/,78770,/,79450,/,80130,/,80811,/,81490,/,82170,/	t,t,t,t,t,t,t	<img class = center src='/static/experiments/beast_fmri_test/images/T.png'></img>	71,89	2750.0	test	<img class = center src='/static/experiments/beast_fmri_test/images/redT.png'></img>	stop	2250.0	2.0	10.0	stop	non-target	T	71,Green Button	89,Yellow Button	500.0	500.0	2250.0	2250.0	0.0	1.0	500.0	0.0	ITI
58529	500	n/a	-1	-1	500	0.0	fixation	poldrack-single-stim	29	82900	0.0-7.11-0.11	beast_fmri_test	300	82851,/	t	<div class = centerbox><div class = fixation>+</div></div>	none	500.0	test	n/a	n/a	n/a	n/a	n/a	n/a	n/a	n/a	n/a	n/a	n/a	n/a	n/a	n/a	n/a	n/a	n/a	n/a	fixation
57912.077470461954	2750	n/a	911	71	2750	618.922529538	stim	stop-signal	30	85652	0.0-7.11-1.11	beast_fmri_test	300	83530,/,84210,/,84890,/,85571,/,86251,/	t,t,t,t,t	<img class = center src='/static/experiments/beast_fmri_test/images/V.png'></img>	71,89	2750.0	test	<img class = center src='/static/experiments/beast_fmri_test/images/redV.png'></img>	go	2250.0	2.0	11.0	go	target	V	71,Green Button	89,Yellow Button	500.0	550.0	2250.0	2250.0	1.0	n/a	500.0	1.0	go_stim
60662.077470461954	618.92252953804802	n/a	911	71	2750	618.922529538	stim	stop-signal	30	85652	0.0-7.11-1.11	beast_fmri_test	300	83530,/,84210,/,84890,/,85571,/,86251,/	t,t,t,t,t	<img class = center src='/static/experiments/beast_fmri_test/images/V.png'></img>	71,89	2750.0	test	<img class = center src='/static/experiments/beast_fmri_test/images/redV.png'></img>	go	2250.0	2.0	11.0	go	target	V	71,Green Button	89,Yellow Button	500.0	550.0	2250.0	2250.0	1.0	n/a	500.0	1.0	ITI
62404	500	n/a	-1	-1	500	0.0	fixation	poldrack-single-stim	31	86775	0.0-7.12-0.12	beast_fmri_test	300	n/a	n/a	<div class = centerbox><div class = fixation>+</div></div>	none	500.0	test	n/a	n/a	n/a	n/a	n/a	n/a	n/a	n/a	n/a	n/a	n/a	n/a	n/a	n/a	n/a	n/a	n/a	n/a	fixation
61689.261473942082	500.0	n/a	-1	-1	2750	716.738526058	stim	stop-signal	32	89527	0.0-7.12-1.12	beast_fmri_test	300	86931,/,87610,/,88291,/,88971,/,89651,/	t,t,t,t,t	<img class = center src='/static/experiments/beast_fmri_test/images/T.png'></img>	71,89	2750.0	test	<img class = center src='/static/experiments/beast_fmri_test/images/redT.png'></img>	stop	2250.0	2.0	12.0	stop	target	T	71,Green Button	89,Yellow Button	500.0	550.0	2250.0	2250.0	0.0	1.0	500.0	0.0	go_stim
63939.261473942082	2250.0	n/a	-1	-1	2750	716.738526058	stim	stop-signal	32	89527	0.0-7.12-1.12	beast_fmri_test	300	86931,/,87610,/,88291,/,88971,/,89651,/	t,t,t,t,t	<img class = center src='/static/experiments/beast_fmri_test/images/T.png'></img>	71,89	2750.0	test	<img class = center src='/static/experiments/beast_fmri_test/images/redT.png'></img>	stop	2250.0	2.0	12.0	stop	target	T	71,Green Button	89,Yellow Button	500.0	550.0	2250.0	2250.0	0.0	1.0	500.0	0.0	stop_stim
64439.261473942082	716.73852605791296	n/a	-1	-1	2750	716.738526058	stim	stop-signal	32	89527	0.0-7.12-1.12	beast_fmri_test	300	86931,/,87610,/,88291,/,88971,/,89651,/	t,t,t,t,t	<img class = center src='/static/experiments/beast_fmri_test/images/T.png'></img>	71,89	2750.0	test	<img class = center src='/static/experiments/beast_fmri_test/images/redT.png'></img>	stop	2250.0	2.0	12.0	stop	target	T	71,Green Button	89,Yellow Button	500.0	550.0	2250.0	2250.0	0.0	1.0	500.0	0.0	ITI
66377	500	n/a	-1	-1	500	0.0	fixation	poldrack-single-stim	33	90748	0.0-7.13-0.13	beast_fmri_test	300	90330,/	t	<div class = centerbox><div class = fixation>+</div></div>	none	500.0	test	n/a	n/a	n/a	n/a	n/a	n/a	n/a	n/a	n/a	n/a	n/a	n/a	n/a	n/a	n/a	n/a	n/a	n/a	fixation
65362.455688260583	2750	n/a	1138	89	2750	1016.54431174	stim	stop-signal	34	93500	0.0-7.13-1.13	beast_fmri_test	300	91011,/,91691,/,92370,/,93050,/,93730,/,94410,/	t,t,t,t,t,t	<img class = center src='/static/experiments/beast_fmri_test/images/D.png'></img>	71,89	2750.0	test	<img class = center src='/static/experiments/beast_fmri_test/images/redD.png'></img>	go	2200.0	2.0	13.0	go	non-target	D	71,Green Button	89,Yellow Button	550.0	550.0	2250.0	2200.0	1.0	n/a	550.0	1.0	go_stim
68112.455688260583	1016.54431173941	n/a	1138	89	2750	1016.54431174	stim	stop-signal	34	93500	0.0-7.13-1.13	beast_fmri_test	300	91011,/,91691,/,92370,/,93050,/,93730,/,94410,/	t,t,t,t,t,t	<img class = center src='/static/experiments/beast_fmri_test/images/D.png'></img>	71,89	2750.0	test	<img class = center src='/static/experiments/beast_fmri_test/images/redD.png'></img>	go	2200.0	2.0	13.0	go	non-target	D	71,Green Button	89,Yellow Button	550.0	550.0	2250.0	2200.0	1.0	n/a	550.0	1.0	ITI
70651	500	n/a	-1	-1	500	0.0	fixation	poldrack-single-stim	35	95022	0.0-7.14-0.14	beast_fmri_test	300	n/a	n/a	<div class = centerbox><div class = fixation>+</div></div>	none	500.0	test	n/a	n/a	n/a	n/a	n/a	n/a	n/a	n/a	n/a	n/a	n/a	n/a	n/a	n/a	n/a	n/a	n/a	n/a	fixation
68768.254174184214	2750	n/a	1346	89	2750	1884.74582582	stim	stop-signal	36	97774	0.0-7.14-1.14	beast_fmri_test	300	95090,/,95771,/,96451,/,97130,/,97810,/,98490,/,99170,/	t,t,t,t,t,t,t	<img class = center src='/static/experiments/beast_fmri_test/images/V.png'></img>	71,89	2750.0	test	<img class = center src='/static/experiments/beast_fmri_test/images/redV.png'></img>	go	2200.0	2.0	14.0	go	non-target	V	71,Green Button	89,Yellow Button	550.0	550.0	2250.0	2200.0	1.0	n/a	550.0	1.0	go_stim
71518.254174184214	1884.7458258157901	n/a	1346	89	2750	1884.74582582	stim	stop-signal	36	97774	0.0-7.14-1.14	beast_fmri_test	300	95090,/,95771,/,96451,/,97130,/,97810,/,98490,/,99170,/	t,t,t,t,t,t,t	<img class = center src='/static/experiments/beast_fmri_test/images/V.png'></img>	71,89	2750.0	test	<img class = center src='/static/experiments/beast_fmri_test/images/redV.png'></img>	go	2200.0	2.0	14.0	go	non-target	V	71,Green Button	89,Yellow Button	550.0	550.0	2250.0	2200.0	1.0	n/a	550.0	1.0	ITI
75792	500	n/a	-1	-1	500	0.0	fixation	poldrack-single-stim	37	100163	0.0-7.15-0.15	beast_fmri_test	300	99854,/	t	<div class = centerbox><div class = fixation>+</div></div>	none	500.0	test	n/a	n/a	n/a	n/a	n/a	n/a	n/a	n/a	n/a	n/a	n/a	n/a	n/a	n/a	n/a	n/a	n/a	n/a	fixation
75019.347013599123	550.0	n/a	-1	-1	2750	773.652986401	stim	stop-signal	38	102914	0.0-7.15-1.15	beast_fmri_test	300	100531,/,101210,/,101891,/,102571,/,103251,/	t,t,t,t,t	<img class = center src='/static/experiments/beast_fmri_test/images/V.png'></img>	71,89	2750.0	test	<img class = center src='/static/experiments/beast_fmri_test/images/redV.png'></img>	stop	2200.0	2.0	15.0	stop	non-target	V	71,Green Button	89,Yellow Button	550.0	550.0	2250.0	2200.0	0.0	1.0	550.0	0.0	go_stim
77219.347013599123	2200.0	n/a	-1	-1	2750	773.652986401	stim	stop-signal	38	102914	0.0-7.15-1.15	beast_fmri_test	300	100531,/,101210,/,101891,/,102571,/,103251,/	t,t,t,t,t	<img class = center src='/static/experiments/beast_fmri_test/images/V.png'></img>	71,89	2750.0	test	<img class = center src='/static/experiments/beast_fmri_test/images/redV.png'></img>	stop	2200.0	2.0	15.0	stop	non-target	V	71,Green Button	89,Yellow Button	550.0	550.0	2250.0	2200.0	0.0	1.0	550.0	0.0	stop_stim
77769.347013599123	773.65298640087201	n/a	-1	-1	2750	773.652986401	stim	stop-signal	38	102914	0.0-7.15-1.15	beast_fmri_test	300	100531,/,101210,/,101891,/,102571,/,103251,/	t,t,t,t,t	<img class = center src='/static/experiments/beast_fmri_test/images/V.png'></img>	71,89	2750.0	test	<img class = center src='/static/experiments/beast_fmri_test/images/redV.png'></img>	stop	2200.0	2.0	15.0	stop	non-target	V	71,Green Button	89,Yellow Button	550.0	550.0	2250.0	2200.0	0.0	1.0	550.0	0.0	ITI
79820	500	n/a	-1	-1	500	0.0	fixation	poldrack-single-stim	39	104191	0.0-7.16-0.16	beast_fmri_test	300	103931,/	t	<div class = centerbox><div class = fixation>+</div></div>	none	500.0	test	n/a	n/a	n/a	n/a	n/a	n/a	n/a	n/a	n/a	n/a	n/a	n/a	n/a	n/a	n/a	n/a	n/a	n/a	fixation
79575.915261496222	2750	n/a	1017	71	2750	246.084738504	stim	stop-signal	40	106943	0.0-7.16-1.16	beast_fmri_test	300	104611,/,105291,/,105972,/,106651,/	t,t,t,t	<img class = center src='/static/experiments/beast_fmri_test/images/V.png'></img>	71,89	2750.0	test	<img class = center src='/static/experiments/beast_fmri_test/images/redV.png'></img>	go	2200.0	2.0	16.0	go	target	V	71,Green Button	89,Yellow Button	550.0	600.0	2200.0	2200.0	1.0	n/a	550.0	1.0	go_stim
82325.915261496222	246.084738503778	n/a	1017	71	2750	246.084738504	stim	stop-signal	40	106943	0.0-7.16-1.16	beast_fmri_test	300	104611,/,105291,/,105972,/,106651,/	t,t,t,t	<img class = center src='/static/experiments/beast_fmri_test/images/V.png'></img>	71,89	2750.0	test	<img class = center src='/static/experiments/beast_fmri_test/images/redV.png'></img>	go	2200.0	2.0	16.0	go	target	V	71,Green Button	89,Yellow Button	550.0	600.0	2200.0	2200.0	1.0	n/a	550.0	1.0	ITI
83323	500	n/a	-1	-1	500	0.0	fixation	poldrack-single-stim	41	107694	0.0-7.17-0.17	beast_fmri_test	300	107332,/	t	<div class = centerbox><div class = fixation>+</div></div>	none	500.0	test	n/a	n/a	n/a	n/a	n/a	n/a	n/a	n/a	n/a	n/a	n/a	n/a	n/a	n/a	n/a	n/a	n/a	n/a	fixation
82891.67239905888	2750	n/a	1458	89	2750	433.327600941	stim	stop-signal	42	110446	0.0-7.17-1.17	beast_fmri_test	300	108011,/,108691,/,109371,/,110051,/,110731,/	t,t,t,t,t	<img class = center src='/static/experiments/beast_fmri_test/images/B.png'></img>	71,89	2750.0	test	<img class = center src='/static/experiments/beast_fmri_test/images/redB.png'></img>	go	2150.0	2.0	17.0	go	non-target	B	71,Green Button	89,Yellow Button	550.0	600.0	2200.0	2150.0	1.0	n/a	600.0	1.0	go_stim
85641.67239905888	433.32760094111899	n/a	1458	89	2750	433.327600941	stim	stop-signal	42	110446	0.0-7.17-1.17	beast_fmri_test	300	108011,/,108691,/,109371,/,110051,/,110731,/	t,t,t,t,t	<img class = center src='/static/experiments/beast_fmri_test/images/B.png'></img>	71,89	2750.0	test	<img class = center src='/static/experiments/beast_fmri_test/images/redB.png'></img>	go	2150.0	2.0	17.0	go	non-target	B	71,Green Button	89,Yellow Button	550.0	600.0	2200.0	2150.0	1.0	n/a	600.0	1.0	ITI
87015	500	n/a	-1	-1	500	0.0	fixation	poldrack-single-stim	43	111386	0.0-7.18-0.18	beast_fmri_test	300	n/a	n/a	<div class = centerbox><div class = fixation>+</div></div>	none	500.0	test	n/a	n/a	n/a	n/a	n/a	n/a	n/a	n/a	n/a	n/a	n/a	n/a	n/a	n/a	n/a	n/a	n/a	n/a	fixation
86629.609941388306	550.0	n/a	-1	-1	2750	386.390058612	stim	stop-signal	44	114137	0.0-7.18-1.18	beast_fmri_test	300	111411,/,112091,/,112771,/,113451,/,114131,/	t,t,t,t,t	<img class = center src='/static/experiments/beast_fmri_test/images/V.png'></img>	71,89	2750.0	test	<img class = center src='/static/experiments/beast_fmri_test/images/redV.png'></img>	stop	2200.0	2.0	18.0	stop	target	V	71,Green Button	89,Yellow Button	550.0	600.0	2200.0	2150.0	0.0	1.0	550.0	0.0	go_stim
88829.609941388306	2200.0	n/a	-1	-1	2750	386.390058612	stim	stop-signal	44	114137	0.0-7.18-1.18	beast_fmri_test	300	111411,/,112091,/,112771,/,113451,/,114131,/	t,t,t,t,t	<img class = center src='/static/experiments/beast_fmri_test/images/V.png'></img>	71,89	2750.0	test	<img class = center src='/static/experiments/beast_fmri_test/images/redV.png'></img>	stop	2200.0	2.0	18.0	stop	target	V	71,Green Button	89,Yellow Button	550.0	600.0	2200.0	2150.0	0.0	1.0	550.0	0.0	stop_stim
89379.609941388306	386.39005861169397	n/a	-1	-1	2750	386.390058612	stim	stop-signal	44	114137	0.0-7.18-1.18	beast_fmri_test	300	111411,/,112091,/,112771,/,113451,/,114131,/	t,t,t,t,t	<img class = center src='/static/experiments/beast_fmri_test/images/V.png'></img>	71,89	2750.0	test	<img class = center src='/static/experiments/beast_fmri_test/images/redV.png'></img>	stop	2200.0	2.0	18.0	stop	target	V	71,Green Button	89,Yellow Button	550.0	600.0	2200.0	2150.0	0.0	1.0	550.0	0.0	ITI
90657	500	n/a	-1	-1	500	0.0	fixation	poldrack-single-stim	45	115028	0.0-7.19-0.19	beast_fmri_test	300	114811,/	t	<div class = centerbox><div class = fixation>+</div></div>	none	500.0	test	n/a	n/a	n/a	n/a	n/a	n/a	n/a	n/a	n/a	n/a	n/a	n/a	n/a	n/a	n/a	n/a	n/a	n/a	fixation
89647.072764144919	600.0	n/a	-1	-1	2750	1011.92723586	stim	stop-signal	46	117780	0.0-7.19-1.19	beast_fmri_test	300	115491,/,116172,/,116851,/,117531,/,118211,/	t,t,t,t,t	<img class = center src='/static/experiments/beast_fmri_test/images/D.png'></img>	71,89	2750.0	test	<img class = center src='/static/experiments/beast_fmri_test/images/redD.png'></img>	stop	2150.0	2.0	19.0	stop	non-target	D	71,Green Button	89,Yellow Button	600.0	600.0	2200.0	2150.0	0.0	1.0	600.0	0.0	go_stim
91797.072764144919	2150.0	n/a	-1	-1	2750	1011.92723586	stim	stop-signal	46	117780	0.0-7.19-1.19	beast_fmri_test	300	115491,/,116172,/,116851,/,117531,/,118211,/	t,t,t,t,t	<img class = center src='/static/experiments/beast_fmri_test/images/D.png'></img>	71,89	2750.0	test	<img class = center src='/static/experiments/beast_fmri_test/images/redD.png'></img>	stop	2150.0	2.0	19.0	stop	non-target	D	71,Green Button	89,Yellow Button	600.0	600.0	2200.0	2150.0	0.0	1.0	600.0	0.0	stop_stim
92397.072764144919	1011.92723585508	n/a	-1	-1	2750	1011.92723586	stim	stop-signal	46	117780	0.0-7.19-1.19	beast_fmri_test	300	115491,/,116172,/,116851,/,117531,/,118211,/	t,t,t,t,t	<img class = center src='/static/experiments/beast_fmri_test/images/D.png'></img>	71,89	2750.0	test	<img class = center src='/static/experiments/beast_fmri_test/images/redD.png'></img>	stop	2150.0	2.0	19.0	stop	non-target	D	71,Green Button	89,Yellow Button	600.0	600.0	2200.0	2150.0	0.0	1.0	600.0	0.0	ITI
94927	500	n/a	-1	-1	500	0.0	fixation	poldrack-single-stim	47	119298	0.0-7.20-0.20	beast_fmri_test	300	118891,/	t	<div class = centerbox><div class = fixation>+</div></div>	none	500.0	test	n/a	n/a	n/a	n/a	n/a	n/a	n/a	n/a	n/a	n/a	n/a	n/a	n/a	n/a	n/a	n/a	n/a	n/a	fixation
94820.47893452998	2750	n/a	1180	89	2750	108.52106547	stim	stop-signal	48	122050	0.0-7.20-1.20	beast_fmri_test	300	119571,/,120251,/,120931,/,121611,/	t,t,t,t	<img class = center src='/static/experiments/beast_fmri_test/images/B.png'></img>	71,89	2750.0	test	<img class = center src='/static/experiments/beast_fmri_test/images/redB.png'></img>	go	2100.0	2.0	20.0	go	non-target	B	71,Green Button	89,Yellow Button	600.0	650.0	2200.0	2100.0	1.0	n/a	650.0	1.0	go_stim
97570.47893452998	108.521065470026	n/a	1180	89	2750	108.52106547	stim	stop-signal	48	122050	0.0-7.20-1.20	beast_fmri_test	300	119571,/,120251,/,120931,/,121611,/	t,t,t,t	<img class = center src='/static/experiments/beast_fmri_test/images/B.png'></img>	71,89	2750.0	test	<img class = center src='/static/experiments/beast_fmri_test/images/redB.png'></img>	go	2100.0	2.0	20.0	go	non-target	B	71,Green Button	89,Yellow Button	600.0	650.0	2200.0	2100.0	1.0	n/a	650.0	1.0	ITI
98293	500	n/a	-1	-1	500	0.0	fixation	poldrack-single-stim	49	122664	0.0-7.21-0.21	beast_fmri_test	300	122291,/	t	<div class = centerbox><div class = fixation>+</div></div>	none	500.0	test	n/a	n/a	n/a	n/a	n/a	n/a	n/a	n/a	n/a	n/a	n/a	n/a	n/a	n/a	n/a	n/a	n/a	n/a	fixation
96931.146774943205	2750	n/a	1640	89	2750	1363.85322506	stim	stop-signal	50	125416	0.0-7.21-1.21	beast_fmri_test	300	122971,/,123651,/,124331,/,125011,/,125691,/,126372,/	t,t,t,t,t,t	<img class = center src='/static/experiments/beast_fmri_test/images/T.png'></img>	71,89	2750.0	test	<img class = center src='/static/experiments/beast_fmri_test/images/redT.png'></img>	go	2100.0	2.0	21.0	go	non-target	T	71,Green Button	89,Yellow Button	600.0	650.0	2200.0	2100.0	1.0	n/a	650.0	1.0	go_stim
99681.146774943205	1363.8532250568001	n/a	1640	89	2750	1363.85322506	stim	stop-signal	50	125416	0.0-7.21-1.21	beast_fmri_test	300	122971,/,123651,/,124331,/,125011,/,125691,/,126372,/	t,t,t,t,t,t	<img class = center src='/static/experiments/beast_fmri_test/images/T.png'></img>	71,89	2750.0	test	<img class = center src='/static/experiments/beast_fmri_test/images/redT.png'></img>	go	2100.0	2.0	21.0	go	non-target	T	71,Green Button	89,Yellow Button	600.0	650.0	2200.0	2100.0	1.0	n/a	650.0	1.0	ITI
102914	500	n/a	-1	-1	500	0.0	fixation	poldrack-single-stim	51	127285	0.0-7.22-0.22	beast_fmri_test	300	127051,/	t	<div class = centerbox><div class = fixation>+</div></div>	none	500.0	test	n/a	n/a	n/a	n/a	n/a	n/a	n/a	n/a	n/a	n/a	n/a	n/a	n/a	n/a	n/a	n/a	n/a	n/a	fixation
100367.13840790134	2750	n/a	1555	71	2750	2548.8615921	stim	stop-signal	52	130037	0.0-7.22-1.22	beast_fmri_test	300	127731,/,128411,/,129091,/,129771,/,130451,/,131131,/,131811,/,132491,/	t,t,t,t,t,t,t,t	<img class = center src='/static/experiments/beast_fmri_test/images/B.png'></img>	71,89	2750.0	test	<img class = center src='/static/experiments/beast_fmri_test/images/redB.png'></img>	go	2150.0	2.0	22.0	go	target	B	71,Green Button	89,Yellow Button	600.0	650.0	2150.0	2100.0	1.0	n/a	600.0	1.0	go_stim
103117.13840790134	2548.8615920986599	n/a	1555	71	2750	2548.8615921	stim	stop-signal	52	130037	0.0-7.22-1.22	beast_fmri_test	300	127731,/,128411,/,129091,/,129771,/,130451,/,131131,/,131811,/,132491,/	t,t,t,t,t,t,t,t	<img class = center src='/static/experiments/beast_fmri_test/images/B.png'></img>	71,89	2750.0	test	<img class = center src='/static/experiments/beast_fmri_test/images/redB.png'></img>	go	2150.0	2.0	22.0	go	target	B	71,Green Button	89,Yellow Button	600.0	650.0	2150.0	2100.0	1.0	n/a	600.0	1.0	ITI
108721	500	n/a	-1	-1	500	0.0	fixation	poldrack-single-stim	53	133092	0.0-7.23-0.23	beast_fmri_test	300	n/a	n/a	<div class = centerbox><div class = fixation>+</div></div>	none	500.0	test	n/a	n/a	n/a	n/a	n/a	n/a	n/a	n/a	n/a	n/a	n/a	n/a	n/a	n/a	n/a	n/a	n/a	n/a	fixation
107479.86299021487	600.0	n/a	804	71	2750	1243.13700979	stim	stop-signal	54	135844	0.0-7.23-1.23	beast_fmri_test	300	133171,/,133852,/,134532,/,135211,/,135892,/,136573,/	t,t,t,t,t,t	<img class = center src='/static/experiments/beast_fmri_test/images/T.png'></img>	71,89	2750.0	test	<img class = center src='/static/experiments/beast_fmri_test/images/redT.png'></img>	stop	2150.0	2.0	23.0	stop	target	T	71,Green Button	89,Yellow Button	600.0	650.0	2150.0	2100.0	0.0	0.0	600.0	1.0	go_stim
109629.86299021487	2150.0	n/a	804	71	2750	1243.13700979	stim	stop-signal	54	135844	0.0-7.23-1.23	beast_fmri_test	300	133171,/,133852,/,134532,/,135211,/,135892,/,136573,/	t,t,t,t,t,t	<img class = center src='/static/experiments/beast_fmri_test/images/T.png'></img>	71,89	2750.0	test	<img class = center src='/static/experiments/beast_fmri_test/images/redT.png'></img>	stop	2150.0	2.0	23.0	stop	target	T	71,Green Button	89,Yellow Button	600.0	650.0	2150.0	2100.0	0.0	0.0	600.0	1.0	stop_stim
110229.86299021487	1243.13700978512	n/a	804	71	2750	1243.13700979	stim	stop-signal	54	135844	0.0-7.23-1.23	beast_fmri_test	300	133171,/,133852,/,134532,/,135211,/,135892,/,136573,/	t,t,t,t,t,t	<img class = center src='/static/experiments/beast_fmri_test/images/T.png'></img>	71,89	2750.0	test	<img class = center src='/static/experiments/beast_fmri_test/images/redT.png'></img>	stop	2150.0	2.0	23.0	stop	target	T	71,Green Button	89,Yellow Button	600.0	650.0	2150.0	2100.0	0.0	0.0	600.0	1.0	ITI
113222	500	n/a	-1	-1	500	0.0	fixation	poldrack-single-stim	55	137593	0.0-7.24-0.24	beast_fmri_test	300	137252,/	t	<div class = centerbox><div class = fixation>+</div></div>	none	500.0	test	n/a	n/a	n/a	n/a	n/a	n/a	n/a	n/a	n/a	n/a	n/a	n/a	n/a	n/a	n/a	n/a	n/a	n/a	fixation
113051.08967097756	650.0	n/a	-1	-1	2750	172.910329022	stim	stop-signal	56	140345	0.0-7.24-1.24	beast_fmri_test	300	137932,/,138612,/,139292,/,139972,/	t,t,t,t	<img class = center src='/static/experiments/beast_fmri_test/images/T.png'></img>	71,89	2750.0	test	<img class = center src='/static/experiments/beast_fmri_test/images/redT.png'></img>	stop	2100.0	2.0	24.0	stop	non-target	T	71,Green Button	89,Yellow Button	550.0	650.0	2150.0	2100.0	0.0	1.0	650.0	0.0	go_stim
115151.08967097756	2100.0	n/a	-1	-1	2750	172.910329022	stim	stop-signal	56	140345	0.0-7.24-1.24	beast_fmri_test	300	137932,/,138612,/,139292,/,139972,/	t,t,t,t	<img class = center src='/static/experiments/beast_fmri_test/images/T.png'></img>	71,89	2750.0	test	<img class = center src='/static/experiments/beast_fmri_test/images/redT.png'></img>	stop	2100.0	2.0	24.0	stop	non-target	T	71,Green Button	89,Yellow Button	550.0	650.0	2150.0	2100.0	0.0	1.0	650.0	0.0	stop_stim
115801.08967097756	172.91032902243799	n/a	-1	-1	2750	172.910329022	stim	stop-signal	56	140345	0.0-7.24-1.24	beast_fmri_test	300	137932,/,138612,/,139292,/,139972,/	t,t,t,t	<img class = center src='/static/experiments/beast_fmri_test/images/T.png'></img>	71,89	2750.0	test	<img class = center src='/static/experiments/beast_fmri_test/images/redT.png'></img>	stop	2100.0	2.0	24.0	stop	non-target	T	71,Green Button	89,Yellow Button	550.0	650.0	2150.0	2100.0	0.0	1.0	650.0	0.0	ITI
116652	500	n/a	-1	-1	500	0.0	fixation	poldrack-single-stim	57	141023	0.0-7.25-0.25	beast_fmri_test	300	140651,/	t	<div class = centerbox><div class = fixation>+</div></div>	none	500.0	test	n/a	n/a	n/a	n/a	n/a	n/a	n/a	n/a	n/a	n/a	n/a	n/a	n/a	n/a	n/a	n/a	n/a	n/a	fixation
116254.01945788847	550.0	n/a	-1	-1	2750	398.980542112	stim	stop-signal	58	143774	0.0-7.25-1.25	beast_fmri_test	300	141332,/,142011,/,142692,/,143372,/,144052,/	t,t,t,t,t	<img class = center src='/static/experiments/beast_fmri_test/images/T.png'></img>	71,89	2750.0	test	<img class = center src='/static/experiments/beast_fmri_test/images/redT.png'></img>	stop	2200.0	2.0	25.0	stop	target	T	71,Green Button	89,Yellow Button	550.0	700.0	2200.0	2100.0	0.0	1.0	550.0	0.0	go_stim
118454.01945788847	2200.0	n/a	-1	-1	2750	398.980542112	stim	stop-signal	58	143774	0.0-7.25-1.25	beast_fmri_test	300	141332,/,142011,/,142692,/,143372,/,144052,/	t,t,t,t,t	<img class = center src='/static/experiments/beast_fmri_test/images/T.png'></img>	71,89	2750.0	test	<img class = center src='/static/experiments/beast_fmri_test/images/redT.png'></img>	stop	2200.0	2.0	25.0	stop	target	T	71,Green Button	89,Yellow Button	550.0	700.0	2200.0	2100.0	0.0	1.0	550.0	0.0	stop_stim
119004.01945788847	398.98054211152601	n/a	-1	-1	2750	398.980542112	stim	stop-signal	58	143774	0.0-7.25-1.25	beast_fmri_test	300	141332,/,142011,/,142692,/,143372,/,144052,/	t,t,t,t,t	<img class = center src='/static/experiments/beast_fmri_test/images/T.png'></img>	71,89	2750.0	test	<img class = center src='/static/experiments/beast_fmri_test/images/redT.png'></img>	stop	2200.0	2.0	25.0	stop	target	T	71,Green Button	89,Yellow Button	550.0	700.0	2200.0	2100.0	0.0	1.0	550.0	0.0	ITI
120308	500	n/a	-1	-1	500	0.0	fixation	poldrack-single-stim	59	144679	0.0-7.26-0.26	beast_fmri_test	300	n/a	n/a	<div class = centerbox><div class = fixation>+</div></div>	none	500.0	test	n/a	n/a	n/a	n/a	n/a	n/a	n/a	n/a	n/a	n/a	n/a	n/a	n/a	n/a	n/a	n/a	n/a	n/a	fixation
119666.46183831181	2750	n/a	1348	89	2750	644.538161688	stim	stop-signal	60	147432	0.0-7.26-1.26	beast_fmri_test	300	144731,/,145412,/,146091,/,146772,/,147451,/	t,t,t,t,t	<img class = center src='/static/experiments/beast_fmri_test/images/D.png'></img>	71,89	2750.0	test	<img class = center src='/static/experiments/beast_fmri_test/images/redD.png'></img>	go	2050.0	2.0	26.0	go	non-target	D	71,Green Button	89,Yellow Button	600.0	700.0	2200.0	2050.0	1.0	n/a	700.0	1.0	go_stim
122416.46183831181	644.53816168819901	n/a	1348	89	2750	644.538161688	stim	stop-signal	60	147432	0.0-7.26-1.26	beast_fmri_test	300	144731,/,145412,/,146091,/,146772,/,147451,/	t,t,t,t,t	<img class = center src='/static/experiments/beast_fmri_test/images/D.png'></img>	71,89	2750.0	test	<img class = center src='/static/experiments/beast_fmri_test/images/redD.png'></img>	go	2050.0	2.0	26.0	go	non-target	D	71,Green Button	89,Yellow Button	600.0	700.0	2200.0	2050.0	1.0	n/a	700.0	1.0	ITI
124211	500	n/a	-1	-1	500	0.0	fixation	poldrack-single-stim	61	148582	0.0-7.27-0.27	beast_fmri_test	300	148132,/	t	<div class = centerbox><div class = fixation>+</div></div>	none	500.0	test	n/a	n/a	n/a	n/a	n/a	n/a	n/a	n/a	n/a	n/a	n/a	n/a	n/a	n/a	n/a	n/a	n/a	n/a	fixation
123390.31930314764	2750	n/a	1150	89	2750	822.680696852	stim	stop-signal	62	151334	0.0-7.27-1.27	beast_fmri_test	300	148812,/,149491,/,150172,/,150852,/,151532,/	t,t,t,t,t	<img class = center src='/static/experiments/beast_fmri_test/images/V.png'></img>	71,89	2750.0	test	<img class = center src='/static/experiments/beast_fmri_test/images/redV.png'></img>	go	2050.0	2.0	27.0	go	non-target	V	71,Green Button	89,Yellow Button	600.0	700.0	2200.0	2050.0	1.0	n/a	700.0	1.0	go_stim
126140.31930314764	822.68069685235002	n/a	1150	89	2750	822.680696852	stim	stop-signal	62	151334	0.0-7.27-1.27	beast_fmri_test	300	148812,/,149491,/,150172,/,150852,/,151532,/	t,t,t,t,t	<img class = center src='/static/experiments/beast_fmri_test/images/V.png'></img>	71,89	2750.0	test	<img class = center src='/static/experiments/beast_fmri_test/images/redV.png'></img>	go	2050.0	2.0	27.0	go	non-target	V	71,Green Button	89,Yellow Button	600.0	700.0	2200.0	2050.0	1.0	n/a	700.0	1.0	ITI
128291	500	n/a	-1	-1	500	0.0	fixation	poldrack-single-stim	63	152662	0.0-7.28-0.28	beast_fmri_test	300	152212,/	t	<div class = centerbox><div class = fixation>+</div></div>	none	500.0	test	n/a	n/a	n/a	n/a	n/a	n/a	n/a	n/a	n/a	n/a	n/a	n/a	n/a	n/a	n/a	n/a	n/a	n/a	fixation
127476.37910858059	700.0	n/a	-1	-1	2750	817.620891419	stim	stop-signal	64	155415	0.0-7.28-1.28	beast_fmri_test	300	152892,/,153572,/,154251,/,154932,/,155612,/	t,t,t,t,t	<img class = center src='/static/experiments/beast_fmri_test/images/P.png'></img>	71,89	2750.0	test	<img class = center src='/static/experiments/beast_fmri_test/images/redP.png'></img>	stop	2050.0	2.0	28.0	stop	non-target	P	71,Green Button	89,Yellow Button	600.0	700.0	2200.0	2050.0	0.0	1.0	700.0	0.0	go_stim
129526.37910858059	2050.0	n/a	-1	-1	2750	817.620891419	stim	stop-signal	64	155415	0.0-7.28-1.28	beast_fmri_test	300	152892,/,153572,/,154251,/,154932,/,155612,/	t,t,t,t,t	<img class = center src='/static/experiments/beast_fmri_test/images/P.png'></img>	71,89	2750.0	test	<img class = center src='/static/experiments/beast_fmri_test/images/redP.png'></img>	stop	2050.0	2.0	28.0	stop	non-target	P	71,Green Button	89,Yellow Button	600.0	700.0	2200.0	2050.0	0.0	1.0	700.0	0.0	stop_stim
130226.37910858059	817.62089141942704	n/a	-1	-1	2750	817.620891419	stim	stop-signal	64	155415	0.0-7.28-1.28	beast_fmri_test	300	152892,/,153572,/,154251,/,154932,/,155612,/	t,t,t,t,t	<img class = center src='/static/experiments/beast_fmri_test/images/P.png'></img>	71,89	2750.0	test	<img class = center src='/static/experiments/beast_fmri_test/images/redP.png'></img>	stop	2050.0	2.0	28.0	stop	non-target	P	71,Green Button	89,Yellow Button	600.0	700.0	2200.0	2050.0	0.0	1.0	700.0	0.0	ITI
132368	500	n/a	-1	-1	500	0.0	fixation	poldrack-single-stim	65	156739	0.0-7.29-0.29	beast_fmri_test	300	156292,/	t	<div class = centerbox><div class = fixation>+</div></div>	none	500.0	test	n/a	n/a	n/a	n/a	n/a	n/a	n/a	n/a	n/a	n/a	n/a	n/a	n/a	n/a	n/a	n/a	n/a	n/a	fixation
132228.90667686186	2750	n/a	830	71	2750	141.093323138	stim	stop-signal	66	159491	0.0-7.29-1.29	beast_fmri_test	300	156972,/,157651,/,158331,/,159011,/	t,t,t,t	<img class = center src='/static/experiments/beast_fmri_test/images/V.png'></img>	71,89	2750.0	test	<img class = center src='/static/experiments/beast_fmri_test/images/redV.png'></img>	go	2150.0	2.0	29.0	go	target	V	71,Green Button	89,Yellow Button	600.0	750.0	2150.0	2050.0	1.0	n/a	600.0	1.0	go_stim
134978.90667686186	141.093323138139	n/a	830	71	2750	141.093323138	stim	stop-signal	66	159491	0.0-7.29-1.29	beast_fmri_test	300	156972,/,157651,/,158331,/,159011,/	t,t,t,t	<img class = center src='/static/experiments/beast_fmri_test/images/V.png'></img>	71,89	2750.0	test	<img class = center src='/static/experiments/beast_fmri_test/images/redV.png'></img>	go	2150.0	2.0	29.0	go	target	V	71,Green Button	89,Yellow Button	600.0	750.0	2150.0	2050.0	1.0	n/a	600.0	1.0	ITI
135769	500	n/a	-1	-1	500	0.0	fixation	poldrack-single-stim	67	160140	0.0-7.30-0.30	beast_fmri_test	300	159691,/	t	<div class = centerbox><div class = fixation>+</div></div>	none	500.0	test	n/a	n/a	n/a	n/a	n/a	n/a	n/a	n/a	n/a	n/a	n/a	n/a	n/a	n/a	n/a	n/a	n/a	n/a	fixation
134928.79649268027	750.0	n/a	-1	-1	2750	842.20350732	stim	stop-signal	68	162892	0.0-7.30-1.30	beast_fmri_test	300	160372,/,161051,/,161731,/,162411,/,163091,/	t,t,t,t,t	<img class = center src='/static/experiments/beast_fmri_test/images/D.png'></img>	71,89	2750.0	test	<img class = center src='/static/experiments/beast_fmri_test/images/redD.png'></img>	stop	2000.0	2.0	30.0	stop	non-target	D	71,Green Button	89,Yellow Button	600.0	750.0	2150.0	2000.0	0.0	1.0	750.0	0.0	go_stim
136928.79649268027	2000.0	n/a	-1	-1	2750	842.20350732	stim	stop-signal	68	162892	0.0-7.30-1.30	beast_fmri_test	300	160372,/,161051,/,161731,/,162411,/,163091,/	t,t,t,t,t	<img class = center src='/static/experiments/beast_fmri_test/images/D.png'></img>	71,89	2750.0	test	<img class = center src='/static/experiments/beast_fmri_test/images/redD.png'></img>	stop	2000.0	2.0	30.0	stop	non-target	D	71,Green Button	89,Yellow Button	600.0	750.0	2150.0	2000.0	0.0	1.0	750.0	0.0	stop_stim
137678.79649268027	842.20350731974497	n/a	-1	-1	2750	842.20350732	stim	stop-signal	68	162892	0.0-7.30-1.30	beast_fmri_test	300	160372,/,161051,/,161731,/,162411,/,163091,/	t,t,t,t,t	<img class = center src='/static/experiments/beast_fmri_test/images/D.png'></img>	71,89	2750.0	test	<img class = center src='/static/experiments/beast_fmri_test/images/redD.png'></img>	stop	2000.0	2.0	30.0	stop	non-target	D	71,Green Button	89,Yellow Button	600.0	750.0	2150.0	2000.0	0.0	1.0	750.0	0.0	ITI
139867	500	n/a	-1	-1	500	0.0	fixation	poldrack-single-stim	69	164238	0.0-7.31-0.31	beast_fmri_test	300	163771,/	t	<div class = centerbox><div class = fixation>+</div></div>	none	500.0	test	n/a	n/a	n/a	n/a	n/a	n/a	n/a	n/a	n/a	n/a	n/a	n/a	n/a	n/a	n/a	n/a	n/a	n/a	fixation
139531.13811669746	2750	n/a	1360	89	2750	337.861883303	stim	stop-signal	70	166990	0.0-7.31-1.31	beast_fmri_test	300	164452,/,165131,/,165811,/,166492,/,167173,/	t,t,t,t,t	<img class = center src='/static/experiments/beast_fmri_test/images/D.png'></img>	71,89	2750.0	test	<img class = center src='/static/experiments/beast_fmri_test/images/redD.png'></img>	go	1950.0	2.0	31.0	go	non-target	D	71,Green Button	89,Yellow Button	600.0	800.0	2150.0	1950.0	1.0	n/a	800.0	1.0	go_stim
142281.13811669746	337.86188330254902	n/a	1360	89	2750	337.861883303	stim	stop-signal	70	166990	0.0-7.31-1.31	beast_fmri_test	300	164452,/,165131,/,165811,/,166492,/,167173,/	t,t,t,t,t	<img class = center src='/static/experiments/beast_fmri_test/images/D.png'></img>	71,89	2750.0	test	<img class = center src='/static/experiments/beast_fmri_test/images/redD.png'></img>	go	1950.0	2.0	31.0	go	non-target	D	71,Green Button	89,Yellow Button	600.0	800.0	2150.0	1950.0	1.0	n/a	800.0	1.0	ITI
143462	500	n/a	-1	-1	500	0.0	fixation	poldrack-single-stim	71	167833	0.0-7.32-0.32	beast_fmri_test	300	n/a	n/a	<div class = centerbox><div class = fixation>+</div></div>	none	500.0	test	n/a	n/a	n/a	n/a	n/a	n/a	n/a	n/a	n/a	n/a	n/a	n/a	n/a	n/a	n/a	n/a	n/a	n/a	fixation
142041.33487087049	2750	n/a	1580	89	2750	1422.66512913	stim	stop-signal	72	170585	0.0-7.32-1.32	beast_fmri_test	300	167852,/,168532,/,169212,/,169892,/,170572,/,171252,/,171932,/	t,t,t,t,t,t,t	<img class = center src='/static/experiments/beast_fmri_test/images/T.png'></img>	71,89	2750.0	test	<img class = center src='/static/experiments/beast_fmri_test/images/redT.png'></img>	go	1950.0	2.0	32.0	go	non-target	T	71,Green Button	89,Yellow Button	600.0	800.0	2150.0	1950.0	1.0	n/a	800.0	1.0	go_stim
144791.33487087049	1422.66512912952	n/a	1580	89	2750	1422.66512913	stim	stop-signal	72	170585	0.0-7.32-1.32	beast_fmri_test	300	167852,/,168532,/,169212,/,169892,/,170572,/,171252,/,171932,/	t,t,t,t,t,t,t	<img class = center src='/static/experiments/beast_fmri_test/images/T.png'></img>	71,89	2750.0	test	<img class = center src='/static/experiments/beast_fmri_test/images/redT.png'></img>	go	1950.0	2.0	32.0	go	non-target	T	71,Green Button	89,Yellow Button	600.0	800.0	2150.0	1950.0	1.0	n/a	800.0	1.0	ITI
148144	500	n/a	-1	-1	500	0.0	fixation	poldrack-single-stim	73	172515	0.0-7.33-0.33	beast_fmri_test	300	n/a	n/a	<div class = centerbox><div class = fixation>+</div></div>	none	500.0	test	n/a	n/a	n/a	n/a	n/a	n/a	n/a	n/a	n/a	n/a	n/a	n/a	n/a	n/a	n/a	n/a	n/a	n/a	fixation
147483.93963307579	2750	n/a	1091	89	2750	662.060366924	stim	stop-signal	74	175267	0.0-7.33-1.33	beast_fmri_test	300	172612,/,173292,/,173972,/,174652,/,175332,/	t,t,t,t,t	<img class = center src='/static/experiments/beast_fmri_test/images/B.png'></img>	71,89	2750.0	test	<img class = center src='/static/experiments/beast_fmri_test/images/redB.png'></img>	go	1950.0	2.0	33.0	go	non-target	B	71,Green Button	89,Yellow Button	600.0	800.0	2150.0	1950.0	1.0	n/a	800.0	1.0	go_stim
150233.93963307579	662.06036692421299	n/a	1091	89	2750	662.060366924	stim	stop-signal	74	175267	0.0-7.33-1.33	beast_fmri_test	300	172612,/,173292,/,173972,/,174652,/,175332,/	t,t,t,t,t	<img class = center src='/static/experiments/beast_fmri_test/images/B.png'></img>	71,89	2750.0	test	<img class = center src='/static/experiments/beast_fmri_test/images/redB.png'></img>	go	1950.0	2.0	33.0	go	non-target	B	71,Green Button	89,Yellow Button	600.0	800.0	2150.0	1950.0	1.0	n/a	800.0	1.0	ITI
152065	500	n/a	-1	-1	500	0.0	fixation	poldrack-single-stim	75	176436	0.0-7.34-0.34	beast_fmri_test	300	176012,/	t	<div class = centerbox><div class = fixation>+</div></div>	none	500.0	test	n/a	n/a	n/a	n/a	n/a	n/a	n/a	n/a	n/a	n/a	n/a	n/a	n/a	n/a	n/a	n/a	n/a	n/a	fixation
151798.94404934303	600.0	n/a	809	71	2750	267.055950657	stim	stop-signal	76	179187	0.0-7.34-1.34	beast_fmri_test	300	176692,/,177371,/,178052,/,178732,/,179412,/	t,t,t,t,t	<img class = center src='/static/experiments/beast_fmri_test/images/T.png'></img>	71,89	2750.0	test	<img class = center src='/static/experiments/beast_fmri_test/images/redT.png'></img>	stop	2150.0	2.0	34.0	stop	target	T	71,Green Button	89,Yellow Button	600.0	800.0	2150.0	1950.0	0.0	0.0	600.0	1.0	go_stim
153948.94404934303	2150.0	n/a	809	71	2750	267.055950657	stim	stop-signal	76	179187	0.0-7.34-1.34	beast_fmri_test	300	176692,/,177371,/,178052,/,178732,/,179412,/	t,t,t,t,t	<img class = center src='/static/experiments/beast_fmri_test/images/T.png'></img>	71,89	2750.0	test	<img class = center src='/static/experiments/beast_fmri_test/images/redT.png'></img>	stop	2150.0	2.0	34.0	stop	target	T	71,Green Button	89,Yellow Button	600.0	800.0	2150.0	1950.0	0.0	0.0	600.0	1.0	stop_stim
154548.94404934303	267.05595065696798	n/a	809	71	2750	267.055950657	stim	stop-signal	76	179187	0.0-7.34-1.34	beast_fmri_test	300	176692,/,177371,/,178052,/,178732,/,179412,/	t,t,t,t,t	<img class = center src='/static/experiments/beast_fmri_test/images/T.png'></img>	71,89	2750.0	test	<img class = center src='/static/experiments/beast_fmri_test/images/redT.png'></img>	stop	2150.0	2.0	34.0	stop	target	T	71,Green Button	89,Yellow Button	600.0	800.0	2150.0	1950.0	0.0	0.0	600.0	1.0	ITI
155590	500	n/a	-1	-1	500	0.0	fixation	poldrack-single-stim	77	179961	0.0-7.35-0.35	beast_fmri_test	300	n/a	n/a	<div class = centerbox><div class = fixation>+</div></div>	none	500.0	test	n/a	n/a	n/a	n/a	n/a	n/a	n/a	n/a	n/a	n/a	n/a	n/a	n/a	n/a	n/a	n/a	n/a	n/a	fixation
153902.50191767735	2750	n/a	1023	71	2750	1689.49808232	stim	stop-signal	78	182713	0.0-7.35-1.35	beast_fmri_test	300	180092,/,180772,/,181452,/,182132,/,182812,/,183492,/,184172,/	t,t,t,t,t,t,t	<img class = center src='/static/experiments/beast_fmri_test/images/B.png'></img>	71,89	2750.0	test	<img class = center src='/static/experiments/beast_fmri_test/images/redB.png'></img>	go	2200.0	2.0	35.0	go	target	B	71,Green Button	89,Yellow Button	550.0	800.0	2200.0	1950.0	1.0	n/a	550.0	1.0	go_stim
156652.50191767735	1689.4980823226499	n/a	1023	71	2750	1689.49808232	stim	stop-signal	78	182713	0.0-7.35-1.35	beast_fmri_test	300	180092,/,180772,/,181452,/,182132,/,182812,/,183492,/,184172,/	t,t,t,t,t,t,t	<img class = center src='/static/experiments/beast_fmri_test/images/B.png'></img>	71,89	2750.0	test	<img class = center src='/static/experiments/beast_fmri_test/images/redB.png'></img>	go	2200.0	2.0	35.0	go	target	B	71,Green Button	89,Yellow Button	550.0	800.0	2200.0	1950.0	1.0	n/a	550.0	1.0	ITI
160539	500	n/a	-1	-1	500	0.0	fixation	poldrack-single-stim	79	184910	0.0-7.36-0.36	beast_fmri_test	300	184852,/	t	<div class = centerbox><div class = fixation>+</div></div>	none	500.0	test	n/a	n/a	n/a	n/a	n/a	n/a	n/a	n/a	n/a	n/a	n/a	n/a	n/a	n/a	n/a	n/a	n/a	n/a	fixation
159663.37771029721	2750	n/a	1124	71	2750	877.622289703	stim	stop-signal	80	187662	0.0-7.36-1.36	beast_fmri_test	300	185532,/,186212,/,186892,/,187573,/,188252,/	t,t,t,t,t	<img class = center src='/static/experiments/beast_fmri_test/images/T.png'></img>	71,89	2750.0	test	<img class = center src='/static/experiments/beast_fmri_test/images/redT.png'></img>	go	2200.0	2.0	36.0	go	target	T	71,Green Button	89,Yellow Button	550.0	800.0	2200.0	1950.0	1.0	n/a	550.0	1.0	go_stim
162413.37771029721	877.62228970278397	n/a	1124	71	2750	877.622289703	stim	stop-signal	80	187662	0.0-7.36-1.36	beast_fmri_test	300	185532,/,186212,/,186892,/,187573,/,188252,/	t,t,t,t,t	<img class = center src='/static/experiments/beast_fmri_test/images/T.png'></img>	71,89	2750.0	test	<img class = center src='/static/experiments/beast_fmri_test/images/redT.png'></img>	go	2200.0	2.0	36.0	go	target	T	71,Green Button	89,Yellow Button	550.0	800.0	2200.0	1950.0	1.0	n/a	550.0	1.0	ITI
164675	500	n/a	-1	-1	500	0.0	fixation	poldrack-single-stim	81	189046	0.0-7.37-0.37	beast_fmri_test	300	188932,/	t	<div class = centerbox><div class = fixation>+</div></div>	none	500.0	test	n/a	n/a	n/a	n/a	n/a	n/a	n/a	n/a	n/a	n/a	n/a	n/a	n/a	n/a	n/a	n/a	n/a	n/a	fixation
163364.64017150193	2750	n/a	1448	89	2750	1312.3598285	stim	stop-signal	82	191798	0.0-7.37-1.37	beast_fmri_test	300	189612,/,190292,/,190972,/,191652,/,192332,/,193012,/	t,t,t,t,t,t	<img class = center src='/static/experiments/beast_fmri_test/images/V.png'></img>	71,89	2750.0	test	<img class = center src='/static/experiments/beast_fmri_test/images/redV.png'></img>	go	1950.0	2.0	37.0	go	non-target	V	71,Green Button	89,Yellow Button	550.0	800.0	2200.0	1950.0	1.0	n/a	800.0	1.0	go_stim
166114.64017150193	1312.3598284980601	n/a	1448	89	2750	1312.3598285	stim	stop-signal	82	191798	0.0-7.37-1.37	beast_fmri_test	300	189612,/,190292,/,190972,/,191652,/,192332,/,193012,/	t,t,t,t,t,t	<img class = center src='/static/experiments/beast_fmri_test/images/V.png'></img>	71,89	2750.0	test	<img class = center src='/static/experiments/beast_fmri_test/images/redV.png'></img>	go	1950.0	2.0	37.0	go	non-target	V	71,Green Button	89,Yellow Button	550.0	800.0	2200.0	1950.0	1.0	n/a	800.0	1.0	ITI
169247	500	n/a	-1	-1	500	0.0	fixation	poldrack-single-stim	83	193618	0.0-7.38-0.38	beast_fmri_test	300	n/a	n/a	<div class = centerbox><div class = fixation>+</div></div>	none	500.0	test	n/a	n/a	n/a	n/a	n/a	n/a	n/a	n/a	n/a	n/a	n/a	n/a	n/a	n/a	n/a	n/a	n/a	n/a	fixation
165371.84847331117	2750	n/a	1469	89	2750	3877.15152669	stim	stop-signal	84	196370	0.0-7.38-1.38	beast_fmri_test	300	193692,/,194372,/,195052,/,195732,/,196412,/,197092,/,197773,/,198453,/,199133,/,199813,/	t,t,t,t,t,t,t,t,t,t	<img class = center src='/static/experiments/beast_fmri_test/images/P.png'></img>	71,89	2750.0	test	<img class = center src='/static/experiments/beast_fmri_test/images/redP.png'></img>	go	1950.0	2.0	38.0	go	non-target	P	71,Green Button	89,Yellow Button	550.0	800.0	2200.0	1950.0	1.0	n/a	800.0	1.0	go_stim
168121.84847331117	3877.15152668884	n/a	1469	89	2750	3877.15152669	stim	stop-signal	84	196370	0.0-7.38-1.38	beast_fmri_test	300	193692,/,194372,/,195052,/,195732,/,196412,/,197092,/,197773,/,198453,/,199133,/,199813,/	t,t,t,t,t,t,t,t,t,t	<img class = center src='/static/experiments/beast_fmri_test/images/P.png'></img>	71,89	2750.0	test	<img class = center src='/static/experiments/beast_fmri_test/images/redP.png'></img>	go	1950.0	2.0	38.0	go	non-target	P	71,Green Button	89,Yellow Button	550.0	800.0	2200.0	1950.0	1.0	n/a	800.0	1.0	ITI
176382	500	n/a	-1	-1	500	0.0	fixation	poldrack-single-stim	85	200753	0.0-7.39-0.39	beast_fmri_test	300	200493,/	t	<div class = centerbox><div class = fixation>+</div></div>	none	500.0	test	n/a	n/a	n/a	n/a	n/a	n/a	n/a	n/a	n/a	n/a	n/a	n/a	n/a	n/a	n/a	n/a	n/a	n/a	fixation
175607.55407041954	2750	n/a	1851	89	2750	776.44592958	stim	stop-signal	86	203505	0.0-7.39-1.39	beast_fmri_test	300	201172,/,201853,/,202532,/,203213,/,203893,/	t,t,t,t,t	<img class = center src='/static/experiments/beast_fmri_test/images/P.png'></img>	71,89	2750.0	test	<img class = center src='/static/experiments/beast_fmri_test/images/redP.png'></img>	go	1950.0	2.0	39.0	go	non-target	P	71,Green Button	89,Yellow Button	550.0	800.0	2200.0	1950.0	1.0	n/a	800.0	1.0	go_stim
178357.55407041954	776.44592958046803	n/a	1851	89	2750	776.44592958	stim	stop-signal	86	203505	0.0-7.39-1.39	beast_fmri_test	300	201172,/,201853,/,202532,/,203213,/,203893,/	t,t,t,t,t	<img class = center src='/static/experiments/beast_fmri_test/images/P.png'></img>	71,89	2750.0	test	<img class = center src='/static/experiments/beast_fmri_test/images/redP.png'></img>	go	1950.0	2.0	39.0	go	non-target	P	71,Green Button	89,Yellow Button	550.0	800.0	2200.0	1950.0	1.0	n/a	800.0	1.0	ITI
180418	500	n/a	-1	-1	500	0.0	fixation	poldrack-single-stim	87	204789	0.0-7.40-0.40	beast_fmri_test	300	204573,/	t	<div class = centerbox><div class = fixation>+</div></div>	none	500.0	test	n/a	n/a	n/a	n/a	n/a	n/a	n/a	n/a	n/a	n/a	n/a	n/a	n/a	n/a	n/a	n/a	n/a	n/a	fixation
177864.58942152534	2750	n/a	1379	89	2750	2555.41057847	stim	stop-signal	88	207541	0.0-7.40-1.40	beast_fmri_test	300	205253,/,205933,/,206613,/,207293,/,207974,/,208652,/,209333,/,210012,/	t,t,t,t,t,t,t,t	<img class = center src='/static/experiments/beast_fmri_test/images/P.png'></img>	71,89	2750.0	test	<img class = center src='/static/experiments/beast_fmri_test/images/redP.png'></img>	go	2200.0	2.0	40.0	go	target	P	71,Green Button	89,Yellow Button	550.0	800.0	2200.0	1950.0	0.0	n/a	550.0	0.0	go_stim
180614.58942152534	2555.4105784746598	n/a	1379	89	2750	2555.41057847	stim	stop-signal	88	207541	0.0-7.40-1.40	beast_fmri_test	300	205253,/,205933,/,206613,/,207293,/,207974,/,208652,/,209333,/,210012,/	t,t,t,t,t,t,t,t	<img class = center src='/static/experiments/beast_fmri_test/images/P.png'></img>	71,89	2750.0	test	<img class = center src='/static/experiments/beast_fmri_test/images/redP.png'></img>	go	2200.0	2.0	40.0	go	target	P	71,Green Button	89,Yellow Button	550.0	800.0	2200.0	1950.0	0.0	n/a	550.0	0.0	ITI
186232	500	n/a	-1	-1	500	0.0	fixation	poldrack-single-stim	89	210603	0.0-7.41-0.41	beast_fmri_test	300	n/a	n/a	<div class = centerbox><div class = fixation>+</div></div>	none	500.0	test	n/a	n/a	n/a	n/a	n/a	n/a	n/a	n/a	n/a	n/a	n/a	n/a	n/a	n/a	n/a	n/a	n/a	n/a	fixation
186109.10437893288	2750	n/a	1366	89	2750	124.895621067	stim	stop-signal	90	213355	0.0-7.41-1.41	beast_fmri_test	300	210692,/,211372,/,212053,/,212733,/,213412,/	t,t,t,t,t	<img class = center src='/static/experiments/beast_fmri_test/images/T.png'></img>	71,89	2750.0	test	<img class = center src='/static/experiments/beast_fmri_test/images/redT.png'></img>	go	1950.0	2.0	41.0	go	non-target	T	71,Green Button	89,Yellow Button	550.0	800.0	2200.0	1950.0	1.0	n/a	800.0	1.0	go_stim
188859.10437893288	124.895621067109	n/a	1366	89	2750	124.895621067	stim	stop-signal	90	213355	0.0-7.41-1.41	beast_fmri_test	300	210692,/,211372,/,212053,/,212733,/,213412,/	t,t,t,t,t	<img class = center src='/static/experiments/beast_fmri_test/images/T.png'></img>	71,89	2750.0	test	<img class = center src='/static/experiments/beast_fmri_test/images/redT.png'></img>	go	1950.0	2.0	41.0	go	non-target	T	71,Green Button	89,Yellow Button	550.0	800.0	2200.0	1950.0	1.0	n/a	800.0	1.0	ITI
189616	500	n/a	-1	-1	500	0.0	fixation	poldrack-single-stim	91	213987	0.0-7.42-0.42	beast_fmri_test	300	n/a	n/a	<div class = centerbox><div class = fixation>+</div></div>	none	500.0	test	n/a	n/a	n/a	n/a	n/a	n/a	n/a	n/a	n/a	n/a	n/a	n/a	n/a	n/a	n/a	n/a	n/a	n/a	fixation
187629.68510455987	800.0	n/a	-1	-1	2750	1988.31489544	stim	stop-signal	92	216739	0.0-7.42-1.42	beast_fmri_test	300	214092,/,214773,/,215453,/,216132,/,216812,/,217493,/,218173,/	t,t,t,t,t,t,t	<img class = center src='/static/experiments/beast_fmri_test/images/T.png'></img>	71,89	2750.0	test	<img class = center src='/static/experiments/beast_fmri_test/images/redT.png'></img>	stop	1950.0	2.0	42.0	stop	non-target	T	71,Green Button	89,Yellow Button	550.0	800.0	2200.0	1950.0	0.0	1.0	800.0	0.0	go_stim
189579.68510455987	1950.0	n/a	-1	-1	2750	1988.31489544	stim	stop-signal	92	216739	0.0-7.42-1.42	beast_fmri_test	300	214092,/,214773,/,215453,/,216132,/,216812,/,217493,/,218173,/	t,t,t,t,t,t,t	<img class = center src='/static/experiments/beast_fmri_test/images/T.png'></img>	71,89	2750.0	test	<img class = center src='/static/experiments/beast_fmri_test/images/redT.png'></img>	stop	1950.0	2.0	42.0	stop	non-target	T	71,Green Button	89,Yellow Button	550.0	800.0	2200.0	1950.0	0.0	1.0	800.0	0.0	stop_stim
190379.68510455987	1988.3148954401399	n/a	-1	-1	2750	1988.31489544	stim	stop-signal	92	216739	0.0-7.42-1.42	beast_fmri_test	300	214092,/,214773,/,215453,/,216132,/,216812,/,217493,/,218173,/	t,t,t,t,t,t,t	<img class = center src='/static/experiments/beast_fmri_test/images/T.png'></img>	71,89	2750.0	test	<img class = center src='/static/experiments/beast_fmri_test/images/redT.png'></img>	stop	1950.0	2.0	42.0	stop	non-target	T	71,Green Button	89,Yellow Button	550.0	800.0	2200.0	1950.0	0.0	1.0	800.0	0.0	ITI
194865	500	n/a	-1	-1	500	0.0	fixation	poldrack-single-stim	93	219236	0.0-7.43-0.43	beast_fmri_test	300	218852,/	t	<div class = centerbox><div class = fixation>+</div></div>	none	500.0	test	n/a	n/a	n/a	n/a	n/a	n/a	n/a	n/a	n/a	n/a	n/a	n/a	n/a	n/a	n/a	n/a	n/a	n/a	fixation
194122.18519250382	2750	n/a	778	71	2750	743.814807496	stim	stop-signal	94	221987	0.0-7.43-1.43	beast_fmri_test	300	219533,/,220212,/,220892,/,221572,/,222252,/	t,t,t,t,t	<img class = center src='/static/experiments/beast_fmri_test/images/T.png'></img>	71,89	2750.0	test	<img class = center src='/static/experiments/beast_fmri_test/images/redT.png'></img>	go	2200.0	2.0	43.0	go	target	T	71,Green Button	89,Yellow Button	550.0	850.0	2200.0	1950.0	1.0	n/a	550.0	1.0	go_stim
196872.18519250382	743.81480749619095	n/a	778	71	2750	743.814807496	stim	stop-signal	94	221987	0.0-7.43-1.43	beast_fmri_test	300	219533,/,220212,/,220892,/,221572,/,222252,/	t,t,t,t,t	<img class = center src='/static/experiments/beast_fmri_test/images/T.png'></img>	71,89	2750.0	test	<img class = center src='/static/experiments/beast_fmri_test/images/redT.png'></img>	go	2200.0	2.0	43.0	go	target	T	71,Green Button	89,Yellow Button	550.0	850.0	2200.0	1950.0	1.0	n/a	550.0	1.0	ITI
198868	500	n/a	-1	-1	500	0.0	fixation	poldrack-single-stim	95	223239	0.0-7.44-0.44	beast_fmri_test	300	222932,/	t	<div class = centerbox><div class = fixation>+</div></div>	none	500.0	test	n/a	n/a	n/a	n/a	n/a	n/a	n/a	n/a	n/a	n/a	n/a	n/a	n/a	n/a	n/a	n/a	n/a	n/a	fixation
196491.83472183146	2750	n/a	904	71	2750	2378.16527817	stim	stop-signal	96	225991	0.0-7.44-1.44	beast_fmri_test	300	223613,/,224292,/,224972,/,225652,/,226332,/,227012,/,227692,/	t,t,t,t,t,t,t	<img class = center src='/static/experiments/beast_fmri_test/images/T.png'></img>	71,89	2750.0	test	<img class = center src='/static/experiments/beast_fmri_test/images/redT.png'></img>	go	2200.0	2.0	44.0	go	target	T	71,Green Button	89,Yellow Button	550.0	850.0	2200.0	1950.0	1.0	n/a	550.0	1.0	go_stim
199241.83472183146	2378.1652781685302	n/a	904	71	2750	2378.16527817	stim	stop-signal	96	225991	0.0-7.44-1.44	beast_fmri_test	300	223613,/,224292,/,224972,/,225652,/,226332,/,227012,/,227692,/	t,t,t,t,t,t,t	<img class = center src='/static/experiments/beast_fmri_test/images/T.png'></img>	71,89	2750.0	test	<img class = center src='/static/experiments/beast_fmri_test/images/redT.png'></img>	go	2200.0	2.0	44.0	go	target	T	71,Green Button	89,Yellow Button	550.0	850.0	2200.0	1950.0	1.0	n/a	550.0	1.0	ITI
204506	500	n/a	-1	-1	500	0.0	fixation	poldrack-single-stim	97	228877	0.0-7.45-0.45	beast_fmri_test	300	228375,/	t	<div class = centerbox><div class = fixation>+</div></div>	none	500.0	test	n/a	n/a	n/a	n/a	n/a	n/a	n/a	n/a	n/a	n/a	n/a	n/a	n/a	n/a	n/a	n/a	n/a	n/a	fixation
201213.50400105791	850.0	n/a	1125	89	2750	3294.49599894	stim	stop-signal	98	231629	0.0-7.45-1.45	beast_fmri_test	300	229052,/,229733,/,230413,/,231093,/,231773,/,232453,/,233133,/,233813,/,234493,/	t,t,t,t,t,t,t,t,t	<img class = center src='/static/experiments/beast_fmri_test/images/P.png'></img>	71,89	2750.0	test	<img class = center src='/static/experiments/beast_fmri_test/images/redP.png'></img>	stop	1900.0	2.0	45.0	stop	non-target	P	71,Green Button	89,Yellow Button	550.0	850.0	2200.0	1900.0	0.0	0.0	850.0	1.0	go_stim
203113.50400105791	1900.0	n/a	1125	89	2750	3294.49599894	stim	stop-signal	98	231629	0.0-7.45-1.45	beast_fmri_test	300	229052,/,229733,/,230413,/,231093,/,231773,/,232453,/,233133,/,233813,/,234493,/	t,t,t,t,t,t,t,t,t	<img class = center src='/static/experiments/beast_fmri_test/images/P.png'></img>	71,89	2750.0	test	<img class = center src='/static/experiments/beast_fmri_test/images/redP.png'></img>	stop	1900.0	2.0	45.0	stop	non-target	P	71,Green Button	89,Yellow Button	550.0	850.0	2200.0	1900.0	0.0	0.0	850.0	1.0	stop_stim
203963.50400105791	3294.49599894209	n/a	1125	89	2750	3294.49599894	stim	stop-signal	98	231629	0.0-7.45-1.45	beast_fmri_test	300	229052,/,229733,/,230413,/,231093,/,231773,/,232453,/,233133,/,233813,/,234493,/	t,t,t,t,t,t,t,t,t	<img class = center src='/static/experiments/beast_fmri_test/images/P.png'></img>	71,89	2750.0	test	<img class = center src='/static/experiments/beast_fmri_test/images/redP.png'></img>	stop	1900.0	2.0	45.0	stop	non-target	P	71,Green Button	89,Yellow Button	550.0	850.0	2200.0	1900.0	0.0	0.0	850.0	1.0	ITI
211060	500	n/a	-1	-1	500	0.0	fixation	poldrack-single-stim	99	235431	0.0-7.46-0.46	beast_fmri_test	300	235173,/	t	<div class = centerbox><div class = fixation>+</div></div>	none	500.0	test	n/a	n/a	n/a	n/a	n/a	n/a	n/a	n/a	n/a	n/a	n/a	n/a	n/a	n/a	n/a	n/a	n/a	n/a	fixation
210923.95558978143	2750	n/a	1239	89	2750	139.044410219	stim	stop-signal	100	238184	0.0-7.46-1.46	beast_fmri_test	300	235853,/,236533,/,237213,/,237893,/	t,t,t,t	<img class = center src='/static/experiments/beast_fmri_test/images/V.png'></img>	71,89	2750.0	test	<img class = center src='/static/experiments/beast_fmri_test/images/redV.png'></img>	go	1950.0	2.0	46.0	go	non-target	V	71,Green Button	89,Yellow Button	550.0	800.0	2200.0	1950.0	1.0	n/a	800.0	1.0	go_stim
213673.95558978143	139.04441021857301	n/a	1239	89	2750	139.044410219	stim	stop-signal	100	238184	0.0-7.46-1.46	beast_fmri_test	300	235853,/,236533,/,237213,/,237893,/	t,t,t,t	<img class = center src='/static/experiments/beast_fmri_test/images/V.png'></img>	71,89	2750.0	test	<img class = center src='/static/experiments/beast_fmri_test/images/redV.png'></img>	go	1950.0	2.0	46.0	go	non-target	V	71,Green Button	89,Yellow Button	550.0	800.0	2200.0	1950.0	1.0	n/a	800.0	1.0	ITI
228959	15000	n/a	-1	-1	15000	0.0	practice-no-stop-feedback	poldrack-single-stim	101	253330	0.0-8.0	beast_fmri_test	300	238574,/,239253,/,239933,/,240613,/,241293,/,241973,/,242653,/,243333,/,244013,/,244693,/,245373,/,246053,/,246733,/,247413,/,248093,/,248774,/,249453,/,250133,/,250813,/,251493,/,252173,/,252853,/	t,t,t,t,t,t,t,t,t,t,t,t,t,t,t,t,t,t,t,t,t,t	"<div class = ""centerbox""><p class = ""center-block-text"">Your delay is 3 trials.</p><p class = center-block-text>Please wait for the scanner to start the block</p></div>"	77	15000.0	n/a	n/a	n/a	n/a	n/a	n/a	n/a	n/a	n/a	n/a	n/a	n/a	n/a	n/a	n/a	n/a	n/a	n/a	n/a	practice-no-stop-feedback
229461	500	n/a	-1	-1	500	0.0	fixation	poldrack-single-stim	102	253832	0.0-9.0-0.0	beast_fmri_test	300	253533,/	t	<div class = centerbox><div class = fixation>+</div></div>	none	500.0	test	n/a	n/a	n/a	n/a	n/a	n/a	n/a	n/a	n/a	n/a	n/a	n/a	n/a	n/a	n/a	n/a	n/a	n/a	fixation
229117.3818940662	2750	n/a	1760	89	2750	345.618105934	stim	stop-signal	103	256584	0.0-9.0-1.0	beast_fmri_test	300	254213,/,254893,/,255573,/,256253,/	t,t,t,t	<img class = center src='/static/experiments/beast_fmri_test/images/P.png'></img>	71,89	2750.0	test	<img class = center src='/static/experiments/beast_fmri_test/images/redP.png'></img>	go	-1.0	3.0	0.0	go	temp-non-target	P	71,Green Button	89,Yellow Button	550.0	800.0	2200.0	1950.0	0.0	n/a	n/a	n/a	go_stim
231867.3818940662	345.618105933805	n/a	1760	89	2750	345.618105934	stim	stop-signal	103	256584	0.0-9.0-1.0	beast_fmri_test	300	254213,/,254893,/,255573,/,256253,/	t,t,t,t	<img class = center src='/static/experiments/beast_fmri_test/images/P.png'></img>	71,89	2750.0	test	<img class = center src='/static/experiments/beast_fmri_test/images/redP.png'></img>	go	-1.0	3.0	0.0	go	temp-non-target	P	71,Green Button	89,Yellow Button	550.0	800.0	2200.0	1950.0	0.0	n/a	n/a	n/a	ITI
233066	500	n/a	-1	-1	500	0.0	fixation	poldrack-single-stim	104	257437	0.0-9.1-0.1	beast_fmri_test	300	256936,/	t	<div class = centerbox><div class = fixation>+</div></div>	none	500.0	test	n/a	n/a	n/a	n/a	n/a	n/a	n/a	n/a	n/a	n/a	n/a	n/a	n/a	n/a	n/a	n/a	n/a	n/a	fixation
232250.24097772152	2750	n/a	1404	89	2750	816.759022278	stim	stop-signal	105	260188	0.0-9.1-1.1	beast_fmri_test	300	257613,/,258293,/,258973,/,259653,/,260332,/	t,t,t,t,t	<img class = center src='/static/experiments/beast_fmri_test/images/V.png'></img>	71,89	2750.0	test	<img class = center src='/static/experiments/beast_fmri_test/images/redV.png'></img>	go	-1.0	3.0	1.0	go	temp-non-target	V	71,Green Button	89,Yellow Button	550.0	800.0	2200.0	1950.0	0.0	n/a	n/a	n/a	go_stim
235000.24097772152	816.75902227847905	n/a	1404	89	2750	816.759022278	stim	stop-signal	105	260188	0.0-9.1-1.1	beast_fmri_test	300	257613,/,258293,/,258973,/,259653,/,260332,/	t,t,t,t,t	<img class = center src='/static/experiments/beast_fmri_test/images/V.png'></img>	71,89	2750.0	test	<img class = center src='/static/experiments/beast_fmri_test/images/redV.png'></img>	go	-1.0	3.0	1.0	go	temp-non-target	V	71,Green Button	89,Yellow Button	550.0	800.0	2200.0	1950.0	0.0	n/a	n/a	n/a	ITI
237141	500	n/a	-1	-1	500	0.0	fixation	poldrack-single-stim	106	261512	0.0-9.2-0.2	beast_fmri_test	300	261012,/	t	<div class = centerbox><div class = fixation>+</div></div>	none	500.0	test	n/a	n/a	n/a	n/a	n/a	n/a	n/a	n/a	n/a	n/a	n/a	n/a	n/a	n/a	n/a	n/a	n/a	n/a	fixation
236324.82917546178	2750	n/a	1629	89	2750	817.170824538	stim	stop-signal	107	264263	0.0-9.2-1.2	beast_fmri_test	300	261693,/,262373,/,263053,/,263734,/,264414,/	t,t,t,t,t	<img class = center src='/static/experiments/beast_fmri_test/images/B.png'></img>	71,89	2750.0	test	<img class = center src='/static/experiments/beast_fmri_test/images/redB.png'></img>	go	-1.0	3.0	2.0	go	temp-non-target	B	71,Green Button	89,Yellow Button	550.0	800.0	2200.0	1950.0	0.0	n/a	n/a	n/a	go_stim
239074.82917546178	817.17082453818898	n/a	1629	89	2750	817.170824538	stim	stop-signal	107	264263	0.0-9.2-1.2	beast_fmri_test	300	261693,/,262373,/,263053,/,263734,/,264414,/	t,t,t,t,t	<img class = center src='/static/experiments/beast_fmri_test/images/B.png'></img>	71,89	2750.0	test	<img class = center src='/static/experiments/beast_fmri_test/images/redB.png'></img>	go	-1.0	3.0	2.0	go	temp-non-target	B	71,Green Button	89,Yellow Button	550.0	800.0	2200.0	1950.0	0.0	n/a	n/a	n/a	ITI
241219	500	n/a	-1	-1	500	0.0	fixation	poldrack-single-stim	108	265590	0.0-9.3-0.3	beast_fmri_test	300	265093,/	t	<div class = centerbox><div class = fixation>+</div></div>	none	500.0	test	n/a	n/a	n/a	n/a	n/a	n/a	n/a	n/a	n/a	n/a	n/a	n/a	n/a	n/a	n/a	n/a	n/a	n/a	fixation
240396.5812298145	2750	n/a	1193	89	2750	824.418770185	stim	stop-signal	109	268342	0.0-9.3-1.3	beast_fmri_test	300	265774,/,266454,/,267134,/,267814,/,268494,/	t,t,t,t,t	<img class = center src='/static/experiments/beast_fmri_test/images/B.png'></img>	71,89	2750.0	test	<img class = center src='/static/experiments/beast_fmri_test/images/redB.png'></img>	go	1950.0	3.0	3.0	go	non-target	B	71,Green Button	89,Yellow Button	550.0	800.0	2200.0	1950.0	1.0	n/a	800.0	1.0	go_stim
243146.5812298145	824.41877018548098	n/a	1193	89	2750	824.418770185	stim	stop-signal	109	268342	0.0-9.3-1.3	beast_fmri_test	300	265774,/,266454,/,267134,/,267814,/,268494,/	t,t,t,t,t	<img class = center src='/static/experiments/beast_fmri_test/images/B.png'></img>	71,89	2750.0	test	<img class = center src='/static/experiments/beast_fmri_test/images/redB.png'></img>	go	1950.0	3.0	3.0	go	non-target	B	71,Green Button	89,Yellow Button	550.0	800.0	2200.0	1950.0	1.0	n/a	800.0	1.0	ITI
245304	500	n/a	-1	-1	500	0.0	fixation	poldrack-single-stim	110	269675	0.0-9.4-0.4	beast_fmri_test	300	269174,/	t	<div class = centerbox><div class = fixation>+</div></div>	none	500.0	test	n/a	n/a	n/a	n/a	n/a	n/a	n/a	n/a	n/a	n/a	n/a	n/a	n/a	n/a	n/a	n/a	n/a	n/a	fixation
244898.22625766404	2750	n/a	1361	89	2750	406.773742336	stim	stop-signal	111	272426	0.0-9.4-1.4	beast_fmri_test	300	269853,/,270534,/,271214,/,271894,/,272574,/	t,t,t,t,t	<img class = center src='/static/experiments/beast_fmri_test/images/T.png'></img>	71,89	2750.0	test	<img class = center src='/static/experiments/beast_fmri_test/images/redT.png'></img>	go	1950.0	3.0	4.0	go	non-target	T	71,Green Button	89,Yellow Button	550.0	800.0	2200.0	1950.0	1.0	n/a	800.0	1.0	go_stim
247648.22625766404	406.773742335973	n/a	1361	89	2750	406.773742336	stim	stop-signal	111	272426	0.0-9.4-1.4	beast_fmri_test	300	269853,/,270534,/,271214,/,271894,/,272574,/	t,t,t,t,t	<img class = center src='/static/experiments/beast_fmri_test/images/T.png'></img>	71,89	2750.0	test	<img class = center src='/static/experiments/beast_fmri_test/images/redT.png'></img>	go	1950.0	3.0	4.0	go	non-target	T	71,Green Button	89,Yellow Button	550.0	800.0	2200.0	1950.0	1.0	n/a	800.0	1.0	ITI
248970	500	n/a	-1	-1	500	0.0	fixation	poldrack-single-stim	112	273341	0.0-9.5-0.5	beast_fmri_test	300	273254,/	t	<div class = centerbox><div class = fixation>+</div></div>	none	500.0	test	n/a	n/a	n/a	n/a	n/a	n/a	n/a	n/a	n/a	n/a	n/a	n/a	n/a	n/a	n/a	n/a	n/a	n/a	fixation
248652.81760730257	800.0	n/a	-1	-1	2750	319.182392697	stim	stop-signal	113	276093	0.0-9.5-1.5	beast_fmri_test	300	273934,/,274613,/,275294,/,275973,/	t,t,t,t	<img class = center src='/static/experiments/beast_fmri_test/images/V.png'></img>	71,89	2750.0	test	<img class = center src='/static/experiments/beast_fmri_test/images/redV.png'></img>	stop	1950.0	3.0	5.0	stop	non-target	V	71,Green Button	89,Yellow Button	550.0	800.0	2200.0	1950.0	0.0	1.0	800.0	0.0	go_stim
250602.81760730257	1950.0	n/a	-1	-1	2750	319.182392697	stim	stop-signal	113	276093	0.0-9.5-1.5	beast_fmri_test	300	273934,/,274613,/,275294,/,275973,/	t,t,t,t	<img class = center src='/static/experiments/beast_fmri_test/images/V.png'></img>	71,89	2750.0	test	<img class = center src='/static/experiments/beast_fmri_test/images/redV.png'></img>	stop	1950.0	3.0	5.0	stop	non-target	V	71,Green Button	89,Yellow Button	550.0	800.0	2200.0	1950.0	0.0	1.0	800.0	0.0	stop_stim
251402.81760730257	319.182392697409	n/a	-1	-1	2750	319.182392697	stim	stop-signal	113	276093	0.0-9.5-1.5	beast_fmri_test	300	273934,/,274613,/,275294,/,275973,/	t,t,t,t	<img class = center src='/static/experiments/beast_fmri_test/images/V.png'></img>	71,89	2750.0	test	<img class = center src='/static/experiments/beast_fmri_test/images/redV.png'></img>	stop	1950.0	3.0	5.0	stop	non-target	V	71,Green Button	89,Yellow Button	550.0	800.0	2200.0	1950.0	0.0	1.0	800.0	0.0	ITI
252549	500	n/a	-1	-1	500	0.0	fixation	poldrack-single-stim	114	276920	0.0-9.6-0.6	beast_fmri_test	300	276654,/	t	<div class = centerbox><div class = fixation>+</div></div>	none	500.0	test	n/a	n/a	n/a	n/a	n/a	n/a	n/a	n/a	n/a	n/a	n/a	n/a	n/a	n/a	n/a	n/a	n/a	n/a	fixation
251759.84467970108	850.0	n/a	-1	-1	2750	791.155320299	stim	stop-signal	115	279672	0.0-9.6-1.6	beast_fmri_test	300	277333,/,278014,/,278693,/,279374,/,280053,/	t,t,t,t,t	<img class = center src='/static/experiments/beast_fmri_test/images/T.png'></img>	71,89	2750.0	test	<img class = center src='/static/experiments/beast_fmri_test/images/redT.png'></img>	stop	1900.0	3.0	6.0	stop	non-target	T	71,Green Button	89,Yellow Button	550.0	850.0	2200.0	1900.0	0.0	1.0	850.0	0.0	go_stim
253659.84467970108	1900.0	n/a	-1	-1	2750	791.155320299	stim	stop-signal	115	279672	0.0-9.6-1.6	beast_fmri_test	300	277333,/,278014,/,278693,/,279374,/,280053,/	t,t,t,t,t	<img class = center src='/static/experiments/beast_fmri_test/images/T.png'></img>	71,89	2750.0	test	<img class = center src='/static/experiments/beast_fmri_test/images/redT.png'></img>	stop	1900.0	3.0	6.0	stop	non-target	T	71,Green Button	89,Yellow Button	550.0	850.0	2200.0	1900.0	0.0	1.0	850.0	0.0	stop_stim
254509.84467970108	791.15532029891699	n/a	-1	-1	2750	791.155320299	stim	stop-signal	115	279672	0.0-9.6-1.6	beast_fmri_test	300	277333,/,278014,/,278693,/,279374,/,280053,/	t,t,t,t,t	<img class = center src='/static/experiments/beast_fmri_test/images/T.png'></img>	71,89	2750.0	test	<img class = center src='/static/experiments/beast_fmri_test/images/redT.png'></img>	stop	1900.0	3.0	6.0	stop	non-target	T	71,Green Button	89,Yellow Button	550.0	850.0	2200.0	1900.0	0.0	1.0	850.0	0.0	ITI
256601	500	n/a	-1	-1	500	0.0	fixation	poldrack-single-stim	116	280972	0.0-9.7-0.7	beast_fmri_test	300	280733,/	t	<div class = centerbox><div class = fixation>+</div></div>	none	500.0	test	n/a	n/a	n/a	n/a	n/a	n/a	n/a	n/a	n/a	n/a	n/a	n/a	n/a	n/a	n/a	n/a	n/a	n/a	fixation
256159.27704492549	900.0	n/a	-1	-1	2750	444.722955074	stim	stop-signal	117	283725	0.0-9.7-1.7	beast_fmri_test	300	281414,/,282093,/,282774,/,283453,/,284133,/	t,t,t,t,t	<img class = center src='/static/experiments/beast_fmri_test/images/D.png'></img>	71,89	2750.0	test	<img class = center src='/static/experiments/beast_fmri_test/images/redD.png'></img>	stop	1850.0	3.0	7.0	stop	non-target	D	71,Green Button	89,Yellow Button	550.0	900.0	2200.0	1850.0	0.0	1.0	900.0	0.0	go_stim
258009.27704492549	1850.0	n/a	-1	-1	2750	444.722955074	stim	stop-signal	117	283725	0.0-9.7-1.7	beast_fmri_test	300	281414,/,282093,/,282774,/,283453,/,284133,/	t,t,t,t,t	<img class = center src='/static/experiments/beast_fmri_test/images/D.png'></img>	71,89	2750.0	test	<img class = center src='/static/experiments/beast_fmri_test/images/redD.png'></img>	stop	1850.0	3.0	7.0	stop	non-target	D	71,Green Button	89,Yellow Button	550.0	900.0	2200.0	1850.0	0.0	1.0	900.0	0.0	stop_stim
258909.27704492549	444.72295507448598	n/a	-1	-1	2750	444.722955074	stim	stop-signal	117	283725	0.0-9.7-1.7	beast_fmri_test	300	281414,/,282093,/,282774,/,283453,/,284133,/	t,t,t,t,t	<img class = center src='/static/experiments/beast_fmri_test/images/D.png'></img>	71,89	2750.0	test	<img class = center src='/static/experiments/beast_fmri_test/images/redD.png'></img>	stop	1850.0	3.0	7.0	stop	non-target	D	71,Green Button	89,Yellow Button	550.0	900.0	2200.0	1850.0	0.0	1.0	900.0	0.0	ITI
260306	500	n/a	-1	-1	500	0.0	fixation	poldrack-single-stim	118	284677	0.0-9.8-0.8	beast_fmri_test	300	n/a	n/a	<div class = centerbox><div class = fixation>+</div></div>	none	500.0	test	n/a	n/a	n/a	n/a	n/a	n/a	n/a	n/a	n/a	n/a	n/a	n/a	n/a	n/a	n/a	n/a	n/a	n/a	fixation
260091.19753360143	2750	n/a	1309	89	2750	216.802466399	stim	stop-signal	119	287429	0.0-9.8-1.8	beast_fmri_test	300	284814,/,285494,/,286173,/,286853,/,287534,/	t,t,t,t,t	<img class = center src='/static/experiments/beast_fmri_test/images/V.png'></img>	71,89	2750.0	test	<img class = center src='/static/experiments/beast_fmri_test/images/redV.png'></img>	go	2200.0	3.0	8.0	go	target	V	71,Green Button	89,Yellow Button	550.0	950.0	2200.0	1850.0	0.0	n/a	550.0	0.0	go_stim
262841.19753360143	216.80246639856199	n/a	1309	89	2750	216.802466399	stim	stop-signal	119	287429	0.0-9.8-1.8	beast_fmri_test	300	284814,/,285494,/,286173,/,286853,/,287534,/	t,t,t,t,t	<img class = center src='/static/experiments/beast_fmri_test/images/V.png'></img>	71,89	2750.0	test	<img class = center src='/static/experiments/beast_fmri_test/images/redV.png'></img>	go	2200.0	3.0	8.0	go	target	V	71,Green Button	89,Yellow Button	550.0	950.0	2200.0	1850.0	0.0	n/a	550.0	0.0	ITI
263784	500	n/a	-1	-1	500	0.0	fixation	poldrack-single-stim	120	288155	0.0-9.9-0.9	beast_fmri_test	300	n/a	n/a	<div class = centerbox><div class = fixation>+</div></div>	none	500.0	test	n/a	n/a	n/a	n/a	n/a	n/a	n/a	n/a	n/a	n/a	n/a	n/a	n/a	n/a	n/a	n/a	n/a	n/a	fixation
262630.11280170025	950.0	n/a	-1	-1	2750	1155.8871983	stim	stop-signal	121	290907	0.0-9.9-1.9	beast_fmri_test	300	288213,/,288894,/,289574,/,290253,/,290933,/,291613,/	t,t,t,t,t,t	<img class = center src='/static/experiments/beast_fmri_test/images/D.png'></img>	71,89	2750.0	test	<img class = center src='/static/experiments/beast_fmri_test/images/redD.png'></img>	stop	1800.0	3.0	9.0	stop	non-target	D	71,Green Button	89,Yellow Button	550.0	950.0	2200.0	1800.0	0.0	1.0	950.0	0.0	go_stim
264430.11280170025	1800.0	n/a	-1	-1	2750	1155.8871983	stim	stop-signal	121	290907	0.0-9.9-1.9	beast_fmri_test	300	288213,/,288894,/,289574,/,290253,/,290933,/,291613,/	t,t,t,t,t,t	<img class = center src='/static/experiments/beast_fmri_test/images/D.png'></img>	71,89	2750.0	test	<img class = center src='/static/experiments/beast_fmri_test/images/redD.png'></img>	stop	1800.0	3.0	9.0	stop	non-target	D	71,Green Button	89,Yellow Button	550.0	950.0	2200.0	1800.0	0.0	1.0	950.0	0.0	stop_stim
265380.11280170025	1155.88719829975	n/a	-1	-1	2750	1155.8871983	stim	stop-signal	121	290907	0.0-9.9-1.9	beast_fmri_test	300	288213,/,288894,/,289574,/,290253,/,290933,/,291613,/	t,t,t,t,t,t	<img class = center src='/static/experiments/beast_fmri_test/images/D.png'></img>	71,89	2750.0	test	<img class = center src='/static/experiments/beast_fmri_test/images/redD.png'></img>	stop	1800.0	3.0	9.0	stop	non-target	D	71,Green Button	89,Yellow Button	550.0	950.0	2200.0	1800.0	0.0	1.0	950.0	0.0	ITI
268200	500	n/a	-1	-1	500	0.0	fixation	poldrack-single-stim	122	292571	0.0-9.10-0.10	beast_fmri_test	300	292294,/	t	<div class = centerbox><div class = fixation>+</div></div>	none	500.0	test	n/a	n/a	n/a	n/a	n/a	n/a	n/a	n/a	n/a	n/a	n/a	n/a	n/a	n/a	n/a	n/a	n/a	n/a	fixation
267791.12690137257	2750	n/a	1601	89	2750	409.873098627	stim	stop-signal	123	295322	0.0-9.10-1.10	beast_fmri_test	300	292973,/,293654,/,294333,/,295014,/,295694,/	t,t,t,t,t	<img class = center src='/static/experiments/beast_fmri_test/images/T.png'></img>	71,89	2750.0	test	<img class = center src='/static/experiments/beast_fmri_test/images/redT.png'></img>	go	1750.0	3.0	10.0	go	non-target	T	71,Green Button	89,Yellow Button	550.0	1000.0	2200.0	1750.0	1.0	n/a	1000.0	1.0	go_stim
270541.12690137257	409.87309862741802	n/a	1601	89	2750	409.873098627	stim	stop-signal	123	295322	0.0-9.10-1.10	beast_fmri_test	300	292973,/,293654,/,294333,/,295014,/,295694,/	t,t,t,t,t	<img class = center src='/static/experiments/beast_fmri_test/images/T.png'></img>	71,89	2750.0	test	<img class = center src='/static/experiments/beast_fmri_test/images/redT.png'></img>	go	1750.0	3.0	10.0	go	non-target	T	71,Green Button	89,Yellow Button	550.0	1000.0	2200.0	1750.0	1.0	n/a	1000.0	1.0	ITI
271871	500	n/a	-1	-1	500	0.0	fixation	poldrack-single-stim	124	296242	0.0-9.11-0.11	beast_fmri_test	300	n/a	n/a	<div class = centerbox><div class = fixation>+</div></div>	none	500.0	test	n/a	n/a	n/a	n/a	n/a	n/a	n/a	n/a	n/a	n/a	n/a	n/a	n/a	n/a	n/a	n/a	n/a	n/a	fixation
271764.39111649164	1000.0	n/a	-1	-1	2750	108.608883508	stim	stop-signal	125	298994	0.0-9.11-1.11	beast_fmri_test	300	296374,/,297054,/,297734,/,298414,/,299094,/	t,t,t,t,t	<img class = center src='/static/experiments/beast_fmri_test/images/P.png'></img>	71,89	2750.0	test	<img class = center src='/static/experiments/beast_fmri_test/images/redP.png'></img>	stop	1750.0	3.0	11.0	stop	non-target	P	71,Green Button	89,Yellow Button	550.0	1000.0	2200.0	1750.0	0.0	1.0	1000.0	0.0	go_stim
273514.39111649164	1750.0	n/a	-1	-1	2750	108.608883508	stim	stop-signal	125	298994	0.0-9.11-1.11	beast_fmri_test	300	296374,/,297054,/,297734,/,298414,/,299094,/	t,t,t,t,t	<img class = center src='/static/experiments/beast_fmri_test/images/P.png'></img>	71,89	2750.0	test	<img class = center src='/static/experiments/beast_fmri_test/images/redP.png'></img>	stop	1750.0	3.0	11.0	stop	non-target	P	71,Green Button	89,Yellow Button	550.0	1000.0	2200.0	1750.0	0.0	1.0	1000.0	0.0	stop_stim
274514.39111649164	108.608883508378	n/a	-1	-1	2750	108.608883508	stim	stop-signal	125	298994	0.0-9.11-1.11	beast_fmri_test	300	296374,/,297054,/,297734,/,298414,/,299094,/	t,t,t,t,t	<img class = center src='/static/experiments/beast_fmri_test/images/P.png'></img>	71,89	2750.0	test	<img class = center src='/static/experiments/beast_fmri_test/images/redP.png'></img>	stop	1750.0	3.0	11.0	stop	non-target	P	71,Green Button	89,Yellow Button	550.0	1000.0	2200.0	1750.0	0.0	1.0	1000.0	0.0	ITI
275241	500	n/a	-1	-1	500	0.0	fixation	poldrack-single-stim	126	299612	0.0-9.12-0.12	beast_fmri_test	300	n/a	n/a	<div class = centerbox><div class = fixation>+</div></div>	none	500.0	test	n/a	n/a	n/a	n/a	n/a	n/a	n/a	n/a	n/a	n/a	n/a	n/a	n/a	n/a	n/a	n/a	n/a	n/a	fixation
273901.36703693029	2750	n/a	1626	71	2750	1341.63296307	stim	stop-signal	127	302364	0.0-9.12-1.12	beast_fmri_test	300	299775,/,300454,/,301134,/,301814,/,302494,/,303174,/	t,t,t,t,t,t	<img class = center src='/static/experiments/beast_fmri_test/images/B.png'></img>	71,89	2750.0	test	<img class = center src='/static/experiments/beast_fmri_test/images/redB.png'></img>	go	1700.0	3.0	12.0	go	non-target	B	71,Green Button	89,Yellow Button	550.0	1050.0	2200.0	1700.0	0.0	n/a	1050.0	0.0	go_stim
276651.36703693029	1341.6329630697201	n/a	1626	71	2750	1341.63296307	stim	stop-signal	127	302364	0.0-9.12-1.12	beast_fmri_test	300	299775,/,300454,/,301134,/,301814,/,302494,/,303174,/	t,t,t,t,t,t	<img class = center src='/static/experiments/beast_fmri_test/images/B.png'></img>	71,89	2750.0	test	<img class = center src='/static/experiments/beast_fmri_test/images/redB.png'></img>	go	1700.0	3.0	12.0	go	non-target	B	71,Green Button	89,Yellow Button	550.0	1050.0	2200.0	1700.0	0.0	n/a	1050.0	0.0	ITI
279842	500	n/a	-1	-1	500	0.0	fixation	poldrack-single-stim	128	304213	0.0-9.13-0.13	beast_fmri_test	300	303854,/	t	<div class = centerbox><div class = fixation>+</div></div>	none	500.0	test	n/a	n/a	n/a	n/a	n/a	n/a	n/a	n/a	n/a	n/a	n/a	n/a	n/a	n/a	n/a	n/a	n/a	n/a	fixation
279596.61979955802	2750	n/a	1597	89	2750	247.380200442	stim	stop-signal	129	306965	0.0-9.13-1.13	beast_fmri_test	300	304534,/,305214,/,305894,/,306574,/	t,t,t,t	<img class = center src='/static/experiments/beast_fmri_test/images/B.png'></img>	71,89	2750.0	test	<img class = center src='/static/experiments/beast_fmri_test/images/redB.png'></img>	go	1700.0	3.0	13.0	go	non-target	B	71,Green Button	89,Yellow Button	550.0	1050.0	2200.0	1700.0	1.0	n/a	1050.0	1.0	go_stim
282346.61979955802	247.38020044200201	n/a	1597	89	2750	247.380200442	stim	stop-signal	129	306965	0.0-9.13-1.13	beast_fmri_test	300	304534,/,305214,/,305894,/,306574,/	t,t,t,t	<img class = center src='/static/experiments/beast_fmri_test/images/B.png'></img>	71,89	2750.0	test	<img class = center src='/static/experiments/beast_fmri_test/images/redB.png'></img>	go	1700.0	3.0	13.0	go	non-target	B	71,Green Button	89,Yellow Button	550.0	1050.0	2200.0	1700.0	1.0	n/a	1050.0	1.0	ITI
283350	500	n/a	-1	-1	500	0.0	fixation	poldrack-single-stim	130	307721	0.0-9.14-0.14	beast_fmri_test	300	307254,/	t	<div class = centerbox><div class = fixation>+</div></div>	none	500.0	test	n/a	n/a	n/a	n/a	n/a	n/a	n/a	n/a	n/a	n/a	n/a	n/a	n/a	n/a	n/a	n/a	n/a	n/a	fixation
282542.77450234245	2750	n/a	1906	89	2750	809.225497658	stim	stop-signal	131	310473	0.0-9.14-1.14	beast_fmri_test	300	307934,/,308614,/,309294,/,309974,/,310654,/	t,t,t,t,t	<img class = center src='/static/experiments/beast_fmri_test/images/T.png'></img>	71,89	2750.0	test	<img class = center src='/static/experiments/beast_fmri_test/images/redT.png'></img>	go	1700.0	3.0	14.0	go	non-target	T	71,Green Button	89,Yellow Button	550.0	1050.0	2200.0	1700.0	1.0	n/a	1050.0	1.0	go_stim
285292.77450234245	809.22549765755605	n/a	1906	89	2750	809.225497658	stim	stop-signal	131	310473	0.0-9.14-1.14	beast_fmri_test	300	307934,/,308614,/,309294,/,309974,/,310654,/	t,t,t,t,t	<img class = center src='/static/experiments/beast_fmri_test/images/T.png'></img>	71,89	2750.0	test	<img class = center src='/static/experiments/beast_fmri_test/images/redT.png'></img>	go	1700.0	3.0	14.0	go	non-target	T	71,Green Button	89,Yellow Button	550.0	1050.0	2200.0	1700.0	1.0	n/a	1050.0	1.0	ITI
287421	500	n/a	-1	-1	500	0.0	fixation	poldrack-single-stim	132	311792	0.0-9.15-0.15	beast_fmri_test	300	311334,/	t	<div class = centerbox><div class = fixation>+</div></div>	none	500.0	test	n/a	n/a	n/a	n/a	n/a	n/a	n/a	n/a	n/a	n/a	n/a	n/a	n/a	n/a	n/a	n/a	n/a	n/a	fixation
285440.35214891192	2750	n/a	1484	89	2750	1982.64785109	stim	stop-signal	133	314544	0.0-9.15-1.15	beast_fmri_test	300	312014,/,312694,/,313373,/,314054,/,314734,/,315414,/,316094,/	t,t,t,t,t,t,t	<img class = center src='/static/experiments/beast_fmri_test/images/T.png'></img>	71,89	2750.0	test	<img class = center src='/static/experiments/beast_fmri_test/images/redT.png'></img>	go	1700.0	3.0	15.0	go	non-target	T	71,Green Button	89,Yellow Button	550.0	1050.0	2200.0	1700.0	1.0	n/a	1050.0	1.0	go_stim
288190.35214891192	1982.64785108809	n/a	1484	89	2750	1982.64785109	stim	stop-signal	133	314544	0.0-9.15-1.15	beast_fmri_test	300	312014,/,312694,/,313373,/,314054,/,314734,/,315414,/,316094,/	t,t,t,t,t,t,t	<img class = center src='/static/experiments/beast_fmri_test/images/T.png'></img>	71,89	2750.0	test	<img class = center src='/static/experiments/beast_fmri_test/images/redT.png'></img>	go	1700.0	3.0	15.0	go	non-target	T	71,Green Button	89,Yellow Button	550.0	1050.0	2200.0	1700.0	1.0	n/a	1050.0	1.0	ITI
292665	500	n/a	-1	-1	500	0.0	fixation	poldrack-single-stim	134	317036	0.0-9.16-0.16	beast_fmri_test	300	316774,/	t	<div class = centerbox><div class = fixation>+</div></div>	none	500.0	test	n/a	n/a	n/a	n/a	n/a	n/a	n/a	n/a	n/a	n/a	n/a	n/a	n/a	n/a	n/a	n/a	n/a	n/a	fixation
292327.15503762942	2750	n/a	1660	89	2750	340.844962371	stim	stop-signal	135	319789	0.0-9.16-1.16	beast_fmri_test	300	317454,/,318134,/,318813,/,319494,/	t,t,t,t	<img class = center src='/static/experiments/beast_fmri_test/images/V.png'></img>	71,89	2750.0	test	<img class = center src='/static/experiments/beast_fmri_test/images/redV.png'></img>	go	1700.0	3.0	16.0	go	non-target	V	71,Green Button	89,Yellow Button	550.0	1050.0	2200.0	1700.0	1.0	n/a	1050.0	1.0	go_stim
295077.15503762942	340.84496237060699	n/a	1660	89	2750	340.844962371	stim	stop-signal	135	319789	0.0-9.16-1.16	beast_fmri_test	300	317454,/,318134,/,318813,/,319494,/	t,t,t,t	<img class = center src='/static/experiments/beast_fmri_test/images/V.png'></img>	71,89	2750.0	test	<img class = center src='/static/experiments/beast_fmri_test/images/redV.png'></img>	go	1700.0	3.0	16.0	go	non-target	V	71,Green Button	89,Yellow Button	550.0	1050.0	2200.0	1700.0	1.0	n/a	1050.0	1.0	ITI
296267	500	n/a	-1	-1	500	0.0	fixation	poldrack-single-stim	136	320638	0.0-9.17-0.17	beast_fmri_test	300	320174,/	t	<div class = centerbox><div class = fixation>+</div></div>	none	500.0	test	n/a	n/a	n/a	n/a	n/a	n/a	n/a	n/a	n/a	n/a	n/a	n/a	n/a	n/a	n/a	n/a	n/a	n/a	fixation
295993.31042024924	2750	n/a	2160	89	2750	276.689579751	stim	stop-signal	137	323391	0.0-9.17-1.17	beast_fmri_test	300	320854,/,321534,/,322214,/,322893,/,323574,/	t,t,t,t,t	<img class = center src='/static/experiments/beast_fmri_test/images/D.png'></img>	71,89	2750.0	test	<img class = center src='/static/experiments/beast_fmri_test/images/redD.png'></img>	go	1700.0	3.0	17.0	go	non-target	D	71,Green Button	89,Yellow Button	550.0	1050.0	2200.0	1700.0	1.0	n/a	1050.0	1.0	go_stim
298743.31042024924	276.689579750772	n/a	2160	89	2750	276.689579751	stim	stop-signal	137	323391	0.0-9.17-1.17	beast_fmri_test	300	320854,/,321534,/,322214,/,322893,/,323574,/	t,t,t,t,t	<img class = center src='/static/experiments/beast_fmri_test/images/D.png'></img>	71,89	2750.0	test	<img class = center src='/static/experiments/beast_fmri_test/images/redD.png'></img>	go	1700.0	3.0	17.0	go	non-target	D	71,Green Button	89,Yellow Button	550.0	1050.0	2200.0	1700.0	1.0	n/a	1050.0	1.0	ITI
299805	500	n/a	-1	-1	500	0.0	fixation	poldrack-single-stim	138	324176	0.0-9.18-0.18	beast_fmri_test	300	n/a	n/a	<div class = centerbox><div class = fixation>+</div></div>	none	500.0	test	n/a	n/a	n/a	n/a	n/a	n/a	n/a	n/a	n/a	n/a	n/a	n/a	n/a	n/a	n/a	n/a	n/a	n/a	fixation
299546.23864873149	1050.0	n/a	-1	-1	2750	261.761351269	stim	stop-signal	139	326929	0.0-9.18-1.18	beast_fmri_test	300	324254,/,324934,/,325614,/,326294,/,326973,/	t,t,t,t,t	<img class = center src='/static/experiments/beast_fmri_test/images/D.png'></img>	71,89	2750.0	test	<img class = center src='/static/experiments/beast_fmri_test/images/redD.png'></img>	stop	1700.0	3.0	18.0	stop	non-target	D	71,Green Button	89,Yellow Button	550.0	1050.0	2200.0	1700.0	0.0	1.0	1050.0	0.0	go_stim
301246.23864873149	1700.0	n/a	-1	-1	2750	261.761351269	stim	stop-signal	139	326929	0.0-9.18-1.18	beast_fmri_test	300	324254,/,324934,/,325614,/,326294,/,326973,/	t,t,t,t,t	<img class = center src='/static/experiments/beast_fmri_test/images/D.png'></img>	71,89	2750.0	test	<img class = center src='/static/experiments/beast_fmri_test/images/redD.png'></img>	stop	1700.0	3.0	18.0	stop	non-target	D	71,Green Button	89,Yellow Button	550.0	1050.0	2200.0	1700.0	0.0	1.0	1050.0	0.0	stop_stim
302296.23864873149	261.76135126851602	n/a	-1	-1	2750	261.761351269	stim	stop-signal	139	326929	0.0-9.18-1.18	beast_fmri_test	300	324254,/,324934,/,325614,/,326294,/,326973,/	t,t,t,t,t	<img class = center src='/static/experiments/beast_fmri_test/images/D.png'></img>	71,89	2750.0	test	<img class = center src='/static/experiments/beast_fmri_test/images/redD.png'></img>	stop	1700.0	3.0	18.0	stop	non-target	D	71,Green Button	89,Yellow Button	550.0	1050.0	2200.0	1700.0	0.0	1.0	1050.0	0.0	ITI
303329	500	n/a	-1	-1	500	0.0	fixation	poldrack-single-stim	140	327700	0.0-9.19-0.19	beast_fmri_test	300	327654,/	t	<div class = centerbox><div class = fixation>+</div></div>	none	500.0	test	n/a	n/a	n/a	n/a	n/a	n/a	n/a	n/a	n/a	n/a	n/a	n/a	n/a	n/a	n/a	n/a	n/a	n/a	fixation
303224.61373557377	1100.0	n/a	-1	-1	2750	106.386264426	stim	stop-signal	141	330452	0.0-9.19-1.19	beast_fmri_test	300	328334,/,329015,/,329694,/,330375,/	t,t,t,t	<img class = center src='/static/experiments/beast_fmri_test/images/D.png'></img>	71,89	2750.0	test	<img class = center src='/static/experiments/beast_fmri_test/images/redD.png'></img>	stop	1650.0	3.0	19.0	stop	non-target	D	71,Green Button	89,Yellow Button	550.0	1100.0	2200.0	1650.0	0.0	1.0	1100.0	0.0	go_stim
304874.61373557377	1650.0	n/a	-1	-1	2750	106.386264426	stim	stop-signal	141	330452	0.0-9.19-1.19	beast_fmri_test	300	328334,/,329015,/,329694,/,330375,/	t,t,t,t	<img class = center src='/static/experiments/beast_fmri_test/images/D.png'></img>	71,89	2750.0	test	<img class = center src='/static/experiments/beast_fmri_test/images/redD.png'></img>	stop	1650.0	3.0	19.0	stop	non-target	D	71,Green Button	89,Yellow Button	550.0	1100.0	2200.0	1650.0	0.0	1.0	1100.0	0.0	stop_stim
305974.61373557377	106.38626442623	n/a	-1	-1	2750	106.386264426	stim	stop-signal	141	330452	0.0-9.19-1.19	beast_fmri_test	300	328334,/,329015,/,329694,/,330375,/	t,t,t,t	<img class = center src='/static/experiments/beast_fmri_test/images/D.png'></img>	71,89	2750.0	test	<img class = center src='/static/experiments/beast_fmri_test/images/redD.png'></img>	stop	1650.0	3.0	19.0	stop	non-target	D	71,Green Button	89,Yellow Button	550.0	1100.0	2200.0	1650.0	0.0	1.0	1100.0	0.0	ITI
306697	500	n/a	-1	-1	500	0.0	fixation	poldrack-single-stim	142	331068	0.0-9.20-0.20	beast_fmri_test	300	331055,/	t	<div class = centerbox><div class = fixation>+</div></div>	none	500.0	test	n/a	n/a	n/a	n/a	n/a	n/a	n/a	n/a	n/a	n/a	n/a	n/a	n/a	n/a	n/a	n/a	n/a	n/a	fixation
306413.40800232836	2750	n/a	1143	89	2750	285.591997672	stim	stop-signal	143	333820	0.0-9.20-1.20	beast_fmri_test	300	331735,/,332415,/,333095,/,333774,/	t,t,t,t	<img class = center src='/static/experiments/beast_fmri_test/images/B.png'></img>	71,89	2750.0	test	<img class = center src='/static/experiments/beast_fmri_test/images/redB.png'></img>	go	1600.0	3.0	20.0	go	non-target	B	71,Green Button	89,Yellow Button	550.0	1150.0	2200.0	1600.0	1.0	n/a	1150.0	1.0	go_stim
309163.40800232836	285.59199767162698	n/a	1143	89	2750	285.591997672	stim	stop-signal	143	333820	0.0-9.20-1.20	beast_fmri_test	300	331735,/,332415,/,333095,/,333774,/	t,t,t,t	<img class = center src='/static/experiments/beast_fmri_test/images/B.png'></img>	71,89	2750.0	test	<img class = center src='/static/experiments/beast_fmri_test/images/redB.png'></img>	go	1600.0	3.0	20.0	go	non-target	B	71,Green Button	89,Yellow Button	550.0	1150.0	2200.0	1600.0	1.0	n/a	1150.0	1.0	ITI
310244	500	n/a	-1	-1	500	0.0	fixation	poldrack-single-stim	144	334615	0.0-9.21-0.21	beast_fmri_test	300	334455,/	t	<div class = centerbox><div class = fixation>+</div></div>	none	500.0	test	n/a	n/a	n/a	n/a	n/a	n/a	n/a	n/a	n/a	n/a	n/a	n/a	n/a	n/a	n/a	n/a	n/a	n/a	fixation
309220.2688327803	1150.0	n/a	-1	-1	2750	1025.73116722	stim	stop-signal	145	337367	0.0-9.21-1.21	beast_fmri_test	300	335134,/,335815,/,336494,/,337175,/,337854,/	t,t,t,t,t	<img class = center src='/static/experiments/beast_fmri_test/images/B.png'></img>	71,89	2750.0	test	<img class = center src='/static/experiments/beast_fmri_test/images/redB.png'></img>	stop	1600.0	3.0	21.0	stop	non-target	B	71,Green Button	89,Yellow Button	550.0	1150.0	2200.0	1600.0	0.0	1.0	1150.0	0.0	go_stim
310820.2688327803	1600.0	n/a	-1	-1	2750	1025.73116722	stim	stop-signal	145	337367	0.0-9.21-1.21	beast_fmri_test	300	335134,/,335815,/,336494,/,337175,/,337854,/	t,t,t,t,t	<img class = center src='/static/experiments/beast_fmri_test/images/B.png'></img>	71,89	2750.0	test	<img class = center src='/static/experiments/beast_fmri_test/images/redB.png'></img>	stop	1600.0	3.0	21.0	stop	non-target	B	71,Green Button	89,Yellow Button	550.0	1150.0	2200.0	1600.0	0.0	1.0	1150.0	0.0	stop_stim
311970.2688327803	1025.73116721969	n/a	-1	-1	2750	1025.73116722	stim	stop-signal	145	337367	0.0-9.21-1.21	beast_fmri_test	300	335134,/,335815,/,336494,/,337175,/,337854,/	t,t,t,t,t	<img class = center src='/static/experiments/beast_fmri_test/images/B.png'></img>	71,89	2750.0	test	<img class = center src='/static/experiments/beast_fmri_test/images/redB.png'></img>	stop	1600.0	3.0	21.0	stop	non-target	B	71,Green Button	89,Yellow Button	550.0	1150.0	2200.0	1600.0	0.0	1.0	1150.0	0.0	ITI
314532	500	n/a	-1	-1	500	0.0	fixation	poldrack-single-stim	146	338903	0.0-9.22-0.22	beast_fmri_test	300	338535,/	t	<div class = centerbox><div class = fixation>+</div></div>	none	500.0	test	n/a	n/a	n/a	n/a	n/a	n/a	n/a	n/a	n/a	n/a	n/a	n/a	n/a	n/a	n/a	n/a	n/a	n/a	fixation
313701.37851792038	2750	n/a	1172	89	2750	832.62148208	stim	stop-signal	147	341655	0.0-9.22-1.22	beast_fmri_test	300	339214,/,339894,/,340576,/,341254,/,341934,/	t,t,t,t,t	<img class = center src='/static/experiments/beast_fmri_test/images/P.png'></img>	71,89	2750.0	test	<img class = center src='/static/experiments/beast_fmri_test/images/redP.png'></img>	go	1550.0	3.0	22.0	go	non-target	P	71,Green Button	89,Yellow Button	550.0	1200.0	2200.0	1550.0	1.0	n/a	1200.0	1.0	go_stim
316451.37851792038	832.62148207961195	n/a	1172	89	2750	832.62148208	stim	stop-signal	147	341655	0.0-9.22-1.22	beast_fmri_test	300	339214,/,339894,/,340576,/,341254,/,341934,/	t,t,t,t,t	<img class = center src='/static/experiments/beast_fmri_test/images/P.png'></img>	71,89	2750.0	test	<img class = center src='/static/experiments/beast_fmri_test/images/redP.png'></img>	go	1550.0	3.0	22.0	go	non-target	P	71,Green Button	89,Yellow Button	550.0	1200.0	2200.0	1550.0	1.0	n/a	1200.0	1.0	ITI
318627	500	n/a	-1	-1	500	0.0	fixation	poldrack-single-stim	148	342998	0.0-9.23-0.23	beast_fmri_test	300	342615,/	t	<div class = centerbox><div class = fixation>+</div></div>	none	500.0	test	n/a	n/a	n/a	n/a	n/a	n/a	n/a	n/a	n/a	n/a	n/a	n/a	n/a	n/a	n/a	n/a	n/a	n/a	fixation
