onset	duration	text	rt	key_press	block_duration	timing_post_trial	trial_id	trial_type	trial_index	time_elapsed	internal_node_id	exp_id	subject_id	trigger_times	triggers	stimulus	possible_responses	stim_duration	exp_stage	SS_stimulus	SS_trial_type	SS_duration	load	trial_num	stop_trial_type	adaptive_trial_type	stim	yes_response_key	no_response_key	SSD_target	SSD_non_target	SSTarget	SSNonTarget	go_acc	stop_acc	SS_delay	adaptive_acc	new_trial_type
test	10880	n/a	-1	-1	10880	0.0	practice-no-stop-feedback	poldrack-single-stim	394	999081	0.0-18.0	beast_fmri_test	300	988200,/,988879,/,989559,/,990239,/,990919,/,991599,/,992279,/,992959,/,993639,/,994319,/,994999,/,995680,/,996359,/,997039,/,997719,/,998399,/,999079,/	t,t,t,t,t,t,t,t,t,t,t,t,t,t,t,t,t	"<div class = ""centerbox""><p class = ""center-block-text"">Your delay is 3 trials.</p><p class = center-block-text>Please wait for the scanner to start the block</p></div>"	77	10880.0	n/a	n/a	n/a	n/a	n/a	n/a	n/a	n/a	n/a	n/a	n/a	n/a	n/a	n/a	n/a	n/a	n/a	n/a	n/a	start_functional_block
11383	500	n/a	-1	-1	500	0.0	fixation	poldrack-single-stim	395	999583	0.0-19.0-0.0	beast_fmri_test	300	n/a	n/a	<div class = centerbox><div class = fixation>+</div></div>	none	500.0	test	n/a	n/a	n/a	n/a	n/a	n/a	n/a	n/a	n/a	n/a	n/a	n/a	n/a	n/a	n/a	n/a	n/a	n/a	fixation
10169.892710900516	2750	n/a	970	89	2750	1215.1072891	stim	stop-signal	396	1002335	0.0-19.0-1.0	beast_fmri_test	300	999759,/,1000439,/,1001119,/,1001800,/,1002480,/,1003160,/	t,t,t,t,t,t	<img class = center src='/static/experiments/beast_fmri_test/images/V.png'></img>	71,89	2750.0	test	<img class = center src='/static/experiments/beast_fmri_test/images/redV.png'></img>	go	-1.0	3.0	0.0	go	temp-non-target	V	71,Green Button	89,Yellow Button	1100.0	1500.0	1650.0	1250.0	0.0	n/a	n/a	n/a	go_stim
12919.892710900516	1215.1072890994301	n/a	970	89	2750	1215.1072891	stim	stop-signal	396	1002335	0.0-19.0-1.0	beast_fmri_test	300	999759,/,1000439,/,1001119,/,1001800,/,1002480,/,1003160,/	t,t,t,t,t,t	<img class = center src='/static/experiments/beast_fmri_test/images/V.png'></img>	71,89	2750.0	test	<img class = center src='/static/experiments/beast_fmri_test/images/redV.png'></img>	go	-1.0	3.0	0.0	go	temp-non-target	V	71,Green Button	89,Yellow Button	1100.0	1500.0	1650.0	1250.0	0.0	n/a	n/a	n/a	ITI
15868	500	n/a	-1	-1	500	0.0	fixation	poldrack-single-stim	397	1004068	0.0-19.1-0.1	beast_fmri_test	300	1003840,/	t	<div class = centerbox><div class = fixation>+</div></div>	none	500.0	test	n/a	n/a	n/a	n/a	n/a	n/a	n/a	n/a	n/a	n/a	n/a	n/a	n/a	n/a	n/a	n/a	n/a	n/a	fixation
13183.663688741392	2750	n/a	1158	89	2750	2685.33631126	stim	stop-signal	398	1006819	0.0-19.1-1.1	beast_fmri_test	300	1004520,/,1005200,/,1005881,/,1006559,/,1007239,/,1007920,/,1008600,/,1009280,/	t,t,t,t,t,t,t,t	<img class = center src='/static/experiments/beast_fmri_test/images/B.png'></img>	71,89	2750.0	test	<img class = center src='/static/experiments/beast_fmri_test/images/redB.png'></img>	go	-1.0	3.0	1.0	go	temp-non-target	B	71,Green Button	89,Yellow Button	1100.0	1500.0	1650.0	1250.0	0.0	n/a	n/a	n/a	go_stim
15933.663688741392	2685.3363112586499	n/a	1158	89	2750	2685.33631126	stim	stop-signal	398	1006819	0.0-19.1-1.1	beast_fmri_test	300	1004520,/,1005200,/,1005881,/,1006559,/,1007239,/,1007920,/,1008600,/,1009280,/	t,t,t,t,t,t,t,t	<img class = center src='/static/experiments/beast_fmri_test/images/B.png'></img>	71,89	2750.0	test	<img class = center src='/static/experiments/beast_fmri_test/images/redB.png'></img>	go	-1.0	3.0	1.0	go	temp-non-target	B	71,Green Button	89,Yellow Button	1100.0	1500.0	1650.0	1250.0	0.0	n/a	n/a	n/a	ITI
21823	500	n/a	-1	-1	500	0.0	fixation	poldrack-single-stim	399	1010023	0.0-19.2-0.2	beast_fmri_test	300	1009960,/	t	<div class = centerbox><div class = fixation>+</div></div>	none	500.0	test	n/a	n/a	n/a	n/a	n/a	n/a	n/a	n/a	n/a	n/a	n/a	n/a	n/a	n/a	n/a	n/a	n/a	n/a	fixation
21381.820462387055	temp_go_duration	n/a	1439	89	2750	443.179537613	stim	stop-signal	400	1012775	0.0-19.2-1.2	beast_fmri_test	300	1010640,/,1011320,/,1012000,/,1012680,/	t,t,t,t	<img class = center src='/static/experiments/beast_fmri_test/images/T.png'></img>	71,89	2750.0	test	<img class = center src='/static/experiments/beast_fmri_test/images/redT.png'></img>	stop	-1.0	3.0	2.0	stop	temp-non-target	T	71,Green Button	89,Yellow Button	1100.0	1500.0	1650.0	1250.0	0.0	0.0	n/a	n/a	go_stim
temp-non-target	temp_stop_duration	n/a	1439	89	2750	443.179537613	stim	stop-signal	400	1012775	0.0-19.2-1.2	beast_fmri_test	300	1010640,/,1011320,/,1012000,/,1012680,/	t,t,t,t	<img class = center src='/static/experiments/beast_fmri_test/images/T.png'></img>	71,89	2750.0	test	<img class = center src='/static/experiments/beast_fmri_test/images/redT.png'></img>	stop	-1.0	3.0	2.0	stop	temp-non-target	T	71,Green Button	89,Yellow Button	1100.0	1500.0	1650.0	1250.0	0.0	0.0	n/a	n/a	stop_stim
24131.820462387055	443.179537612888	n/a	1439	89	2750	443.179537613	stim	stop-signal	400	1012775	0.0-19.2-1.2	beast_fmri_test	300	1010640,/,1011320,/,1012000,/,1012680,/	t,t,t,t	<img class = center src='/static/experiments/beast_fmri_test/images/T.png'></img>	71,89	2750.0	test	<img class = center src='/static/experiments/beast_fmri_test/images/redT.png'></img>	stop	-1.0	3.0	2.0	stop	temp-non-target	T	71,Green Button	89,Yellow Button	1100.0	1500.0	1650.0	1250.0	0.0	0.0	n/a	n/a	ITI
25536	500	n/a	-1	-1	500	0.0	fixation	poldrack-single-stim	401	1013736	0.0-19.3-0.3	beast_fmri_test	300	1013360,/	t	<div class = centerbox><div class = fixation>+</div></div>	none	500.0	test	n/a	n/a	n/a	n/a	n/a	n/a	n/a	n/a	n/a	n/a	n/a	n/a	n/a	n/a	n/a	n/a	n/a	n/a	fixation
25128.794728114968	2750	n/a	1581	89	2750	409.205271885	stim	stop-signal	402	1016488	0.0-19.3-1.3	beast_fmri_test	300	1014040,/,1014720,/,1015399,/,1016081,/,1016760,/	t,t,t,t,t	<img class = center src='/static/experiments/beast_fmri_test/images/T.png'></img>	71,89	2750.0	test	<img class = center src='/static/experiments/beast_fmri_test/images/redT.png'></img>	go	1250.0	3.0	3.0	go	non-target	T	71,Green Button	89,Yellow Button	1100.0	1500.0	1650.0	1250.0	1.0	n/a	1500.0	1.0	go_stim
27878.794728114968	409.20527188501302	n/a	1581	89	2750	409.205271885	stim	stop-signal	402	1016488	0.0-19.3-1.3	beast_fmri_test	300	1014040,/,1014720,/,1015399,/,1016081,/,1016760,/	t,t,t,t,t	<img class = center src='/static/experiments/beast_fmri_test/images/T.png'></img>	71,89	2750.0	test	<img class = center src='/static/experiments/beast_fmri_test/images/redT.png'></img>	go	1250.0	3.0	3.0	go	non-target	T	71,Green Button	89,Yellow Button	1100.0	1500.0	1650.0	1250.0	1.0	n/a	1500.0	1.0	ITI
29214	500	n/a	-1	-1	500	0.0	fixation	poldrack-single-stim	403	1017414	0.0-19.4-0.4	beast_fmri_test	300	n/a	n/a	<div class = centerbox><div class = fixation>+</div></div>	none	500.0	test	n/a	n/a	n/a	n/a	n/a	n/a	n/a	n/a	n/a	n/a	n/a	n/a	n/a	n/a	n/a	n/a	n/a	n/a	fixation
28865.275316796266	2750	n/a	1967	89	2750	349.724683204	stim	stop-signal	404	1020165	0.0-19.4-1.4	beast_fmri_test	300	1017440,/,1018120,/,1018800,/,1019480,/,1020160,/	t,t,t,t,t	<img class = center src='/static/experiments/beast_fmri_test/images/D.png'></img>	71,89	2750.0	test	<img class = center src='/static/experiments/beast_fmri_test/images/redD.png'></img>	go	1250.0	3.0	4.0	go	non-target	D	71,Green Button	89,Yellow Button	1100.0	1500.0	1650.0	1250.0	1.0	n/a	1500.0	1.0	go_stim
31615.275316796266	349.72468320368603	n/a	1967	89	2750	349.724683204	stim	stop-signal	404	1020165	0.0-19.4-1.4	beast_fmri_test	300	1017440,/,1018120,/,1018800,/,1019480,/,1020160,/	t,t,t,t,t	<img class = center src='/static/experiments/beast_fmri_test/images/D.png'></img>	71,89	2750.0	test	<img class = center src='/static/experiments/beast_fmri_test/images/redD.png'></img>	go	1250.0	3.0	4.0	go	non-target	D	71,Green Button	89,Yellow Button	1100.0	1500.0	1650.0	1250.0	1.0	n/a	1500.0	1.0	ITI
32833	500	n/a	-1	-1	500	0.0	fixation	poldrack-single-stim	405	1021033	0.0-19.5-0.5	beast_fmri_test	300	1020840,/	t	<div class = centerbox><div class = fixation>+</div></div>	none	500.0	test	n/a	n/a	n/a	n/a	n/a	n/a	n/a	n/a	n/a	n/a	n/a	n/a	n/a	n/a	n/a	n/a	n/a	n/a	fixation
31558.122004824458	2750	n/a	1972	89	2750	1276.87799518	stim	stop-signal	406	1023785	0.0-19.5-1.5	beast_fmri_test	300	1021520,/,1022200,/,1022880,/,1023559,/,1024240,/,1024920,/	t,t,t,t,t,t	<img class = center src='/static/experiments/beast_fmri_test/images/P.png'></img>	71,89	2750.0	test	<img class = center src='/static/experiments/beast_fmri_test/images/redP.png'></img>	go	1250.0	3.0	5.0	go	non-target	P	71,Green Button	89,Yellow Button	1100.0	1500.0	1650.0	1250.0	1.0	n/a	1500.0	1.0	go_stim
34308.122004824458	1276.8779951755801	n/a	1972	89	2750	1276.87799518	stim	stop-signal	406	1023785	0.0-19.5-1.5	beast_fmri_test	300	1021520,/,1022200,/,1022880,/,1023559,/,1024240,/,1024920,/	t,t,t,t,t,t	<img class = center src='/static/experiments/beast_fmri_test/images/P.png'></img>	71,89	2750.0	test	<img class = center src='/static/experiments/beast_fmri_test/images/redP.png'></img>	go	1250.0	3.0	5.0	go	non-target	P	71,Green Button	89,Yellow Button	1100.0	1500.0	1650.0	1250.0	1.0	n/a	1500.0	1.0	ITI
37378	500	n/a	-1	-1	500	0.0	fixation	poldrack-single-stim	407	1025578	0.0-19.6-0.6	beast_fmri_test	300	n/a	n/a	<div class = centerbox><div class = fixation>+</div></div>	none	500.0	test	n/a	n/a	n/a	n/a	n/a	n/a	n/a	n/a	n/a	n/a	n/a	n/a	n/a	n/a	n/a	n/a	n/a	n/a	fixation
36405.093075504294	2750	n/a	1890	71	2750	974.906924496	stim	stop-signal	408	1028330	0.0-19.6-1.6	beast_fmri_test	300	1025600,/,1026281,/,1026960,/,1027640,/,1028320,/,1029000,/	t,t,t,t,t,t	<img class = center src='/static/experiments/beast_fmri_test/images/T.png'></img>	71,89	2750.0	test	<img class = center src='/static/experiments/beast_fmri_test/images/redT.png'></img>	go	1650.0	3.0	6.0	go	target	T	71,Green Button	89,Yellow Button	1100.0	1500.0	1650.0	1250.0	1.0	n/a	1100.0	1.0	go_stim
39155.093075504294	974.90692449564995	n/a	1890	71	2750	974.906924496	stim	stop-signal	408	1028330	0.0-19.6-1.6	beast_fmri_test	300	1025600,/,1026281,/,1026960,/,1027640,/,1028320,/,1029000,/	t,t,t,t,t,t	<img class = center src='/static/experiments/beast_fmri_test/images/T.png'></img>	71,89	2750.0	test	<img class = center src='/static/experiments/beast_fmri_test/images/redT.png'></img>	go	1650.0	3.0	6.0	go	target	T	71,Green Button	89,Yellow Button	1100.0	1500.0	1650.0	1250.0	1.0	n/a	1100.0	1.0	ITI
41627	500	n/a	-1	-1	500	0.0	fixation	poldrack-single-stim	409	1029827	0.0-19.7-0.7	beast_fmri_test	300	1029680,/	t	<div class = centerbox><div class = fixation>+</div></div>	none	500.0	test	n/a	n/a	n/a	n/a	n/a	n/a	n/a	n/a	n/a	n/a	n/a	n/a	n/a	n/a	n/a	n/a	n/a	n/a	fixation
41088.770605834201	2750	n/a	1409	89	2750	540.229394166	stim	stop-signal	410	1032579	0.0-19.7-1.7	beast_fmri_test	300	1030360,/,1031040,/,1031720,/,1032400,/,1033079,/	t,t,t,t,t	<img class = center src='/static/experiments/beast_fmri_test/images/V.png'></img>	71,89	2750.0	test	<img class = center src='/static/experiments/beast_fmri_test/images/redV.png'></img>	go	1250.0	3.0	7.0	go	non-target	V	71,Green Button	89,Yellow Button	1100.0	1500.0	1650.0	1250.0	1.0	n/a	1500.0	1.0	go_stim
43838.770605834201	540.229394165759	n/a	1409	89	2750	540.229394166	stim	stop-signal	410	1032579	0.0-19.7-1.7	beast_fmri_test	300	1030360,/,1031040,/,1031720,/,1032400,/,1033079,/	t,t,t,t,t	<img class = center src='/static/experiments/beast_fmri_test/images/V.png'></img>	71,89	2750.0	test	<img class = center src='/static/experiments/beast_fmri_test/images/redV.png'></img>	go	1250.0	3.0	7.0	go	non-target	V	71,Green Button	89,Yellow Button	1100.0	1500.0	1650.0	1250.0	1.0	n/a	1500.0	1.0	ITI
45438	500	n/a	-1	-1	500	0.0	fixation	poldrack-single-stim	411	1033638	0.0-19.8-0.8	beast_fmri_test	300	n/a	n/a	<div class = centerbox><div class = fixation>+</div></div>	none	500.0	test	n/a	n/a	n/a	n/a	n/a	n/a	n/a	n/a	n/a	n/a	n/a	n/a	n/a	n/a	n/a	n/a	n/a	n/a	fixation
43872.460577117512	1100.0	n/a	1369	71	2750	1567.53942288	stim	stop-signal	412	1036390	0.0-19.8-1.8	beast_fmri_test	300	1033760,/,1034441,/,1035120,/,1035800,/,1036481,/,1037161,/,1037840,/	t,t,t,t,t,t,t	<img class = center src='/static/experiments/beast_fmri_test/images/P.png'></img>	71,89	2750.0	test	<img class = center src='/static/experiments/beast_fmri_test/images/redP.png'></img>	stop	1650.0	3.0	8.0	stop	target	P	71,Green Button	89,Yellow Button	1100.0	1500.0	1650.0	1250.0	0.0	0.0	1100.0	1.0	go_stim
45522.460577117512	1650.0	n/a	1369	71	2750	1567.53942288	stim	stop-signal	412	1036390	0.0-19.8-1.8	beast_fmri_test	300	1033760,/,1034441,/,1035120,/,1035800,/,1036481,/,1037161,/,1037840,/	t,t,t,t,t,t,t	<img class = center src='/static/experiments/beast_fmri_test/images/P.png'></img>	71,89	2750.0	test	<img class = center src='/static/experiments/beast_fmri_test/images/redP.png'></img>	stop	1650.0	3.0	8.0	stop	target	P	71,Green Button	89,Yellow Button	1100.0	1500.0	1650.0	1250.0	0.0	0.0	1100.0	1.0	stop_stim
46622.460577117512	1567.53942288244	n/a	1369	71	2750	1567.53942288	stim	stop-signal	412	1036390	0.0-19.8-1.8	beast_fmri_test	300	1033760,/,1034441,/,1035120,/,1035800,/,1036481,/,1037161,/,1037840,/	t,t,t,t,t,t,t	<img class = center src='/static/experiments/beast_fmri_test/images/P.png'></img>	71,89	2750.0	test	<img class = center src='/static/experiments/beast_fmri_test/images/redP.png'></img>	stop	1650.0	3.0	8.0	stop	target	P	71,Green Button	89,Yellow Button	1100.0	1500.0	1650.0	1250.0	0.0	0.0	1100.0	1.0	ITI
50278	500	n/a	-1	-1	500	0.0	fixation	poldrack-single-stim	413	1038478	0.0-19.9-0.9	beast_fmri_test	300	n/a	n/a	<div class = centerbox><div class = fixation>+</div></div>	none	500.0	test	n/a	n/a	n/a	n/a	n/a	n/a	n/a	n/a	n/a	n/a	n/a	n/a	n/a	n/a	n/a	n/a	n/a	n/a	fixation
48287.272913186112	2750	n/a	1771	71	2750	1992.72708681	stim	stop-signal	414	1041230	0.0-19.9-1.9	beast_fmri_test	300	1038521,/,1039200,/,1039880,/,1040560,/,1041240,/,1041920,/,1042600,/	t,t,t,t,t,t,t	<img class = center src='/static/experiments/beast_fmri_test/images/T.png'></img>	71,89	2750.0	test	<img class = center src='/static/experiments/beast_fmri_test/images/redT.png'></img>	go	1700.0	3.0	9.0	go	target	T	71,Green Button	89,Yellow Button	1050.0	1500.0	1700.0	1250.0	1.0	n/a	1050.0	1.0	go_stim
51037.272913186112	1992.7270868139301	n/a	1771	71	2750	1992.72708681	stim	stop-signal	414	1041230	0.0-19.9-1.9	beast_fmri_test	300	1038521,/,1039200,/,1039880,/,1040560,/,1041240,/,1041920,/,1042600,/	t,t,t,t,t,t,t	<img class = center src='/static/experiments/beast_fmri_test/images/T.png'></img>	71,89	2750.0	test	<img class = center src='/static/experiments/beast_fmri_test/images/redT.png'></img>	go	1700.0	3.0	9.0	go	target	T	71,Green Button	89,Yellow Button	1050.0	1500.0	1700.0	1250.0	1.0	n/a	1050.0	1.0	ITI
55538	500	n/a	-1	-1	500	0.0	fixation	poldrack-single-stim	415	1043738	0.0-19.10-0.10	beast_fmri_test	300	1043280,/	t	<div class = centerbox><div class = fixation>+</div></div>	none	500.0	test	n/a	n/a	n/a	n/a	n/a	n/a	n/a	n/a	n/a	n/a	n/a	n/a	n/a	n/a	n/a	n/a	n/a	n/a	fixation
54651.678316792822	1050.0	n/a	-1	-1	2750	888.321683207	stim	stop-signal	416	1046490	0.0-19.10-1.10	beast_fmri_test	300	1043961,/,1044640,/,1045320,/,1046000,/,1046681,/,1047360,/	t,t,t,t,t,t	<img class = center src='/static/experiments/beast_fmri_test/images/V.png'></img>	71,89	2750.0	test	<img class = center src='/static/experiments/beast_fmri_test/images/redV.png'></img>	stop	1700.0	3.0	10.0	stop	target	V	71,Green Button	89,Yellow Button	1050.0	1500.0	1700.0	1250.0	0.0	1.0	1050.0	0.0	go_stim
56351.678316792822	1700.0	n/a	-1	-1	2750	888.321683207	stim	stop-signal	416	1046490	0.0-19.10-1.10	beast_fmri_test	300	1043961,/,1044640,/,1045320,/,1046000,/,1046681,/,1047360,/	t,t,t,t,t,t	<img class = center src='/static/experiments/beast_fmri_test/images/V.png'></img>	71,89	2750.0	test	<img class = center src='/static/experiments/beast_fmri_test/images/redV.png'></img>	stop	1700.0	3.0	10.0	stop	target	V	71,Green Button	89,Yellow Button	1050.0	1500.0	1700.0	1250.0	0.0	1.0	1050.0	0.0	stop_stim
57401.678316792822	888.32168320713902	n/a	-1	-1	2750	888.321683207	stim	stop-signal	416	1046490	0.0-19.10-1.10	beast_fmri_test	300	1043961,/,1044640,/,1045320,/,1046000,/,1046681,/,1047360,/	t,t,t,t,t,t	<img class = center src='/static/experiments/beast_fmri_test/images/V.png'></img>	71,89	2750.0	test	<img class = center src='/static/experiments/beast_fmri_test/images/redV.png'></img>	stop	1700.0	3.0	10.0	stop	target	V	71,Green Button	89,Yellow Button	1050.0	1500.0	1700.0	1250.0	0.0	1.0	1050.0	0.0	ITI
59696	500	n/a	-1	-1	500	0.0	fixation	poldrack-single-stim	417	1047896	0.0-19.11-0.11	beast_fmri_test	300	n/a	n/a	<div class = centerbox><div class = fixation>+</div></div>	none	500.0	test	n/a	n/a	n/a	n/a	n/a	n/a	n/a	n/a	n/a	n/a	n/a	n/a	n/a	n/a	n/a	n/a	n/a	n/a	fixation
57078.328489116277	2750	n/a	1784	89	2750	2619.67151088	stim	stop-signal	418	1050648	0.0-19.11-1.11	beast_fmri_test	300	1048040,/,1048720,/,1049400,/,1050080,/,1050760,/,1051440,/,1052120,/,1052800,/	t,t,t,t,t,t,t,t	<img class = center src='/static/experiments/beast_fmri_test/images/P.png'></img>	71,89	2750.0	test	<img class = center src='/static/experiments/beast_fmri_test/images/redP.png'></img>	go	1650.0	3.0	11.0	go	target	P	71,Green Button	89,Yellow Button	1100.0	1500.0	1650.0	1250.0	0.0	n/a	1100.0	0.0	go_stim
59828.328489116277	2619.6715108836802	n/a	1784	89	2750	2619.67151088	stim	stop-signal	418	1050648	0.0-19.11-1.11	beast_fmri_test	300	1048040,/,1048720,/,1049400,/,1050080,/,1050760,/,1051440,/,1052120,/,1052800,/	t,t,t,t,t,t,t,t	<img class = center src='/static/experiments/beast_fmri_test/images/P.png'></img>	71,89	2750.0	test	<img class = center src='/static/experiments/beast_fmri_test/images/redP.png'></img>	go	1650.0	3.0	11.0	go	target	P	71,Green Button	89,Yellow Button	1100.0	1500.0	1650.0	1250.0	0.0	n/a	1100.0	0.0	ITI
65586	500	n/a	-1	-1	500	0.0	fixation	poldrack-single-stim	419	1053786	0.0-19.12-0.12	beast_fmri_test	300	1053480,/	t	<div class = centerbox><div class = fixation>+</div></div>	none	500.0	test	n/a	n/a	n/a	n/a	n/a	n/a	n/a	n/a	n/a	n/a	n/a	n/a	n/a	n/a	n/a	n/a	n/a	n/a	fixation
65325.791502830805	1100.0	n/a	-1	-1	2750	262.208497169	stim	stop-signal	420	1056538	0.0-19.12-1.12	beast_fmri_test	300	1054160,/,1054840,/,1055520,/,1056200,/	t,t,t,t	<img class = center src='/static/experiments/beast_fmri_test/images/T.png'></img>	71,89	2750.0	test	<img class = center src='/static/experiments/beast_fmri_test/images/redT.png'></img>	stop	1650.0	3.0	12.0	stop	target	T	71,Green Button	89,Yellow Button	1100.0	1500.0	1650.0	1250.0	0.0	1.0	1100.0	0.0	go_stim
66975.791502830805	1650.0	n/a	-1	-1	2750	262.208497169	stim	stop-signal	420	1056538	0.0-19.12-1.12	beast_fmri_test	300	1054160,/,1054840,/,1055520,/,1056200,/	t,t,t,t	<img class = center src='/static/experiments/beast_fmri_test/images/T.png'></img>	71,89	2750.0	test	<img class = center src='/static/experiments/beast_fmri_test/images/redT.png'></img>	stop	1650.0	3.0	12.0	stop	target	T	71,Green Button	89,Yellow Button	1100.0	1500.0	1650.0	1250.0	0.0	1.0	1100.0	0.0	stop_stim
68075.791502830805	262.20849716928899	n/a	-1	-1	2750	262.208497169	stim	stop-signal	420	1056538	0.0-19.12-1.12	beast_fmri_test	300	1054160,/,1054840,/,1055520,/,1056200,/	t,t,t,t	<img class = center src='/static/experiments/beast_fmri_test/images/T.png'></img>	71,89	2750.0	test	<img class = center src='/static/experiments/beast_fmri_test/images/redT.png'></img>	stop	1650.0	3.0	12.0	stop	target	T	71,Green Button	89,Yellow Button	1100.0	1500.0	1650.0	1250.0	0.0	1.0	1100.0	0.0	ITI
69117	500	n/a	-1	-1	500	0.0	fixation	poldrack-single-stim	421	1057317	0.0-19.13-0.13	beast_fmri_test	300	1056881,/	t	<div class = centerbox><div class = fixation>+</div></div>	none	500.0	test	n/a	n/a	n/a	n/a	n/a	n/a	n/a	n/a	n/a	n/a	n/a	n/a	n/a	n/a	n/a	n/a	n/a	n/a	fixation
68459.162299326854	2750	n/a	1377	89	2750	659.837700673	stim	stop-signal	422	1060069	0.0-19.13-1.13	beast_fmri_test	300	1057560,/,1058240,/,1058920,/,1059600,/,1060280,/	t,t,t,t,t	<img class = center src='/static/experiments/beast_fmri_test/images/T.png'></img>	71,89	2750.0	test	<img class = center src='/static/experiments/beast_fmri_test/images/redT.png'></img>	go	1250.0	3.0	13.0	go	non-target	T	71,Green Button	89,Yellow Button	1150.0	1500.0	1650.0	1250.0	1.0	n/a	1500.0	1.0	go_stim
71209.162299326854	659.83770067325395	n/a	1377	89	2750	659.837700673	stim	stop-signal	422	1060069	0.0-19.13-1.13	beast_fmri_test	300	1057560,/,1058240,/,1058920,/,1059600,/,1060280,/	t,t,t,t,t	<img class = center src='/static/experiments/beast_fmri_test/images/T.png'></img>	71,89	2750.0	test	<img class = center src='/static/experiments/beast_fmri_test/images/redT.png'></img>	go	1250.0	3.0	13.0	go	non-target	T	71,Green Button	89,Yellow Button	1150.0	1500.0	1650.0	1250.0	1.0	n/a	1500.0	1.0	ITI
73047	500	n/a	-1	-1	500	0.0	fixation	poldrack-single-stim	423	1061247	0.0-19.14-0.14	beast_fmri_test	300	1060960,/	t	<div class = centerbox><div class = fixation>+</div></div>	none	500.0	test	n/a	n/a	n/a	n/a	n/a	n/a	n/a	n/a	n/a	n/a	n/a	n/a	n/a	n/a	n/a	n/a	n/a	n/a	fixation
69911.029910484562	2750	n/a	1432	71	2750	3137.97008952	stim	stop-signal	424	1063999	0.0-19.14-1.14	beast_fmri_test	300	1061640,/,1062320,/,1063000,/,1063680,/,1064360,/,1065040,/,1065720,/,1066400,/,1067081,/	t,t,t,t,t,t,t,t,t	<img class = center src='/static/experiments/beast_fmri_test/images/P.png'></img>	71,89	2750.0	test	<img class = center src='/static/experiments/beast_fmri_test/images/redP.png'></img>	go	1600.0	3.0	14.0	go	target	P	71,Green Button	89,Yellow Button	1150.0	1500.0	1600.0	1250.0	1.0	n/a	1150.0	1.0	go_stim
72661.029910484562	3137.9700895153401	n/a	1432	71	2750	3137.97008952	stim	stop-signal	424	1063999	0.0-19.14-1.14	beast_fmri_test	300	1061640,/,1062320,/,1063000,/,1063680,/,1064360,/,1065040,/,1065720,/,1066400,/,1067081,/	t,t,t,t,t,t,t,t,t	<img class = center src='/static/experiments/beast_fmri_test/images/P.png'></img>	71,89	2750.0	test	<img class = center src='/static/experiments/beast_fmri_test/images/redP.png'></img>	go	1600.0	3.0	14.0	go	target	P	71,Green Button	89,Yellow Button	1150.0	1500.0	1600.0	1250.0	1.0	n/a	1150.0	1.0	ITI
79455	500	n/a	-1	-1	500	0.0	fixation	poldrack-single-stim	425	1067655	0.0-19.15-0.15	beast_fmri_test	300	n/a	n/a	<div class = centerbox><div class = fixation>+</div></div>	none	500.0	test	n/a	n/a	n/a	n/a	n/a	n/a	n/a	n/a	n/a	n/a	n/a	n/a	n/a	n/a	n/a	n/a	n/a	n/a	fixation
77447.449903327739	1500.0	n/a	1504	89	2750	2009.55009667	stim	stop-signal	426	1070407	0.0-19.15-1.15	beast_fmri_test	300	1067761,/,1068441,/,1069121,/,1069801,/,1070481,/,1071161,/,1071841,/	t,t,t,t,t,t,t	<img class = center src='/static/experiments/beast_fmri_test/images/B.png'></img>	71,89	2750.0	test	<img class = center src='/static/experiments/beast_fmri_test/images/redB.png'></img>	stop	1250.0	3.0	15.0	stop	non-target	B	71,Green Button	89,Yellow Button	1150.0	1500.0	1600.0	1250.0	0.0	0.0	1500.0	1.0	go_stim
78697.449903327739	1250.0	n/a	1504	89	2750	2009.55009667	stim	stop-signal	426	1070407	0.0-19.15-1.15	beast_fmri_test	300	1067761,/,1068441,/,1069121,/,1069801,/,1070481,/,1071161,/,1071841,/	t,t,t,t,t,t,t	<img class = center src='/static/experiments/beast_fmri_test/images/B.png'></img>	71,89	2750.0	test	<img class = center src='/static/experiments/beast_fmri_test/images/redB.png'></img>	stop	1250.0	3.0	15.0	stop	non-target	B	71,Green Button	89,Yellow Button	1150.0	1500.0	1600.0	1250.0	0.0	0.0	1500.0	1.0	stop_stim
80197.449903327739	2009.55009667228	n/a	1504	89	2750	2009.55009667	stim	stop-signal	426	1070407	0.0-19.15-1.15	beast_fmri_test	300	1067761,/,1068441,/,1069121,/,1069801,/,1070481,/,1071161,/,1071841,/	t,t,t,t,t,t,t	<img class = center src='/static/experiments/beast_fmri_test/images/B.png'></img>	71,89	2750.0	test	<img class = center src='/static/experiments/beast_fmri_test/images/redB.png'></img>	stop	1250.0	3.0	15.0	stop	non-target	B	71,Green Button	89,Yellow Button	1150.0	1500.0	1600.0	1250.0	0.0	0.0	1500.0	1.0	ITI
84733	500	n/a	-1	-1	500	0.0	fixation	poldrack-single-stim	427	1072933	0.0-19.16-0.16	beast_fmri_test	300	1072521,/	t	<div class = centerbox><div class = fixation>+</div></div>	none	500.0	test	n/a	n/a	n/a	n/a	n/a	n/a	n/a	n/a	n/a	n/a	n/a	n/a	n/a	n/a	n/a	n/a	n/a	n/a	fixation
83073.303294956917	2750	n/a	1156	71	2750	1661.69670504	stim	stop-signal	428	1075685	0.0-19.16-1.16	beast_fmri_test	300	1073201,/,1073881,/,1074561,/,1075241,/,1075921,/,1076601,/,1077282,/	t,t,t,t,t,t,t	<img class = center src='/static/experiments/beast_fmri_test/images/T.png'></img>	71,89	2750.0	test	<img class = center src='/static/experiments/beast_fmri_test/images/redT.png'></img>	go	1600.0	3.0	16.0	go	target	T	71,Green Button	89,Yellow Button	1150.0	1450.0	1600.0	1250.0	1.0	n/a	1150.0	1.0	go_stim
85823.303294956917	1661.6967050430201	n/a	1156	71	2750	1661.69670504	stim	stop-signal	428	1075685	0.0-19.16-1.16	beast_fmri_test	300	1073201,/,1073881,/,1074561,/,1075241,/,1075921,/,1076601,/,1077282,/	t,t,t,t,t,t,t	<img class = center src='/static/experiments/beast_fmri_test/images/T.png'></img>	71,89	2750.0	test	<img class = center src='/static/experiments/beast_fmri_test/images/redT.png'></img>	go	1600.0	3.0	16.0	go	target	T	71,Green Button	89,Yellow Button	1150.0	1450.0	1600.0	1250.0	1.0	n/a	1150.0	1.0	ITI
89661	500	n/a	-1	-1	500	0.0	fixation	poldrack-single-stim	429	1077861	0.0-19.17-0.17	beast_fmri_test	300	n/a	n/a	<div class = centerbox><div class = fixation>+</div></div>	none	500.0	test	n/a	n/a	n/a	n/a	n/a	n/a	n/a	n/a	n/a	n/a	n/a	n/a	n/a	n/a	n/a	n/a	n/a	n/a	fixation
88495.529768081149	2750	n/a	1856	89	2750	1166.47023192	stim	stop-signal	430	1080612	0.0-19.17-1.17	beast_fmri_test	300	1077961,/,1078641,/,1079321,/,1080000,/,1080680,/,1081360,/	t,t,t,t,t,t	<img class = center src='/static/experiments/beast_fmri_test/images/B.png'></img>	71,89	2750.0	test	<img class = center src='/static/experiments/beast_fmri_test/images/redB.png'></img>	go	1300.0	3.0	17.0	go	non-target	B	71,Green Button	89,Yellow Button	1150.0	1450.0	1600.0	1300.0	1.0	n/a	1450.0	1.0	go_stim
91245.529768081149	1166.47023191886	n/a	1856	89	2750	1166.47023192	stim	stop-signal	430	1080612	0.0-19.17-1.17	beast_fmri_test	300	1077961,/,1078641,/,1079321,/,1080000,/,1080680,/,1081360,/	t,t,t,t,t,t	<img class = center src='/static/experiments/beast_fmri_test/images/B.png'></img>	71,89	2750.0	test	<img class = center src='/static/experiments/beast_fmri_test/images/redB.png'></img>	go	1300.0	3.0	17.0	go	non-target	B	71,Green Button	89,Yellow Button	1150.0	1450.0	1600.0	1300.0	1.0	n/a	1450.0	1.0	ITI
94097	500	n/a	-1	-1	500	0.0	fixation	poldrack-single-stim	431	1082297	0.0-19.18-0.18	beast_fmri_test	300	1082041,/	t	<div class = centerbox><div class = fixation>+</div></div>	none	500.0	test	n/a	n/a	n/a	n/a	n/a	n/a	n/a	n/a	n/a	n/a	n/a	n/a	n/a	n/a	n/a	n/a	n/a	n/a	fixation
94098.701589438366	2750	n/a	1429	89	2750	0.298410561647	stim	stop-signal	432	1085049	0.0-19.18-1.18	beast_fmri_test	300	1082721,/,1083401,/,1084081,/,1084761,/	t,t,t,t	<img class = center src='/static/experiments/beast_fmri_test/images/V.png'></img>	71,89	2750.0	test	<img class = center src='/static/experiments/beast_fmri_test/images/redV.png'></img>	go	1300.0	3.0	18.0	go	non-target	V	71,Green Button	89,Yellow Button	1150.0	1450.0	1600.0	1300.0	1.0	n/a	1450.0	1.0	go_stim
96848.701589438366	0.29841056164692098	n/a	1429	89	2750	0.298410561647	stim	stop-signal	432	1085049	0.0-19.18-1.18	beast_fmri_test	300	1082721,/,1083401,/,1084081,/,1084761,/	t,t,t,t	<img class = center src='/static/experiments/beast_fmri_test/images/V.png'></img>	71,89	2750.0	test	<img class = center src='/static/experiments/beast_fmri_test/images/redV.png'></img>	go	1300.0	3.0	18.0	go	non-target	V	71,Green Button	89,Yellow Button	1150.0	1450.0	1600.0	1300.0	1.0	n/a	1450.0	1.0	ITI
97368	500	n/a	-1	-1	500	0.0	fixation	poldrack-single-stim	433	1085568	0.0-19.19-0.19	beast_fmri_test	300	1085440,/	t	<div class = centerbox><div class = fixation>+</div></div>	none	500.0	test	n/a	n/a	n/a	n/a	n/a	n/a	n/a	n/a	n/a	n/a	n/a	n/a	n/a	n/a	n/a	n/a	n/a	n/a	fixation
95402.767855018377	1450.0	n/a	-1	-1	2750	1966.23214498	stim	stop-signal	434	1088319	0.0-19.19-1.19	beast_fmri_test	300	1086121,/,1086800,/,1087482,/,1088161,/,1088841,/,1089520,/,1090200,/	t,t,t,t,t,t,t	<img class = center src='/static/experiments/beast_fmri_test/images/P.png'></img>	71,89	2750.0	test	<img class = center src='/static/experiments/beast_fmri_test/images/redP.png'></img>	stop	1300.0	3.0	19.0	stop	non-target	P	71,Green Button	89,Yellow Button	1150.0	1450.0	1600.0	1300.0	0.0	1.0	1450.0	0.0	go_stim
96702.767855018377	1300.0	n/a	-1	-1	2750	1966.23214498	stim	stop-signal	434	1088319	0.0-19.19-1.19	beast_fmri_test	300	1086121,/,1086800,/,1087482,/,1088161,/,1088841,/,1089520,/,1090200,/	t,t,t,t,t,t,t	<img class = center src='/static/experiments/beast_fmri_test/images/P.png'></img>	71,89	2750.0	test	<img class = center src='/static/experiments/beast_fmri_test/images/redP.png'></img>	stop	1300.0	3.0	19.0	stop	non-target	P	71,Green Button	89,Yellow Button	1150.0	1450.0	1600.0	1300.0	0.0	1.0	1450.0	0.0	stop_stim
98152.767855018377	1966.23214498172	n/a	-1	-1	2750	1966.23214498	stim	stop-signal	434	1088319	0.0-19.19-1.19	beast_fmri_test	300	1086121,/,1086800,/,1087482,/,1088161,/,1088841,/,1089520,/,1090200,/	t,t,t,t,t,t,t	<img class = center src='/static/experiments/beast_fmri_test/images/P.png'></img>	71,89	2750.0	test	<img class = center src='/static/experiments/beast_fmri_test/images/redP.png'></img>	stop	1300.0	3.0	19.0	stop	non-target	P	71,Green Button	89,Yellow Button	1150.0	1450.0	1600.0	1300.0	0.0	1.0	1450.0	0.0	ITI
102600	500	n/a	-1	-1	500	0.0	fixation	poldrack-single-stim	435	1090800	0.0-19.20-0.20	beast_fmri_test	300	n/a	n/a	<div class = centerbox><div class = fixation>+</div></div>	none	500.0	test	n/a	n/a	n/a	n/a	n/a	n/a	n/a	n/a	n/a	n/a	n/a	n/a	n/a	n/a	n/a	n/a	n/a	n/a	fixation
101192.6115146277	2750	n/a	1514	89	2750	1408.38848537	stim	stop-signal	436	1093551	0.0-19.20-1.20	beast_fmri_test	300	1090881,/,1091561,/,1092240,/,1092921,/,1093600,/,1094281,/,1094960,/	t,t,t,t,t,t,t	<img class = center src='/static/experiments/beast_fmri_test/images/V.png'></img>	71,89	2750.0	test	<img class = center src='/static/experiments/beast_fmri_test/images/redV.png'></img>	go	1250.0	3.0	20.0	go	non-target	V	71,Green Button	89,Yellow Button	1150.0	1500.0	1600.0	1250.0	1.0	n/a	1500.0	1.0	go_stim
103942.6115146277	1408.3884853722	n/a	1514	89	2750	1408.38848537	stim	stop-signal	436	1093551	0.0-19.20-1.20	beast_fmri_test	300	1090881,/,1091561,/,1092240,/,1092921,/,1093600,/,1094281,/,1094960,/	t,t,t,t,t,t,t	<img class = center src='/static/experiments/beast_fmri_test/images/V.png'></img>	71,89	2750.0	test	<img class = center src='/static/experiments/beast_fmri_test/images/redV.png'></img>	go	1250.0	3.0	20.0	go	non-target	V	71,Green Button	89,Yellow Button	1150.0	1500.0	1600.0	1250.0	1.0	n/a	1500.0	1.0	ITI
107275	500	n/a	-1	-1	500	0.0	fixation	poldrack-single-stim	437	1095475	0.0-19.21-0.21	beast_fmri_test	300	n/a	n/a	<div class = centerbox><div class = fixation>+</div></div>	none	500.0	test	n/a	n/a	n/a	n/a	n/a	n/a	n/a	n/a	n/a	n/a	n/a	n/a	n/a	n/a	n/a	n/a	n/a	n/a	fixation
107121.74470175779	1500.0	n/a	1490	89	2750	155.255298242	stim	stop-signal	438	1098227	0.0-19.21-1.21	beast_fmri_test	300	1095640,/,1096321,/,1097000,/,1097681,/,1098362,/	t,t,t,t,t	<img class = center src='/static/experiments/beast_fmri_test/images/T.png'></img>	71,89	2750.0	test	<img class = center src='/static/experiments/beast_fmri_test/images/redT.png'></img>	stop	1250.0	3.0	21.0	stop	non-target	T	71,Green Button	89,Yellow Button	1150.0	1500.0	1600.0	1250.0	0.0	0.0	1500.0	1.0	go_stim
108371.74470175779	1250.0	n/a	1490	89	2750	155.255298242	stim	stop-signal	438	1098227	0.0-19.21-1.21	beast_fmri_test	300	1095640,/,1096321,/,1097000,/,1097681,/,1098362,/	t,t,t,t,t	<img class = center src='/static/experiments/beast_fmri_test/images/T.png'></img>	71,89	2750.0	test	<img class = center src='/static/experiments/beast_fmri_test/images/redT.png'></img>	stop	1250.0	3.0	21.0	stop	non-target	T	71,Green Button	89,Yellow Button	1150.0	1500.0	1600.0	1250.0	0.0	0.0	1500.0	1.0	stop_stim
109871.74470175779	155.25529824231	n/a	1490	89	2750	155.255298242	stim	stop-signal	438	1098227	0.0-19.21-1.21	beast_fmri_test	300	1095640,/,1096321,/,1097000,/,1097681,/,1098362,/	t,t,t,t,t	<img class = center src='/static/experiments/beast_fmri_test/images/T.png'></img>	71,89	2750.0	test	<img class = center src='/static/experiments/beast_fmri_test/images/redT.png'></img>	stop	1250.0	3.0	21.0	stop	non-target	T	71,Green Button	89,Yellow Button	1150.0	1500.0	1600.0	1250.0	0.0	0.0	1500.0	1.0	ITI
110702	500	n/a	-1	-1	500	0.0	fixation	poldrack-single-stim	439	1098902	0.0-19.22-0.22	beast_fmri_test	300	n/a	n/a	<div class = centerbox><div class = fixation>+</div></div>	none	500.0	test	n/a	n/a	n/a	n/a	n/a	n/a	n/a	n/a	n/a	n/a	n/a	n/a	n/a	n/a	n/a	n/a	n/a	n/a	fixation
110419.85263980296	1150.0	n/a	-1	-1	2750	284.147360197	stim	stop-signal	440	1101654	0.0-19.22-1.22	beast_fmri_test	300	1099042,/,1099722,/,1100401,/,1101082,/,1101761,/	t,t,t,t,t	<img class = center src='/static/experiments/beast_fmri_test/images/P.png'></img>	71,89	2750.0	test	<img class = center src='/static/experiments/beast_fmri_test/images/redP.png'></img>	stop	1600.0	3.0	22.0	stop	target	P	71,Green Button	89,Yellow Button	1150.0	1450.0	1600.0	1250.0	0.0	1.0	1150.0	0.0	go_stim
112019.85263980296	1600.0	n/a	-1	-1	2750	284.147360197	stim	stop-signal	440	1101654	0.0-19.22-1.22	beast_fmri_test	300	1099042,/,1099722,/,1100401,/,1101082,/,1101761,/	t,t,t,t,t	<img class = center src='/static/experiments/beast_fmri_test/images/P.png'></img>	71,89	2750.0	test	<img class = center src='/static/experiments/beast_fmri_test/images/redP.png'></img>	stop	1600.0	3.0	22.0	stop	target	P	71,Green Button	89,Yellow Button	1150.0	1450.0	1600.0	1250.0	0.0	1.0	1150.0	0.0	stop_stim
113169.85263980296	284.147360196965	n/a	-1	-1	2750	284.147360197	stim	stop-signal	440	1101654	0.0-19.22-1.22	beast_fmri_test	300	1099042,/,1099722,/,1100401,/,1101082,/,1101761,/	t,t,t,t,t	<img class = center src='/static/experiments/beast_fmri_test/images/P.png'></img>	71,89	2750.0	test	<img class = center src='/static/experiments/beast_fmri_test/images/redP.png'></img>	stop	1600.0	3.0	22.0	stop	target	P	71,Green Button	89,Yellow Button	1150.0	1450.0	1600.0	1250.0	0.0	1.0	1150.0	0.0	ITI
114258	500	n/a	-1	-1	500	0.0	fixation	poldrack-single-stim	441	1102458	0.0-19.23-0.23	beast_fmri_test	300	1102442,/	t	<div class = centerbox><div class = fixation>+</div></div>	none	500.0	test	n/a	n/a	n/a	n/a	n/a	n/a	n/a	n/a	n/a	n/a	n/a	n/a	n/a	n/a	n/a	n/a	n/a	n/a	fixation
114255.99435273441	2750	n/a	1580	89	2750	4.00564726558	stim	stop-signal	442	1105210	0.0-19.23-1.23	beast_fmri_test	300	1103122,/,1103802,/,1104481,/,1105161,/	t,t,t,t	<img class = center src='/static/experiments/beast_fmri_test/images/V.png'></img>	71,89	2750.0	test	<img class = center src='/static/experiments/beast_fmri_test/images/redV.png'></img>	go	1550.0	3.0	23.0	go	target	V	71,Green Button	89,Yellow Button	1200.0	1450.0	1550.0	1250.0	0.0	n/a	1200.0	0.0	go_stim
117005.99435273441	4.00564726557963	n/a	1580	89	2750	4.00564726558	stim	stop-signal	442	1105210	0.0-19.23-1.23	beast_fmri_test	300	1103122,/,1103802,/,1104481,/,1105161,/	t,t,t,t	<img class = center src='/static/experiments/beast_fmri_test/images/V.png'></img>	71,89	2750.0	test	<img class = center src='/static/experiments/beast_fmri_test/images/redV.png'></img>	go	1550.0	3.0	23.0	go	target	V	71,Green Button	89,Yellow Button	1200.0	1450.0	1550.0	1250.0	0.0	n/a	1200.0	0.0	ITI
117530	500	n/a	-1	-1	500	0.0	fixation	poldrack-single-stim	443	1105730	0.0-19.24-0.24	beast_fmri_test	300	n/a	n/a	<div class = centerbox><div class = fixation>+</div></div>	none	500.0	test	n/a	n/a	n/a	n/a	n/a	n/a	n/a	n/a	n/a	n/a	n/a	n/a	n/a	n/a	n/a	n/a	n/a	n/a	fixation
117318.7402906185	2750	n/a	1404	89	2750	213.259709381	stim	stop-signal	444	1108482	0.0-19.24-1.24	beast_fmri_test	300	1105841,/,1106522,/,1107201,/,1107882,/,1108561,/	t,t,t,t,t	<img class = center src='/static/experiments/beast_fmri_test/images/V.png'></img>	71,89	2750.0	test	<img class = center src='/static/experiments/beast_fmri_test/images/redV.png'></img>	go	1300.0	3.0	24.0	go	non-target	V	71,Green Button	89,Yellow Button	1200.0	1450.0	1550.0	1300.0	1.0	n/a	1450.0	1.0	go_stim
120068.7402906185	213.25970938142001	n/a	1404	89	2750	213.259709381	stim	stop-signal	444	1108482	0.0-19.24-1.24	beast_fmri_test	300	1105841,/,1106522,/,1107201,/,1107882,/,1108561,/	t,t,t,t,t	<img class = center src='/static/experiments/beast_fmri_test/images/V.png'></img>	71,89	2750.0	test	<img class = center src='/static/experiments/beast_fmri_test/images/redV.png'></img>	go	1300.0	3.0	24.0	go	non-target	V	71,Green Button	89,Yellow Button	1200.0	1450.0	1550.0	1300.0	1.0	n/a	1450.0	1.0	ITI
121014	500	n/a	-1	-1	500	0.0	fixation	poldrack-single-stim	445	1109214	0.0-19.25-0.25	beast_fmri_test	300	n/a	n/a	<div class = centerbox><div class = fixation>+</div></div>	none	500.0	test	n/a	n/a	n/a	n/a	n/a	n/a	n/a	n/a	n/a	n/a	n/a	n/a	n/a	n/a	n/a	n/a	n/a	n/a	fixation
120915.14315648121	1450.0	n/a	1442	71	2750	100.856843519	stim	stop-signal	446	1111966	0.0-19.25-1.25	beast_fmri_test	300	1109241,/,1109921,/,1110601,/,1111281,/,1111961,/	t,t,t,t,t	<img class = center src='/static/experiments/beast_fmri_test/images/T.png'></img>	71,89	2750.0	test	<img class = center src='/static/experiments/beast_fmri_test/images/redT.png'></img>	stop	1300.0	3.0	25.0	stop	non-target	T	71,Green Button	89,Yellow Button	1200.0	1450.0	1550.0	1300.0	0.0	0.0	1450.0	0.0	go_stim
122215.14315648121	1300.0	n/a	1442	71	2750	100.856843519	stim	stop-signal	446	1111966	0.0-19.25-1.25	beast_fmri_test	300	1109241,/,1109921,/,1110601,/,1111281,/,1111961,/	t,t,t,t,t	<img class = center src='/static/experiments/beast_fmri_test/images/T.png'></img>	71,89	2750.0	test	<img class = center src='/static/experiments/beast_fmri_test/images/redT.png'></img>	stop	1300.0	3.0	25.0	stop	non-target	T	71,Green Button	89,Yellow Button	1200.0	1450.0	1550.0	1300.0	0.0	0.0	1450.0	0.0	stop_stim
123665.14315648121	100.85684351890301	n/a	1442	71	2750	100.856843519	stim	stop-signal	446	1111966	0.0-19.25-1.25	beast_fmri_test	300	1109241,/,1109921,/,1110601,/,1111281,/,1111961,/	t,t,t,t,t	<img class = center src='/static/experiments/beast_fmri_test/images/T.png'></img>	71,89	2750.0	test	<img class = center src='/static/experiments/beast_fmri_test/images/redT.png'></img>	stop	1300.0	3.0	25.0	stop	non-target	T	71,Green Button	89,Yellow Button	1200.0	1450.0	1550.0	1300.0	0.0	0.0	1450.0	0.0	ITI
124386	500	n/a	-1	-1	500	0.0	fixation	poldrack-single-stim	447	1112586	0.0-19.26-0.26	beast_fmri_test	300	n/a	n/a	<div class = centerbox><div class = fixation>+</div></div>	none	500.0	test	n/a	n/a	n/a	n/a	n/a	n/a	n/a	n/a	n/a	n/a	n/a	n/a	n/a	n/a	n/a	n/a	n/a	n/a	fixation
124070.79304114287	2750	n/a	1419	71	2750	317.206958857	stim	stop-signal	448	1115338	0.0-19.26-1.26	beast_fmri_test	300	1112641,/,1113321,/,1114001,/,1114681,/,1115361,/	t,t,t,t,t	<img class = center src='/static/experiments/beast_fmri_test/images/V.png'></img>	71,89	2750.0	test	<img class = center src='/static/experiments/beast_fmri_test/images/redV.png'></img>	go	1550.0	3.0	26.0	go	target	V	71,Green Button	89,Yellow Button	1200.0	1400.0	1550.0	1300.0	1.0	n/a	1200.0	1.0	go_stim
126820.79304114287	317.206958857026	n/a	1419	71	2750	317.206958857	stim	stop-signal	448	1115338	0.0-19.26-1.26	beast_fmri_test	300	1112641,/,1113321,/,1114001,/,1114681,/,1115361,/	t,t,t,t,t	<img class = center src='/static/experiments/beast_fmri_test/images/V.png'></img>	71,89	2750.0	test	<img class = center src='/static/experiments/beast_fmri_test/images/redV.png'></img>	go	1550.0	3.0	26.0	go	target	V	71,Green Button	89,Yellow Button	1200.0	1400.0	1550.0	1300.0	1.0	n/a	1200.0	1.0	ITI
127975	500	n/a	-1	-1	500	0.0	fixation	poldrack-single-stim	449	1116175	0.0-19.27-0.27	beast_fmri_test	300	1116041,/	t	<div class = centerbox><div class = fixation>+</div></div>	none	500.0	test	n/a	n/a	n/a	n/a	n/a	n/a	n/a	n/a	n/a	n/a	n/a	n/a	n/a	n/a	n/a	n/a	n/a	n/a	fixation
127603.1408470422	2750	n/a	1435	89	2750	373.859152958	stim	stop-signal	450	1118927	0.0-19.27-1.27	beast_fmri_test	300	1116721,/,1117401,/,1118081,/,1118761,/	t,t,t,t	<img class = center src='/static/experiments/beast_fmri_test/images/B.png'></img>	71,89	2750.0	test	<img class = center src='/static/experiments/beast_fmri_test/images/redB.png'></img>	go	1350.0	3.0	27.0	go	non-target	B	71,Green Button	89,Yellow Button	1200.0	1400.0	1550.0	1350.0	1.0	n/a	1400.0	1.0	go_stim
130353.1408470422	373.859152957844	n/a	1435	89	2750	373.859152958	stim	stop-signal	450	1118927	0.0-19.27-1.27	beast_fmri_test	300	1116721,/,1117401,/,1118081,/,1118761,/	t,t,t,t	<img class = center src='/static/experiments/beast_fmri_test/images/B.png'></img>	71,89	2750.0	test	<img class = center src='/static/experiments/beast_fmri_test/images/redB.png'></img>	go	1350.0	3.0	27.0	go	non-target	B	71,Green Button	89,Yellow Button	1200.0	1400.0	1550.0	1350.0	1.0	n/a	1400.0	1.0	ITI
131616	500	n/a	-1	-1	500	0.0	fixation	poldrack-single-stim	451	1119816	0.0-19.28-0.28	beast_fmri_test	300	1119441,/	t	<div class = centerbox><div class = fixation>+</div></div>	none	500.0	test	n/a	n/a	n/a	n/a	n/a	n/a	n/a	n/a	n/a	n/a	n/a	n/a	n/a	n/a	n/a	n/a	n/a	n/a	fixation
131343.0705743751	2750	n/a	1479	71	2750	274.929425625	stim	stop-signal	452	1122568	0.0-19.28-1.28	beast_fmri_test	300	1120121,/,1120801,/,1121481,/,1122161,/,1122841,/	t,t,t,t,t	<img class = center src='/static/experiments/beast_fmri_test/images/V.png'></img>	71,89	2750.0	test	<img class = center src='/static/experiments/beast_fmri_test/images/redV.png'></img>	go	1350.0	3.0	28.0	go	non-target	V	71,Green Button	89,Yellow Button	1200.0	1400.0	1550.0	1350.0	0.0	n/a	1400.0	0.0	go_stim
134093.0705743751	274.92942562495801	n/a	1479	71	2750	274.929425625	stim	stop-signal	452	1122568	0.0-19.28-1.28	beast_fmri_test	300	1120121,/,1120801,/,1121481,/,1122161,/,1122841,/	t,t,t,t,t	<img class = center src='/static/experiments/beast_fmri_test/images/V.png'></img>	71,89	2750.0	test	<img class = center src='/static/experiments/beast_fmri_test/images/redV.png'></img>	go	1350.0	3.0	28.0	go	non-target	V	71,Green Button	89,Yellow Button	1200.0	1400.0	1550.0	1350.0	0.0	n/a	1400.0	0.0	ITI
135159	500	n/a	-1	-1	500	0.0	fixation	poldrack-single-stim	453	1123359	0.0-19.29-0.29	beast_fmri_test	300	n/a	n/a	<div class = centerbox><div class = fixation>+</div></div>	none	500.0	test	n/a	n/a	n/a	n/a	n/a	n/a	n/a	n/a	n/a	n/a	n/a	n/a	n/a	n/a	n/a	n/a	n/a	n/a	fixation
132315.7642015228	1400.0	n/a	-1	-1	2750	2845.23579848	stim	stop-signal	454	1126111	0.0-19.29-1.29	beast_fmri_test	300	1123521,/,1124201,/,1124881,/,1125561,/,1126241,/,1126921,/,1127601,/,1128282,/	t,t,t,t,t,t,t,t	<img class = center src='/static/experiments/beast_fmri_test/images/P.png'></img>	71,89	2750.0	test	<img class = center src='/static/experiments/beast_fmri_test/images/redP.png'></img>	stop	1350.0	3.0	29.0	stop	non-target	P	71,Green Button	89,Yellow Button	1200.0	1400.0	1550.0	1350.0	0.0	1.0	1400.0	0.0	go_stim
133665.7642015228	1350.0	n/a	-1	-1	2750	2845.23579848	stim	stop-signal	454	1126111	0.0-19.29-1.29	beast_fmri_test	300	1123521,/,1124201,/,1124881,/,1125561,/,1126241,/,1126921,/,1127601,/,1128282,/	t,t,t,t,t,t,t,t	<img class = center src='/static/experiments/beast_fmri_test/images/P.png'></img>	71,89	2750.0	test	<img class = center src='/static/experiments/beast_fmri_test/images/redP.png'></img>	stop	1350.0	3.0	29.0	stop	non-target	P	71,Green Button	89,Yellow Button	1200.0	1400.0	1550.0	1350.0	0.0	1.0	1400.0	0.0	stop_stim
135065.7642015228	2845.2357984772202	n/a	-1	-1	2750	2845.23579848	stim	stop-signal	454	1126111	0.0-19.29-1.29	beast_fmri_test	300	1123521,/,1124201,/,1124881,/,1125561,/,1126241,/,1126921,/,1127601,/,1128282,/	t,t,t,t,t,t,t,t	<img class = center src='/static/experiments/beast_fmri_test/images/P.png'></img>	71,89	2750.0	test	<img class = center src='/static/experiments/beast_fmri_test/images/redP.png'></img>	stop	1350.0	3.0	29.0	stop	non-target	P	71,Green Button	89,Yellow Button	1200.0	1400.0	1550.0	1350.0	0.0	1.0	1400.0	0.0	ITI
141275	500	n/a	-1	-1	500	0.0	fixation	poldrack-single-stim	455	1129475	0.0-19.30-0.30	beast_fmri_test	300	1128974,/	t	<div class = centerbox><div class = fixation>+</div></div>	none	500.0	test	n/a	n/a	n/a	n/a	n/a	n/a	n/a	n/a	n/a	n/a	n/a	n/a	n/a	n/a	n/a	n/a	n/a	n/a	fixation
139639.8394674228	2750	n/a	1762	89	2750	1638.16053258	stim	stop-signal	456	1132228	0.0-19.30-1.30	beast_fmri_test	300	1129641,/,1130321,/,1131001,/,1131682,/,1132362,/,1133042,/,1133722,/	t,t,t,t,t,t,t	<img class = center src='/static/experiments/beast_fmri_test/images/D.png'></img>	71,89	2750.0	test	<img class = center src='/static/experiments/beast_fmri_test/images/redD.png'></img>	go	1300.0	3.0	30.0	go	non-target	D	71,Green Button	89,Yellow Button	1200.0	1450.0	1550.0	1300.0	1.0	n/a	1450.0	1.0	go_stim
142389.8394674228	1638.16053257724	n/a	1762	89	2750	1638.16053258	stim	stop-signal	456	1132228	0.0-19.30-1.30	beast_fmri_test	300	1129641,/,1130321,/,1131001,/,1131682,/,1132362,/,1133042,/,1133722,/	t,t,t,t,t,t,t	<img class = center src='/static/experiments/beast_fmri_test/images/D.png'></img>	71,89	2750.0	test	<img class = center src='/static/experiments/beast_fmri_test/images/redD.png'></img>	go	1300.0	3.0	30.0	go	non-target	D	71,Green Button	89,Yellow Button	1200.0	1450.0	1550.0	1300.0	1.0	n/a	1450.0	1.0	ITI
146185	500	n/a	-1	-1	500	0.0	fixation	poldrack-single-stim	457	1134385	0.0-19.31-0.31	beast_fmri_test	300	n/a	n/a	<div class = centerbox><div class = fixation>+</div></div>	none	500.0	test	n/a	n/a	n/a	n/a	n/a	n/a	n/a	n/a	n/a	n/a	n/a	n/a	n/a	n/a	n/a	n/a	n/a	n/a	fixation
145017.07675909018	2750	n/a	1895	89	2750	1169.92324091	stim	stop-signal	458	1137137	0.0-19.31-1.31	beast_fmri_test	300	1134402,/,1135082,/,1135762,/,1136442,/,1137122,/,1137802,/	t,t,t,t,t,t	<img class = center src='/static/experiments/beast_fmri_test/images/P.png'></img>	71,89	2750.0	test	<img class = center src='/static/experiments/beast_fmri_test/images/redP.png'></img>	go	1300.0	3.0	31.0	go	non-target	P	71,Green Button	89,Yellow Button	1200.0	1450.0	1550.0	1300.0	1.0	n/a	1450.0	1.0	go_stim
147767.07675909018	1169.92324090989	n/a	1895	89	2750	1169.92324091	stim	stop-signal	458	1137137	0.0-19.31-1.31	beast_fmri_test	300	1134402,/,1135082,/,1135762,/,1136442,/,1137122,/,1137802,/	t,t,t,t,t,t	<img class = center src='/static/experiments/beast_fmri_test/images/P.png'></img>	71,89	2750.0	test	<img class = center src='/static/experiments/beast_fmri_test/images/redP.png'></img>	go	1300.0	3.0	31.0	go	non-target	P	71,Green Button	89,Yellow Button	1200.0	1450.0	1550.0	1300.0	1.0	n/a	1450.0	1.0	ITI
150625	500	n/a	-1	-1	500	0.0	fixation	poldrack-single-stim	459	1138825	0.0-19.32-0.32	beast_fmri_test	300	1138482,/	t	<div class = centerbox><div class = fixation>+</div></div>	none	500.0	test	n/a	n/a	n/a	n/a	n/a	n/a	n/a	n/a	n/a	n/a	n/a	n/a	n/a	n/a	n/a	n/a	n/a	n/a	fixation
150065.24855410727	2750	n/a	1817	89	2750	561.751445893	stim	stop-signal	460	1141577	0.0-19.32-1.32	beast_fmri_test	300	1139162,/,1139842,/,1140522,/,1141202,/,1141882,/	t,t,t,t,t	<img class = center src='/static/experiments/beast_fmri_test/images/B.png'></img>	71,89	2750.0	test	<img class = center src='/static/experiments/beast_fmri_test/images/redB.png'></img>	go	1300.0	3.0	32.0	go	non-target	B	71,Green Button	89,Yellow Button	1200.0	1450.0	1550.0	1300.0	1.0	n/a	1450.0	1.0	go_stim
152815.24855410727	561.75144589279	n/a	1817	89	2750	561.751445893	stim	stop-signal	460	1141577	0.0-19.32-1.32	beast_fmri_test	300	1139162,/,1139842,/,1140522,/,1141202,/,1141882,/	t,t,t,t,t	<img class = center src='/static/experiments/beast_fmri_test/images/B.png'></img>	71,89	2750.0	test	<img class = center src='/static/experiments/beast_fmri_test/images/redB.png'></img>	go	1300.0	3.0	32.0	go	non-target	B	71,Green Button	89,Yellow Button	1200.0	1450.0	1550.0	1300.0	1.0	n/a	1450.0	1.0	ITI
154458	500	n/a	-1	-1	500	0.0	fixation	poldrack-single-stim	461	1142658	0.0-19.33-0.33	beast_fmri_test	300	1142562,/	t	<div class = centerbox><div class = fixation>+</div></div>	none	500.0	test	n/a	n/a	n/a	n/a	n/a	n/a	n/a	n/a	n/a	n/a	n/a	n/a	n/a	n/a	n/a	n/a	n/a	n/a	fixation
154317.37284059799	1450.0	n/a	-1	-1	2750	143.627159402	stim	stop-signal	462	1145411	0.0-19.33-1.33	beast_fmri_test	300	1143242,/,1143922,/,1144602,/,1145282,/	t,t,t,t	<img class = center src='/static/experiments/beast_fmri_test/images/P.png'></img>	71,89	2750.0	test	<img class = center src='/static/experiments/beast_fmri_test/images/redP.png'></img>	stop	1300.0	3.0	33.0	stop	non-target	P	71,Green Button	89,Yellow Button	1200.0	1450.0	1550.0	1300.0	0.0	1.0	1450.0	0.0	go_stim
155617.37284059799	1300.0	n/a	-1	-1	2750	143.627159402	stim	stop-signal	462	1145411	0.0-19.33-1.33	beast_fmri_test	300	1143242,/,1143922,/,1144602,/,1145282,/	t,t,t,t	<img class = center src='/static/experiments/beast_fmri_test/images/P.png'></img>	71,89	2750.0	test	<img class = center src='/static/experiments/beast_fmri_test/images/redP.png'></img>	stop	1300.0	3.0	33.0	stop	non-target	P	71,Green Button	89,Yellow Button	1200.0	1450.0	1550.0	1300.0	0.0	1.0	1450.0	0.0	stop_stim
157067.37284059799	143.62715940193499	n/a	-1	-1	2750	143.627159402	stim	stop-signal	462	1145411	0.0-19.33-1.33	beast_fmri_test	300	1143242,/,1143922,/,1144602,/,1145282,/	t,t,t,t	<img class = center src='/static/experiments/beast_fmri_test/images/P.png'></img>	71,89	2750.0	test	<img class = center src='/static/experiments/beast_fmri_test/images/redP.png'></img>	stop	1300.0	3.0	33.0	stop	non-target	P	71,Green Button	89,Yellow Button	1200.0	1450.0	1550.0	1300.0	0.0	1.0	1450.0	0.0	ITI
157874	500	n/a	-1	-1	500	0.0	fixation	poldrack-single-stim	463	1146074	0.0-19.34-0.34	beast_fmri_test	300	1145962,/	t	<div class = centerbox><div class = fixation>+</div></div>	none	500.0	test	n/a	n/a	n/a	n/a	n/a	n/a	n/a	n/a	n/a	n/a	n/a	n/a	n/a	n/a	n/a	n/a	n/a	n/a	fixation
155562.77317425003	1500.0	n/a	-1	-1	2750	2312.22682575	stim	stop-signal	464	1148825	0.0-19.34-1.34	beast_fmri_test	300	1146642,/,1147322,/,1148002,/,1148683,/,1149362,/,1150042,/,1150722,/	t,t,t,t,t,t,t	<img class = center src='/static/experiments/beast_fmri_test/images/B.png'></img>	71,89	2750.0	test	<img class = center src='/static/experiments/beast_fmri_test/images/redB.png'></img>	stop	1250.0	3.0	34.0	stop	non-target	B	71,Green Button	89,Yellow Button	1200.0	1500.0	1550.0	1250.0	0.0	1.0	1500.0	0.0	go_stim
156812.77317425003	1250.0	n/a	-1	-1	2750	2312.22682575	stim	stop-signal	464	1148825	0.0-19.34-1.34	beast_fmri_test	300	1146642,/,1147322,/,1148002,/,1148683,/,1149362,/,1150042,/,1150722,/	t,t,t,t,t,t,t	<img class = center src='/static/experiments/beast_fmri_test/images/B.png'></img>	71,89	2750.0	test	<img class = center src='/static/experiments/beast_fmri_test/images/redB.png'></img>	stop	1250.0	3.0	34.0	stop	non-target	B	71,Green Button	89,Yellow Button	1200.0	1500.0	1550.0	1250.0	0.0	1.0	1500.0	0.0	stop_stim
158312.77317425003	2312.22682575008	n/a	-1	-1	2750	2312.22682575	stim	stop-signal	464	1148825	0.0-19.34-1.34	beast_fmri_test	300	1146642,/,1147322,/,1148002,/,1148683,/,1149362,/,1150042,/,1150722,/	t,t,t,t,t,t,t	<img class = center src='/static/experiments/beast_fmri_test/images/B.png'></img>	71,89	2750.0	test	<img class = center src='/static/experiments/beast_fmri_test/images/redB.png'></img>	stop	1250.0	3.0	34.0	stop	non-target	B	71,Green Button	89,Yellow Button	1200.0	1500.0	1550.0	1250.0	0.0	1.0	1500.0	0.0	ITI
163459	500	n/a	-1	-1	500	0.0	fixation	poldrack-single-stim	465	1151659	0.0-19.35-0.35	beast_fmri_test	300	1151402,/	t	<div class = centerbox><div class = fixation>+</div></div>	none	500.0	test	n/a	n/a	n/a	n/a	n/a	n/a	n/a	n/a	n/a	n/a	n/a	n/a	n/a	n/a	n/a	n/a	n/a	n/a	fixation
163265.9763111379	1500.0	n/a	-1	-1	2750	195.023688862	stim	stop-signal	466	1154411	0.0-19.35-1.35	beast_fmri_test	300	1152082,/,1152762,/,1153442,/,1154122,/	t,t,t,t	<img class = center src='/static/experiments/beast_fmri_test/images/V.png'></img>	71,89	2750.0	test	<img class = center src='/static/experiments/beast_fmri_test/images/redV.png'></img>	stop	1250.0	3.0	35.0	stop	non-target	V	71,Green Button	89,Yellow Button	1200.0	1500.0	1550.0	1250.0	0.0	1.0	1500.0	0.0	go_stim
164515.9763111379	1250.0	n/a	-1	-1	2750	195.023688862	stim	stop-signal	466	1154411	0.0-19.35-1.35	beast_fmri_test	300	1152082,/,1152762,/,1153442,/,1154122,/	t,t,t,t	<img class = center src='/static/experiments/beast_fmri_test/images/V.png'></img>	71,89	2750.0	test	<img class = center src='/static/experiments/beast_fmri_test/images/redV.png'></img>	stop	1250.0	3.0	35.0	stop	non-target	V	71,Green Button	89,Yellow Button	1200.0	1500.0	1550.0	1250.0	0.0	1.0	1500.0	0.0	stop_stim
166015.9763111379	195.02368886205599	n/a	-1	-1	2750	195.023688862	stim	stop-signal	466	1154411	0.0-19.35-1.35	beast_fmri_test	300	1152082,/,1152762,/,1153442,/,1154122,/	t,t,t,t	<img class = center src='/static/experiments/beast_fmri_test/images/V.png'></img>	71,89	2750.0	test	<img class = center src='/static/experiments/beast_fmri_test/images/redV.png'></img>	stop	1250.0	3.0	35.0	stop	non-target	V	71,Green Button	89,Yellow Button	1200.0	1500.0	1550.0	1250.0	0.0	1.0	1500.0	0.0	ITI
166924	500	n/a	-1	-1	500	0.0	fixation	poldrack-single-stim	467	1155124	0.0-19.36-0.36	beast_fmri_test	300	1154801,/	t	<div class = centerbox><div class = fixation>+</div></div>	none	500.0	test	n/a	n/a	n/a	n/a	n/a	n/a	n/a	n/a	n/a	n/a	n/a	n/a	n/a	n/a	n/a	n/a	n/a	n/a	fixation
166485.28124435386	1200.0	n/a	-1	-1	2750	440.718755646	stim	stop-signal	468	1157876	0.0-19.36-1.36	beast_fmri_test	300	1155481,/,1156162,/,1156842,/,1157522,/,1158202,/	t,t,t,t,t	<img class = center src='/static/experiments/beast_fmri_test/images/P.png'></img>	71,89	2750.0	test	<img class = center src='/static/experiments/beast_fmri_test/images/redP.png'></img>	stop	1550.0	3.0	36.0	stop	target	P	71,Green Button	89,Yellow Button	1200.0	1500.0	1550.0	1250.0	0.0	1.0	1200.0	0.0	go_stim
168035.28124435386	1550.0	n/a	-1	-1	2750	440.718755646	stim	stop-signal	468	1157876	0.0-19.36-1.36	beast_fmri_test	300	1155481,/,1156162,/,1156842,/,1157522,/,1158202,/	t,t,t,t,t	<img class = center src='/static/experiments/beast_fmri_test/images/P.png'></img>	71,89	2750.0	test	<img class = center src='/static/experiments/beast_fmri_test/images/redP.png'></img>	stop	1550.0	3.0	36.0	stop	target	P	71,Green Button	89,Yellow Button	1200.0	1500.0	1550.0	1250.0	0.0	1.0	1200.0	0.0	stop_stim
169235.28124435386	440.718755646153	n/a	-1	-1	2750	440.718755646	stim	stop-signal	468	1157876	0.0-19.36-1.36	beast_fmri_test	300	1155481,/,1156162,/,1156842,/,1157522,/,1158202,/	t,t,t,t,t	<img class = center src='/static/experiments/beast_fmri_test/images/P.png'></img>	71,89	2750.0	test	<img class = center src='/static/experiments/beast_fmri_test/images/redP.png'></img>	stop	1550.0	3.0	36.0	stop	target	P	71,Green Button	89,Yellow Button	1200.0	1500.0	1550.0	1250.0	0.0	1.0	1200.0	0.0	ITI
170635	500	n/a	-1	-1	500	0.0	fixation	poldrack-single-stim	469	1158835	0.0-19.37-0.37	beast_fmri_test	300	n/a	n/a	<div class = centerbox><div class = fixation>+</div></div>	none	500.0	test	n/a	n/a	n/a	n/a	n/a	n/a	n/a	n/a	n/a	n/a	n/a	n/a	n/a	n/a	n/a	n/a	n/a	n/a	fixation
169232.25602894952	2750	n/a	1639	89	2750	1405.74397105	stim	stop-signal	470	1161588	0.0-19.37-1.37	beast_fmri_test	300	1158882,/,1159562,/,1160241,/,1160921,/,1161601,/,1162282,/,1162961,/	t,t,t,t,t,t,t	<img class = center src='/static/experiments/beast_fmri_test/images/B.png'></img>	71,89	2750.0	test	<img class = center src='/static/experiments/beast_fmri_test/images/redB.png'></img>	go	1500.0	3.0	37.0	go	target	B	71,Green Button	89,Yellow Button	1250.0	1500.0	1500.0	1250.0	0.0	n/a	1250.0	0.0	go_stim
171982.25602894952	1405.74397105042	n/a	1639	89	2750	1405.74397105	stim	stop-signal	470	1161588	0.0-19.37-1.37	beast_fmri_test	300	1158882,/,1159562,/,1160241,/,1160921,/,1161601,/,1162282,/,1162961,/	t,t,t,t,t,t,t	<img class = center src='/static/experiments/beast_fmri_test/images/B.png'></img>	71,89	2750.0	test	<img class = center src='/static/experiments/beast_fmri_test/images/redB.png'></img>	go	1500.0	3.0	37.0	go	target	B	71,Green Button	89,Yellow Button	1250.0	1500.0	1500.0	1250.0	0.0	n/a	1250.0	0.0	ITI
175313	500	n/a	-1	-1	500	0.0	fixation	poldrack-single-stim	471	1163513	0.0-19.38-0.38	beast_fmri_test	300	n/a	n/a	<div class = centerbox><div class = fixation>+</div></div>	none	500.0	test	n/a	n/a	n/a	n/a	n/a	n/a	n/a	n/a	n/a	n/a	n/a	n/a	n/a	n/a	n/a	n/a	n/a	n/a	fixation
175181.34760949458	1500.0	n/a	-1	-1	2750	133.652390505	stim	stop-signal	472	1166265	0.0-19.38-1.38	beast_fmri_test	300	1163642,/,1164323,/,1165002,/,1165682,/,1166363,/	t,t,t,t,t	<img class = center src='/static/experiments/beast_fmri_test/images/P.png'></img>	71,89	2750.0	test	<img class = center src='/static/experiments/beast_fmri_test/images/redP.png'></img>	stop	1250.0	3.0	38.0	stop	non-target	P	71,Green Button	89,Yellow Button	1250.0	1500.0	1500.0	1250.0	0.0	1.0	1500.0	0.0	go_stim
176431.34760949458	1250.0	n/a	-1	-1	2750	133.652390505	stim	stop-signal	472	1166265	0.0-19.38-1.38	beast_fmri_test	300	1163642,/,1164323,/,1165002,/,1165682,/,1166363,/	t,t,t,t,t	<img class = center src='/static/experiments/beast_fmri_test/images/P.png'></img>	71,89	2750.0	test	<img class = center src='/static/experiments/beast_fmri_test/images/redP.png'></img>	stop	1250.0	3.0	38.0	stop	non-target	P	71,Green Button	89,Yellow Button	1250.0	1500.0	1500.0	1250.0	0.0	1.0	1500.0	0.0	stop_stim
177931.34760949458	133.65239050545301	n/a	-1	-1	2750	133.652390505	stim	stop-signal	472	1166265	0.0-19.38-1.38	beast_fmri_test	300	1163642,/,1164323,/,1165002,/,1165682,/,1166363,/	t,t,t,t,t	<img class = center src='/static/experiments/beast_fmri_test/images/P.png'></img>	71,89	2750.0	test	<img class = center src='/static/experiments/beast_fmri_test/images/redP.png'></img>	stop	1250.0	3.0	38.0	stop	non-target	P	71,Green Button	89,Yellow Button	1250.0	1500.0	1500.0	1250.0	0.0	1.0	1500.0	0.0	ITI
178716	500	n/a	-1	-1	500	0.0	fixation	poldrack-single-stim	473	1166916	0.0-19.39-0.39	beast_fmri_test	300	n/a	n/a	<div class = centerbox><div class = fixation>+</div></div>	none	500.0	test	n/a	n/a	n/a	n/a	n/a	n/a	n/a	n/a	n/a	n/a	n/a	n/a	n/a	n/a	n/a	n/a	n/a	n/a	fixation
178623.6341112114	2750	n/a	-1	-1	2750	94.3658887886	stim	stop-signal	474	1169668	0.0-19.39-1.39	beast_fmri_test	300	1167043,/,1167723,/,1168402,/,1169083,/,1169762,/	t,t,t,t,t	<img class = center src='/static/experiments/beast_fmri_test/images/B.png'></img>	71,89	2750.0	test	<img class = center src='/static/experiments/beast_fmri_test/images/redB.png'></img>	go	1250.0	3.0	39.0	go	non-target	B	71,Green Button	89,Yellow Button	1250.0	1500.0	1500.0	1250.0	0.0	n/a	1500.0	0.0	go_stim
181373.6341112114	94.365888788568697	n/a	-1	-1	2750	94.3658887886	stim	stop-signal	474	1169668	0.0-19.39-1.39	beast_fmri_test	300	1167043,/,1167723,/,1168402,/,1169083,/,1169762,/	t,t,t,t,t	<img class = center src='/static/experiments/beast_fmri_test/images/B.png'></img>	71,89	2750.0	test	<img class = center src='/static/experiments/beast_fmri_test/images/redB.png'></img>	go	1250.0	3.0	39.0	go	non-target	B	71,Green Button	89,Yellow Button	1250.0	1500.0	1500.0	1250.0	0.0	n/a	1500.0	0.0	ITI
182081	500	n/a	-1	-1	500	0.0	fixation	poldrack-single-stim	475	1170281	0.0-19.40-0.40	beast_fmri_test	300	n/a	n/a	<div class = centerbox><div class = fixation>+</div></div>	none	500.0	test	n/a	n/a	n/a	n/a	n/a	n/a	n/a	n/a	n/a	n/a	n/a	n/a	n/a	n/a	n/a	n/a	n/a	n/a	fixation
181996.46470089466	2750	n/a	2300	89	2750	86.5352991053	stim	stop-signal	476	1173033	0.0-19.40-1.40	beast_fmri_test	300	1170442,/,1171123,/,1171803,/,1172482,/	t,t,t,t	<img class = center src='/static/experiments/beast_fmri_test/images/B.png'></img>	71,89	2750.0	test	<img class = center src='/static/experiments/beast_fmri_test/images/redB.png'></img>	go	1500.0	3.0	40.0	go	target	B	71,Green Button	89,Yellow Button	1250.0	1500.0	1500.0	1250.0	0.0	n/a	1250.0	0.0	go_stim
184746.46470089466	86.535299105303807	n/a	2300	89	2750	86.5352991053	stim	stop-signal	476	1173033	0.0-19.40-1.40	beast_fmri_test	300	1170442,/,1171123,/,1171803,/,1172482,/	t,t,t,t	<img class = center src='/static/experiments/beast_fmri_test/images/B.png'></img>	71,89	2750.0	test	<img class = center src='/static/experiments/beast_fmri_test/images/redB.png'></img>	go	1500.0	3.0	40.0	go	target	B	71,Green Button	89,Yellow Button	1250.0	1500.0	1500.0	1250.0	0.0	n/a	1250.0	0.0	ITI
185437	500	n/a	-1	-1	500	0.0	fixation	poldrack-single-stim	477	1173637	0.0-19.41-0.41	beast_fmri_test	300	1173162,/	t	<div class = centerbox><div class = fixation>+</div></div>	none	500.0	test	n/a	n/a	n/a	n/a	n/a	n/a	n/a	n/a	n/a	n/a	n/a	n/a	n/a	n/a	n/a	n/a	n/a	n/a	fixation
184891.26226377185	2750	n/a	2288	89	2750	547.737736228	stim	stop-signal	478	1176389	0.0-19.41-1.41	beast_fmri_test	300	1173842,/,1174522,/,1175202,/,1175883,/,1176562,/	t,t,t,t,t	<img class = center src='/static/experiments/beast_fmri_test/images/V.png'></img>	71,89	2750.0	test	<img class = center src='/static/experiments/beast_fmri_test/images/redV.png'></img>	go	1250.0	3.0	41.0	go	non-target	V	71,Green Button	89,Yellow Button	1250.0	1500.0	1500.0	1250.0	1.0	n/a	1500.0	1.0	go_stim
187641.26226377185	547.73773622826798	n/a	2288	89	2750	547.737736228	stim	stop-signal	478	1176389	0.0-19.41-1.41	beast_fmri_test	300	1173842,/,1174522,/,1175202,/,1175883,/,1176562,/	t,t,t,t,t	<img class = center src='/static/experiments/beast_fmri_test/images/V.png'></img>	71,89	2750.0	test	<img class = center src='/static/experiments/beast_fmri_test/images/redV.png'></img>	go	1250.0	3.0	41.0	go	non-target	V	71,Green Button	89,Yellow Button	1250.0	1500.0	1500.0	1250.0	1.0	n/a	1500.0	1.0	ITI
189258	500	n/a	-1	-1	500	0.0	fixation	poldrack-single-stim	479	1177458	0.0-19.42-0.42	beast_fmri_test	300	1177242,/	t	<div class = centerbox><div class = fixation>+</div></div>	none	500.0	test	n/a	n/a	n/a	n/a	n/a	n/a	n/a	n/a	n/a	n/a	n/a	n/a	n/a	n/a	n/a	n/a	n/a	n/a	fixation
189183.97457280522	2750	n/a	1579	89	2750	77.0254271948	stim	stop-signal	480	1180211	0.0-19.42-1.42	beast_fmri_test	300	1177922,/,1178602,/,1179283,/,1179962,/	t,t,t,t	<img class = center src='/static/experiments/beast_fmri_test/images/T.png'></img>	71,89	2750.0	test	<img class = center src='/static/experiments/beast_fmri_test/images/redT.png'></img>	go	1250.0	3.0	42.0	go	non-target	T	71,Green Button	89,Yellow Button	1250.0	1500.0	1500.0	1250.0	1.0	n/a	1500.0	1.0	go_stim
191933.97457280522	77.025427194761207	n/a	1579	89	2750	77.0254271948	stim	stop-signal	480	1180211	0.0-19.42-1.42	beast_fmri_test	300	1177922,/,1178602,/,1179283,/,1179962,/	t,t,t,t	<img class = center src='/static/experiments/beast_fmri_test/images/T.png'></img>	71,89	2750.0	test	<img class = center src='/static/experiments/beast_fmri_test/images/redT.png'></img>	go	1250.0	3.0	42.0	go	non-target	T	71,Green Button	89,Yellow Button	1250.0	1500.0	1500.0	1250.0	1.0	n/a	1500.0	1.0	ITI
192608	500	n/a	-1	-1	500	0.0	fixation	poldrack-single-stim	481	1180808	0.0-19.43-0.43	beast_fmri_test	300	1180642,/	t	<div class = centerbox><div class = fixation>+</div></div>	none	500.0	test	n/a	n/a	n/a	n/a	n/a	n/a	n/a	n/a	n/a	n/a	n/a	n/a	n/a	n/a	n/a	n/a	n/a	n/a	fixation
191801.66606580559	2750	n/a	1853	89	2750	808.333934194	stim	stop-signal	482	1183560	0.0-19.43-1.43	beast_fmri_test	300	1181322,/,1182002,/,1182682,/,1183362,/,1184042,/	t,t,t,t,t	<img class = center src='/static/experiments/beast_fmri_test/images/D.png'></img>	71,89	2750.0	test	<img class = center src='/static/experiments/beast_fmri_test/images/redD.png'></img>	go	1250.0	3.0	43.0	go	non-target	D	71,Green Button	89,Yellow Button	1250.0	1500.0	1500.0	1250.0	1.0	n/a	1500.0	1.0	go_stim
194551.66606580559	808.33393419441404	n/a	1853	89	2750	808.333934194	stim	stop-signal	482	1183560	0.0-19.43-1.43	beast_fmri_test	300	1181322,/,1182002,/,1182682,/,1183362,/,1184042,/	t,t,t,t,t	<img class = center src='/static/experiments/beast_fmri_test/images/D.png'></img>	71,89	2750.0	test	<img class = center src='/static/experiments/beast_fmri_test/images/redD.png'></img>	go	1250.0	3.0	43.0	go	non-target	D	71,Green Button	89,Yellow Button	1250.0	1500.0	1500.0	1250.0	1.0	n/a	1500.0	1.0	ITI
196689	500	n/a	-1	-1	500	0.0	fixation	poldrack-single-stim	483	1184889	0.0-19.44-0.44	beast_fmri_test	300	1184722,/	t	<div class = centerbox><div class = fixation>+</div></div>	none	500.0	test	n/a	n/a	n/a	n/a	n/a	n/a	n/a	n/a	n/a	n/a	n/a	n/a	n/a	n/a	n/a	n/a	n/a	n/a	fixation
195410.07493460528	1500.0	n/a	-1	-1	2750	1280.92506539	stim	stop-signal	484	1187641	0.0-19.44-1.44	beast_fmri_test	300	1185402,/,1186082,/,1186762,/,1187442,/,1188122,/,1188802,/	t,t,t,t,t,t	<img class = center src='/static/experiments/beast_fmri_test/images/D.png'></img>	71,89	2750.0	test	<img class = center src='/static/experiments/beast_fmri_test/images/redD.png'></img>	stop	1250.0	3.0	44.0	stop	non-target	D	71,Green Button	89,Yellow Button	1250.0	1500.0	1500.0	1250.0	0.0	1.0	1500.0	0.0	go_stim
196660.07493460528	1250.0	n/a	-1	-1	2750	1280.92506539	stim	stop-signal	484	1187641	0.0-19.44-1.44	beast_fmri_test	300	1185402,/,1186082,/,1186762,/,1187442,/,1188122,/,1188802,/	t,t,t,t,t,t	<img class = center src='/static/experiments/beast_fmri_test/images/D.png'></img>	71,89	2750.0	test	<img class = center src='/static/experiments/beast_fmri_test/images/redD.png'></img>	stop	1250.0	3.0	44.0	stop	non-target	D	71,Green Button	89,Yellow Button	1250.0	1500.0	1500.0	1250.0	0.0	1.0	1500.0	0.0	stop_stim
198160.07493460528	1280.9250653948	n/a	-1	-1	2750	1280.92506539	stim	stop-signal	484	1187641	0.0-19.44-1.44	beast_fmri_test	300	1185402,/,1186082,/,1186762,/,1187442,/,1188122,/,1188802,/	t,t,t,t,t,t	<img class = center src='/static/experiments/beast_fmri_test/images/D.png'></img>	71,89	2750.0	test	<img class = center src='/static/experiments/beast_fmri_test/images/redD.png'></img>	stop	1250.0	3.0	44.0	stop	non-target	D	71,Green Button	89,Yellow Button	1250.0	1500.0	1500.0	1250.0	0.0	1.0	1500.0	0.0	ITI
201238	500	n/a	-1	-1	500	0.0	fixation	poldrack-single-stim	485	1189438	0.0-19.45-0.45	beast_fmri_test	300	n/a	n/a	<div class = centerbox><div class = fixation>+</div></div>	none	500.0	test	n/a	n/a	n/a	n/a	n/a	n/a	n/a	n/a	n/a	n/a	n/a	n/a	n/a	n/a	n/a	n/a	n/a	n/a	fixation
199978.35908764438	2750	n/a	1623	89	2750	1261.64091236	stim	stop-signal	486	1192190	0.0-19.45-1.45	beast_fmri_test	300	1189482,/,1190162,/,1190842,/,1191522,/,1192202,/,1192882,/	t,t,t,t,t,t	<img class = center src='/static/experiments/beast_fmri_test/images/D.png'></img>	71,89	2750.0	test	<img class = center src='/static/experiments/beast_fmri_test/images/redD.png'></img>	go	1250.0	3.0	45.0	go	non-target	D	71,Green Button	89,Yellow Button	1250.0	1500.0	1500.0	1250.0	1.0	n/a	1500.0	1.0	go_stim
202728.35908764438	1261.64091235567	n/a	1623	89	2750	1261.64091236	stim	stop-signal	486	1192190	0.0-19.45-1.45	beast_fmri_test	300	1189482,/,1190162,/,1190842,/,1191522,/,1192202,/,1192882,/	t,t,t,t,t,t	<img class = center src='/static/experiments/beast_fmri_test/images/D.png'></img>	71,89	2750.0	test	<img class = center src='/static/experiments/beast_fmri_test/images/redD.png'></img>	go	1250.0	3.0	45.0	go	non-target	D	71,Green Button	89,Yellow Button	1250.0	1500.0	1500.0	1250.0	1.0	n/a	1500.0	1.0	ITI
205771	500	n/a	-1	-1	500	0.0	fixation	poldrack-single-stim	487	1193971	0.0-19.46-0.46	beast_fmri_test	300	1193562,/	t	<div class = centerbox><div class = fixation>+</div></div>	none	500.0	test	n/a	n/a	n/a	n/a	n/a	n/a	n/a	n/a	n/a	n/a	n/a	n/a	n/a	n/a	n/a	n/a	n/a	n/a	fixation
203416.92068182584	2750	n/a	1729	89	2750	2356.07931817	stim	stop-signal	488	1196723	0.0-19.46-1.46	beast_fmri_test	300	1194242,/,1194922,/,1195602,/,1196283,/,1196963,/,1197643,/,1198323,/,1199003,/	t,t,t,t,t,t,t,t	<img class = center src='/static/experiments/beast_fmri_test/images/P.png'></img>	71,89	2750.0	test	<img class = center src='/static/experiments/beast_fmri_test/images/redP.png'></img>	go	1250.0	3.0	46.0	go	non-target	P	71,Green Button	89,Yellow Button	1250.0	1500.0	1500.0	1250.0	1.0	n/a	1500.0	1.0	go_stim
206166.92068182584	2356.0793181742201	n/a	1729	89	2750	2356.07931817	stim	stop-signal	488	1196723	0.0-19.46-1.46	beast_fmri_test	300	1194242,/,1194922,/,1195602,/,1196283,/,1196963,/,1197643,/,1198323,/,1199003,/	t,t,t,t,t,t,t,t	<img class = center src='/static/experiments/beast_fmri_test/images/P.png'></img>	71,89	2750.0	test	<img class = center src='/static/experiments/beast_fmri_test/images/redP.png'></img>	go	1250.0	3.0	46.0	go	non-target	P	71,Green Button	89,Yellow Button	1250.0	1500.0	1500.0	1250.0	1.0	n/a	1500.0	1.0	ITI
211401	500	n/a	-1	-1	500	0.0	fixation	poldrack-single-stim	489	1199601	0.0-19.47-0.47	beast_fmri_test	300	n/a	n/a	<div class = centerbox><div class = fixation>+</div></div>	none	500.0	test	n/a	n/a	n/a	n/a	n/a	n/a	n/a	n/a	n/a	n/a	n/a	n/a	n/a	n/a	n/a	n/a	n/a	n/a	fixation
210735.5118657127	2750	n/a	1297	71	2750	667.488134287	stim	stop-signal	490	1202353	0.0-19.47-1.47	beast_fmri_test	300	1199684,/,1200363,/,1201043,/,1201723,/,1202403,/	t,t,t,t,t	<img class = center src='/static/experiments/beast_fmri_test/images/D.png'></img>	71,89	2750.0	test	<img class = center src='/static/experiments/beast_fmri_test/images/redD.png'></img>	go	1500.0	3.0	47.0	go	target	D	71,Green Button	89,Yellow Button	1250.0	1500.0	1500.0	1250.0	1.0	n/a	1250.0	1.0	go_stim
213485.5118657127	667.48813428727306	n/a	1297	71	2750	667.488134287	stim	stop-signal	490	1202353	0.0-19.47-1.47	beast_fmri_test	300	1199684,/,1200363,/,1201043,/,1201723,/,1202403,/	t,t,t,t,t	<img class = center src='/static/experiments/beast_fmri_test/images/D.png'></img>	71,89	2750.0	test	<img class = center src='/static/experiments/beast_fmri_test/images/redD.png'></img>	go	1500.0	3.0	47.0	go	target	D	71,Green Button	89,Yellow Button	1250.0	1500.0	1500.0	1250.0	1.0	n/a	1250.0	1.0	ITI
229841	15000	n/a	-1	-1	15000	0.0	practice-no-stop-feedback	poldrack-single-stim	491	1218041	0.0-20.0	beast_fmri_test	300	1203083,/,1203763,/,1204443,/,1205123,/,1205803,/,1206483,/,1207163,/,1207849,/,1208523,/,1209203,/,1209883,/,1210562,/,1211242,/,1211923,/,1212602,/,1213283,/,1213963,/,1214643,/,1215322,/,1216003,/,1216682,/,1217363,/	t,t,t,t,t,t,t,t,t,t,t,t,t,t,t,t,t,t,t,t,t,t	"<div class = ""centerbox""><p class = ""center-block-text"">Your delay is 2 trials.</p><p class = center-block-text>Please wait for the scanner to start the block</p></div>"	77	15000.0	n/a	n/a	n/a	n/a	n/a	n/a	n/a	n/a	n/a	n/a	n/a	n/a	n/a	n/a	n/a	n/a	n/a	n/a	n/a	practice-no-stop-feedback
230342	500	n/a	-1	-1	500	0.0	fixation	poldrack-single-stim	492	1218542	0.0-21.0-0.0	beast_fmri_test	300	1218043,/	t	<div class = centerbox><div class = fixation>+</div></div>	none	500.0	test	n/a	n/a	n/a	n/a	n/a	n/a	n/a	n/a	n/a	n/a	n/a	n/a	n/a	n/a	n/a	n/a	n/a	n/a	fixation
229812.32220061892	2750	n/a	1215	89	2750	531.677799381	stim	stop-signal	493	1221294	0.0-21.0-1.0	beast_fmri_test	300	1218723,/,1219403,/,1220083,/,1220762,/,1221442,/	t,t,t,t,t	<img class = center src='/static/experiments/beast_fmri_test/images/D.png'></img>	71,89	2750.0	test	<img class = center src='/static/experiments/beast_fmri_test/images/redD.png'></img>	go	-1.0	2.0	0.0	go	temp-non-target	D	71,Green Button	89,Yellow Button	1250.0	1500.0	1500.0	1250.0	0.0	n/a	n/a	n/a	go_stim
232562.32220061892	531.67779938112301	n/a	1215	89	2750	531.677799381	stim	stop-signal	493	1221294	0.0-21.0-1.0	beast_fmri_test	300	1218723,/,1219403,/,1220083,/,1220762,/,1221442,/	t,t,t,t,t	<img class = center src='/static/experiments/beast_fmri_test/images/D.png'></img>	71,89	2750.0	test	<img class = center src='/static/experiments/beast_fmri_test/images/redD.png'></img>	go	-1.0	2.0	0.0	go	temp-non-target	D	71,Green Button	89,Yellow Button	1250.0	1500.0	1500.0	1250.0	0.0	n/a	n/a	n/a	ITI
234146	500	n/a	-1	-1	500	0.0	fixation	poldrack-single-stim	494	1222346	0.0-21.1-0.1	beast_fmri_test	300	1222122,/	t	<div class = centerbox><div class = fixation>+</div></div>	none	500.0	test	n/a	n/a	n/a	n/a	n/a	n/a	n/a	n/a	n/a	n/a	n/a	n/a	n/a	n/a	n/a	n/a	n/a	n/a	fixation
232423.38305001962	2750	n/a	1130	89	2750	1724.61694998	stim	stop-signal	495	1225098	0.0-21.1-1.1	beast_fmri_test	300	1222803,/,1223482,/,1224162,/,1224842,/,1225522,/,1226202,/	t,t,t,t,t,t	<img class = center src='/static/experiments/beast_fmri_test/images/V.png'></img>	71,89	2750.0	test	<img class = center src='/static/experiments/beast_fmri_test/images/redV.png'></img>	go	-1.0	2.0	1.0	go	temp-non-target	V	71,Green Button	89,Yellow Button	1250.0	1500.0	1500.0	1250.0	0.0	n/a	n/a	n/a	go_stim
235173.38305001962	1724.6169499803	n/a	1130	89	2750	1724.61694998	stim	stop-signal	495	1225098	0.0-21.1-1.1	beast_fmri_test	300	1222803,/,1223482,/,1224162,/,1224842,/,1225522,/,1226202,/	t,t,t,t,t,t	<img class = center src='/static/experiments/beast_fmri_test/images/V.png'></img>	71,89	2750.0	test	<img class = center src='/static/experiments/beast_fmri_test/images/redV.png'></img>	go	-1.0	2.0	1.0	go	temp-non-target	V	71,Green Button	89,Yellow Button	1250.0	1500.0	1500.0	1250.0	0.0	n/a	n/a	n/a	ITI
239140	500	n/a	-1	-1	500	0.0	fixation	poldrack-single-stim	496	1227340	0.0-21.2-0.2	beast_fmri_test	300	1226883,/	t	<div class = centerbox><div class = fixation>+</div></div>	none	500.0	test	n/a	n/a	n/a	n/a	n/a	n/a	n/a	n/a	n/a	n/a	n/a	n/a	n/a	n/a	n/a	n/a	n/a	n/a	fixation
238277.75623360905	2750	n/a	1378	89	2750	865.243766391	stim	stop-signal	497	1230093	0.0-21.2-1.2	beast_fmri_test	300	1227563,/,1228242,/,1228923,/,1229603,/,1230284,/	t,t,t,t,t	<img class = center src='/static/experiments/beast_fmri_test/images/V.png'></img>	71,89	2750.0	test	<img class = center src='/static/experiments/beast_fmri_test/images/redV.png'></img>	go	1250.0	2.0	2.0	go	non-target	V	71,Green Button	89,Yellow Button	1250.0	1500.0	1500.0	1250.0	1.0	n/a	1500.0	1.0	go_stim
241027.75623360905	865.243766390921	n/a	1378	89	2750	865.243766391	stim	stop-signal	497	1230093	0.0-21.2-1.2	beast_fmri_test	300	1227563,/,1228242,/,1228923,/,1229603,/,1230284,/	t,t,t,t,t	<img class = center src='/static/experiments/beast_fmri_test/images/V.png'></img>	71,89	2750.0	test	<img class = center src='/static/experiments/beast_fmri_test/images/redV.png'></img>	go	1250.0	2.0	2.0	go	non-target	V	71,Green Button	89,Yellow Button	1250.0	1500.0	1500.0	1250.0	1.0	n/a	1500.0	1.0	ITI
243279	500	n/a	-1	-1	500	0.0	fixation	poldrack-single-stim	498	1231479	0.0-21.3-0.3	beast_fmri_test	300	1230977,/	t	<div class = centerbox><div class = fixation>+</div></div>	none	500.0	test	n/a	n/a	n/a	n/a	n/a	n/a	n/a	n/a	n/a	n/a	n/a	n/a	n/a	n/a	n/a	n/a	n/a	n/a	fixation
242970.02541834209	2750	n/a	1318	89	2750	310.974581658	stim	stop-signal	499	1234231	0.0-21.3-1.3	beast_fmri_test	300	1231643,/,1232324,/,1233003,/,1233683,/,1234363,/	t,t,t,t,t	<img class = center src='/static/experiments/beast_fmri_test/images/B.png'></img>	71,89	2750.0	test	<img class = center src='/static/experiments/beast_fmri_test/images/redB.png'></img>	go	1250.0	2.0	3.0	go	non-target	B	71,Green Button	89,Yellow Button	1250.0	1500.0	1500.0	1250.0	1.0	n/a	1500.0	1.0	go_stim
245720.02541834209	310.97458165793898	n/a	1318	89	2750	310.974581658	stim	stop-signal	499	1234231	0.0-21.3-1.3	beast_fmri_test	300	1231643,/,1232324,/,1233003,/,1233683,/,1234363,/	t,t,t,t,t	<img class = center src='/static/experiments/beast_fmri_test/images/B.png'></img>	71,89	2750.0	test	<img class = center src='/static/experiments/beast_fmri_test/images/redB.png'></img>	go	1250.0	2.0	3.0	go	non-target	B	71,Green Button	89,Yellow Button	1250.0	1500.0	1500.0	1250.0	1.0	n/a	1500.0	1.0	ITI
246861	500	n/a	-1	-1	500	0.0	fixation	poldrack-single-stim	500	1235061	0.0-21.4-0.4	beast_fmri_test	300	1235043,/	t	<div class = centerbox><div class = fixation>+</div></div>	none	500.0	test	n/a	n/a	n/a	n/a	n/a	n/a	n/a	n/a	n/a	n/a	n/a	n/a	n/a	n/a	n/a	n/a	n/a	n/a	fixation
246179.69752157689	2750	n/a	1521	89	2750	683.302478423	stim	stop-signal	501	1237813	0.0-21.4-1.4	beast_fmri_test	300	1235723,/,1236403,/,1237083,/,1237763,/,1238443,/	t,t,t,t,t	<img class = center src='/static/experiments/beast_fmri_test/images/P.png'></img>	71,89	2750.0	test	<img class = center src='/static/experiments/beast_fmri_test/images/redP.png'></img>	go	1250.0	2.0	4.0	go	non-target	P	71,Green Button	89,Yellow Button	1250.0	1500.0	1500.0	1250.0	1.0	n/a	1500.0	1.0	go_stim
248929.69752157689	683.30247842320603	n/a	1521	89	2750	683.302478423	stim	stop-signal	501	1237813	0.0-21.4-1.4	beast_fmri_test	300	1235723,/,1236403,/,1237083,/,1237763,/,1238443,/	t,t,t,t,t	<img class = center src='/static/experiments/beast_fmri_test/images/P.png'></img>	71,89	2750.0	test	<img class = center src='/static/experiments/beast_fmri_test/images/redP.png'></img>	go	1250.0	2.0	4.0	go	non-target	P	71,Green Button	89,Yellow Button	1250.0	1500.0	1500.0	1250.0	1.0	n/a	1500.0	1.0	ITI
250817	500	n/a	-1	-1	500	0.0	fixation	poldrack-single-stim	502	1239017	0.0-21.5-0.5	beast_fmri_test	300	n/a	n/a	<div class = centerbox><div class = fixation>+</div></div>	none	500.0	test	n/a	n/a	n/a	n/a	n/a	n/a	n/a	n/a	n/a	n/a	n/a	n/a	n/a	n/a	n/a	n/a	n/a	n/a	fixation
249886.29303159029	2750	n/a	1550	89	2750	931.70696841	stim	stop-signal	503	1241768	0.0-21.5-1.5	beast_fmri_test	300	1239123,/,1239803,/,1240484,/,1241163,/,1241843,/,1242523,/	t,t,t,t,t,t	<img class = center src='/static/experiments/beast_fmri_test/images/T.png'></img>	71,89	2750.0	test	<img class = center src='/static/experiments/beast_fmri_test/images/redT.png'></img>	go	1250.0	2.0	5.0	go	non-target	T	71,Green Button	89,Yellow Button	1250.0	1500.0	1500.0	1250.0	1.0	n/a	1500.0	1.0	go_stim
252636.29303159029	931.706968409654	n/a	1550	89	2750	931.70696841	stim	stop-signal	503	1241768	0.0-21.5-1.5	beast_fmri_test	300	1239123,/,1239803,/,1240484,/,1241163,/,1241843,/,1242523,/	t,t,t,t,t,t	<img class = center src='/static/experiments/beast_fmri_test/images/T.png'></img>	71,89	2750.0	test	<img class = center src='/static/experiments/beast_fmri_test/images/redT.png'></img>	go	1250.0	2.0	5.0	go	non-target	T	71,Green Button	89,Yellow Button	1250.0	1500.0	1500.0	1250.0	1.0	n/a	1500.0	1.0	ITI
255022	500	n/a	-1	-1	500	0.0	fixation	poldrack-single-stim	504	1243222	0.0-21.6-0.6	beast_fmri_test	300	1243203,/	t	<div class = centerbox><div class = fixation>+</div></div>	none	500.0	test	n/a	n/a	n/a	n/a	n/a	n/a	n/a	n/a	n/a	n/a	n/a	n/a	n/a	n/a	n/a	n/a	n/a	n/a	fixation
254239.01064769994	1500.0	n/a	1559	89	2750	785.9893523	stim	stop-signal	505	1245975	0.0-21.6-1.6	beast_fmri_test	300	1243883,/,1244563,/,1245243,/,1245923,/,1246603,/	t,t,t,t,t	<img class = center src='/static/experiments/beast_fmri_test/images/D.png'></img>	71,89	2750.0	test	<img class = center src='/static/experiments/beast_fmri_test/images/redD.png'></img>	stop	1250.0	2.0	6.0	stop	non-target	D	71,Green Button	89,Yellow Button	1250.0	1500.0	1500.0	1250.0	0.0	0.0	1500.0	1.0	go_stim
255489.01064769994	1250.0	n/a	1559	89	2750	785.9893523	stim	stop-signal	505	1245975	0.0-21.6-1.6	beast_fmri_test	300	1243883,/,1244563,/,1245243,/,1245923,/,1246603,/	t,t,t,t,t	<img class = center src='/static/experiments/beast_fmri_test/images/D.png'></img>	71,89	2750.0	test	<img class = center src='/static/experiments/beast_fmri_test/images/redD.png'></img>	stop	1250.0	2.0	6.0	stop	non-target	D	71,Green Button	89,Yellow Button	1250.0	1500.0	1500.0	1250.0	0.0	0.0	1500.0	1.0	stop_stim
256989.01064769994	785.98935230004497	n/a	1559	89	2750	785.9893523	stim	stop-signal	505	1245975	0.0-21.6-1.6	beast_fmri_test	300	1243883,/,1244563,/,1245243,/,1245923,/,1246603,/	t,t,t,t,t	<img class = center src='/static/experiments/beast_fmri_test/images/D.png'></img>	71,89	2750.0	test	<img class = center src='/static/experiments/beast_fmri_test/images/redD.png'></img>	stop	1250.0	2.0	6.0	stop	non-target	D	71,Green Button	89,Yellow Button	1250.0	1500.0	1500.0	1250.0	0.0	0.0	1500.0	1.0	ITI
259078	500	n/a	-1	-1	500	0.0	fixation	poldrack-single-stim	506	1247278	0.0-21.7-0.7	beast_fmri_test	300	n/a	n/a	<div class = centerbox><div class = fixation>+</div></div>	none	500.0	test	n/a	n/a	n/a	n/a	n/a	n/a	n/a	n/a	n/a	n/a	n/a	n/a	n/a	n/a	n/a	n/a	n/a	n/a	fixation
258110.64930475503	2750	n/a	1766	89	2750	969.350695245	stim	stop-signal	507	1250030	0.0-21.7-1.7	beast_fmri_test	300	1247283,/,1247963,/,1248643,/,1249323,/,1250003,/,1250683,/	t,t,t,t,t,t	<img class = center src='/static/experiments/beast_fmri_test/images/T.png'></img>	71,89	2750.0	test	<img class = center src='/static/experiments/beast_fmri_test/images/redT.png'></img>	go	1500.0	2.0	7.0	go	target	T	71,Green Button	89,Yellow Button	1250.0	1450.0	1500.0	1250.0	0.0	n/a	1250.0	0.0	go_stim
260860.64930475503	969.35069524506196	n/a	1766	89	2750	969.350695245	stim	stop-signal	507	1250030	0.0-21.7-1.7	beast_fmri_test	300	1247283,/,1247963,/,1248643,/,1249323,/,1250003,/,1250683,/	t,t,t,t,t,t	<img class = center src='/static/experiments/beast_fmri_test/images/T.png'></img>	71,89	2750.0	test	<img class = center src='/static/experiments/beast_fmri_test/images/redT.png'></img>	go	1500.0	2.0	7.0	go	target	T	71,Green Button	89,Yellow Button	1250.0	1450.0	1500.0	1250.0	0.0	n/a	1250.0	0.0	ITI
263319	500	n/a	-1	-1	500	0.0	fixation	poldrack-single-stim	508	1251519	0.0-21.8-0.8	beast_fmri_test	300	1251363,/	t	<div class = centerbox><div class = fixation>+</div></div>	none	500.0	test	n/a	n/a	n/a	n/a	n/a	n/a	n/a	n/a	n/a	n/a	n/a	n/a	n/a	n/a	n/a	n/a	n/a	n/a	fixation
263170.66510030488	2750	n/a	1669	71	2750	150.334899695	stim	stop-signal	509	1254271	0.0-21.8-1.8	beast_fmri_test	300	1252043,/,1252723,/,1253403,/,1254083,/	t,t,t,t	<img class = center src='/static/experiments/beast_fmri_test/images/D.png'></img>	71,89	2750.0	test	<img class = center src='/static/experiments/beast_fmri_test/images/redD.png'></img>	go	1500.0	2.0	8.0	go	target	D	71,Green Button	89,Yellow Button	1250.0	1450.0	1500.0	1250.0	1.0	n/a	1250.0	1.0	go_stim
265920.66510030488	150.334899695036	n/a	1669	71	2750	150.334899695	stim	stop-signal	509	1254271	0.0-21.8-1.8	beast_fmri_test	300	1252043,/,1252723,/,1253403,/,1254083,/	t,t,t,t	<img class = center src='/static/experiments/beast_fmri_test/images/D.png'></img>	71,89	2750.0	test	<img class = center src='/static/experiments/beast_fmri_test/images/redD.png'></img>	go	1500.0	2.0	8.0	go	target	D	71,Green Button	89,Yellow Button	1250.0	1450.0	1500.0	1250.0	1.0	n/a	1250.0	1.0	ITI
266741	500	n/a	-1	-1	500	0.0	fixation	poldrack-single-stim	510	1254941	0.0-21.9-0.9	beast_fmri_test	300	1254763,/	t	<div class = centerbox><div class = fixation>+</div></div>	none	500.0	test	n/a	n/a	n/a	n/a	n/a	n/a	n/a	n/a	n/a	n/a	n/a	n/a	n/a	n/a	n/a	n/a	n/a	n/a	fixation
266571.63593986817	1450.0	n/a	-1	-1	2750	172.364060132	stim	stop-signal	511	1257694	0.0-21.9-1.9	beast_fmri_test	300	1255442,/,1256123,/,1256803,/,1257483,/	t,t,t,t	<img class = center src='/static/experiments/beast_fmri_test/images/V.png'></img>	71,89	2750.0	test	<img class = center src='/static/experiments/beast_fmri_test/images/redV.png'></img>	stop	1300.0	2.0	9.0	stop	non-target	V	71,Green Button	89,Yellow Button	1250.0	1450.0	1500.0	1300.0	0.0	1.0	1450.0	0.0	go_stim
267871.63593986817	1300.0	n/a	-1	-1	2750	172.364060132	stim	stop-signal	511	1257694	0.0-21.9-1.9	beast_fmri_test	300	1255442,/,1256123,/,1256803,/,1257483,/	t,t,t,t	<img class = center src='/static/experiments/beast_fmri_test/images/V.png'></img>	71,89	2750.0	test	<img class = center src='/static/experiments/beast_fmri_test/images/redV.png'></img>	stop	1300.0	2.0	9.0	stop	non-target	V	71,Green Button	89,Yellow Button	1250.0	1450.0	1500.0	1300.0	0.0	1.0	1450.0	0.0	stop_stim
269321.63593986817	172.36406013194599	n/a	-1	-1	2750	172.364060132	stim	stop-signal	511	1257694	0.0-21.9-1.9	beast_fmri_test	300	1255442,/,1256123,/,1256803,/,1257483,/	t,t,t,t	<img class = center src='/static/experiments/beast_fmri_test/images/V.png'></img>	71,89	2750.0	test	<img class = center src='/static/experiments/beast_fmri_test/images/redV.png'></img>	stop	1300.0	2.0	9.0	stop	non-target	V	71,Green Button	89,Yellow Button	1250.0	1450.0	1500.0	1300.0	0.0	1.0	1450.0	0.0	ITI
270182	500	n/a	-1	-1	500	0.0	fixation	poldrack-single-stim	512	1258382	0.0-21.10-0.10	beast_fmri_test	300	1258163,/	t	<div class = centerbox><div class = fixation>+</div></div>	none	500.0	test	n/a	n/a	n/a	n/a	n/a	n/a	n/a	n/a	n/a	n/a	n/a	n/a	n/a	n/a	n/a	n/a	n/a	n/a	fixation
269489.67403132771	2750	n/a	1480	89	2750	694.325968672	stim	stop-signal	513	1261134	0.0-21.10-1.10	beast_fmri_test	300	1258843,/,1259523,/,1260202,/,1260884,/,1261563,/	t,t,t,t,t	<img class = center src='/static/experiments/beast_fmri_test/images/B.png'></img>	71,89	2750.0	test	<img class = center src='/static/experiments/beast_fmri_test/images/redB.png'></img>	go	1250.0	2.0	10.0	go	non-target	B	71,Green Button	89,Yellow Button	1250.0	1500.0	1500.0	1250.0	1.0	n/a	1500.0	1.0	go_stim
272239.67403132771	694.32596867226698	n/a	1480	89	2750	694.325968672	stim	stop-signal	513	1261134	0.0-21.10-1.10	beast_fmri_test	300	1258843,/,1259523,/,1260202,/,1260884,/,1261563,/	t,t,t,t,t	<img class = center src='/static/experiments/beast_fmri_test/images/B.png'></img>	71,89	2750.0	test	<img class = center src='/static/experiments/beast_fmri_test/images/redB.png'></img>	go	1250.0	2.0	10.0	go	non-target	B	71,Green Button	89,Yellow Button	1250.0	1500.0	1500.0	1250.0	1.0	n/a	1500.0	1.0	ITI
274150	500	n/a	-1	-1	500	0.0	fixation	poldrack-single-stim	514	1262350	0.0-21.11-0.11	beast_fmri_test	300	1262244,/	t	<div class = centerbox><div class = fixation>+</div></div>	none	500.0	test	n/a	n/a	n/a	n/a	n/a	n/a	n/a	n/a	n/a	n/a	n/a	n/a	n/a	n/a	n/a	n/a	n/a	n/a	fixation
273128.46997287124	1250.0	n/a	1239	71	2750	1022.53002713	stim	stop-signal	515	1265101	0.0-21.11-1.11	beast_fmri_test	300	1262924,/,1263604,/,1264284,/,1264963,/,1265644,/	t,t,t,t,t	<img class = center src='/static/experiments/beast_fmri_test/images/V.png'></img>	71,89	2750.0	test	<img class = center src='/static/experiments/beast_fmri_test/images/redV.png'></img>	stop	1500.0	2.0	11.0	stop	target	V	71,Green Button	89,Yellow Button	1250.0	1500.0	1500.0	1250.0	0.0	0.0	1250.0	1.0	go_stim
274628.46997287124	1500.0	n/a	1239	71	2750	1022.53002713	stim	stop-signal	515	1265101	0.0-21.11-1.11	beast_fmri_test	300	1262924,/,1263604,/,1264284,/,1264963,/,1265644,/	t,t,t,t,t	<img class = center src='/static/experiments/beast_fmri_test/images/V.png'></img>	71,89	2750.0	test	<img class = center src='/static/experiments/beast_fmri_test/images/redV.png'></img>	stop	1500.0	2.0	11.0	stop	target	V	71,Green Button	89,Yellow Button	1250.0	1500.0	1500.0	1250.0	0.0	0.0	1250.0	1.0	stop_stim
275878.46997287124	1022.53002712877	n/a	1239	71	2750	1022.53002713	stim	stop-signal	515	1265101	0.0-21.11-1.11	beast_fmri_test	300	1262924,/,1263604,/,1264284,/,1264963,/,1265644,/	t,t,t,t,t	<img class = center src='/static/experiments/beast_fmri_test/images/V.png'></img>	71,89	2750.0	test	<img class = center src='/static/experiments/beast_fmri_test/images/redV.png'></img>	stop	1500.0	2.0	11.0	stop	target	V	71,Green Button	89,Yellow Button	1250.0	1500.0	1500.0	1250.0	0.0	0.0	1250.0	1.0	ITI
278444	500	n/a	-1	-1	500	0.0	fixation	poldrack-single-stim	516	1266644	0.0-21.12-0.12	beast_fmri_test	300	1266324,/	t	<div class = centerbox><div class = fixation>+</div></div>	none	500.0	test	n/a	n/a	n/a	n/a	n/a	n/a	n/a	n/a	n/a	n/a	n/a	n/a	n/a	n/a	n/a	n/a	n/a	n/a	fixation
278384.9382241983	1500.0	n/a	-1	-1	2750	60.0617758018	stim	stop-signal	517	1269395	0.0-21.12-1.12	beast_fmri_test	300	1267004,/,1267684,/,1268364,/,1269044,/	t,t,t,t	<img class = center src='/static/experiments/beast_fmri_test/images/D.png'></img>	71,89	2750.0	test	<img class = center src='/static/experiments/beast_fmri_test/images/redD.png'></img>	stop	1250.0	2.0	12.0	stop	non-target	D	71,Green Button	89,Yellow Button	1200.0	1500.0	1500.0	1250.0	0.0	1.0	1500.0	0.0	go_stim
279634.9382241983	1250.0	n/a	-1	-1	2750	60.0617758018	stim	stop-signal	517	1269395	0.0-21.12-1.12	beast_fmri_test	300	1267004,/,1267684,/,1268364,/,1269044,/	t,t,t,t	<img class = center src='/static/experiments/beast_fmri_test/images/D.png'></img>	71,89	2750.0	test	<img class = center src='/static/experiments/beast_fmri_test/images/redD.png'></img>	stop	1250.0	2.0	12.0	stop	non-target	D	71,Green Button	89,Yellow Button	1200.0	1500.0	1500.0	1250.0	0.0	1.0	1500.0	0.0	stop_stim
281134.9382241983	60.061775801809901	n/a	-1	-1	2750	60.0617758018	stim	stop-signal	517	1269395	0.0-21.12-1.12	beast_fmri_test	300	1267004,/,1267684,/,1268364,/,1269044,/	t,t,t,t	<img class = center src='/static/experiments/beast_fmri_test/images/D.png'></img>	71,89	2750.0	test	<img class = center src='/static/experiments/beast_fmri_test/images/redD.png'></img>	stop	1250.0	2.0	12.0	stop	non-target	D	71,Green Button	89,Yellow Button	1200.0	1500.0	1500.0	1250.0	0.0	1.0	1500.0	0.0	ITI
281776	500	n/a	-1	-1	500	0.0	fixation	poldrack-single-stim	518	1269976	0.0-21.13-0.13	beast_fmri_test	300	1269724,/	t	<div class = centerbox><div class = fixation>+</div></div>	none	500.0	test	n/a	n/a	n/a	n/a	n/a	n/a	n/a	n/a	n/a	n/a	n/a	n/a	n/a	n/a	n/a	n/a	n/a	n/a	fixation
281235.60655584326	2750	n/a	2392	89	2750	542.393444157	stim	stop-signal	519	1272728	0.0-21.13-1.13	beast_fmri_test	300	1270404,/,1271085,/,1271764,/,1272444,/,1273123,/	t,t,t,t,t	<img class = center src='/static/experiments/beast_fmri_test/images/P.png'></img>	71,89	2750.0	test	<img class = center src='/static/experiments/beast_fmri_test/images/redP.png'></img>	go	1250.0	2.0	13.0	go	non-target	P	71,Green Button	89,Yellow Button	1200.0	1500.0	1500.0	1250.0	1.0	n/a	1500.0	1.0	go_stim
283985.60655584326	542.39344415682501	n/a	2392	89	2750	542.393444157	stim	stop-signal	519	1272728	0.0-21.13-1.13	beast_fmri_test	300	1270404,/,1271085,/,1271764,/,1272444,/,1273123,/	t,t,t,t,t	<img class = center src='/static/experiments/beast_fmri_test/images/P.png'></img>	71,89	2750.0	test	<img class = center src='/static/experiments/beast_fmri_test/images/redP.png'></img>	go	1250.0	2.0	13.0	go	non-target	P	71,Green Button	89,Yellow Button	1200.0	1500.0	1500.0	1250.0	1.0	n/a	1500.0	1.0	ITI
285591	500	n/a	-1	-1	500	0.0	fixation	poldrack-single-stim	520	1273791	0.0-21.14-0.14	beast_fmri_test	300	n/a	n/a	<div class = centerbox><div class = fixation>+</div></div>	none	500.0	test	n/a	n/a	n/a	n/a	n/a	n/a	n/a	n/a	n/a	n/a	n/a	n/a	n/a	n/a	n/a	n/a	n/a	n/a	fixation
285592.45954223583	1500.0	n/a	-1	-1	2750	0.540457764106	stim	stop-signal	521	1276543	0.0-21.14-1.14	beast_fmri_test	300	1273804,/,1274483,/,1275164,/,1275843,/,1276523,/	t,t,t,t,t	<img class = center src='/static/experiments/beast_fmri_test/images/P.png'></img>	71,89	2750.0	test	<img class = center src='/static/experiments/beast_fmri_test/images/redP.png'></img>	stop	1250.0	2.0	14.0	stop	non-target	P	71,Green Button	89,Yellow Button	1200.0	1500.0	1500.0	1250.0	0.0	1.0	1500.0	0.0	go_stim
286842.45954223583	1250.0	n/a	-1	-1	2750	0.540457764106	stim	stop-signal	521	1276543	0.0-21.14-1.14	beast_fmri_test	300	1273804,/,1274483,/,1275164,/,1275843,/,1276523,/	t,t,t,t,t	<img class = center src='/static/experiments/beast_fmri_test/images/P.png'></img>	71,89	2750.0	test	<img class = center src='/static/experiments/beast_fmri_test/images/redP.png'></img>	stop	1250.0	2.0	14.0	stop	non-target	P	71,Green Button	89,Yellow Button	1200.0	1500.0	1500.0	1250.0	0.0	1.0	1500.0	0.0	stop_stim
288342.45954223583	0.54045776410567603	n/a	-1	-1	2750	0.540457764106	stim	stop-signal	521	1276543	0.0-21.14-1.14	beast_fmri_test	300	1273804,/,1274483,/,1275164,/,1275843,/,1276523,/	t,t,t,t,t	<img class = center src='/static/experiments/beast_fmri_test/images/P.png'></img>	71,89	2750.0	test	<img class = center src='/static/experiments/beast_fmri_test/images/redP.png'></img>	stop	1250.0	2.0	14.0	stop	non-target	P	71,Green Button	89,Yellow Button	1200.0	1500.0	1500.0	1250.0	0.0	1.0	1500.0	0.0	ITI
288868	500	n/a	-1	-1	500	0.0	fixation	poldrack-single-stim	522	1277068	0.0-21.15-0.15	beast_fmri_test	300	n/a	n/a	<div class = centerbox><div class = fixation>+</div></div>	none	500.0	test	n/a	n/a	n/a	n/a	n/a	n/a	n/a	n/a	n/a	n/a	n/a	n/a	n/a	n/a	n/a	n/a	n/a	n/a	fixation
288583.19435881823	2750	n/a	1492	89	2750	287.805641182	stim	stop-signal	523	1279821	0.0-21.15-1.15	beast_fmri_test	300	1277203,/,1277884,/,1278563,/,1279243,/,1279923,/	t,t,t,t,t	<img class = center src='/static/experiments/beast_fmri_test/images/D.png'></img>	71,89	2750.0	test	<img class = center src='/static/experiments/beast_fmri_test/images/redD.png'></img>	go	1250.0	2.0	15.0	go	non-target	D	71,Green Button	89,Yellow Button	1200.0	1500.0	1500.0	1250.0	1.0	n/a	1500.0	1.0	go_stim
291333.19435881823	287.80564118171401	n/a	1492	89	2750	287.805641182	stim	stop-signal	523	1279821	0.0-21.15-1.15	beast_fmri_test	300	1277203,/,1277884,/,1278563,/,1279243,/,1279923,/	t,t,t,t,t	<img class = center src='/static/experiments/beast_fmri_test/images/D.png'></img>	71,89	2750.0	test	<img class = center src='/static/experiments/beast_fmri_test/images/redD.png'></img>	go	1250.0	2.0	15.0	go	non-target	D	71,Green Button	89,Yellow Button	1200.0	1500.0	1500.0	1250.0	1.0	n/a	1500.0	1.0	ITI
292429	500	n/a	-1	-1	500	0.0	fixation	poldrack-single-stim	524	1280629	0.0-21.16-0.16	beast_fmri_test	300	1280604,/	t	<div class = centerbox><div class = fixation>+</div></div>	none	500.0	test	n/a	n/a	n/a	n/a	n/a	n/a	n/a	n/a	n/a	n/a	n/a	n/a	n/a	n/a	n/a	n/a	n/a	n/a	fixation
289511.35025175964	2750	n/a	957	71	2750	2919.64974824	stim	stop-signal	525	1283381	0.0-21.16-1.16	beast_fmri_test	300	1281284,/,1281963,/,1282643,/,1283324,/,1284003,/,1284684,/,1285363,/,1286043,/	t,t,t,t,t,t,t,t	<img class = center src='/static/experiments/beast_fmri_test/images/P.png'></img>	71,89	2750.0	test	<img class = center src='/static/experiments/beast_fmri_test/images/redP.png'></img>	go	1550.0	2.0	16.0	go	target	P	71,Green Button	89,Yellow Button	1200.0	1500.0	1550.0	1250.0	1.0	n/a	1200.0	1.0	go_stim
292261.35025175964	2919.6497482404202	n/a	957	71	2750	2919.64974824	stim	stop-signal	525	1283381	0.0-21.16-1.16	beast_fmri_test	300	1281284,/,1281963,/,1282643,/,1283324,/,1284003,/,1284684,/,1285363,/,1286043,/	t,t,t,t,t,t,t,t	<img class = center src='/static/experiments/beast_fmri_test/images/P.png'></img>	71,89	2750.0	test	<img class = center src='/static/experiments/beast_fmri_test/images/redP.png'></img>	go	1550.0	2.0	16.0	go	target	P	71,Green Button	89,Yellow Button	1200.0	1500.0	1550.0	1250.0	1.0	n/a	1200.0	1.0	ITI
298622	500	n/a	-1	-1	500	0.0	fixation	poldrack-single-stim	526	1286822	0.0-21.17-0.17	beast_fmri_test	300	1286724,/	t	<div class = centerbox><div class = fixation>+</div></div>	none	500.0	test	n/a	n/a	n/a	n/a	n/a	n/a	n/a	n/a	n/a	n/a	n/a	n/a	n/a	n/a	n/a	n/a	n/a	n/a	fixation
298531.95147733483	1500.0	n/a	1450	89	2750	92.0485226652	stim	stop-signal	527	1289574	0.0-21.17-1.17	beast_fmri_test	300	1287403,/,1288084,/,1288763,/,1289443,/	t,t,t,t	<img class = center src='/static/experiments/beast_fmri_test/images/V.png'></img>	71,89	2750.0	test	<img class = center src='/static/experiments/beast_fmri_test/images/redV.png'></img>	stop	1250.0	2.0	17.0	stop	non-target	V	71,Green Button	89,Yellow Button	1200.0	1500.0	1550.0	1250.0	0.0	0.0	1500.0	1.0	go_stim
299781.95147733483	1250.0	n/a	1450	89	2750	92.0485226652	stim	stop-signal	527	1289574	0.0-21.17-1.17	beast_fmri_test	300	1287403,/,1288084,/,1288763,/,1289443,/	t,t,t,t	<img class = center src='/static/experiments/beast_fmri_test/images/V.png'></img>	71,89	2750.0	test	<img class = center src='/static/experiments/beast_fmri_test/images/redV.png'></img>	stop	1250.0	2.0	17.0	stop	non-target	V	71,Green Button	89,Yellow Button	1200.0	1500.0	1550.0	1250.0	0.0	0.0	1500.0	1.0	stop_stim
301281.95147733483	92.048522665177799	n/a	1450	89	2750	92.0485226652	stim	stop-signal	527	1289574	0.0-21.17-1.17	beast_fmri_test	300	1287403,/,1288084,/,1288763,/,1289443,/	t,t,t,t	<img class = center src='/static/experiments/beast_fmri_test/images/V.png'></img>	71,89	2750.0	test	<img class = center src='/static/experiments/beast_fmri_test/images/redV.png'></img>	stop	1250.0	2.0	17.0	stop	non-target	V	71,Green Button	89,Yellow Button	1200.0	1500.0	1550.0	1250.0	0.0	0.0	1500.0	1.0	ITI
301989	500	n/a	-1	-1	500	0.0	fixation	poldrack-single-stim	528	1290189	0.0-21.18-0.18	beast_fmri_test	300	1290123,/	t	<div class = centerbox><div class = fixation>+</div></div>	none	500.0	test	n/a	n/a	n/a	n/a	n/a	n/a	n/a	n/a	n/a	n/a	n/a	n/a	n/a	n/a	n/a	n/a	n/a	n/a	fixation
301089.38338335603	2750	n/a	1799	89	2750	901.616616644	stim	stop-signal	529	1292941	0.0-21.18-1.18	beast_fmri_test	300	1290804,/,1291483,/,1292163,/,1292843,/,1293523,/	t,t,t,t,t	<img class = center src='/static/experiments/beast_fmri_test/images/B.png'></img>	71,89	2750.0	test	<img class = center src='/static/experiments/beast_fmri_test/images/redB.png'></img>	go	1300.0	2.0	18.0	go	non-target	B	71,Green Button	89,Yellow Button	1200.0	1450.0	1550.0	1300.0	1.0	n/a	1450.0	1.0	go_stim
303839.38338335603	901.616616643866	n/a	1799	89	2750	901.616616644	stim	stop-signal	529	1292941	0.0-21.18-1.18	beast_fmri_test	300	1290804,/,1291483,/,1292163,/,1292843,/,1293523,/	t,t,t,t,t	<img class = center src='/static/experiments/beast_fmri_test/images/B.png'></img>	71,89	2750.0	test	<img class = center src='/static/experiments/beast_fmri_test/images/redB.png'></img>	go	1300.0	2.0	18.0	go	non-target	B	71,Green Button	89,Yellow Button	1200.0	1450.0	1550.0	1300.0	1.0	n/a	1450.0	1.0	ITI
306163	500	n/a	-1	-1	500	0.0	fixation	poldrack-single-stim	530	1294363	0.0-21.19-0.19	beast_fmri_test	300	1294204,/	t	<div class = centerbox><div class = fixation>+</div></div>	none	500.0	test	n/a	n/a	n/a	n/a	n/a	n/a	n/a	n/a	n/a	n/a	n/a	n/a	n/a	n/a	n/a	n/a	n/a	n/a	fixation
304772.47270312067	2750	n/a	1249	71	2750	1392.52729688	stim	stop-signal	531	1297115	0.0-21.19-1.19	beast_fmri_test	300	1294884,/,1295565,/,1296244,/,1296924,/,1297604,/,1298284,/	t,t,t,t,t,t	<img class = center src='/static/experiments/beast_fmri_test/images/V.png'></img>	71,89	2750.0	test	<img class = center src='/static/experiments/beast_fmri_test/images/redV.png'></img>	go	1550.0	2.0	19.0	go	target	V	71,Green Button	89,Yellow Button	1200.0	1450.0	1550.0	1300.0	1.0	n/a	1200.0	1.0	go_stim
307522.47270312067	1392.5272968792201	n/a	1249	71	2750	1392.52729688	stim	stop-signal	531	1297115	0.0-21.19-1.19	beast_fmri_test	300	1294884,/,1295565,/,1296244,/,1296924,/,1297604,/,1298284,/	t,t,t,t,t,t	<img class = center src='/static/experiments/beast_fmri_test/images/V.png'></img>	71,89	2750.0	test	<img class = center src='/static/experiments/beast_fmri_test/images/redV.png'></img>	go	1550.0	2.0	19.0	go	target	V	71,Green Button	89,Yellow Button	1200.0	1450.0	1550.0	1300.0	1.0	n/a	1200.0	1.0	ITI
310830	500	n/a	-1	-1	500	0.0	fixation	poldrack-single-stim	532	1299030	0.0-21.20-0.20	beast_fmri_test	300	1298964,/	t	<div class = centerbox><div class = fixation>+</div></div>	none	500.0	test	n/a	n/a	n/a	n/a	n/a	n/a	n/a	n/a	n/a	n/a	n/a	n/a	n/a	n/a	n/a	n/a	n/a	n/a	fixation
310514.79069184442	2750	n/a	1751	89	2750	318.209308156	stim	stop-signal	533	1301783	0.0-21.20-1.20	beast_fmri_test	300	1299644,/,1300324,/,1301004,/,1301685,/	t,t,t,t	<img class = center src='/static/experiments/beast_fmri_test/images/D.png'></img>	71,89	2750.0	test	<img class = center src='/static/experiments/beast_fmri_test/images/redD.png'></img>	go	1300.0	2.0	20.0	go	non-target	D	71,Green Button	89,Yellow Button	1200.0	1450.0	1550.0	1300.0	1.0	n/a	1450.0	1.0	go_stim
313264.79069184442	318.20930815564401	n/a	1751	89	2750	318.209308156	stim	stop-signal	533	1301783	0.0-21.20-1.20	beast_fmri_test	300	1299644,/,1300324,/,1301004,/,1301685,/	t,t,t,t	<img class = center src='/static/experiments/beast_fmri_test/images/D.png'></img>	71,89	2750.0	test	<img class = center src='/static/experiments/beast_fmri_test/images/redD.png'></img>	go	1300.0	2.0	20.0	go	non-target	D	71,Green Button	89,Yellow Button	1200.0	1450.0	1550.0	1300.0	1.0	n/a	1450.0	1.0	ITI
