onset	duration	text	rt	key_press	block_duration	timing_post_trial	trial_id	trial_type	trial_index	time_elapsed	internal_node_id	exp_id	subject_id	trigger_times	triggers	stimulus	possible_responses	stim_duration	exp_stage	SS_stimulus	SS_trial_type	SS_duration	load	trial_num	stop_trial_type	adaptive_trial_type	stim	yes_response_key	no_response_key	SSD_target	SSD_non_target	SSTarget	SSNonTarget	go_acc	stop_acc	SS_delay	adaptive_acc	new_trial_type
test	10880	n/a	-1	-1	10880	0.0	practice-no-stop-feedback	poldrack-single-stim	200	526354	0.0-12.0	beast_fmri_test	300	515474,/,516154,/,516833,/,517514,/,518194,/,518874,/,519553,/,520234,/,520914,/,521593,/,522273,/,522955,/,523634,/,524314,/,524993,/,525674,/,526354,/	t,t,t,t,t,t,t,t,t,t,t,t,t,t,t,t,t	"<div class = ""centerbox""><p class = ""center-block-text"">Your delay is 2 trials.</p><p class = center-block-text>Please wait for the scanner to start the block</p></div>"	77	10880.0	n/a	n/a	n/a	n/a	n/a	n/a	n/a	n/a	n/a	n/a	n/a	n/a	n/a	n/a	n/a	n/a	n/a	n/a	n/a	start_functional_block
11381	500	n/a	-1	-1	500	0.0	fixation	poldrack-single-stim	201	526855	0.0-13.0-0.0	beast_fmri_test	300	n/a	n/a	<div class = centerbox><div class = fixation>+</div></div>	none	500.0	test	n/a	n/a	n/a	n/a	n/a	n/a	n/a	n/a	n/a	n/a	n/a	n/a	n/a	n/a	n/a	n/a	n/a	n/a	fixation
11231.744261131273	temp_go_duration	n/a	1066	89	2750	151.255738869	stim	stop-signal	202	529607	0.0-13.0-1.0	beast_fmri_test	300	527034,/,527713,/,528394,/,529074,/,529754,/	t,t,t,t,t	<img class = center src='/static/experiments/beast_fmri_test/images/T.png'></img>	71,89	2750.0	test	<img class = center src='/static/experiments/beast_fmri_test/images/redT.png'></img>	stop	-1.0	2.0	0.0	stop	temp-non-target	T	71,Green Button	89,Yellow Button	800.0	1200.0	1950.0	1550.0	0.0	0.0	n/a	n/a	go_stim
temp-non-target	temp_stop_duration	n/a	1066	89	2750	151.255738869	stim	stop-signal	202	529607	0.0-13.0-1.0	beast_fmri_test	300	527034,/,527713,/,528394,/,529074,/,529754,/	t,t,t,t,t	<img class = center src='/static/experiments/beast_fmri_test/images/T.png'></img>	71,89	2750.0	test	<img class = center src='/static/experiments/beast_fmri_test/images/redT.png'></img>	stop	-1.0	2.0	0.0	stop	temp-non-target	T	71,Green Button	89,Yellow Button	800.0	1200.0	1950.0	1550.0	0.0	0.0	n/a	n/a	stop_stim
13981.744261131273	151.25573886876799	n/a	1066	89	2750	151.255738869	stim	stop-signal	202	529607	0.0-13.0-1.0	beast_fmri_test	300	527034,/,527713,/,528394,/,529074,/,529754,/	t,t,t,t,t	<img class = center src='/static/experiments/beast_fmri_test/images/T.png'></img>	71,89	2750.0	test	<img class = center src='/static/experiments/beast_fmri_test/images/redT.png'></img>	stop	-1.0	2.0	0.0	stop	temp-non-target	T	71,Green Button	89,Yellow Button	800.0	1200.0	1950.0	1550.0	0.0	0.0	n/a	n/a	ITI
14797	500	n/a	-1	-1	500	0.0	fixation	poldrack-single-stim	203	530271	0.0-13.1-0.1	beast_fmri_test	300	n/a	n/a	<div class = centerbox><div class = fixation>+</div></div>	none	500.0	test	n/a	n/a	n/a	n/a	n/a	n/a	n/a	n/a	n/a	n/a	n/a	n/a	n/a	n/a	n/a	n/a	n/a	n/a	fixation
14298.00293231674	2750	n/a	976	89	2750	500.997067683	stim	stop-signal	204	533023	0.0-13.1-1.1	beast_fmri_test	300	530433,/,531113,/,531793,/,532474,/,533154,/	t,t,t,t,t	<img class = center src='/static/experiments/beast_fmri_test/images/P.png'></img>	71,89	2750.0	test	<img class = center src='/static/experiments/beast_fmri_test/images/redP.png'></img>	go	-1.0	2.0	1.0	go	temp-non-target	P	71,Green Button	89,Yellow Button	800.0	1200.0	1950.0	1550.0	0.0	n/a	n/a	n/a	go_stim
17048.00293231674	500.99706768324	n/a	976	89	2750	500.997067683	stim	stop-signal	204	533023	0.0-13.1-1.1	beast_fmri_test	300	530433,/,531113,/,531793,/,532474,/,533154,/	t,t,t,t,t	<img class = center src='/static/experiments/beast_fmri_test/images/P.png'></img>	71,89	2750.0	test	<img class = center src='/static/experiments/beast_fmri_test/images/redP.png'></img>	go	-1.0	2.0	1.0	go	temp-non-target	P	71,Green Button	89,Yellow Button	800.0	1200.0	1950.0	1550.0	0.0	n/a	n/a	n/a	ITI
18562	500	n/a	-1	-1	500	0.0	fixation	poldrack-single-stim	205	534036	0.0-13.2-0.2	beast_fmri_test	300	533834,/	t	<div class = centerbox><div class = fixation>+</div></div>	none	500.0	test	n/a	n/a	n/a	n/a	n/a	n/a	n/a	n/a	n/a	n/a	n/a	n/a	n/a	n/a	n/a	n/a	n/a	n/a	fixation
18563.489481978351	2750	n/a	665	71	2750	0.51051802169	stim	stop-signal	206	536788	0.0-13.2-1.2	beast_fmri_test	300	534513,/,535194,/,535873,/,536553,/	t,t,t,t	<img class = center src='/static/experiments/beast_fmri_test/images/T.png'></img>	71,89	2750.0	test	<img class = center src='/static/experiments/beast_fmri_test/images/redT.png'></img>	go	1950.0	2.0	2.0	go	target	T	71,Green Button	89,Yellow Button	800.0	1200.0	1950.0	1550.0	1.0	n/a	800.0	1.0	go_stim
21313.489481978351	0.51051802168994798	n/a	665	71	2750	0.51051802169	stim	stop-signal	206	536788	0.0-13.2-1.2	beast_fmri_test	300	534513,/,535194,/,535873,/,536553,/	t,t,t,t	<img class = center src='/static/experiments/beast_fmri_test/images/T.png'></img>	71,89	2750.0	test	<img class = center src='/static/experiments/beast_fmri_test/images/redT.png'></img>	go	1950.0	2.0	2.0	go	target	T	71,Green Button	89,Yellow Button	800.0	1200.0	1950.0	1550.0	1.0	n/a	800.0	1.0	ITI
21828	500	n/a	-1	-1	500	0.0	fixation	poldrack-single-stim	207	537302	0.0-13.3-0.3	beast_fmri_test	300	537234,/	t	<div class = centerbox><div class = fixation>+</div></div>	none	500.0	test	n/a	n/a	n/a	n/a	n/a	n/a	n/a	n/a	n/a	n/a	n/a	n/a	n/a	n/a	n/a	n/a	n/a	n/a	fixation
21664.053985022008	1200.0	n/a	1447	89	2750	165.946014978	stim	stop-signal	208	540054	0.0-13.3-1.3	beast_fmri_test	300	537914,/,538593,/,539274,/,539955,/	t,t,t,t	<img class = center src='/static/experiments/beast_fmri_test/images/D.png'></img>	71,89	2750.0	test	<img class = center src='/static/experiments/beast_fmri_test/images/redD.png'></img>	stop	1550.0	2.0	3.0	stop	non-target	D	71,Green Button	89,Yellow Button	800.0	1200.0	1950.0	1550.0	0.0	0.0	1200.0	1.0	go_stim
23214.053985022008	1550.0	n/a	1447	89	2750	165.946014978	stim	stop-signal	208	540054	0.0-13.3-1.3	beast_fmri_test	300	537914,/,538593,/,539274,/,539955,/	t,t,t,t	<img class = center src='/static/experiments/beast_fmri_test/images/D.png'></img>	71,89	2750.0	test	<img class = center src='/static/experiments/beast_fmri_test/images/redD.png'></img>	stop	1550.0	2.0	3.0	stop	non-target	D	71,Green Button	89,Yellow Button	800.0	1200.0	1950.0	1550.0	0.0	0.0	1200.0	1.0	stop_stim
24414.053985022008	165.94601497795901	n/a	1447	89	2750	165.946014978	stim	stop-signal	208	540054	0.0-13.3-1.3	beast_fmri_test	300	537914,/,538593,/,539274,/,539955,/	t,t,t,t	<img class = center src='/static/experiments/beast_fmri_test/images/D.png'></img>	71,89	2750.0	test	<img class = center src='/static/experiments/beast_fmri_test/images/redD.png'></img>	stop	1550.0	2.0	3.0	stop	non-target	D	71,Green Button	89,Yellow Button	800.0	1200.0	1950.0	1550.0	0.0	0.0	1200.0	1.0	ITI
25257	500	n/a	-1	-1	500	0.0	fixation	poldrack-single-stim	209	540731	0.0-13.4-0.4	beast_fmri_test	300	540634,/	t	<div class = centerbox><div class = fixation>+</div></div>	none	500.0	test	n/a	n/a	n/a	n/a	n/a	n/a	n/a	n/a	n/a	n/a	n/a	n/a	n/a	n/a	n/a	n/a	n/a	n/a	fixation
24780.285064924858	1150.0	n/a	-1	-1	2750	478.714935075	stim	stop-signal	210	543483	0.0-13.4-1.4	beast_fmri_test	300	541314,/,541994,/,542674,/,543355,/	t,t,t,t	<img class = center src='/static/experiments/beast_fmri_test/images/B.png'></img>	71,89	2750.0	test	<img class = center src='/static/experiments/beast_fmri_test/images/redB.png'></img>	stop	1600.0	2.0	4.0	stop	non-target	B	71,Green Button	89,Yellow Button	800.0	1150.0	1950.0	1600.0	0.0	1.0	1150.0	0.0	go_stim
26380.285064924858	1600.0	n/a	-1	-1	2750	478.714935075	stim	stop-signal	210	543483	0.0-13.4-1.4	beast_fmri_test	300	541314,/,541994,/,542674,/,543355,/	t,t,t,t	<img class = center src='/static/experiments/beast_fmri_test/images/B.png'></img>	71,89	2750.0	test	<img class = center src='/static/experiments/beast_fmri_test/images/redB.png'></img>	stop	1600.0	2.0	4.0	stop	non-target	B	71,Green Button	89,Yellow Button	800.0	1150.0	1950.0	1600.0	0.0	1.0	1150.0	0.0	stop_stim
27530.285064924858	478.71493507508802	n/a	-1	-1	2750	478.714935075	stim	stop-signal	210	543483	0.0-13.4-1.4	beast_fmri_test	300	541314,/,541994,/,542674,/,543355,/	t,t,t,t	<img class = center src='/static/experiments/beast_fmri_test/images/B.png'></img>	71,89	2750.0	test	<img class = center src='/static/experiments/beast_fmri_test/images/redB.png'></img>	stop	1600.0	2.0	4.0	stop	non-target	B	71,Green Button	89,Yellow Button	800.0	1150.0	1950.0	1600.0	0.0	1.0	1150.0	0.0	ITI
29000	500	n/a	-1	-1	500	0.0	fixation	poldrack-single-stim	211	544474	0.0-13.5-0.5	beast_fmri_test	300	544034,/	t	<div class = centerbox><div class = fixation>+</div></div>	none	500.0	test	n/a	n/a	n/a	n/a	n/a	n/a	n/a	n/a	n/a	n/a	n/a	n/a	n/a	n/a	n/a	n/a	n/a	n/a	fixation
28867.808320434997	2750	n/a	836	71	2750	134.191679565	stim	stop-signal	212	547226	0.0-13.5-1.5	beast_fmri_test	300	544715,/,545394,/,546074,/,546754,/	t,t,t,t	<img class = center src='/static/experiments/beast_fmri_test/images/D.png'></img>	71,89	2750.0	test	<img class = center src='/static/experiments/beast_fmri_test/images/redD.png'></img>	go	1950.0	2.0	5.0	go	target	D	71,Green Button	89,Yellow Button	800.0	1200.0	1950.0	1600.0	1.0	n/a	800.0	1.0	go_stim
31617.808320434997	134.19167956495801	n/a	836	71	2750	134.191679565	stim	stop-signal	212	547226	0.0-13.5-1.5	beast_fmri_test	300	544715,/,545394,/,546074,/,546754,/	t,t,t,t	<img class = center src='/static/experiments/beast_fmri_test/images/D.png'></img>	71,89	2750.0	test	<img class = center src='/static/experiments/beast_fmri_test/images/redD.png'></img>	go	1950.0	2.0	5.0	go	target	D	71,Green Button	89,Yellow Button	800.0	1200.0	1950.0	1600.0	1.0	n/a	800.0	1.0	ITI
32397	500	n/a	-1	-1	500	0.0	fixation	poldrack-single-stim	213	547871	0.0-13.6-0.6	beast_fmri_test	300	547434,/	t	<div class = centerbox><div class = fixation>+</div></div>	none	500.0	test	n/a	n/a	n/a	n/a	n/a	n/a	n/a	n/a	n/a	n/a	n/a	n/a	n/a	n/a	n/a	n/a	n/a	n/a	fixation
31646.221307503176	2750	n/a	1000	71	2750	752.778692497	stim	stop-signal	214	550623	0.0-13.6-1.6	beast_fmri_test	300	548114,/,548794,/,549474,/,550154,/,550834,/	t,t,t,t,t	<img class = center src='/static/experiments/beast_fmri_test/images/B.png'></img>	71,89	2750.0	test	<img class = center src='/static/experiments/beast_fmri_test/images/redB.png'></img>	go	1950.0	2.0	6.0	go	target	B	71,Green Button	89,Yellow Button	800.0	1200.0	1950.0	1600.0	1.0	n/a	800.0	1.0	go_stim
34396.221307503176	752.77869249682999	n/a	1000	71	2750	752.778692497	stim	stop-signal	214	550623	0.0-13.6-1.6	beast_fmri_test	300	548114,/,548794,/,549474,/,550154,/,550834,/	t,t,t,t,t	<img class = center src='/static/experiments/beast_fmri_test/images/B.png'></img>	71,89	2750.0	test	<img class = center src='/static/experiments/beast_fmri_test/images/redB.png'></img>	go	1950.0	2.0	6.0	go	target	B	71,Green Button	89,Yellow Button	800.0	1200.0	1950.0	1600.0	1.0	n/a	800.0	1.0	ITI
36412	500	n/a	-1	-1	500	0.0	fixation	poldrack-single-stim	215	551886	0.0-13.7-0.7	beast_fmri_test	300	551514,/	t	<div class = centerbox><div class = fixation>+</div></div>	none	500.0	test	n/a	n/a	n/a	n/a	n/a	n/a	n/a	n/a	n/a	n/a	n/a	n/a	n/a	n/a	n/a	n/a	n/a	n/a	fixation
35490.411507411278	2750	n/a	1419	89	2750	923.588492589	stim	stop-signal	216	554638	0.0-13.7-1.7	beast_fmri_test	300	552194,/,552874,/,553555,/,554234,/,554166,/	t,t,t,t,t	<img class = center src='/static/experiments/beast_fmri_test/images/T.png'></img>	71,89	2750.0	test	<img class = center src='/static/experiments/beast_fmri_test/images/redT.png'></img>	go	1550.0	2.0	7.0	go	non-target	T	71,Green Button	89,Yellow Button	800.0	1200.0	1950.0	1550.0	1.0	n/a	1200.0	1.0	go_stim
38240.411507411278	923.58849258877001	n/a	1419	89	2750	923.588492589	stim	stop-signal	216	554638	0.0-13.7-1.7	beast_fmri_test	300	552194,/,552874,/,553555,/,554234,/,554166,/	t,t,t,t,t	<img class = center src='/static/experiments/beast_fmri_test/images/T.png'></img>	71,89	2750.0	test	<img class = center src='/static/experiments/beast_fmri_test/images/redT.png'></img>	go	1550.0	2.0	7.0	go	non-target	T	71,Green Button	89,Yellow Button	800.0	1200.0	1950.0	1550.0	1.0	n/a	1200.0	1.0	ITI
39852	500	n/a	-1	-1	500	0.0	fixation	poldrack-single-stim	217	555326	0.0-13.8-0.8	beast_fmri_test	300	554846,/	t	<div class = centerbox><div class = fixation>+</div></div>	none	500.0	test	n/a	n/a	n/a	n/a	n/a	n/a	n/a	n/a	n/a	n/a	n/a	n/a	n/a	n/a	n/a	n/a	n/a	n/a	fixation
39791.442544960068	2750	n/a	1749	89	2750	62.55745504	stim	stop-signal	218	558078	0.0-13.8-1.8	beast_fmri_test	300	555526,/,556206,/,556886,/,557566,/	t,t,t,t	<img class = center src='/static/experiments/beast_fmri_test/images/P.png'></img>	71,89	2750.0	test	<img class = center src='/static/experiments/beast_fmri_test/images/redP.png'></img>	go	1550.0	2.0	8.0	go	non-target	P	71,Green Button	89,Yellow Button	800.0	1200.0	1950.0	1550.0	1.0	n/a	1200.0	1.0	go_stim
42541.442544960068	62.557455039950902	n/a	1749	89	2750	62.55745504	stim	stop-signal	218	558078	0.0-13.8-1.8	beast_fmri_test	300	555526,/,556206,/,556886,/,557566,/	t,t,t,t	<img class = center src='/static/experiments/beast_fmri_test/images/P.png'></img>	71,89	2750.0	test	<img class = center src='/static/experiments/beast_fmri_test/images/redP.png'></img>	go	1550.0	2.0	8.0	go	non-target	P	71,Green Button	89,Yellow Button	800.0	1200.0	1950.0	1550.0	1.0	n/a	1200.0	1.0	ITI
43178	500	n/a	-1	-1	500	0.0	fixation	poldrack-single-stim	219	558652	0.0-13.9-0.9	beast_fmri_test	300	558246,/	t	<div class = centerbox><div class = fixation>+</div></div>	none	500.0	test	n/a	n/a	n/a	n/a	n/a	n/a	n/a	n/a	n/a	n/a	n/a	n/a	n/a	n/a	n/a	n/a	n/a	n/a	fixation
43177.007925377577	2750	n/a	1387	89	2750	3.99207462238	stim	stop-signal	220	561405	0.0-13.9-1.9	beast_fmri_test	300	558926,/,559606,/,560286,/,560966,/	t,t,t,t	<img class = center src='/static/experiments/beast_fmri_test/images/P.png'></img>	71,89	2750.0	test	<img class = center src='/static/experiments/beast_fmri_test/images/redP.png'></img>	go	1550.0	2.0	9.0	go	non-target	P	71,Green Button	89,Yellow Button	800.0	1200.0	1950.0	1550.0	1.0	n/a	1200.0	1.0	go_stim
45927.007925377577	3.9920746223795001	n/a	1387	89	2750	3.99207462238	stim	stop-signal	220	561405	0.0-13.9-1.9	beast_fmri_test	300	558926,/,559606,/,560286,/,560966,/	t,t,t,t	<img class = center src='/static/experiments/beast_fmri_test/images/P.png'></img>	71,89	2750.0	test	<img class = center src='/static/experiments/beast_fmri_test/images/redP.png'></img>	go	1550.0	2.0	9.0	go	non-target	P	71,Green Button	89,Yellow Button	800.0	1200.0	1950.0	1550.0	1.0	n/a	1200.0	1.0	ITI
46445	500	n/a	-1	-1	500	0.0	fixation	poldrack-single-stim	221	561919	0.0-13.10-0.10	beast_fmri_test	300	561646,/	t	<div class = centerbox><div class = fixation>+</div></div>	none	500.0	test	n/a	n/a	n/a	n/a	n/a	n/a	n/a	n/a	n/a	n/a	n/a	n/a	n/a	n/a	n/a	n/a	n/a	n/a	fixation
46220.661459656316	2750	n/a	1255	89	2750	226.338540344	stim	stop-signal	222	564671	0.0-13.10-1.10	beast_fmri_test	300	562326,/,563007,/,563686,/,564366,/	t,t,t,t	<img class = center src='/static/experiments/beast_fmri_test/images/T.png'></img>	71,89	2750.0	test	<img class = center src='/static/experiments/beast_fmri_test/images/redT.png'></img>	go	1550.0	2.0	10.0	go	non-target	T	71,Green Button	89,Yellow Button	800.0	1200.0	1950.0	1550.0	1.0	n/a	1200.0	1.0	go_stim
48970.661459656316	226.33854034367999	n/a	1255	89	2750	226.338540344	stim	stop-signal	222	564671	0.0-13.10-1.10	beast_fmri_test	300	562326,/,563007,/,563686,/,564366,/	t,t,t,t	<img class = center src='/static/experiments/beast_fmri_test/images/T.png'></img>	71,89	2750.0	test	<img class = center src='/static/experiments/beast_fmri_test/images/redT.png'></img>	go	1550.0	2.0	10.0	go	non-target	T	71,Green Button	89,Yellow Button	800.0	1200.0	1950.0	1550.0	1.0	n/a	1200.0	1.0	ITI
49934	500	n/a	-1	-1	500	0.0	fixation	poldrack-single-stim	223	565408	0.0-13.11-0.11	beast_fmri_test	300	565046,/	t	<div class = centerbox><div class = fixation>+</div></div>	none	500.0	test	n/a	n/a	n/a	n/a	n/a	n/a	n/a	n/a	n/a	n/a	n/a	n/a	n/a	n/a	n/a	n/a	n/a	n/a	fixation
49908.428072244278	2750	n/a	1073	89	2750	28.5719277557	stim	stop-signal	224	568161	0.0-13.11-1.11	beast_fmri_test	300	565726,/,566406,/,567086,/,567766,/	t,t,t,t	<img class = center src='/static/experiments/beast_fmri_test/images/D.png'></img>	71,89	2750.0	test	<img class = center src='/static/experiments/beast_fmri_test/images/redD.png'></img>	go	1550.0	2.0	11.0	go	non-target	D	71,Green Button	89,Yellow Button	800.0	1200.0	1950.0	1550.0	1.0	n/a	1200.0	1.0	go_stim
52658.428072244278	28.571927755688499	n/a	1073	89	2750	28.5719277557	stim	stop-signal	224	568161	0.0-13.11-1.11	beast_fmri_test	300	565726,/,566406,/,567086,/,567766,/	t,t,t,t	<img class = center src='/static/experiments/beast_fmri_test/images/D.png'></img>	71,89	2750.0	test	<img class = center src='/static/experiments/beast_fmri_test/images/redD.png'></img>	go	1550.0	2.0	11.0	go	non-target	D	71,Green Button	89,Yellow Button	800.0	1200.0	1950.0	1550.0	1.0	n/a	1200.0	1.0	ITI
53228	500	n/a	-1	-1	500	0.0	fixation	poldrack-single-stim	225	568702	0.0-13.12-0.12	beast_fmri_test	300	568446,/	t	<div class = centerbox><div class = fixation>+</div></div>	none	500.0	test	n/a	n/a	n/a	n/a	n/a	n/a	n/a	n/a	n/a	n/a	n/a	n/a	n/a	n/a	n/a	n/a	n/a	n/a	fixation
52573.456742959796	2750	n/a	1501	89	2750	656.54325704	stim	stop-signal	226	571454	0.0-13.12-1.12	beast_fmri_test	300	569126,/,569807,/,570487,/,571167,/,571847,/	t,t,t,t,t	<img class = center src='/static/experiments/beast_fmri_test/images/B.png'></img>	71,89	2750.0	test	<img class = center src='/static/experiments/beast_fmri_test/images/redB.png'></img>	go	1550.0	2.0	12.0	go	non-target	B	71,Green Button	89,Yellow Button	800.0	1200.0	1950.0	1550.0	1.0	n/a	1200.0	1.0	go_stim
55323.456742959796	656.54325704018902	n/a	1501	89	2750	656.54325704	stim	stop-signal	226	571454	0.0-13.12-1.12	beast_fmri_test	300	569126,/,569807,/,570487,/,571167,/,571847,/	t,t,t,t,t	<img class = center src='/static/experiments/beast_fmri_test/images/B.png'></img>	71,89	2750.0	test	<img class = center src='/static/experiments/beast_fmri_test/images/redB.png'></img>	go	1550.0	2.0	12.0	go	non-target	B	71,Green Button	89,Yellow Button	800.0	1200.0	1950.0	1550.0	1.0	n/a	1200.0	1.0	ITI
57150	500	n/a	-1	-1	500	0.0	fixation	poldrack-single-stim	227	572624	0.0-13.13-0.13	beast_fmri_test	300	572527,/	t	<div class = centerbox><div class = fixation>+</div></div>	none	500.0	test	n/a	n/a	n/a	n/a	n/a	n/a	n/a	n/a	n/a	n/a	n/a	n/a	n/a	n/a	n/a	n/a	n/a	n/a	fixation
57125.120293341577	1200.0	n/a	-1	-1	2750	26.8797066585	stim	stop-signal	228	575376	0.0-13.13-1.13	beast_fmri_test	300	573207,/,573887,/,574567,/,575247,/	t,t,t,t	<img class = center src='/static/experiments/beast_fmri_test/images/T.png'></img>	71,89	2750.0	test	<img class = center src='/static/experiments/beast_fmri_test/images/redT.png'></img>	stop	1550.0	2.0	13.0	stop	non-target	T	71,Green Button	89,Yellow Button	800.0	1200.0	1950.0	1550.0	0.0	1.0	1200.0	0.0	go_stim
58675.120293341577	1550.0	n/a	-1	-1	2750	26.8797066585	stim	stop-signal	228	575376	0.0-13.13-1.13	beast_fmri_test	300	573207,/,573887,/,574567,/,575247,/	t,t,t,t	<img class = center src='/static/experiments/beast_fmri_test/images/T.png'></img>	71,89	2750.0	test	<img class = center src='/static/experiments/beast_fmri_test/images/redT.png'></img>	stop	1550.0	2.0	13.0	stop	non-target	T	71,Green Button	89,Yellow Button	800.0	1200.0	1950.0	1550.0	0.0	1.0	1200.0	0.0	stop_stim
59875.120293341577	26.879706658470202	n/a	-1	-1	2750	26.8797066585	stim	stop-signal	228	575376	0.0-13.13-1.13	beast_fmri_test	300	573207,/,573887,/,574567,/,575247,/	t,t,t,t	<img class = center src='/static/experiments/beast_fmri_test/images/T.png'></img>	71,89	2750.0	test	<img class = center src='/static/experiments/beast_fmri_test/images/redT.png'></img>	stop	1550.0	2.0	13.0	stop	non-target	T	71,Green Button	89,Yellow Button	800.0	1200.0	1950.0	1550.0	0.0	1.0	1200.0	0.0	ITI
60441	500	n/a	-1	-1	500	0.0	fixation	poldrack-single-stim	229	575915	0.0-13.14-0.14	beast_fmri_test	300	n/a	n/a	<div class = centerbox><div class = fixation>+</div></div>	none	500.0	test	n/a	n/a	n/a	n/a	n/a	n/a	n/a	n/a	n/a	n/a	n/a	n/a	n/a	n/a	n/a	n/a	n/a	n/a	fixation
56447.881789380684	2750	n/a	1196	89	2750	3994.11821062	stim	stop-signal	230	578666	0.0-13.14-1.14	beast_fmri_test	300	575927,/,576607,/,577287,/,577967,/,578646,/,579327,/,580006,/,580687,/,581367,/,582047,/	t,t,t,t,t,t,t,t,t,t	<img class = center src='/static/experiments/beast_fmri_test/images/D.png'></img>	71,89	2750.0	test	<img class = center src='/static/experiments/beast_fmri_test/images/redD.png'></img>	go	1500.0	2.0	14.0	go	non-target	D	71,Green Button	89,Yellow Button	800.0	1250.0	1950.0	1500.0	1.0	n/a	1250.0	1.0	go_stim
59197.881789380684	3994.11821061929	n/a	1196	89	2750	3994.11821062	stim	stop-signal	230	578666	0.0-13.14-1.14	beast_fmri_test	300	575927,/,576607,/,577287,/,577967,/,578646,/,579327,/,580006,/,580687,/,581367,/,582047,/	t,t,t,t,t,t,t,t,t,t	<img class = center src='/static/experiments/beast_fmri_test/images/D.png'></img>	71,89	2750.0	test	<img class = center src='/static/experiments/beast_fmri_test/images/redD.png'></img>	go	1500.0	2.0	14.0	go	non-target	D	71,Green Button	89,Yellow Button	800.0	1250.0	1950.0	1500.0	1.0	n/a	1250.0	1.0	ITI
67698	500	n/a	-1	-1	500	0.0	fixation	poldrack-single-stim	231	583172	0.0-13.15-0.15	beast_fmri_test	300	582727,/	t	<div class = centerbox><div class = fixation>+</div></div>	none	500.0	test	n/a	n/a	n/a	n/a	n/a	n/a	n/a	n/a	n/a	n/a	n/a	n/a	n/a	n/a	n/a	n/a	n/a	n/a	fixation
66774.109838900738	2750	n/a	1450	89	2750	925.890161099	stim	stop-signal	232	585924	0.0-13.15-1.15	beast_fmri_test	300	583408,/,584087,/,584767,/,585447,/,586127,/,586807,/	t,t,t,t,t,t	<img class = center src='/static/experiments/beast_fmri_test/images/V.png'></img>	71,89	2750.0	test	<img class = center src='/static/experiments/beast_fmri_test/images/redV.png'></img>	go	1500.0	2.0	15.0	go	non-target	V	71,Green Button	89,Yellow Button	800.0	1250.0	1950.0	1500.0	1.0	n/a	1250.0	1.0	go_stim
69524.109838900738	925.89016109926695	n/a	1450	89	2750	925.890161099	stim	stop-signal	232	585924	0.0-13.15-1.15	beast_fmri_test	300	583408,/,584087,/,584767,/,585447,/,586127,/,586807,/	t,t,t,t,t,t	<img class = center src='/static/experiments/beast_fmri_test/images/V.png'></img>	71,89	2750.0	test	<img class = center src='/static/experiments/beast_fmri_test/images/redV.png'></img>	go	1500.0	2.0	15.0	go	non-target	V	71,Green Button	89,Yellow Button	800.0	1250.0	1950.0	1500.0	1.0	n/a	1250.0	1.0	ITI
71888	500	n/a	-1	-1	500	0.0	fixation	poldrack-single-stim	233	587362	0.0-13.16-0.16	beast_fmri_test	300	n/a	n/a	<div class = centerbox><div class = fixation>+</div></div>	none	500.0	test	n/a	n/a	n/a	n/a	n/a	n/a	n/a	n/a	n/a	n/a	n/a	n/a	n/a	n/a	n/a	n/a	n/a	n/a	fixation
71135.290670038667	2750	n/a	1291	89	2750	754.709329961	stim	stop-signal	234	590114	0.0-13.16-1.16	beast_fmri_test	300	587487,/,588167,/,588847,/,589527,/,590207,/	t,t,t,t,t	<img class = center src='/static/experiments/beast_fmri_test/images/B.png'></img>	71,89	2750.0	test	<img class = center src='/static/experiments/beast_fmri_test/images/redB.png'></img>	go	1500.0	2.0	16.0	go	non-target	B	71,Green Button	89,Yellow Button	800.0	1250.0	1950.0	1500.0	1.0	n/a	1250.0	1.0	go_stim
73885.290670038667	754.70932996138197	n/a	1291	89	2750	754.709329961	stim	stop-signal	234	590114	0.0-13.16-1.16	beast_fmri_test	300	587487,/,588167,/,588847,/,589527,/,590207,/	t,t,t,t,t	<img class = center src='/static/experiments/beast_fmri_test/images/B.png'></img>	71,89	2750.0	test	<img class = center src='/static/experiments/beast_fmri_test/images/redB.png'></img>	go	1500.0	2.0	16.0	go	non-target	B	71,Green Button	89,Yellow Button	800.0	1250.0	1950.0	1500.0	1.0	n/a	1250.0	1.0	ITI
75909	500	n/a	-1	-1	500	0.0	fixation	poldrack-single-stim	235	591383	0.0-13.17-0.17	beast_fmri_test	300	590886,/	t	<div class = centerbox><div class = fixation>+</div></div>	none	500.0	test	n/a	n/a	n/a	n/a	n/a	n/a	n/a	n/a	n/a	n/a	n/a	n/a	n/a	n/a	n/a	n/a	n/a	n/a	fixation
74646.48972220649	2750	n/a	1499	89	2750	1263.51027779	stim	stop-signal	236	594134	0.0-13.17-1.17	beast_fmri_test	300	591567,/,592247,/,592927,/,593607,/,594286,/,594967,/	t,t,t,t,t,t	<img class = center src='/static/experiments/beast_fmri_test/images/T.png'></img>	71,89	2750.0	test	<img class = center src='/static/experiments/beast_fmri_test/images/redT.png'></img>	go	1500.0	2.0	17.0	go	non-target	T	71,Green Button	89,Yellow Button	800.0	1250.0	1950.0	1500.0	1.0	n/a	1250.0	1.0	go_stim
77396.48972220649	1263.5102777934601	n/a	1499	89	2750	1263.51027779	stim	stop-signal	236	594134	0.0-13.17-1.17	beast_fmri_test	300	591567,/,592247,/,592927,/,593607,/,594286,/,594967,/	t,t,t,t,t,t	<img class = center src='/static/experiments/beast_fmri_test/images/T.png'></img>	71,89	2750.0	test	<img class = center src='/static/experiments/beast_fmri_test/images/redT.png'></img>	go	1500.0	2.0	17.0	go	non-target	T	71,Green Button	89,Yellow Button	800.0	1250.0	1950.0	1500.0	1.0	n/a	1250.0	1.0	ITI
80437	500	n/a	-1	-1	500	0.0	fixation	poldrack-single-stim	237	595911	0.0-13.18-0.18	beast_fmri_test	300	595647,/	t	<div class = centerbox><div class = fixation>+</div></div>	none	500.0	test	n/a	n/a	n/a	n/a	n/a	n/a	n/a	n/a	n/a	n/a	n/a	n/a	n/a	n/a	n/a	n/a	n/a	n/a	fixation
79394.934582263697	2750	n/a	1155	89	2750	1044.06541774	stim	stop-signal	238	598663	0.0-13.18-1.18	beast_fmri_test	300	596327,/,597006,/,597686,/,598366,/,599047,/	t,t,t,t,t	<img class = center src='/static/experiments/beast_fmri_test/images/P.png'></img>	71,89	2750.0	test	<img class = center src='/static/experiments/beast_fmri_test/images/redP.png'></img>	go	1500.0	2.0	18.0	go	non-target	P	71,Green Button	89,Yellow Button	800.0	1250.0	1950.0	1500.0	1.0	n/a	1250.0	1.0	go_stim
82144.934582263697	1044.0654177363199	n/a	1155	89	2750	1044.06541774	stim	stop-signal	238	598663	0.0-13.18-1.18	beast_fmri_test	300	596327,/,597006,/,597686,/,598366,/,599047,/	t,t,t,t,t	<img class = center src='/static/experiments/beast_fmri_test/images/P.png'></img>	71,89	2750.0	test	<img class = center src='/static/experiments/beast_fmri_test/images/redP.png'></img>	go	1500.0	2.0	18.0	go	non-target	P	71,Green Button	89,Yellow Button	800.0	1250.0	1950.0	1500.0	1.0	n/a	1250.0	1.0	ITI
84747	500	n/a	-1	-1	500	0.0	fixation	poldrack-single-stim	239	600221	0.0-13.19-0.19	beast_fmri_test	300	599726,/	t	<div class = centerbox><div class = fixation>+</div></div>	none	500.0	test	n/a	n/a	n/a	n/a	n/a	n/a	n/a	n/a	n/a	n/a	n/a	n/a	n/a	n/a	n/a	n/a	n/a	n/a	fixation
83764.060052821063	1250.0	n/a	1252	89	2750	983.939947179	stim	stop-signal	240	602972	0.0-13.19-1.19	beast_fmri_test	300	600407,/,601087,/,601766,/,602446,/,603127,/,603808,/	t,t,t,t,t,t	<img class = center src='/static/experiments/beast_fmri_test/images/V.png'></img>	71,89	2750.0	test	<img class = center src='/static/experiments/beast_fmri_test/images/redV.png'></img>	stop	1500.0	2.0	19.0	stop	non-target	V	71,Green Button	89,Yellow Button	800.0	1250.0	1950.0	1500.0	0.0	0.0	1250.0	1.0	go_stim
85264.060052821063	1500.0	n/a	1252	89	2750	983.939947179	stim	stop-signal	240	602972	0.0-13.19-1.19	beast_fmri_test	300	600407,/,601087,/,601766,/,602446,/,603127,/,603808,/	t,t,t,t,t,t	<img class = center src='/static/experiments/beast_fmri_test/images/V.png'></img>	71,89	2750.0	test	<img class = center src='/static/experiments/beast_fmri_test/images/redV.png'></img>	stop	1500.0	2.0	19.0	stop	non-target	V	71,Green Button	89,Yellow Button	800.0	1250.0	1950.0	1500.0	0.0	0.0	1250.0	1.0	stop_stim
86514.060052821063	983.93994717888302	n/a	1252	89	2750	983.939947179	stim	stop-signal	240	602972	0.0-13.19-1.19	beast_fmri_test	300	600407,/,601087,/,601766,/,602446,/,603127,/,603808,/	t,t,t,t,t,t	<img class = center src='/static/experiments/beast_fmri_test/images/V.png'></img>	71,89	2750.0	test	<img class = center src='/static/experiments/beast_fmri_test/images/redV.png'></img>	stop	1500.0	2.0	19.0	stop	non-target	V	71,Green Button	89,Yellow Button	800.0	1250.0	1950.0	1500.0	0.0	0.0	1250.0	1.0	ITI
88995	500	n/a	-1	-1	500	0.0	fixation	poldrack-single-stim	241	604469	0.0-13.20-0.20	beast_fmri_test	300	n/a	n/a	<div class = centerbox><div class = fixation>+</div></div>	none	500.0	test	n/a	n/a	n/a	n/a	n/a	n/a	n/a	n/a	n/a	n/a	n/a	n/a	n/a	n/a	n/a	n/a	n/a	n/a	fixation
86987.654872720712	2750	n/a	1993	71	2750	2009.34512728	stim	stop-signal	242	607221	0.0-13.20-1.20	beast_fmri_test	300	604488,/,605170,/,605848,/,606527,/,607207,/,607887,/,608567,/	t,t,t,t,t,t,t	<img class = center src='/static/experiments/beast_fmri_test/images/P.png'></img>	71,89	2750.0	test	<img class = center src='/static/experiments/beast_fmri_test/images/redP.png'></img>	go	1950.0	2.0	20.0	go	target	P	71,Green Button	89,Yellow Button	800.0	1200.0	1950.0	1500.0	1.0	n/a	800.0	1.0	go_stim
89737.654872720712	2009.34512727928	n/a	1993	71	2750	2009.34512728	stim	stop-signal	242	607221	0.0-13.20-1.20	beast_fmri_test	300	604488,/,605170,/,605848,/,606527,/,607207,/,607887,/,608567,/	t,t,t,t,t,t,t	<img class = center src='/static/experiments/beast_fmri_test/images/P.png'></img>	71,89	2750.0	test	<img class = center src='/static/experiments/beast_fmri_test/images/redP.png'></img>	go	1950.0	2.0	20.0	go	target	P	71,Green Button	89,Yellow Button	800.0	1200.0	1950.0	1500.0	1.0	n/a	800.0	1.0	ITI
94271	500	n/a	-1	-1	500	0.0	fixation	poldrack-single-stim	243	609745	0.0-13.21-0.21	beast_fmri_test	300	609247,/	t	<div class = centerbox><div class = fixation>+</div></div>	none	500.0	test	n/a	n/a	n/a	n/a	n/a	n/a	n/a	n/a	n/a	n/a	n/a	n/a	n/a	n/a	n/a	n/a	n/a	n/a	fixation
94140.255913112778	2750	n/a	1375	71	2750	132.744086887	stim	stop-signal	244	612497	0.0-13.21-1.21	beast_fmri_test	300	609927,/,610607,/,611287,/,611967,/	t,t,t,t	<img class = center src='/static/experiments/beast_fmri_test/images/V.png'></img>	71,89	2750.0	test	<img class = center src='/static/experiments/beast_fmri_test/images/redV.png'></img>	go	1950.0	2.0	21.0	go	target	V	71,Green Button	89,Yellow Button	800.0	1200.0	1950.0	1500.0	1.0	n/a	800.0	1.0	go_stim
96890.255913112778	132.744086887219	n/a	1375	71	2750	132.744086887	stim	stop-signal	244	612497	0.0-13.21-1.21	beast_fmri_test	300	609927,/,610607,/,611287,/,611967,/	t,t,t,t	<img class = center src='/static/experiments/beast_fmri_test/images/V.png'></img>	71,89	2750.0	test	<img class = center src='/static/experiments/beast_fmri_test/images/redV.png'></img>	go	1950.0	2.0	21.0	go	target	V	71,Green Button	89,Yellow Button	800.0	1200.0	1950.0	1500.0	1.0	n/a	800.0	1.0	ITI
97668	500	n/a	-1	-1	500	0.0	fixation	poldrack-single-stim	245	613142	0.0-13.22-0.22	beast_fmri_test	300	612647,/	t	<div class = centerbox><div class = fixation>+</div></div>	none	500.0	test	n/a	n/a	n/a	n/a	n/a	n/a	n/a	n/a	n/a	n/a	n/a	n/a	n/a	n/a	n/a	n/a	n/a	n/a	fixation
97377.112265858683	2750	n/a	1663	89	2750	292.887734141	stim	stop-signal	246	615894	0.0-13.22-1.22	beast_fmri_test	300	613327,/,614008,/,614687,/,615367,/,616047,/	t,t,t,t,t	<img class = center src='/static/experiments/beast_fmri_test/images/T.png'></img>	71,89	2750.0	test	<img class = center src='/static/experiments/beast_fmri_test/images/redT.png'></img>	go	1550.0	2.0	22.0	go	non-target	T	71,Green Button	89,Yellow Button	800.0	1200.0	1950.0	1550.0	1.0	n/a	1200.0	1.0	go_stim
100127.11226585868	292.88773414136801	n/a	1663	89	2750	292.887734141	stim	stop-signal	246	615894	0.0-13.22-1.22	beast_fmri_test	300	613327,/,614008,/,614687,/,615367,/,616047,/	t,t,t,t,t	<img class = center src='/static/experiments/beast_fmri_test/images/T.png'></img>	71,89	2750.0	test	<img class = center src='/static/experiments/beast_fmri_test/images/redT.png'></img>	go	1550.0	2.0	22.0	go	non-target	T	71,Green Button	89,Yellow Button	800.0	1200.0	1950.0	1550.0	1.0	n/a	1200.0	1.0	ITI
101227	500	n/a	-1	-1	500	0.0	fixation	poldrack-single-stim	247	616701	0.0-13.23-0.23	beast_fmri_test	300	n/a	n/a	<div class = centerbox><div class = fixation>+</div></div>	none	500.0	test	n/a	n/a	n/a	n/a	n/a	n/a	n/a	n/a	n/a	n/a	n/a	n/a	n/a	n/a	n/a	n/a	n/a	n/a	fixation
100660.1329761527	1200.0	n/a	-1	-1	2750	568.867023847	stim	stop-signal	248	619453	0.0-13.23-1.23	beast_fmri_test	300	616727,/,617407,/,618087,/,618767,/,619447,/	t,t,t,t,t	<img class = center src='/static/experiments/beast_fmri_test/images/D.png'></img>	71,89	2750.0	test	<img class = center src='/static/experiments/beast_fmri_test/images/redD.png'></img>	stop	1550.0	2.0	23.0	stop	non-target	D	71,Green Button	89,Yellow Button	800.0	1200.0	1950.0	1550.0	0.0	1.0	1200.0	0.0	go_stim
102210.1329761527	1550.0	n/a	-1	-1	2750	568.867023847	stim	stop-signal	248	619453	0.0-13.23-1.23	beast_fmri_test	300	616727,/,617407,/,618087,/,618767,/,619447,/	t,t,t,t,t	<img class = center src='/static/experiments/beast_fmri_test/images/D.png'></img>	71,89	2750.0	test	<img class = center src='/static/experiments/beast_fmri_test/images/redD.png'></img>	stop	1550.0	2.0	23.0	stop	non-target	D	71,Green Button	89,Yellow Button	800.0	1200.0	1950.0	1550.0	0.0	1.0	1200.0	0.0	stop_stim
103410.1329761527	568.86702384726595	n/a	-1	-1	2750	568.867023847	stim	stop-signal	248	619453	0.0-13.23-1.23	beast_fmri_test	300	616727,/,617407,/,618087,/,618767,/,619447,/	t,t,t,t,t	<img class = center src='/static/experiments/beast_fmri_test/images/D.png'></img>	71,89	2750.0	test	<img class = center src='/static/experiments/beast_fmri_test/images/redD.png'></img>	stop	1550.0	2.0	23.0	stop	non-target	D	71,Green Button	89,Yellow Button	800.0	1200.0	1950.0	1550.0	0.0	1.0	1200.0	0.0	ITI
105061	500	n/a	-1	-1	500	0.0	fixation	poldrack-single-stim	249	620535	0.0-13.24-0.24	beast_fmri_test	300	620127,/	t	<div class = centerbox><div class = fixation>+</div></div>	none	500.0	test	n/a	n/a	n/a	n/a	n/a	n/a	n/a	n/a	n/a	n/a	n/a	n/a	n/a	n/a	n/a	n/a	n/a	n/a	fixation
104745.97554644046	2750	n/a	1389	89	2750	317.024453559	stim	stop-signal	250	623287	0.0-13.24-1.24	beast_fmri_test	300	620807,/,621487,/,622167,/,622847,/,623527,/	t,t,t,t,t	<img class = center src='/static/experiments/beast_fmri_test/images/P.png'></img>	71,89	2750.0	test	<img class = center src='/static/experiments/beast_fmri_test/images/redP.png'></img>	go	1500.0	2.0	24.0	go	non-target	P	71,Green Button	89,Yellow Button	800.0	1250.0	1950.0	1500.0	1.0	n/a	1250.0	1.0	go_stim
107495.97554644046	317.02445355948697	n/a	1389	89	2750	317.024453559	stim	stop-signal	250	623287	0.0-13.24-1.24	beast_fmri_test	300	620807,/,621487,/,622167,/,622847,/,623527,/	t,t,t,t,t	<img class = center src='/static/experiments/beast_fmri_test/images/P.png'></img>	71,89	2750.0	test	<img class = center src='/static/experiments/beast_fmri_test/images/redP.png'></img>	go	1500.0	2.0	24.0	go	non-target	P	71,Green Button	89,Yellow Button	800.0	1250.0	1950.0	1500.0	1.0	n/a	1250.0	1.0	ITI
108645	500	n/a	-1	-1	500	0.0	fixation	poldrack-single-stim	251	624119	0.0-13.25-0.25	beast_fmri_test	300	n/a	n/a	<div class = centerbox><div class = fixation>+</div></div>	none	500.0	test	n/a	n/a	n/a	n/a	n/a	n/a	n/a	n/a	n/a	n/a	n/a	n/a	n/a	n/a	n/a	n/a	n/a	n/a	fixation
107925.65423378546	1250.0	n/a	-1	-1	2750	720.345766215	stim	stop-signal	252	626870	0.0-13.25-1.25	beast_fmri_test	300	624208,/,624887,/,625567,/,626247,/,626927,/	t,t,t,t,t	<img class = center src='/static/experiments/beast_fmri_test/images/V.png'></img>	71,89	2750.0	test	<img class = center src='/static/experiments/beast_fmri_test/images/redV.png'></img>	stop	1500.0	2.0	25.0	stop	non-target	V	71,Green Button	89,Yellow Button	800.0	1250.0	1950.0	1500.0	0.0	1.0	1250.0	0.0	go_stim
109425.65423378546	1500.0	n/a	-1	-1	2750	720.345766215	stim	stop-signal	252	626870	0.0-13.25-1.25	beast_fmri_test	300	624208,/,624887,/,625567,/,626247,/,626927,/	t,t,t,t,t	<img class = center src='/static/experiments/beast_fmri_test/images/V.png'></img>	71,89	2750.0	test	<img class = center src='/static/experiments/beast_fmri_test/images/redV.png'></img>	stop	1500.0	2.0	25.0	stop	non-target	V	71,Green Button	89,Yellow Button	800.0	1250.0	1950.0	1500.0	0.0	1.0	1250.0	0.0	stop_stim
110675.65423378546	720.345766214587	n/a	-1	-1	2750	720.345766215	stim	stop-signal	252	626870	0.0-13.25-1.25	beast_fmri_test	300	624208,/,624887,/,625567,/,626247,/,626927,/	t,t,t,t,t	<img class = center src='/static/experiments/beast_fmri_test/images/V.png'></img>	71,89	2750.0	test	<img class = center src='/static/experiments/beast_fmri_test/images/redV.png'></img>	stop	1500.0	2.0	25.0	stop	non-target	V	71,Green Button	89,Yellow Button	800.0	1250.0	1950.0	1500.0	0.0	1.0	1250.0	0.0	ITI
112630	500	n/a	-1	-1	500	0.0	fixation	poldrack-single-stim	253	628104	0.0-13.26-0.26	beast_fmri_test	300	627607,/	t	<div class = centerbox><div class = fixation>+</div></div>	none	500.0	test	n/a	n/a	n/a	n/a	n/a	n/a	n/a	n/a	n/a	n/a	n/a	n/a	n/a	n/a	n/a	n/a	n/a	n/a	fixation
111925.50267273874	800.0	n/a	-1	-1	2750	706.497327261	stim	stop-signal	254	630856	0.0-13.26-1.26	beast_fmri_test	300	628287,/,628967,/,629647,/,630327,/,631007,/	t,t,t,t,t	<img class = center src='/static/experiments/beast_fmri_test/images/P.png'></img>	71,89	2750.0	test	<img class = center src='/static/experiments/beast_fmri_test/images/redP.png'></img>	stop	1950.0	2.0	26.0	stop	target	P	71,Green Button	89,Yellow Button	800.0	1300.0	1950.0	1500.0	0.0	1.0	800.0	0.0	go_stim
113875.50267273874	1950.0	n/a	-1	-1	2750	706.497327261	stim	stop-signal	254	630856	0.0-13.26-1.26	beast_fmri_test	300	628287,/,628967,/,629647,/,630327,/,631007,/	t,t,t,t,t	<img class = center src='/static/experiments/beast_fmri_test/images/P.png'></img>	71,89	2750.0	test	<img class = center src='/static/experiments/beast_fmri_test/images/redP.png'></img>	stop	1950.0	2.0	26.0	stop	target	P	71,Green Button	89,Yellow Button	800.0	1300.0	1950.0	1500.0	0.0	1.0	800.0	0.0	stop_stim
114675.50267273874	706.497327261245	n/a	-1	-1	2750	706.497327261	stim	stop-signal	254	630856	0.0-13.26-1.26	beast_fmri_test	300	628287,/,628967,/,629647,/,630327,/,631007,/	t,t,t,t,t	<img class = center src='/static/experiments/beast_fmri_test/images/P.png'></img>	71,89	2750.0	test	<img class = center src='/static/experiments/beast_fmri_test/images/redP.png'></img>	stop	1950.0	2.0	26.0	stop	target	P	71,Green Button	89,Yellow Button	800.0	1300.0	1950.0	1500.0	0.0	1.0	800.0	0.0	ITI
116603	500	n/a	-1	-1	500	0.0	fixation	poldrack-single-stim	255	632077	0.0-13.27-0.27	beast_fmri_test	300	631687,/	t	<div class = centerbox><div class = fixation>+</div></div>	none	500.0	test	n/a	n/a	n/a	n/a	n/a	n/a	n/a	n/a	n/a	n/a	n/a	n/a	n/a	n/a	n/a	n/a	n/a	n/a	fixation
116435.76651191211	2750	n/a	665	71	2750	170.233488088	stim	stop-signal	256	634830	0.0-13.27-1.27	beast_fmri_test	300	632367,/,633047,/,633728,/,634408,/	t,t,t,t	<img class = center src='/static/experiments/beast_fmri_test/images/V.png'></img>	71,89	2750.0	test	<img class = center src='/static/experiments/beast_fmri_test/images/redV.png'></img>	go	1900.0	2.0	27.0	go	target	V	71,Green Button	89,Yellow Button	850.0	1300.0	1900.0	1500.0	1.0	n/a	850.0	1.0	go_stim
119185.76651191211	170.23348808784999	n/a	665	71	2750	170.233488088	stim	stop-signal	256	634830	0.0-13.27-1.27	beast_fmri_test	300	632367,/,633047,/,633728,/,634408,/	t,t,t,t	<img class = center src='/static/experiments/beast_fmri_test/images/V.png'></img>	71,89	2750.0	test	<img class = center src='/static/experiments/beast_fmri_test/images/redV.png'></img>	go	1900.0	2.0	27.0	go	target	V	71,Green Button	89,Yellow Button	850.0	1300.0	1900.0	1500.0	1.0	n/a	850.0	1.0	ITI
120039	500	n/a	-1	-1	500	0.0	fixation	poldrack-single-stim	257	635513	0.0-13.28-0.28	beast_fmri_test	300	635088,/	t	<div class = centerbox><div class = fixation>+</div></div>	none	500.0	test	n/a	n/a	n/a	n/a	n/a	n/a	n/a	n/a	n/a	n/a	n/a	n/a	n/a	n/a	n/a	n/a	n/a	n/a	fixation
118157.96231666591	1300.0	n/a	-1	-1	2750	1883.03768333	stim	stop-signal	258	638265	0.0-13.28-1.28	beast_fmri_test	300	635768,/,636448,/,637128,/,637808,/,638488,/,639168,/,639848,/	t,t,t,t,t,t,t	<img class = center src='/static/experiments/beast_fmri_test/images/B.png'></img>	71,89	2750.0	test	<img class = center src='/static/experiments/beast_fmri_test/images/redB.png'></img>	stop	1450.0	2.0	28.0	stop	non-target	B	71,Green Button	89,Yellow Button	850.0	1300.0	1900.0	1450.0	0.0	1.0	1300.0	0.0	go_stim
119607.96231666591	1450.0	n/a	-1	-1	2750	1883.03768333	stim	stop-signal	258	638265	0.0-13.28-1.28	beast_fmri_test	300	635768,/,636448,/,637128,/,637808,/,638488,/,639168,/,639848,/	t,t,t,t,t,t,t	<img class = center src='/static/experiments/beast_fmri_test/images/B.png'></img>	71,89	2750.0	test	<img class = center src='/static/experiments/beast_fmri_test/images/redB.png'></img>	stop	1450.0	2.0	28.0	stop	non-target	B	71,Green Button	89,Yellow Button	850.0	1300.0	1900.0	1450.0	0.0	1.0	1300.0	0.0	stop_stim
120907.96231666591	1883.03768333414	n/a	-1	-1	2750	1883.03768333	stim	stop-signal	258	638265	0.0-13.28-1.28	beast_fmri_test	300	635768,/,636448,/,637128,/,637808,/,638488,/,639168,/,639848,/	t,t,t,t,t,t,t	<img class = center src='/static/experiments/beast_fmri_test/images/B.png'></img>	71,89	2750.0	test	<img class = center src='/static/experiments/beast_fmri_test/images/redB.png'></img>	stop	1450.0	2.0	28.0	stop	non-target	B	71,Green Button	89,Yellow Button	850.0	1300.0	1900.0	1450.0	0.0	1.0	1300.0	0.0	ITI
125188	500	n/a	-1	-1	500	0.0	fixation	poldrack-single-stim	259	640662	0.0-13.29-0.29	beast_fmri_test	300	640528,/	t	<div class = centerbox><div class = fixation>+</div></div>	none	500.0	test	n/a	n/a	n/a	n/a	n/a	n/a	n/a	n/a	n/a	n/a	n/a	n/a	n/a	n/a	n/a	n/a	n/a	n/a	fixation
122372.70928090648	850.0	n/a	868	71	2750	2818.29071909	stim	stop-signal	260	643415	0.0-13.29-1.29	beast_fmri_test	300	641208,/,641888,/,642568,/,643248,/,643928,/,644608,/,645287,/,645967,/	t,t,t,t,t,t,t,t	<img class = center src='/static/experiments/beast_fmri_test/images/V.png'></img>	71,89	2750.0	test	<img class = center src='/static/experiments/beast_fmri_test/images/redV.png'></img>	stop	1900.0	2.0	29.0	stop	target	V	71,Green Button	89,Yellow Button	850.0	1350.0	1900.0	1450.0	0.0	0.0	850.0	1.0	go_stim
124272.70928090648	1900.0	n/a	868	71	2750	2818.29071909	stim	stop-signal	260	643415	0.0-13.29-1.29	beast_fmri_test	300	641208,/,641888,/,642568,/,643248,/,643928,/,644608,/,645287,/,645967,/	t,t,t,t,t,t,t,t	<img class = center src='/static/experiments/beast_fmri_test/images/V.png'></img>	71,89	2750.0	test	<img class = center src='/static/experiments/beast_fmri_test/images/redV.png'></img>	stop	1900.0	2.0	29.0	stop	target	V	71,Green Button	89,Yellow Button	850.0	1350.0	1900.0	1450.0	0.0	0.0	850.0	1.0	stop_stim
125122.70928090648	2818.2907190935498	n/a	868	71	2750	2818.29071909	stim	stop-signal	260	643415	0.0-13.29-1.29	beast_fmri_test	300	641208,/,641888,/,642568,/,643248,/,643928,/,644608,/,645287,/,645967,/	t,t,t,t,t,t,t,t	<img class = center src='/static/experiments/beast_fmri_test/images/V.png'></img>	71,89	2750.0	test	<img class = center src='/static/experiments/beast_fmri_test/images/redV.png'></img>	stop	1900.0	2.0	29.0	stop	target	V	71,Green Button	89,Yellow Button	850.0	1350.0	1900.0	1450.0	0.0	0.0	850.0	1.0	ITI
131273	500	n/a	-1	-1	500	0.0	fixation	poldrack-single-stim	261	646747	0.0-13.30-0.30	beast_fmri_test	300	646648,/	t	<div class = centerbox><div class = fixation>+</div></div>	none	500.0	test	n/a	n/a	n/a	n/a	n/a	n/a	n/a	n/a	n/a	n/a	n/a	n/a	n/a	n/a	n/a	n/a	n/a	n/a	fixation
130159.42036102014	800.0	n/a	786	71	2750	1116.57963898	stim	stop-signal	262	649500	0.0-13.30-1.30	beast_fmri_test	300	647327,/,648007,/,648687,/,649368,/,650048,/	t,t,t,t,t	<img class = center src='/static/experiments/beast_fmri_test/images/B.png'></img>	71,89	2750.0	test	<img class = center src='/static/experiments/beast_fmri_test/images/redB.png'></img>	stop	1950.0	2.0	30.0	stop	target	B	71,Green Button	89,Yellow Button	800.0	1350.0	1950.0	1450.0	0.0	0.0	800.0	1.0	go_stim
132109.42036102014	1950.0	n/a	786	71	2750	1116.57963898	stim	stop-signal	262	649500	0.0-13.30-1.30	beast_fmri_test	300	647327,/,648007,/,648687,/,649368,/,650048,/	t,t,t,t,t	<img class = center src='/static/experiments/beast_fmri_test/images/B.png'></img>	71,89	2750.0	test	<img class = center src='/static/experiments/beast_fmri_test/images/redB.png'></img>	stop	1950.0	2.0	30.0	stop	target	B	71,Green Button	89,Yellow Button	800.0	1350.0	1950.0	1450.0	0.0	0.0	800.0	1.0	stop_stim
132909.42036102014	1116.5796389799	n/a	786	71	2750	1116.57963898	stim	stop-signal	262	649500	0.0-13.30-1.30	beast_fmri_test	300	647327,/,648007,/,648687,/,649368,/,650048,/	t,t,t,t,t	<img class = center src='/static/experiments/beast_fmri_test/images/B.png'></img>	71,89	2750.0	test	<img class = center src='/static/experiments/beast_fmri_test/images/redB.png'></img>	stop	1950.0	2.0	30.0	stop	target	B	71,Green Button	89,Yellow Button	800.0	1350.0	1950.0	1450.0	0.0	0.0	800.0	1.0	ITI
135654	500	n/a	-1	-1	500	0.0	fixation	poldrack-single-stim	263	651128	0.0-13.31-0.31	beast_fmri_test	300	650727,/	t	<div class = centerbox><div class = fixation>+</div></div>	none	500.0	test	n/a	n/a	n/a	n/a	n/a	n/a	n/a	n/a	n/a	n/a	n/a	n/a	n/a	n/a	n/a	n/a	n/a	n/a	fixation
135468.48308925645	2750	n/a	988	71	2750	187.516910744	stim	stop-signal	264	653880	0.0-13.31-1.31	beast_fmri_test	300	651408,/,652087,/,652767,/,653448,/	t,t,t,t	<img class = center src='/static/experiments/beast_fmri_test/images/V.png'></img>	71,89	2750.0	test	<img class = center src='/static/experiments/beast_fmri_test/images/redV.png'></img>	go	2000.0	2.0	31.0	go	target	V	71,Green Button	89,Yellow Button	750.0	1350.0	2000.0	1450.0	1.0	n/a	750.0	1.0	go_stim
138218.48308925645	187.51691074359499	n/a	988	71	2750	187.516910744	stim	stop-signal	264	653880	0.0-13.31-1.31	beast_fmri_test	300	651408,/,652087,/,652767,/,653448,/	t,t,t,t	<img class = center src='/static/experiments/beast_fmri_test/images/V.png'></img>	71,89	2750.0	test	<img class = center src='/static/experiments/beast_fmri_test/images/redV.png'></img>	go	2000.0	2.0	31.0	go	target	V	71,Green Button	89,Yellow Button	750.0	1350.0	2000.0	1450.0	1.0	n/a	750.0	1.0	ITI
139108	500	n/a	-1	-1	500	0.0	fixation	poldrack-single-stim	265	654582	0.0-13.32-0.32	beast_fmri_test	300	654127,/	t	<div class = centerbox><div class = fixation>+</div></div>	none	500.0	test	n/a	n/a	n/a	n/a	n/a	n/a	n/a	n/a	n/a	n/a	n/a	n/a	n/a	n/a	n/a	n/a	n/a	n/a	fixation
137864.99146352394	1350.0	n/a	2012	89	2750	1245.00853648	stim	stop-signal	266	657334	0.0-13.32-1.32	beast_fmri_test	300	654808,/,655488,/,656168,/,656848,/,657528,/,658207,/	t,t,t,t,t,t	<img class = center src='/static/experiments/beast_fmri_test/images/V.png'></img>	71,89	2750.0	test	<img class = center src='/static/experiments/beast_fmri_test/images/redV.png'></img>	stop	1400.0	2.0	32.0	stop	non-target	V	71,Green Button	89,Yellow Button	750.0	1350.0	2000.0	1400.0	0.0	0.0	1350.0	1.0	go_stim
139264.99146352394	1400.0	n/a	2012	89	2750	1245.00853648	stim	stop-signal	266	657334	0.0-13.32-1.32	beast_fmri_test	300	654808,/,655488,/,656168,/,656848,/,657528,/,658207,/	t,t,t,t,t,t	<img class = center src='/static/experiments/beast_fmri_test/images/V.png'></img>	71,89	2750.0	test	<img class = center src='/static/experiments/beast_fmri_test/images/redV.png'></img>	stop	1400.0	2.0	32.0	stop	non-target	V	71,Green Button	89,Yellow Button	750.0	1350.0	2000.0	1400.0	0.0	0.0	1350.0	1.0	stop_stim
140614.99146352394	1245.0085364761101	n/a	2012	89	2750	1245.00853648	stim	stop-signal	266	657334	0.0-13.32-1.32	beast_fmri_test	300	654808,/,655488,/,656168,/,656848,/,657528,/,658207,/	t,t,t,t,t,t	<img class = center src='/static/experiments/beast_fmri_test/images/V.png'></img>	71,89	2750.0	test	<img class = center src='/static/experiments/beast_fmri_test/images/redV.png'></img>	stop	1400.0	2.0	32.0	stop	non-target	V	71,Green Button	89,Yellow Button	750.0	1350.0	2000.0	1400.0	0.0	0.0	1350.0	1.0	ITI
143620	500	n/a	-1	-1	500	0.0	fixation	poldrack-single-stim	267	659094	0.0-13.33-0.33	beast_fmri_test	300	658888,/	t	<div class = centerbox><div class = fixation>+</div></div>	none	500.0	test	n/a	n/a	n/a	n/a	n/a	n/a	n/a	n/a	n/a	n/a	n/a	n/a	n/a	n/a	n/a	n/a	n/a	n/a	fixation
143589.16144104814	2750	n/a	1426	89	2750	33.8385589519	stim	stop-signal	268	661847	0.0-13.33-1.33	beast_fmri_test	300	659567,/,660248,/,660927,/,661607,/	t,t,t,t	<img class = center src='/static/experiments/beast_fmri_test/images/P.png'></img>	71,89	2750.0	test	<img class = center src='/static/experiments/beast_fmri_test/images/redP.png'></img>	go	1450.0	2.0	33.0	go	non-target	P	71,Green Button	89,Yellow Button	750.0	1300.0	2000.0	1450.0	1.0	n/a	1300.0	1.0	go_stim
146339.16144104814	33.838558951853699	n/a	1426	89	2750	33.8385589519	stim	stop-signal	268	661847	0.0-13.33-1.33	beast_fmri_test	300	659567,/,660248,/,660927,/,661607,/	t,t,t,t	<img class = center src='/static/experiments/beast_fmri_test/images/P.png'></img>	71,89	2750.0	test	<img class = center src='/static/experiments/beast_fmri_test/images/redP.png'></img>	go	1450.0	2.0	33.0	go	non-target	P	71,Green Button	89,Yellow Button	750.0	1300.0	2000.0	1450.0	1.0	n/a	1300.0	1.0	ITI
146921	500	n/a	-1	-1	500	0.0	fixation	poldrack-single-stim	269	662395	0.0-13.34-0.34	beast_fmri_test	300	662288,/	t	<div class = centerbox><div class = fixation>+</div></div>	none	500.0	test	n/a	n/a	n/a	n/a	n/a	n/a	n/a	n/a	n/a	n/a	n/a	n/a	n/a	n/a	n/a	n/a	n/a	n/a	fixation
145988.3592005868	2750	n/a	1228	89	2750	934.640799413	stim	stop-signal	270	665147	0.0-13.34-1.34	beast_fmri_test	300	662967,/,663647,/,664327,/,665008,/,665687,/	t,t,t,t,t	<img class = center src='/static/experiments/beast_fmri_test/images/T.png'></img>	71,89	2750.0	test	<img class = center src='/static/experiments/beast_fmri_test/images/redT.png'></img>	go	1450.0	2.0	34.0	go	non-target	T	71,Green Button	89,Yellow Button	750.0	1300.0	2000.0	1450.0	1.0	n/a	1300.0	1.0	go_stim
148738.3592005868	934.64079941323405	n/a	1228	89	2750	934.640799413	stim	stop-signal	270	665147	0.0-13.34-1.34	beast_fmri_test	300	662967,/,663647,/,664327,/,665008,/,665687,/	t,t,t,t,t	<img class = center src='/static/experiments/beast_fmri_test/images/T.png'></img>	71,89	2750.0	test	<img class = center src='/static/experiments/beast_fmri_test/images/redT.png'></img>	go	1450.0	2.0	34.0	go	non-target	T	71,Green Button	89,Yellow Button	750.0	1300.0	2000.0	1450.0	1.0	n/a	1300.0	1.0	ITI
151121	500	n/a	-1	-1	500	0.0	fixation	poldrack-single-stim	271	666595	0.0-13.35-0.35	beast_fmri_test	300	666368,/	t	<div class = centerbox><div class = fixation>+</div></div>	none	500.0	test	n/a	n/a	n/a	n/a	n/a	n/a	n/a	n/a	n/a	n/a	n/a	n/a	n/a	n/a	n/a	n/a	n/a	n/a	fixation
150714.48483777326	2750	n/a	1207	89	2750	408.515162227	stim	stop-signal	272	669347	0.0-13.35-1.35	beast_fmri_test	300	667048,/,667728,/,668408,/,669088,/	t,t,t,t	<img class = center src='/static/experiments/beast_fmri_test/images/V.png'></img>	71,89	2750.0	test	<img class = center src='/static/experiments/beast_fmri_test/images/redV.png'></img>	go	1450.0	2.0	35.0	go	non-target	V	71,Green Button	89,Yellow Button	750.0	1300.0	2000.0	1450.0	1.0	n/a	1300.0	1.0	go_stim
153464.48483777326	408.51516222673899	n/a	1207	89	2750	408.515162227	stim	stop-signal	272	669347	0.0-13.35-1.35	beast_fmri_test	300	667048,/,667728,/,668408,/,669088,/	t,t,t,t	<img class = center src='/static/experiments/beast_fmri_test/images/V.png'></img>	71,89	2750.0	test	<img class = center src='/static/experiments/beast_fmri_test/images/redV.png'></img>	go	1450.0	2.0	35.0	go	non-target	V	71,Green Button	89,Yellow Button	750.0	1300.0	2000.0	1450.0	1.0	n/a	1300.0	1.0	ITI
154796	500	n/a	-1	-1	500	0.0	fixation	poldrack-single-stim	273	670270	0.0-13.36-0.36	beast_fmri_test	300	669768,/	t	<div class = centerbox><div class = fixation>+</div></div>	none	500.0	test	n/a	n/a	n/a	n/a	n/a	n/a	n/a	n/a	n/a	n/a	n/a	n/a	n/a	n/a	n/a	n/a	n/a	n/a	fixation
153272.95179248357	1300.0	n/a	1615	89	2750	1525.04820752	stim	stop-signal	274	673022	0.0-13.36-1.36	beast_fmri_test	300	670448,/,671128,/,671808,/,672488,/,673168,/,673848,/,674528,/	t,t,t,t,t,t,t	<img class = center src='/static/experiments/beast_fmri_test/images/P.png'></img>	71,89	2750.0	test	<img class = center src='/static/experiments/beast_fmri_test/images/redP.png'></img>	stop	1450.0	2.0	36.0	stop	non-target	P	71,Green Button	89,Yellow Button	750.0	1300.0	2000.0	1450.0	0.0	0.0	1300.0	1.0	go_stim
154722.95179248357	1450.0	n/a	1615	89	2750	1525.04820752	stim	stop-signal	274	673022	0.0-13.36-1.36	beast_fmri_test	300	670448,/,671128,/,671808,/,672488,/,673168,/,673848,/,674528,/	t,t,t,t,t,t,t	<img class = center src='/static/experiments/beast_fmri_test/images/P.png'></img>	71,89	2750.0	test	<img class = center src='/static/experiments/beast_fmri_test/images/redP.png'></img>	stop	1450.0	2.0	36.0	stop	non-target	P	71,Green Button	89,Yellow Button	750.0	1300.0	2000.0	1450.0	0.0	0.0	1300.0	1.0	stop_stim
156022.95179248357	1525.04820751642	n/a	1615	89	2750	1525.04820752	stim	stop-signal	274	673022	0.0-13.36-1.36	beast_fmri_test	300	670448,/,671128,/,671808,/,672488,/,673168,/,673848,/,674528,/	t,t,t,t,t,t,t	<img class = center src='/static/experiments/beast_fmri_test/images/P.png'></img>	71,89	2750.0	test	<img class = center src='/static/experiments/beast_fmri_test/images/redP.png'></img>	stop	1450.0	2.0	36.0	stop	non-target	P	71,Green Button	89,Yellow Button	750.0	1300.0	2000.0	1450.0	0.0	0.0	1300.0	1.0	ITI
159585	500	n/a	-1	-1	500	0.0	fixation	poldrack-single-stim	275	675059	0.0-13.37-0.37	beast_fmri_test	300	n/a	n/a	<div class = centerbox><div class = fixation>+</div></div>	none	500.0	test	n/a	n/a	n/a	n/a	n/a	n/a	n/a	n/a	n/a	n/a	n/a	n/a	n/a	n/a	n/a	n/a	n/a	n/a	fixation
159195.2612338285	750.0	n/a	-1	-1	2750	391.738766172	stim	stop-signal	276	677811	0.0-13.37-1.37	beast_fmri_test	300	675209,/,675888,/,676568,/,677248,/,677928,/	t,t,t,t,t	<img class = center src='/static/experiments/beast_fmri_test/images/V.png'></img>	71,89	2750.0	test	<img class = center src='/static/experiments/beast_fmri_test/images/redV.png'></img>	stop	2000.0	2.0	37.0	stop	target	V	71,Green Button	89,Yellow Button	750.0	1250.0	2000.0	1450.0	0.0	1.0	750.0	0.0	go_stim
161195.2612338285	2000.0	n/a	-1	-1	2750	391.738766172	stim	stop-signal	276	677811	0.0-13.37-1.37	beast_fmri_test	300	675209,/,675888,/,676568,/,677248,/,677928,/	t,t,t,t,t	<img class = center src='/static/experiments/beast_fmri_test/images/V.png'></img>	71,89	2750.0	test	<img class = center src='/static/experiments/beast_fmri_test/images/redV.png'></img>	stop	2000.0	2.0	37.0	stop	target	V	71,Green Button	89,Yellow Button	750.0	1250.0	2000.0	1450.0	0.0	1.0	750.0	0.0	stop_stim
161945.2612338285	391.73876617152399	n/a	-1	-1	2750	391.738766172	stim	stop-signal	276	677811	0.0-13.37-1.37	beast_fmri_test	300	675209,/,675888,/,676568,/,677248,/,677928,/	t,t,t,t,t	<img class = center src='/static/experiments/beast_fmri_test/images/V.png'></img>	71,89	2750.0	test	<img class = center src='/static/experiments/beast_fmri_test/images/redV.png'></img>	stop	2000.0	2.0	37.0	stop	target	V	71,Green Button	89,Yellow Button	750.0	1250.0	2000.0	1450.0	0.0	1.0	750.0	0.0	ITI
163243	500	n/a	-1	-1	500	0.0	fixation	poldrack-single-stim	277	678717	0.0-13.38-0.38	beast_fmri_test	300	678608,/	t	<div class = centerbox><div class = fixation>+</div></div>	none	500.0	test	n/a	n/a	n/a	n/a	n/a	n/a	n/a	n/a	n/a	n/a	n/a	n/a	n/a	n/a	n/a	n/a	n/a	n/a	fixation
162308.95914961281	2750	n/a	851	71	2750	936.040850387	stim	stop-signal	278	681469	0.0-13.38-1.38	beast_fmri_test	300	679288,/,679968,/,680648,/,681328,/,682008,/	t,t,t,t,t	<img class = center src='/static/experiments/beast_fmri_test/images/P.png'></img>	71,89	2750.0	test	<img class = center src='/static/experiments/beast_fmri_test/images/redP.png'></img>	go	1950.0	2.0	38.0	go	target	P	71,Green Button	89,Yellow Button	800.0	1250.0	1950.0	1450.0	1.0	n/a	800.0	1.0	go_stim
165058.95914961281	936.04085038715596	n/a	851	71	2750	936.040850387	stim	stop-signal	278	681469	0.0-13.38-1.38	beast_fmri_test	300	679288,/,679968,/,680648,/,681328,/,682008,/	t,t,t,t,t	<img class = center src='/static/experiments/beast_fmri_test/images/P.png'></img>	71,89	2750.0	test	<img class = center src='/static/experiments/beast_fmri_test/images/redP.png'></img>	go	1950.0	2.0	38.0	go	target	P	71,Green Button	89,Yellow Button	800.0	1250.0	1950.0	1450.0	1.0	n/a	800.0	1.0	ITI
167446	500	n/a	-1	-1	500	0.0	fixation	poldrack-single-stim	279	682920	0.0-13.39-0.39	beast_fmri_test	300	682688,/	t	<div class = centerbox><div class = fixation>+</div></div>	none	500.0	test	n/a	n/a	n/a	n/a	n/a	n/a	n/a	n/a	n/a	n/a	n/a	n/a	n/a	n/a	n/a	n/a	n/a	n/a	fixation
167421.61152787984	2750	n/a	1080	89	2750	26.3884721201	stim	stop-signal	280	685672	0.0-13.39-1.39	beast_fmri_test	300	683368,/,684048,/,684728,/,685409,/	t,t,t,t	<img class = center src='/static/experiments/beast_fmri_test/images/B.png'></img>	71,89	2750.0	test	<img class = center src='/static/experiments/beast_fmri_test/images/redB.png'></img>	go	1500.0	2.0	39.0	go	non-target	B	71,Green Button	89,Yellow Button	800.0	1250.0	1950.0	1500.0	1.0	n/a	1250.0	1.0	go_stim
170171.61152787984	26.3884721201091	n/a	1080	89	2750	26.3884721201	stim	stop-signal	280	685672	0.0-13.39-1.39	beast_fmri_test	300	683368,/,684048,/,684728,/,685409,/	t,t,t,t	<img class = center src='/static/experiments/beast_fmri_test/images/B.png'></img>	71,89	2750.0	test	<img class = center src='/static/experiments/beast_fmri_test/images/redB.png'></img>	go	1500.0	2.0	39.0	go	non-target	B	71,Green Button	89,Yellow Button	800.0	1250.0	1950.0	1500.0	1.0	n/a	1250.0	1.0	ITI
170739	500	n/a	-1	-1	500	0.0	fixation	poldrack-single-stim	281	686213	0.0-13.40-0.40	beast_fmri_test	300	686088,/	t	<div class = centerbox><div class = fixation>+</div></div>	none	500.0	test	n/a	n/a	n/a	n/a	n/a	n/a	n/a	n/a	n/a	n/a	n/a	n/a	n/a	n/a	n/a	n/a	n/a	n/a	fixation
170711.66255549737	1250.0	n/a	1567	89	2750	29.3374445026	stim	stop-signal	282	688965	0.0-13.40-1.40	beast_fmri_test	300	686768,/,687448,/,688128,/,688808,/	t,t,t,t	<img class = center src='/static/experiments/beast_fmri_test/images/T.png'></img>	71,89	2750.0	test	<img class = center src='/static/experiments/beast_fmri_test/images/redT.png'></img>	stop	1500.0	2.0	40.0	stop	non-target	T	71,Green Button	89,Yellow Button	800.0	1250.0	1950.0	1500.0	0.0	0.0	1250.0	1.0	go_stim
172211.66255549737	1500.0	n/a	1567	89	2750	29.3374445026	stim	stop-signal	282	688965	0.0-13.40-1.40	beast_fmri_test	300	686768,/,687448,/,688128,/,688808,/	t,t,t,t	<img class = center src='/static/experiments/beast_fmri_test/images/T.png'></img>	71,89	2750.0	test	<img class = center src='/static/experiments/beast_fmri_test/images/redT.png'></img>	stop	1500.0	2.0	40.0	stop	non-target	T	71,Green Button	89,Yellow Button	800.0	1250.0	1950.0	1500.0	0.0	0.0	1250.0	1.0	stop_stim
173461.66255549737	29.337444502600999	n/a	1567	89	2750	29.3374445026	stim	stop-signal	282	688965	0.0-13.40-1.40	beast_fmri_test	300	686768,/,687448,/,688128,/,688808,/	t,t,t,t	<img class = center src='/static/experiments/beast_fmri_test/images/T.png'></img>	71,89	2750.0	test	<img class = center src='/static/experiments/beast_fmri_test/images/redT.png'></img>	stop	1500.0	2.0	40.0	stop	non-target	T	71,Green Button	89,Yellow Button	800.0	1250.0	1950.0	1500.0	0.0	0.0	1250.0	1.0	ITI
174033	500	n/a	-1	-1	500	0.0	fixation	poldrack-single-stim	283	689507	0.0-13.41-0.41	beast_fmri_test	300	689488,/	t	<div class = centerbox><div class = fixation>+</div></div>	none	500.0	test	n/a	n/a	n/a	n/a	n/a	n/a	n/a	n/a	n/a	n/a	n/a	n/a	n/a	n/a	n/a	n/a	n/a	n/a	fixation
173566.12870854523	800.0	n/a	-1	-1	2750	468.871291455	stim	stop-signal	284	692259	0.0-13.41-1.41	beast_fmri_test	300	690168,/,690848,/,691528,/,692208,/	t,t,t,t	<img class = center src='/static/experiments/beast_fmri_test/images/B.png'></img>	71,89	2750.0	test	<img class = center src='/static/experiments/beast_fmri_test/images/redB.png'></img>	stop	1950.0	2.0	41.0	stop	target	B	71,Green Button	89,Yellow Button	800.0	1200.0	1950.0	1500.0	0.0	1.0	800.0	0.0	go_stim
175516.12870854523	1950.0	n/a	-1	-1	2750	468.871291455	stim	stop-signal	284	692259	0.0-13.41-1.41	beast_fmri_test	300	690168,/,690848,/,691528,/,692208,/	t,t,t,t	<img class = center src='/static/experiments/beast_fmri_test/images/B.png'></img>	71,89	2750.0	test	<img class = center src='/static/experiments/beast_fmri_test/images/redB.png'></img>	stop	1950.0	2.0	41.0	stop	target	B	71,Green Button	89,Yellow Button	800.0	1200.0	1950.0	1500.0	0.0	1.0	800.0	0.0	stop_stim
176316.12870854523	468.87129145479798	n/a	-1	-1	2750	468.871291455	stim	stop-signal	284	692259	0.0-13.41-1.41	beast_fmri_test	300	690168,/,690848,/,691528,/,692208,/	t,t,t,t	<img class = center src='/static/experiments/beast_fmri_test/images/B.png'></img>	71,89	2750.0	test	<img class = center src='/static/experiments/beast_fmri_test/images/redB.png'></img>	stop	1950.0	2.0	41.0	stop	target	B	71,Green Button	89,Yellow Button	800.0	1200.0	1950.0	1500.0	0.0	1.0	800.0	0.0	ITI
177766	500	n/a	-1	-1	500	0.0	fixation	poldrack-single-stim	285	693240	0.0-13.42-0.42	beast_fmri_test	300	692888,/	t	<div class = centerbox><div class = fixation>+</div></div>	none	500.0	test	n/a	n/a	n/a	n/a	n/a	n/a	n/a	n/a	n/a	n/a	n/a	n/a	n/a	n/a	n/a	n/a	n/a	n/a	fixation
175230.27563958068	2750	n/a	1217	71	2750	2537.72436042	stim	stop-signal	286	695992	0.0-13.42-1.42	beast_fmri_test	300	693568,/,694248,/,694927,/,695609,/,696288,/,696968,/,697648,/,698328,/	t,t,t,t,t,t,t,t	<img class = center src='/static/experiments/beast_fmri_test/images/T.png'></img>	71,89	2750.0	test	<img class = center src='/static/experiments/beast_fmri_test/images/redT.png'></img>	go	1900.0	2.0	42.0	go	target	T	71,Green Button	89,Yellow Button	850.0	1200.0	1900.0	1500.0	1.0	n/a	850.0	1.0	go_stim
177980.27563958068	2537.7243604193	n/a	1217	71	2750	2537.72436042	stim	stop-signal	286	695992	0.0-13.42-1.42	beast_fmri_test	300	693568,/,694248,/,694927,/,695609,/,696288,/,696968,/,697648,/,698328,/	t,t,t,t,t,t,t,t	<img class = center src='/static/experiments/beast_fmri_test/images/T.png'></img>	71,89	2750.0	test	<img class = center src='/static/experiments/beast_fmri_test/images/redT.png'></img>	go	1900.0	2.0	42.0	go	target	T	71,Green Button	89,Yellow Button	850.0	1200.0	1900.0	1500.0	1.0	n/a	850.0	1.0	ITI
183570	500	n/a	-1	-1	500	0.0	fixation	poldrack-single-stim	287	699044	0.0-13.43-0.43	beast_fmri_test	300	699008,/	t	<div class = centerbox><div class = fixation>+</div></div>	none	500.0	test	n/a	n/a	n/a	n/a	n/a	n/a	n/a	n/a	n/a	n/a	n/a	n/a	n/a	n/a	n/a	n/a	n/a	n/a	fixation
182752.31208804145	2750	n/a	1723	89	2750	820.687911959	stim	stop-signal	288	701797	0.0-13.43-1.43	beast_fmri_test	300	699688,/,700369,/,701049,/,701729,/,702409,/	t,t,t,t,t	<img class = center src='/static/experiments/beast_fmri_test/images/V.png'></img>	71,89	2750.0	test	<img class = center src='/static/experiments/beast_fmri_test/images/redV.png'></img>	go	1550.0	2.0	43.0	go	non-target	V	71,Green Button	89,Yellow Button	850.0	1200.0	1900.0	1550.0	1.0	n/a	1200.0	1.0	go_stim
185502.31208804145	820.68791195851304	n/a	1723	89	2750	820.687911959	stim	stop-signal	288	701797	0.0-13.43-1.43	beast_fmri_test	300	699688,/,700369,/,701049,/,701729,/,702409,/	t,t,t,t,t	<img class = center src='/static/experiments/beast_fmri_test/images/V.png'></img>	71,89	2750.0	test	<img class = center src='/static/experiments/beast_fmri_test/images/redV.png'></img>	go	1550.0	2.0	43.0	go	non-target	V	71,Green Button	89,Yellow Button	850.0	1200.0	1900.0	1550.0	1.0	n/a	1200.0	1.0	ITI
187657	500	n/a	-1	-1	500	0.0	fixation	poldrack-single-stim	289	703131	0.0-13.44-0.44	beast_fmri_test	300	703089,/	t	<div class = centerbox><div class = fixation>+</div></div>	none	500.0	test	n/a	n/a	n/a	n/a	n/a	n/a	n/a	n/a	n/a	n/a	n/a	n/a	n/a	n/a	n/a	n/a	n/a	n/a	fixation
186484.10986384505	2750	n/a	1611	89	2750	1174.89013615	stim	stop-signal	290	705883	0.0-13.44-1.44	beast_fmri_test	300	703769,/,704449,/,705129,/,705810,/,706489,/	t,t,t,t,t	<img class = center src='/static/experiments/beast_fmri_test/images/B.png'></img>	71,89	2750.0	test	<img class = center src='/static/experiments/beast_fmri_test/images/redB.png'></img>	go	1550.0	2.0	44.0	go	non-target	B	71,Green Button	89,Yellow Button	850.0	1200.0	1900.0	1550.0	1.0	n/a	1200.0	1.0	go_stim
189234.10986384505	1174.8901361549399	n/a	1611	89	2750	1174.89013615	stim	stop-signal	290	705883	0.0-13.44-1.44	beast_fmri_test	300	703769,/,704449,/,705129,/,705810,/,706489,/	t,t,t,t,t	<img class = center src='/static/experiments/beast_fmri_test/images/B.png'></img>	71,89	2750.0	test	<img class = center src='/static/experiments/beast_fmri_test/images/redB.png'></img>	go	1550.0	2.0	44.0	go	non-target	B	71,Green Button	89,Yellow Button	850.0	1200.0	1900.0	1550.0	1.0	n/a	1200.0	1.0	ITI
192098	500	n/a	-1	-1	500	0.0	fixation	poldrack-single-stim	291	707572	0.0-13.45-0.45	beast_fmri_test	300	707169,/	t	<div class = centerbox><div class = fixation>+</div></div>	none	500.0	test	n/a	n/a	n/a	n/a	n/a	n/a	n/a	n/a	n/a	n/a	n/a	n/a	n/a	n/a	n/a	n/a	n/a	n/a	fixation
191377.41944801563	2750	n/a	1480	89	2750	723.580551984	stim	stop-signal	292	710325	0.0-13.45-1.45	beast_fmri_test	300	707849,/,708529,/,709209,/,709888,/,710569,/	t,t,t,t,t	<img class = center src='/static/experiments/beast_fmri_test/images/B.png'></img>	71,89	2750.0	test	<img class = center src='/static/experiments/beast_fmri_test/images/redB.png'></img>	go	1550.0	2.0	45.0	go	non-target	B	71,Green Button	89,Yellow Button	850.0	1200.0	1900.0	1550.0	1.0	n/a	1200.0	1.0	go_stim
194127.41944801563	723.58055198437899	n/a	1480	89	2750	723.580551984	stim	stop-signal	292	710325	0.0-13.45-1.45	beast_fmri_test	300	707849,/,708529,/,709209,/,709888,/,710569,/	t,t,t,t,t	<img class = center src='/static/experiments/beast_fmri_test/images/B.png'></img>	71,89	2750.0	test	<img class = center src='/static/experiments/beast_fmri_test/images/redB.png'></img>	go	1550.0	2.0	45.0	go	non-target	B	71,Green Button	89,Yellow Button	850.0	1200.0	1900.0	1550.0	1.0	n/a	1200.0	1.0	ITI
196088	500	n/a	-1	-1	500	0.0	fixation	poldrack-single-stim	293	711562	0.0-13.46-0.46	beast_fmri_test	300	711249,/	t	<div class = centerbox><div class = fixation>+</div></div>	none	500.0	test	n/a	n/a	n/a	n/a	n/a	n/a	n/a	n/a	n/a	n/a	n/a	n/a	n/a	n/a	n/a	n/a	n/a	n/a	fixation
195694.35713596572	2750	n/a	779	71	2750	395.642864034	stim	stop-signal	294	714314	0.0-13.46-1.46	beast_fmri_test	300	711929,/,712609,/,713288,/,713969,/,714649,/	t,t,t,t,t	<img class = center src='/static/experiments/beast_fmri_test/images/B.png'></img>	71,89	2750.0	test	<img class = center src='/static/experiments/beast_fmri_test/images/redB.png'></img>	go	1900.0	2.0	46.0	go	target	B	71,Green Button	89,Yellow Button	850.0	1200.0	1900.0	1550.0	1.0	n/a	850.0	1.0	go_stim
198444.35713596572	395.64286403424597	n/a	779	71	2750	395.642864034	stim	stop-signal	294	714314	0.0-13.46-1.46	beast_fmri_test	300	711929,/,712609,/,713288,/,713969,/,714649,/	t,t,t,t,t	<img class = center src='/static/experiments/beast_fmri_test/images/B.png'></img>	71,89	2750.0	test	<img class = center src='/static/experiments/beast_fmri_test/images/redB.png'></img>	go	1900.0	2.0	46.0	go	target	B	71,Green Button	89,Yellow Button	850.0	1200.0	1900.0	1550.0	1.0	n/a	850.0	1.0	ITI
214251	15000	n/a	-1	-1	15000	0.0	practice-no-stop-feedback	poldrack-single-stim	295	729725	0.0-14.0	beast_fmri_test	300	715329,/,716009,/,716689,/,717369,/,718049,/,718728,/,719409,/,720089,/,720769,/,721448,/,722129,/,722809,/,723488,/,724168,/,724849,/,725529,/,726209,/,726888,/,727568,/,728248,/,728929,/,729609,/	t,t,t,t,t,t,t,t,t,t,t,t,t,t,t,t,t,t,t,t,t,t	"<div class = ""centerbox""><p class = ""center-block-text"">Your delay is 3 trials.</p><p class = center-block-text>Please wait for the scanner to start the block</p></div>"	77	15000.0	n/a	n/a	n/a	n/a	n/a	n/a	n/a	n/a	n/a	n/a	n/a	n/a	n/a	n/a	n/a	n/a	n/a	n/a	n/a	practice-no-stop-feedback
214753	500	n/a	-1	-1	500	0.0	fixation	poldrack-single-stim	296	730227	0.0-15.0-0.0	beast_fmri_test	300	n/a	n/a	<div class = centerbox><div class = fixation>+</div></div>	none	500.0	test	n/a	n/a	n/a	n/a	n/a	n/a	n/a	n/a	n/a	n/a	n/a	n/a	n/a	n/a	n/a	n/a	n/a	n/a	fixation
213973.45867617719	temp_go_duration	n/a	1037	89	2750	781.541323823	stim	stop-signal	297	732979	0.0-15.0-1.0	beast_fmri_test	300	730289,/,730968,/,731648,/,732328,/,733009,/,733689,/	t,t,t,t,t,t	<img class = center src='/static/experiments/beast_fmri_test/images/V.png'></img>	71,89	2750.0	test	<img class = center src='/static/experiments/beast_fmri_test/images/redV.png'></img>	stop	-1.0	3.0	0.0	stop	temp-non-target	V	71,Green Button	89,Yellow Button	850.0	1200.0	1900.0	1550.0	0.0	0.0	n/a	n/a	go_stim
temp-non-target	temp_stop_duration	n/a	1037	89	2750	781.541323823	stim	stop-signal	297	732979	0.0-15.0-1.0	beast_fmri_test	300	730289,/,730968,/,731648,/,732328,/,733009,/,733689,/	t,t,t,t,t,t	<img class = center src='/static/experiments/beast_fmri_test/images/V.png'></img>	71,89	2750.0	test	<img class = center src='/static/experiments/beast_fmri_test/images/redV.png'></img>	stop	-1.0	3.0	0.0	stop	temp-non-target	V	71,Green Button	89,Yellow Button	850.0	1200.0	1900.0	1550.0	0.0	0.0	n/a	n/a	stop_stim
216723.45867617719	781.54132382281898	n/a	1037	89	2750	781.541323823	stim	stop-signal	297	732979	0.0-15.0-1.0	beast_fmri_test	300	730289,/,730968,/,731648,/,732328,/,733009,/,733689,/	t,t,t,t,t,t	<img class = center src='/static/experiments/beast_fmri_test/images/V.png'></img>	71,89	2750.0	test	<img class = center src='/static/experiments/beast_fmri_test/images/redV.png'></img>	stop	-1.0	3.0	0.0	stop	temp-non-target	V	71,Green Button	89,Yellow Button	850.0	1200.0	1900.0	1550.0	0.0	0.0	n/a	n/a	ITI
218801	500	n/a	-1	-1	500	0.0	fixation	poldrack-single-stim	298	734275	0.0-15.1-0.1	beast_fmri_test	300	n/a	n/a	<div class = centerbox><div class = fixation>+</div></div>	none	500.0	test	n/a	n/a	n/a	n/a	n/a	n/a	n/a	n/a	n/a	n/a	n/a	n/a	n/a	n/a	n/a	n/a	n/a	n/a	fixation
218010.38091330358	2750	n/a	1682	89	2750	791.619086696	stim	stop-signal	299	737026	0.0-15.1-1.1	beast_fmri_test	300	734370,/,735049,/,735729,/,736410,/,737089,/,737769,/	t,t,t,t,t,t	<img class = center src='/static/experiments/beast_fmri_test/images/B.png'></img>	71,89	2750.0	test	<img class = center src='/static/experiments/beast_fmri_test/images/redB.png'></img>	go	-1.0	3.0	1.0	go	temp-non-target	B	71,Green Button	89,Yellow Button	850.0	1200.0	1900.0	1550.0	0.0	n/a	n/a	n/a	go_stim
220760.38091330358	791.61908669639001	n/a	1682	89	2750	791.619086696	stim	stop-signal	299	737026	0.0-15.1-1.1	beast_fmri_test	300	734370,/,735049,/,735729,/,736410,/,737089,/,737769,/	t,t,t,t,t,t	<img class = center src='/static/experiments/beast_fmri_test/images/B.png'></img>	71,89	2750.0	test	<img class = center src='/static/experiments/beast_fmri_test/images/redB.png'></img>	go	-1.0	3.0	1.0	go	temp-non-target	B	71,Green Button	89,Yellow Button	850.0	1200.0	1900.0	1550.0	0.0	n/a	n/a	n/a	ITI
222858	500	n/a	-1	-1	500	0.0	fixation	poldrack-single-stim	300	738332	0.0-15.2-0.2	beast_fmri_test	300	n/a	n/a	<div class = centerbox><div class = fixation>+</div></div>	none	500.0	test	n/a	n/a	n/a	n/a	n/a	n/a	n/a	n/a	n/a	n/a	n/a	n/a	n/a	n/a	n/a	n/a	n/a	n/a	fixation
222154.49048486317	temp_go_duration	n/a	1587	89	2750	705.509515137	stim	stop-signal	301	741084	0.0-15.2-1.2	beast_fmri_test	300	738449,/,739129,/,739809,/,740489,/,741169,/	t,t,t,t,t	<img class = center src='/static/experiments/beast_fmri_test/images/V.png'></img>	71,89	2750.0	test	<img class = center src='/static/experiments/beast_fmri_test/images/redV.png'></img>	stop	-1.0	3.0	2.0	stop	temp-non-target	V	71,Green Button	89,Yellow Button	850.0	1200.0	1900.0	1550.0	0.0	0.0	n/a	n/a	go_stim
temp-non-target	temp_stop_duration	n/a	1587	89	2750	705.509515137	stim	stop-signal	301	741084	0.0-15.2-1.2	beast_fmri_test	300	738449,/,739129,/,739809,/,740489,/,741169,/	t,t,t,t,t	<img class = center src='/static/experiments/beast_fmri_test/images/V.png'></img>	71,89	2750.0	test	<img class = center src='/static/experiments/beast_fmri_test/images/redV.png'></img>	stop	-1.0	3.0	2.0	stop	temp-non-target	V	71,Green Button	89,Yellow Button	850.0	1200.0	1900.0	1550.0	0.0	0.0	n/a	n/a	stop_stim
224904.49048486317	705.50951513687903	n/a	1587	89	2750	705.509515137	stim	stop-signal	301	741084	0.0-15.2-1.2	beast_fmri_test	300	738449,/,739129,/,739809,/,740489,/,741169,/	t,t,t,t,t	<img class = center src='/static/experiments/beast_fmri_test/images/V.png'></img>	71,89	2750.0	test	<img class = center src='/static/experiments/beast_fmri_test/images/redV.png'></img>	stop	-1.0	3.0	2.0	stop	temp-non-target	V	71,Green Button	89,Yellow Button	850.0	1200.0	1900.0	1550.0	0.0	0.0	n/a	n/a	ITI
226831	500	n/a	-1	-1	500	0.0	fixation	poldrack-single-stim	302	742305	0.0-15.3-0.3	beast_fmri_test	300	741849,/	t	<div class = centerbox><div class = fixation>+</div></div>	none	500.0	test	n/a	n/a	n/a	n/a	n/a	n/a	n/a	n/a	n/a	n/a	n/a	n/a	n/a	n/a	n/a	n/a	n/a	n/a	fixation
226240.73861968657	2750	n/a	1557	71	2750	592.261380313	stim	stop-signal	303	745057	0.0-15.3-1.3	beast_fmri_test	300	742529,/,743209,/,743889,/,744569,/,745249,/	t,t,t,t,t	<img class = center src='/static/experiments/beast_fmri_test/images/V.png'></img>	71,89	2750.0	test	<img class = center src='/static/experiments/beast_fmri_test/images/redV.png'></img>	go	1900.0	3.0	3.0	go	target	V	71,Green Button	89,Yellow Button	850.0	1200.0	1900.0	1550.0	1.0	n/a	850.0	1.0	go_stim
228990.73861968657	592.26138031345897	n/a	1557	71	2750	592.261380313	stim	stop-signal	303	745057	0.0-15.3-1.3	beast_fmri_test	300	742529,/,743209,/,743889,/,744569,/,745249,/	t,t,t,t,t	<img class = center src='/static/experiments/beast_fmri_test/images/V.png'></img>	71,89	2750.0	test	<img class = center src='/static/experiments/beast_fmri_test/images/redV.png'></img>	go	1900.0	3.0	3.0	go	target	V	71,Green Button	89,Yellow Button	850.0	1200.0	1900.0	1550.0	1.0	n/a	850.0	1.0	ITI
230688	500	n/a	-1	-1	500	0.0	fixation	poldrack-single-stim	304	746162	0.0-15.4-0.4	beast_fmri_test	300	745929,/	t	<div class = centerbox><div class = fixation>+</div></div>	none	500.0	test	n/a	n/a	n/a	n/a	n/a	n/a	n/a	n/a	n/a	n/a	n/a	n/a	n/a	n/a	n/a	n/a	n/a	n/a	fixation
230563.84815164004	2750	n/a	1547	89	2750	126.15184836	stim	stop-signal	305	748914	0.0-15.4-1.4	beast_fmri_test	300	746610,/,747289,/,747969,/,748649,/	t,t,t,t	<img class = center src='/static/experiments/beast_fmri_test/images/D.png'></img>	71,89	2750.0	test	<img class = center src='/static/experiments/beast_fmri_test/images/redD.png'></img>	go	1550.0	3.0	4.0	go	non-target	D	71,Green Button	89,Yellow Button	850.0	1200.0	1900.0	1550.0	1.0	n/a	1200.0	1.0	go_stim
233313.84815164004	126.151848359911	n/a	1547	89	2750	126.15184836	stim	stop-signal	305	748914	0.0-15.4-1.4	beast_fmri_test	300	746610,/,747289,/,747969,/,748649,/	t,t,t,t	<img class = center src='/static/experiments/beast_fmri_test/images/D.png'></img>	71,89	2750.0	test	<img class = center src='/static/experiments/beast_fmri_test/images/redD.png'></img>	go	1550.0	3.0	4.0	go	non-target	D	71,Green Button	89,Yellow Button	850.0	1200.0	1900.0	1550.0	1.0	n/a	1200.0	1.0	ITI
234080	500	n/a	-1	-1	500	0.0	fixation	poldrack-single-stim	306	749554	0.0-15.5-0.5	beast_fmri_test	300	749329,/	t	<div class = centerbox><div class = fixation>+</div></div>	none	500.0	test	n/a	n/a	n/a	n/a	n/a	n/a	n/a	n/a	n/a	n/a	n/a	n/a	n/a	n/a	n/a	n/a	n/a	n/a	fixation
232617.30370114977	1200.0	n/a	-1	-1	2750	1464.69629885	stim	stop-signal	307	752306	0.0-15.5-1.5	beast_fmri_test	300	750009,/,750689,/,751369,/,752049,/,752729,/,753409,/	t,t,t,t,t,t	<img class = center src='/static/experiments/beast_fmri_test/images/D.png'></img>	71,89	2750.0	test	<img class = center src='/static/experiments/beast_fmri_test/images/redD.png'></img>	stop	1550.0	3.0	5.0	stop	non-target	D	71,Green Button	89,Yellow Button	850.0	1200.0	1900.0	1550.0	0.0	1.0	1200.0	0.0	go_stim
234167.30370114977	1550.0	n/a	-1	-1	2750	1464.69629885	stim	stop-signal	307	752306	0.0-15.5-1.5	beast_fmri_test	300	750009,/,750689,/,751369,/,752049,/,752729,/,753409,/	t,t,t,t,t,t	<img class = center src='/static/experiments/beast_fmri_test/images/D.png'></img>	71,89	2750.0	test	<img class = center src='/static/experiments/beast_fmri_test/images/redD.png'></img>	stop	1550.0	3.0	5.0	stop	non-target	D	71,Green Button	89,Yellow Button	850.0	1200.0	1900.0	1550.0	0.0	1.0	1200.0	0.0	stop_stim
235367.30370114977	1464.6962988502301	n/a	-1	-1	2750	1464.69629885	stim	stop-signal	307	752306	0.0-15.5-1.5	beast_fmri_test	300	750009,/,750689,/,751369,/,752049,/,752729,/,753409,/	t,t,t,t,t,t	<img class = center src='/static/experiments/beast_fmri_test/images/D.png'></img>	71,89	2750.0	test	<img class = center src='/static/experiments/beast_fmri_test/images/redD.png'></img>	stop	1550.0	3.0	5.0	stop	non-target	D	71,Green Button	89,Yellow Button	850.0	1200.0	1900.0	1550.0	0.0	1.0	1200.0	0.0	ITI
238811	500	n/a	-1	-1	500	0.0	fixation	poldrack-single-stim	308	754285	0.0-15.6-0.6	beast_fmri_test	300	754089,/	t	<div class = centerbox><div class = fixation>+</div></div>	none	500.0	test	n/a	n/a	n/a	n/a	n/a	n/a	n/a	n/a	n/a	n/a	n/a	n/a	n/a	n/a	n/a	n/a	n/a	n/a	fixation
238520.14223259699	1250.0	n/a	-1	-1	2750	292.857767403	stim	stop-signal	309	757037	0.0-15.6-1.6	beast_fmri_test	300	754769,/,755449,/,756129,/,756810,/	t,t,t,t	<img class = center src='/static/experiments/beast_fmri_test/images/D.png'></img>	71,89	2750.0	test	<img class = center src='/static/experiments/beast_fmri_test/images/redD.png'></img>	stop	1500.0	3.0	6.0	stop	non-target	D	71,Green Button	89,Yellow Button	850.0	1250.0	1900.0	1500.0	0.0	1.0	1250.0	0.0	go_stim
240020.14223259699	1500.0	n/a	-1	-1	2750	292.857767403	stim	stop-signal	309	757037	0.0-15.6-1.6	beast_fmri_test	300	754769,/,755449,/,756129,/,756810,/	t,t,t,t	<img class = center src='/static/experiments/beast_fmri_test/images/D.png'></img>	71,89	2750.0	test	<img class = center src='/static/experiments/beast_fmri_test/images/redD.png'></img>	stop	1500.0	3.0	6.0	stop	non-target	D	71,Green Button	89,Yellow Button	850.0	1250.0	1900.0	1500.0	0.0	1.0	1250.0	0.0	stop_stim
241270.14223259699	292.85776740305602	n/a	-1	-1	2750	292.857767403	stim	stop-signal	309	757037	0.0-15.6-1.6	beast_fmri_test	300	754769,/,755449,/,756129,/,756810,/	t,t,t,t	<img class = center src='/static/experiments/beast_fmri_test/images/D.png'></img>	71,89	2750.0	test	<img class = center src='/static/experiments/beast_fmri_test/images/redD.png'></img>	stop	1500.0	3.0	6.0	stop	non-target	D	71,Green Button	89,Yellow Button	850.0	1250.0	1900.0	1500.0	0.0	1.0	1250.0	0.0	ITI
242370	500	n/a	-1	-1	500	0.0	fixation	poldrack-single-stim	310	757844	0.0-15.7-0.7	beast_fmri_test	300	757489,/	t	<div class = centerbox><div class = fixation>+</div></div>	none	500.0	test	n/a	n/a	n/a	n/a	n/a	n/a	n/a	n/a	n/a	n/a	n/a	n/a	n/a	n/a	n/a	n/a	n/a	n/a	fixation
241604.26737962791	2750	n/a	1732	89	2750	767.732620372	stim	stop-signal	311	760596	0.0-15.7-1.7	beast_fmri_test	300	758169,/,758849,/,759529,/,760209,/,760888,/	t,t,t,t,t	<img class = center src='/static/experiments/beast_fmri_test/images/D.png'></img>	71,89	2750.0	test	<img class = center src='/static/experiments/beast_fmri_test/images/redD.png'></img>	go	1900.0	3.0	7.0	go	target	D	71,Green Button	89,Yellow Button	850.0	1300.0	1900.0	1500.0	0.0	n/a	850.0	0.0	go_stim
244354.26737962791	767.73262037203494	n/a	1732	89	2750	767.732620372	stim	stop-signal	311	760596	0.0-15.7-1.7	beast_fmri_test	300	758169,/,758849,/,759529,/,760209,/,760888,/	t,t,t,t,t	<img class = center src='/static/experiments/beast_fmri_test/images/D.png'></img>	71,89	2750.0	test	<img class = center src='/static/experiments/beast_fmri_test/images/redD.png'></img>	go	1900.0	3.0	7.0	go	target	D	71,Green Button	89,Yellow Button	850.0	1300.0	1900.0	1500.0	0.0	n/a	850.0	0.0	ITI
246404	500	n/a	-1	-1	500	0.0	fixation	poldrack-single-stim	312	761878	0.0-15.8-0.8	beast_fmri_test	300	761569,/	t	<div class = centerbox><div class = fixation>+</div></div>	none	500.0	test	n/a	n/a	n/a	n/a	n/a	n/a	n/a	n/a	n/a	n/a	n/a	n/a	n/a	n/a	n/a	n/a	n/a	n/a	fixation
246260.04030048114	1300.0	n/a	-1	-1	2750	145.959699519	stim	stop-signal	313	764630	0.0-15.8-1.8	beast_fmri_test	300	762249,/,762929,/,763609,/,764290,/	t,t,t,t	<img class = center src='/static/experiments/beast_fmri_test/images/T.png'></img>	71,89	2750.0	test	<img class = center src='/static/experiments/beast_fmri_test/images/redT.png'></img>	stop	1450.0	3.0	8.0	stop	non-target	T	71,Green Button	89,Yellow Button	850.0	1300.0	1900.0	1450.0	0.0	1.0	1300.0	0.0	go_stim
247710.04030048114	1450.0	n/a	-1	-1	2750	145.959699519	stim	stop-signal	313	764630	0.0-15.8-1.8	beast_fmri_test	300	762249,/,762929,/,763609,/,764290,/	t,t,t,t	<img class = center src='/static/experiments/beast_fmri_test/images/T.png'></img>	71,89	2750.0	test	<img class = center src='/static/experiments/beast_fmri_test/images/redT.png'></img>	stop	1450.0	3.0	8.0	stop	non-target	T	71,Green Button	89,Yellow Button	850.0	1300.0	1900.0	1450.0	0.0	1.0	1300.0	0.0	stop_stim
249010.04030048114	145.959699518859	n/a	-1	-1	2750	145.959699519	stim	stop-signal	313	764630	0.0-15.8-1.8	beast_fmri_test	300	762249,/,762929,/,763609,/,764290,/	t,t,t,t	<img class = center src='/static/experiments/beast_fmri_test/images/T.png'></img>	71,89	2750.0	test	<img class = center src='/static/experiments/beast_fmri_test/images/redT.png'></img>	stop	1450.0	3.0	8.0	stop	non-target	T	71,Green Button	89,Yellow Button	850.0	1300.0	1900.0	1450.0	0.0	1.0	1300.0	0.0	ITI
249816	500	n/a	-1	-1	500	0.0	fixation	poldrack-single-stim	314	765290	0.0-15.9-0.9	beast_fmri_test	300	764970,/	t	<div class = centerbox><div class = fixation>+</div></div>	none	500.0	test	n/a	n/a	n/a	n/a	n/a	n/a	n/a	n/a	n/a	n/a	n/a	n/a	n/a	n/a	n/a	n/a	n/a	n/a	fixation
249249.09246839792	2750	n/a	1534	89	2750	568.907531602	stim	stop-signal	315	768042	0.0-15.9-1.9	beast_fmri_test	300	765650,/,766330,/,767010,/,767689,/,768370,/	t,t,t,t,t	<img class = center src='/static/experiments/beast_fmri_test/images/T.png'></img>	71,89	2750.0	test	<img class = center src='/static/experiments/beast_fmri_test/images/redT.png'></img>	go	1400.0	3.0	9.0	go	non-target	T	71,Green Button	89,Yellow Button	850.0	1350.0	1900.0	1400.0	1.0	n/a	1350.0	1.0	go_stim
251999.09246839792	568.90753160209897	n/a	1534	89	2750	568.907531602	stim	stop-signal	315	768042	0.0-15.9-1.9	beast_fmri_test	300	765650,/,766330,/,767010,/,767689,/,768370,/	t,t,t,t,t	<img class = center src='/static/experiments/beast_fmri_test/images/T.png'></img>	71,89	2750.0	test	<img class = center src='/static/experiments/beast_fmri_test/images/redT.png'></img>	go	1400.0	3.0	9.0	go	non-target	T	71,Green Button	89,Yellow Button	850.0	1350.0	1900.0	1400.0	1.0	n/a	1350.0	1.0	ITI
253651	500	n/a	-1	-1	500	0.0	fixation	poldrack-single-stim	316	769125	0.0-15.10-0.10	beast_fmri_test	300	769049,/	t	<div class = centerbox><div class = fixation>+</div></div>	none	500.0	test	n/a	n/a	n/a	n/a	n/a	n/a	n/a	n/a	n/a	n/a	n/a	n/a	n/a	n/a	n/a	n/a	n/a	n/a	fixation
252681.7846243052	1350.0	n/a	-1	-1	2750	970.215375695	stim	stop-signal	317	771876	0.0-15.10-1.10	beast_fmri_test	300	769730,/,770410,/,771090,/,771769,/,772450,/	t,t,t,t,t	<img class = center src='/static/experiments/beast_fmri_test/images/V.png'></img>	71,89	2750.0	test	<img class = center src='/static/experiments/beast_fmri_test/images/redV.png'></img>	stop	1400.0	3.0	10.0	stop	non-target	V	71,Green Button	89,Yellow Button	850.0	1350.0	1900.0	1400.0	0.0	1.0	1350.0	0.0	go_stim
254081.7846243052	1400.0	n/a	-1	-1	2750	970.215375695	stim	stop-signal	317	771876	0.0-15.10-1.10	beast_fmri_test	300	769730,/,770410,/,771090,/,771769,/,772450,/	t,t,t,t,t	<img class = center src='/static/experiments/beast_fmri_test/images/V.png'></img>	71,89	2750.0	test	<img class = center src='/static/experiments/beast_fmri_test/images/redV.png'></img>	stop	1400.0	3.0	10.0	stop	non-target	V	71,Green Button	89,Yellow Button	850.0	1350.0	1900.0	1400.0	0.0	1.0	1350.0	0.0	stop_stim
255431.7846243052	970.21537569482302	n/a	-1	-1	2750	970.215375695	stim	stop-signal	317	771876	0.0-15.10-1.10	beast_fmri_test	300	769730,/,770410,/,771090,/,771769,/,772450,/	t,t,t,t,t	<img class = center src='/static/experiments/beast_fmri_test/images/V.png'></img>	71,89	2750.0	test	<img class = center src='/static/experiments/beast_fmri_test/images/redV.png'></img>	stop	1400.0	3.0	10.0	stop	non-target	V	71,Green Button	89,Yellow Button	850.0	1350.0	1900.0	1400.0	0.0	1.0	1350.0	0.0	ITI
257886	500	n/a	-1	-1	500	0.0	fixation	poldrack-single-stim	318	773360	0.0-15.11-0.11	beast_fmri_test	300	773130,/	t	<div class = centerbox><div class = fixation>+</div></div>	none	500.0	test	n/a	n/a	n/a	n/a	n/a	n/a	n/a	n/a	n/a	n/a	n/a	n/a	n/a	n/a	n/a	n/a	n/a	n/a	fixation
253561.25711028266	2750	n/a	1142	71	2750	4327.74288972	stim	stop-signal	319	776113	0.0-15.11-1.11	beast_fmri_test	300	773810,/,774490,/,775170,/,775850,/,776530,/,777210,/,777890,/,778569,/,779250,/,779930,/	t,t,t,t,t,t,t,t,t,t	<img class = center src='/static/experiments/beast_fmri_test/images/T.png'></img>	71,89	2750.0	test	<img class = center src='/static/experiments/beast_fmri_test/images/redT.png'></img>	go	1900.0	3.0	11.0	go	target	T	71,Green Button	89,Yellow Button	850.0	1400.0	1900.0	1400.0	1.0	n/a	850.0	1.0	go_stim
256311.25711028266	4327.7428897173904	n/a	1142	71	2750	4327.74288972	stim	stop-signal	319	776113	0.0-15.11-1.11	beast_fmri_test	300	773810,/,774490,/,775170,/,775850,/,776530,/,777210,/,777890,/,778569,/,779250,/,779930,/	t,t,t,t,t,t,t,t,t,t	<img class = center src='/static/experiments/beast_fmri_test/images/T.png'></img>	71,89	2750.0	test	<img class = center src='/static/experiments/beast_fmri_test/images/redT.png'></img>	go	1900.0	3.0	11.0	go	target	T	71,Green Button	89,Yellow Button	850.0	1400.0	1900.0	1400.0	1.0	n/a	850.0	1.0	ITI
265479	500	n/a	-1	-1	500	0.0	fixation	poldrack-single-stim	320	780953	0.0-15.12-0.12	beast_fmri_test	300	780610,/	t	<div class = centerbox><div class = fixation>+</div></div>	none	500.0	test	n/a	n/a	n/a	n/a	n/a	n/a	n/a	n/a	n/a	n/a	n/a	n/a	n/a	n/a	n/a	n/a	n/a	n/a	fixation
264792.43391595781	2750	n/a	1772	89	2750	688.566084042	stim	stop-signal	321	783705	0.0-15.12-1.12	beast_fmri_test	300	781290,/,781970,/,782649,/,783329,/,784009,/	t,t,t,t,t	<img class = center src='/static/experiments/beast_fmri_test/images/B.png'></img>	71,89	2750.0	test	<img class = center src='/static/experiments/beast_fmri_test/images/redB.png'></img>	go	1350.0	3.0	12.0	go	non-target	B	71,Green Button	89,Yellow Button	850.0	1400.0	1900.0	1350.0	1.0	n/a	1400.0	1.0	go_stim
267542.43391595781	688.56608404215694	n/a	1772	89	2750	688.566084042	stim	stop-signal	321	783705	0.0-15.12-1.12	beast_fmri_test	300	781290,/,781970,/,782649,/,783329,/,784009,/	t,t,t,t,t	<img class = center src='/static/experiments/beast_fmri_test/images/B.png'></img>	71,89	2750.0	test	<img class = center src='/static/experiments/beast_fmri_test/images/redB.png'></img>	go	1350.0	3.0	12.0	go	non-target	B	71,Green Button	89,Yellow Button	850.0	1400.0	1900.0	1350.0	1.0	n/a	1400.0	1.0	ITI
269433	500	n/a	-1	-1	500	0.0	fixation	poldrack-single-stim	322	784907	0.0-15.13-0.13	beast_fmri_test	300	784690,/	t	<div class = centerbox><div class = fixation>+</div></div>	none	500.0	test	n/a	n/a	n/a	n/a	n/a	n/a	n/a	n/a	n/a	n/a	n/a	n/a	n/a	n/a	n/a	n/a	n/a	n/a	fixation
269067.39400361979	1400.0	n/a	-1	-1	2750	367.60599638	stim	stop-signal	323	787659	0.0-15.13-1.13	beast_fmri_test	300	785369,/,786049,/,786729,/,787410,/	t,t,t,t	<img class = center src='/static/experiments/beast_fmri_test/images/B.png'></img>	71,89	2750.0	test	<img class = center src='/static/experiments/beast_fmri_test/images/redB.png'></img>	stop	1350.0	3.0	13.0	stop	non-target	B	71,Green Button	89,Yellow Button	850.0	1400.0	1900.0	1350.0	0.0	1.0	1400.0	0.0	go_stim
270417.39400361979	1350.0	n/a	-1	-1	2750	367.60599638	stim	stop-signal	323	787659	0.0-15.13-1.13	beast_fmri_test	300	785369,/,786049,/,786729,/,787410,/	t,t,t,t	<img class = center src='/static/experiments/beast_fmri_test/images/B.png'></img>	71,89	2750.0	test	<img class = center src='/static/experiments/beast_fmri_test/images/redB.png'></img>	stop	1350.0	3.0	13.0	stop	non-target	B	71,Green Button	89,Yellow Button	850.0	1400.0	1900.0	1350.0	0.0	1.0	1400.0	0.0	stop_stim
271817.39400361979	367.60599638024303	n/a	-1	-1	2750	367.60599638	stim	stop-signal	323	787659	0.0-15.13-1.13	beast_fmri_test	300	785369,/,786049,/,786729,/,787410,/	t,t,t,t	<img class = center src='/static/experiments/beast_fmri_test/images/B.png'></img>	71,89	2750.0	test	<img class = center src='/static/experiments/beast_fmri_test/images/redB.png'></img>	stop	1350.0	3.0	13.0	stop	non-target	B	71,Green Button	89,Yellow Button	850.0	1400.0	1900.0	1350.0	0.0	1.0	1400.0	0.0	ITI
273066	500	n/a	-1	-1	500	0.0	fixation	poldrack-single-stim	324	788540	0.0-15.14-0.14	beast_fmri_test	300	788090,/	t	<div class = centerbox><div class = fixation>+</div></div>	none	500.0	test	n/a	n/a	n/a	n/a	n/a	n/a	n/a	n/a	n/a	n/a	n/a	n/a	n/a	n/a	n/a	n/a	n/a	n/a	fixation
272656.83551452321	850.0	n/a	-1	-1	2750	412.164485477	stim	stop-signal	325	791293	0.0-15.14-1.14	beast_fmri_test	300	788770,/,789450,/,790129,/,790809,/,791489,/	t,t,t,t,t	<img class = center src='/static/experiments/beast_fmri_test/images/T.png'></img>	71,89	2750.0	test	<img class = center src='/static/experiments/beast_fmri_test/images/redT.png'></img>	stop	1900.0	3.0	14.0	stop	target	T	71,Green Button	89,Yellow Button	850.0	1450.0	1900.0	1350.0	0.0	1.0	850.0	0.0	go_stim
274556.83551452321	1900.0	n/a	-1	-1	2750	412.164485477	stim	stop-signal	325	791293	0.0-15.14-1.14	beast_fmri_test	300	788770,/,789450,/,790129,/,790809,/,791489,/	t,t,t,t,t	<img class = center src='/static/experiments/beast_fmri_test/images/T.png'></img>	71,89	2750.0	test	<img class = center src='/static/experiments/beast_fmri_test/images/redT.png'></img>	stop	1900.0	3.0	14.0	stop	target	T	71,Green Button	89,Yellow Button	850.0	1450.0	1900.0	1350.0	0.0	1.0	850.0	0.0	stop_stim
275406.83551452321	412.16448547676902	n/a	-1	-1	2750	412.164485477	stim	stop-signal	325	791293	0.0-15.14-1.14	beast_fmri_test	300	788770,/,789450,/,790129,/,790809,/,791489,/	t,t,t,t,t	<img class = center src='/static/experiments/beast_fmri_test/images/T.png'></img>	71,89	2750.0	test	<img class = center src='/static/experiments/beast_fmri_test/images/redT.png'></img>	stop	1900.0	3.0	14.0	stop	target	T	71,Green Button	89,Yellow Button	850.0	1450.0	1900.0	1350.0	0.0	1.0	850.0	0.0	ITI
276745	500	n/a	-1	-1	500	0.0	fixation	poldrack-single-stim	326	792219	0.0-15.15-0.15	beast_fmri_test	300	792169,/	t	<div class = centerbox><div class = fixation>+</div></div>	none	500.0	test	n/a	n/a	n/a	n/a	n/a	n/a	n/a	n/a	n/a	n/a	n/a	n/a	n/a	n/a	n/a	n/a	n/a	n/a	fixation
276194.59470937168	900.0	n/a	-1	-1	2750	552.405290628	stim	stop-signal	327	794971	0.0-15.15-1.15	beast_fmri_test	300	792849,/,793529,/,794209,/,794889,/	t,t,t,t	<img class = center src='/static/experiments/beast_fmri_test/images/B.png'></img>	71,89	2750.0	test	<img class = center src='/static/experiments/beast_fmri_test/images/redB.png'></img>	stop	1850.0	3.0	15.0	stop	target	B	71,Green Button	89,Yellow Button	900.0	1450.0	1850.0	1350.0	0.0	1.0	900.0	0.0	go_stim
278044.59470937168	1850.0	n/a	-1	-1	2750	552.405290628	stim	stop-signal	327	794971	0.0-15.15-1.15	beast_fmri_test	300	792849,/,793529,/,794209,/,794889,/	t,t,t,t	<img class = center src='/static/experiments/beast_fmri_test/images/B.png'></img>	71,89	2750.0	test	<img class = center src='/static/experiments/beast_fmri_test/images/redB.png'></img>	stop	1850.0	3.0	15.0	stop	target	B	71,Green Button	89,Yellow Button	900.0	1450.0	1850.0	1350.0	0.0	1.0	900.0	0.0	stop_stim
278944.59470937168	552.40529062826295	n/a	-1	-1	2750	552.405290628	stim	stop-signal	327	794971	0.0-15.15-1.15	beast_fmri_test	300	792849,/,793529,/,794209,/,794889,/	t,t,t,t	<img class = center src='/static/experiments/beast_fmri_test/images/B.png'></img>	71,89	2750.0	test	<img class = center src='/static/experiments/beast_fmri_test/images/redB.png'></img>	stop	1850.0	3.0	15.0	stop	target	B	71,Green Button	89,Yellow Button	900.0	1450.0	1850.0	1350.0	0.0	1.0	900.0	0.0	ITI
280565	500	n/a	-1	-1	500	0.0	fixation	poldrack-single-stim	328	796039	0.0-15.16-0.16	beast_fmri_test	300	795569,/	t	<div class = centerbox><div class = fixation>+</div></div>	none	500.0	test	n/a	n/a	n/a	n/a	n/a	n/a	n/a	n/a	n/a	n/a	n/a	n/a	n/a	n/a	n/a	n/a	n/a	n/a	fixation
277907.82617539563	2750	n/a	1677	89	2750	2659.1738246	stim	stop-signal	329	798791	0.0-15.16-1.16	beast_fmri_test	300	796249,/,796930,/,797611,/,798290,/,798970,/,799650,/,800330,/,801010,/	t,t,t,t,t,t,t,t	<img class = center src='/static/experiments/beast_fmri_test/images/D.png'></img>	71,89	2750.0	test	<img class = center src='/static/experiments/beast_fmri_test/images/redD.png'></img>	go	1300.0	3.0	16.0	go	non-target	D	71,Green Button	89,Yellow Button	950.0	1450.0	1850.0	1300.0	1.0	n/a	1450.0	1.0	go_stim
280657.82617539563	2659.1738246043801	n/a	1677	89	2750	2659.1738246	stim	stop-signal	329	798791	0.0-15.16-1.16	beast_fmri_test	300	796249,/,796930,/,797611,/,798290,/,798970,/,799650,/,800330,/,801010,/	t,t,t,t,t,t,t,t	<img class = center src='/static/experiments/beast_fmri_test/images/D.png'></img>	71,89	2750.0	test	<img class = center src='/static/experiments/beast_fmri_test/images/redD.png'></img>	go	1300.0	3.0	16.0	go	non-target	D	71,Green Button	89,Yellow Button	950.0	1450.0	1850.0	1300.0	1.0	n/a	1450.0	1.0	ITI
286493	500	n/a	-1	-1	500	0.0	fixation	poldrack-single-stim	330	801967	0.0-15.17-0.17	beast_fmri_test	300	801690,/	t	<div class = centerbox><div class = fixation>+</div></div>	none	500.0	test	n/a	n/a	n/a	n/a	n/a	n/a	n/a	n/a	n/a	n/a	n/a	n/a	n/a	n/a	n/a	n/a	n/a	n/a	fixation
286494.19730438828	2750	n/a	1854	89	2750	0.802695611763	stim	stop-signal	331	804719	0.0-15.17-1.17	beast_fmri_test	300	802370,/,803050,/,803730,/,804410,/	t,t,t,t	<img class = center src='/static/experiments/beast_fmri_test/images/B.png'></img>	71,89	2750.0	test	<img class = center src='/static/experiments/beast_fmri_test/images/redB.png'></img>	go	1300.0	3.0	17.0	go	non-target	B	71,Green Button	89,Yellow Button	950.0	1450.0	1850.0	1300.0	1.0	n/a	1450.0	1.0	go_stim
289244.19730438828	0.80269561176255999	n/a	1854	89	2750	0.802695611763	stim	stop-signal	331	804719	0.0-15.17-1.17	beast_fmri_test	300	802370,/,803050,/,803730,/,804410,/	t,t,t,t	<img class = center src='/static/experiments/beast_fmri_test/images/B.png'></img>	71,89	2750.0	test	<img class = center src='/static/experiments/beast_fmri_test/images/redB.png'></img>	go	1300.0	3.0	17.0	go	non-target	B	71,Green Button	89,Yellow Button	950.0	1450.0	1850.0	1300.0	1.0	n/a	1450.0	1.0	ITI
289760	500	n/a	-1	-1	500	0.0	fixation	poldrack-single-stim	332	805234	0.0-15.18-0.18	beast_fmri_test	300	805090,/	t	<div class = centerbox><div class = fixation>+</div></div>	none	500.0	test	n/a	n/a	n/a	n/a	n/a	n/a	n/a	n/a	n/a	n/a	n/a	n/a	n/a	n/a	n/a	n/a	n/a	n/a	fixation
287220.91741771111	2750	n/a	2121	89	2750	2541.08258229	stim	stop-signal	333	807986	0.0-15.18-1.18	beast_fmri_test	300	805770,/,806450,/,807130,/,807811,/,808490,/,809170,/,809850,/	t,t,t,t,t,t,t	<img class = center src='/static/experiments/beast_fmri_test/images/T.png'></img>	71,89	2750.0	test	<img class = center src='/static/experiments/beast_fmri_test/images/redT.png'></img>	go	1300.0	3.0	18.0	go	non-target	T	71,Green Button	89,Yellow Button	950.0	1450.0	1850.0	1300.0	1.0	n/a	1450.0	1.0	go_stim
289970.91741771111	2541.0825822888401	n/a	2121	89	2750	2541.08258229	stim	stop-signal	333	807986	0.0-15.18-1.18	beast_fmri_test	300	805770,/,806450,/,807130,/,807811,/,808490,/,809170,/,809850,/	t,t,t,t,t,t,t	<img class = center src='/static/experiments/beast_fmri_test/images/T.png'></img>	71,89	2750.0	test	<img class = center src='/static/experiments/beast_fmri_test/images/redT.png'></img>	go	1300.0	3.0	18.0	go	non-target	T	71,Green Button	89,Yellow Button	950.0	1450.0	1850.0	1300.0	1.0	n/a	1450.0	1.0	ITI
295569	500	n/a	-1	-1	500	0.0	fixation	poldrack-single-stim	334	811043	0.0-15.19-0.19	beast_fmri_test	300	810542,/	t	<div class = centerbox><div class = fixation>+</div></div>	none	500.0	test	n/a	n/a	n/a	n/a	n/a	n/a	n/a	n/a	n/a	n/a	n/a	n/a	n/a	n/a	n/a	n/a	n/a	n/a	fixation
295436.74871571688	950.0	n/a	-1	-1	2750	134.251284283	stim	stop-signal	335	813795	0.0-15.19-1.19	beast_fmri_test	300	811210,/,811890,/,812570,/,813250,/,813930,/	t,t,t,t,t	<img class = center src='/static/experiments/beast_fmri_test/images/D.png'></img>	71,89	2750.0	test	<img class = center src='/static/experiments/beast_fmri_test/images/redD.png'></img>	stop	1800.0	3.0	19.0	stop	target	D	71,Green Button	89,Yellow Button	950.0	1450.0	1800.0	1300.0	0.0	1.0	950.0	0.0	go_stim
297236.74871571688	1800.0	n/a	-1	-1	2750	134.251284283	stim	stop-signal	335	813795	0.0-15.19-1.19	beast_fmri_test	300	811210,/,811890,/,812570,/,813250,/,813930,/	t,t,t,t,t	<img class = center src='/static/experiments/beast_fmri_test/images/D.png'></img>	71,89	2750.0	test	<img class = center src='/static/experiments/beast_fmri_test/images/redD.png'></img>	stop	1800.0	3.0	19.0	stop	target	D	71,Green Button	89,Yellow Button	950.0	1450.0	1800.0	1300.0	0.0	1.0	950.0	0.0	stop_stim
298186.74871571688	134.251284283111	n/a	-1	-1	2750	134.251284283	stim	stop-signal	335	813795	0.0-15.19-1.19	beast_fmri_test	300	811210,/,811890,/,812570,/,813250,/,813930,/	t,t,t,t,t	<img class = center src='/static/experiments/beast_fmri_test/images/D.png'></img>	71,89	2750.0	test	<img class = center src='/static/experiments/beast_fmri_test/images/redD.png'></img>	stop	1800.0	3.0	19.0	stop	target	D	71,Green Button	89,Yellow Button	950.0	1450.0	1800.0	1300.0	0.0	1.0	950.0	0.0	ITI
298969	500	n/a	-1	-1	500	0.0	fixation	poldrack-single-stim	336	814443	0.0-15.20-0.20	beast_fmri_test	300	n/a	n/a	<div class = centerbox><div class = fixation>+</div></div>	none	500.0	test	n/a	n/a	n/a	n/a	n/a	n/a	n/a	n/a	n/a	n/a	n/a	n/a	n/a	n/a	n/a	n/a	n/a	n/a	fixation
298441.08709664829	1450.0	n/a	-1	-1	2750	529.912903352	stim	stop-signal	337	817195	0.0-15.20-1.20	beast_fmri_test	300	814610,/,815290,/,815970,/,816650,/,817330,/	t,t,t,t,t	<img class = center src='/static/experiments/beast_fmri_test/images/T.png'></img>	71,89	2750.0	test	<img class = center src='/static/experiments/beast_fmri_test/images/redT.png'></img>	stop	1300.0	3.0	20.0	stop	non-target	T	71,Green Button	89,Yellow Button	1000.0	1450.0	1800.0	1300.0	0.0	1.0	1450.0	0.0	go_stim
299741.08709664829	1300.0	n/a	-1	-1	2750	529.912903352	stim	stop-signal	337	817195	0.0-15.20-1.20	beast_fmri_test	300	814610,/,815290,/,815970,/,816650,/,817330,/	t,t,t,t,t	<img class = center src='/static/experiments/beast_fmri_test/images/T.png'></img>	71,89	2750.0	test	<img class = center src='/static/experiments/beast_fmri_test/images/redT.png'></img>	stop	1300.0	3.0	20.0	stop	non-target	T	71,Green Button	89,Yellow Button	1000.0	1450.0	1800.0	1300.0	0.0	1.0	1450.0	0.0	stop_stim
301191.08709664829	529.91290335171004	n/a	-1	-1	2750	529.912903352	stim	stop-signal	337	817195	0.0-15.20-1.20	beast_fmri_test	300	814610,/,815290,/,815970,/,816650,/,817330,/	t,t,t,t,t	<img class = center src='/static/experiments/beast_fmri_test/images/T.png'></img>	71,89	2750.0	test	<img class = center src='/static/experiments/beast_fmri_test/images/redT.png'></img>	stop	1300.0	3.0	20.0	stop	non-target	T	71,Green Button	89,Yellow Button	1000.0	1450.0	1800.0	1300.0	0.0	1.0	1450.0	0.0	ITI
302767	500	n/a	-1	-1	500	0.0	fixation	poldrack-single-stim	338	818241	0.0-15.21-0.21	beast_fmri_test	300	818010,/	t	<div class = centerbox><div class = fixation>+</div></div>	none	500.0	test	n/a	n/a	n/a	n/a	n/a	n/a	n/a	n/a	n/a	n/a	n/a	n/a	n/a	n/a	n/a	n/a	n/a	n/a	fixation
