onset	duration	text	rt	key_press	block_duration	timing_post_trial	trial_id	trial_type	trial_index	time_elapsed	internal_node_id	exp_id	subject_id	trigger_times	triggers	stimulus	possible_responses	stim_duration	exp_stage	SS_stimulus	SS_trial_type	SS_duration	load	trial_num	stop_trial_type	adaptive_trial_type	stim	yes_response_key	no_response_key	SSD_target	SSD_non_target	SSTarget	SSNonTarget	go_acc	stop_acc	SS_delay	adaptive_acc	new_trial_type
test	10880	n/a	-1	-1	10880	0.0	practice-no-stop-feedback	poldrack-single-stim	588	1471471	0.0-24.0	beast_fmri_test	300	1460590,/,1461268,/,1461948,/,1462629,/,1463309,/,1463989,/,1464669,/,1465349,/,1466029,/,1466709,/,1467389,/,1468069,/,1468749,/,1469430,/,1470110,/,1470790,/,1471470,/	t,t,t,t,t,t,t,t,t,t,t,t,t,t,t,t,t	"<div class = ""centerbox""><p class = ""center-block-text"">Your delay is 3 trials.</p><p class = center-block-text>Please wait for the scanner to start the block</p></div>"	77	10880.0	n/a	n/a	n/a	n/a	n/a	n/a	n/a	n/a	n/a	n/a	n/a	n/a	n/a	n/a	n/a	n/a	n/a	n/a	n/a	start_functional_block
11383	500	n/a	-1	-1	500	0.0	fixation	poldrack-single-stim	589	1471973	0.0-25.0-0.0	beast_fmri_test	300	n/a	n/a	<div class = centerbox><div class = fixation>+</div></div>	none	500.0	test	n/a	n/a	n/a	n/a	n/a	n/a	n/a	n/a	n/a	n/a	n/a	n/a	n/a	n/a	n/a	n/a	n/a	n/a	fixation
10205.711778368568	2750	n/a	1201	89	2750	1179.28822163	stim	stop-signal	590	1474725	0.0-25.0-1.0	beast_fmri_test	300	1472150,/,1472830,/,1473509,/,1474189,/,1474870,/,1475549,/	t,t,t,t,t,t	<img class = center src='/static/experiments/beast_fmri_test/images/P.png'></img>	71,89	2750.0	test	<img class = center src='/static/experiments/beast_fmri_test/images/redP.png'></img>	go	-1.0	3.0	0.0	go	temp-non-target	P	71,Green Button	89,Yellow Button	1100.0	1200.0	1600.0	1500.0	0.0	n/a	n/a	n/a	go_stim
12955.711778368568	1179.2882216314899	n/a	1201	89	2750	1179.28822163	stim	stop-signal	590	1474725	0.0-25.0-1.0	beast_fmri_test	300	1472150,/,1472830,/,1473509,/,1474189,/,1474870,/,1475549,/	t,t,t,t,t,t	<img class = center src='/static/experiments/beast_fmri_test/images/P.png'></img>	71,89	2750.0	test	<img class = center src='/static/experiments/beast_fmri_test/images/redP.png'></img>	go	-1.0	3.0	0.0	go	temp-non-target	P	71,Green Button	89,Yellow Button	1100.0	1200.0	1600.0	1500.0	0.0	n/a	n/a	n/a	ITI
15837	500	n/a	-1	-1	500	0.0	fixation	poldrack-single-stim	591	1476427	0.0-25.1-0.1	beast_fmri_test	300	1476230,/	t	<div class = centerbox><div class = fixation>+</div></div>	none	500.0	test	n/a	n/a	n/a	n/a	n/a	n/a	n/a	n/a	n/a	n/a	n/a	n/a	n/a	n/a	n/a	n/a	n/a	n/a	fixation
15193.95679931459	temp_go_duration	n/a	1347	89	2750	645.043200685	stim	stop-signal	592	1479179	0.0-25.1-1.1	beast_fmri_test	300	1476910,/,1477590,/,1478270,/,1478949,/,1479629,/	t,t,t,t,t	<img class = center src='/static/experiments/beast_fmri_test/images/P.png'></img>	71,89	2750.0	test	<img class = center src='/static/experiments/beast_fmri_test/images/redP.png'></img>	stop	-1.0	3.0	1.0	stop	temp-non-target	P	71,Green Button	89,Yellow Button	1100.0	1200.0	1600.0	1500.0	0.0	0.0	n/a	n/a	go_stim
temp-non-target	temp_stop_duration	n/a	1347	89	2750	645.043200685	stim	stop-signal	592	1479179	0.0-25.1-1.1	beast_fmri_test	300	1476910,/,1477590,/,1478270,/,1478949,/,1479629,/	t,t,t,t,t	<img class = center src='/static/experiments/beast_fmri_test/images/P.png'></img>	71,89	2750.0	test	<img class = center src='/static/experiments/beast_fmri_test/images/redP.png'></img>	stop	-1.0	3.0	1.0	stop	temp-non-target	P	71,Green Button	89,Yellow Button	1100.0	1200.0	1600.0	1500.0	0.0	0.0	n/a	n/a	stop_stim
17943.95679931459	645.04320068535401	n/a	1347	89	2750	645.043200685	stim	stop-signal	592	1479179	0.0-25.1-1.1	beast_fmri_test	300	1476910,/,1477590,/,1478270,/,1478949,/,1479629,/	t,t,t,t,t	<img class = center src='/static/experiments/beast_fmri_test/images/P.png'></img>	71,89	2750.0	test	<img class = center src='/static/experiments/beast_fmri_test/images/redP.png'></img>	stop	-1.0	3.0	1.0	stop	temp-non-target	P	71,Green Button	89,Yellow Button	1100.0	1200.0	1600.0	1500.0	0.0	0.0	n/a	n/a	ITI
19755	500	n/a	-1	-1	500	0.0	fixation	poldrack-single-stim	593	1480345	0.0-25.2-0.2	beast_fmri_test	300	1480309,/	t	<div class = centerbox><div class = fixation>+</div></div>	none	500.0	test	n/a	n/a	n/a	n/a	n/a	n/a	n/a	n/a	n/a	n/a	n/a	n/a	n/a	n/a	n/a	n/a	n/a	n/a	fixation
19188.379128922941	2750	n/a	1182	89	2750	568.620871077	stim	stop-signal	594	1483097	0.0-25.2-1.2	beast_fmri_test	300	1480990,/,1481670,/,1482350,/,1483029,/	t,t,t,t	<img class = center src='/static/experiments/beast_fmri_test/images/V.png'></img>	71,89	2750.0	test	<img class = center src='/static/experiments/beast_fmri_test/images/redV.png'></img>	go	-1.0	3.0	2.0	go	temp-non-target	V	71,Green Button	89,Yellow Button	1100.0	1200.0	1600.0	1500.0	0.0	n/a	n/a	n/a	go_stim
21938.379128922941	568.62087107711898	n/a	1182	89	2750	568.620871077	stim	stop-signal	594	1483097	0.0-25.2-1.2	beast_fmri_test	300	1480990,/,1481670,/,1482350,/,1483029,/	t,t,t,t	<img class = center src='/static/experiments/beast_fmri_test/images/V.png'></img>	71,89	2750.0	test	<img class = center src='/static/experiments/beast_fmri_test/images/redV.png'></img>	go	-1.0	3.0	2.0	go	temp-non-target	V	71,Green Button	89,Yellow Button	1100.0	1200.0	1600.0	1500.0	0.0	n/a	n/a	n/a	ITI
23595	500	n/a	-1	-1	500	0.0	fixation	poldrack-single-stim	595	1484185	0.0-25.3-0.3	beast_fmri_test	300	1483709,/	t	<div class = centerbox><div class = fixation>+</div></div>	none	500.0	test	n/a	n/a	n/a	n/a	n/a	n/a	n/a	n/a	n/a	n/a	n/a	n/a	n/a	n/a	n/a	n/a	n/a	n/a	fixation
23381.327964291442	1100.0	n/a	1091	71	2750	215.672035709	stim	stop-signal	596	1486937	0.0-25.3-1.3	beast_fmri_test	300	1484389,/,1485070,/,1485749,/,1486429,/,1487109,/	t,t,t,t,t	<img class = center src='/static/experiments/beast_fmri_test/images/P.png'></img>	71,89	2750.0	test	<img class = center src='/static/experiments/beast_fmri_test/images/redP.png'></img>	stop	1650.0	3.0	3.0	stop	target	P	71,Green Button	89,Yellow Button	1100.0	1200.0	1650.0	1500.0	0.0	0.0	1100.0	1.0	go_stim
25031.327964291442	1650.0	n/a	1091	71	2750	215.672035709	stim	stop-signal	596	1486937	0.0-25.3-1.3	beast_fmri_test	300	1484389,/,1485070,/,1485749,/,1486429,/,1487109,/	t,t,t,t,t	<img class = center src='/static/experiments/beast_fmri_test/images/P.png'></img>	71,89	2750.0	test	<img class = center src='/static/experiments/beast_fmri_test/images/redP.png'></img>	stop	1650.0	3.0	3.0	stop	target	P	71,Green Button	89,Yellow Button	1100.0	1200.0	1650.0	1500.0	0.0	0.0	1100.0	1.0	stop_stim
26131.327964291442	215.67203570850401	n/a	1091	71	2750	215.672035709	stim	stop-signal	596	1486937	0.0-25.3-1.3	beast_fmri_test	300	1484389,/,1485070,/,1485749,/,1486429,/,1487109,/	t,t,t,t,t	<img class = center src='/static/experiments/beast_fmri_test/images/P.png'></img>	71,89	2750.0	test	<img class = center src='/static/experiments/beast_fmri_test/images/redP.png'></img>	stop	1650.0	3.0	3.0	stop	target	P	71,Green Button	89,Yellow Button	1100.0	1200.0	1650.0	1500.0	0.0	0.0	1100.0	1.0	ITI
27085	500	n/a	-1	-1	500	0.0	fixation	poldrack-single-stim	597	1487675	0.0-25.4-0.4	beast_fmri_test	300	n/a	n/a	<div class = centerbox><div class = fixation>+</div></div>	none	500.0	test	n/a	n/a	n/a	n/a	n/a	n/a	n/a	n/a	n/a	n/a	n/a	n/a	n/a	n/a	n/a	n/a	n/a	n/a	fixation
26018.286302457564	2750	n/a	1858	89	2750	1068.71369754	stim	stop-signal	598	1490427	0.0-25.4-1.4	beast_fmri_test	300	1487789,/,1488470,/,1489149,/,1489829,/,1490509,/,1491190,/	t,t,t,t,t,t	<img class = center src='/static/experiments/beast_fmri_test/images/D.png'></img>	71,89	2750.0	test	<img class = center src='/static/experiments/beast_fmri_test/images/redD.png'></img>	go	1550.0	3.0	4.0	go	non-target	D	71,Green Button	89,Yellow Button	1050.0	1200.0	1650.0	1550.0	1.0	n/a	1200.0	1.0	go_stim
28768.286302457564	1068.71369754237	n/a	1858	89	2750	1068.71369754	stim	stop-signal	598	1490427	0.0-25.4-1.4	beast_fmri_test	300	1487789,/,1488470,/,1489149,/,1489829,/,1490509,/,1491190,/	t,t,t,t,t,t	<img class = center src='/static/experiments/beast_fmri_test/images/D.png'></img>	71,89	2750.0	test	<img class = center src='/static/experiments/beast_fmri_test/images/redD.png'></img>	go	1550.0	3.0	4.0	go	non-target	D	71,Green Button	89,Yellow Button	1050.0	1200.0	1650.0	1550.0	1.0	n/a	1200.0	1.0	ITI
31427	500	n/a	-1	-1	500	0.0	fixation	poldrack-single-stim	599	1492017	0.0-25.5-0.5	beast_fmri_test	300	1491869,/	t	<div class = centerbox><div class = fixation>+</div></div>	none	500.0	test	n/a	n/a	n/a	n/a	n/a	n/a	n/a	n/a	n/a	n/a	n/a	n/a	n/a	n/a	n/a	n/a	n/a	n/a	fixation
29771.190718425205	2750	n/a	1706	89	2750	1657.80928157	stim	stop-signal	600	1494769	0.0-25.5-1.5	beast_fmri_test	300	1492550,/,1493229,/,1493909,/,1494589,/,1495269,/,1495949,/	t,t,t,t,t,t	<img class = center src='/static/experiments/beast_fmri_test/images/P.png'></img>	71,89	2750.0	test	<img class = center src='/static/experiments/beast_fmri_test/images/redP.png'></img>	go	1550.0	3.0	5.0	go	non-target	P	71,Green Button	89,Yellow Button	1050.0	1200.0	1650.0	1550.0	1.0	n/a	1200.0	1.0	go_stim
32521.190718425205	1657.8092815749101	n/a	1706	89	2750	1657.80928157	stim	stop-signal	600	1494769	0.0-25.5-1.5	beast_fmri_test	300	1492550,/,1493229,/,1493909,/,1494589,/,1495269,/,1495949,/	t,t,t,t,t,t	<img class = center src='/static/experiments/beast_fmri_test/images/P.png'></img>	71,89	2750.0	test	<img class = center src='/static/experiments/beast_fmri_test/images/redP.png'></img>	go	1550.0	3.0	5.0	go	non-target	P	71,Green Button	89,Yellow Button	1050.0	1200.0	1650.0	1550.0	1.0	n/a	1200.0	1.0	ITI
36359	500	n/a	-1	-1	500	0.0	fixation	poldrack-single-stim	601	1496949	0.0-25.6-0.6	beast_fmri_test	300	1496629,/	t	<div class = centerbox><div class = fixation>+</div></div>	none	500.0	test	n/a	n/a	n/a	n/a	n/a	n/a	n/a	n/a	n/a	n/a	n/a	n/a	n/a	n/a	n/a	n/a	n/a	n/a	fixation
36134.837792349048	1200.0	n/a	-1	-1	2750	227.162207651	stim	stop-signal	602	1499702	0.0-25.6-1.6	beast_fmri_test	300	1497309,/,1497990,/,1498669,/,1499350,/	t,t,t,t	<img class = center src='/static/experiments/beast_fmri_test/images/B.png'></img>	71,89	2750.0	test	<img class = center src='/static/experiments/beast_fmri_test/images/redB.png'></img>	stop	1550.0	3.0	6.0	stop	non-target	B	71,Green Button	89,Yellow Button	1050.0	1200.0	1650.0	1550.0	0.0	1.0	1200.0	0.0	go_stim
37684.837792349048	1550.0	n/a	-1	-1	2750	227.162207651	stim	stop-signal	602	1499702	0.0-25.6-1.6	beast_fmri_test	300	1497309,/,1497990,/,1498669,/,1499350,/	t,t,t,t	<img class = center src='/static/experiments/beast_fmri_test/images/B.png'></img>	71,89	2750.0	test	<img class = center src='/static/experiments/beast_fmri_test/images/redB.png'></img>	stop	1550.0	3.0	6.0	stop	non-target	B	71,Green Button	89,Yellow Button	1050.0	1200.0	1650.0	1550.0	0.0	1.0	1200.0	0.0	stop_stim
38884.837792349048	227.16220765086501	n/a	-1	-1	2750	227.162207651	stim	stop-signal	602	1499702	0.0-25.6-1.6	beast_fmri_test	300	1497309,/,1497990,/,1498669,/,1499350,/	t,t,t,t	<img class = center src='/static/experiments/beast_fmri_test/images/B.png'></img>	71,89	2750.0	test	<img class = center src='/static/experiments/beast_fmri_test/images/redB.png'></img>	stop	1550.0	3.0	6.0	stop	non-target	B	71,Green Button	89,Yellow Button	1050.0	1200.0	1650.0	1550.0	0.0	1.0	1200.0	0.0	ITI
39862	500	n/a	-1	-1	500	0.0	fixation	poldrack-single-stim	603	1500452	0.0-25.7-0.7	beast_fmri_test	300	1500029,/	t	<div class = centerbox><div class = fixation>+</div></div>	none	500.0	test	n/a	n/a	n/a	n/a	n/a	n/a	n/a	n/a	n/a	n/a	n/a	n/a	n/a	n/a	n/a	n/a	n/a	n/a	fixation
36227.249986119336	2750	n/a	2165	89	2750	3637.75001388	stim	stop-signal	604	1503205	0.0-25.7-1.7	beast_fmri_test	300	1500709,/,1501390,/,1502070,/,1502750,/,1503430,/,1504110,/,1504790,/,1505470,/,1506150,/,1506830,/	t,t,t,t,t,t,t,t,t,t	<img class = center src='/static/experiments/beast_fmri_test/images/D.png'></img>	71,89	2750.0	test	<img class = center src='/static/experiments/beast_fmri_test/images/redD.png'></img>	go	1700.0	3.0	7.0	go	target	D	71,Green Button	89,Yellow Button	1050.0	1250.0	1700.0	1550.0	0.0	n/a	1050.0	0.0	go_stim
38977.249986119336	3637.7500138806599	n/a	2165	89	2750	3637.75001388	stim	stop-signal	604	1503205	0.0-25.7-1.7	beast_fmri_test	300	1500709,/,1501390,/,1502070,/,1502750,/,1503430,/,1504110,/,1504790,/,1505470,/,1506150,/,1506830,/	t,t,t,t,t,t,t,t,t,t	<img class = center src='/static/experiments/beast_fmri_test/images/D.png'></img>	71,89	2750.0	test	<img class = center src='/static/experiments/beast_fmri_test/images/redD.png'></img>	go	1700.0	3.0	7.0	go	target	D	71,Green Button	89,Yellow Button	1050.0	1250.0	1700.0	1550.0	0.0	n/a	1050.0	0.0	ITI
46776	500	n/a	-1	-1	500	0.0	fixation	poldrack-single-stim	605	1507366	0.0-25.8-0.8	beast_fmri_test	300	n/a	n/a	<div class = centerbox><div class = fixation>+</div></div>	none	500.0	test	n/a	n/a	n/a	n/a	n/a	n/a	n/a	n/a	n/a	n/a	n/a	n/a	n/a	n/a	n/a	n/a	n/a	n/a	fixation
44106.797851922456	2750	n/a	1532	89	2750	2671.20214808	stim	stop-signal	606	1510118	0.0-25.8-1.8	beast_fmri_test	300	1507510,/,1508190,/,1508870,/,1509550,/,1510230,/,1510910,/,1511591,/,1512270,/	t,t,t,t,t,t,t,t	<img class = center src='/static/experiments/beast_fmri_test/images/T.png'></img>	71,89	2750.0	test	<img class = center src='/static/experiments/beast_fmri_test/images/redT.png'></img>	go	1500.0	3.0	8.0	go	non-target	T	71,Green Button	89,Yellow Button	1050.0	1250.0	1700.0	1500.0	1.0	n/a	1250.0	1.0	go_stim
46856.797851922456	2671.2021480774802	n/a	1532	89	2750	2671.20214808	stim	stop-signal	606	1510118	0.0-25.8-1.8	beast_fmri_test	300	1507510,/,1508190,/,1508870,/,1509550,/,1510230,/,1510910,/,1511591,/,1512270,/	t,t,t,t,t,t,t,t	<img class = center src='/static/experiments/beast_fmri_test/images/T.png'></img>	71,89	2750.0	test	<img class = center src='/static/experiments/beast_fmri_test/images/redT.png'></img>	go	1500.0	3.0	8.0	go	non-target	T	71,Green Button	89,Yellow Button	1050.0	1250.0	1700.0	1500.0	1.0	n/a	1250.0	1.0	ITI
52723	500	n/a	-1	-1	500	0.0	fixation	poldrack-single-stim	607	1513313	0.0-25.9-0.9	beast_fmri_test	300	1512950,/	t	<div class = centerbox><div class = fixation>+</div></div>	none	500.0	test	n/a	n/a	n/a	n/a	n/a	n/a	n/a	n/a	n/a	n/a	n/a	n/a	n/a	n/a	n/a	n/a	n/a	n/a	fixation
51056.817405108595	2750	n/a	2108	89	2750	1668.18259489	stim	stop-signal	608	1516065	0.0-25.9-1.9	beast_fmri_test	300	1513630,/,1514310,/,1514990,/,1515670,/,1516350,/,1517029,/,1517710,/	t,t,t,t,t,t,t	<img class = center src='/static/experiments/beast_fmri_test/images/D.png'></img>	71,89	2750.0	test	<img class = center src='/static/experiments/beast_fmri_test/images/redD.png'></img>	go	1500.0	3.0	9.0	go	non-target	D	71,Green Button	89,Yellow Button	1050.0	1250.0	1700.0	1500.0	1.0	n/a	1250.0	1.0	go_stim
53806.817405108595	1668.1825948913099	n/a	2108	89	2750	1668.18259489	stim	stop-signal	608	1516065	0.0-25.9-1.9	beast_fmri_test	300	1513630,/,1514310,/,1514990,/,1515670,/,1516350,/,1517029,/,1517710,/	t,t,t,t,t,t,t	<img class = center src='/static/experiments/beast_fmri_test/images/D.png'></img>	71,89	2750.0	test	<img class = center src='/static/experiments/beast_fmri_test/images/redD.png'></img>	go	1500.0	3.0	9.0	go	non-target	D	71,Green Button	89,Yellow Button	1050.0	1250.0	1700.0	1500.0	1.0	n/a	1250.0	1.0	ITI
57665	500	n/a	-1	-1	500	0.0	fixation	poldrack-single-stim	609	1518255	0.0-25.10-0.10	beast_fmri_test	300	n/a	n/a	<div class = centerbox><div class = fixation>+</div></div>	none	500.0	test	n/a	n/a	n/a	n/a	n/a	n/a	n/a	n/a	n/a	n/a	n/a	n/a	n/a	n/a	n/a	n/a	n/a	n/a	fixation
54940.859327660641	1250.0	n/a	-1	-1	2750	2727.14067234	stim	stop-signal	610	1521008	0.0-25.10-1.10	beast_fmri_test	300	1518390,/,1519069,/,1519750,/,1520430,/,1521110,/,1521791,/,1522470,/,1523150,/	t,t,t,t,t,t,t,t	<img class = center src='/static/experiments/beast_fmri_test/images/T.png'></img>	71,89	2750.0	test	<img class = center src='/static/experiments/beast_fmri_test/images/redT.png'></img>	stop	1500.0	3.0	10.0	stop	non-target	T	71,Green Button	89,Yellow Button	1050.0	1250.0	1700.0	1500.0	0.0	1.0	1250.0	0.0	go_stim
56440.859327660641	1500.0	n/a	-1	-1	2750	2727.14067234	stim	stop-signal	610	1521008	0.0-25.10-1.10	beast_fmri_test	300	1518390,/,1519069,/,1519750,/,1520430,/,1521110,/,1521791,/,1522470,/,1523150,/	t,t,t,t,t,t,t,t	<img class = center src='/static/experiments/beast_fmri_test/images/T.png'></img>	71,89	2750.0	test	<img class = center src='/static/experiments/beast_fmri_test/images/redT.png'></img>	stop	1500.0	3.0	10.0	stop	non-target	T	71,Green Button	89,Yellow Button	1050.0	1250.0	1700.0	1500.0	0.0	1.0	1250.0	0.0	stop_stim
57690.859327660641	2727.1406723394598	n/a	-1	-1	2750	2727.14067234	stim	stop-signal	610	1521008	0.0-25.10-1.10	beast_fmri_test	300	1518390,/,1519069,/,1519750,/,1520430,/,1521110,/,1521791,/,1522470,/,1523150,/	t,t,t,t,t,t,t,t	<img class = center src='/static/experiments/beast_fmri_test/images/T.png'></img>	71,89	2750.0	test	<img class = center src='/static/experiments/beast_fmri_test/images/redT.png'></img>	stop	1500.0	3.0	10.0	stop	non-target	T	71,Green Button	89,Yellow Button	1050.0	1250.0	1700.0	1500.0	0.0	1.0	1250.0	0.0	ITI
63666	500	n/a	-1	-1	500	0.0	fixation	poldrack-single-stim	611	1524256	0.0-25.11-0.11	beast_fmri_test	300	1523830,/	t	<div class = centerbox><div class = fixation>+</div></div>	none	500.0	test	n/a	n/a	n/a	n/a	n/a	n/a	n/a	n/a	n/a	n/a	n/a	n/a	n/a	n/a	n/a	n/a	n/a	n/a	fixation
63044.926640997175	2750	n/a	2051	89	2750	623.073359003	stim	stop-signal	612	1527008	0.0-25.11-1.11	beast_fmri_test	300	1524509,/,1525190,/,1525870,/,1526550,/,1527230,/	t,t,t,t,t	<img class = center src='/static/experiments/beast_fmri_test/images/P.png'></img>	71,89	2750.0	test	<img class = center src='/static/experiments/beast_fmri_test/images/redP.png'></img>	go	1450.0	3.0	11.0	go	non-target	P	71,Green Button	89,Yellow Button	1050.0	1300.0	1700.0	1450.0	1.0	n/a	1300.0	1.0	go_stim
65794.926640997175	623.07335900272699	n/a	2051	89	2750	623.073359003	stim	stop-signal	612	1527008	0.0-25.11-1.11	beast_fmri_test	300	1524509,/,1525190,/,1525870,/,1526550,/,1527230,/	t,t,t,t,t	<img class = center src='/static/experiments/beast_fmri_test/images/P.png'></img>	71,89	2750.0	test	<img class = center src='/static/experiments/beast_fmri_test/images/redP.png'></img>	go	1450.0	3.0	11.0	go	non-target	P	71,Green Button	89,Yellow Button	1050.0	1300.0	1700.0	1450.0	1.0	n/a	1300.0	1.0	ITI
67564	500	n/a	-1	-1	500	0.0	fixation	poldrack-single-stim	613	1528154	0.0-25.12-0.12	beast_fmri_test	300	1527910,/	t	<div class = centerbox><div class = fixation>+</div></div>	none	500.0	test	n/a	n/a	n/a	n/a	n/a	n/a	n/a	n/a	n/a	n/a	n/a	n/a	n/a	n/a	n/a	n/a	n/a	n/a	fixation
67037.996437772876	2750	n/a	-1	-1	2750	528.003562227	stim	stop-signal	614	1530906	0.0-25.12-1.12	beast_fmri_test	300	1528590,/,1529270,/,1529949,/,1530630,/,1531310,/	t,t,t,t,t	<img class = center src='/static/experiments/beast_fmri_test/images/D.png'></img>	71,89	2750.0	test	<img class = center src='/static/experiments/beast_fmri_test/images/redD.png'></img>	go	1700.0	3.0	12.0	go	target	D	71,Green Button	89,Yellow Button	1050.0	1300.0	1700.0	1450.0	0.0	n/a	1050.0	0.0	go_stim
69787.996437772876	528.003562227104	n/a	-1	-1	2750	528.003562227	stim	stop-signal	614	1530906	0.0-25.12-1.12	beast_fmri_test	300	1528590,/,1529270,/,1529949,/,1530630,/,1531310,/	t,t,t,t,t	<img class = center src='/static/experiments/beast_fmri_test/images/D.png'></img>	71,89	2750.0	test	<img class = center src='/static/experiments/beast_fmri_test/images/redD.png'></img>	go	1700.0	3.0	12.0	go	target	D	71,Green Button	89,Yellow Button	1050.0	1300.0	1700.0	1450.0	0.0	n/a	1050.0	0.0	ITI
71365	500	n/a	-1	-1	500	0.0	fixation	poldrack-single-stim	615	1531955	0.0-25.13-0.13	beast_fmri_test	300	n/a	n/a	<div class = centerbox><div class = fixation>+</div></div>	none	500.0	test	n/a	n/a	n/a	n/a	n/a	n/a	n/a	n/a	n/a	n/a	n/a	n/a	n/a	n/a	n/a	n/a	n/a	n/a	fixation
70041.438681473024	2750	n/a	2133	89	2750	1325.56131853	stim	stop-signal	616	1534707	0.0-25.13-1.13	beast_fmri_test	300	1531990,/,1532670,/,1533350,/,1534030,/,1534710,/,1535390,/	t,t,t,t,t,t	<img class = center src='/static/experiments/beast_fmri_test/images/V.png'></img>	71,89	2750.0	test	<img class = center src='/static/experiments/beast_fmri_test/images/redV.png'></img>	go	1450.0	3.0	13.0	go	non-target	V	71,Green Button	89,Yellow Button	1050.0	1300.0	1700.0	1450.0	1.0	n/a	1300.0	1.0	go_stim
72791.438681473024	1325.5613185269799	n/a	2133	89	2750	1325.56131853	stim	stop-signal	616	1534707	0.0-25.13-1.13	beast_fmri_test	300	1531990,/,1532670,/,1533350,/,1534030,/,1534710,/,1535390,/	t,t,t,t,t,t	<img class = center src='/static/experiments/beast_fmri_test/images/V.png'></img>	71,89	2750.0	test	<img class = center src='/static/experiments/beast_fmri_test/images/redV.png'></img>	go	1450.0	3.0	13.0	go	non-target	V	71,Green Button	89,Yellow Button	1050.0	1300.0	1700.0	1450.0	1.0	n/a	1300.0	1.0	ITI
75965	500	n/a	-1	-1	500	0.0	fixation	poldrack-single-stim	617	1536555	0.0-25.14-0.14	beast_fmri_test	300	1536070,/	t	<div class = centerbox><div class = fixation>+</div></div>	none	500.0	test	n/a	n/a	n/a	n/a	n/a	n/a	n/a	n/a	n/a	n/a	n/a	n/a	n/a	n/a	n/a	n/a	n/a	n/a	fixation
75666.009984689066	1300.0	n/a	-1	-1	2750	300.990015311	stim	stop-signal	618	1539307	0.0-25.14-1.14	beast_fmri_test	300	1536750,/,1537430,/,1538110,/,1538790,/,1539471,/	t,t,t,t,t	<img class = center src='/static/experiments/beast_fmri_test/images/D.png'></img>	71,89	2750.0	test	<img class = center src='/static/experiments/beast_fmri_test/images/redD.png'></img>	stop	1450.0	3.0	14.0	stop	non-target	D	71,Green Button	89,Yellow Button	1050.0	1300.0	1700.0	1450.0	0.0	1.0	1300.0	0.0	go_stim
77116.009984689066	1450.0	n/a	-1	-1	2750	300.990015311	stim	stop-signal	618	1539307	0.0-25.14-1.14	beast_fmri_test	300	1536750,/,1537430,/,1538110,/,1538790,/,1539471,/	t,t,t,t,t	<img class = center src='/static/experiments/beast_fmri_test/images/D.png'></img>	71,89	2750.0	test	<img class = center src='/static/experiments/beast_fmri_test/images/redD.png'></img>	stop	1450.0	3.0	14.0	stop	non-target	D	71,Green Button	89,Yellow Button	1050.0	1300.0	1700.0	1450.0	0.0	1.0	1300.0	0.0	stop_stim
78416.009984689066	300.99001531101402	n/a	-1	-1	2750	300.990015311	stim	stop-signal	618	1539307	0.0-25.14-1.14	beast_fmri_test	300	1536750,/,1537430,/,1538110,/,1538790,/,1539471,/	t,t,t,t,t	<img class = center src='/static/experiments/beast_fmri_test/images/D.png'></img>	71,89	2750.0	test	<img class = center src='/static/experiments/beast_fmri_test/images/redD.png'></img>	stop	1450.0	3.0	14.0	stop	non-target	D	71,Green Button	89,Yellow Button	1050.0	1300.0	1700.0	1450.0	0.0	1.0	1300.0	0.0	ITI
79542	500	n/a	-1	-1	500	0.0	fixation	poldrack-single-stim	619	1540132	0.0-25.15-0.15	beast_fmri_test	300	n/a	n/a	<div class = centerbox><div class = fixation>+</div></div>	none	500.0	test	n/a	n/a	n/a	n/a	n/a	n/a	n/a	n/a	n/a	n/a	n/a	n/a	n/a	n/a	n/a	n/a	n/a	n/a	fixation
78055.563571750419	2750	n/a	1733	89	2750	1488.43642825	stim	stop-signal	620	1542884	0.0-25.15-1.15	beast_fmri_test	300	1540150,/,1540830,/,1541511,/,1542191,/,1542870,/,1543551,/,1544230,/	t,t,t,t,t,t,t	<img class = center src='/static/experiments/beast_fmri_test/images/T.png'></img>	71,89	2750.0	test	<img class = center src='/static/experiments/beast_fmri_test/images/redT.png'></img>	go	1400.0	3.0	15.0	go	non-target	T	71,Green Button	89,Yellow Button	1050.0	1350.0	1700.0	1400.0	1.0	n/a	1350.0	1.0	go_stim
80805.563571750419	1488.4364282495601	n/a	1733	89	2750	1488.43642825	stim	stop-signal	620	1542884	0.0-25.15-1.15	beast_fmri_test	300	1540150,/,1540830,/,1541511,/,1542191,/,1542870,/,1543551,/,1544230,/	t,t,t,t,t,t,t	<img class = center src='/static/experiments/beast_fmri_test/images/T.png'></img>	71,89	2750.0	test	<img class = center src='/static/experiments/beast_fmri_test/images/redT.png'></img>	go	1400.0	3.0	15.0	go	non-target	T	71,Green Button	89,Yellow Button	1050.0	1350.0	1700.0	1400.0	1.0	n/a	1350.0	1.0	ITI
84308	500	n/a	-1	-1	500	0.0	fixation	poldrack-single-stim	621	1544898	0.0-25.16-0.16	beast_fmri_test	300	n/a	n/a	<div class = centerbox><div class = fixation>+</div></div>	none	500.0	test	n/a	n/a	n/a	n/a	n/a	n/a	n/a	n/a	n/a	n/a	n/a	n/a	n/a	n/a	n/a	n/a	n/a	n/a	fixation
84244.813974861288	2750	n/a	1948	89	2750	64.1860251387	stim	stop-signal	622	1547649	0.0-25.16-1.16	beast_fmri_test	300	1544910,/,1545590,/,1546270,/,1546950,/,1547630,/	t,t,t,t,t	<img class = center src='/static/experiments/beast_fmri_test/images/B.png'></img>	71,89	2750.0	test	<img class = center src='/static/experiments/beast_fmri_test/images/redB.png'></img>	go	1400.0	3.0	16.0	go	non-target	B	71,Green Button	89,Yellow Button	1050.0	1350.0	1700.0	1400.0	1.0	n/a	1350.0	1.0	go_stim
86994.813974861288	64.186025138697303	n/a	1948	89	2750	64.1860251387	stim	stop-signal	622	1547649	0.0-25.16-1.16	beast_fmri_test	300	1544910,/,1545590,/,1546270,/,1546950,/,1547630,/	t,t,t,t,t	<img class = center src='/static/experiments/beast_fmri_test/images/B.png'></img>	71,89	2750.0	test	<img class = center src='/static/experiments/beast_fmri_test/images/redB.png'></img>	go	1400.0	3.0	16.0	go	non-target	B	71,Green Button	89,Yellow Button	1050.0	1350.0	1700.0	1400.0	1.0	n/a	1350.0	1.0	ITI
87647	500	n/a	-1	-1	500	0.0	fixation	poldrack-single-stim	623	1548237	0.0-25.17-0.17	beast_fmri_test	300	n/a	n/a	<div class = centerbox><div class = fixation>+</div></div>	none	500.0	test	n/a	n/a	n/a	n/a	n/a	n/a	n/a	n/a	n/a	n/a	n/a	n/a	n/a	n/a	n/a	n/a	n/a	n/a	fixation
86732.958127218066	2750	n/a	1957	71	2750	917.041872782	stim	stop-signal	624	1550990	0.0-25.17-1.17	beast_fmri_test	300	1548310,/,1548990,/,1549670,/,1550350,/,1551030,/,1551710,/	t,t,t,t,t,t	<img class = center src='/static/experiments/beast_fmri_test/images/D.png'></img>	71,89	2750.0	test	<img class = center src='/static/experiments/beast_fmri_test/images/redD.png'></img>	go	1700.0	3.0	17.0	go	target	D	71,Green Button	89,Yellow Button	1050.0	1350.0	1700.0	1400.0	1.0	n/a	1050.0	1.0	go_stim
89482.958127218066	917.041872781954	n/a	1957	71	2750	917.041872782	stim	stop-signal	624	1550990	0.0-25.17-1.17	beast_fmri_test	300	1548310,/,1548990,/,1549670,/,1550350,/,1551030,/,1551710,/	t,t,t,t,t,t	<img class = center src='/static/experiments/beast_fmri_test/images/D.png'></img>	71,89	2750.0	test	<img class = center src='/static/experiments/beast_fmri_test/images/redD.png'></img>	go	1700.0	3.0	17.0	go	target	D	71,Green Button	89,Yellow Button	1050.0	1350.0	1700.0	1400.0	1.0	n/a	1050.0	1.0	ITI
91841	500	n/a	-1	-1	500	0.0	fixation	poldrack-single-stim	625	1552431	0.0-25.18-0.18	beast_fmri_test	300	1552391,/	t	<div class = centerbox><div class = fixation>+</div></div>	none	500.0	test	n/a	n/a	n/a	n/a	n/a	n/a	n/a	n/a	n/a	n/a	n/a	n/a	n/a	n/a	n/a	n/a	n/a	n/a	fixation
91167.809008238371	1050.0	n/a	-1	-1	2750	676.190991762	stim	stop-signal	626	1555184	0.0-25.18-1.18	beast_fmri_test	300	1553071,/,1553750,/,1554430,/,1555110,/,1555790,/	t,t,t,t,t	<img class = center src='/static/experiments/beast_fmri_test/images/T.png'></img>	71,89	2750.0	test	<img class = center src='/static/experiments/beast_fmri_test/images/redT.png'></img>	stop	1700.0	3.0	18.0	stop	target	T	71,Green Button	89,Yellow Button	1050.0	1350.0	1700.0	1400.0	0.0	1.0	1050.0	0.0	go_stim
92867.809008238371	1700.0	n/a	-1	-1	2750	676.190991762	stim	stop-signal	626	1555184	0.0-25.18-1.18	beast_fmri_test	300	1553071,/,1553750,/,1554430,/,1555110,/,1555790,/	t,t,t,t,t	<img class = center src='/static/experiments/beast_fmri_test/images/T.png'></img>	71,89	2750.0	test	<img class = center src='/static/experiments/beast_fmri_test/images/redT.png'></img>	stop	1700.0	3.0	18.0	stop	target	T	71,Green Button	89,Yellow Button	1050.0	1350.0	1700.0	1400.0	0.0	1.0	1050.0	0.0	stop_stim
93917.809008238371	676.19099176171903	n/a	-1	-1	2750	676.190991762	stim	stop-signal	626	1555184	0.0-25.18-1.18	beast_fmri_test	300	1553071,/,1553750,/,1554430,/,1555110,/,1555790,/	t,t,t,t,t	<img class = center src='/static/experiments/beast_fmri_test/images/T.png'></img>	71,89	2750.0	test	<img class = center src='/static/experiments/beast_fmri_test/images/redT.png'></img>	stop	1700.0	3.0	18.0	stop	target	T	71,Green Button	89,Yellow Button	1050.0	1350.0	1700.0	1400.0	0.0	1.0	1050.0	0.0	ITI
95794	500	n/a	-1	-1	500	0.0	fixation	poldrack-single-stim	627	1556384	0.0-25.19-0.19	beast_fmri_test	300	n/a	n/a	<div class = centerbox><div class = fixation>+</div></div>	none	500.0	test	n/a	n/a	n/a	n/a	n/a	n/a	n/a	n/a	n/a	n/a	n/a	n/a	n/a	n/a	n/a	n/a	n/a	n/a	fixation
94161.050819111522	1350.0	n/a	-1	-1	2750	1634.94918089	stim	stop-signal	628	1559136	0.0-25.19-1.19	beast_fmri_test	300	1556470,/,1557150,/,1557830,/,1558510,/,1559190,/,1559870,/,1560550,/	t,t,t,t,t,t,t	<img class = center src='/static/experiments/beast_fmri_test/images/D.png'></img>	71,89	2750.0	test	<img class = center src='/static/experiments/beast_fmri_test/images/redD.png'></img>	stop	1400.0	3.0	19.0	stop	non-target	D	71,Green Button	89,Yellow Button	1100.0	1350.0	1700.0	1400.0	0.0	1.0	1350.0	0.0	go_stim
95561.050819111522	1400.0	n/a	-1	-1	2750	1634.94918089	stim	stop-signal	628	1559136	0.0-25.19-1.19	beast_fmri_test	300	1556470,/,1557150,/,1557830,/,1558510,/,1559190,/,1559870,/,1560550,/	t,t,t,t,t,t,t	<img class = center src='/static/experiments/beast_fmri_test/images/D.png'></img>	71,89	2750.0	test	<img class = center src='/static/experiments/beast_fmri_test/images/redD.png'></img>	stop	1400.0	3.0	19.0	stop	non-target	D	71,Green Button	89,Yellow Button	1100.0	1350.0	1700.0	1400.0	0.0	1.0	1350.0	0.0	stop_stim
96911.050819111522	1634.94918088848	n/a	-1	-1	2750	1634.94918089	stim	stop-signal	628	1559136	0.0-25.19-1.19	beast_fmri_test	300	1556470,/,1557150,/,1557830,/,1558510,/,1559190,/,1559870,/,1560550,/	t,t,t,t,t,t,t	<img class = center src='/static/experiments/beast_fmri_test/images/D.png'></img>	71,89	2750.0	test	<img class = center src='/static/experiments/beast_fmri_test/images/redD.png'></img>	stop	1400.0	3.0	19.0	stop	non-target	D	71,Green Button	89,Yellow Button	1100.0	1350.0	1700.0	1400.0	0.0	1.0	1350.0	0.0	ITI
100706	500	n/a	-1	-1	500	0.0	fixation	poldrack-single-stim	629	1561296	0.0-25.20-0.20	beast_fmri_test	300	1561230,/	t	<div class = centerbox><div class = fixation>+</div></div>	none	500.0	test	n/a	n/a	n/a	n/a	n/a	n/a	n/a	n/a	n/a	n/a	n/a	n/a	n/a	n/a	n/a	n/a	n/a	n/a	fixation
100546.76771019725	2750	n/a	1320	89	2750	161.232289803	stim	stop-signal	630	1564048	0.0-25.20-1.20	beast_fmri_test	300	1561910,/,1562591,/,1563270,/,1563950,/	t,t,t,t	<img class = center src='/static/experiments/beast_fmri_test/images/B.png'></img>	71,89	2750.0	test	<img class = center src='/static/experiments/beast_fmri_test/images/redB.png'></img>	go	1350.0	3.0	20.0	go	non-target	B	71,Green Button	89,Yellow Button	1100.0	1400.0	1700.0	1350.0	1.0	n/a	1400.0	1.0	go_stim
103296.76771019725	161.232289802823	n/a	1320	89	2750	161.232289803	stim	stop-signal	630	1564048	0.0-25.20-1.20	beast_fmri_test	300	1561910,/,1562591,/,1563270,/,1563950,/	t,t,t,t	<img class = center src='/static/experiments/beast_fmri_test/images/B.png'></img>	71,89	2750.0	test	<img class = center src='/static/experiments/beast_fmri_test/images/redB.png'></img>	go	1350.0	3.0	20.0	go	non-target	B	71,Green Button	89,Yellow Button	1100.0	1400.0	1700.0	1350.0	1.0	n/a	1400.0	1.0	ITI
104144	500	n/a	-1	-1	500	0.0	fixation	poldrack-single-stim	631	1564734	0.0-25.21-0.21	beast_fmri_test	300	1564630,/	t	<div class = centerbox><div class = fixation>+</div></div>	none	500.0	test	n/a	n/a	n/a	n/a	n/a	n/a	n/a	n/a	n/a	n/a	n/a	n/a	n/a	n/a	n/a	n/a	n/a	n/a	fixation
103515.9551287496	2750	n/a	1792	89	2750	630.04487125	stim	stop-signal	632	1567486	0.0-25.21-1.21	beast_fmri_test	300	1565310,/,1565990,/,1566671,/,1567351,/,1568031,/	t,t,t,t,t	<img class = center src='/static/experiments/beast_fmri_test/images/V.png'></img>	71,89	2750.0	test	<img class = center src='/static/experiments/beast_fmri_test/images/redV.png'></img>	go	1350.0	3.0	21.0	go	non-target	V	71,Green Button	89,Yellow Button	1100.0	1400.0	1700.0	1350.0	1.0	n/a	1400.0	1.0	go_stim
106265.9551287496	630.04487125041601	n/a	1792	89	2750	630.04487125	stim	stop-signal	632	1567486	0.0-25.21-1.21	beast_fmri_test	300	1565310,/,1565990,/,1566671,/,1567351,/,1568031,/	t,t,t,t,t	<img class = center src='/static/experiments/beast_fmri_test/images/V.png'></img>	71,89	2750.0	test	<img class = center src='/static/experiments/beast_fmri_test/images/redV.png'></img>	go	1350.0	3.0	21.0	go	non-target	V	71,Green Button	89,Yellow Button	1100.0	1400.0	1700.0	1350.0	1.0	n/a	1400.0	1.0	ITI
108052	500	n/a	-1	-1	500	0.0	fixation	poldrack-single-stim	633	1568642	0.0-25.22-0.22	beast_fmri_test	300	n/a	n/a	<div class = centerbox><div class = fixation>+</div></div>	none	500.0	test	n/a	n/a	n/a	n/a	n/a	n/a	n/a	n/a	n/a	n/a	n/a	n/a	n/a	n/a	n/a	n/a	n/a	n/a	fixation
107721.80808276753	1400.0	n/a	-1	-1	2750	332.191917232	stim	stop-signal	634	1571394	0.0-25.22-1.22	beast_fmri_test	300	1568711,/,1569391,/,1570071,/,1570751,/,1571431,/	t,t,t,t,t	<img class = center src='/static/experiments/beast_fmri_test/images/P.png'></img>	71,89	2750.0	test	<img class = center src='/static/experiments/beast_fmri_test/images/redP.png'></img>	stop	1350.0	3.0	22.0	stop	non-target	P	71,Green Button	89,Yellow Button	1100.0	1400.0	1700.0	1350.0	0.0	1.0	1400.0	0.0	go_stim
109071.80808276753	1350.0	n/a	-1	-1	2750	332.191917232	stim	stop-signal	634	1571394	0.0-25.22-1.22	beast_fmri_test	300	1568711,/,1569391,/,1570071,/,1570751,/,1571431,/	t,t,t,t,t	<img class = center src='/static/experiments/beast_fmri_test/images/P.png'></img>	71,89	2750.0	test	<img class = center src='/static/experiments/beast_fmri_test/images/redP.png'></img>	stop	1350.0	3.0	22.0	stop	non-target	P	71,Green Button	89,Yellow Button	1100.0	1400.0	1700.0	1350.0	0.0	1.0	1400.0	0.0	stop_stim
110471.80808276753	332.191917232462	n/a	-1	-1	2750	332.191917232	stim	stop-signal	634	1571394	0.0-25.22-1.22	beast_fmri_test	300	1568711,/,1569391,/,1570071,/,1570751,/,1571431,/	t,t,t,t,t	<img class = center src='/static/experiments/beast_fmri_test/images/P.png'></img>	71,89	2750.0	test	<img class = center src='/static/experiments/beast_fmri_test/images/redP.png'></img>	stop	1350.0	3.0	22.0	stop	non-target	P	71,Green Button	89,Yellow Button	1100.0	1400.0	1700.0	1350.0	0.0	1.0	1400.0	0.0	ITI
111666	500	n/a	-1	-1	500	0.0	fixation	poldrack-single-stim	635	1572256	0.0-25.23-0.23	beast_fmri_test	300	1572111,/	t	<div class = centerbox><div class = fixation>+</div></div>	none	500.0	test	n/a	n/a	n/a	n/a	n/a	n/a	n/a	n/a	n/a	n/a	n/a	n/a	n/a	n/a	n/a	n/a	n/a	n/a	fixation
111517.28678120789	2750	n/a	2040	89	2750	150.713218792	stim	stop-signal	636	1575008	0.0-25.23-1.23	beast_fmri_test	300	1572791,/,1573471,/,1574151,/,1574831,/	t,t,t,t	<img class = center src='/static/experiments/beast_fmri_test/images/B.png'></img>	71,89	2750.0	test	<img class = center src='/static/experiments/beast_fmri_test/images/redB.png'></img>	go	1650.0	3.0	23.0	go	target	B	71,Green Button	89,Yellow Button	1100.0	1450.0	1650.0	1350.0	0.0	n/a	1100.0	0.0	go_stim
114267.28678120789	150.71321879202199	n/a	2040	89	2750	150.713218792	stim	stop-signal	636	1575008	0.0-25.23-1.23	beast_fmri_test	300	1572791,/,1573471,/,1574151,/,1574831,/	t,t,t,t	<img class = center src='/static/experiments/beast_fmri_test/images/B.png'></img>	71,89	2750.0	test	<img class = center src='/static/experiments/beast_fmri_test/images/redB.png'></img>	go	1650.0	3.0	23.0	go	target	B	71,Green Button	89,Yellow Button	1100.0	1450.0	1650.0	1350.0	0.0	n/a	1100.0	0.0	ITI
115090	500	n/a	-1	-1	500	0.0	fixation	poldrack-single-stim	637	1575680	0.0-25.24-0.24	beast_fmri_test	300	1575511,/	t	<div class = centerbox><div class = fixation>+</div></div>	none	500.0	test	n/a	n/a	n/a	n/a	n/a	n/a	n/a	n/a	n/a	n/a	n/a	n/a	n/a	n/a	n/a	n/a	n/a	n/a	fixation
114765.60539295431	2750	n/a	2069	89	2750	326.394607046	stim	stop-signal	638	1578432	0.0-25.24-1.24	beast_fmri_test	300	1576191,/,1576871,/,1577551,/,1578231,/	t,t,t,t	<img class = center src='/static/experiments/beast_fmri_test/images/D.png'></img>	71,89	2750.0	test	<img class = center src='/static/experiments/beast_fmri_test/images/redD.png'></img>	go	1300.0	3.0	24.0	go	non-target	D	71,Green Button	89,Yellow Button	1100.0	1450.0	1650.0	1300.0	1.0	n/a	1450.0	1.0	go_stim
117515.60539295431	326.39460704573202	n/a	2069	89	2750	326.394607046	stim	stop-signal	638	1578432	0.0-25.24-1.24	beast_fmri_test	300	1576191,/,1576871,/,1577551,/,1578231,/	t,t,t,t	<img class = center src='/static/experiments/beast_fmri_test/images/D.png'></img>	71,89	2750.0	test	<img class = center src='/static/experiments/beast_fmri_test/images/redD.png'></img>	go	1300.0	3.0	24.0	go	non-target	D	71,Green Button	89,Yellow Button	1100.0	1450.0	1650.0	1300.0	1.0	n/a	1450.0	1.0	ITI
118693	500	n/a	-1	-1	500	0.0	fixation	poldrack-single-stim	639	1579283	0.0-25.25-0.25	beast_fmri_test	300	1578911,/	t	<div class = centerbox><div class = fixation>+</div></div>	none	500.0	test	n/a	n/a	n/a	n/a	n/a	n/a	n/a	n/a	n/a	n/a	n/a	n/a	n/a	n/a	n/a	n/a	n/a	n/a	fixation
117990.91938653728	1450.0	n/a	-1	-1	2750	704.080613463	stim	stop-signal	640	1582035	0.0-25.25-1.25	beast_fmri_test	300	1579591,/,1580271,/,1580951,/,1581631,/,1582311,/	t,t,t,t,t	<img class = center src='/static/experiments/beast_fmri_test/images/D.png'></img>	71,89	2750.0	test	<img class = center src='/static/experiments/beast_fmri_test/images/redD.png'></img>	stop	1300.0	3.0	25.0	stop	non-target	D	71,Green Button	89,Yellow Button	1100.0	1450.0	1650.0	1300.0	0.0	1.0	1450.0	0.0	go_stim
119290.91938653728	1300.0	n/a	-1	-1	2750	704.080613463	stim	stop-signal	640	1582035	0.0-25.25-1.25	beast_fmri_test	300	1579591,/,1580271,/,1580951,/,1581631,/,1582311,/	t,t,t,t,t	<img class = center src='/static/experiments/beast_fmri_test/images/D.png'></img>	71,89	2750.0	test	<img class = center src='/static/experiments/beast_fmri_test/images/redD.png'></img>	stop	1300.0	3.0	25.0	stop	non-target	D	71,Green Button	89,Yellow Button	1100.0	1450.0	1650.0	1300.0	0.0	1.0	1450.0	0.0	stop_stim
120740.91938653728	704.08061346268698	n/a	-1	-1	2750	704.080613463	stim	stop-signal	640	1582035	0.0-25.25-1.25	beast_fmri_test	300	1579591,/,1580271,/,1580951,/,1581631,/,1582311,/	t,t,t,t,t	<img class = center src='/static/experiments/beast_fmri_test/images/D.png'></img>	71,89	2750.0	test	<img class = center src='/static/experiments/beast_fmri_test/images/redD.png'></img>	stop	1300.0	3.0	25.0	stop	non-target	D	71,Green Button	89,Yellow Button	1100.0	1450.0	1650.0	1300.0	0.0	1.0	1450.0	0.0	ITI
122674	500	n/a	-1	-1	500	0.0	fixation	poldrack-single-stim	641	1583264	0.0-25.26-0.26	beast_fmri_test	300	1582991,/	t	<div class = centerbox><div class = fixation>+</div></div>	none	500.0	test	n/a	n/a	n/a	n/a	n/a	n/a	n/a	n/a	n/a	n/a	n/a	n/a	n/a	n/a	n/a	n/a	n/a	n/a	fixation
120411.89211383881	2750	n/a	1708	89	2750	2264.10788616	stim	stop-signal	642	1586016	0.0-25.26-1.26	beast_fmri_test	300	1583671,/,1584351,/,1585030,/,1585710,/,1586391,/,1587071,/,1587751,/	t,t,t,t,t,t,t	<img class = center src='/static/experiments/beast_fmri_test/images/T.png'></img>	71,89	2750.0	test	<img class = center src='/static/experiments/beast_fmri_test/images/redT.png'></img>	go	1250.0	3.0	26.0	go	non-target	T	71,Green Button	89,Yellow Button	1100.0	1500.0	1650.0	1250.0	1.0	n/a	1500.0	1.0	go_stim
123161.89211383881	2264.1078861610899	n/a	1708	89	2750	2264.10788616	stim	stop-signal	642	1586016	0.0-25.26-1.26	beast_fmri_test	300	1583671,/,1584351,/,1585030,/,1585710,/,1586391,/,1587071,/,1587751,/	t,t,t,t,t,t,t	<img class = center src='/static/experiments/beast_fmri_test/images/T.png'></img>	71,89	2750.0	test	<img class = center src='/static/experiments/beast_fmri_test/images/redT.png'></img>	go	1250.0	3.0	26.0	go	non-target	T	71,Green Button	89,Yellow Button	1100.0	1500.0	1650.0	1250.0	1.0	n/a	1500.0	1.0	ITI
128216	500	n/a	-1	-1	500	0.0	fixation	poldrack-single-stim	643	1588806	0.0-25.27-0.27	beast_fmri_test	300	1588431,/	t	<div class = centerbox><div class = fixation>+</div></div>	none	500.0	test	n/a	n/a	n/a	n/a	n/a	n/a	n/a	n/a	n/a	n/a	n/a	n/a	n/a	n/a	n/a	n/a	n/a	n/a	fixation
127709.85282035917	2750	n/a	1853	89	2750	509.147179641	stim	stop-signal	644	1591559	0.0-25.27-1.27	beast_fmri_test	300	1589111,/,1589791,/,1590470,/,1591150,/,1591830,/	t,t,t,t,t	<img class = center src='/static/experiments/beast_fmri_test/images/V.png'></img>	71,89	2750.0	test	<img class = center src='/static/experiments/beast_fmri_test/images/redV.png'></img>	go	1250.0	3.0	27.0	go	non-target	V	71,Green Button	89,Yellow Button	1100.0	1500.0	1650.0	1250.0	1.0	n/a	1500.0	1.0	go_stim
130459.85282035917	509.147179640736	n/a	1853	89	2750	509.147179641	stim	stop-signal	644	1591559	0.0-25.27-1.27	beast_fmri_test	300	1589111,/,1589791,/,1590470,/,1591150,/,1591830,/	t,t,t,t,t	<img class = center src='/static/experiments/beast_fmri_test/images/V.png'></img>	71,89	2750.0	test	<img class = center src='/static/experiments/beast_fmri_test/images/redV.png'></img>	go	1250.0	3.0	27.0	go	non-target	V	71,Green Button	89,Yellow Button	1100.0	1500.0	1650.0	1250.0	1.0	n/a	1500.0	1.0	ITI
132004	500	n/a	-1	-1	500	0.0	fixation	poldrack-single-stim	645	1592594	0.0-25.28-0.28	beast_fmri_test	300	1592511,/	t	<div class = centerbox><div class = fixation>+</div></div>	none	500.0	test	n/a	n/a	n/a	n/a	n/a	n/a	n/a	n/a	n/a	n/a	n/a	n/a	n/a	n/a	n/a	n/a	n/a	n/a	fixation
129164.88685645652	2750	n/a	-1	-1	2750	2841.11314354	stim	stop-signal	646	1595346	0.0-25.28-1.28	beast_fmri_test	300	1593191,/,1593871,/,1594551,/,1595231,/,1595910,/,1596590,/,1597271,/,1597950,/	t,t,t,t,t,t,t,t	<img class = center src='/static/experiments/beast_fmri_test/images/V.png'></img>	71,89	2750.0	test	<img class = center src='/static/experiments/beast_fmri_test/images/redV.png'></img>	go	1250.0	3.0	28.0	go	non-target	V	71,Green Button	89,Yellow Button	1100.0	1500.0	1650.0	1250.0	0.0	n/a	1500.0	0.0	go_stim
131914.88685645652	2841.11314354355	n/a	-1	-1	2750	2841.11314354	stim	stop-signal	646	1595346	0.0-25.28-1.28	beast_fmri_test	300	1593191,/,1593871,/,1594551,/,1595231,/,1595910,/,1596590,/,1597271,/,1597950,/	t,t,t,t,t,t,t,t	<img class = center src='/static/experiments/beast_fmri_test/images/V.png'></img>	71,89	2750.0	test	<img class = center src='/static/experiments/beast_fmri_test/images/redV.png'></img>	go	1250.0	3.0	28.0	go	non-target	V	71,Green Button	89,Yellow Button	1100.0	1500.0	1650.0	1250.0	0.0	n/a	1500.0	0.0	ITI
138123	500	n/a	-1	-1	500	0.0	fixation	poldrack-single-stim	647	1598713	0.0-25.29-0.29	beast_fmri_test	300	1598631,/	t	<div class = centerbox><div class = fixation>+</div></div>	none	500.0	test	n/a	n/a	n/a	n/a	n/a	n/a	n/a	n/a	n/a	n/a	n/a	n/a	n/a	n/a	n/a	n/a	n/a	n/a	fixation
135441.08602398285	2750	n/a	2111	89	2750	2684.91397602	stim	stop-signal	648	1601466	0.0-25.29-1.29	beast_fmri_test	300	1599310,/,1599991,/,1600672,/,1601352,/,1602032,/,1602712,/,1603392,/,1604071,/	t,t,t,t,t,t,t,t	<img class = center src='/static/experiments/beast_fmri_test/images/P.png'></img>	71,89	2750.0	test	<img class = center src='/static/experiments/beast_fmri_test/images/redP.png'></img>	go	1250.0	3.0	29.0	go	non-target	P	71,Green Button	89,Yellow Button	1100.0	1500.0	1650.0	1250.0	1.0	n/a	1500.0	1.0	go_stim
138191.08602398285	2684.9139760170801	n/a	2111	89	2750	2684.91397602	stim	stop-signal	648	1601466	0.0-25.29-1.29	beast_fmri_test	300	1599310,/,1599991,/,1600672,/,1601352,/,1602032,/,1602712,/,1603392,/,1604071,/	t,t,t,t,t,t,t,t	<img class = center src='/static/experiments/beast_fmri_test/images/P.png'></img>	71,89	2750.0	test	<img class = center src='/static/experiments/beast_fmri_test/images/redP.png'></img>	go	1250.0	3.0	29.0	go	non-target	P	71,Green Button	89,Yellow Button	1100.0	1500.0	1650.0	1250.0	1.0	n/a	1500.0	1.0	ITI
144087	500	n/a	-1	-1	500	0.0	fixation	poldrack-single-stim	649	1604677	0.0-25.30-0.30	beast_fmri_test	300	n/a	n/a	<div class = centerbox><div class = fixation>+</div></div>	none	500.0	test	n/a	n/a	n/a	n/a	n/a	n/a	n/a	n/a	n/a	n/a	n/a	n/a	n/a	n/a	n/a	n/a	n/a	n/a	fixation
141183.13268944947	1100.0	n/a	1083	71	2750	2905.86731055	stim	stop-signal	650	1607429	0.0-25.30-1.30	beast_fmri_test	300	1604752,/,1605432,/,1606112,/,1606791,/,1607472,/,1608151,/,1608831,/,1609511,/,1610191,/	t,t,t,t,t,t,t,t,t	<img class = center src='/static/experiments/beast_fmri_test/images/V.png'></img>	71,89	2750.0	test	<img class = center src='/static/experiments/beast_fmri_test/images/redV.png'></img>	stop	1650.0	3.0	30.0	stop	target	V	71,Green Button	89,Yellow Button	1100.0	1500.0	1650.0	1250.0	0.0	0.0	1100.0	1.0	go_stim
142833.13268944947	1650.0	n/a	1083	71	2750	2905.86731055	stim	stop-signal	650	1607429	0.0-25.30-1.30	beast_fmri_test	300	1604752,/,1605432,/,1606112,/,1606791,/,1607472,/,1608151,/,1608831,/,1609511,/,1610191,/	t,t,t,t,t,t,t,t,t	<img class = center src='/static/experiments/beast_fmri_test/images/V.png'></img>	71,89	2750.0	test	<img class = center src='/static/experiments/beast_fmri_test/images/redV.png'></img>	stop	1650.0	3.0	30.0	stop	target	V	71,Green Button	89,Yellow Button	1100.0	1500.0	1650.0	1250.0	0.0	0.0	1100.0	1.0	stop_stim
143933.13268944947	2905.86731055062	n/a	1083	71	2750	2905.86731055	stim	stop-signal	650	1607429	0.0-25.30-1.30	beast_fmri_test	300	1604752,/,1605432,/,1606112,/,1606791,/,1607472,/,1608151,/,1608831,/,1609511,/,1610191,/	t,t,t,t,t,t,t,t,t	<img class = center src='/static/experiments/beast_fmri_test/images/V.png'></img>	71,89	2750.0	test	<img class = center src='/static/experiments/beast_fmri_test/images/redV.png'></img>	stop	1650.0	3.0	30.0	stop	target	V	71,Green Button	89,Yellow Button	1100.0	1500.0	1650.0	1250.0	0.0	0.0	1100.0	1.0	ITI
150268	500	n/a	-1	-1	500	0.0	fixation	poldrack-single-stim	651	1610858	0.0-25.31-0.31	beast_fmri_test	300	n/a	n/a	<div class = centerbox><div class = fixation>+</div></div>	none	500.0	test	n/a	n/a	n/a	n/a	n/a	n/a	n/a	n/a	n/a	n/a	n/a	n/a	n/a	n/a	n/a	n/a	n/a	n/a	fixation
145505.04644532618	2750	n/a	1391	89	2750	4764.95355467	stim	stop-signal	652	1613610	0.0-25.31-1.31	beast_fmri_test	300	1610872,/,1611552,/,1612232,/,1612911,/,1613592,/,1614271,/,1614951,/,1615631,/,1616311,/,1616991,/,1617671,/,1618351,/	t,t,t,t,t,t,t,t,t,t,t,t	<img class = center src='/static/experiments/beast_fmri_test/images/D.png'></img>	71,89	2750.0	test	<img class = center src='/static/experiments/beast_fmri_test/images/redD.png'></img>	go	1250.0	3.0	31.0	go	non-target	D	71,Green Button	89,Yellow Button	1050.0	1500.0	1650.0	1250.0	1.0	n/a	1500.0	1.0	go_stim
148255.04644532618	4764.9535546739198	n/a	1391	89	2750	4764.95355467	stim	stop-signal	652	1613610	0.0-25.31-1.31	beast_fmri_test	300	1610872,/,1611552,/,1612232,/,1612911,/,1613592,/,1614271,/,1614951,/,1615631,/,1616311,/,1616991,/,1617671,/,1618351,/	t,t,t,t,t,t,t,t,t,t,t,t	<img class = center src='/static/experiments/beast_fmri_test/images/D.png'></img>	71,89	2750.0	test	<img class = center src='/static/experiments/beast_fmri_test/images/redD.png'></img>	go	1250.0	3.0	31.0	go	non-target	D	71,Green Button	89,Yellow Button	1050.0	1500.0	1650.0	1250.0	1.0	n/a	1500.0	1.0	ITI
158310	500	n/a	-1	-1	500	0.0	fixation	poldrack-single-stim	653	1618900	0.0-25.32-0.32	beast_fmri_test	300	n/a	n/a	<div class = centerbox><div class = fixation>+</div></div>	none	500.0	test	n/a	n/a	n/a	n/a	n/a	n/a	n/a	n/a	n/a	n/a	n/a	n/a	n/a	n/a	n/a	n/a	n/a	n/a	fixation
158255.34364523529	1500.0	n/a	1486	89	2750	57.6563547648	stim	stop-signal	654	1621653	0.0-25.32-1.32	beast_fmri_test	300	1619031,/,1619711,/,1620391,/,1621071,/	t,t,t,t	<img class = center src='/static/experiments/beast_fmri_test/images/V.png'></img>	71,89	2750.0	test	<img class = center src='/static/experiments/beast_fmri_test/images/redV.png'></img>	stop	1250.0	3.0	32.0	stop	non-target	V	71,Green Button	89,Yellow Button	1050.0	1500.0	1650.0	1250.0	0.0	0.0	1500.0	1.0	go_stim
159505.34364523529	1250.0	n/a	1486	89	2750	57.6563547648	stim	stop-signal	654	1621653	0.0-25.32-1.32	beast_fmri_test	300	1619031,/,1619711,/,1620391,/,1621071,/	t,t,t,t	<img class = center src='/static/experiments/beast_fmri_test/images/V.png'></img>	71,89	2750.0	test	<img class = center src='/static/experiments/beast_fmri_test/images/redV.png'></img>	stop	1250.0	3.0	32.0	stop	non-target	V	71,Green Button	89,Yellow Button	1050.0	1500.0	1650.0	1250.0	0.0	0.0	1500.0	1.0	stop_stim
161005.34364523529	57.656354764755299	n/a	1486	89	2750	57.6563547648	stim	stop-signal	654	1621653	0.0-25.32-1.32	beast_fmri_test	300	1619031,/,1619711,/,1620391,/,1621071,/	t,t,t,t	<img class = center src='/static/experiments/beast_fmri_test/images/V.png'></img>	71,89	2750.0	test	<img class = center src='/static/experiments/beast_fmri_test/images/redV.png'></img>	stop	1250.0	3.0	32.0	stop	non-target	V	71,Green Button	89,Yellow Button	1050.0	1500.0	1650.0	1250.0	0.0	0.0	1500.0	1.0	ITI
161644	500	n/a	-1	-1	500	0.0	fixation	poldrack-single-stim	655	1622234	0.0-25.33-0.33	beast_fmri_test	300	1621751,/	t	<div class = centerbox><div class = fixation>+</div></div>	none	500.0	test	n/a	n/a	n/a	n/a	n/a	n/a	n/a	n/a	n/a	n/a	n/a	n/a	n/a	n/a	n/a	n/a	n/a	n/a	fixation
161404.90085193282	1450.0	n/a	-1	-1	2750	241.099148067	stim	stop-signal	656	1624986	0.0-25.33-1.33	beast_fmri_test	300	1622431,/,1623111,/,1623792,/,1624471,/,1625151,/	t,t,t,t,t	<img class = center src='/static/experiments/beast_fmri_test/images/D.png'></img>	71,89	2750.0	test	<img class = center src='/static/experiments/beast_fmri_test/images/redD.png'></img>	stop	1300.0	3.0	33.0	stop	non-target	D	71,Green Button	89,Yellow Button	1050.0	1450.0	1650.0	1300.0	0.0	1.0	1450.0	0.0	go_stim
162704.90085193282	1300.0	n/a	-1	-1	2750	241.099148067	stim	stop-signal	656	1624986	0.0-25.33-1.33	beast_fmri_test	300	1622431,/,1623111,/,1623792,/,1624471,/,1625151,/	t,t,t,t,t	<img class = center src='/static/experiments/beast_fmri_test/images/D.png'></img>	71,89	2750.0	test	<img class = center src='/static/experiments/beast_fmri_test/images/redD.png'></img>	stop	1300.0	3.0	33.0	stop	non-target	D	71,Green Button	89,Yellow Button	1050.0	1450.0	1650.0	1300.0	0.0	1.0	1450.0	0.0	stop_stim
164154.90085193282	241.09914806718001	n/a	-1	-1	2750	241.099148067	stim	stop-signal	656	1624986	0.0-25.33-1.33	beast_fmri_test	300	1622431,/,1623111,/,1623792,/,1624471,/,1625151,/	t,t,t,t,t	<img class = center src='/static/experiments/beast_fmri_test/images/D.png'></img>	71,89	2750.0	test	<img class = center src='/static/experiments/beast_fmri_test/images/redD.png'></img>	stop	1300.0	3.0	33.0	stop	non-target	D	71,Green Button	89,Yellow Button	1050.0	1450.0	1650.0	1300.0	0.0	1.0	1450.0	0.0	ITI
165161	500	n/a	-1	-1	500	0.0	fixation	poldrack-single-stim	657	1625751	0.0-25.34-0.34	beast_fmri_test	300	n/a	n/a	<div class = centerbox><div class = fixation>+</div></div>	none	500.0	test	n/a	n/a	n/a	n/a	n/a	n/a	n/a	n/a	n/a	n/a	n/a	n/a	n/a	n/a	n/a	n/a	n/a	n/a	fixation
165136.20558414562	2750	n/a	1717	89	2750	26.7944158543	stim	stop-signal	658	1628503	0.0-25.34-1.34	beast_fmri_test	300	1625831,/,1626511,/,1627191,/,1627871,/	t,t,t,t	<img class = center src='/static/experiments/beast_fmri_test/images/D.png'></img>	71,89	2750.0	test	<img class = center src='/static/experiments/beast_fmri_test/images/redD.png'></img>	go	1700.0	3.0	34.0	go	target	D	71,Green Button	89,Yellow Button	1050.0	1500.0	1700.0	1300.0	0.0	n/a	1050.0	0.0	go_stim
167886.20558414562	26.7944158543405	n/a	1717	89	2750	26.7944158543	stim	stop-signal	658	1628503	0.0-25.34-1.34	beast_fmri_test	300	1625831,/,1626511,/,1627191,/,1627871,/	t,t,t,t	<img class = center src='/static/experiments/beast_fmri_test/images/D.png'></img>	71,89	2750.0	test	<img class = center src='/static/experiments/beast_fmri_test/images/redD.png'></img>	go	1700.0	3.0	34.0	go	target	D	71,Green Button	89,Yellow Button	1050.0	1500.0	1700.0	1300.0	0.0	n/a	1050.0	0.0	ITI
168460	500	n/a	-1	-1	500	0.0	fixation	poldrack-single-stim	659	1629050	0.0-25.35-0.35	beast_fmri_test	300	1628551,/	t	<div class = centerbox><div class = fixation>+</div></div>	none	500.0	test	n/a	n/a	n/a	n/a	n/a	n/a	n/a	n/a	n/a	n/a	n/a	n/a	n/a	n/a	n/a	n/a	n/a	n/a	fixation
168292.91193608567	2750	n/a	1392	71	2750	169.088063914	stim	stop-signal	660	1631802	0.0-25.35-1.35	beast_fmri_test	300	1629231,/,1629911,/,1630591,/,1631272,/,1631952,/	t,t,t,t,t	<img class = center src='/static/experiments/beast_fmri_test/images/V.png'></img>	71,89	2750.0	test	<img class = center src='/static/experiments/beast_fmri_test/images/redV.png'></img>	go	1700.0	3.0	35.0	go	target	V	71,Green Button	89,Yellow Button	1050.0	1500.0	1700.0	1300.0	1.0	n/a	1050.0	1.0	go_stim
171042.91193608567	169.08806391433501	n/a	1392	71	2750	169.088063914	stim	stop-signal	660	1631802	0.0-25.35-1.35	beast_fmri_test	300	1629231,/,1629911,/,1630591,/,1631272,/,1631952,/	t,t,t,t,t	<img class = center src='/static/experiments/beast_fmri_test/images/V.png'></img>	71,89	2750.0	test	<img class = center src='/static/experiments/beast_fmri_test/images/redV.png'></img>	go	1700.0	3.0	35.0	go	target	V	71,Green Button	89,Yellow Button	1050.0	1500.0	1700.0	1300.0	1.0	n/a	1050.0	1.0	ITI
171902	500	n/a	-1	-1	500	0.0	fixation	poldrack-single-stim	661	1632492	0.0-25.36-0.36	beast_fmri_test	300	n/a	n/a	<div class = centerbox><div class = fixation>+</div></div>	none	500.0	test	n/a	n/a	n/a	n/a	n/a	n/a	n/a	n/a	n/a	n/a	n/a	n/a	n/a	n/a	n/a	n/a	n/a	n/a	fixation
171689.59962099954	2750	n/a	1759	71	2750	214.400379001	stim	stop-signal	662	1635244	0.0-25.36-1.36	beast_fmri_test	300	1632632,/,1633312,/,1633993,/,1634672,/,1635352,/	t,t,t,t,t	<img class = center src='/static/experiments/beast_fmri_test/images/D.png'></img>	71,89	2750.0	test	<img class = center src='/static/experiments/beast_fmri_test/images/redD.png'></img>	go	1700.0	3.0	36.0	go	target	D	71,Green Button	89,Yellow Button	1050.0	1500.0	1700.0	1300.0	1.0	n/a	1050.0	1.0	go_stim
174439.59962099954	214.40037900052701	n/a	1759	71	2750	214.400379001	stim	stop-signal	662	1635244	0.0-25.36-1.36	beast_fmri_test	300	1632632,/,1633312,/,1633993,/,1634672,/,1635352,/	t,t,t,t,t	<img class = center src='/static/experiments/beast_fmri_test/images/D.png'></img>	71,89	2750.0	test	<img class = center src='/static/experiments/beast_fmri_test/images/redD.png'></img>	go	1700.0	3.0	36.0	go	target	D	71,Green Button	89,Yellow Button	1050.0	1500.0	1700.0	1300.0	1.0	n/a	1050.0	1.0	ITI
175394	500	n/a	-1	-1	500	0.0	fixation	poldrack-single-stim	663	1635984	0.0-25.37-0.37	beast_fmri_test	300	n/a	n/a	<div class = centerbox><div class = fixation>+</div></div>	none	500.0	test	n/a	n/a	n/a	n/a	n/a	n/a	n/a	n/a	n/a	n/a	n/a	n/a	n/a	n/a	n/a	n/a	n/a	n/a	fixation
175338.6144979028	2750	n/a	1737	71	2750	56.3855020972	stim	stop-signal	664	1638735	0.0-25.37-1.37	beast_fmri_test	300	1636032,/,1636712,/,1637392,/,1638071,/,1638752,/	t,t,t,t,t	<img class = center src='/static/experiments/beast_fmri_test/images/D.png'></img>	71,89	2750.0	test	<img class = center src='/static/experiments/beast_fmri_test/images/redD.png'></img>	go	1700.0	3.0	37.0	go	target	D	71,Green Button	89,Yellow Button	1050.0	1500.0	1700.0	1300.0	1.0	n/a	1050.0	1.0	go_stim
178088.6144979028	56.385502097196799	n/a	1737	71	2750	56.3855020972	stim	stop-signal	664	1638735	0.0-25.37-1.37	beast_fmri_test	300	1636032,/,1636712,/,1637392,/,1638071,/,1638752,/	t,t,t,t,t	<img class = center src='/static/experiments/beast_fmri_test/images/D.png'></img>	71,89	2750.0	test	<img class = center src='/static/experiments/beast_fmri_test/images/redD.png'></img>	go	1700.0	3.0	37.0	go	target	D	71,Green Button	89,Yellow Button	1050.0	1500.0	1700.0	1300.0	1.0	n/a	1050.0	1.0	ITI
178730	500	n/a	-1	-1	500	0.0	fixation	poldrack-single-stim	665	1639320	0.0-25.38-0.38	beast_fmri_test	300	n/a	n/a	<div class = centerbox><div class = fixation>+</div></div>	none	500.0	test	n/a	n/a	n/a	n/a	n/a	n/a	n/a	n/a	n/a	n/a	n/a	n/a	n/a	n/a	n/a	n/a	n/a	n/a	fixation
177629.09021180519	1050.0	n/a	-1	-1	2750	1102.90978819	stim	stop-signal	666	1642072	0.0-25.38-1.38	beast_fmri_test	300	1639432,/,1640112,/,1640792,/,1641472,/,1642152,/,1642831,/	t,t,t,t,t,t	<img class = center src='/static/experiments/beast_fmri_test/images/V.png'></img>	71,89	2750.0	test	<img class = center src='/static/experiments/beast_fmri_test/images/redV.png'></img>	stop	1700.0	3.0	38.0	stop	target	V	71,Green Button	89,Yellow Button	1050.0	1500.0	1700.0	1300.0	0.0	1.0	1050.0	0.0	go_stim
179329.09021180519	1700.0	n/a	-1	-1	2750	1102.90978819	stim	stop-signal	666	1642072	0.0-25.38-1.38	beast_fmri_test	300	1639432,/,1640112,/,1640792,/,1641472,/,1642152,/,1642831,/	t,t,t,t,t,t	<img class = center src='/static/experiments/beast_fmri_test/images/V.png'></img>	71,89	2750.0	test	<img class = center src='/static/experiments/beast_fmri_test/images/redV.png'></img>	stop	1700.0	3.0	38.0	stop	target	V	71,Green Button	89,Yellow Button	1050.0	1500.0	1700.0	1300.0	0.0	1.0	1050.0	0.0	stop_stim
180379.09021180519	1102.9097881948701	n/a	-1	-1	2750	1102.90978819	stim	stop-signal	666	1642072	0.0-25.38-1.38	beast_fmri_test	300	1639432,/,1640112,/,1640792,/,1641472,/,1642152,/,1642831,/	t,t,t,t,t,t	<img class = center src='/static/experiments/beast_fmri_test/images/V.png'></img>	71,89	2750.0	test	<img class = center src='/static/experiments/beast_fmri_test/images/redV.png'></img>	stop	1700.0	3.0	38.0	stop	target	V	71,Green Button	89,Yellow Button	1050.0	1500.0	1700.0	1300.0	0.0	1.0	1050.0	0.0	ITI
183109	500	n/a	-1	-1	500	0.0	fixation	poldrack-single-stim	667	1643699	0.0-25.39-0.39	beast_fmri_test	300	1643512,/	t	<div class = centerbox><div class = fixation>+</div></div>	none	500.0	test	n/a	n/a	n/a	n/a	n/a	n/a	n/a	n/a	n/a	n/a	n/a	n/a	n/a	n/a	n/a	n/a	n/a	n/a	fixation
182636.89151516627	2750	n/a	1766	89	2750	473.108484834	stim	stop-signal	668	1646450	0.0-25.39-1.39	beast_fmri_test	300	1644192,/,1644872,/,1645552,/,1646232,/,1646912,/	t,t,t,t,t	<img class = center src='/static/experiments/beast_fmri_test/images/P.png'></img>	71,89	2750.0	test	<img class = center src='/static/experiments/beast_fmri_test/images/redP.png'></img>	go	1250.0	3.0	39.0	go	non-target	P	71,Green Button	89,Yellow Button	1100.0	1500.0	1700.0	1250.0	1.0	n/a	1500.0	1.0	go_stim
185386.89151516627	473.10848483379601	n/a	1766	89	2750	473.108484834	stim	stop-signal	668	1646450	0.0-25.39-1.39	beast_fmri_test	300	1644192,/,1644872,/,1645552,/,1646232,/,1646912,/	t,t,t,t,t	<img class = center src='/static/experiments/beast_fmri_test/images/P.png'></img>	71,89	2750.0	test	<img class = center src='/static/experiments/beast_fmri_test/images/redP.png'></img>	go	1250.0	3.0	39.0	go	non-target	P	71,Green Button	89,Yellow Button	1100.0	1500.0	1700.0	1250.0	1.0	n/a	1500.0	1.0	ITI
186856	500	n/a	-1	-1	500	0.0	fixation	poldrack-single-stim	669	1647446	0.0-25.40-0.40	beast_fmri_test	300	n/a	n/a	<div class = centerbox><div class = fixation>+</div></div>	none	500.0	test	n/a	n/a	n/a	n/a	n/a	n/a	n/a	n/a	n/a	n/a	n/a	n/a	n/a	n/a	n/a	n/a	n/a	n/a	fixation
186121.11479870626	1500.0	n/a	-1	-1	2750	737.885201294	stim	stop-signal	670	1650199	0.0-25.40-1.40	beast_fmri_test	300	1647592,/,1648272,/,1648951,/,1649632,/,1650312,/	t,t,t,t,t	<img class = center src='/static/experiments/beast_fmri_test/images/B.png'></img>	71,89	2750.0	test	<img class = center src='/static/experiments/beast_fmri_test/images/redB.png'></img>	stop	1250.0	3.0	40.0	stop	non-target	B	71,Green Button	89,Yellow Button	1100.0	1500.0	1700.0	1250.0	0.0	1.0	1500.0	0.0	go_stim
187371.11479870626	1250.0	n/a	-1	-1	2750	737.885201294	stim	stop-signal	670	1650199	0.0-25.40-1.40	beast_fmri_test	300	1647592,/,1648272,/,1648951,/,1649632,/,1650312,/	t,t,t,t,t	<img class = center src='/static/experiments/beast_fmri_test/images/B.png'></img>	71,89	2750.0	test	<img class = center src='/static/experiments/beast_fmri_test/images/redB.png'></img>	stop	1250.0	3.0	40.0	stop	non-target	B	71,Green Button	89,Yellow Button	1100.0	1500.0	1700.0	1250.0	0.0	1.0	1500.0	0.0	stop_stim
188871.11479870626	737.88520129385097	n/a	-1	-1	2750	737.885201294	stim	stop-signal	670	1650199	0.0-25.40-1.40	beast_fmri_test	300	1647592,/,1648272,/,1648951,/,1649632,/,1650312,/	t,t,t,t,t	<img class = center src='/static/experiments/beast_fmri_test/images/B.png'></img>	71,89	2750.0	test	<img class = center src='/static/experiments/beast_fmri_test/images/redB.png'></img>	stop	1250.0	3.0	40.0	stop	non-target	B	71,Green Button	89,Yellow Button	1100.0	1500.0	1700.0	1250.0	0.0	1.0	1500.0	0.0	ITI
190871	500	n/a	-1	-1	500	0.0	fixation	poldrack-single-stim	671	1651461	0.0-25.41-0.41	beast_fmri_test	300	1650992,/	t	<div class = centerbox><div class = fixation>+</div></div>	none	500.0	test	n/a	n/a	n/a	n/a	n/a	n/a	n/a	n/a	n/a	n/a	n/a	n/a	n/a	n/a	n/a	n/a	n/a	n/a	fixation
190714.2624119618	1500.0	n/a	-1	-1	2750	158.737588038	stim	stop-signal	672	1654213	0.0-25.41-1.41	beast_fmri_test	300	1651672,/,1652352,/,1653031,/,1653712,/	t,t,t,t	<img class = center src='/static/experiments/beast_fmri_test/images/T.png'></img>	71,89	2750.0	test	<img class = center src='/static/experiments/beast_fmri_test/images/redT.png'></img>	stop	1250.0	3.0	41.0	stop	non-target	T	71,Green Button	89,Yellow Button	1100.0	1500.0	1700.0	1250.0	0.0	1.0	1500.0	0.0	go_stim
191964.2624119618	1250.0	n/a	-1	-1	2750	158.737588038	stim	stop-signal	672	1654213	0.0-25.41-1.41	beast_fmri_test	300	1651672,/,1652352,/,1653031,/,1653712,/	t,t,t,t	<img class = center src='/static/experiments/beast_fmri_test/images/T.png'></img>	71,89	2750.0	test	<img class = center src='/static/experiments/beast_fmri_test/images/redT.png'></img>	stop	1250.0	3.0	41.0	stop	non-target	T	71,Green Button	89,Yellow Button	1100.0	1500.0	1700.0	1250.0	0.0	1.0	1500.0	0.0	stop_stim
193464.2624119618	158.73758803812501	n/a	-1	-1	2750	158.737588038	stim	stop-signal	672	1654213	0.0-25.41-1.41	beast_fmri_test	300	1651672,/,1652352,/,1653031,/,1653712,/	t,t,t,t	<img class = center src='/static/experiments/beast_fmri_test/images/T.png'></img>	71,89	2750.0	test	<img class = center src='/static/experiments/beast_fmri_test/images/redT.png'></img>	stop	1250.0	3.0	41.0	stop	non-target	T	71,Green Button	89,Yellow Button	1100.0	1500.0	1700.0	1250.0	0.0	1.0	1500.0	0.0	ITI
194305	500	n/a	-1	-1	500	0.0	fixation	poldrack-single-stim	673	1654895	0.0-25.42-0.42	beast_fmri_test	300	1654395,/	t	<div class = centerbox><div class = fixation>+</div></div>	none	500.0	test	n/a	n/a	n/a	n/a	n/a	n/a	n/a	n/a	n/a	n/a	n/a	n/a	n/a	n/a	n/a	n/a	n/a	n/a	fixation
191752.74988900288	1100.0	n/a	-1	-1	2750	2554.250111	stim	stop-signal	674	1657647	0.0-25.42-1.42	beast_fmri_test	300	1655072,/,1655752,/,1656432,/,1657112,/,1657792,/,1658472,/,1659152,/,1659832,/	t,t,t,t,t,t,t,t	<img class = center src='/static/experiments/beast_fmri_test/images/P.png'></img>	71,89	2750.0	test	<img class = center src='/static/experiments/beast_fmri_test/images/redP.png'></img>	stop	1650.0	3.0	42.0	stop	target	P	71,Green Button	89,Yellow Button	1100.0	1500.0	1650.0	1250.0	0.0	1.0	1100.0	0.0	go_stim
193402.74988900288	1650.0	n/a	-1	-1	2750	2554.250111	stim	stop-signal	674	1657647	0.0-25.42-1.42	beast_fmri_test	300	1655072,/,1655752,/,1656432,/,1657112,/,1657792,/,1658472,/,1659152,/,1659832,/	t,t,t,t,t,t,t,t	<img class = center src='/static/experiments/beast_fmri_test/images/P.png'></img>	71,89	2750.0	test	<img class = center src='/static/experiments/beast_fmri_test/images/redP.png'></img>	stop	1650.0	3.0	42.0	stop	target	P	71,Green Button	89,Yellow Button	1100.0	1500.0	1650.0	1250.0	0.0	1.0	1100.0	0.0	stop_stim
194502.74988900288	2554.2501109972	n/a	-1	-1	2750	2554.250111	stim	stop-signal	674	1657647	0.0-25.42-1.42	beast_fmri_test	300	1655072,/,1655752,/,1656432,/,1657112,/,1657792,/,1658472,/,1659152,/,1659832,/	t,t,t,t,t,t,t,t	<img class = center src='/static/experiments/beast_fmri_test/images/P.png'></img>	71,89	2750.0	test	<img class = center src='/static/experiments/beast_fmri_test/images/redP.png'></img>	stop	1650.0	3.0	42.0	stop	target	P	71,Green Button	89,Yellow Button	1100.0	1500.0	1650.0	1250.0	0.0	1.0	1100.0	0.0	ITI
200137	500	n/a	-1	-1	500	0.0	fixation	poldrack-single-stim	675	1660727	0.0-25.43-0.43	beast_fmri_test	300	1660512,/	t	<div class = centerbox><div class = fixation>+</div></div>	none	500.0	test	n/a	n/a	n/a	n/a	n/a	n/a	n/a	n/a	n/a	n/a	n/a	n/a	n/a	n/a	n/a	n/a	n/a	n/a	fixation
199802.58324592258	2750	n/a	1037	71	2750	335.416754077	stim	stop-signal	676	1663478	0.0-25.43-1.43	beast_fmri_test	300	1661192,/,1661872,/,1662551,/,1663231,/	t,t,t,t	<img class = center src='/static/experiments/beast_fmri_test/images/B.png'></img>	71,89	2750.0	test	<img class = center src='/static/experiments/beast_fmri_test/images/redB.png'></img>	go	1600.0	3.0	43.0	go	target	B	71,Green Button	89,Yellow Button	1150.0	1500.0	1600.0	1250.0	1.0	n/a	1150.0	1.0	go_stim
202552.58324592258	335.41675407732401	n/a	1037	71	2750	335.416754077	stim	stop-signal	676	1663478	0.0-25.43-1.43	beast_fmri_test	300	1661192,/,1661872,/,1662551,/,1663231,/	t,t,t,t	<img class = center src='/static/experiments/beast_fmri_test/images/B.png'></img>	71,89	2750.0	test	<img class = center src='/static/experiments/beast_fmri_test/images/redB.png'></img>	go	1600.0	3.0	43.0	go	target	B	71,Green Button	89,Yellow Button	1150.0	1500.0	1600.0	1250.0	1.0	n/a	1150.0	1.0	ITI
203748	500	n/a	-1	-1	500	0.0	fixation	poldrack-single-stim	677	1664338	0.0-25.44-0.44	beast_fmri_test	300	1663912,/	t	<div class = centerbox><div class = fixation>+</div></div>	none	500.0	test	n/a	n/a	n/a	n/a	n/a	n/a	n/a	n/a	n/a	n/a	n/a	n/a	n/a	n/a	n/a	n/a	n/a	n/a	fixation
202322.07965665474	2750	n/a	2652	89	2750	1428.92034335	stim	stop-signal	678	1667091	0.0-25.44-1.44	beast_fmri_test	300	1664593,/,1665273,/,1665953,/,1666633,/,1667312,/,1667992,/	t,t,t,t,t,t	<img class = center src='/static/experiments/beast_fmri_test/images/D.png'></img>	71,89	2750.0	test	<img class = center src='/static/experiments/beast_fmri_test/images/redD.png'></img>	go	1250.0	3.0	44.0	go	non-target	D	71,Green Button	89,Yellow Button	1150.0	1500.0	1600.0	1250.0	1.0	n/a	1500.0	1.0	go_stim
205072.07965665474	1428.9203433453699	n/a	2652	89	2750	1428.92034335	stim	stop-signal	678	1667091	0.0-25.44-1.44	beast_fmri_test	300	1664593,/,1665273,/,1665953,/,1666633,/,1667312,/,1667992,/	t,t,t,t,t,t	<img class = center src='/static/experiments/beast_fmri_test/images/D.png'></img>	71,89	2750.0	test	<img class = center src='/static/experiments/beast_fmri_test/images/redD.png'></img>	go	1250.0	3.0	44.0	go	non-target	D	71,Green Button	89,Yellow Button	1150.0	1500.0	1600.0	1250.0	1.0	n/a	1500.0	1.0	ITI
208454	500	n/a	-1	-1	500	0.0	fixation	poldrack-single-stim	679	1669044	0.0-25.45-0.45	beast_fmri_test	300	1668673,/	t	<div class = centerbox><div class = fixation>+</div></div>	none	500.0	test	n/a	n/a	n/a	n/a	n/a	n/a	n/a	n/a	n/a	n/a	n/a	n/a	n/a	n/a	n/a	n/a	n/a	n/a	fixation
205817.36221264116	2750	n/a	2400	89	2750	2638.63778736	stim	stop-signal	680	1671796	0.0-25.45-1.45	beast_fmri_test	300	1669353,/,1670032,/,1670712,/,1671393,/,1672072,/,1672752,/,1673432,/,1674112,/	t,t,t,t,t,t,t,t	<img class = center src='/static/experiments/beast_fmri_test/images/V.png'></img>	71,89	2750.0	test	<img class = center src='/static/experiments/beast_fmri_test/images/redV.png'></img>	go	1250.0	3.0	45.0	go	non-target	V	71,Green Button	89,Yellow Button	1150.0	1500.0	1600.0	1250.0	1.0	n/a	1500.0	1.0	go_stim
208567.36221264116	2638.6377873588399	n/a	2400	89	2750	2638.63778736	stim	stop-signal	680	1671796	0.0-25.45-1.45	beast_fmri_test	300	1669353,/,1670032,/,1670712,/,1671393,/,1672072,/,1672752,/,1673432,/,1674112,/	t,t,t,t,t,t,t,t	<img class = center src='/static/experiments/beast_fmri_test/images/V.png'></img>	71,89	2750.0	test	<img class = center src='/static/experiments/beast_fmri_test/images/redV.png'></img>	go	1250.0	3.0	45.0	go	non-target	V	71,Green Button	89,Yellow Button	1150.0	1500.0	1600.0	1250.0	1.0	n/a	1500.0	1.0	ITI
214371	500	n/a	-1	-1	500	0.0	fixation	poldrack-single-stim	681	1674961	0.0-25.46-0.46	beast_fmri_test	300	1674793,/	t	<div class = centerbox><div class = fixation>+</div></div>	none	500.0	test	n/a	n/a	n/a	n/a	n/a	n/a	n/a	n/a	n/a	n/a	n/a	n/a	n/a	n/a	n/a	n/a	n/a	n/a	fixation
213322.59043741389	2750	n/a	1728	89	2750	1050.40956259	stim	stop-signal	682	1677713	0.0-25.46-1.46	beast_fmri_test	300	1675472,/,1676152,/,1676832,/,1677512,/,1678192,/	t,t,t,t,t	<img class = center src='/static/experiments/beast_fmri_test/images/B.png'></img>	71,89	2750.0	test	<img class = center src='/static/experiments/beast_fmri_test/images/redB.png'></img>	go	1600.0	3.0	46.0	go	target	B	71,Green Button	89,Yellow Button	1150.0	1500.0	1600.0	1250.0	0.0	n/a	1150.0	0.0	go_stim
216072.59043741389	1050.4095625861501	n/a	1728	89	2750	1050.40956259	stim	stop-signal	682	1677713	0.0-25.46-1.46	beast_fmri_test	300	1675472,/,1676152,/,1676832,/,1677512,/,1678192,/	t,t,t,t,t	<img class = center src='/static/experiments/beast_fmri_test/images/B.png'></img>	71,89	2750.0	test	<img class = center src='/static/experiments/beast_fmri_test/images/redB.png'></img>	go	1600.0	3.0	46.0	go	target	B	71,Green Button	89,Yellow Button	1150.0	1500.0	1600.0	1250.0	0.0	n/a	1150.0	0.0	ITI
218699	500	n/a	-1	-1	500	0.0	fixation	poldrack-single-stim	683	1679289	0.0-25.47-0.47	beast_fmri_test	300	1678873,/	t	<div class = centerbox><div class = fixation>+</div></div>	none	500.0	test	n/a	n/a	n/a	n/a	n/a	n/a	n/a	n/a	n/a	n/a	n/a	n/a	n/a	n/a	n/a	n/a	n/a	n/a	fixation
218672.65996045922	2750	n/a	1877	89	2750	28.3400395408	stim	stop-signal	684	1682041	0.0-25.47-1.47	beast_fmri_test	300	1679552,/,1680232,/,1680912,/,1681592,/	t,t,t,t	<img class = center src='/static/experiments/beast_fmri_test/images/B.png'></img>	71,89	2750.0	test	<img class = center src='/static/experiments/beast_fmri_test/images/redB.png'></img>	go	1250.0	3.0	47.0	go	non-target	B	71,Green Button	89,Yellow Button	1150.0	1500.0	1600.0	1250.0	1.0	n/a	1500.0	1.0	go_stim
221422.65996045922	28.340039540840699	n/a	1877	89	2750	28.3400395408	stim	stop-signal	684	1682041	0.0-25.47-1.47	beast_fmri_test	300	1679552,/,1680232,/,1680912,/,1681592,/	t,t,t,t	<img class = center src='/static/experiments/beast_fmri_test/images/B.png'></img>	71,89	2750.0	test	<img class = center src='/static/experiments/beast_fmri_test/images/redB.png'></img>	go	1250.0	3.0	47.0	go	non-target	B	71,Green Button	89,Yellow Button	1150.0	1500.0	1600.0	1250.0	1.0	n/a	1500.0	1.0	ITI
236502	15000	n/a	-1	-1	15000	0.0	practice-no-stop-feedback	poldrack-single-stim	685	1697092	0.0-26.0	beast_fmri_test	300	1682272,/,1682952,/,1683632,/,1684312,/,1684993,/,1685672,/,1686352,/,1687032,/,1687712,/,1688392,/,1689072,/,1689752,/,1690432,/,1691112,/,1691792,/,1692472,/,1693152,/,1693832,/,1694512,/,1695245,/,1695872,/,1696552,/	t,t,t,t,t,t,t,t,t,t,t,t,t,t,t,t,t,t,t,t,t,t	"<div class = ""centerbox""><p class = ""center-block-text"">Your delay is 2 trials.</p><p class = center-block-text>Please wait for the scanner to start the block</p></div>"	77	15000.0	n/a	n/a	n/a	n/a	n/a	n/a	n/a	n/a	n/a	n/a	n/a	n/a	n/a	n/a	n/a	n/a	n/a	n/a	n/a	practice-no-stop-feedback
237004	500	n/a	-1	-1	500	0.0	fixation	poldrack-single-stim	686	1697594	0.0-27.0-0.0	beast_fmri_test	300	1697232,/	t	<div class = centerbox><div class = fixation>+</div></div>	none	500.0	test	n/a	n/a	n/a	n/a	n/a	n/a	n/a	n/a	n/a	n/a	n/a	n/a	n/a	n/a	n/a	n/a	n/a	n/a	fixation
236475.56388926203	2750	n/a	1196	89	2750	530.436110738	stim	stop-signal	687	1700346	0.0-27.0-1.0	beast_fmri_test	300	1697913,/,1698593,/,1699273,/,1699953,/,1700633,/	t,t,t,t,t	<img class = center src='/static/experiments/beast_fmri_test/images/V.png'></img>	71,89	2750.0	test	<img class = center src='/static/experiments/beast_fmri_test/images/redV.png'></img>	go	-1.0	2.0	0.0	go	temp-non-target	V	71,Green Button	89,Yellow Button	1150.0	1500.0	1600.0	1250.0	0.0	n/a	n/a	n/a	go_stim
239225.56388926203	530.43611073799298	n/a	1196	89	2750	530.436110738	stim	stop-signal	687	1700346	0.0-27.0-1.0	beast_fmri_test	300	1697913,/,1698593,/,1699273,/,1699953,/,1700633,/	t,t,t,t,t	<img class = center src='/static/experiments/beast_fmri_test/images/V.png'></img>	71,89	2750.0	test	<img class = center src='/static/experiments/beast_fmri_test/images/redV.png'></img>	go	-1.0	2.0	0.0	go	temp-non-target	V	71,Green Button	89,Yellow Button	1150.0	1500.0	1600.0	1250.0	0.0	n/a	n/a	n/a	ITI
240811	500	n/a	-1	-1	500	0.0	fixation	poldrack-single-stim	688	1701401	0.0-27.1-0.1	beast_fmri_test	300	1701313,/	t	<div class = centerbox><div class = fixation>+</div></div>	none	500.0	test	n/a	n/a	n/a	n/a	n/a	n/a	n/a	n/a	n/a	n/a	n/a	n/a	n/a	n/a	n/a	n/a	n/a	n/a	fixation
240122.0536708287	2750	n/a	1157	89	2750	690.946329171	stim	stop-signal	689	1704153	0.0-27.1-1.1	beast_fmri_test	300	1701993,/,1702673,/,1703353,/,1704033,/,1704713,/	t,t,t,t,t	<img class = center src='/static/experiments/beast_fmri_test/images/B.png'></img>	71,89	2750.0	test	<img class = center src='/static/experiments/beast_fmri_test/images/redB.png'></img>	go	-1.0	2.0	1.0	go	temp-non-target	B	71,Green Button	89,Yellow Button	1150.0	1500.0	1600.0	1250.0	0.0	n/a	n/a	n/a	go_stim
242872.0536708287	690.94632917119702	n/a	1157	89	2750	690.946329171	stim	stop-signal	689	1704153	0.0-27.1-1.1	beast_fmri_test	300	1701993,/,1702673,/,1703353,/,1704033,/,1704713,/	t,t,t,t,t	<img class = center src='/static/experiments/beast_fmri_test/images/B.png'></img>	71,89	2750.0	test	<img class = center src='/static/experiments/beast_fmri_test/images/redB.png'></img>	go	-1.0	2.0	1.0	go	temp-non-target	B	71,Green Button	89,Yellow Button	1150.0	1500.0	1600.0	1250.0	0.0	n/a	n/a	n/a	ITI
244780	500	n/a	-1	-1	500	0.0	fixation	poldrack-single-stim	690	1705370	0.0-27.2-0.2	beast_fmri_test	300	n/a	n/a	<div class = centerbox><div class = fixation>+</div></div>	none	500.0	test	n/a	n/a	n/a	n/a	n/a	n/a	n/a	n/a	n/a	n/a	n/a	n/a	n/a	n/a	n/a	n/a	n/a	n/a	fixation
244279.43234338099	2750	n/a	1619	71	2750	501.567656619	stim	stop-signal	691	1708121	0.0-27.2-1.2	beast_fmri_test	300	1705393,/,1706073,/,1706753,/,1707433,/,1708113,/	t,t,t,t,t	<img class = center src='/static/experiments/beast_fmri_test/images/V.png'></img>	71,89	2750.0	test	<img class = center src='/static/experiments/beast_fmri_test/images/redV.png'></img>	go	1600.0	2.0	2.0	go	target	V	71,Green Button	89,Yellow Button	1150.0	1500.0	1600.0	1250.0	1.0	n/a	1150.0	1.0	go_stim
247029.43234338099	501.56765661890199	n/a	1619	71	2750	501.567656619	stim	stop-signal	691	1708121	0.0-27.2-1.2	beast_fmri_test	300	1705393,/,1706073,/,1706753,/,1707433,/,1708113,/	t,t,t,t,t	<img class = center src='/static/experiments/beast_fmri_test/images/V.png'></img>	71,89	2750.0	test	<img class = center src='/static/experiments/beast_fmri_test/images/redV.png'></img>	go	1600.0	2.0	2.0	go	target	V	71,Green Button	89,Yellow Button	1150.0	1500.0	1600.0	1250.0	1.0	n/a	1150.0	1.0	ITI
248555	500	n/a	-1	-1	500	0.0	fixation	poldrack-single-stim	692	1709145	0.0-27.3-0.3	beast_fmri_test	300	1708793,/	t	<div class = centerbox><div class = fixation>+</div></div>	none	500.0	test	n/a	n/a	n/a	n/a	n/a	n/a	n/a	n/a	n/a	n/a	n/a	n/a	n/a	n/a	n/a	n/a	n/a	n/a	fixation
246790.73668623017	2750	n/a	2056	89	2750	1766.26331377	stim	stop-signal	693	1711897	0.0-27.3-1.3	beast_fmri_test	300	1709473,/,1710153,/,1710833,/,1711513,/,1712193,/,1712873,/,1713553,/	t,t,t,t,t,t,t	<img class = center src='/static/experiments/beast_fmri_test/images/D.png'></img>	71,89	2750.0	test	<img class = center src='/static/experiments/beast_fmri_test/images/redD.png'></img>	go	1250.0	2.0	3.0	go	non-target	D	71,Green Button	89,Yellow Button	1150.0	1500.0	1600.0	1250.0	1.0	n/a	1500.0	1.0	go_stim
249540.73668623017	1766.2633137698799	n/a	2056	89	2750	1766.26331377	stim	stop-signal	693	1711897	0.0-27.3-1.3	beast_fmri_test	300	1709473,/,1710153,/,1710833,/,1711513,/,1712193,/,1712873,/,1713553,/	t,t,t,t,t,t,t	<img class = center src='/static/experiments/beast_fmri_test/images/D.png'></img>	71,89	2750.0	test	<img class = center src='/static/experiments/beast_fmri_test/images/redD.png'></img>	go	1250.0	2.0	3.0	go	non-target	D	71,Green Button	89,Yellow Button	1150.0	1500.0	1600.0	1250.0	1.0	n/a	1500.0	1.0	ITI
253605	500	n/a	-1	-1	500	0.0	fixation	poldrack-single-stim	694	1714195	0.0-27.4-0.4	beast_fmri_test	300	n/a	n/a	<div class = centerbox><div class = fixation>+</div></div>	none	500.0	test	n/a	n/a	n/a	n/a	n/a	n/a	n/a	n/a	n/a	n/a	n/a	n/a	n/a	n/a	n/a	n/a	n/a	n/a	fixation
253258.06012757309	2750	n/a	1909	89	2750	348.939872427	stim	stop-signal	695	1716947	0.0-27.4-1.4	beast_fmri_test	300	1714233,/,1714913,/,1715593,/,1716272,/,1716952,/	t,t,t,t,t	<img class = center src='/static/experiments/beast_fmri_test/images/D.png'></img>	71,89	2750.0	test	<img class = center src='/static/experiments/beast_fmri_test/images/redD.png'></img>	go	1250.0	2.0	4.0	go	non-target	D	71,Green Button	89,Yellow Button	1150.0	1500.0	1600.0	1250.0	1.0	n/a	1500.0	1.0	go_stim
256008.06012757309	348.93987242681402	n/a	1909	89	2750	348.939872427	stim	stop-signal	695	1716947	0.0-27.4-1.4	beast_fmri_test	300	1714233,/,1714913,/,1715593,/,1716272,/,1716952,/	t,t,t,t,t	<img class = center src='/static/experiments/beast_fmri_test/images/D.png'></img>	71,89	2750.0	test	<img class = center src='/static/experiments/beast_fmri_test/images/redD.png'></img>	go	1250.0	2.0	4.0	go	non-target	D	71,Green Button	89,Yellow Button	1150.0	1500.0	1600.0	1250.0	1.0	n/a	1500.0	1.0	ITI
257233	500	n/a	-1	-1	500	0.0	fixation	poldrack-single-stim	696	1717823	0.0-27.5-0.5	beast_fmri_test	300	1717633,/	t	<div class = centerbox><div class = fixation>+</div></div>	none	500.0	test	n/a	n/a	n/a	n/a	n/a	n/a	n/a	n/a	n/a	n/a	n/a	n/a	n/a	n/a	n/a	n/a	n/a	n/a	fixation
255382.56516489922	2750	n/a	1233	71	2750	1852.4348351	stim	stop-signal	697	1720575	0.0-27.5-1.5	beast_fmri_test	300	1718313,/,1718992,/,1719672,/,1720353,/,1721032,/,1721713,/,1722392,/	t,t,t,t,t,t,t	<img class = center src='/static/experiments/beast_fmri_test/images/D.png'></img>	71,89	2750.0	test	<img class = center src='/static/experiments/beast_fmri_test/images/redD.png'></img>	go	1600.0	2.0	5.0	go	target	D	71,Green Button	89,Yellow Button	1150.0	1500.0	1600.0	1250.0	1.0	n/a	1150.0	1.0	go_stim
258132.56516489922	1852.43483510073	n/a	1233	71	2750	1852.4348351	stim	stop-signal	697	1720575	0.0-27.5-1.5	beast_fmri_test	300	1718313,/,1718992,/,1719672,/,1720353,/,1721032,/,1721713,/,1722392,/	t,t,t,t,t,t,t	<img class = center src='/static/experiments/beast_fmri_test/images/D.png'></img>	71,89	2750.0	test	<img class = center src='/static/experiments/beast_fmri_test/images/redD.png'></img>	go	1600.0	2.0	5.0	go	target	D	71,Green Button	89,Yellow Button	1150.0	1500.0	1600.0	1250.0	1.0	n/a	1150.0	1.0	ITI
262365	500	n/a	-1	-1	500	0.0	fixation	poldrack-single-stim	698	1722955	0.0-27.6-0.6	beast_fmri_test	300	n/a	n/a	<div class = centerbox><div class = fixation>+</div></div>	none	500.0	test	n/a	n/a	n/a	n/a	n/a	n/a	n/a	n/a	n/a	n/a	n/a	n/a	n/a	n/a	n/a	n/a	n/a	n/a	fixation
261246.45211027889	2750	n/a	1017	71	2750	1120.54788972	stim	stop-signal	699	1725707	0.0-27.6-1.6	beast_fmri_test	300	1723072,/,1723753,/,1724433,/,1725112,/,1725793,/,1726472,/	t,t,t,t,t,t	<img class = center src='/static/experiments/beast_fmri_test/images/D.png'></img>	71,89	2750.0	test	<img class = center src='/static/experiments/beast_fmri_test/images/redD.png'></img>	go	1600.0	2.0	6.0	go	target	D	71,Green Button	89,Yellow Button	1150.0	1500.0	1600.0	1250.0	1.0	n/a	1150.0	1.0	go_stim
263996.45211027889	1120.5478897211501	n/a	1017	71	2750	1120.54788972	stim	stop-signal	699	1725707	0.0-27.6-1.6	beast_fmri_test	300	1723072,/,1723753,/,1724433,/,1725112,/,1725793,/,1726472,/	t,t,t,t,t,t	<img class = center src='/static/experiments/beast_fmri_test/images/D.png'></img>	71,89	2750.0	test	<img class = center src='/static/experiments/beast_fmri_test/images/redD.png'></img>	go	1600.0	2.0	6.0	go	target	D	71,Green Button	89,Yellow Button	1150.0	1500.0	1600.0	1250.0	1.0	n/a	1150.0	1.0	ITI
266768	500	n/a	-1	-1	500	0.0	fixation	poldrack-single-stim	700	1727358	0.0-27.7-0.7	beast_fmri_test	300	1727152,/	t	<div class = centerbox><div class = fixation>+</div></div>	none	500.0	test	n/a	n/a	n/a	n/a	n/a	n/a	n/a	n/a	n/a	n/a	n/a	n/a	n/a	n/a	n/a	n/a	n/a	n/a	fixation
266163.79713166901	2750	n/a	1398	89	2750	607.202868331	stim	stop-signal	701	1730111	0.0-27.7-1.7	beast_fmri_test	300	1727833,/,1728513,/,1729192,/,1729872,/,1730553,/	t,t,t,t,t	<img class = center src='/static/experiments/beast_fmri_test/images/V.png'></img>	71,89	2750.0	test	<img class = center src='/static/experiments/beast_fmri_test/images/redV.png'></img>	go	1250.0	2.0	7.0	go	non-target	V	71,Green Button	89,Yellow Button	1150.0	1500.0	1600.0	1250.0	1.0	n/a	1500.0	1.0	go_stim
268913.79713166901	607.20286833103398	n/a	1398	89	2750	607.202868331	stim	stop-signal	701	1730111	0.0-27.7-1.7	beast_fmri_test	300	1727833,/,1728513,/,1729192,/,1729872,/,1730553,/	t,t,t,t,t	<img class = center src='/static/experiments/beast_fmri_test/images/V.png'></img>	71,89	2750.0	test	<img class = center src='/static/experiments/beast_fmri_test/images/redV.png'></img>	go	1250.0	2.0	7.0	go	non-target	V	71,Green Button	89,Yellow Button	1150.0	1500.0	1600.0	1250.0	1.0	n/a	1500.0	1.0	ITI
270657	500	n/a	-1	-1	500	0.0	fixation	poldrack-single-stim	702	1731247	0.0-27.8-0.8	beast_fmri_test	300	1731234,/	t	<div class = centerbox><div class = fixation>+</div></div>	none	500.0	test	n/a	n/a	n/a	n/a	n/a	n/a	n/a	n/a	n/a	n/a	n/a	n/a	n/a	n/a	n/a	n/a	n/a	n/a	fixation
269774.48772527673	2750	n/a	1790	89	2750	884.512274723	stim	stop-signal	703	1733999	0.0-27.8-1.8	beast_fmri_test	300	1731914,/,1732594,/,1733273,/,1733953,/,1734633,/	t,t,t,t,t	<img class = center src='/static/experiments/beast_fmri_test/images/B.png'></img>	71,89	2750.0	test	<img class = center src='/static/experiments/beast_fmri_test/images/redB.png'></img>	go	1250.0	2.0	8.0	go	non-target	B	71,Green Button	89,Yellow Button	1150.0	1500.0	1600.0	1250.0	1.0	n/a	1500.0	1.0	go_stim
272524.48772527673	884.512274723367	n/a	1790	89	2750	884.512274723	stim	stop-signal	703	1733999	0.0-27.8-1.8	beast_fmri_test	300	1731914,/,1732594,/,1733273,/,1733953,/,1734633,/	t,t,t,t,t	<img class = center src='/static/experiments/beast_fmri_test/images/B.png'></img>	71,89	2750.0	test	<img class = center src='/static/experiments/beast_fmri_test/images/redB.png'></img>	go	1250.0	2.0	8.0	go	non-target	B	71,Green Button	89,Yellow Button	1150.0	1500.0	1600.0	1250.0	1.0	n/a	1500.0	1.0	ITI
274822	500	n/a	-1	-1	500	0.0	fixation	poldrack-single-stim	704	1735412	0.0-27.9-0.9	beast_fmri_test	300	1735313,/	t	<div class = centerbox><div class = fixation>+</div></div>	none	500.0	test	n/a	n/a	n/a	n/a	n/a	n/a	n/a	n/a	n/a	n/a	n/a	n/a	n/a	n/a	n/a	n/a	n/a	n/a	fixation
272635.25051549543	2750	n/a	1570	71	2750	2188.7494845	stim	stop-signal	705	1738164	0.0-27.9-1.9	beast_fmri_test	300	1735994,/,1736673,/,1737353,/,1738033,/,1738713,/,1739393,/,1740073,/	t,t,t,t,t,t,t	<img class = center src='/static/experiments/beast_fmri_test/images/V.png'></img>	71,89	2750.0	test	<img class = center src='/static/experiments/beast_fmri_test/images/redV.png'></img>	go	1600.0	2.0	9.0	go	target	V	71,Green Button	89,Yellow Button	1150.0	1500.0	1600.0	1250.0	1.0	n/a	1150.0	1.0	go_stim
275385.25051549543	2188.7494845044698	n/a	1570	71	2750	2188.7494845	stim	stop-signal	705	1738164	0.0-27.9-1.9	beast_fmri_test	300	1735994,/,1736673,/,1737353,/,1738033,/,1738713,/,1739393,/,1740073,/	t,t,t,t,t,t,t	<img class = center src='/static/experiments/beast_fmri_test/images/V.png'></img>	71,89	2750.0	test	<img class = center src='/static/experiments/beast_fmri_test/images/redV.png'></img>	go	1600.0	2.0	9.0	go	target	V	71,Green Button	89,Yellow Button	1150.0	1500.0	1600.0	1250.0	1.0	n/a	1150.0	1.0	ITI
280289	500	n/a	-1	-1	500	0.0	fixation	poldrack-single-stim	706	1740879	0.0-27.10-0.10	beast_fmri_test	300	1740753,/	t	<div class = centerbox><div class = fixation>+</div></div>	none	500.0	test	n/a	n/a	n/a	n/a	n/a	n/a	n/a	n/a	n/a	n/a	n/a	n/a	n/a	n/a	n/a	n/a	n/a	n/a	fixation
279454.07426941791	1500.0	n/a	1473	89	2750	835.925730582	stim	stop-signal	707	1743630	0.0-27.10-1.10	beast_fmri_test	300	1741433,/,1742114,/,1742793,/,1743473,/,1744153,/	t,t,t,t,t	<img class = center src='/static/experiments/beast_fmri_test/images/V.png'></img>	71,89	2750.0	test	<img class = center src='/static/experiments/beast_fmri_test/images/redV.png'></img>	stop	1250.0	2.0	10.0	stop	non-target	V	71,Green Button	89,Yellow Button	1150.0	1500.0	1600.0	1250.0	0.0	0.0	1500.0	1.0	go_stim
280704.07426941791	1250.0	n/a	1473	89	2750	835.925730582	stim	stop-signal	707	1743630	0.0-27.10-1.10	beast_fmri_test	300	1741433,/,1742114,/,1742793,/,1743473,/,1744153,/	t,t,t,t,t	<img class = center src='/static/experiments/beast_fmri_test/images/V.png'></img>	71,89	2750.0	test	<img class = center src='/static/experiments/beast_fmri_test/images/redV.png'></img>	stop	1250.0	2.0	10.0	stop	non-target	V	71,Green Button	89,Yellow Button	1150.0	1500.0	1600.0	1250.0	0.0	0.0	1500.0	1.0	stop_stim
282204.07426941791	835.925730582097	n/a	1473	89	2750	835.925730582	stim	stop-signal	707	1743630	0.0-27.10-1.10	beast_fmri_test	300	1741433,/,1742114,/,1742793,/,1743473,/,1744153,/	t,t,t,t,t	<img class = center src='/static/experiments/beast_fmri_test/images/V.png'></img>	71,89	2750.0	test	<img class = center src='/static/experiments/beast_fmri_test/images/redV.png'></img>	stop	1250.0	2.0	10.0	stop	non-target	V	71,Green Button	89,Yellow Button	1150.0	1500.0	1600.0	1250.0	0.0	0.0	1500.0	1.0	ITI
284404	500	n/a	-1	-1	500	0.0	fixation	poldrack-single-stim	708	1744994	0.0-27.11-0.11	beast_fmri_test	300	1744834,/	t	<div class = centerbox><div class = fixation>+</div></div>	none	500.0	test	n/a	n/a	n/a	n/a	n/a	n/a	n/a	n/a	n/a	n/a	n/a	n/a	n/a	n/a	n/a	n/a	n/a	n/a	fixation
283928.8662278608	2750	n/a	1142	71	2750	478.133772139	stim	stop-signal	709	1747747	0.0-27.11-1.11	beast_fmri_test	300	1745513,/,1746193,/,1746873,/,1747553,/	t,t,t,t	<img class = center src='/static/experiments/beast_fmri_test/images/V.png'></img>	71,89	2750.0	test	<img class = center src='/static/experiments/beast_fmri_test/images/redV.png'></img>	go	1600.0	2.0	11.0	go	target	V	71,Green Button	89,Yellow Button	1150.0	1450.0	1600.0	1250.0	1.0	n/a	1150.0	1.0	go_stim
286678.8662278608	478.13377213926401	n/a	1142	71	2750	478.133772139	stim	stop-signal	709	1747747	0.0-27.11-1.11	beast_fmri_test	300	1745513,/,1746193,/,1746873,/,1747553,/	t,t,t,t	<img class = center src='/static/experiments/beast_fmri_test/images/V.png'></img>	71,89	2750.0	test	<img class = center src='/static/experiments/beast_fmri_test/images/redV.png'></img>	go	1600.0	2.0	11.0	go	target	V	71,Green Button	89,Yellow Button	1150.0	1450.0	1600.0	1250.0	1.0	n/a	1150.0	1.0	ITI
288165	500	n/a	-1	-1	500	0.0	fixation	poldrack-single-stim	710	1748755	0.0-27.12-0.12	beast_fmri_test	300	1748253,/	t	<div class = centerbox><div class = fixation>+</div></div>	none	500.0	test	n/a	n/a	n/a	n/a	n/a	n/a	n/a	n/a	n/a	n/a	n/a	n/a	n/a	n/a	n/a	n/a	n/a	n/a	fixation
287605.97037910344	2750	n/a	1305	89	2750	561.029620897	stim	stop-signal	711	1751507	0.0-27.12-1.12	beast_fmri_test	300	1748913,/,1749593,/,1750273,/,1750953,/,1751633,/	t,t,t,t,t	<img class = center src='/static/experiments/beast_fmri_test/images/T.png'></img>	71,89	2750.0	test	<img class = center src='/static/experiments/beast_fmri_test/images/redT.png'></img>	go	1300.0	2.0	12.0	go	non-target	T	71,Green Button	89,Yellow Button	1150.0	1450.0	1600.0	1300.0	1.0	n/a	1450.0	1.0	go_stim
290355.97037910344	561.02962089657296	n/a	1305	89	2750	561.029620897	stim	stop-signal	711	1751507	0.0-27.12-1.12	beast_fmri_test	300	1748913,/,1749593,/,1750273,/,1750953,/,1751633,/	t,t,t,t,t	<img class = center src='/static/experiments/beast_fmri_test/images/T.png'></img>	71,89	2750.0	test	<img class = center src='/static/experiments/beast_fmri_test/images/redT.png'></img>	go	1300.0	2.0	12.0	go	non-target	T	71,Green Button	89,Yellow Button	1150.0	1450.0	1600.0	1300.0	1.0	n/a	1450.0	1.0	ITI
292006	500	n/a	-1	-1	500	0.0	fixation	poldrack-single-stim	712	1752596	0.0-27.13-0.13	beast_fmri_test	300	1752313,/	t	<div class = centerbox><div class = fixation>+</div></div>	none	500.0	test	n/a	n/a	n/a	n/a	n/a	n/a	n/a	n/a	n/a	n/a	n/a	n/a	n/a	n/a	n/a	n/a	n/a	n/a	fixation
291814.9882149999	1150.0	n/a	1248	71	2750	193.011785	stim	stop-signal	713	1755348	0.0-27.13-1.13	beast_fmri_test	300	1752993,/,1753673,/,1754353,/,1755033,/	t,t,t,t	<img class = center src='/static/experiments/beast_fmri_test/images/V.png'></img>	71,89	2750.0	test	<img class = center src='/static/experiments/beast_fmri_test/images/redV.png'></img>	stop	1600.0	2.0	13.0	stop	target	V	71,Green Button	89,Yellow Button	1150.0	1450.0	1600.0	1300.0	0.0	0.0	1150.0	1.0	go_stim
293414.9882149999	1600.0	n/a	1248	71	2750	193.011785	stim	stop-signal	713	1755348	0.0-27.13-1.13	beast_fmri_test	300	1752993,/,1753673,/,1754353,/,1755033,/	t,t,t,t	<img class = center src='/static/experiments/beast_fmri_test/images/V.png'></img>	71,89	2750.0	test	<img class = center src='/static/experiments/beast_fmri_test/images/redV.png'></img>	stop	1600.0	2.0	13.0	stop	target	V	71,Green Button	89,Yellow Button	1150.0	1450.0	1600.0	1300.0	0.0	0.0	1150.0	1.0	stop_stim
294564.9882149999	193.01178500010201	n/a	1248	71	2750	193.011785	stim	stop-signal	713	1755348	0.0-27.13-1.13	beast_fmri_test	300	1752993,/,1753673,/,1754353,/,1755033,/	t,t,t,t	<img class = center src='/static/experiments/beast_fmri_test/images/V.png'></img>	71,89	2750.0	test	<img class = center src='/static/experiments/beast_fmri_test/images/redV.png'></img>	stop	1600.0	2.0	13.0	stop	target	V	71,Green Button	89,Yellow Button	1150.0	1450.0	1600.0	1300.0	0.0	0.0	1150.0	1.0	ITI
295475	500	n/a	-1	-1	500	0.0	fixation	poldrack-single-stim	714	1756065	0.0-27.14-0.14	beast_fmri_test	300	1755713,/	t	<div class = centerbox><div class = fixation>+</div></div>	none	500.0	test	n/a	n/a	n/a	n/a	n/a	n/a	n/a	n/a	n/a	n/a	n/a	n/a	n/a	n/a	n/a	n/a	n/a	n/a	fixation
295158.78373075789	1450.0	n/a	-1	-1	2750	319.216269242	stim	stop-signal	715	1758818	0.0-27.14-1.14	beast_fmri_test	300	1756394,/,1757073,/,1757753,/,1758433,/,1759113,/	t,t,t,t,t	<img class = center src='/static/experiments/beast_fmri_test/images/B.png'></img>	71,89	2750.0	test	<img class = center src='/static/experiments/beast_fmri_test/images/redB.png'></img>	stop	1300.0	2.0	14.0	stop	non-target	B	71,Green Button	89,Yellow Button	1100.0	1450.0	1600.0	1300.0	0.0	1.0	1450.0	0.0	go_stim
296458.78373075789	1300.0	n/a	-1	-1	2750	319.216269242	stim	stop-signal	715	1758818	0.0-27.14-1.14	beast_fmri_test	300	1756394,/,1757073,/,1757753,/,1758433,/,1759113,/	t,t,t,t,t	<img class = center src='/static/experiments/beast_fmri_test/images/B.png'></img>	71,89	2750.0	test	<img class = center src='/static/experiments/beast_fmri_test/images/redB.png'></img>	stop	1300.0	2.0	14.0	stop	non-target	B	71,Green Button	89,Yellow Button	1100.0	1450.0	1600.0	1300.0	0.0	1.0	1450.0	0.0	stop_stim
297908.78373075789	319.21626924214303	n/a	-1	-1	2750	319.216269242	stim	stop-signal	715	1758818	0.0-27.14-1.14	beast_fmri_test	300	1756394,/,1757073,/,1757753,/,1758433,/,1759113,/	t,t,t,t,t	<img class = center src='/static/experiments/beast_fmri_test/images/B.png'></img>	71,89	2750.0	test	<img class = center src='/static/experiments/beast_fmri_test/images/redB.png'></img>	stop	1300.0	2.0	14.0	stop	non-target	B	71,Green Button	89,Yellow Button	1100.0	1450.0	1600.0	1300.0	0.0	1.0	1450.0	0.0	ITI
299072	500	n/a	-1	-1	500	0.0	fixation	poldrack-single-stim	716	1759662	0.0-27.15-0.15	beast_fmri_test	300	n/a	n/a	<div class = centerbox><div class = fixation>+</div></div>	none	500.0	test	n/a	n/a	n/a	n/a	n/a	n/a	n/a	n/a	n/a	n/a	n/a	n/a	n/a	n/a	n/a	n/a	n/a	n/a	fixation
298812.48920892901	2750	n/a	1749	71	2750	261.510791071	stim	stop-signal	717	1762414	0.0-27.15-1.15	beast_fmri_test	300	1759793,/,1760473,/,1761153,/,1761833,/,1762514,/	t,t,t,t,t	<img class = center src='/static/experiments/beast_fmri_test/images/V.png'></img>	71,89	2750.0	test	<img class = center src='/static/experiments/beast_fmri_test/images/redV.png'></img>	go	1650.0	2.0	15.0	go	target	V	71,Green Button	89,Yellow Button	1100.0	1500.0	1650.0	1300.0	1.0	n/a	1100.0	1.0	go_stim
301562.48920892901	261.51079107090101	n/a	1749	71	2750	261.510791071	stim	stop-signal	717	1762414	0.0-27.15-1.15	beast_fmri_test	300	1759793,/,1760473,/,1761153,/,1761833,/,1762514,/	t,t,t,t,t	<img class = center src='/static/experiments/beast_fmri_test/images/V.png'></img>	71,89	2750.0	test	<img class = center src='/static/experiments/beast_fmri_test/images/redV.png'></img>	go	1650.0	2.0	15.0	go	target	V	71,Green Button	89,Yellow Button	1100.0	1500.0	1650.0	1300.0	1.0	n/a	1100.0	1.0	ITI
302606	500	n/a	-1	-1	500	0.0	fixation	poldrack-single-stim	718	1763196	0.0-27.16-0.16	beast_fmri_test	300	1763194,/	t	<div class = centerbox><div class = fixation>+</div></div>	none	500.0	test	n/a	n/a	n/a	n/a	n/a	n/a	n/a	n/a	n/a	n/a	n/a	n/a	n/a	n/a	n/a	n/a	n/a	n/a	fixation
301375.0161833975	1100.0	n/a	1311	71	2750	1233.9838166	stim	stop-signal	719	1765949	0.0-27.16-1.16	beast_fmri_test	300	1763874,/,1764554,/,1765234,/,1765914,/,1766595,/	t,t,t,t,t	<img class = center src='/static/experiments/beast_fmri_test/images/B.png'></img>	71,89	2750.0	test	<img class = center src='/static/experiments/beast_fmri_test/images/redB.png'></img>	stop	1650.0	2.0	16.0	stop	target	B	71,Green Button	89,Yellow Button	1100.0	1500.0	1650.0	1300.0	0.0	0.0	1100.0	1.0	go_stim
303025.0161833975	1650.0	n/a	1311	71	2750	1233.9838166	stim	stop-signal	719	1765949	0.0-27.16-1.16	beast_fmri_test	300	1763874,/,1764554,/,1765234,/,1765914,/,1766595,/	t,t,t,t,t	<img class = center src='/static/experiments/beast_fmri_test/images/B.png'></img>	71,89	2750.0	test	<img class = center src='/static/experiments/beast_fmri_test/images/redB.png'></img>	stop	1650.0	2.0	16.0	stop	target	B	71,Green Button	89,Yellow Button	1100.0	1500.0	1650.0	1300.0	0.0	0.0	1100.0	1.0	stop_stim
304125.0161833975	1233.9838166024599	n/a	1311	71	2750	1233.9838166	stim	stop-signal	719	1765949	0.0-27.16-1.16	beast_fmri_test	300	1763874,/,1764554,/,1765234,/,1765914,/,1766595,/	t,t,t,t,t	<img class = center src='/static/experiments/beast_fmri_test/images/B.png'></img>	71,89	2750.0	test	<img class = center src='/static/experiments/beast_fmri_test/images/redB.png'></img>	stop	1650.0	2.0	16.0	stop	target	B	71,Green Button	89,Yellow Button	1100.0	1500.0	1650.0	1300.0	0.0	0.0	1100.0	1.0	ITI
307113	500	n/a	-1	-1	500	0.0	fixation	poldrack-single-stim	720	1767703	0.0-27.17-0.17	beast_fmri_test	300	1767274,/	t	<div class = centerbox><div class = fixation>+</div></div>	none	500.0	test	n/a	n/a	n/a	n/a	n/a	n/a	n/a	n/a	n/a	n/a	n/a	n/a	n/a	n/a	n/a	n/a	n/a	n/a	fixation
307084.9126463288	2750	n/a	1574	89	2750	30.0873536711	stim	stop-signal	721	1770455	0.0-27.17-1.17	beast_fmri_test	300	1767954,/,1768634,/,1769314,/,1769994,/	t,t,t,t	<img class = center src='/static/experiments/beast_fmri_test/images/P.png'></img>	71,89	2750.0	test	<img class = center src='/static/experiments/beast_fmri_test/images/redP.png'></img>	go	1250.0	2.0	17.0	go	non-target	P	71,Green Button	89,Yellow Button	1050.0	1500.0	1650.0	1250.0	1.0	n/a	1500.0	1.0	go_stim
309834.9126463288	30.087353671108801	n/a	1574	89	2750	30.0873536711	stim	stop-signal	721	1770455	0.0-27.17-1.17	beast_fmri_test	300	1767954,/,1768634,/,1769314,/,1769994,/	t,t,t,t	<img class = center src='/static/experiments/beast_fmri_test/images/P.png'></img>	71,89	2750.0	test	<img class = center src='/static/experiments/beast_fmri_test/images/redP.png'></img>	go	1250.0	2.0	17.0	go	non-target	P	71,Green Button	89,Yellow Button	1050.0	1500.0	1650.0	1250.0	1.0	n/a	1500.0	1.0	ITI
310421	500	n/a	-1	-1	500	0.0	fixation	poldrack-single-stim	722	1771011	0.0-27.18-0.18	beast_fmri_test	300	1770674,/	t	<div class = centerbox><div class = fixation>+</div></div>	none	500.0	test	n/a	n/a	n/a	n/a	n/a	n/a	n/a	n/a	n/a	n/a	n/a	n/a	n/a	n/a	n/a	n/a	n/a	n/a	fixation
309531.46601601108	2750	n/a	1933	89	2750	891.533983989	stim	stop-signal	723	1773763	0.0-27.18-1.18	beast_fmri_test	300	1771354,/,1772034,/,1772713,/,1773394,/,1774073,/	t,t,t,t,t	<img class = center src='/static/experiments/beast_fmri_test/images/D.png'></img>	71,89	2750.0	test	<img class = center src='/static/experiments/beast_fmri_test/images/redD.png'></img>	go	1250.0	2.0	18.0	go	non-target	D	71,Green Button	89,Yellow Button	1050.0	1500.0	1650.0	1250.0	1.0	n/a	1500.0	1.0	go_stim
312281.46601601108	891.53398398890704	n/a	1933	89	2750	891.533983989	stim	stop-signal	723	1773763	0.0-27.18-1.18	beast_fmri_test	300	1771354,/,1772034,/,1772713,/,1773394,/,1774073,/	t,t,t,t,t	<img class = center src='/static/experiments/beast_fmri_test/images/D.png'></img>	71,89	2750.0	test	<img class = center src='/static/experiments/beast_fmri_test/images/redD.png'></img>	go	1250.0	2.0	18.0	go	non-target	D	71,Green Button	89,Yellow Button	1050.0	1500.0	1650.0	1250.0	1.0	n/a	1500.0	1.0	ITI
314592	500	n/a	-1	-1	500	0.0	fixation	poldrack-single-stim	724	1775182	0.0-27.19-0.19	beast_fmri_test	300	1774754,/	t	<div class = centerbox><div class = fixation>+</div></div>	none	500.0	test	n/a	n/a	n/a	n/a	n/a	n/a	n/a	n/a	n/a	n/a	n/a	n/a	n/a	n/a	n/a	n/a	n/a	n/a	fixation
313958.52204916906	1500.0	n/a	1635	89	2750	635.477950831	stim	stop-signal	725	1777934	0.0-27.19-1.19	beast_fmri_test	300	1775433,/,1776114,/,1776795,/,1777473,/,1778153,/	t,t,t,t,t	<img class = center src='/static/experiments/beast_fmri_test/images/T.png'></img>	71,89	2750.0	test	<img class = center src='/static/experiments/beast_fmri_test/images/redT.png'></img>	stop	1250.0	2.0	19.0	stop	non-target	T	71,Green Button	89,Yellow Button	1050.0	1500.0	1650.0	1250.0	0.0	0.0	1500.0	1.0	go_stim
315208.52204916906	1250.0	n/a	1635	89	2750	635.477950831	stim	stop-signal	725	1777934	0.0-27.19-1.19	beast_fmri_test	300	1775433,/,1776114,/,1776795,/,1777473,/,1778153,/	t,t,t,t,t	<img class = center src='/static/experiments/beast_fmri_test/images/T.png'></img>	71,89	2750.0	test	<img class = center src='/static/experiments/beast_fmri_test/images/redT.png'></img>	stop	1250.0	2.0	19.0	stop	non-target	T	71,Green Button	89,Yellow Button	1050.0	1500.0	1650.0	1250.0	0.0	0.0	1500.0	1.0	stop_stim
316708.52204916906	635.47795083087703	n/a	1635	89	2750	635.477950831	stim	stop-signal	725	1777934	0.0-27.19-1.19	beast_fmri_test	300	1775433,/,1776114,/,1776795,/,1777473,/,1778153,/	t,t,t,t,t	<img class = center src='/static/experiments/beast_fmri_test/images/T.png'></img>	71,89	2750.0	test	<img class = center src='/static/experiments/beast_fmri_test/images/redT.png'></img>	stop	1250.0	2.0	19.0	stop	non-target	T	71,Green Button	89,Yellow Button	1050.0	1500.0	1650.0	1250.0	0.0	0.0	1500.0	1.0	ITI
318506	500	n/a	-1	-1	500	0.0	fixation	poldrack-single-stim	726	1779096	0.0-27.20-0.20	beast_fmri_test	300	1778834,/	t	<div class = centerbox><div class = fixation>+</div></div>	none	500.0	test	n/a	n/a	n/a	n/a	n/a	n/a	n/a	n/a	n/a	n/a	n/a	n/a	n/a	n/a	n/a	n/a	n/a	n/a	fixation
317720.06300773192	2750	n/a	1721	89	2750	787.936992268	stim	stop-signal	727	1781848	0.0-27.20-1.20	beast_fmri_test	300	1779514,/,1780194,/,1780874,/,1781554,/,1782233,/	t,t,t,t,t	<img class = center src='/static/experiments/beast_fmri_test/images/B.png'></img>	71,89	2750.0	test	<img class = center src='/static/experiments/beast_fmri_test/images/redB.png'></img>	go	1300.0	2.0	20.0	go	non-target	B	71,Green Button	89,Yellow Button	1050.0	1450.0	1650.0	1300.0	1.0	n/a	1450.0	1.0	go_stim
320470.06300773192	787.93699226809997	n/a	1721	89	2750	787.936992268	stim	stop-signal	727	1781848	0.0-27.20-1.20	beast_fmri_test	300	1779514,/,1780194,/,1780874,/,1781554,/,1782233,/	t,t,t,t,t	<img class = center src='/static/experiments/beast_fmri_test/images/B.png'></img>	71,89	2750.0	test	<img class = center src='/static/experiments/beast_fmri_test/images/redB.png'></img>	go	1300.0	2.0	20.0	go	non-target	B	71,Green Button	89,Yellow Button	1050.0	1450.0	1650.0	1300.0	1.0	n/a	1450.0	1.0	ITI
322572	500	n/a	-1	-1	500	0.0	fixation	poldrack-single-stim	728	1783162	0.0-27.21-0.21	beast_fmri_test	300	1782914,/	t	<div class = centerbox><div class = fixation>+</div></div>	none	500.0	test	n/a	n/a	n/a	n/a	n/a	n/a	n/a	n/a	n/a	n/a	n/a	n/a	n/a	n/a	n/a	n/a	n/a	n/a	fixation
