onset	duration	text	rt	key_press	block_duration	timing_post_trial	trial_id	trial_type	trial_index	time_elapsed	internal_node_id	exp_id	subject_id	trigger_times	triggers	stimulus	possible_responses	stim_duration	exp_stage	SS_stimulus	SS_trial_type	SS_duration	load	trial_num	stop_trial_type	adaptive_trial_type	stim	yes_response_key	no_response_key	SSD_target	SSD_non_target	SSTarget	SSNonTarget	go_acc	stop_acc	SS_delay	adaptive_acc	new_trial_type
test	10880	n/a	-1	-1	10880	0.0	practice-no-stop-feedback	poldrack-single-stim	394	1114393	0.0-18.0	beast_fmri_test	393	1103507,/,1104184,/,1104864,/,1105544,/,1106224,/,1106904,/,1107584,/,1108264,/,1108944,/,1109624,/,1110304,/,1110984,/,1111664,/,1112345,/,1113029,/,1113709,/,1114389,/	t,t,t,t,t,t,t,t,t,t,t,t,t,t,t,t,t	"<div class = ""centerbox2_2""><p class = ""block-text2"">Your delay is 2 trials.</p><p class = block-text2>Please wait for the scanner to start the block</p></div>"	77	10880.0	n/a	n/a	n/a	n/a	n/a	n/a	n/a	n/a	n/a	n/a	n/a	n/a	n/a	n/a	n/a	n/a	n/a	n/a	n/a	start_functional_block
11389	500	n/a	-1	-1	500	0.0	fixation	poldrack-single-stim	395	1114896	0.0-19.0-0.0	beast_fmri_test	393	n/a	n/a	<div class = centerbox2><div class = fixation>+</div></div>	none	500.0	test	n/a	n/a	n/a	n/a	n/a	n/a	n/a	n/a	n/a	n/a	n/a	n/a	n/a	n/a	n/a	n/a	n/a	n/a	fixation
10422.227608486079	temp_go_duration	n/a	575	71	2750	970.772391514	stim	stop-signal	396	1117650	0.0-19.0-1.0	beast_fmri_test	393	1115069,/,1115749,/,1116429,/,1117109,/,1117789,/,1118468,/	t,t,t,t,t,t	<img class = center src='/static/experiments/beast_fmri_test/images/B.png'></img>	89,71	2750.0	test	<img class = center src='/static/experiments/beast_fmri_test/images/redB.png'></img>	stop	-1.0	2.0	0.0	stop	temp-non-target	B	89,Middle Finger	71,Index Finger	700.0	700.0	2050.0	2050.0	0.0	0.0	n/a	n/a	go_stim
temp-non-target	temp_stop_duration	n/a	575	71	2750	970.772391514	stim	stop-signal	396	1117650	0.0-19.0-1.0	beast_fmri_test	393	1115069,/,1115749,/,1116429,/,1117109,/,1117789,/,1118468,/	t,t,t,t,t,t	<img class = center src='/static/experiments/beast_fmri_test/images/B.png'></img>	89,71	2750.0	test	<img class = center src='/static/experiments/beast_fmri_test/images/redB.png'></img>	stop	-1.0	2.0	0.0	stop	temp-non-target	B	89,Middle Finger	71,Index Finger	700.0	700.0	2050.0	2050.0	0.0	0.0	n/a	n/a	stop_stim
13172.227608486079	970.77239151399522	n/a	575	71	2750	970.772391514	stim	stop-signal	396	1117650	0.0-19.0-1.0	beast_fmri_test	393	1115069,/,1115749,/,1116429,/,1117109,/,1117789,/,1118468,/	t,t,t,t,t,t	<img class = center src='/static/experiments/beast_fmri_test/images/B.png'></img>	89,71	2750.0	test	<img class = center src='/static/experiments/beast_fmri_test/images/redB.png'></img>	stop	-1.0	2.0	0.0	stop	temp-non-target	B	89,Middle Finger	71,Index Finger	700.0	700.0	2050.0	2050.0	0.0	0.0	n/a	n/a	ITI
15653	500	n/a	-1	-1	500	0.0	fixation	poldrack-single-stim	397	1119160	0.0-19.1-0.1	beast_fmri_test	393	1119148,/	t	<div class = centerbox2><div class = fixation>+</div></div>	none	500.0	test	n/a	n/a	n/a	n/a	n/a	n/a	n/a	n/a	n/a	n/a	n/a	n/a	n/a	n/a	n/a	n/a	n/a	n/a	fixation
15418.263191434322	2750	n/a	527	71	2750	238.736808566	stim	stop-signal	398	1121914	0.0-19.1-1.1	beast_fmri_test	393	1119829,/,1120508,/,1121189,/,1121869,/	t,t,t,t	<img class = center src='/static/experiments/beast_fmri_test/images/P.png'></img>	89,71	2750.0	test	<img class = center src='/static/experiments/beast_fmri_test/images/redP.png'></img>	go	-1.0	2.0	1.0	go	temp-non-target	P	89,Middle Finger	71,Index Finger	700.0	700.0	2050.0	2050.0	0.0	n/a	n/a	n/a	go_stim
18168.263191434322	238.73680856569541	n/a	527	71	2750	238.736808566	stim	stop-signal	398	1121914	0.0-19.1-1.1	beast_fmri_test	393	1119829,/,1120508,/,1121189,/,1121869,/	t,t,t,t	<img class = center src='/static/experiments/beast_fmri_test/images/P.png'></img>	89,71	2750.0	test	<img class = center src='/static/experiments/beast_fmri_test/images/redP.png'></img>	go	-1.0	2.0	1.0	go	temp-non-target	P	89,Middle Finger	71,Index Finger	700.0	700.0	2050.0	2050.0	0.0	n/a	n/a	n/a	ITI
19188	500	n/a	-1	-1	500	0.0	fixation	poldrack-single-stim	399	1122695	0.0-19.2-0.2	beast_fmri_test	393	1122551,/	t	<div class = centerbox2><div class = fixation>+</div></div>	none	500.0	test	n/a	n/a	n/a	n/a	n/a	n/a	n/a	n/a	n/a	n/a	n/a	n/a	n/a	n/a	n/a	n/a	n/a	n/a	fixation
18995.191226297757	700.0	n/a	685	89	2750	196.808773702	stim	stop-signal	400	1125449	0.0-19.2-1.2	beast_fmri_test	393	1123233,/,1123913,/,1124593,/,1125273,/	t,t,t,t	<img class = center src='/static/experiments/beast_fmri_test/images/B.png'></img>	89,71	2750.0	test	<img class = center src='/static/experiments/beast_fmri_test/images/redB.png'></img>	stop	2050.0	2.0	2.0	stop	target	B	89,Middle Finger	71,Index Finger	700.0	700.0	2050.0	2050.0	0.0	0.0	700.0	n/a	go_stim
21045.191226297757	2050.0	n/a	685	89	2750	196.808773702	stim	stop-signal	400	1125449	0.0-19.2-1.2	beast_fmri_test	393	1123233,/,1123913,/,1124593,/,1125273,/	t,t,t,t	<img class = center src='/static/experiments/beast_fmri_test/images/B.png'></img>	89,71	2750.0	test	<img class = center src='/static/experiments/beast_fmri_test/images/redB.png'></img>	stop	2050.0	2.0	2.0	stop	target	B	89,Middle Finger	71,Index Finger	700.0	700.0	2050.0	2050.0	0.0	0.0	700.0	n/a	stop_stim
21745.191226297757	196.80877370219227	n/a	685	89	2750	196.808773702	stim	stop-signal	400	1125449	0.0-19.2-1.2	beast_fmri_test	393	1123233,/,1123913,/,1124593,/,1125273,/	t,t,t,t	<img class = center src='/static/experiments/beast_fmri_test/images/B.png'></img>	89,71	2750.0	test	<img class = center src='/static/experiments/beast_fmri_test/images/redB.png'></img>	stop	2050.0	2.0	2.0	stop	target	B	89,Middle Finger	71,Index Finger	700.0	700.0	2050.0	2050.0	0.0	0.0	700.0	n/a	ITI
22679	500	n/a	-1	-1	500	0.0	fixation	poldrack-single-stim	401	1126186	0.0-19.3-0.3	beast_fmri_test	393	1125953,/	t	<div class = centerbox2><div class = fixation>+</div></div>	none	500.0	test	n/a	n/a	n/a	n/a	n/a	n/a	n/a	n/a	n/a	n/a	n/a	n/a	n/a	n/a	n/a	n/a	n/a	n/a	fixation
21974.728650833713	2750	n/a	657	71	2750	707.271349166	stim	stop-signal	402	1128939	0.0-19.3-1.3	beast_fmri_test	393	1126633,/,1127313,/,1127993,/,1128673,/,1129353,/	t,t,t,t,t	<img class = center src='/static/experiments/beast_fmri_test/images/T.png'></img>	89,71	2750.0	test	<img class = center src='/static/experiments/beast_fmri_test/images/redT.png'></img>	go	2050.0	2.0	3.0	go	non-target	T	89,Middle Finger	71,Index Finger	650.0	700.0	2050.0	2050.0	1.0	n/a	700.0	1.0	go_stim
24724.728650833713	707.27134916639773	n/a	657	71	2750	707.271349166	stim	stop-signal	402	1128939	0.0-19.3-1.3	beast_fmri_test	393	1126633,/,1127313,/,1127993,/,1128673,/,1129353,/	t,t,t,t,t	<img class = center src='/static/experiments/beast_fmri_test/images/T.png'></img>	89,71	2750.0	test	<img class = center src='/static/experiments/beast_fmri_test/images/redT.png'></img>	go	2050.0	2.0	3.0	go	non-target	T	89,Middle Finger	71,Index Finger	650.0	700.0	2050.0	2050.0	1.0	n/a	700.0	1.0	ITI
26687	500	n/a	-1	-1	500	0.0	fixation	poldrack-single-stim	403	1130194	0.0-19.4-0.4	beast_fmri_test	393	1130034,/	t	<div class = centerbox2><div class = fixation>+</div></div>	none	500.0	test	n/a	n/a	n/a	n/a	n/a	n/a	n/a	n/a	n/a	n/a	n/a	n/a	n/a	n/a	n/a	n/a	n/a	n/a	fixation
26319.659670036286	2750	n/a	793	89	2750	371.340329964	stim	stop-signal	404	1132948	0.0-19.4-1.4	beast_fmri_test	393	1130713,/,1131393,/,1132073,/,1132753,/	t,t,t,t	<img class = center src='/static/experiments/beast_fmri_test/images/B.png'></img>	89,71	2750.0	test	<img class = center src='/static/experiments/beast_fmri_test/images/redB.png'></img>	go	2100.0	2.0	4.0	go	target	B	89,Middle Finger	71,Index Finger	650.0	700.0	2100.0	2050.0	1.0	n/a	650.0	1.0	go_stim
29069.659670036286	371.34032996375089	n/a	793	89	2750	371.340329964	stim	stop-signal	404	1132948	0.0-19.4-1.4	beast_fmri_test	393	1130713,/,1131393,/,1132073,/,1132753,/	t,t,t,t	<img class = center src='/static/experiments/beast_fmri_test/images/B.png'></img>	89,71	2750.0	test	<img class = center src='/static/experiments/beast_fmri_test/images/redB.png'></img>	go	2100.0	2.0	4.0	go	target	B	89,Middle Finger	71,Index Finger	650.0	700.0	2100.0	2050.0	1.0	n/a	650.0	1.0	ITI
30356	500	n/a	-1	-1	500	0.0	fixation	poldrack-single-stim	405	1133863	0.0-19.5-0.5	beast_fmri_test	393	1133432,/	t	<div class = centerbox2><div class = fixation>+</div></div>	none	500.0	test	n/a	n/a	n/a	n/a	n/a	n/a	n/a	n/a	n/a	n/a	n/a	n/a	n/a	n/a	n/a	n/a	n/a	n/a	fixation
29166.451652720105	2750	n/a	795	89	2750	1193.54834728	stim	stop-signal	406	1136617	0.0-19.5-1.5	beast_fmri_test	393	1134114,/,1134793,/,1135473,/,1136152,/,1136833,/,1137513,/	t,t,t,t,t,t	<img class = center src='/static/experiments/beast_fmri_test/images/T.png'></img>	89,71	2750.0	test	<img class = center src='/static/experiments/beast_fmri_test/images/redT.png'></img>	go	2100.0	2.0	5.0	go	target	T	89,Middle Finger	71,Index Finger	650.0	700.0	2100.0	2050.0	1.0	n/a	650.0	1.0	go_stim
31916.451652720105	1193.5483472799679	n/a	795	89	2750	1193.54834728	stim	stop-signal	406	1136617	0.0-19.5-1.5	beast_fmri_test	393	1134114,/,1134793,/,1135473,/,1136152,/,1136833,/,1137513,/	t,t,t,t,t,t	<img class = center src='/static/experiments/beast_fmri_test/images/T.png'></img>	89,71	2750.0	test	<img class = center src='/static/experiments/beast_fmri_test/images/redT.png'></img>	go	2100.0	2.0	5.0	go	target	T	89,Middle Finger	71,Index Finger	650.0	700.0	2100.0	2050.0	1.0	n/a	650.0	1.0	ITI
34846	500	n/a	-1	-1	500	0.0	fixation	poldrack-single-stim	407	1138353	0.0-19.6-0.6	beast_fmri_test	393	1138194,/	t	<div class = centerbox2><div class = fixation>+</div></div>	none	500.0	test	n/a	n/a	n/a	n/a	n/a	n/a	n/a	n/a	n/a	n/a	n/a	n/a	n/a	n/a	n/a	n/a	n/a	n/a	fixation
34418.501990429126	700.0	n/a	700	71	2750	431.498009571	stim	stop-signal	408	1141107	0.0-19.6-1.6	beast_fmri_test	393	1138874,/,1139553,/,1140233,/,1140913,/	t,t,t,t	<img class = center src='/static/experiments/beast_fmri_test/images/D.png'></img>	89,71	2750.0	test	<img class = center src='/static/experiments/beast_fmri_test/images/redD.png'></img>	stop	2050.0	2.0	6.0	stop	non-target	D	89,Middle Finger	71,Index Finger	650.0	700.0	2100.0	2050.0	0.0	0.0	700.0	n/a	go_stim
36468.501990429126	2050.0	n/a	700	71	2750	431.498009571	stim	stop-signal	408	1141107	0.0-19.6-1.6	beast_fmri_test	393	1138874,/,1139553,/,1140233,/,1140913,/	t,t,t,t	<img class = center src='/static/experiments/beast_fmri_test/images/D.png'></img>	89,71	2750.0	test	<img class = center src='/static/experiments/beast_fmri_test/images/redD.png'></img>	stop	2050.0	2.0	6.0	stop	non-target	D	89,Middle Finger	71,Index Finger	650.0	700.0	2100.0	2050.0	0.0	0.0	700.0	n/a	stop_stim
37168.501990429126	431.49800957089121	n/a	700	71	2750	431.498009571	stim	stop-signal	408	1141107	0.0-19.6-1.6	beast_fmri_test	393	1138874,/,1139553,/,1140233,/,1140913,/	t,t,t,t	<img class = center src='/static/experiments/beast_fmri_test/images/D.png'></img>	89,71	2750.0	test	<img class = center src='/static/experiments/beast_fmri_test/images/redD.png'></img>	stop	2050.0	2.0	6.0	stop	non-target	D	89,Middle Finger	71,Index Finger	650.0	700.0	2100.0	2050.0	0.0	0.0	700.0	n/a	ITI
38573	500	n/a	-1	-1	500	0.0	fixation	poldrack-single-stim	409	1142080	0.0-19.7-0.7	beast_fmri_test	393	1141593,/	t	<div class = centerbox2><div class = fixation>+</div></div>	none	500.0	test	n/a	n/a	n/a	n/a	n/a	n/a	n/a	n/a	n/a	n/a	n/a	n/a	n/a	n/a	n/a	n/a	n/a	n/a	fixation
35320.683415608713	650.0	n/a	885	89	2750	3259.31658439	stim	stop-signal	410	1144837	0.0-19.7-1.7	beast_fmri_test	393	1142275,/,1142957,/,1143638,/,1144318,/,1144998,/,1145678,/,1146358,/,1147038,/,1147718,/	t,t,t,t,t,t,t,t,t	<img class = center src='/static/experiments/beast_fmri_test/images/T.png'></img>	89,71	2750.0	test	<img class = center src='/static/experiments/beast_fmri_test/images/redT.png'></img>	stop	2100.0	2.0	7.0	stop	target	T	89,Middle Finger	71,Index Finger	650.0	650.0	2100.0	2050.0	0.0	0.0	650.0	n/a	go_stim
37420.683415608713	2100.0	n/a	885	89	2750	3259.31658439	stim	stop-signal	410	1144837	0.0-19.7-1.7	beast_fmri_test	393	1142275,/,1142957,/,1143638,/,1144318,/,1144998,/,1145678,/,1146358,/,1147038,/,1147718,/	t,t,t,t,t,t,t,t,t	<img class = center src='/static/experiments/beast_fmri_test/images/T.png'></img>	89,71	2750.0	test	<img class = center src='/static/experiments/beast_fmri_test/images/redT.png'></img>	stop	2100.0	2.0	7.0	stop	target	T	89,Middle Finger	71,Index Finger	650.0	650.0	2100.0	2050.0	0.0	0.0	650.0	n/a	stop_stim
38070.683415608713	3259.3165843913184	n/a	885	89	2750	3259.31658439	stim	stop-signal	410	1144837	0.0-19.7-1.7	beast_fmri_test	393	1142275,/,1142957,/,1143638,/,1144318,/,1144998,/,1145678,/,1146358,/,1147038,/,1147718,/	t,t,t,t,t,t,t,t,t	<img class = center src='/static/experiments/beast_fmri_test/images/T.png'></img>	89,71	2750.0	test	<img class = center src='/static/experiments/beast_fmri_test/images/redT.png'></img>	stop	2100.0	2.0	7.0	stop	target	T	89,Middle Finger	71,Index Finger	650.0	650.0	2100.0	2050.0	0.0	0.0	650.0	n/a	ITI
45136	500	n/a	-1	-1	500	0.0	fixation	poldrack-single-stim	411	1148643	0.0-19.8-0.8	beast_fmri_test	393	1148398,/	t	<div class = centerbox2><div class = fixation>+</div></div>	none	500.0	test	n/a	n/a	n/a	n/a	n/a	n/a	n/a	n/a	n/a	n/a	n/a	n/a	n/a	n/a	n/a	n/a	n/a	n/a	fixation
44700.410726195667	2750	n/a	789	89	2750	437.589273804	stim	stop-signal	412	1151395	0.0-19.8-1.8	beast_fmri_test	393	1149078,/,1149758,/,1150438,/,1151118,/,1151798,/	t,t,t,t,t	<img class = center src='/static/experiments/beast_fmri_test/images/D.png'></img>	89,71	2750.0	test	<img class = center src='/static/experiments/beast_fmri_test/images/redD.png'></img>	go	2150.0	2.0	8.0	go	target	D	89,Middle Finger	71,Index Finger	600.0	650.0	2150.0	2050.0	1.0	n/a	600.0	1.0	go_stim
47450.410726195667	437.58927380432368	n/a	789	89	2750	437.589273804	stim	stop-signal	412	1151395	0.0-19.8-1.8	beast_fmri_test	393	1149078,/,1149758,/,1150438,/,1151118,/,1151798,/	t,t,t,t,t	<img class = center src='/static/experiments/beast_fmri_test/images/D.png'></img>	89,71	2750.0	test	<img class = center src='/static/experiments/beast_fmri_test/images/redD.png'></img>	go	2150.0	2.0	8.0	go	target	D	89,Middle Finger	71,Index Finger	600.0	650.0	2150.0	2050.0	1.0	n/a	600.0	1.0	ITI
48872	500	n/a	-1	-1	500	0.0	fixation	poldrack-single-stim	413	1152379	0.0-19.9-0.9	beast_fmri_test	393	n/a	n/a	<div class = centerbox2><div class = fixation>+</div></div>	none	500.0	test	n/a	n/a	n/a	n/a	n/a	n/a	n/a	n/a	n/a	n/a	n/a	n/a	n/a	n/a	n/a	n/a	n/a	n/a	fixation
48781.162212055875	2750	n/a	790	71	2750	97.8377879441	stim	stop-signal	414	1155136	0.0-19.9-1.9	beast_fmri_test	393	1152479,/,1153162,/,1153842,/,1154522,/,1155202,/	t,t,t,t,t	<img class = center src='/static/experiments/beast_fmri_test/images/D.png'></img>	89,71	2750.0	test	<img class = center src='/static/experiments/beast_fmri_test/images/redD.png'></img>	go	2100.0	2.0	9.0	go	non-target	D	89,Middle Finger	71,Index Finger	600.0	650.0	2150.0	2100.0	1.0	n/a	650.0	1.0	go_stim
51531.162212055875	97.837787944139905	n/a	790	71	2750	97.8377879441	stim	stop-signal	414	1155136	0.0-19.9-1.9	beast_fmri_test	393	1152479,/,1153162,/,1153842,/,1154522,/,1155202,/	t,t,t,t,t	<img class = center src='/static/experiments/beast_fmri_test/images/D.png'></img>	89,71	2750.0	test	<img class = center src='/static/experiments/beast_fmri_test/images/redD.png'></img>	go	2100.0	2.0	9.0	go	non-target	D	89,Middle Finger	71,Index Finger	600.0	650.0	2150.0	2100.0	1.0	n/a	650.0	1.0	ITI
52267	500	n/a	-1	-1	500	0.0	fixation	poldrack-single-stim	415	1155774	0.0-19.10-0.10	beast_fmri_test	393	n/a	n/a	<div class = centerbox2><div class = fixation>+</div></div>	none	500.0	test	n/a	n/a	n/a	n/a	n/a	n/a	n/a	n/a	n/a	n/a	n/a	n/a	n/a	n/a	n/a	n/a	n/a	n/a	fixation
50758.259044650011	2750	n/a	747	71	2750	1512.74095535	stim	stop-signal	416	1158528	0.0-19.10-1.10	beast_fmri_test	393	1155881,/,1156562,/,1157242,/,1157922,/,1158602,/,1159282,/,1159962,/	t,t,t,t,t,t,t	<img class = center src='/static/experiments/beast_fmri_test/images/P.png'></img>	89,71	2750.0	test	<img class = center src='/static/experiments/beast_fmri_test/images/redP.png'></img>	go	2100.0	2.0	10.0	go	non-target	P	89,Middle Finger	71,Index Finger	600.0	650.0	2150.0	2100.0	1.0	n/a	650.0	1.0	go_stim
53508.259044650011	1512.7409553499881	n/a	747	71	2750	1512.74095535	stim	stop-signal	416	1158528	0.0-19.10-1.10	beast_fmri_test	393	1155881,/,1156562,/,1157242,/,1157922,/,1158602,/,1159282,/,1159962,/	t,t,t,t,t,t,t	<img class = center src='/static/experiments/beast_fmri_test/images/P.png'></img>	89,71	2750.0	test	<img class = center src='/static/experiments/beast_fmri_test/images/redP.png'></img>	go	2100.0	2.0	10.0	go	non-target	P	89,Middle Finger	71,Index Finger	600.0	650.0	2150.0	2100.0	1.0	n/a	650.0	1.0	ITI
57076	500	n/a	-1	-1	500	0.0	fixation	poldrack-single-stim	417	1160583	0.0-19.11-0.11	beast_fmri_test	393	n/a	n/a	<div class = centerbox2><div class = fixation>+</div></div>	none	500.0	test	n/a	n/a	n/a	n/a	n/a	n/a	n/a	n/a	n/a	n/a	n/a	n/a	n/a	n/a	n/a	n/a	n/a	n/a	fixation
56908.171248849481	2750	n/a	644	71	2750	174.828751151	stim	stop-signal	418	1163340	0.0-19.11-1.11	beast_fmri_test	393	1160642,/,1161322,/,1162002,/,1162684,/,1163365,/	t,t,t,t,t	<img class = center src='/static/experiments/beast_fmri_test/images/V.png'></img>	89,71	2750.0	test	<img class = center src='/static/experiments/beast_fmri_test/images/redV.png'></img>	go	2100.0	2.0	11.0	go	non-target	V	89,Middle Finger	71,Index Finger	600.0	650.0	2150.0	2100.0	1.0	n/a	650.0	1.0	go_stim
59658.171248849481	174.82875115059414	n/a	644	71	2750	174.828751151	stim	stop-signal	418	1163340	0.0-19.11-1.11	beast_fmri_test	393	1160642,/,1161322,/,1162002,/,1162684,/,1163365,/	t,t,t,t,t	<img class = center src='/static/experiments/beast_fmri_test/images/V.png'></img>	89,71	2750.0	test	<img class = center src='/static/experiments/beast_fmri_test/images/redV.png'></img>	go	2100.0	2.0	11.0	go	non-target	V	89,Middle Finger	71,Index Finger	600.0	650.0	2150.0	2100.0	1.0	n/a	650.0	1.0	ITI
60548	500	n/a	-1	-1	500	0.0	fixation	poldrack-single-stim	419	1164055	0.0-19.12-0.12	beast_fmri_test	393	1164046,/	t	<div class = centerbox2><div class = fixation>+</div></div>	none	500.0	test	n/a	n/a	n/a	n/a	n/a	n/a	n/a	n/a	n/a	n/a	n/a	n/a	n/a	n/a	n/a	n/a	n/a	n/a	fixation
60029.355990478303	650.0	n/a	856	71	2750	520.644009522	stim	stop-signal	420	1166807	0.0-19.12-1.12	beast_fmri_test	393	1164726,/,1165407,/,1166086,/,1166767,/	t,t,t,t	<img class = center src='/static/experiments/beast_fmri_test/images/T.png'></img>	89,71	2750.0	test	<img class = center src='/static/experiments/beast_fmri_test/images/redT.png'></img>	stop	2100.0	2.0	12.0	stop	non-target	T	89,Middle Finger	71,Index Finger	600.0	650.0	2150.0	2100.0	0.0	0.0	650.0	n/a	go_stim
62129.355990478303	2100.0	n/a	856	71	2750	520.644009522	stim	stop-signal	420	1166807	0.0-19.12-1.12	beast_fmri_test	393	1164726,/,1165407,/,1166086,/,1166767,/	t,t,t,t	<img class = center src='/static/experiments/beast_fmri_test/images/T.png'></img>	89,71	2750.0	test	<img class = center src='/static/experiments/beast_fmri_test/images/redT.png'></img>	stop	2100.0	2.0	12.0	stop	non-target	T	89,Middle Finger	71,Index Finger	600.0	650.0	2150.0	2100.0	0.0	0.0	650.0	n/a	stop_stim
62779.355990478303	520.64400952171536	n/a	856	71	2750	520.644009522	stim	stop-signal	420	1166807	0.0-19.12-1.12	beast_fmri_test	393	1164726,/,1165407,/,1166086,/,1166767,/	t,t,t,t	<img class = center src='/static/experiments/beast_fmri_test/images/T.png'></img>	89,71	2750.0	test	<img class = center src='/static/experiments/beast_fmri_test/images/redT.png'></img>	stop	2100.0	2.0	12.0	stop	non-target	T	89,Middle Finger	71,Index Finger	600.0	650.0	2150.0	2100.0	0.0	0.0	650.0	n/a	ITI
64363	500	n/a	-1	-1	500	0.0	fixation	poldrack-single-stim	421	1167870	0.0-19.13-0.13	beast_fmri_test	393	1167447,/	t	<div class = centerbox2><div class = fixation>+</div></div>	none	500.0	test	n/a	n/a	n/a	n/a	n/a	n/a	n/a	n/a	n/a	n/a	n/a	n/a	n/a	n/a	n/a	n/a	n/a	n/a	fixation
64355.61954813404	2750	n/a	910	71	2750	11.380451866	stim	stop-signal	422	1170624	0.0-19.13-1.13	beast_fmri_test	393	1168127,/,1168807,/,1169486,/,1170167,/	t,t,t,t	<img class = center src='/static/experiments/beast_fmri_test/images/P.png'></img>	89,71	2750.0	test	<img class = center src='/static/experiments/beast_fmri_test/images/redP.png'></img>	go	2150.0	2.0	13.0	go	non-target	P	89,Middle Finger	71,Index Finger	600.0	600.0	2150.0	2150.0	1.0	n/a	600.0	1.0	go_stim
67105.61954813404	11.380451866030956	n/a	910	71	2750	11.380451866	stim	stop-signal	422	1170624	0.0-19.13-1.13	beast_fmri_test	393	1168127,/,1168807,/,1169486,/,1170167,/	t,t,t,t	<img class = center src='/static/experiments/beast_fmri_test/images/P.png'></img>	89,71	2750.0	test	<img class = center src='/static/experiments/beast_fmri_test/images/redP.png'></img>	go	2150.0	2.0	13.0	go	non-target	P	89,Middle Finger	71,Index Finger	600.0	600.0	2150.0	2150.0	1.0	n/a	600.0	1.0	ITI
67668	500	n/a	-1	-1	500	0.0	fixation	poldrack-single-stim	423	1171175	0.0-19.14-0.14	beast_fmri_test	393	1170847,/	t	<div class = centerbox2><div class = fixation>+</div></div>	none	500.0	test	n/a	n/a	n/a	n/a	n/a	n/a	n/a	n/a	n/a	n/a	n/a	n/a	n/a	n/a	n/a	n/a	n/a	n/a	fixation
67207.453246801626	2750	n/a	1061	71	2750	468.546753198	stim	stop-signal	424	1173933	0.0-19.14-1.14	beast_fmri_test	393	1171526,/,1172208,/,1172889,/,1173570,/,1174251,/	t,t,t,t,t	<img class = center src='/static/experiments/beast_fmri_test/images/D.png'></img>	89,71	2750.0	test	<img class = center src='/static/experiments/beast_fmri_test/images/redD.png'></img>	go	2150.0	2.0	14.0	go	non-target	D	89,Middle Finger	71,Index Finger	600.0	600.0	2150.0	2150.0	1.0	n/a	600.0	1.0	go_stim
69957.453246801626	468.54675319835434	n/a	1061	71	2750	468.546753198	stim	stop-signal	424	1173933	0.0-19.14-1.14	beast_fmri_test	393	1171526,/,1172208,/,1172889,/,1173570,/,1174251,/	t,t,t,t,t	<img class = center src='/static/experiments/beast_fmri_test/images/D.png'></img>	89,71	2750.0	test	<img class = center src='/static/experiments/beast_fmri_test/images/redD.png'></img>	go	2150.0	2.0	14.0	go	non-target	D	89,Middle Finger	71,Index Finger	600.0	600.0	2150.0	2150.0	1.0	n/a	600.0	1.0	ITI
71437	500	n/a	-1	-1	500	0.0	fixation	poldrack-single-stim	425	1174944	0.0-19.15-0.15	beast_fmri_test	393	1174932,/	t	<div class = centerbox2><div class = fixation>+</div></div>	none	500.0	test	n/a	n/a	n/a	n/a	n/a	n/a	n/a	n/a	n/a	n/a	n/a	n/a	n/a	n/a	n/a	n/a	n/a	n/a	fixation
70978.736889270134	2750	n/a	1117	71	2750	461.26311073	stim	stop-signal	426	1177697	0.0-19.15-1.15	beast_fmri_test	393	1175611,/,1176290,/,1176971,/,1177651,/	t,t,t,t	<img class = center src='/static/experiments/beast_fmri_test/images/B.png'></img>	89,71	2750.0	test	<img class = center src='/static/experiments/beast_fmri_test/images/redB.png'></img>	go	2150.0	2.0	15.0	go	non-target	B	89,Middle Finger	71,Index Finger	600.0	600.0	2150.0	2150.0	1.0	n/a	600.0	1.0	go_stim
73728.736889270134	461.26311072989347	n/a	1117	71	2750	461.26311073	stim	stop-signal	426	1177697	0.0-19.15-1.15	beast_fmri_test	393	1175611,/,1176290,/,1176971,/,1177651,/	t,t,t,t	<img class = center src='/static/experiments/beast_fmri_test/images/B.png'></img>	89,71	2750.0	test	<img class = center src='/static/experiments/beast_fmri_test/images/redB.png'></img>	go	2150.0	2.0	15.0	go	non-target	B	89,Middle Finger	71,Index Finger	600.0	600.0	2150.0	2150.0	1.0	n/a	600.0	1.0	ITI
75193	500	n/a	-1	-1	500	0.0	fixation	poldrack-single-stim	427	1178700	0.0-19.16-0.16	beast_fmri_test	393	1178331,/	t	<div class = centerbox2><div class = fixation>+</div></div>	none	500.0	test	n/a	n/a	n/a	n/a	n/a	n/a	n/a	n/a	n/a	n/a	n/a	n/a	n/a	n/a	n/a	n/a	n/a	n/a	fixation
74884.593265764182	2750	n/a	1183	71	2750	312.406734236	stim	stop-signal	428	1181454	0.0-19.16-1.16	beast_fmri_test	393	1179011,/,1179692,/,1180371,/,1181051,/,1181731,/	t,t,t,t,t	<img class = center src='/static/experiments/beast_fmri_test/images/P.png'></img>	89,71	2750.0	test	<img class = center src='/static/experiments/beast_fmri_test/images/redP.png'></img>	go	2150.0	2.0	16.0	go	non-target	P	89,Middle Finger	71,Index Finger	600.0	600.0	2150.0	2150.0	1.0	n/a	600.0	1.0	go_stim
77634.593265764182	312.40673423592096	n/a	1183	71	2750	312.406734236	stim	stop-signal	428	1181454	0.0-19.16-1.16	beast_fmri_test	393	1179011,/,1179692,/,1180371,/,1181051,/,1181731,/	t,t,t,t,t	<img class = center src='/static/experiments/beast_fmri_test/images/P.png'></img>	89,71	2750.0	test	<img class = center src='/static/experiments/beast_fmri_test/images/redP.png'></img>	go	2150.0	2.0	16.0	go	non-target	P	89,Middle Finger	71,Index Finger	600.0	600.0	2150.0	2150.0	1.0	n/a	600.0	1.0	ITI
78802	500	n/a	-1	-1	500	0.0	fixation	poldrack-single-stim	429	1182309	0.0-19.17-0.17	beast_fmri_test	393	n/a	n/a	<div class = centerbox2><div class = fixation>+</div></div>	none	500.0	test	n/a	n/a	n/a	n/a	n/a	n/a	n/a	n/a	n/a	n/a	n/a	n/a	n/a	n/a	n/a	n/a	n/a	n/a	fixation
77410.073803069536	2750	n/a	725	89	2750	1397.92619693	stim	stop-signal	430	1185065	0.0-19.17-1.17	beast_fmri_test	393	1182412,/,1183095,/,1183775,/,1184456,/,1185135,/,1185815,/	t,t,t,t,t,t	<img class = center src='/static/experiments/beast_fmri_test/images/B.png'></img>	89,71	2750.0	test	<img class = center src='/static/experiments/beast_fmri_test/images/redB.png'></img>	go	2150.0	2.0	17.0	go	target	B	89,Middle Finger	71,Index Finger	600.0	600.0	2150.0	2150.0	1.0	n/a	600.0	1.0	go_stim
80160.073803069536	1397.926196930415	n/a	725	89	2750	1397.92619693	stim	stop-signal	430	1185065	0.0-19.17-1.17	beast_fmri_test	393	1182412,/,1183095,/,1183775,/,1184456,/,1185135,/,1185815,/	t,t,t,t,t,t	<img class = center src='/static/experiments/beast_fmri_test/images/B.png'></img>	89,71	2750.0	test	<img class = center src='/static/experiments/beast_fmri_test/images/redB.png'></img>	go	2150.0	2.0	17.0	go	target	B	89,Middle Finger	71,Index Finger	600.0	600.0	2150.0	2150.0	1.0	n/a	600.0	1.0	ITI
83500	500	n/a	-1	-1	500	0.0	fixation	poldrack-single-stim	431	1187007	0.0-19.18-0.18	beast_fmri_test	393	1186505,/	t	<div class = centerbox2><div class = fixation>+</div></div>	none	500.0	test	n/a	n/a	n/a	n/a	n/a	n/a	n/a	n/a	n/a	n/a	n/a	n/a	n/a	n/a	n/a	n/a	n/a	n/a	fixation
83041.548593458952	2750	n/a	823	71	2750	461.451406541	stim	stop-signal	432	1189760	0.0-19.18-1.18	beast_fmri_test	393	1187175,/,1187855,/,1188535,/,1189214,/,1189895,/	t,t,t,t,t	<img class = center src='/static/experiments/beast_fmri_test/images/B.png'></img>	89,71	2750.0	test	<img class = center src='/static/experiments/beast_fmri_test/images/redB.png'></img>	go	2150.0	2.0	18.0	go	non-target	B	89,Middle Finger	71,Index Finger	600.0	600.0	2150.0	2150.0	1.0	n/a	600.0	1.0	go_stim
85791.548593458952	461.45140654107871	n/a	823	71	2750	461.451406541	stim	stop-signal	432	1189760	0.0-19.18-1.18	beast_fmri_test	393	1187175,/,1187855,/,1188535,/,1189214,/,1189895,/	t,t,t,t,t	<img class = center src='/static/experiments/beast_fmri_test/images/B.png'></img>	89,71	2750.0	test	<img class = center src='/static/experiments/beast_fmri_test/images/redB.png'></img>	go	2150.0	2.0	18.0	go	non-target	B	89,Middle Finger	71,Index Finger	600.0	600.0	2150.0	2150.0	1.0	n/a	600.0	1.0	ITI
87263	500	n/a	-1	-1	500	0.0	fixation	poldrack-single-stim	433	1190770	0.0-19.19-0.19	beast_fmri_test	393	1190575,/	t	<div class = centerbox2><div class = fixation>+</div></div>	none	500.0	test	n/a	n/a	n/a	n/a	n/a	n/a	n/a	n/a	n/a	n/a	n/a	n/a	n/a	n/a	n/a	n/a	n/a	n/a	fixation
86457.879902969347	2750	n/a	1181	71	2750	809.120097031	stim	stop-signal	434	1193524	0.0-19.19-1.19	beast_fmri_test	393	1191256,/,1191936,/,1192615,/,1193295,/,1193976,/	t,t,t,t,t	<img class = center src='/static/experiments/beast_fmri_test/images/P.png'></img>	89,71	2750.0	test	<img class = center src='/static/experiments/beast_fmri_test/images/redP.png'></img>	go	2150.0	2.0	19.0	go	non-target	P	89,Middle Finger	71,Index Finger	600.0	600.0	2150.0	2150.0	1.0	n/a	600.0	1.0	go_stim
89207.879902969347	809.12009703054139	n/a	1181	71	2750	809.120097031	stim	stop-signal	434	1193524	0.0-19.19-1.19	beast_fmri_test	393	1191256,/,1191936,/,1192615,/,1193295,/,1193976,/	t,t,t,t,t	<img class = center src='/static/experiments/beast_fmri_test/images/P.png'></img>	89,71	2750.0	test	<img class = center src='/static/experiments/beast_fmri_test/images/redP.png'></img>	go	2150.0	2.0	19.0	go	non-target	P	89,Middle Finger	71,Index Finger	600.0	600.0	2150.0	2150.0	1.0	n/a	600.0	1.0	ITI
91374	500	n/a	-1	-1	500	0.0	fixation	poldrack-single-stim	435	1194881	0.0-19.20-0.20	beast_fmri_test	393	1194655,/	t	<div class = centerbox2><div class = fixation>+</div></div>	none	500.0	test	n/a	n/a	n/a	n/a	n/a	n/a	n/a	n/a	n/a	n/a	n/a	n/a	n/a	n/a	n/a	n/a	n/a	n/a	fixation
90413.848254066426	600.0	n/a	684	71	2750	964.151745934	stim	stop-signal	436	1197635	0.0-19.20-1.20	beast_fmri_test	393	1195335,/,1196015,/,1196696,/,1197376,/,1198057,/	t,t,t,t,t	<img class = center src='/static/experiments/beast_fmri_test/images/D.png'></img>	89,71	2750.0	test	<img class = center src='/static/experiments/beast_fmri_test/images/redD.png'></img>	stop	2150.0	2.0	20.0	stop	non-target	D	89,Middle Finger	71,Index Finger	600.0	600.0	2150.0	2150.0	0.0	0.0	600.0	n/a	go_stim
92563.848254066426	2150.0	n/a	684	71	2750	964.151745934	stim	stop-signal	436	1197635	0.0-19.20-1.20	beast_fmri_test	393	1195335,/,1196015,/,1196696,/,1197376,/,1198057,/	t,t,t,t,t	<img class = center src='/static/experiments/beast_fmri_test/images/D.png'></img>	89,71	2750.0	test	<img class = center src='/static/experiments/beast_fmri_test/images/redD.png'></img>	stop	2150.0	2.0	20.0	stop	non-target	D	89,Middle Finger	71,Index Finger	600.0	600.0	2150.0	2150.0	0.0	0.0	600.0	n/a	stop_stim
93163.848254066426	964.15174593365418	n/a	684	71	2750	964.151745934	stim	stop-signal	436	1197635	0.0-19.20-1.20	beast_fmri_test	393	1195335,/,1196015,/,1196696,/,1197376,/,1198057,/	t,t,t,t,t	<img class = center src='/static/experiments/beast_fmri_test/images/D.png'></img>	89,71	2750.0	test	<img class = center src='/static/experiments/beast_fmri_test/images/redD.png'></img>	stop	2150.0	2.0	20.0	stop	non-target	D	89,Middle Finger	71,Index Finger	600.0	600.0	2150.0	2150.0	0.0	0.0	600.0	n/a	ITI
95633	500	n/a	-1	-1	500	0.0	fixation	poldrack-single-stim	437	1199140	0.0-19.21-0.21	beast_fmri_test	393	1198736,/	t	<div class = centerbox2><div class = fixation>+</div></div>	none	500.0	test	n/a	n/a	n/a	n/a	n/a	n/a	n/a	n/a	n/a	n/a	n/a	n/a	n/a	n/a	n/a	n/a	n/a	n/a	fixation
93441.595936952857	2750	n/a	655	71	2750	2195.40406305	stim	stop-signal	438	1201894	0.0-19.21-1.21	beast_fmri_test	393	1199416,/,1200097,/,1200776,/,1201456,/,1202135,/,1202819,/,1203499,/	t,t,t,t,t,t,t	<img class = center src='/static/experiments/beast_fmri_test/images/V.png'></img>	89,71	2750.0	test	<img class = center src='/static/experiments/beast_fmri_test/images/redV.png'></img>	go	2200.0	2.0	21.0	go	non-target	V	89,Middle Finger	71,Index Finger	600.0	550.0	2150.0	2200.0	1.0	n/a	550.0	1.0	go_stim
96191.595936952857	2195.4040630471536	n/a	655	71	2750	2195.40406305	stim	stop-signal	438	1201894	0.0-19.21-1.21	beast_fmri_test	393	1199416,/,1200097,/,1200776,/,1201456,/,1202135,/,1202819,/,1203499,/	t,t,t,t,t,t,t	<img class = center src='/static/experiments/beast_fmri_test/images/V.png'></img>	89,71	2750.0	test	<img class = center src='/static/experiments/beast_fmri_test/images/redV.png'></img>	go	2200.0	2.0	21.0	go	non-target	V	89,Middle Finger	71,Index Finger	600.0	550.0	2150.0	2200.0	1.0	n/a	550.0	1.0	ITI
101129	500	n/a	-1	-1	500	0.0	fixation	poldrack-single-stim	439	1204636	0.0-19.22-0.22	beast_fmri_test	393	1204181,/	t	<div class = centerbox2><div class = fixation>+</div></div>	none	500.0	test	n/a	n/a	n/a	n/a	n/a	n/a	n/a	n/a	n/a	n/a	n/a	n/a	n/a	n/a	n/a	n/a	n/a	n/a	fixation
101124.08046293934	600.0	n/a	763	89	2750	8.91953706073	stim	stop-signal	440	1207390	0.0-19.22-1.22	beast_fmri_test	393	1204860,/,1205541,/,1206221,/,1206900,/	t,t,t,t	<img class = center src='/static/experiments/beast_fmri_test/images/D.png'></img>	89,71	2750.0	test	<img class = center src='/static/experiments/beast_fmri_test/images/redD.png'></img>	stop	2150.0	2.0	22.0	stop	target	D	89,Middle Finger	71,Index Finger	600.0	550.0	2150.0	2200.0	0.0	0.0	600.0	n/a	go_stim
103274.08046293934	2150.0	n/a	763	89	2750	8.91953706073	stim	stop-signal	440	1207390	0.0-19.22-1.22	beast_fmri_test	393	1204860,/,1205541,/,1206221,/,1206900,/	t,t,t,t	<img class = center src='/static/experiments/beast_fmri_test/images/D.png'></img>	89,71	2750.0	test	<img class = center src='/static/experiments/beast_fmri_test/images/redD.png'></img>	stop	2150.0	2.0	22.0	stop	target	D	89,Middle Finger	71,Index Finger	600.0	550.0	2150.0	2200.0	0.0	0.0	600.0	n/a	stop_stim
103874.08046293934	8.9195370607311677	n/a	763	89	2750	8.91953706073	stim	stop-signal	440	1207390	0.0-19.22-1.22	beast_fmri_test	393	1204860,/,1205541,/,1206221,/,1206900,/	t,t,t,t	<img class = center src='/static/experiments/beast_fmri_test/images/D.png'></img>	89,71	2750.0	test	<img class = center src='/static/experiments/beast_fmri_test/images/redD.png'></img>	stop	2150.0	2.0	22.0	stop	target	D	89,Middle Finger	71,Index Finger	600.0	550.0	2150.0	2200.0	0.0	0.0	600.0	n/a	ITI
104431	500	n/a	-1	-1	500	0.0	fixation	poldrack-single-stim	441	1207938	0.0-19.23-0.23	beast_fmri_test	393	1207581,/	t	<div class = centerbox2><div class = fixation>+</div></div>	none	500.0	test	n/a	n/a	n/a	n/a	n/a	n/a	n/a	n/a	n/a	n/a	n/a	n/a	n/a	n/a	n/a	n/a	n/a	n/a	fixation
104162.65490290965	550.0	n/a	-1	-1	2750	271.34509709	stim	stop-signal	442	1210691	0.0-19.23-1.23	beast_fmri_test	393	1208261,/,1208941,/,1209621,/,1210301,/	t,t,t,t	<img class = center src='/static/experiments/beast_fmri_test/images/T.png'></img>	89,71	2750.0	test	<img class = center src='/static/experiments/beast_fmri_test/images/redT.png'></img>	stop	2200.0	2.0	23.0	stop	non-target	T	89,Middle Finger	71,Index Finger	550.0	550.0	2150.0	2200.0	0.0	1.0	550.0	n/a	go_stim
106362.65490290965	2200.0	n/a	-1	-1	2750	271.34509709	stim	stop-signal	442	1210691	0.0-19.23-1.23	beast_fmri_test	393	1208261,/,1208941,/,1209621,/,1210301,/	t,t,t,t	<img class = center src='/static/experiments/beast_fmri_test/images/T.png'></img>	89,71	2750.0	test	<img class = center src='/static/experiments/beast_fmri_test/images/redT.png'></img>	stop	2200.0	2.0	23.0	stop	non-target	T	89,Middle Finger	71,Index Finger	550.0	550.0	2150.0	2200.0	0.0	1.0	550.0	n/a	stop_stim
106912.65490290965	271.34509709026685	n/a	-1	-1	2750	271.34509709	stim	stop-signal	442	1210691	0.0-19.23-1.23	beast_fmri_test	393	1208261,/,1208941,/,1209621,/,1210301,/	t,t,t,t	<img class = center src='/static/experiments/beast_fmri_test/images/T.png'></img>	89,71	2750.0	test	<img class = center src='/static/experiments/beast_fmri_test/images/redT.png'></img>	stop	2200.0	2.0	23.0	stop	non-target	T	89,Middle Finger	71,Index Finger	550.0	550.0	2150.0	2200.0	0.0	1.0	550.0	n/a	ITI
108001	500	n/a	-1	-1	500	0.0	fixation	poldrack-single-stim	443	1211508	0.0-19.24-0.24	beast_fmri_test	393	1211007,/	t	<div class = centerbox2><div class = fixation>+</div></div>	none	500.0	test	n/a	n/a	n/a	n/a	n/a	n/a	n/a	n/a	n/a	n/a	n/a	n/a	n/a	n/a	n/a	n/a	n/a	n/a	fixation
106868.66871162248	2750	n/a	904	89	2750	1139.33128838	stim	stop-signal	444	1214265	0.0-19.24-1.24	beast_fmri_test	393	1211661,/,1212342,/,1213024,/,1213704,/,1214384,/,1215065,/	t,t,t,t,t,t	<img class = center src='/static/experiments/beast_fmri_test/images/D.png'></img>	89,71	2750.0	test	<img class = center src='/static/experiments/beast_fmri_test/images/redD.png'></img>	go	2200.0	2.0	24.0	go	target	D	89,Middle Finger	71,Index Finger	550.0	600.0	2200.0	2200.0	1.0	n/a	550.0	1.0	go_stim
109618.66871162248	1139.3312883776075	n/a	904	89	2750	1139.33128838	stim	stop-signal	444	1214265	0.0-19.24-1.24	beast_fmri_test	393	1211661,/,1212342,/,1213024,/,1213704,/,1214384,/,1215065,/	t,t,t,t,t,t	<img class = center src='/static/experiments/beast_fmri_test/images/D.png'></img>	89,71	2750.0	test	<img class = center src='/static/experiments/beast_fmri_test/images/redD.png'></img>	go	2200.0	2.0	24.0	go	target	D	89,Middle Finger	71,Index Finger	550.0	600.0	2200.0	2200.0	1.0	n/a	550.0	1.0	ITI
112440	500	n/a	-1	-1	500	0.0	fixation	poldrack-single-stim	445	1215947	0.0-19.25-0.25	beast_fmri_test	393	1215745,/	t	<div class = centerbox2><div class = fixation>+</div></div>	none	500.0	test	n/a	n/a	n/a	n/a	n/a	n/a	n/a	n/a	n/a	n/a	n/a	n/a	n/a	n/a	n/a	n/a	n/a	n/a	fixation
110913.75459695538	2750	n/a	818	89	2750	1528.24540304	stim	stop-signal	446	1218699	0.0-19.25-1.25	beast_fmri_test	393	1216425,/,1217105,/,1217784,/,1218464,/,1219144,/,1219825,/	t,t,t,t,t,t	<img class = center src='/static/experiments/beast_fmri_test/images/T.png'></img>	89,71	2750.0	test	<img class = center src='/static/experiments/beast_fmri_test/images/redT.png'></img>	go	2200.0	2.0	25.0	go	target	T	89,Middle Finger	71,Index Finger	550.0	600.0	2200.0	2200.0	1.0	n/a	550.0	1.0	go_stim
113663.75459695538	1528.2454030446349	n/a	818	89	2750	1528.24540304	stim	stop-signal	446	1218699	0.0-19.25-1.25	beast_fmri_test	393	1216425,/,1217105,/,1217784,/,1218464,/,1219144,/,1219825,/	t,t,t,t,t,t	<img class = center src='/static/experiments/beast_fmri_test/images/T.png'></img>	89,71	2750.0	test	<img class = center src='/static/experiments/beast_fmri_test/images/redT.png'></img>	go	2200.0	2.0	25.0	go	target	T	89,Middle Finger	71,Index Finger	550.0	600.0	2200.0	2200.0	1.0	n/a	550.0	1.0	ITI
117265	500	n/a	-1	-1	500	0.0	fixation	poldrack-single-stim	447	1220772	0.0-19.26-0.26	beast_fmri_test	393	1220504,/	t	<div class = centerbox2><div class = fixation>+</div></div>	none	500.0	test	n/a	n/a	n/a	n/a	n/a	n/a	n/a	n/a	n/a	n/a	n/a	n/a	n/a	n/a	n/a	n/a	n/a	n/a	fixation
115038.53951656912	2750	n/a	832	71	2750	2233.46048343	stim	stop-signal	448	1223529	0.0-19.26-1.26	beast_fmri_test	393	1221185,/,1221865,/,1222547,/,1223230,/,1223909,/,1224590,/,1225270,/	t,t,t,t,t,t,t	<img class = center src='/static/experiments/beast_fmri_test/images/T.png'></img>	89,71	2750.0	test	<img class = center src='/static/experiments/beast_fmri_test/images/redT.png'></img>	go	2150.0	2.0	26.0	go	non-target	T	89,Middle Finger	71,Index Finger	550.0	600.0	2200.0	2150.0	1.0	n/a	600.0	1.0	go_stim
117788.53951656912	2233.4604834308857	n/a	832	71	2750	2233.46048343	stim	stop-signal	448	1223529	0.0-19.26-1.26	beast_fmri_test	393	1221185,/,1221865,/,1222547,/,1223230,/,1223909,/,1224590,/,1225270,/	t,t,t,t,t,t,t	<img class = center src='/static/experiments/beast_fmri_test/images/T.png'></img>	89,71	2750.0	test	<img class = center src='/static/experiments/beast_fmri_test/images/redT.png'></img>	go	2150.0	2.0	26.0	go	non-target	T	89,Middle Finger	71,Index Finger	550.0	600.0	2200.0	2150.0	1.0	n/a	600.0	1.0	ITI
122799	500	n/a	-1	-1	500	0.0	fixation	poldrack-single-stim	449	1226306	0.0-19.27-0.27	beast_fmri_test	393	1225950,/	t	<div class = centerbox2><div class = fixation>+</div></div>	none	500.0	test	n/a	n/a	n/a	n/a	n/a	n/a	n/a	n/a	n/a	n/a	n/a	n/a	n/a	n/a	n/a	n/a	n/a	n/a	fixation
120207.63804759365	2750	n/a	1239	71	2750	2595.36195241	stim	stop-signal	450	1229060	0.0-19.27-1.27	beast_fmri_test	393	1226630,/,1227309,/,1227990,/,1228670,/,1229350,/,1230030,/,1230710,/,1231389,/	t,t,t,t,t,t,t,t	<img class = center src='/static/experiments/beast_fmri_test/images/V.png'></img>	89,71	2750.0	test	<img class = center src='/static/experiments/beast_fmri_test/images/redV.png'></img>	go	2150.0	2.0	27.0	go	non-target	V	89,Middle Finger	71,Index Finger	550.0	600.0	2200.0	2150.0	1.0	n/a	600.0	1.0	go_stim
122957.63804759365	2595.3619524064443	n/a	1239	71	2750	2595.36195241	stim	stop-signal	450	1229060	0.0-19.27-1.27	beast_fmri_test	393	1226630,/,1227309,/,1227990,/,1228670,/,1229350,/,1230030,/,1230710,/,1231389,/	t,t,t,t,t,t,t,t	<img class = center src='/static/experiments/beast_fmri_test/images/V.png'></img>	89,71	2750.0	test	<img class = center src='/static/experiments/beast_fmri_test/images/redV.png'></img>	go	2150.0	2.0	27.0	go	non-target	V	89,Middle Finger	71,Index Finger	550.0	600.0	2200.0	2150.0	1.0	n/a	600.0	1.0	ITI
128692	500	n/a	-1	-1	500	0.0	fixation	poldrack-single-stim	451	1232199	0.0-19.28-0.28	beast_fmri_test	393	1232069,/	t	<div class = centerbox2><div class = fixation>+</div></div>	none	500.0	test	n/a	n/a	n/a	n/a	n/a	n/a	n/a	n/a	n/a	n/a	n/a	n/a	n/a	n/a	n/a	n/a	n/a	n/a	fixation
127634.68033265136	2750	n/a	765	89	2750	1064.31966735	stim	stop-signal	452	1234956	0.0-19.28-1.28	beast_fmri_test	393	1232752,/,1233434,/,1234114,/,1234794,/,1235474,/	t,t,t,t,t	<img class = center src='/static/experiments/beast_fmri_test/images/T.png'></img>	89,71	2750.0	test	<img class = center src='/static/experiments/beast_fmri_test/images/redT.png'></img>	go	2200.0	2.0	28.0	go	target	T	89,Middle Finger	71,Index Finger	550.0	600.0	2200.0	2150.0	1.0	n/a	550.0	1.0	go_stim
130384.68033265136	1064.3196673485841	n/a	765	89	2750	1064.31966735	stim	stop-signal	452	1234956	0.0-19.28-1.28	beast_fmri_test	393	1232752,/,1233434,/,1234114,/,1234794,/,1235474,/	t,t,t,t,t	<img class = center src='/static/experiments/beast_fmri_test/images/T.png'></img>	89,71	2750.0	test	<img class = center src='/static/experiments/beast_fmri_test/images/redT.png'></img>	go	2200.0	2.0	28.0	go	target	T	89,Middle Finger	71,Index Finger	550.0	600.0	2200.0	2150.0	1.0	n/a	550.0	1.0	ITI
133057	500	n/a	-1	-1	500	0.0	fixation	poldrack-single-stim	453	1236564	0.0-19.29-0.29	beast_fmri_test	393	1236154,/	t	<div class = centerbox2><div class = fixation>+</div></div>	none	500.0	test	n/a	n/a	n/a	n/a	n/a	n/a	n/a	n/a	n/a	n/a	n/a	n/a	n/a	n/a	n/a	n/a	n/a	n/a	fixation
132218.18899405422	600.0	n/a	811	71	2750	842.811005946	stim	stop-signal	454	1239318	0.0-19.29-1.29	beast_fmri_test	393	1236834,/,1237513,/,1238194,/,1238874,/,1239554,/	t,t,t,t,t	<img class = center src='/static/experiments/beast_fmri_test/images/D.png'></img>	89,71	2750.0	test	<img class = center src='/static/experiments/beast_fmri_test/images/redD.png'></img>	stop	2150.0	2.0	29.0	stop	non-target	D	89,Middle Finger	71,Index Finger	550.0	600.0	2200.0	2150.0	0.0	0.0	600.0	n/a	go_stim
134368.18899405422	2150.0	n/a	811	71	2750	842.811005946	stim	stop-signal	454	1239318	0.0-19.29-1.29	beast_fmri_test	393	1236834,/,1237513,/,1238194,/,1238874,/,1239554,/	t,t,t,t,t	<img class = center src='/static/experiments/beast_fmri_test/images/D.png'></img>	89,71	2750.0	test	<img class = center src='/static/experiments/beast_fmri_test/images/redD.png'></img>	stop	2150.0	2.0	29.0	stop	non-target	D	89,Middle Finger	71,Index Finger	550.0	600.0	2200.0	2150.0	0.0	0.0	600.0	n/a	stop_stim
134968.18899405422	842.81100594571171	n/a	811	71	2750	842.811005946	stim	stop-signal	454	1239318	0.0-19.29-1.29	beast_fmri_test	393	1236834,/,1237513,/,1238194,/,1238874,/,1239554,/	t,t,t,t,t	<img class = center src='/static/experiments/beast_fmri_test/images/D.png'></img>	89,71	2750.0	test	<img class = center src='/static/experiments/beast_fmri_test/images/redD.png'></img>	stop	2150.0	2.0	29.0	stop	non-target	D	89,Middle Finger	71,Index Finger	550.0	600.0	2200.0	2150.0	0.0	0.0	600.0	n/a	ITI
137199	500	n/a	-1	-1	500	0.0	fixation	poldrack-single-stim	455	1240706	0.0-19.30-0.30	beast_fmri_test	393	1240233,/	t	<div class = centerbox2><div class = fixation>+</div></div>	none	500.0	test	n/a	n/a	n/a	n/a	n/a	n/a	n/a	n/a	n/a	n/a	n/a	n/a	n/a	n/a	n/a	n/a	n/a	n/a	fixation
132207.0	550.0	n/a	562	89	2750	5000.0	stim	stop-signal	456	1243464	0.0-19.30-1.30	beast_fmri_test	393	1240914,/,1241593,/,1242274,/,1242957,/,1243638,/,1244318,/,1244998,/,1245678,/,1246358,/,1247038,/,1247718,/,1248398,/	t,t,t,t,t,t,t,t,t,t,t,t	<img class = center src='/static/experiments/beast_fmri_test/images/T.png'></img>	89,71	2750.0	test	<img class = center src='/static/experiments/beast_fmri_test/images/redT.png'></img>	stop	2200.0	2.0	30.0	stop	target	T	89,Middle Finger	71,Index Finger	550.0	550.0	2200.0	2150.0	0.0	0.0	550.0	n/a	go_stim
134407.0	2200.0	n/a	562	89	2750	5000.0	stim	stop-signal	456	1243464	0.0-19.30-1.30	beast_fmri_test	393	1240914,/,1241593,/,1242274,/,1242957,/,1243638,/,1244318,/,1244998,/,1245678,/,1246358,/,1247038,/,1247718,/,1248398,/	t,t,t,t,t,t,t,t,t,t,t,t	<img class = center src='/static/experiments/beast_fmri_test/images/T.png'></img>	89,71	2750.0	test	<img class = center src='/static/experiments/beast_fmri_test/images/redT.png'></img>	stop	2200.0	2.0	30.0	stop	target	T	89,Middle Finger	71,Index Finger	550.0	550.0	2200.0	2150.0	0.0	0.0	550.0	n/a	stop_stim
134957.0	5000.0	n/a	562	89	2750	5000.0	stim	stop-signal	456	1243464	0.0-19.30-1.30	beast_fmri_test	393	1240914,/,1241593,/,1242274,/,1242957,/,1243638,/,1244318,/,1244998,/,1245678,/,1246358,/,1247038,/,1247718,/,1248398,/	t,t,t,t,t,t,t,t,t,t,t,t	<img class = center src='/static/experiments/beast_fmri_test/images/T.png'></img>	89,71	2750.0	test	<img class = center src='/static/experiments/beast_fmri_test/images/redT.png'></img>	stop	2200.0	2.0	30.0	stop	target	T	89,Middle Finger	71,Index Finger	550.0	550.0	2200.0	2150.0	0.0	0.0	550.0	n/a	ITI
145504	500	n/a	-1	-1	500	0.0	fixation	poldrack-single-stim	457	1249011	0.0-19.31-0.31	beast_fmri_test	393	n/a	n/a	<div class = centerbox2><div class = fixation>+</div></div>	none	500.0	test	n/a	n/a	n/a	n/a	n/a	n/a	n/a	n/a	n/a	n/a	n/a	n/a	n/a	n/a	n/a	n/a	n/a	n/a	fixation
143752.99908757233	2750	n/a	752	71	2750	1754.00091243	stim	stop-signal	458	1251764	0.0-19.31-1.31	beast_fmri_test	393	1249078,/,1249758,/,1250438,/,1251119,/,1251797,/,1252479,/,1253159,/	t,t,t,t,t,t,t	<img class = center src='/static/experiments/beast_fmri_test/images/P.png'></img>	89,71	2750.0	test	<img class = center src='/static/experiments/beast_fmri_test/images/redP.png'></img>	go	2200.0	2.0	31.0	go	non-target	P	89,Middle Finger	71,Index Finger	500.0	550.0	2200.0	2200.0	1.0	n/a	550.0	1.0	go_stim
146502.99908757233	1754.0009124276403	n/a	752	71	2750	1754.00091243	stim	stop-signal	458	1251764	0.0-19.31-1.31	beast_fmri_test	393	1249078,/,1249758,/,1250438,/,1251119,/,1251797,/,1252479,/,1253159,/	t,t,t,t,t,t,t	<img class = center src='/static/experiments/beast_fmri_test/images/P.png'></img>	89,71	2750.0	test	<img class = center src='/static/experiments/beast_fmri_test/images/redP.png'></img>	go	2200.0	2.0	31.0	go	non-target	P	89,Middle Finger	71,Index Finger	500.0	550.0	2200.0	2200.0	1.0	n/a	550.0	1.0	ITI
150555	500	n/a	-1	-1	500	0.0	fixation	poldrack-single-stim	459	1254062	0.0-19.32-0.32	beast_fmri_test	393	1253839,/	t	<div class = centerbox2><div class = fixation>+</div></div>	none	500.0	test	n/a	n/a	n/a	n/a	n/a	n/a	n/a	n/a	n/a	n/a	n/a	n/a	n/a	n/a	n/a	n/a	n/a	n/a	fixation
149994.82894602534	2750	n/a	910	89	2750	564.171053975	stim	stop-signal	460	1256816	0.0-19.32-1.32	beast_fmri_test	393	1254519,/,1255199,/,1255879,/,1256559,/,1257239,/	t,t,t,t,t	<img class = center src='/static/experiments/beast_fmri_test/images/T.png'></img>	89,71	2750.0	test	<img class = center src='/static/experiments/beast_fmri_test/images/redT.png'></img>	go	2250.0	2.0	32.0	go	target	T	89,Middle Finger	71,Index Finger	500.0	550.0	2250.0	2200.0	1.0	n/a	500.0	1.0	go_stim
152744.82894602534	564.17105397474097	n/a	910	89	2750	564.171053975	stim	stop-signal	460	1256816	0.0-19.32-1.32	beast_fmri_test	393	1254519,/,1255199,/,1255879,/,1256559,/,1257239,/	t,t,t,t,t	<img class = center src='/static/experiments/beast_fmri_test/images/T.png'></img>	89,71	2750.0	test	<img class = center src='/static/experiments/beast_fmri_test/images/redT.png'></img>	go	2250.0	2.0	32.0	go	target	T	89,Middle Finger	71,Index Finger	500.0	550.0	2250.0	2200.0	1.0	n/a	500.0	1.0	ITI
154417	500	n/a	-1	-1	500	0.0	fixation	poldrack-single-stim	461	1257924	0.0-19.33-0.33	beast_fmri_test	393	1257919,/	t	<div class = centerbox2><div class = fixation>+</div></div>	none	500.0	test	n/a	n/a	n/a	n/a	n/a	n/a	n/a	n/a	n/a	n/a	n/a	n/a	n/a	n/a	n/a	n/a	n/a	n/a	fixation
154308.04110401124	2750	n/a	843	71	2750	112.958895989	stim	stop-signal	462	1260678	0.0-19.33-1.33	beast_fmri_test	393	1258599,/,1259279,/,1259959,/,1260639,/	t,t,t,t	<img class = center src='/static/experiments/beast_fmri_test/images/T.png'></img>	89,71	2750.0	test	<img class = center src='/static/experiments/beast_fmri_test/images/redT.png'></img>	go	2200.0	2.0	33.0	go	non-target	T	89,Middle Finger	71,Index Finger	500.0	550.0	2250.0	2200.0	1.0	n/a	550.0	1.0	go_stim
157058.04110401124	112.95889598882263	n/a	843	71	2750	112.958895989	stim	stop-signal	462	1260678	0.0-19.33-1.33	beast_fmri_test	393	1258599,/,1259279,/,1259959,/,1260639,/	t,t,t,t	<img class = center src='/static/experiments/beast_fmri_test/images/T.png'></img>	89,71	2750.0	test	<img class = center src='/static/experiments/beast_fmri_test/images/redT.png'></img>	go	2200.0	2.0	33.0	go	non-target	T	89,Middle Finger	71,Index Finger	500.0	550.0	2250.0	2200.0	1.0	n/a	550.0	1.0	ITI
157834	500	n/a	-1	-1	500	0.0	fixation	poldrack-single-stim	463	1261341	0.0-19.34-0.34	beast_fmri_test	393	1261319,/	t	<div class = centerbox2><div class = fixation>+</div></div>	none	500.0	test	n/a	n/a	n/a	n/a	n/a	n/a	n/a	n/a	n/a	n/a	n/a	n/a	n/a	n/a	n/a	n/a	n/a	n/a	fixation
155866.83283522353	2750	n/a	682	89	2750	1974.16716478	stim	stop-signal	464	1264098	0.0-19.34-1.34	beast_fmri_test	393	1261999,/,1262681,/,1263363,/,1264043,/,1264723,/,1265403,/	t,t,t,t,t,t	<img class = center src='/static/experiments/beast_fmri_test/images/T.png'></img>	89,71	2750.0	test	<img class = center src='/static/experiments/beast_fmri_test/images/redT.png'></img>	go	2250.0	2.0	34.0	go	target	T	89,Middle Finger	71,Index Finger	500.0	550.0	2250.0	2200.0	1.0	n/a	500.0	1.0	go_stim
158616.83283522353	1974.1671647765397	n/a	682	89	2750	1974.16716478	stim	stop-signal	464	1264098	0.0-19.34-1.34	beast_fmri_test	393	1261999,/,1262681,/,1263363,/,1264043,/,1264723,/,1265403,/	t,t,t,t,t,t	<img class = center src='/static/experiments/beast_fmri_test/images/T.png'></img>	89,71	2750.0	test	<img class = center src='/static/experiments/beast_fmri_test/images/redT.png'></img>	go	2250.0	2.0	34.0	go	target	T	89,Middle Finger	71,Index Finger	500.0	550.0	2250.0	2200.0	1.0	n/a	500.0	1.0	ITI
163113	500	n/a	-1	-1	500	0.0	fixation	poldrack-single-stim	465	1266620	0.0-19.35-0.35	beast_fmri_test	393	1266118,/	t	<div class = centerbox2><div class = fixation>+</div></div>	none	500.0	test	n/a	n/a	n/a	n/a	n/a	n/a	n/a	n/a	n/a	n/a	n/a	n/a	n/a	n/a	n/a	n/a	n/a	n/a	fixation
162973.14896796248	2750	n/a	1163	71	2750	142.851032038	stim	stop-signal	466	1269373	0.0-19.35-1.35	beast_fmri_test	393	1266763,/,1267443,/,1268123,/,1268803,/,1269483,/	t,t,t,t,t	<img class = center src='/static/experiments/beast_fmri_test/images/V.png'></img>	89,71	2750.0	test	<img class = center src='/static/experiments/beast_fmri_test/images/redV.png'></img>	go	2200.0	2.0	35.0	go	non-target	V	89,Middle Finger	71,Index Finger	500.0	550.0	2250.0	2200.0	1.0	n/a	550.0	1.0	go_stim
165723.14896796248	142.85103203753675	n/a	1163	71	2750	142.851032038	stim	stop-signal	466	1269373	0.0-19.35-1.35	beast_fmri_test	393	1266763,/,1267443,/,1268123,/,1268803,/,1269483,/	t,t,t,t,t	<img class = center src='/static/experiments/beast_fmri_test/images/V.png'></img>	89,71	2750.0	test	<img class = center src='/static/experiments/beast_fmri_test/images/redV.png'></img>	go	2200.0	2.0	35.0	go	non-target	V	89,Middle Finger	71,Index Finger	500.0	550.0	2250.0	2200.0	1.0	n/a	550.0	1.0	ITI
166554	500	n/a	-1	-1	500	0.0	fixation	poldrack-single-stim	467	1270061	0.0-19.36-0.36	beast_fmri_test	393	n/a	n/a	<div class = centerbox2><div class = fixation>+</div></div>	none	500.0	test	n/a	n/a	n/a	n/a	n/a	n/a	n/a	n/a	n/a	n/a	n/a	n/a	n/a	n/a	n/a	n/a	n/a	n/a	fixation
166395.96638489841	2750	n/a	967	71	2750	164.033615102	stim	stop-signal	468	1272817	0.0-19.36-1.36	beast_fmri_test	393	1270163,/,1270843,/,1271522,/,1272203,/,1272885,/	t,t,t,t,t	<img class = center src='/static/experiments/beast_fmri_test/images/D.png'></img>	89,71	2750.0	test	<img class = center src='/static/experiments/beast_fmri_test/images/redD.png'></img>	go	2200.0	2.0	36.0	go	non-target	D	89,Middle Finger	71,Index Finger	500.0	550.0	2250.0	2200.0	1.0	n/a	550.0	1.0	go_stim
169145.96638489841	164.03361510153709	n/a	967	71	2750	164.033615102	stim	stop-signal	468	1272817	0.0-19.36-1.36	beast_fmri_test	393	1270163,/,1270843,/,1271522,/,1272203,/,1272885,/	t,t,t,t,t	<img class = center src='/static/experiments/beast_fmri_test/images/D.png'></img>	89,71	2750.0	test	<img class = center src='/static/experiments/beast_fmri_test/images/redD.png'></img>	go	2200.0	2.0	36.0	go	non-target	D	89,Middle Finger	71,Index Finger	500.0	550.0	2250.0	2200.0	1.0	n/a	550.0	1.0	ITI
170027	500	n/a	-1	-1	500	0.0	fixation	poldrack-single-stim	469	1273534	0.0-19.37-0.37	beast_fmri_test	393	n/a	n/a	<div class = centerbox2><div class = fixation>+</div></div>	none	500.0	test	n/a	n/a	n/a	n/a	n/a	n/a	n/a	n/a	n/a	n/a	n/a	n/a	n/a	n/a	n/a	n/a	n/a	n/a	fixation
169038.39937428152	550.0	n/a	843	71	2750	991.600625719	stim	stop-signal	470	1276287	0.0-19.37-1.37	beast_fmri_test	393	1273566,/,1274247,/,1274927,/,1275607,/,1276289,/,1276966,/	t,t,t,t,t,t	<img class = center src='/static/experiments/beast_fmri_test/images/P.png'></img>	89,71	2750.0	test	<img class = center src='/static/experiments/beast_fmri_test/images/redP.png'></img>	stop	2200.0	2.0	37.0	stop	non-target	P	89,Middle Finger	71,Index Finger	500.0	550.0	2250.0	2200.0	0.0	0.0	550.0	n/a	go_stim
171238.39937428152	2200.0	n/a	843	71	2750	991.600625719	stim	stop-signal	470	1276287	0.0-19.37-1.37	beast_fmri_test	393	1273566,/,1274247,/,1274927,/,1275607,/,1276289,/,1276966,/	t,t,t,t,t,t	<img class = center src='/static/experiments/beast_fmri_test/images/P.png'></img>	89,71	2750.0	test	<img class = center src='/static/experiments/beast_fmri_test/images/redP.png'></img>	stop	2200.0	2.0	37.0	stop	non-target	P	89,Middle Finger	71,Index Finger	500.0	550.0	2250.0	2200.0	0.0	0.0	550.0	n/a	stop_stim
171788.39937428152	991.60062571856656	n/a	843	71	2750	991.600625719	stim	stop-signal	470	1276287	0.0-19.37-1.37	beast_fmri_test	393	1273566,/,1274247,/,1274927,/,1275607,/,1276289,/,1276966,/	t,t,t,t,t,t	<img class = center src='/static/experiments/beast_fmri_test/images/P.png'></img>	89,71	2750.0	test	<img class = center src='/static/experiments/beast_fmri_test/images/redP.png'></img>	stop	2200.0	2.0	37.0	stop	non-target	P	89,Middle Finger	71,Index Finger	500.0	550.0	2250.0	2200.0	0.0	0.0	550.0	n/a	ITI
174321	500	n/a	-1	-1	500	0.0	fixation	poldrack-single-stim	471	1277828	0.0-19.38-0.38	beast_fmri_test	393	1277648,/	t	<div class = centerbox2><div class = fixation>+</div></div>	none	500.0	test	n/a	n/a	n/a	n/a	n/a	n/a	n/a	n/a	n/a	n/a	n/a	n/a	n/a	n/a	n/a	n/a	n/a	n/a	fixation
173283.33182249335	500.0	n/a	-1	-1	2750	1040.66817751	stim	stop-signal	472	1280581	0.0-19.38-1.38	beast_fmri_test	393	1278327,/,1279007,/,1279688,/,1280367,/,1281048,/	t,t,t,t,t	<img class = center src='/static/experiments/beast_fmri_test/images/T.png'></img>	89,71	2750.0	test	<img class = center src='/static/experiments/beast_fmri_test/images/redT.png'></img>	stop	2250.0	2.0	38.0	stop	non-target	T	89,Middle Finger	71,Index Finger	500.0	500.0	2250.0	2250.0	0.0	1.0	500.0	n/a	go_stim
175533.33182249335	2250.0	n/a	-1	-1	2750	1040.66817751	stim	stop-signal	472	1280581	0.0-19.38-1.38	beast_fmri_test	393	1278327,/,1279007,/,1279688,/,1280367,/,1281048,/	t,t,t,t,t	<img class = center src='/static/experiments/beast_fmri_test/images/T.png'></img>	89,71	2750.0	test	<img class = center src='/static/experiments/beast_fmri_test/images/redT.png'></img>	stop	2250.0	2.0	38.0	stop	non-target	T	89,Middle Finger	71,Index Finger	500.0	500.0	2250.0	2250.0	0.0	1.0	500.0	n/a	stop_stim
176033.33182249335	1040.6681775065531	n/a	-1	-1	2750	1040.66817751	stim	stop-signal	472	1280581	0.0-19.38-1.38	beast_fmri_test	393	1278327,/,1279007,/,1279688,/,1280367,/,1281048,/	t,t,t,t,t	<img class = center src='/static/experiments/beast_fmri_test/images/T.png'></img>	89,71	2750.0	test	<img class = center src='/static/experiments/beast_fmri_test/images/redT.png'></img>	stop	2250.0	2.0	38.0	stop	non-target	T	89,Middle Finger	71,Index Finger	500.0	500.0	2250.0	2250.0	0.0	1.0	500.0	n/a	ITI
178663	500	n/a	-1	-1	500	0.0	fixation	poldrack-single-stim	473	1282170	0.0-19.39-0.39	beast_fmri_test	393	1281728,/	t	<div class = centerbox2><div class = fixation>+</div></div>	none	500.0	test	n/a	n/a	n/a	n/a	n/a	n/a	n/a	n/a	n/a	n/a	n/a	n/a	n/a	n/a	n/a	n/a	n/a	n/a	fixation
178144.69910165342	500.0	n/a	753	89	2750	526.300898347	stim	stop-signal	474	1284928	0.0-19.39-1.39	beast_fmri_test	393	1282409,/,1283092,/,1283772,/,1284452,/,1285132,/	t,t,t,t,t	<img class = center src='/static/experiments/beast_fmri_test/images/P.png'></img>	89,71	2750.0	test	<img class = center src='/static/experiments/beast_fmri_test/images/redP.png'></img>	stop	2250.0	2.0	39.0	stop	target	P	89,Middle Finger	71,Index Finger	500.0	550.0	2250.0	2250.0	0.0	0.0	500.0	n/a	go_stim
180394.69910165342	2250.0	n/a	753	89	2750	526.300898347	stim	stop-signal	474	1284928	0.0-19.39-1.39	beast_fmri_test	393	1282409,/,1283092,/,1283772,/,1284452,/,1285132,/	t,t,t,t,t	<img class = center src='/static/experiments/beast_fmri_test/images/P.png'></img>	89,71	2750.0	test	<img class = center src='/static/experiments/beast_fmri_test/images/redP.png'></img>	stop	2250.0	2.0	39.0	stop	target	P	89,Middle Finger	71,Index Finger	500.0	550.0	2250.0	2250.0	0.0	0.0	500.0	n/a	stop_stim
180894.69910165342	526.30089834657713	n/a	753	89	2750	526.300898347	stim	stop-signal	474	1284928	0.0-19.39-1.39	beast_fmri_test	393	1282409,/,1283092,/,1283772,/,1284452,/,1285132,/	t,t,t,t,t	<img class = center src='/static/experiments/beast_fmri_test/images/P.png'></img>	89,71	2750.0	test	<img class = center src='/static/experiments/beast_fmri_test/images/redP.png'></img>	stop	2250.0	2.0	39.0	stop	target	P	89,Middle Finger	71,Index Finger	500.0	550.0	2250.0	2250.0	0.0	0.0	500.0	n/a	ITI
182497	500	n/a	-1	-1	500	0.0	fixation	poldrack-single-stim	475	1286004	0.0-19.40-0.40	beast_fmri_test	393	1285813,/	t	<div class = centerbox2><div class = fixation>+</div></div>	none	500.0	test	n/a	n/a	n/a	n/a	n/a	n/a	n/a	n/a	n/a	n/a	n/a	n/a	n/a	n/a	n/a	n/a	n/a	n/a	fixation
177501.0	2750	n/a	1026	71	2750	5000.0	stim	stop-signal	476	1288758	0.0-19.40-1.40	beast_fmri_test	393	1286492,/,1287172,/,1287852,/,1288532,/,1289212,/,1289892,/,1290572,/,1291252,/,1291932,/,1292614,/,1293296,/	t,t,t,t,t,t,t,t,t,t,t	<img class = center src='/static/experiments/beast_fmri_test/images/D.png'></img>	89,71	2750.0	test	<img class = center src='/static/experiments/beast_fmri_test/images/redD.png'></img>	go	2200.0	2.0	40.0	go	non-target	D	89,Middle Finger	71,Index Finger	450.0	550.0	2250.0	2200.0	1.0	n/a	550.0	1.0	go_stim
180251.0	5000.0	n/a	1026	71	2750	5000.0	stim	stop-signal	476	1288758	0.0-19.40-1.40	beast_fmri_test	393	1286492,/,1287172,/,1287852,/,1288532,/,1289212,/,1289892,/,1290572,/,1291252,/,1291932,/,1292614,/,1293296,/	t,t,t,t,t,t,t,t,t,t,t	<img class = center src='/static/experiments/beast_fmri_test/images/D.png'></img>	89,71	2750.0	test	<img class = center src='/static/experiments/beast_fmri_test/images/redD.png'></img>	go	2200.0	2.0	40.0	go	non-target	D	89,Middle Finger	71,Index Finger	450.0	550.0	2250.0	2200.0	1.0	n/a	550.0	1.0	ITI
190803	500	n/a	-1	-1	500	0.0	fixation	poldrack-single-stim	477	1294310	0.0-19.41-0.41	beast_fmri_test	393	1293976,/	t	<div class = centerbox2><div class = fixation>+</div></div>	none	500.0	test	n/a	n/a	n/a	n/a	n/a	n/a	n/a	n/a	n/a	n/a	n/a	n/a	n/a	n/a	n/a	n/a	n/a	n/a	fixation
190058.12645771587	550.0	n/a	-1	-1	2750	747.873542284	stim	stop-signal	478	1297063	0.0-19.41-1.41	beast_fmri_test	393	1294656,/,1295336,/,1296017,/,1296697,/,1297376,/	t,t,t,t,t	<img class = center src='/static/experiments/beast_fmri_test/images/T.png'></img>	89,71	2750.0	test	<img class = center src='/static/experiments/beast_fmri_test/images/redT.png'></img>	stop	2200.0	2.0	41.0	stop	non-target	T	89,Middle Finger	71,Index Finger	450.0	550.0	2250.0	2200.0	0.0	1.0	550.0	n/a	go_stim
192258.12645771587	2200.0	n/a	-1	-1	2750	747.873542284	stim	stop-signal	478	1297063	0.0-19.41-1.41	beast_fmri_test	393	1294656,/,1295336,/,1296017,/,1296697,/,1297376,/	t,t,t,t,t	<img class = center src='/static/experiments/beast_fmri_test/images/T.png'></img>	89,71	2750.0	test	<img class = center src='/static/experiments/beast_fmri_test/images/redT.png'></img>	stop	2200.0	2.0	41.0	stop	non-target	T	89,Middle Finger	71,Index Finger	450.0	550.0	2250.0	2200.0	0.0	1.0	550.0	n/a	stop_stim
192808.12645771587	747.8735422840939	n/a	-1	-1	2750	747.873542284	stim	stop-signal	478	1297063	0.0-19.41-1.41	beast_fmri_test	393	1294656,/,1295336,/,1296017,/,1296697,/,1297376,/	t,t,t,t,t	<img class = center src='/static/experiments/beast_fmri_test/images/T.png'></img>	89,71	2750.0	test	<img class = center src='/static/experiments/beast_fmri_test/images/redT.png'></img>	stop	2200.0	2.0	41.0	stop	non-target	T	89,Middle Finger	71,Index Finger	450.0	550.0	2250.0	2200.0	0.0	1.0	550.0	n/a	ITI
194852	500	n/a	-1	-1	500	0.0	fixation	poldrack-single-stim	479	1298359	0.0-19.42-0.42	beast_fmri_test	393	1298056,/	t	<div class = centerbox2><div class = fixation>+</div></div>	none	500.0	test	n/a	n/a	n/a	n/a	n/a	n/a	n/a	n/a	n/a	n/a	n/a	n/a	n/a	n/a	n/a	n/a	n/a	n/a	fixation
194703.17539926758	2750	n/a	1248	71	2750	152.824600732	stim	stop-signal	480	1301113	0.0-19.42-1.42	beast_fmri_test	393	1298736,/,1299415,/,1300096,/,1300776,/	t,t,t,t	<img class = center src='/static/experiments/beast_fmri_test/images/D.png'></img>	89,71	2750.0	test	<img class = center src='/static/experiments/beast_fmri_test/images/redD.png'></img>	go	2300.0	2.0	42.0	go	target	D	89,Middle Finger	71,Index Finger	450.0	600.0	2300.0	2200.0	0.0	n/a	450.0	0.0	go_stim
197453.17539926758	152.82460073244792	n/a	1248	71	2750	152.824600732	stim	stop-signal	480	1301113	0.0-19.42-1.42	beast_fmri_test	393	1298736,/,1299415,/,1300096,/,1300776,/	t,t,t,t	<img class = center src='/static/experiments/beast_fmri_test/images/D.png'></img>	89,71	2750.0	test	<img class = center src='/static/experiments/beast_fmri_test/images/redD.png'></img>	go	2300.0	2.0	42.0	go	target	D	89,Middle Finger	71,Index Finger	450.0	600.0	2300.0	2200.0	0.0	n/a	450.0	0.0	ITI
198309	500	n/a	-1	-1	500	0.0	fixation	poldrack-single-stim	481	1301816	0.0-19.43-0.43	beast_fmri_test	393	1301456,/	t	<div class = centerbox2><div class = fixation>+</div></div>	none	500.0	test	n/a	n/a	n/a	n/a	n/a	n/a	n/a	n/a	n/a	n/a	n/a	n/a	n/a	n/a	n/a	n/a	n/a	n/a	fixation
198286.35729406308	600.0	n/a	699	71	2750	30.642705937	stim	stop-signal	482	1304574	0.0-19.43-1.43	beast_fmri_test	393	1302136,/,1302819,/,1303500,/,1304180,/	t,t,t,t	<img class = center src='/static/experiments/beast_fmri_test/images/D.png'></img>	89,71	2750.0	test	<img class = center src='/static/experiments/beast_fmri_test/images/redD.png'></img>	stop	2150.0	2.0	43.0	stop	non-target	D	89,Middle Finger	71,Index Finger	450.0	600.0	2300.0	2150.0	0.0	0.0	600.0	n/a	go_stim
200436.35729406308	2150.0	n/a	699	71	2750	30.642705937	stim	stop-signal	482	1304574	0.0-19.43-1.43	beast_fmri_test	393	1302136,/,1302819,/,1303500,/,1304180,/	t,t,t,t	<img class = center src='/static/experiments/beast_fmri_test/images/D.png'></img>	89,71	2750.0	test	<img class = center src='/static/experiments/beast_fmri_test/images/redD.png'></img>	stop	2150.0	2.0	43.0	stop	non-target	D	89,Middle Finger	71,Index Finger	450.0	600.0	2300.0	2150.0	0.0	0.0	600.0	n/a	stop_stim
201036.35729406308	30.642705936976046	n/a	699	71	2750	30.642705937	stim	stop-signal	482	1304574	0.0-19.43-1.43	beast_fmri_test	393	1302136,/,1302819,/,1303500,/,1304180,/	t,t,t,t	<img class = center src='/static/experiments/beast_fmri_test/images/D.png'></img>	89,71	2750.0	test	<img class = center src='/static/experiments/beast_fmri_test/images/redD.png'></img>	stop	2150.0	2.0	43.0	stop	non-target	D	89,Middle Finger	71,Index Finger	450.0	600.0	2300.0	2150.0	0.0	0.0	600.0	n/a	ITI
201648	500	n/a	-1	-1	500	0.0	fixation	poldrack-single-stim	483	1305155	0.0-19.44-0.44	beast_fmri_test	393	1304860,/	t	<div class = centerbox2><div class = fixation>+</div></div>	none	500.0	test	n/a	n/a	n/a	n/a	n/a	n/a	n/a	n/a	n/a	n/a	n/a	n/a	n/a	n/a	n/a	n/a	n/a	n/a	fixation
201075.10080210026	2750	n/a	1124	71	2750	575.8991979	stim	stop-signal	484	1307908	0.0-19.44-1.44	beast_fmri_test	393	1305539,/,1306220,/,1306901,/,1307581,/,1308261,/	t,t,t,t,t	<img class = center src='/static/experiments/beast_fmri_test/images/V.png'></img>	89,71	2750.0	test	<img class = center src='/static/experiments/beast_fmri_test/images/redV.png'></img>	go	2200.0	2.0	44.0	go	non-target	V	89,Middle Finger	71,Index Finger	450.0	550.0	2300.0	2200.0	1.0	n/a	550.0	1.0	go_stim
203825.10080210026	575.89919789971373	n/a	1124	71	2750	575.8991979	stim	stop-signal	484	1307908	0.0-19.44-1.44	beast_fmri_test	393	1305539,/,1306220,/,1306901,/,1307581,/,1308261,/	t,t,t,t,t	<img class = center src='/static/experiments/beast_fmri_test/images/V.png'></img>	89,71	2750.0	test	<img class = center src='/static/experiments/beast_fmri_test/images/redV.png'></img>	go	2200.0	2.0	44.0	go	non-target	V	89,Middle Finger	71,Index Finger	450.0	550.0	2300.0	2200.0	1.0	n/a	550.0	1.0	ITI
205528	500	n/a	-1	-1	500	0.0	fixation	poldrack-single-stim	485	1309035	0.0-19.45-0.45	beast_fmri_test	393	1308941,/	t	<div class = centerbox2><div class = fixation>+</div></div>	none	500.0	test	n/a	n/a	n/a	n/a	n/a	n/a	n/a	n/a	n/a	n/a	n/a	n/a	n/a	n/a	n/a	n/a	n/a	n/a	fixation
205400.50032886607	550.0	n/a	781	71	2750	130.499671134	stim	stop-signal	486	1311788	0.0-19.45-1.45	beast_fmri_test	393	1309620,/,1310301,/,1310981,/,1311661,/	t,t,t,t	<img class = center src='/static/experiments/beast_fmri_test/images/B.png'></img>	89,71	2750.0	test	<img class = center src='/static/experiments/beast_fmri_test/images/redB.png'></img>	stop	2200.0	2.0	45.0	stop	non-target	B	89,Middle Finger	71,Index Finger	450.0	550.0	2300.0	2200.0	0.0	0.0	550.0	n/a	go_stim
207600.50032886607	2200.0	n/a	781	71	2750	130.499671134	stim	stop-signal	486	1311788	0.0-19.45-1.45	beast_fmri_test	393	1309620,/,1310301,/,1310981,/,1311661,/	t,t,t,t	<img class = center src='/static/experiments/beast_fmri_test/images/B.png'></img>	89,71	2750.0	test	<img class = center src='/static/experiments/beast_fmri_test/images/redB.png'></img>	stop	2200.0	2.0	45.0	stop	non-target	B	89,Middle Finger	71,Index Finger	450.0	550.0	2300.0	2200.0	0.0	0.0	550.0	n/a	stop_stim
208150.50032886607	130.49967113384858	n/a	781	71	2750	130.499671134	stim	stop-signal	486	1311788	0.0-19.45-1.45	beast_fmri_test	393	1309620,/,1310301,/,1310981,/,1311661,/	t,t,t,t	<img class = center src='/static/experiments/beast_fmri_test/images/B.png'></img>	89,71	2750.0	test	<img class = center src='/static/experiments/beast_fmri_test/images/redB.png'></img>	stop	2200.0	2.0	45.0	stop	non-target	B	89,Middle Finger	71,Index Finger	450.0	550.0	2300.0	2200.0	0.0	0.0	550.0	n/a	ITI
208962	500	n/a	-1	-1	500	0.0	fixation	poldrack-single-stim	487	1312469	0.0-19.46-0.46	beast_fmri_test	393	1312341,/	t	<div class = centerbox2><div class = fixation>+</div></div>	none	500.0	test	n/a	n/a	n/a	n/a	n/a	n/a	n/a	n/a	n/a	n/a	n/a	n/a	n/a	n/a	n/a	n/a	n/a	n/a	fixation
208904.95417685458	2750	n/a	1151	71	2750	61.0458231454	stim	stop-signal	488	1315223	0.0-19.46-1.46	beast_fmri_test	393	1313021,/,1313701,/,1314381,/,1315061,/	t,t,t,t	<img class = center src='/static/experiments/beast_fmri_test/images/B.png'></img>	89,71	2750.0	test	<img class = center src='/static/experiments/beast_fmri_test/images/redB.png'></img>	go	2250.0	2.0	46.0	go	non-target	B	89,Middle Finger	71,Index Finger	450.0	500.0	2300.0	2250.0	1.0	n/a	500.0	1.0	go_stim
211654.95417685458	61.045823145365858	n/a	1151	71	2750	61.0458231454	stim	stop-signal	488	1315223	0.0-19.46-1.46	beast_fmri_test	393	1313021,/,1313701,/,1314381,/,1315061,/	t,t,t,t	<img class = center src='/static/experiments/beast_fmri_test/images/B.png'></img>	89,71	2750.0	test	<img class = center src='/static/experiments/beast_fmri_test/images/redB.png'></img>	go	2250.0	2.0	46.0	go	non-target	B	89,Middle Finger	71,Index Finger	450.0	500.0	2300.0	2250.0	1.0	n/a	500.0	1.0	ITI
226834	15000	n/a	-1	-1	15000	0.0	practice-no-stop-feedback	poldrack-single-stim	489	1330341	0.0-20.0	beast_fmri_test	393	1315742,/,1316420,/,1317100,/,1317782,/,1318461,/,1319141,/,1319821,/,1320502,/,1321181,/,1321861,/,1322543,/,1323225,/,1323905,/,1324585,/,1325266,/,1325945,/,1326625,/,1327305,/,1327986,/,1328666,/,1329346,/,1330025,/	t,t,t,t,t,t,t,t,t,t,t,t,t,t,t,t,t,t,t,t,t,t	"<div class = ""centerbox2_2""><p class = ""block-text2"">Your delay is 3 trials.</p><p class = block-text2>Please wait for the scanner to start the block</p></div>"	77	15000.0	n/a	n/a	n/a	n/a	n/a	n/a	n/a	n/a	n/a	n/a	n/a	n/a	n/a	n/a	n/a	n/a	n/a	n/a	n/a	practice-no-stop-feedback
227338	500	n/a	-1	-1	500	0.0	fixation	poldrack-single-stim	490	1330845	0.0-21.0-0.0	beast_fmri_test	393	1330705,/	t	<div class = centerbox2><div class = fixation>+</div></div>	none	500.0	test	n/a	n/a	n/a	n/a	n/a	n/a	n/a	n/a	n/a	n/a	n/a	n/a	n/a	n/a	n/a	n/a	n/a	n/a	fixation
226440.52982722083	2750	n/a	882	71	2750	904.470172779	stim	stop-signal	491	1333602	0.0-21.0-1.0	beast_fmri_test	393	1331385,/,1332066,/,1332748,/,1333429,/,1334109,/	t,t,t,t,t	<img class = center src='/static/experiments/beast_fmri_test/images/B.png'></img>	89,71	2750.0	test	<img class = center src='/static/experiments/beast_fmri_test/images/redB.png'></img>	go	-1.0	3.0	0.0	go	temp-non-target	B	89,Middle Finger	71,Index Finger	450.0	500.0	2300.0	2250.0	0.0	n/a	n/a	n/a	go_stim
229190.52982722083	904.47017277921987	n/a	882	71	2750	904.470172779	stim	stop-signal	491	1333602	0.0-21.0-1.0	beast_fmri_test	393	1331385,/,1332066,/,1332748,/,1333429,/,1334109,/	t,t,t,t,t	<img class = center src='/static/experiments/beast_fmri_test/images/B.png'></img>	89,71	2750.0	test	<img class = center src='/static/experiments/beast_fmri_test/images/redB.png'></img>	go	-1.0	3.0	0.0	go	temp-non-target	B	89,Middle Finger	71,Index Finger	450.0	500.0	2300.0	2250.0	0.0	n/a	n/a	n/a	ITI
231550	500	n/a	-1	-1	500	0.0	fixation	poldrack-single-stim	492	1335057	0.0-21.1-0.1	beast_fmri_test	393	1334790,/	t	<div class = centerbox2><div class = fixation>+</div></div>	none	500.0	test	n/a	n/a	n/a	n/a	n/a	n/a	n/a	n/a	n/a	n/a	n/a	n/a	n/a	n/a	n/a	n/a	n/a	n/a	fixation
229381.70247177361	2750	n/a	632	71	2750	2172.29752823	stim	stop-signal	493	1337811	0.0-21.1-1.1	beast_fmri_test	393	1335471,/,1336150,/,1336831,/,1337510,/,1338191,/,1338871,/,1339550,/	t,t,t,t,t,t,t	<img class = center src='/static/experiments/beast_fmri_test/images/T.png'></img>	89,71	2750.0	test	<img class = center src='/static/experiments/beast_fmri_test/images/redT.png'></img>	go	-1.0	3.0	1.0	go	temp-non-target	T	89,Middle Finger	71,Index Finger	450.0	500.0	2300.0	2250.0	0.0	n/a	n/a	n/a	go_stim
232131.70247177361	2172.2975282265079	n/a	632	71	2750	2172.29752823	stim	stop-signal	493	1337811	0.0-21.1-1.1	beast_fmri_test	393	1335471,/,1336150,/,1336831,/,1337510,/,1338191,/,1338871,/,1339550,/	t,t,t,t,t,t,t	<img class = center src='/static/experiments/beast_fmri_test/images/T.png'></img>	89,71	2750.0	test	<img class = center src='/static/experiments/beast_fmri_test/images/redT.png'></img>	go	-1.0	3.0	1.0	go	temp-non-target	T	89,Middle Finger	71,Index Finger	450.0	500.0	2300.0	2250.0	0.0	n/a	n/a	n/a	ITI
237028	500	n/a	-1	-1	500	0.0	fixation	poldrack-single-stim	494	1340535	0.0-21.2-0.2	beast_fmri_test	393	1340231,/	t	<div class = centerbox2><div class = fixation>+</div></div>	none	500.0	test	n/a	n/a	n/a	n/a	n/a	n/a	n/a	n/a	n/a	n/a	n/a	n/a	n/a	n/a	n/a	n/a	n/a	n/a	fixation
235626.58585829241	temp_go_duration	n/a	585	71	2750	1408.41414171	stim	stop-signal	495	1343292	0.0-21.2-1.2	beast_fmri_test	393	1340910,/,1341590,/,1342271,/,1342953,/,1343635,/,1344314,/	t,t,t,t,t,t	<img class = center src='/static/experiments/beast_fmri_test/images/T.png'></img>	89,71	2750.0	test	<img class = center src='/static/experiments/beast_fmri_test/images/redT.png'></img>	stop	-1.0	3.0	2.0	stop	temp-non-target	T	89,Middle Finger	71,Index Finger	450.0	500.0	2300.0	2250.0	0.0	0.0	n/a	n/a	go_stim
temp-non-target	temp_stop_duration	n/a	585	71	2750	1408.41414171	stim	stop-signal	495	1343292	0.0-21.2-1.2	beast_fmri_test	393	1340910,/,1341590,/,1342271,/,1342953,/,1343635,/,1344314,/	t,t,t,t,t,t	<img class = center src='/static/experiments/beast_fmri_test/images/T.png'></img>	89,71	2750.0	test	<img class = center src='/static/experiments/beast_fmri_test/images/redT.png'></img>	stop	-1.0	3.0	2.0	stop	temp-non-target	T	89,Middle Finger	71,Index Finger	450.0	500.0	2300.0	2250.0	0.0	0.0	n/a	n/a	stop_stim
238376.58585829241	1408.414141707666	n/a	585	71	2750	1408.41414171	stim	stop-signal	495	1343292	0.0-21.2-1.2	beast_fmri_test	393	1340910,/,1341590,/,1342271,/,1342953,/,1343635,/,1344314,/	t,t,t,t,t,t	<img class = center src='/static/experiments/beast_fmri_test/images/T.png'></img>	89,71	2750.0	test	<img class = center src='/static/experiments/beast_fmri_test/images/redT.png'></img>	stop	-1.0	3.0	2.0	stop	temp-non-target	T	89,Middle Finger	71,Index Finger	450.0	500.0	2300.0	2250.0	0.0	0.0	n/a	n/a	ITI
241751	500	n/a	-1	-1	500	0.0	fixation	poldrack-single-stim	496	1345258	0.0-21.3-0.3	beast_fmri_test	393	1344995,/	t	<div class = centerbox2><div class = fixation>+</div></div>	none	500.0	test	n/a	n/a	n/a	n/a	n/a	n/a	n/a	n/a	n/a	n/a	n/a	n/a	n/a	n/a	n/a	n/a	n/a	n/a	fixation
240879.28723418224	2750	n/a	769	71	2750	875.712765818	stim	stop-signal	497	1348012	0.0-21.3-1.3	beast_fmri_test	393	1345675,/,1346355,/,1347035,/,1347714,/,1348395,/	t,t,t,t,t	<img class = center src='/static/experiments/beast_fmri_test/images/T.png'></img>	89,71	2750.0	test	<img class = center src='/static/experiments/beast_fmri_test/images/redT.png'></img>	go	2250.0	3.0	3.0	go	non-target	T	89,Middle Finger	71,Index Finger	450.0	500.0	2300.0	2250.0	1.0	n/a	500.0	1.0	go_stim
243629.28723418224	875.71276581786333	n/a	769	71	2750	875.712765818	stim	stop-signal	497	1348012	0.0-21.3-1.3	beast_fmri_test	393	1345675,/,1346355,/,1347035,/,1347714,/,1348395,/	t,t,t,t,t	<img class = center src='/static/experiments/beast_fmri_test/images/T.png'></img>	89,71	2750.0	test	<img class = center src='/static/experiments/beast_fmri_test/images/redT.png'></img>	go	2250.0	3.0	3.0	go	non-target	T	89,Middle Finger	71,Index Finger	450.0	500.0	2300.0	2250.0	1.0	n/a	500.0	1.0	ITI
245935	500	n/a	-1	-1	500	0.0	fixation	poldrack-single-stim	498	1349442	0.0-21.4-0.4	beast_fmri_test	393	1349075,/	t	<div class = centerbox2><div class = fixation>+</div></div>	none	500.0	test	n/a	n/a	n/a	n/a	n/a	n/a	n/a	n/a	n/a	n/a	n/a	n/a	n/a	n/a	n/a	n/a	n/a	n/a	fixation
245878.17334296624	2750	n/a	720	89	2750	60.8266570336	stim	stop-signal	499	1352196	0.0-21.4-1.4	beast_fmri_test	393	1349755,/,1350434,/,1351115,/,1351794,/	t,t,t,t	<img class = center src='/static/experiments/beast_fmri_test/images/T.png'></img>	89,71	2750.0	test	<img class = center src='/static/experiments/beast_fmri_test/images/redT.png'></img>	go	2300.0	3.0	4.0	go	target	T	89,Middle Finger	71,Index Finger	450.0	500.0	2300.0	2250.0	1.0	n/a	450.0	1.0	go_stim
248628.17334296624	60.826657033649305	n/a	720	89	2750	60.8266570336	stim	stop-signal	499	1352196	0.0-21.4-1.4	beast_fmri_test	393	1349755,/,1350434,/,1351115,/,1351794,/	t,t,t,t	<img class = center src='/static/experiments/beast_fmri_test/images/T.png'></img>	89,71	2750.0	test	<img class = center src='/static/experiments/beast_fmri_test/images/redT.png'></img>	go	2300.0	3.0	4.0	go	target	T	89,Middle Finger	71,Index Finger	450.0	500.0	2300.0	2250.0	1.0	n/a	450.0	1.0	ITI
249304	500	n/a	-1	-1	500	0.0	fixation	poldrack-single-stim	500	1352811	0.0-21.5-0.5	beast_fmri_test	393	1352476,/	t	<div class = centerbox2><div class = fixation>+</div></div>	none	500.0	test	n/a	n/a	n/a	n/a	n/a	n/a	n/a	n/a	n/a	n/a	n/a	n/a	n/a	n/a	n/a	n/a	n/a	n/a	fixation
249275.45121946651	2750	n/a	764	89	2750	34.5487805335	stim	stop-signal	501	1355567	0.0-21.5-1.5	beast_fmri_test	393	1353158,/,1353839,/,1354519,/,1355199,/	t,t,t,t	<img class = center src='/static/experiments/beast_fmri_test/images/T.png'></img>	89,71	2750.0	test	<img class = center src='/static/experiments/beast_fmri_test/images/redT.png'></img>	go	2300.0	3.0	5.0	go	target	T	89,Middle Finger	71,Index Finger	450.0	500.0	2300.0	2250.0	1.0	n/a	450.0	1.0	go_stim
252025.45121946651	34.548780533490117	n/a	764	89	2750	34.5487805335	stim	stop-signal	501	1355567	0.0-21.5-1.5	beast_fmri_test	393	1353158,/,1353839,/,1354519,/,1355199,/	t,t,t,t	<img class = center src='/static/experiments/beast_fmri_test/images/T.png'></img>	89,71	2750.0	test	<img class = center src='/static/experiments/beast_fmri_test/images/redT.png'></img>	go	2300.0	3.0	5.0	go	target	T	89,Middle Finger	71,Index Finger	450.0	500.0	2300.0	2250.0	1.0	n/a	450.0	1.0	ITI
252649	500	n/a	-1	-1	500	0.0	fixation	poldrack-single-stim	502	1356156	0.0-21.6-0.6	beast_fmri_test	393	1355879,/	t	<div class = centerbox2><div class = fixation>+</div></div>	none	500.0	test	n/a	n/a	n/a	n/a	n/a	n/a	n/a	n/a	n/a	n/a	n/a	n/a	n/a	n/a	n/a	n/a	n/a	n/a	fixation
252437.65222377074	500.0	n/a	686	71	2750	215.347776229	stim	stop-signal	503	1358910	0.0-21.6-1.6	beast_fmri_test	393	1356558,/,1357239,/,1357918,/,1358598,/	t,t,t,t	<img class = center src='/static/experiments/beast_fmri_test/images/D.png'></img>	89,71	2750.0	test	<img class = center src='/static/experiments/beast_fmri_test/images/redD.png'></img>	stop	2250.0	3.0	6.0	stop	non-target	D	89,Middle Finger	71,Index Finger	450.0	500.0	2300.0	2250.0	0.0	0.0	500.0	n/a	go_stim
254687.65222377074	2250.0	n/a	686	71	2750	215.347776229	stim	stop-signal	503	1358910	0.0-21.6-1.6	beast_fmri_test	393	1356558,/,1357239,/,1357918,/,1358598,/	t,t,t,t	<img class = center src='/static/experiments/beast_fmri_test/images/D.png'></img>	89,71	2750.0	test	<img class = center src='/static/experiments/beast_fmri_test/images/redD.png'></img>	stop	2250.0	3.0	6.0	stop	non-target	D	89,Middle Finger	71,Index Finger	450.0	500.0	2300.0	2250.0	0.0	0.0	500.0	n/a	stop_stim
255187.65222377074	215.34777622934527	n/a	686	71	2750	215.347776229	stim	stop-signal	503	1358910	0.0-21.6-1.6	beast_fmri_test	393	1356558,/,1357239,/,1357918,/,1358598,/	t,t,t,t	<img class = center src='/static/experiments/beast_fmri_test/images/D.png'></img>	89,71	2750.0	test	<img class = center src='/static/experiments/beast_fmri_test/images/redD.png'></img>	stop	2250.0	3.0	6.0	stop	non-target	D	89,Middle Finger	71,Index Finger	450.0	500.0	2300.0	2250.0	0.0	0.0	500.0	n/a	ITI
256171	500	n/a	-1	-1	500	0.0	fixation	poldrack-single-stim	504	1359678	0.0-21.7-0.7	beast_fmri_test	393	1359280,/	t	<div class = centerbox2><div class = fixation>+</div></div>	none	500.0	test	n/a	n/a	n/a	n/a	n/a	n/a	n/a	n/a	n/a	n/a	n/a	n/a	n/a	n/a	n/a	n/a	n/a	n/a	fixation
255926.60917429323	2750	n/a	1138	71	2750	248.390825707	stim	stop-signal	505	1362432	0.0-21.7-1.7	beast_fmri_test	393	1359959,/,1360639,/,1361319,/,1361999,/,1362681,/	t,t,t,t,t	<img class = center src='/static/experiments/beast_fmri_test/images/V.png'></img>	89,71	2750.0	test	<img class = center src='/static/experiments/beast_fmri_test/images/redV.png'></img>	go	2300.0	3.0	7.0	go	non-target	V	89,Middle Finger	71,Index Finger	450.0	450.0	2300.0	2300.0	1.0	n/a	450.0	1.0	go_stim
258676.60917429323	248.39082570673688	n/a	1138	71	2750	248.390825707	stim	stop-signal	505	1362432	0.0-21.7-1.7	beast_fmri_test	393	1359959,/,1360639,/,1361319,/,1361999,/,1362681,/	t,t,t,t,t	<img class = center src='/static/experiments/beast_fmri_test/images/V.png'></img>	89,71	2750.0	test	<img class = center src='/static/experiments/beast_fmri_test/images/redV.png'></img>	go	2300.0	3.0	7.0	go	non-target	V	89,Middle Finger	71,Index Finger	450.0	450.0	2300.0	2300.0	1.0	n/a	450.0	1.0	ITI
259728	500	n/a	-1	-1	500	0.0	fixation	poldrack-single-stim	506	1363235	0.0-21.8-0.8	beast_fmri_test	393	n/a	n/a	<div class = centerbox2><div class = fixation>+</div></div>	none	500.0	test	n/a	n/a	n/a	n/a	n/a	n/a	n/a	n/a	n/a	n/a	n/a	n/a	n/a	n/a	n/a	n/a	n/a	n/a	fixation
259588.13966535451	450.0	n/a	-1	-1	2750	143.860334646	stim	stop-signal	507	1365989	0.0-21.8-1.8	beast_fmri_test	393	1363363,/,1364044,/,1364724,/,1365404,/,1366084,/	t,t,t,t,t	<img class = center src='/static/experiments/beast_fmri_test/images/V.png'></img>	89,71	2750.0	test	<img class = center src='/static/experiments/beast_fmri_test/images/redV.png'></img>	stop	2300.0	3.0	8.0	stop	non-target	V	89,Middle Finger	71,Index Finger	450.0	450.0	2300.0	2300.0	0.0	1.0	450.0	n/a	go_stim
261888.13966535451	2300.0	n/a	-1	-1	2750	143.860334646	stim	stop-signal	507	1365989	0.0-21.8-1.8	beast_fmri_test	393	1363363,/,1364044,/,1364724,/,1365404,/,1366084,/	t,t,t,t,t	<img class = center src='/static/experiments/beast_fmri_test/images/V.png'></img>	89,71	2750.0	test	<img class = center src='/static/experiments/beast_fmri_test/images/redV.png'></img>	stop	2300.0	3.0	8.0	stop	non-target	V	89,Middle Finger	71,Index Finger	450.0	450.0	2300.0	2300.0	0.0	1.0	450.0	n/a	stop_stim
262338.13966535451	143.86033464553941	n/a	-1	-1	2750	143.860334646	stim	stop-signal	507	1365989	0.0-21.8-1.8	beast_fmri_test	393	1363363,/,1364044,/,1364724,/,1365404,/,1366084,/	t,t,t,t,t	<img class = center src='/static/experiments/beast_fmri_test/images/V.png'></img>	89,71	2750.0	test	<img class = center src='/static/experiments/beast_fmri_test/images/redV.png'></img>	stop	2300.0	3.0	8.0	stop	non-target	V	89,Middle Finger	71,Index Finger	450.0	450.0	2300.0	2300.0	0.0	1.0	450.0	n/a	ITI
263179	500	n/a	-1	-1	500	0.0	fixation	poldrack-single-stim	508	1366686	0.0-21.9-0.9	beast_fmri_test	393	n/a	n/a	<div class = centerbox2><div class = fixation>+</div></div>	none	500.0	test	n/a	n/a	n/a	n/a	n/a	n/a	n/a	n/a	n/a	n/a	n/a	n/a	n/a	n/a	n/a	n/a	n/a	n/a	fixation
261659.31602362031	2750	n/a	920	71	2750	1522.68397638	stim	stop-signal	509	1369439	0.0-21.9-1.9	beast_fmri_test	393	1366764,/,1367444,/,1368124,/,1368803,/,1369482,/,1370164,/,1370844,/	t,t,t,t,t,t,t	<img class = center src='/static/experiments/beast_fmri_test/images/T.png'></img>	89,71	2750.0	test	<img class = center src='/static/experiments/beast_fmri_test/images/redT.png'></img>	go	2250.0	3.0	9.0	go	non-target	T	89,Middle Finger	71,Index Finger	450.0	500.0	2300.0	2250.0	1.0	n/a	500.0	1.0	go_stim
264409.31602362031	1522.6839763796841	n/a	920	71	2750	1522.68397638	stim	stop-signal	509	1369439	0.0-21.9-1.9	beast_fmri_test	393	1366764,/,1367444,/,1368124,/,1368803,/,1369482,/,1370164,/,1370844,/	t,t,t,t,t,t,t	<img class = center src='/static/experiments/beast_fmri_test/images/T.png'></img>	89,71	2750.0	test	<img class = center src='/static/experiments/beast_fmri_test/images/redT.png'></img>	go	2250.0	3.0	9.0	go	non-target	T	89,Middle Finger	71,Index Finger	450.0	500.0	2300.0	2250.0	1.0	n/a	500.0	1.0	ITI
268007	500	n/a	-1	-1	500	0.0	fixation	poldrack-single-stim	510	1371514	0.0-21.10-0.10	beast_fmri_test	393	n/a	n/a	<div class = centerbox2><div class = fixation>+</div></div>	none	500.0	test	n/a	n/a	n/a	n/a	n/a	n/a	n/a	n/a	n/a	n/a	n/a	n/a	n/a	n/a	n/a	n/a	n/a	n/a	fixation
265130.77207818208	450.0	n/a	-1	-1	2750	2878.22792182	stim	stop-signal	511	1374266	0.0-21.10-1.10	beast_fmri_test	393	1371523,/,1372204,/,1372884,/,1373564,/,1374243,/,1374924,/,1375604,/,1376283,/,1376964,/	t,t,t,t,t,t,t,t,t	<img class = center src='/static/experiments/beast_fmri_test/images/V.png'></img>	89,71	2750.0	test	<img class = center src='/static/experiments/beast_fmri_test/images/redV.png'></img>	stop	2300.0	3.0	10.0	stop	target	V	89,Middle Finger	71,Index Finger	450.0	500.0	2300.0	2250.0	0.0	1.0	450.0	n/a	go_stim
267430.77207818208	2300.0	n/a	-1	-1	2750	2878.22792182	stim	stop-signal	511	1374266	0.0-21.10-1.10	beast_fmri_test	393	1371523,/,1372204,/,1372884,/,1373564,/,1374243,/,1374924,/,1375604,/,1376283,/,1376964,/	t,t,t,t,t,t,t,t,t	<img class = center src='/static/experiments/beast_fmri_test/images/V.png'></img>	89,71	2750.0	test	<img class = center src='/static/experiments/beast_fmri_test/images/redV.png'></img>	stop	2300.0	3.0	10.0	stop	target	V	89,Middle Finger	71,Index Finger	450.0	500.0	2300.0	2250.0	0.0	1.0	450.0	n/a	stop_stim
267880.77207818208	2878.2279218179506	n/a	-1	-1	2750	2878.22792182	stim	stop-signal	511	1374266	0.0-21.10-1.10	beast_fmri_test	393	1371523,/,1372204,/,1372884,/,1373564,/,1374243,/,1374924,/,1375604,/,1376283,/,1376964,/	t,t,t,t,t,t,t,t,t	<img class = center src='/static/experiments/beast_fmri_test/images/V.png'></img>	89,71	2750.0	test	<img class = center src='/static/experiments/beast_fmri_test/images/redV.png'></img>	stop	2300.0	3.0	10.0	stop	target	V	89,Middle Finger	71,Index Finger	450.0	500.0	2300.0	2250.0	0.0	1.0	450.0	n/a	ITI
274191	500	n/a	-1	-1	500	0.0	fixation	poldrack-single-stim	512	1377698	0.0-21.11-0.11	beast_fmri_test	393	1377644,/	t	<div class = centerbox2><div class = fixation>+</div></div>	none	500.0	test	n/a	n/a	n/a	n/a	n/a	n/a	n/a	n/a	n/a	n/a	n/a	n/a	n/a	n/a	n/a	n/a	n/a	n/a	fixation
272555.80082730646	2750	n/a	877	71	2750	1638.19917269	stim	stop-signal	513	1380451	0.0-21.11-1.11	beast_fmri_test	393	1378324,/,1379004,/,1379684,/,1380364,/,1381044,/,1381724,/	t,t,t,t,t,t	<img class = center src='/static/experiments/beast_fmri_test/images/T.png'></img>	89,71	2750.0	test	<img class = center src='/static/experiments/beast_fmri_test/images/redT.png'></img>	go	2250.0	3.0	11.0	go	non-target	T	89,Middle Finger	71,Index Finger	500.0	500.0	2300.0	2250.0	1.0	n/a	500.0	1.0	go_stim
275305.80082730646	1638.1991726936233	n/a	877	71	2750	1638.19917269	stim	stop-signal	513	1380451	0.0-21.11-1.11	beast_fmri_test	393	1378324,/,1379004,/,1379684,/,1380364,/,1381044,/,1381724,/	t,t,t,t,t,t	<img class = center src='/static/experiments/beast_fmri_test/images/T.png'></img>	89,71	2750.0	test	<img class = center src='/static/experiments/beast_fmri_test/images/redT.png'></img>	go	2250.0	3.0	11.0	go	non-target	T	89,Middle Finger	71,Index Finger	500.0	500.0	2300.0	2250.0	1.0	n/a	500.0	1.0	ITI
279137	500	n/a	-1	-1	500	0.0	fixation	poldrack-single-stim	514	1382644	0.0-21.12-0.12	beast_fmri_test	393	1382405,/	t	<div class = centerbox2><div class = fixation>+</div></div>	none	500.0	test	n/a	n/a	n/a	n/a	n/a	n/a	n/a	n/a	n/a	n/a	n/a	n/a	n/a	n/a	n/a	n/a	n/a	n/a	fixation
278758.04383082013	2750	n/a	1259	71	2750	384.95616918	stim	stop-signal	515	1385400	0.0-21.12-1.12	beast_fmri_test	393	1383087,/,1383768,/,1384448,/,1385128,/	t,t,t,t	<img class = center src='/static/experiments/beast_fmri_test/images/D.png'></img>	89,71	2750.0	test	<img class = center src='/static/experiments/beast_fmri_test/images/redD.png'></img>	go	2250.0	3.0	12.0	go	non-target	D	89,Middle Finger	71,Index Finger	500.0	500.0	2300.0	2250.0	1.0	n/a	500.0	1.0	go_stim
281508.04383082013	384.95616917989997	n/a	1259	71	2750	384.95616918	stim	stop-signal	515	1385400	0.0-21.12-1.12	beast_fmri_test	393	1383087,/,1383768,/,1384448,/,1385128,/	t,t,t,t	<img class = center src='/static/experiments/beast_fmri_test/images/D.png'></img>	89,71	2750.0	test	<img class = center src='/static/experiments/beast_fmri_test/images/redD.png'></img>	go	2250.0	3.0	12.0	go	non-target	D	89,Middle Finger	71,Index Finger	500.0	500.0	2300.0	2250.0	1.0	n/a	500.0	1.0	ITI
282833	500	n/a	-1	-1	500	0.0	fixation	poldrack-single-stim	516	1386340	0.0-21.13-0.13	beast_fmri_test	393	1385838,/	t	<div class = centerbox2><div class = fixation>+</div></div>	none	500.0	test	n/a	n/a	n/a	n/a	n/a	n/a	n/a	n/a	n/a	n/a	n/a	n/a	n/a	n/a	n/a	n/a	n/a	n/a	fixation
279238.25477639353	2750	n/a	1279	89	2750	3597.74522361	stim	stop-signal	517	1389093	0.0-21.13-1.13	beast_fmri_test	393	1386488,/,1387168,/,1387848,/,1388528,/,1389208,/,1389889,/,1390568,/,1391249,/,1391929,/,1392610,/	t,t,t,t,t,t,t,t,t,t	<img class = center src='/static/experiments/beast_fmri_test/images/V.png'></img>	89,71	2750.0	test	<img class = center src='/static/experiments/beast_fmri_test/images/redV.png'></img>	go	2250.0	3.0	13.0	go	target	V	89,Middle Finger	71,Index Finger	500.0	500.0	2250.0	2250.0	1.0	n/a	500.0	1.0	go_stim
281988.25477639353	3597.7452236064478	n/a	1279	89	2750	3597.74522361	stim	stop-signal	517	1389093	0.0-21.13-1.13	beast_fmri_test	393	1386488,/,1387168,/,1387848,/,1388528,/,1389208,/,1389889,/,1390568,/,1391249,/,1391929,/,1392610,/	t,t,t,t,t,t,t,t,t,t	<img class = center src='/static/experiments/beast_fmri_test/images/V.png'></img>	89,71	2750.0	test	<img class = center src='/static/experiments/beast_fmri_test/images/redV.png'></img>	go	2250.0	3.0	13.0	go	target	V	89,Middle Finger	71,Index Finger	500.0	500.0	2250.0	2250.0	1.0	n/a	500.0	1.0	ITI
289747	500	n/a	-1	-1	500	0.0	fixation	poldrack-single-stim	518	1393254	0.0-21.14-0.14	beast_fmri_test	393	n/a	n/a	<div class = centerbox2><div class = fixation>+</div></div>	none	500.0	test	n/a	n/a	n/a	n/a	n/a	n/a	n/a	n/a	n/a	n/a	n/a	n/a	n/a	n/a	n/a	n/a	n/a	n/a	fixation
289695.97836263082	2750	n/a	857	71	2750	55.0216373691	stim	stop-signal	519	1396008	0.0-21.14-1.14	beast_fmri_test	393	1393292,/,1393973,/,1394653,/,1395333,/,1396013,/	t,t,t,t,t	<img class = center src='/static/experiments/beast_fmri_test/images/P.png'></img>	89,71	2750.0	test	<img class = center src='/static/experiments/beast_fmri_test/images/redP.png'></img>	go	2250.0	3.0	14.0	go	non-target	P	89,Middle Finger	71,Index Finger	500.0	500.0	2250.0	2250.0	1.0	n/a	500.0	1.0	go_stim
292445.97836263082	55.021637369100503	n/a	857	71	2750	55.0216373691	stim	stop-signal	519	1396008	0.0-21.14-1.14	beast_fmri_test	393	1393292,/,1393973,/,1394653,/,1395333,/,1396013,/	t,t,t,t,t	<img class = center src='/static/experiments/beast_fmri_test/images/P.png'></img>	89,71	2750.0	test	<img class = center src='/static/experiments/beast_fmri_test/images/redP.png'></img>	go	2250.0	3.0	14.0	go	non-target	P	89,Middle Finger	71,Index Finger	500.0	500.0	2250.0	2250.0	1.0	n/a	500.0	1.0	ITI
293113	500	n/a	-1	-1	500	0.0	fixation	poldrack-single-stim	520	1396620	0.0-21.15-0.15	beast_fmri_test	393	n/a	n/a	<div class = centerbox2><div class = fixation>+</div></div>	none	500.0	test	n/a	n/a	n/a	n/a	n/a	n/a	n/a	n/a	n/a	n/a	n/a	n/a	n/a	n/a	n/a	n/a	n/a	n/a	fixation
292922.32752387039	2750	n/a	1909	71	2750	194.67247613	stim	stop-signal	521	1399374	0.0-21.15-1.15	beast_fmri_test	393	1396693,/,1397373,/,1398053,/,1398732,/,1399412,/	t,t,t,t,t	<img class = center src='/static/experiments/beast_fmri_test/images/D.png'></img>	89,71	2750.0	test	<img class = center src='/static/experiments/beast_fmri_test/images/redD.png'></img>	go	2250.0	3.0	15.0	go	target	D	89,Middle Finger	71,Index Finger	500.0	500.0	2250.0	2250.0	0.0	n/a	500.0	0.0	go_stim
295672.32752387039	194.67247612965781	n/a	1909	71	2750	194.67247613	stim	stop-signal	521	1399374	0.0-21.15-1.15	beast_fmri_test	393	1396693,/,1397373,/,1398053,/,1398732,/,1399412,/	t,t,t,t,t	<img class = center src='/static/experiments/beast_fmri_test/images/D.png'></img>	89,71	2750.0	test	<img class = center src='/static/experiments/beast_fmri_test/images/redD.png'></img>	go	2250.0	3.0	15.0	go	target	D	89,Middle Finger	71,Index Finger	500.0	500.0	2250.0	2250.0	0.0	n/a	500.0	0.0	ITI
296613	500	n/a	-1	-1	500	0.0	fixation	poldrack-single-stim	522	1400120	0.0-21.16-0.16	beast_fmri_test	393	1400094,/	t	<div class = centerbox2><div class = fixation>+</div></div>	none	500.0	test	n/a	n/a	n/a	n/a	n/a	n/a	n/a	n/a	n/a	n/a	n/a	n/a	n/a	n/a	n/a	n/a	n/a	n/a	fixation
296048.60137035721	500.0	n/a	-1	-1	2750	569.398629643	stim	stop-signal	523	1402875	0.0-21.16-1.16	beast_fmri_test	393	1400773,/,1401453,/,1402133,/,1402815,/	t,t,t,t	<img class = center src='/static/experiments/beast_fmri_test/images/V.png'></img>	89,71	2750.0	test	<img class = center src='/static/experiments/beast_fmri_test/images/redV.png'></img>	stop	2250.0	3.0	16.0	stop	target	V	89,Middle Finger	71,Index Finger	500.0	500.0	2250.0	2250.0	0.0	1.0	500.0	n/a	go_stim
298298.60137035721	2250.0	n/a	-1	-1	2750	569.398629643	stim	stop-signal	523	1402875	0.0-21.16-1.16	beast_fmri_test	393	1400773,/,1401453,/,1402133,/,1402815,/	t,t,t,t	<img class = center src='/static/experiments/beast_fmri_test/images/V.png'></img>	89,71	2750.0	test	<img class = center src='/static/experiments/beast_fmri_test/images/redV.png'></img>	stop	2250.0	3.0	16.0	stop	target	V	89,Middle Finger	71,Index Finger	500.0	500.0	2250.0	2250.0	0.0	1.0	500.0	n/a	stop_stim
298798.60137035721	569.39862964268343	n/a	-1	-1	2750	569.398629643	stim	stop-signal	523	1402875	0.0-21.16-1.16	beast_fmri_test	393	1400773,/,1401453,/,1402133,/,1402815,/	t,t,t,t	<img class = center src='/static/experiments/beast_fmri_test/images/V.png'></img>	89,71	2750.0	test	<img class = center src='/static/experiments/beast_fmri_test/images/redV.png'></img>	stop	2250.0	3.0	16.0	stop	target	V	89,Middle Finger	71,Index Finger	500.0	500.0	2250.0	2250.0	0.0	1.0	500.0	n/a	ITI
300489	500	n/a	-1	-1	500	0.0	fixation	poldrack-single-stim	524	1403996	0.0-21.17-0.17	beast_fmri_test	393	1403498,/	t	<div class = centerbox2><div class = fixation>+</div></div>	none	500.0	test	n/a	n/a	n/a	n/a	n/a	n/a	n/a	n/a	n/a	n/a	n/a	n/a	n/a	n/a	n/a	n/a	n/a	n/a	fixation
298377.09890315076	2750	n/a	2137	89	2750	2115.90109685	stim	stop-signal	525	1406750	0.0-21.17-1.17	beast_fmri_test	393	1404177,/,1404857,/,1405537,/,1406217,/,1406897,/,1407577,/,1408257,/	t,t,t,t,t,t,t	<img class = center src='/static/experiments/beast_fmri_test/images/D.png'></img>	89,71	2750.0	test	<img class = center src='/static/experiments/beast_fmri_test/images/redD.png'></img>	go	2250.0	3.0	17.0	go	non-target	D	89,Middle Finger	71,Index Finger	550.0	500.0	2250.0	2250.0	0.0	n/a	500.0	0.0	go_stim
301127.09890315076	2115.9010968493239	n/a	2137	89	2750	2115.90109685	stim	stop-signal	525	1406750	0.0-21.17-1.17	beast_fmri_test	393	1404177,/,1404857,/,1405537,/,1406217,/,1406897,/,1407577,/,1408257,/	t,t,t,t,t,t,t	<img class = center src='/static/experiments/beast_fmri_test/images/D.png'></img>	89,71	2750.0	test	<img class = center src='/static/experiments/beast_fmri_test/images/redD.png'></img>	go	2250.0	3.0	17.0	go	non-target	D	89,Middle Finger	71,Index Finger	550.0	500.0	2250.0	2250.0	0.0	n/a	500.0	0.0	ITI
305909	500	n/a	-1	-1	500	0.0	fixation	poldrack-single-stim	526	1409416	0.0-21.18-0.18	beast_fmri_test	393	1408936,/	t	<div class = centerbox2><div class = fixation>+</div></div>	none	500.0	test	n/a	n/a	n/a	n/a	n/a	n/a	n/a	n/a	n/a	n/a	n/a	n/a	n/a	n/a	n/a	n/a	n/a	n/a	fixation
302652.0848837744	2750	n/a	825	89	2750	3259.91511623	stim	stop-signal	527	1412169	0.0-21.18-1.18	beast_fmri_test	393	1409617,/,1410297,/,1410977,/,1411657,/,1412338,/,1413020,/,1413701,/,1414381,/,1415061,/	t,t,t,t,t,t,t,t,t	<img class = center src='/static/experiments/beast_fmri_test/images/D.png'></img>	89,71	2750.0	test	<img class = center src='/static/experiments/beast_fmri_test/images/redD.png'></img>	go	2200.0	3.0	18.0	go	target	D	89,Middle Finger	71,Index Finger	550.0	500.0	2200.0	2250.0	1.0	n/a	550.0	1.0	go_stim
305402.0848837744	3259.9151162255921	n/a	825	89	2750	3259.91511623	stim	stop-signal	527	1412169	0.0-21.18-1.18	beast_fmri_test	393	1409617,/,1410297,/,1410977,/,1411657,/,1412338,/,1413020,/,1413701,/,1414381,/,1415061,/	t,t,t,t,t,t,t,t,t	<img class = center src='/static/experiments/beast_fmri_test/images/D.png'></img>	89,71	2750.0	test	<img class = center src='/static/experiments/beast_fmri_test/images/redD.png'></img>	go	2200.0	3.0	18.0	go	target	D	89,Middle Finger	71,Index Finger	550.0	500.0	2200.0	2250.0	1.0	n/a	550.0	1.0	ITI
312479	500	n/a	-1	-1	500	0.0	fixation	poldrack-single-stim	528	1415986	0.0-21.19-0.19	beast_fmri_test	393	1415742,/	t	<div class = centerbox2><div class = fixation>+</div></div>	none	500.0	test	n/a	n/a	n/a	n/a	n/a	n/a	n/a	n/a	n/a	n/a	n/a	n/a	n/a	n/a	n/a	n/a	n/a	n/a	fixation
311778.88017191179	2750	n/a	919	71	2750	703.119828088	stim	stop-signal	529	1418739	0.0-21.19-1.19	beast_fmri_test	393	1416421,/,1417102,/,1417784,/,1418462,/,1419142,/	t,t,t,t,t	<img class = center src='/static/experiments/beast_fmri_test/images/B.png'></img>	89,71	2750.0	test	<img class = center src='/static/experiments/beast_fmri_test/images/redB.png'></img>	go	2250.0	3.0	19.0	go	non-target	B	89,Middle Finger	71,Index Finger	550.0	500.0	2200.0	2250.0	1.0	n/a	500.0	1.0	go_stim
314528.88017191179	703.11982808816731	n/a	919	71	2750	703.119828088	stim	stop-signal	529	1418739	0.0-21.19-1.19	beast_fmri_test	393	1416421,/,1417102,/,1417784,/,1418462,/,1419142,/	t,t,t,t,t	<img class = center src='/static/experiments/beast_fmri_test/images/B.png'></img>	89,71	2750.0	test	<img class = center src='/static/experiments/beast_fmri_test/images/redB.png'></img>	go	2250.0	3.0	19.0	go	non-target	B	89,Middle Finger	71,Index Finger	550.0	500.0	2200.0	2250.0	1.0	n/a	500.0	1.0	ITI
316489	500	n/a	-1	-1	500	0.0	fixation	poldrack-single-stim	530	1419996	0.0-21.20-0.20	beast_fmri_test	393	1419822,/	t	<div class = centerbox2><div class = fixation>+</div></div>	none	500.0	test	n/a	n/a	n/a	n/a	n/a	n/a	n/a	n/a	n/a	n/a	n/a	n/a	n/a	n/a	n/a	n/a	n/a	n/a	fixation
315990.01856024936	500.0	n/a	-1	-1	2750	503.981439751	stim	stop-signal	531	1422751	0.0-21.20-1.20	beast_fmri_test	393	1420501,/,1421182,/,1421862,/,1422543,/,1423226,/	t,t,t,t,t	<img class = center src='/static/experiments/beast_fmri_test/images/B.png'></img>	89,71	2750.0	test	<img class = center src='/static/experiments/beast_fmri_test/images/redB.png'></img>	stop	2250.0	3.0	20.0	stop	non-target	B	89,Middle Finger	71,Index Finger	550.0	500.0	2200.0	2250.0	0.0	1.0	500.0	n/a	go_stim
318240.01856024936	2250.0	n/a	-1	-1	2750	503.981439751	stim	stop-signal	531	1422751	0.0-21.20-1.20	beast_fmri_test	393	1420501,/,1421182,/,1421862,/,1422543,/,1423226,/	t,t,t,t,t	<img class = center src='/static/experiments/beast_fmri_test/images/B.png'></img>	89,71	2750.0	test	<img class = center src='/static/experiments/beast_fmri_test/images/redB.png'></img>	stop	2250.0	3.0	20.0	stop	non-target	B	89,Middle Finger	71,Index Finger	550.0	500.0	2200.0	2250.0	0.0	1.0	500.0	n/a	stop_stim
318740.01856024936	503.9814397507073	n/a	-1	-1	2750	503.981439751	stim	stop-signal	531	1422751	0.0-21.20-1.20	beast_fmri_test	393	1420501,/,1421182,/,1421862,/,1422543,/,1423226,/	t,t,t,t,t	<img class = center src='/static/experiments/beast_fmri_test/images/B.png'></img>	89,71	2750.0	test	<img class = center src='/static/experiments/beast_fmri_test/images/redB.png'></img>	stop	2250.0	3.0	20.0	stop	non-target	B	89,Middle Finger	71,Index Finger	550.0	500.0	2200.0	2250.0	0.0	1.0	500.0	n/a	ITI
320306	500	n/a	-1	-1	500	0.0	fixation	poldrack-single-stim	532	1423813	0.0-21.21-0.21	beast_fmri_test	393	n/a	n/a	<div class = centerbox2><div class = fixation>+</div></div>	none	500.0	test	n/a	n/a	n/a	n/a	n/a	n/a	n/a	n/a	n/a	n/a	n/a	n/a	n/a	n/a	n/a	n/a	n/a	n/a	fixation
318791.02844769345	550.0	n/a	-1	-1	2750	1517.97155231	stim	stop-signal	533	1426566	0.0-21.21-1.21	beast_fmri_test	393	1423906,/,1424586,/,1425266,/,1425946,/,1426626,/,1427306,/,1427986,/	t,t,t,t,t,t,t	<img class = center src='/static/experiments/beast_fmri_test/images/D.png'></img>	89,71	2750.0	test	<img class = center src='/static/experiments/beast_fmri_test/images/redD.png'></img>	stop	2200.0	3.0	21.0	stop	target	D	89,Middle Finger	71,Index Finger	550.0	550.0	2200.0	2250.0	0.0	1.0	550.0	n/a	go_stim
320991.02844769345	2200.0	n/a	-1	-1	2750	1517.97155231	stim	stop-signal	533	1426566	0.0-21.21-1.21	beast_fmri_test	393	1423906,/,1424586,/,1425266,/,1425946,/,1426626,/,1427306,/,1427986,/	t,t,t,t,t,t,t	<img class = center src='/static/experiments/beast_fmri_test/images/D.png'></img>	89,71	2750.0	test	<img class = center src='/static/experiments/beast_fmri_test/images/redD.png'></img>	stop	2200.0	3.0	21.0	stop	target	D	89,Middle Finger	71,Index Finger	550.0	550.0	2200.0	2250.0	0.0	1.0	550.0	n/a	stop_stim
