onset	duration	text	rt	key_press	block_duration	timing_post_trial	trial_id	trial_type	trial_index	time_elapsed	internal_node_id	exp_id	subject_id	trigger_times	triggers	stimulus	possible_responses	stim_duration	exp_stage	SS_stimulus	SS_trial_type	SS_duration	load	trial_num	stop_trial_type	adaptive_trial_type	stim	yes_response_key	no_response_key	SSD_target	SSD_non_target	SSTarget	SSNonTarget	go_acc	stop_acc	SS_delay	adaptive_acc	new_trial_type
test	10880	n/a	-1	-1	10880	0.0	practice-no-stop-feedback	poldrack-single-stim	200	605025	0.0-12.0	beast_fmri_test	393	594148,/,594827,/,595507,/,596187,/,596867,/,597546,/,598226,/,598906,/,599587,/,600267,/,600947,/,601626,/,602303,/,602981,/,603662,/,604342,/,605022,/	t,t,t,t,t,t,t,t,t,t,t,t,t,t,t,t,t	"<div class = ""centerbox2_2""><p class = ""block-text2"">Your delay is 2 trials.</p><p class = block-text2>Please wait for the scanner to start the block</p></div>"	77	10880.0	n/a	n/a	n/a	n/a	n/a	n/a	n/a	n/a	n/a	n/a	n/a	n/a	n/a	n/a	n/a	n/a	n/a	n/a	n/a	start_functional_block
11379	500	n/a	-1	-1	500	0.0	fixation	poldrack-single-stim	201	605527	0.0-13.0-0.0	beast_fmri_test	393	n/a	n/a	<div class = centerbox2><div class = fixation>+</div></div>	none	500.0	test	n/a	n/a	n/a	n/a	n/a	n/a	n/a	n/a	n/a	n/a	n/a	n/a	n/a	n/a	n/a	n/a	n/a	n/a	fixation
11035.150903599686	2750	n/a	1355	71	2750	346.8490964	stim	stop-signal	202	608280	0.0-13.0-1.0	beast_fmri_test	393	605702,/,606382,/,607062,/,607742,/,608421,/	t,t,t,t,t	<img class = center src='/static/experiments/beast_fmri_test/images/B.png'></img>	89,71	2750.0	test	<img class = center src='/static/experiments/beast_fmri_test/images/redB.png'></img>	go	-1.0	2.0	0.0	go	temp-non-target	B	89,Middle Finger	71,Index Finger	800.0	800.0	1950.0	2000.0	0.0	n/a	n/a	n/a	go_stim
13785.150903599686	346.84909640028502	n/a	1355	71	2750	346.8490964	stim	stop-signal	202	608280	0.0-13.0-1.0	beast_fmri_test	393	605702,/,606382,/,607062,/,607742,/,608421,/	t,t,t,t,t	<img class = center src='/static/experiments/beast_fmri_test/images/B.png'></img>	89,71	2750.0	test	<img class = center src='/static/experiments/beast_fmri_test/images/redB.png'></img>	go	-1.0	2.0	0.0	go	temp-non-target	B	89,Middle Finger	71,Index Finger	800.0	800.0	1950.0	2000.0	0.0	n/a	n/a	n/a	ITI
15004	500	n/a	-1	-1	500	0.0	fixation	poldrack-single-stim	203	609152	0.0-13.1-0.1	beast_fmri_test	393	609102,/	t	<div class = centerbox2><div class = fixation>+</div></div>	none	500.0	test	n/a	n/a	n/a	n/a	n/a	n/a	n/a	n/a	n/a	n/a	n/a	n/a	n/a	n/a	n/a	n/a	n/a	n/a	fixation
14594.500932457042	2750	n/a	1334	71	2750	410.499067543	stim	stop-signal	204	611903	0.0-13.1-1.1	beast_fmri_test	393	609782,/,610462,/,611142,/,611821,/	t,t,t,t	<img class = center src='/static/experiments/beast_fmri_test/images/D.png'></img>	89,71	2750.0	test	<img class = center src='/static/experiments/beast_fmri_test/images/redD.png'></img>	go	-1.0	2.0	1.0	go	temp-non-target	D	89,Middle Finger	71,Index Finger	800.0	800.0	1950.0	2000.0	0.0	n/a	n/a	n/a	go_stim
17344.500932457042	410.49906754295182	n/a	1334	71	2750	410.499067543	stim	stop-signal	204	611903	0.0-13.1-1.1	beast_fmri_test	393	609782,/,610462,/,611142,/,611821,/	t,t,t,t	<img class = center src='/static/experiments/beast_fmri_test/images/D.png'></img>	89,71	2750.0	test	<img class = center src='/static/experiments/beast_fmri_test/images/redD.png'></img>	go	-1.0	2.0	1.0	go	temp-non-target	D	89,Middle Finger	71,Index Finger	800.0	800.0	1950.0	2000.0	0.0	n/a	n/a	n/a	ITI
18685	500	n/a	-1	-1	500	0.0	fixation	poldrack-single-stim	205	612833	0.0-13.2-0.2	beast_fmri_test	393	612498,/	t	<div class = centerbox2><div class = fixation>+</div></div>	none	500.0	test	n/a	n/a	n/a	n/a	n/a	n/a	n/a	n/a	n/a	n/a	n/a	n/a	n/a	n/a	n/a	n/a	n/a	n/a	fixation
16700.462863596156	800.0	n/a	746	71	2750	1988.5371364	stim	stop-signal	206	615587	0.0-13.2-1.2	beast_fmri_test	393	613178,/,613857,/,614537,/,615217,/,615897,/,616577,/,617257,/	t,t,t,t,t,t,t	<img class = center src='/static/experiments/beast_fmri_test/images/T.png'></img>	89,71	2750.0	test	<img class = center src='/static/experiments/beast_fmri_test/images/redT.png'></img>	stop	1950.0	2.0	2.0	stop	non-target	T	89,Middle Finger	71,Index Finger	800.0	800.0	1950.0	1950.0	0.0	0.0	800.0	n/a	go_stim
18650.462863596156	1950.0	n/a	746	71	2750	1988.5371364	stim	stop-signal	206	615587	0.0-13.2-1.2	beast_fmri_test	393	613178,/,613857,/,614537,/,615217,/,615897,/,616577,/,617257,/	t,t,t,t,t,t,t	<img class = center src='/static/experiments/beast_fmri_test/images/T.png'></img>	89,71	2750.0	test	<img class = center src='/static/experiments/beast_fmri_test/images/redT.png'></img>	stop	1950.0	2.0	2.0	stop	non-target	T	89,Middle Finger	71,Index Finger	800.0	800.0	1950.0	1950.0	0.0	0.0	800.0	n/a	stop_stim
19450.462863596156	1988.5371364038931	n/a	746	71	2750	1988.5371364	stim	stop-signal	206	615587	0.0-13.2-1.2	beast_fmri_test	393	613178,/,613857,/,614537,/,615217,/,615897,/,616577,/,617257,/	t,t,t,t,t,t,t	<img class = center src='/static/experiments/beast_fmri_test/images/T.png'></img>	89,71	2750.0	test	<img class = center src='/static/experiments/beast_fmri_test/images/redT.png'></img>	stop	1950.0	2.0	2.0	stop	non-target	T	89,Middle Finger	71,Index Finger	800.0	800.0	1950.0	1950.0	0.0	0.0	800.0	n/a	ITI
23952	500	n/a	-1	-1	500	0.0	fixation	poldrack-single-stim	207	618100	0.0-13.3-0.3	beast_fmri_test	393	617938,/	t	<div class = centerbox2><div class = fixation>+</div></div>	none	500.0	test	n/a	n/a	n/a	n/a	n/a	n/a	n/a	n/a	n/a	n/a	n/a	n/a	n/a	n/a	n/a	n/a	n/a	n/a	fixation
22479.257311497699	2750	n/a	691	71	2750	1475.7426885	stim	stop-signal	208	620853	0.0-13.3-1.3	beast_fmri_test	393	618618,/,619297,/,619977,/,620657,/,621337,/,622015,/	t,t,t,t,t,t	<img class = center src='/static/experiments/beast_fmri_test/images/B.png'></img>	89,71	2750.0	test	<img class = center src='/static/experiments/beast_fmri_test/images/redB.png'></img>	go	2000.0	2.0	3.0	go	non-target	B	89,Middle Finger	71,Index Finger	800.0	750.0	1950.0	2000.0	1.0	n/a	750.0	1.0	go_stim
25229.257311497699	1475.7426885022824	n/a	691	71	2750	1475.7426885	stim	stop-signal	208	620853	0.0-13.3-1.3	beast_fmri_test	393	618618,/,619297,/,619977,/,620657,/,621337,/,622015,/	t,t,t,t,t,t	<img class = center src='/static/experiments/beast_fmri_test/images/B.png'></img>	89,71	2750.0	test	<img class = center src='/static/experiments/beast_fmri_test/images/redB.png'></img>	go	2000.0	2.0	3.0	go	non-target	B	89,Middle Finger	71,Index Finger	800.0	750.0	1950.0	2000.0	1.0	n/a	750.0	1.0	ITI
28699	500	n/a	-1	-1	500	0.0	fixation	poldrack-single-stim	209	622847	0.0-13.4-0.4	beast_fmri_test	393	622693,/	t	<div class = centerbox2><div class = fixation>+</div></div>	none	500.0	test	n/a	n/a	n/a	n/a	n/a	n/a	n/a	n/a	n/a	n/a	n/a	n/a	n/a	n/a	n/a	n/a	n/a	n/a	fixation
28553.740802715067	2750	n/a	583	89	2750	148.259197285	stim	stop-signal	210	625600	0.0-13.4-1.4	beast_fmri_test	393	623373,/,624052,/,624732,/,625413,/	t,t,t,t	<img class = center src='/static/experiments/beast_fmri_test/images/T.png'></img>	89,71	2750.0	test	<img class = center src='/static/experiments/beast_fmri_test/images/redT.png'></img>	go	1950.0	2.0	4.0	go	target	T	89,Middle Finger	71,Index Finger	800.0	750.0	1950.0	2000.0	1.0	n/a	800.0	1.0	go_stim
31303.740802715067	148.25919728498786	n/a	583	89	2750	148.259197285	stim	stop-signal	210	625600	0.0-13.4-1.4	beast_fmri_test	393	623373,/,624052,/,624732,/,625413,/	t,t,t,t	<img class = center src='/static/experiments/beast_fmri_test/images/T.png'></img>	89,71	2750.0	test	<img class = center src='/static/experiments/beast_fmri_test/images/redT.png'></img>	go	1950.0	2.0	4.0	go	target	T	89,Middle Finger	71,Index Finger	800.0	750.0	1950.0	2000.0	1.0	n/a	800.0	1.0	ITI
32126	500	n/a	-1	-1	500	0.0	fixation	poldrack-single-stim	211	626274	0.0-13.5-0.5	beast_fmri_test	393	626093,/	t	<div class = centerbox2><div class = fixation>+</div></div>	none	500.0	test	n/a	n/a	n/a	n/a	n/a	n/a	n/a	n/a	n/a	n/a	n/a	n/a	n/a	n/a	n/a	n/a	n/a	n/a	fixation
31416.98959732498	2750	n/a	787	71	2750	712.010402675	stim	stop-signal	212	629027	0.0-13.5-1.5	beast_fmri_test	393	626773,/,627453,/,628132,/,628812,/,629493,/	t,t,t,t,t	<img class = center src='/static/experiments/beast_fmri_test/images/P.png'></img>	89,71	2750.0	test	<img class = center src='/static/experiments/beast_fmri_test/images/redP.png'></img>	go	2000.0	2.0	5.0	go	non-target	P	89,Middle Finger	71,Index Finger	800.0	750.0	1950.0	2000.0	1.0	n/a	750.0	1.0	go_stim
34166.98959732498	712.01040267501378	n/a	787	71	2750	712.010402675	stim	stop-signal	212	629027	0.0-13.5-1.5	beast_fmri_test	393	626773,/,627453,/,628132,/,628812,/,629493,/	t,t,t,t,t	<img class = center src='/static/experiments/beast_fmri_test/images/P.png'></img>	89,71	2750.0	test	<img class = center src='/static/experiments/beast_fmri_test/images/redP.png'></img>	go	2000.0	2.0	5.0	go	non-target	P	89,Middle Finger	71,Index Finger	800.0	750.0	1950.0	2000.0	1.0	n/a	750.0	1.0	ITI
36116	500	n/a	-1	-1	500	0.0	fixation	poldrack-single-stim	213	630264	0.0-13.6-0.6	beast_fmri_test	393	630173,/	t	<div class = centerbox2><div class = fixation>+</div></div>	none	500.0	test	n/a	n/a	n/a	n/a	n/a	n/a	n/a	n/a	n/a	n/a	n/a	n/a	n/a	n/a	n/a	n/a	n/a	n/a	fixation
35561.396126763779	2750	n/a	734	71	2750	552.603873236	stim	stop-signal	214	633012	0.0-13.6-1.6	beast_fmri_test	393	630853,/,631532,/,632209,/,632887,/	t,t,t,t	<img class = center src='/static/experiments/beast_fmri_test/images/B.png'></img>	89,71	2750.0	test	<img class = center src='/static/experiments/beast_fmri_test/images/redB.png'></img>	go	2000.0	2.0	6.0	go	non-target	B	89,Middle Finger	71,Index Finger	800.0	750.0	1950.0	2000.0	1.0	n/a	750.0	1.0	go_stim
38311.396126763779	552.60387323617135	n/a	734	71	2750	552.603873236	stim	stop-signal	214	633012	0.0-13.6-1.6	beast_fmri_test	393	630853,/,631532,/,632209,/,632887,/	t,t,t,t	<img class = center src='/static/experiments/beast_fmri_test/images/B.png'></img>	89,71	2750.0	test	<img class = center src='/static/experiments/beast_fmri_test/images/redB.png'></img>	go	2000.0	2.0	6.0	go	non-target	B	89,Middle Finger	71,Index Finger	800.0	750.0	1950.0	2000.0	1.0	n/a	750.0	1.0	ITI
39941	500	n/a	-1	-1	500	0.0	fixation	poldrack-single-stim	215	634089	0.0-13.7-0.7	beast_fmri_test	393	633587,/	t	<div class = centerbox2><div class = fixation>+</div></div>	none	500.0	test	n/a	n/a	n/a	n/a	n/a	n/a	n/a	n/a	n/a	n/a	n/a	n/a	n/a	n/a	n/a	n/a	n/a	n/a	fixation
38888.942162630497	2750	n/a	1362	71	2750	1056.05783737	stim	stop-signal	216	636843	0.0-13.7-1.7	beast_fmri_test	393	634248,/,634928,/,635606,/,636287,/,636967,/,637649,/	t,t,t,t,t,t	<img class = center src='/static/experiments/beast_fmri_test/images/B.png'></img>	89,71	2750.0	test	<img class = center src='/static/experiments/beast_fmri_test/images/redB.png'></img>	go	2000.0	2.0	7.0	go	non-target	B	89,Middle Finger	71,Index Finger	800.0	750.0	1950.0	2000.0	1.0	n/a	750.0	1.0	go_stim
41638.942162630497	1056.0578373694768	n/a	1362	71	2750	1056.05783737	stim	stop-signal	216	636843	0.0-13.7-1.7	beast_fmri_test	393	634248,/,634928,/,635606,/,636287,/,636967,/,637649,/	t,t,t,t,t,t	<img class = center src='/static/experiments/beast_fmri_test/images/B.png'></img>	89,71	2750.0	test	<img class = center src='/static/experiments/beast_fmri_test/images/redB.png'></img>	go	2000.0	2.0	7.0	go	non-target	B	89,Middle Finger	71,Index Finger	800.0	750.0	1950.0	2000.0	1.0	n/a	750.0	1.0	ITI
44278	500	n/a	-1	-1	500	0.0	fixation	poldrack-single-stim	217	638426	0.0-13.8-0.8	beast_fmri_test	393	638329,/	t	<div class = centerbox2><div class = fixation>+</div></div>	none	500.0	test	n/a	n/a	n/a	n/a	n/a	n/a	n/a	n/a	n/a	n/a	n/a	n/a	n/a	n/a	n/a	n/a	n/a	n/a	fixation
43239.159746198333	2750	n/a	795	89	2750	1040.8402538	stim	stop-signal	218	641178	0.0-13.8-1.8	beast_fmri_test	393	639008,/,639688,/,640368,/,641048,/,641727,/	t,t,t,t,t	<img class = center src='/static/experiments/beast_fmri_test/images/B.png'></img>	89,71	2750.0	test	<img class = center src='/static/experiments/beast_fmri_test/images/redB.png'></img>	go	1950.0	2.0	8.0	go	target	B	89,Middle Finger	71,Index Finger	800.0	750.0	1950.0	2000.0	1.0	n/a	800.0	1.0	go_stim
45989.159746198333	1040.840253801668	n/a	795	89	2750	1040.8402538	stim	stop-signal	218	641178	0.0-13.8-1.8	beast_fmri_test	393	639008,/,639688,/,640368,/,641048,/,641727,/	t,t,t,t,t	<img class = center src='/static/experiments/beast_fmri_test/images/B.png'></img>	89,71	2750.0	test	<img class = center src='/static/experiments/beast_fmri_test/images/redB.png'></img>	go	1950.0	2.0	8.0	go	target	B	89,Middle Finger	71,Index Finger	800.0	750.0	1950.0	2000.0	1.0	n/a	800.0	1.0	ITI
48590	500	n/a	-1	-1	500	0.0	fixation	poldrack-single-stim	219	642738	0.0-13.9-0.9	beast_fmri_test	393	642405,/	t	<div class = centerbox2><div class = fixation>+</div></div>	none	500.0	test	n/a	n/a	n/a	n/a	n/a	n/a	n/a	n/a	n/a	n/a	n/a	n/a	n/a	n/a	n/a	n/a	n/a	n/a	fixation
48246.692030643579	2750	n/a	1177	71	2750	346.307969356	stim	stop-signal	220	645491	0.0-13.9-1.9	beast_fmri_test	393	643084,/,643764,/,644443,/,645123,/,645803,/	t,t,t,t,t	<img class = center src='/static/experiments/beast_fmri_test/images/P.png'></img>	89,71	2750.0	test	<img class = center src='/static/experiments/beast_fmri_test/images/redP.png'></img>	go	2000.0	2.0	9.0	go	non-target	P	89,Middle Finger	71,Index Finger	800.0	750.0	1950.0	2000.0	1.0	n/a	750.0	1.0	go_stim
50996.692030643579	346.30796935647186	n/a	1177	71	2750	346.307969356	stim	stop-signal	220	645491	0.0-13.9-1.9	beast_fmri_test	393	643084,/,643764,/,644443,/,645123,/,645803,/	t,t,t,t,t	<img class = center src='/static/experiments/beast_fmri_test/images/P.png'></img>	89,71	2750.0	test	<img class = center src='/static/experiments/beast_fmri_test/images/redP.png'></img>	go	2000.0	2.0	9.0	go	non-target	P	89,Middle Finger	71,Index Finger	800.0	750.0	1950.0	2000.0	1.0	n/a	750.0	1.0	ITI
52214	500	n/a	-1	-1	500	0.0	fixation	poldrack-single-stim	221	646362	0.0-13.10-0.10	beast_fmri_test	393	n/a	n/a	<div class = centerbox2><div class = fixation>+</div></div>	none	500.0	test	n/a	n/a	n/a	n/a	n/a	n/a	n/a	n/a	n/a	n/a	n/a	n/a	n/a	n/a	n/a	n/a	n/a	n/a	fixation
52177.610693489434	750.0	n/a	836	71	2750	39.3893065106	stim	stop-signal	222	649115	0.0-13.10-1.10	beast_fmri_test	393	646484,/,647164,/,647843,/,648524,/	t,t,t,t	<img class = center src='/static/experiments/beast_fmri_test/images/D.png'></img>	89,71	2750.0	test	<img class = center src='/static/experiments/beast_fmri_test/images/redD.png'></img>	stop	2000.0	2.0	10.0	stop	non-target	D	89,Middle Finger	71,Index Finger	800.0	750.0	1950.0	2000.0	0.0	0.0	750.0	n/a	go_stim
54177.610693489434	2000.0	n/a	836	71	2750	39.3893065106	stim	stop-signal	222	649115	0.0-13.10-1.10	beast_fmri_test	393	646484,/,647164,/,647843,/,648524,/	t,t,t,t	<img class = center src='/static/experiments/beast_fmri_test/images/D.png'></img>	89,71	2750.0	test	<img class = center src='/static/experiments/beast_fmri_test/images/redD.png'></img>	stop	2000.0	2.0	10.0	stop	non-target	D	89,Middle Finger	71,Index Finger	800.0	750.0	1950.0	2000.0	0.0	0.0	750.0	n/a	stop_stim
54927.610693489434	39.389306510608712	n/a	836	71	2750	39.3893065106	stim	stop-signal	222	649115	0.0-13.10-1.10	beast_fmri_test	393	646484,/,647164,/,647843,/,648524,/	t,t,t,t	<img class = center src='/static/experiments/beast_fmri_test/images/D.png'></img>	89,71	2750.0	test	<img class = center src='/static/experiments/beast_fmri_test/images/redD.png'></img>	stop	2000.0	2.0	10.0	stop	non-target	D	89,Middle Finger	71,Index Finger	800.0	750.0	1950.0	2000.0	0.0	0.0	750.0	n/a	ITI
55529	500	n/a	-1	-1	500	0.0	fixation	poldrack-single-stim	223	649677	0.0-13.11-0.11	beast_fmri_test	393	649203,/	t	<div class = centerbox2><div class = fixation>+</div></div>	none	500.0	test	n/a	n/a	n/a	n/a	n/a	n/a	n/a	n/a	n/a	n/a	n/a	n/a	n/a	n/a	n/a	n/a	n/a	n/a	fixation
53550.998640505597	700.0	n/a	1680	71	2750	1981.00135949	stim	stop-signal	224	652430	0.0-13.11-1.11	beast_fmri_test	393	649883,/,650564,/,651243,/,651923,/,652604,/,653284,/,653964,/	t,t,t,t,t,t,t	<img class = center src='/static/experiments/beast_fmri_test/images/D.png'></img>	89,71	2750.0	test	<img class = center src='/static/experiments/beast_fmri_test/images/redD.png'></img>	stop	2050.0	2.0	11.0	stop	non-target	D	89,Middle Finger	71,Index Finger	800.0	700.0	1950.0	2050.0	0.0	0.0	700.0	n/a	go_stim
55600.998640505597	2050.0	n/a	1680	71	2750	1981.00135949	stim	stop-signal	224	652430	0.0-13.11-1.11	beast_fmri_test	393	649883,/,650564,/,651243,/,651923,/,652604,/,653284,/,653964,/	t,t,t,t,t,t,t	<img class = center src='/static/experiments/beast_fmri_test/images/D.png'></img>	89,71	2750.0	test	<img class = center src='/static/experiments/beast_fmri_test/images/redD.png'></img>	stop	2050.0	2.0	11.0	stop	non-target	D	89,Middle Finger	71,Index Finger	800.0	700.0	1950.0	2050.0	0.0	0.0	700.0	n/a	stop_stim
56300.998640505597	1981.0013594943946	n/a	1680	71	2750	1981.00135949	stim	stop-signal	224	652430	0.0-13.11-1.11	beast_fmri_test	393	649883,/,650564,/,651243,/,651923,/,652604,/,653284,/,653964,/	t,t,t,t,t,t,t	<img class = center src='/static/experiments/beast_fmri_test/images/D.png'></img>	89,71	2750.0	test	<img class = center src='/static/experiments/beast_fmri_test/images/redD.png'></img>	stop	2050.0	2.0	11.0	stop	non-target	D	89,Middle Finger	71,Index Finger	800.0	700.0	1950.0	2050.0	0.0	0.0	700.0	n/a	ITI
60788	500	n/a	-1	-1	500	0.0	fixation	poldrack-single-stim	225	654936	0.0-13.12-0.12	beast_fmri_test	393	654644,/	t	<div class = centerbox2><div class = fixation>+</div></div>	none	500.0	test	n/a	n/a	n/a	n/a	n/a	n/a	n/a	n/a	n/a	n/a	n/a	n/a	n/a	n/a	n/a	n/a	n/a	n/a	fixation
58948.591567909811	2750	n/a	1256	71	2750	1843.40843209	stim	stop-signal	226	657690	0.0-13.12-1.12	beast_fmri_test	393	655324,/,656004,/,656685,/,657363,/,658043,/,658723,/,659403,/	t,t,t,t,t,t,t	<img class = center src='/static/experiments/beast_fmri_test/images/T.png'></img>	89,71	2750.0	test	<img class = center src='/static/experiments/beast_fmri_test/images/redT.png'></img>	go	2100.0	2.0	12.0	go	non-target	T	89,Middle Finger	71,Index Finger	800.0	650.0	1950.0	2100.0	1.0	n/a	650.0	1.0	go_stim
61698.591567909811	1843.4084320902273	n/a	1256	71	2750	1843.40843209	stim	stop-signal	226	657690	0.0-13.12-1.12	beast_fmri_test	393	655324,/,656004,/,656685,/,657363,/,658043,/,658723,/,659403,/	t,t,t,t,t,t,t	<img class = center src='/static/experiments/beast_fmri_test/images/T.png'></img>	89,71	2750.0	test	<img class = center src='/static/experiments/beast_fmri_test/images/redT.png'></img>	go	2100.0	2.0	12.0	go	non-target	T	89,Middle Finger	71,Index Finger	800.0	650.0	1950.0	2100.0	1.0	n/a	650.0	1.0	ITI
65911	500	n/a	-1	-1	500	0.0	fixation	poldrack-single-stim	227	660059	0.0-13.13-0.13	beast_fmri_test	393	n/a	n/a	<div class = centerbox2><div class = fixation>+</div></div>	none	500.0	test	n/a	n/a	n/a	n/a	n/a	n/a	n/a	n/a	n/a	n/a	n/a	n/a	n/a	n/a	n/a	n/a	n/a	n/a	fixation
65860.022774072015	2750	n/a	1359	71	2750	47.9772259279	stim	stop-signal	228	662806	0.0-13.13-1.13	beast_fmri_test	393	660084,/,660764,/,661443,/,662121,/,662799,/	t,t,t,t,t	<img class = center src='/static/experiments/beast_fmri_test/images/T.png'></img>	89,71	2750.0	test	<img class = center src='/static/experiments/beast_fmri_test/images/redT.png'></img>	go	2100.0	2.0	13.0	go	non-target	T	89,Middle Finger	71,Index Finger	800.0	650.0	1950.0	2100.0	1.0	n/a	650.0	1.0	go_stim
68610.022774072015	47.977225927941845	n/a	1359	71	2750	47.9772259279	stim	stop-signal	228	662806	0.0-13.13-1.13	beast_fmri_test	393	660084,/,660764,/,661443,/,662121,/,662799,/	t,t,t,t,t	<img class = center src='/static/experiments/beast_fmri_test/images/T.png'></img>	89,71	2750.0	test	<img class = center src='/static/experiments/beast_fmri_test/images/redT.png'></img>	go	2100.0	2.0	13.0	go	non-target	T	89,Middle Finger	71,Index Finger	800.0	650.0	1950.0	2100.0	1.0	n/a	650.0	1.0	ITI
69232	500	n/a	-1	-1	500	0.0	fixation	poldrack-single-stim	229	663380	0.0-13.14-0.14	beast_fmri_test	393	n/a	n/a	<div class = centerbox2><div class = fixation>+</div></div>	none	500.0	test	n/a	n/a	n/a	n/a	n/a	n/a	n/a	n/a	n/a	n/a	n/a	n/a	n/a	n/a	n/a	n/a	n/a	n/a	fixation
68111.279102936969	650.0	n/a	820	71	2750	1123.72089706	stim	stop-signal	230	666133	0.0-13.14-1.14	beast_fmri_test	393	663480,/,664160,/,664838,/,665519,/,666199,/,666880,/	t,t,t,t,t,t	<img class = center src='/static/experiments/beast_fmri_test/images/B.png'></img>	89,71	2750.0	test	<img class = center src='/static/experiments/beast_fmri_test/images/redB.png'></img>	stop	2100.0	2.0	14.0	stop	non-target	B	89,Middle Finger	71,Index Finger	800.0	650.0	1950.0	2100.0	0.0	0.0	650.0	n/a	go_stim
70211.279102936969	2100.0	n/a	820	71	2750	1123.72089706	stim	stop-signal	230	666133	0.0-13.14-1.14	beast_fmri_test	393	663480,/,664160,/,664838,/,665519,/,666199,/,666880,/	t,t,t,t,t,t	<img class = center src='/static/experiments/beast_fmri_test/images/B.png'></img>	89,71	2750.0	test	<img class = center src='/static/experiments/beast_fmri_test/images/redB.png'></img>	stop	2100.0	2.0	14.0	stop	non-target	B	89,Middle Finger	71,Index Finger	800.0	650.0	1950.0	2100.0	0.0	0.0	650.0	n/a	stop_stim
70861.279102936969	1123.7208970630529	n/a	820	71	2750	1123.72089706	stim	stop-signal	230	666133	0.0-13.14-1.14	beast_fmri_test	393	663480,/,664160,/,664838,/,665519,/,666199,/,666880,/	t,t,t,t,t,t	<img class = center src='/static/experiments/beast_fmri_test/images/B.png'></img>	89,71	2750.0	test	<img class = center src='/static/experiments/beast_fmri_test/images/redB.png'></img>	stop	2100.0	2.0	14.0	stop	non-target	B	89,Middle Finger	71,Index Finger	800.0	650.0	1950.0	2100.0	0.0	0.0	650.0	n/a	ITI
73635	500	n/a	-1	-1	500	0.0	fixation	poldrack-single-stim	231	667783	0.0-13.15-0.15	beast_fmri_test	393	667560,/	t	<div class = centerbox2><div class = fixation>+</div></div>	none	500.0	test	n/a	n/a	n/a	n/a	n/a	n/a	n/a	n/a	n/a	n/a	n/a	n/a	n/a	n/a	n/a	n/a	n/a	n/a	fixation
73517.396976145334	2750	n/a	1137	89	2750	121.603023855	stim	stop-signal	232	670537	0.0-13.15-1.15	beast_fmri_test	393	668240,/,668920,/,669600,/,670279,/	t,t,t,t	<img class = center src='/static/experiments/beast_fmri_test/images/T.png'></img>	89,71	2750.0	test	<img class = center src='/static/experiments/beast_fmri_test/images/redT.png'></img>	go	1950.0	2.0	15.0	go	target	T	89,Middle Finger	71,Index Finger	800.0	600.0	1950.0	2100.0	1.0	n/a	800.0	1.0	go_stim
76267.396976145334	121.60302385469031	n/a	1137	89	2750	121.603023855	stim	stop-signal	232	670537	0.0-13.15-1.15	beast_fmri_test	393	668240,/,668920,/,669600,/,670279,/	t,t,t,t	<img class = center src='/static/experiments/beast_fmri_test/images/T.png'></img>	89,71	2750.0	test	<img class = center src='/static/experiments/beast_fmri_test/images/redT.png'></img>	go	1950.0	2.0	15.0	go	target	T	89,Middle Finger	71,Index Finger	800.0	600.0	1950.0	2100.0	1.0	n/a	800.0	1.0	ITI
77039	500	n/a	-1	-1	500	0.0	fixation	poldrack-single-stim	233	671187	0.0-13.16-0.16	beast_fmri_test	393	670960,/	t	<div class = centerbox2><div class = fixation>+</div></div>	none	500.0	test	n/a	n/a	n/a	n/a	n/a	n/a	n/a	n/a	n/a	n/a	n/a	n/a	n/a	n/a	n/a	n/a	n/a	n/a	fixation
76237.472730929847	2750	n/a	855	71	2750	799.52726907	stim	stop-signal	234	673935	0.0-13.16-1.16	beast_fmri_test	393	671639,/,672316,/,672994,/,673674,/,674355,/	t,t,t,t,t	<img class = center src='/static/experiments/beast_fmri_test/images/D.png'></img>	89,71	2750.0	test	<img class = center src='/static/experiments/beast_fmri_test/images/redD.png'></img>	go	2150.0	2.0	16.0	go	non-target	D	89,Middle Finger	71,Index Finger	800.0	600.0	1950.0	2150.0	1.0	n/a	600.0	1.0	go_stim
78987.472730929847	799.5272690701961	n/a	855	71	2750	799.52726907	stim	stop-signal	234	673935	0.0-13.16-1.16	beast_fmri_test	393	671639,/,672316,/,672994,/,673674,/,674355,/	t,t,t,t,t	<img class = center src='/static/experiments/beast_fmri_test/images/D.png'></img>	89,71	2750.0	test	<img class = center src='/static/experiments/beast_fmri_test/images/redD.png'></img>	go	2150.0	2.0	16.0	go	non-target	D	89,Middle Finger	71,Index Finger	800.0	600.0	1950.0	2150.0	1.0	n/a	600.0	1.0	ITI
81112	500	n/a	-1	-1	500	0.0	fixation	poldrack-single-stim	235	675260	0.0-13.17-0.17	beast_fmri_test	393	675035,/	t	<div class = centerbox2><div class = fixation>+</div></div>	none	500.0	test	n/a	n/a	n/a	n/a	n/a	n/a	n/a	n/a	n/a	n/a	n/a	n/a	n/a	n/a	n/a	n/a	n/a	n/a	fixation
79617.656272476772	2750	n/a	733	71	2750	1497.34372752	stim	stop-signal	236	678013	0.0-13.17-1.17	beast_fmri_test	393	675715,/,676394,/,677074,/,677754,/,678434,/,679114,/	t,t,t,t,t,t	<img class = center src='/static/experiments/beast_fmri_test/images/B.png'></img>	89,71	2750.0	test	<img class = center src='/static/experiments/beast_fmri_test/images/redB.png'></img>	go	2150.0	2.0	17.0	go	non-target	B	89,Middle Finger	71,Index Finger	800.0	600.0	1950.0	2150.0	1.0	n/a	600.0	1.0	go_stim
82367.656272476772	1497.3437275232775	n/a	733	71	2750	1497.34372752	stim	stop-signal	236	678013	0.0-13.17-1.17	beast_fmri_test	393	675715,/,676394,/,677074,/,677754,/,678434,/,679114,/	t,t,t,t,t,t	<img class = center src='/static/experiments/beast_fmri_test/images/B.png'></img>	89,71	2750.0	test	<img class = center src='/static/experiments/beast_fmri_test/images/redB.png'></img>	go	2150.0	2.0	17.0	go	non-target	B	89,Middle Finger	71,Index Finger	800.0	600.0	1950.0	2150.0	1.0	n/a	600.0	1.0	ITI
85889	500	n/a	-1	-1	500	0.0	fixation	poldrack-single-stim	237	680037	0.0-13.18-0.18	beast_fmri_test	393	679794,/	t	<div class = centerbox2><div class = fixation>+</div></div>	none	500.0	test	n/a	n/a	n/a	n/a	n/a	n/a	n/a	n/a	n/a	n/a	n/a	n/a	n/a	n/a	n/a	n/a	n/a	n/a	fixation
85332.160118318512	800.0	n/a	578	89	2750	553.839881681	stim	stop-signal	238	682784	0.0-13.18-1.18	beast_fmri_test	393	680475,/,681154,/,681832,/,682510,/,683189,/	t,t,t,t,t	<img class = center src='/static/experiments/beast_fmri_test/images/D.png'></img>	89,71	2750.0	test	<img class = center src='/static/experiments/beast_fmri_test/images/redD.png'></img>	stop	1950.0	2.0	18.0	stop	target	D	89,Middle Finger	71,Index Finger	800.0	600.0	1950.0	2150.0	0.0	0.0	800.0	n/a	go_stim
87282.160118318512	1950.0	n/a	578	89	2750	553.839881681	stim	stop-signal	238	682784	0.0-13.18-1.18	beast_fmri_test	393	680475,/,681154,/,681832,/,682510,/,683189,/	t,t,t,t,t	<img class = center src='/static/experiments/beast_fmri_test/images/D.png'></img>	89,71	2750.0	test	<img class = center src='/static/experiments/beast_fmri_test/images/redD.png'></img>	stop	1950.0	2.0	18.0	stop	target	D	89,Middle Finger	71,Index Finger	800.0	600.0	1950.0	2150.0	0.0	0.0	800.0	n/a	stop_stim
88082.160118318512	553.83988168146311	n/a	578	89	2750	553.839881681	stim	stop-signal	238	682784	0.0-13.18-1.18	beast_fmri_test	393	680475,/,681154,/,681832,/,682510,/,683189,/	t,t,t,t,t	<img class = center src='/static/experiments/beast_fmri_test/images/D.png'></img>	89,71	2750.0	test	<img class = center src='/static/experiments/beast_fmri_test/images/redD.png'></img>	stop	1950.0	2.0	18.0	stop	target	D	89,Middle Finger	71,Index Finger	800.0	600.0	1950.0	2150.0	0.0	0.0	800.0	n/a	ITI
89716	500	n/a	-1	-1	500	0.0	fixation	poldrack-single-stim	239	683864	0.0-13.19-0.19	beast_fmri_test	393	n/a	n/a	<div class = centerbox2><div class = fixation>+</div></div>	none	500.0	test	n/a	n/a	n/a	n/a	n/a	n/a	n/a	n/a	n/a	n/a	n/a	n/a	n/a	n/a	n/a	n/a	n/a	n/a	fixation
89173.507276012679	750.0	n/a	-1	-1	2750	545.492723987	stim	stop-signal	240	686617	0.0-13.19-1.19	beast_fmri_test	393	683869,/,684550,/,685230,/,685910,/,686590,/	t,t,t,t,t	<img class = center src='/static/experiments/beast_fmri_test/images/B.png'></img>	89,71	2750.0	test	<img class = center src='/static/experiments/beast_fmri_test/images/redB.png'></img>	stop	2000.0	2.0	19.0	stop	target	B	89,Middle Finger	71,Index Finger	750.0	600.0	2000.0	2150.0	0.0	1.0	750.0	n/a	go_stim
91173.507276012679	2000.0	n/a	-1	-1	2750	545.492723987	stim	stop-signal	240	686617	0.0-13.19-1.19	beast_fmri_test	393	683869,/,684550,/,685230,/,685910,/,686590,/	t,t,t,t,t	<img class = center src='/static/experiments/beast_fmri_test/images/B.png'></img>	89,71	2750.0	test	<img class = center src='/static/experiments/beast_fmri_test/images/redB.png'></img>	stop	2000.0	2.0	19.0	stop	target	B	89,Middle Finger	71,Index Finger	750.0	600.0	2000.0	2150.0	0.0	1.0	750.0	n/a	stop_stim
91923.507276012679	545.49272398733638	n/a	-1	-1	2750	545.492723987	stim	stop-signal	240	686617	0.0-13.19-1.19	beast_fmri_test	393	683869,/,684550,/,685230,/,685910,/,686590,/	t,t,t,t,t	<img class = center src='/static/experiments/beast_fmri_test/images/B.png'></img>	89,71	2750.0	test	<img class = center src='/static/experiments/beast_fmri_test/images/redB.png'></img>	stop	2000.0	2.0	19.0	stop	target	B	89,Middle Finger	71,Index Finger	750.0	600.0	2000.0	2150.0	0.0	1.0	750.0	n/a	ITI
93542	500	n/a	-1	-1	500	0.0	fixation	poldrack-single-stim	241	687690	0.0-13.20-0.20	beast_fmri_test	393	687269,/	t	<div class = centerbox2><div class = fixation>+</div></div>	none	500.0	test	n/a	n/a	n/a	n/a	n/a	n/a	n/a	n/a	n/a	n/a	n/a	n/a	n/a	n/a	n/a	n/a	n/a	n/a	fixation
93468.650801665965	2750	n/a	1310	71	2750	77.3491983341	stim	stop-signal	242	690444	0.0-13.20-1.20	beast_fmri_test	393	687950,/,688630,/,689309,/,689989,/	t,t,t,t	<img class = center src='/static/experiments/beast_fmri_test/images/B.png'></img>	89,71	2750.0	test	<img class = center src='/static/experiments/beast_fmri_test/images/redB.png'></img>	go	2150.0	2.0	20.0	go	non-target	B	89,Middle Finger	71,Index Finger	800.0	600.0	2000.0	2150.0	1.0	n/a	600.0	1.0	go_stim
96218.650801665965	77.349198334085827	n/a	1310	71	2750	77.3491983341	stim	stop-signal	242	690444	0.0-13.20-1.20	beast_fmri_test	393	687950,/,688630,/,689309,/,689989,/	t,t,t,t	<img class = center src='/static/experiments/beast_fmri_test/images/B.png'></img>	89,71	2750.0	test	<img class = center src='/static/experiments/beast_fmri_test/images/redB.png'></img>	go	2150.0	2.0	20.0	go	non-target	B	89,Middle Finger	71,Index Finger	800.0	600.0	2000.0	2150.0	1.0	n/a	600.0	1.0	ITI
96897	500	n/a	-1	-1	500	0.0	fixation	poldrack-single-stim	243	691045	0.0-13.21-0.21	beast_fmri_test	393	690670,/	t	<div class = centerbox2><div class = fixation>+</div></div>	none	500.0	test	n/a	n/a	n/a	n/a	n/a	n/a	n/a	n/a	n/a	n/a	n/a	n/a	n/a	n/a	n/a	n/a	n/a	n/a	fixation
96674.465833060094	800.0	n/a	881	89	2750	220.53416694	stim	stop-signal	244	693793	0.0-13.21-1.21	beast_fmri_test	393	691349,/,692028,/,692706,/,693385,/	t,t,t,t	<img class = center src='/static/experiments/beast_fmri_test/images/B.png'></img>	89,71	2750.0	test	<img class = center src='/static/experiments/beast_fmri_test/images/redB.png'></img>	stop	1950.0	2.0	21.0	stop	target	B	89,Middle Finger	71,Index Finger	800.0	600.0	1950.0	2150.0	0.0	0.0	800.0	n/a	go_stim
98624.465833060094	1950.0	n/a	881	89	2750	220.53416694	stim	stop-signal	244	693793	0.0-13.21-1.21	beast_fmri_test	393	691349,/,692028,/,692706,/,693385,/	t,t,t,t	<img class = center src='/static/experiments/beast_fmri_test/images/B.png'></img>	89,71	2750.0	test	<img class = center src='/static/experiments/beast_fmri_test/images/redB.png'></img>	stop	1950.0	2.0	21.0	stop	target	B	89,Middle Finger	71,Index Finger	800.0	600.0	1950.0	2150.0	0.0	0.0	800.0	n/a	stop_stim
99424.465833060094	220.5341669398681	n/a	881	89	2750	220.53416694	stim	stop-signal	244	693793	0.0-13.21-1.21	beast_fmri_test	393	691349,/,692028,/,692706,/,693385,/	t,t,t,t	<img class = center src='/static/experiments/beast_fmri_test/images/B.png'></img>	89,71	2750.0	test	<img class = center src='/static/experiments/beast_fmri_test/images/redB.png'></img>	stop	1950.0	2.0	21.0	stop	target	B	89,Middle Finger	71,Index Finger	800.0	600.0	1950.0	2150.0	0.0	0.0	800.0	n/a	ITI
100393	500	n/a	-1	-1	500	0.0	fixation	poldrack-single-stim	245	694541	0.0-13.22-0.22	beast_fmri_test	393	694064,/	t	<div class = centerbox2><div class = fixation>+</div></div>	none	500.0	test	n/a	n/a	n/a	n/a	n/a	n/a	n/a	n/a	n/a	n/a	n/a	n/a	n/a	n/a	n/a	n/a	n/a	n/a	fixation
99720.396816053195	600.0	n/a	767	71	2750	675.603183947	stim	stop-signal	246	697294	0.0-13.22-1.22	beast_fmri_test	393	694746,/,695425,/,696105,/,696785,/,697466,/	t,t,t,t,t	<img class = center src='/static/experiments/beast_fmri_test/images/D.png'></img>	89,71	2750.0	test	<img class = center src='/static/experiments/beast_fmri_test/images/redD.png'></img>	stop	2150.0	2.0	22.0	stop	non-target	D	89,Middle Finger	71,Index Finger	750.0	600.0	1950.0	2150.0	0.0	0.0	600.0	n/a	go_stim
101870.39681605319	2150.0	n/a	767	71	2750	675.603183947	stim	stop-signal	246	697294	0.0-13.22-1.22	beast_fmri_test	393	694746,/,695425,/,696105,/,696785,/,697466,/	t,t,t,t,t	<img class = center src='/static/experiments/beast_fmri_test/images/D.png'></img>	89,71	2750.0	test	<img class = center src='/static/experiments/beast_fmri_test/images/redD.png'></img>	stop	2150.0	2.0	22.0	stop	non-target	D	89,Middle Finger	71,Index Finger	750.0	600.0	1950.0	2150.0	0.0	0.0	600.0	n/a	stop_stim
102470.39681605319	675.60318394684828	n/a	767	71	2750	675.603183947	stim	stop-signal	246	697294	0.0-13.22-1.22	beast_fmri_test	393	694746,/,695425,/,696105,/,696785,/,697466,/	t,t,t,t,t	<img class = center src='/static/experiments/beast_fmri_test/images/D.png'></img>	89,71	2750.0	test	<img class = center src='/static/experiments/beast_fmri_test/images/redD.png'></img>	stop	2150.0	2.0	22.0	stop	non-target	D	89,Middle Finger	71,Index Finger	750.0	600.0	1950.0	2150.0	0.0	0.0	600.0	n/a	ITI
104348	500	n/a	-1	-1	500	0.0	fixation	poldrack-single-stim	247	698496	0.0-13.23-0.23	beast_fmri_test	393	698146,/	t	<div class = centerbox2><div class = fixation>+</div></div>	none	500.0	test	n/a	n/a	n/a	n/a	n/a	n/a	n/a	n/a	n/a	n/a	n/a	n/a	n/a	n/a	n/a	n/a	n/a	n/a	fixation
104067.01887223707	550.0	n/a	-1	-1	2750	284.981127763	stim	stop-signal	248	701250	0.0-13.23-1.23	beast_fmri_test	393	698826,/,699505,/,700186,/,700864,/	t,t,t,t	<img class = center src='/static/experiments/beast_fmri_test/images/P.png'></img>	89,71	2750.0	test	<img class = center src='/static/experiments/beast_fmri_test/images/redP.png'></img>	stop	2200.0	2.0	23.0	stop	non-target	P	89,Middle Finger	71,Index Finger	750.0	550.0	1950.0	2200.0	0.0	1.0	550.0	n/a	go_stim
106267.01887223707	2200.0	n/a	-1	-1	2750	284.981127763	stim	stop-signal	248	701250	0.0-13.23-1.23	beast_fmri_test	393	698826,/,699505,/,700186,/,700864,/	t,t,t,t	<img class = center src='/static/experiments/beast_fmri_test/images/P.png'></img>	89,71	2750.0	test	<img class = center src='/static/experiments/beast_fmri_test/images/redP.png'></img>	stop	2200.0	2.0	23.0	stop	non-target	P	89,Middle Finger	71,Index Finger	750.0	550.0	1950.0	2200.0	0.0	1.0	550.0	n/a	stop_stim
106817.01887223707	284.98112776299058	n/a	-1	-1	2750	284.981127763	stim	stop-signal	248	701250	0.0-13.23-1.23	beast_fmri_test	393	698826,/,699505,/,700186,/,700864,/	t,t,t,t	<img class = center src='/static/experiments/beast_fmri_test/images/P.png'></img>	89,71	2750.0	test	<img class = center src='/static/experiments/beast_fmri_test/images/redP.png'></img>	stop	2200.0	2.0	23.0	stop	non-target	P	89,Middle Finger	71,Index Finger	750.0	550.0	1950.0	2200.0	0.0	1.0	550.0	n/a	ITI
107913	500	n/a	-1	-1	500	0.0	fixation	poldrack-single-stim	249	702061	0.0-13.24-0.24	beast_fmri_test	393	701561,/	t	<div class = centerbox2><div class = fixation>+</div></div>	none	500.0	test	n/a	n/a	n/a	n/a	n/a	n/a	n/a	n/a	n/a	n/a	n/a	n/a	n/a	n/a	n/a	n/a	n/a	n/a	fixation
105671.29438903206	600.0	n/a	-1	-1	2750	2241.70561097	stim	stop-signal	250	704811	0.0-13.24-1.24	beast_fmri_test	393	702223,/,702901,/,703581,/,704261,/,704940,/,705620,/,706300,/,706980,/	t,t,t,t,t,t,t,t	<img class = center src='/static/experiments/beast_fmri_test/images/T.png'></img>	89,71	2750.0	test	<img class = center src='/static/experiments/beast_fmri_test/images/redT.png'></img>	stop	2150.0	2.0	24.0	stop	non-target	T	89,Middle Finger	71,Index Finger	750.0	600.0	1950.0	2150.0	0.0	1.0	600.0	n/a	go_stim
107821.29438903206	2150.0	n/a	-1	-1	2750	2241.70561097	stim	stop-signal	250	704811	0.0-13.24-1.24	beast_fmri_test	393	702223,/,702901,/,703581,/,704261,/,704940,/,705620,/,706300,/,706980,/	t,t,t,t,t,t,t,t	<img class = center src='/static/experiments/beast_fmri_test/images/T.png'></img>	89,71	2750.0	test	<img class = center src='/static/experiments/beast_fmri_test/images/redT.png'></img>	stop	2150.0	2.0	24.0	stop	non-target	T	89,Middle Finger	71,Index Finger	750.0	600.0	1950.0	2150.0	0.0	1.0	600.0	n/a	stop_stim
108421.29438903206	2241.7056109678933	n/a	-1	-1	2750	2241.70561097	stim	stop-signal	250	704811	0.0-13.24-1.24	beast_fmri_test	393	702223,/,702901,/,703581,/,704261,/,704940,/,705620,/,706300,/,706980,/	t,t,t,t,t,t,t,t	<img class = center src='/static/experiments/beast_fmri_test/images/T.png'></img>	89,71	2750.0	test	<img class = center src='/static/experiments/beast_fmri_test/images/redT.png'></img>	stop	2150.0	2.0	24.0	stop	non-target	T	89,Middle Finger	71,Index Finger	750.0	600.0	1950.0	2150.0	0.0	1.0	600.0	n/a	ITI
113432	500	n/a	-1	-1	500	0.0	fixation	poldrack-single-stim	251	707580	0.0-13.25-0.25	beast_fmri_test	393	n/a	n/a	<div class = centerbox2><div class = fixation>+</div></div>	none	500.0	test	n/a	n/a	n/a	n/a	n/a	n/a	n/a	n/a	n/a	n/a	n/a	n/a	n/a	n/a	n/a	n/a	n/a	n/a	fixation
111658.8353317338	2750	n/a	564	89	2750	1777.16466827	stim	stop-signal	252	710334	0.0-13.25-1.25	beast_fmri_test	393	707661,/,708340,/,709020,/,709700,/,710379,/,711060,/,711740,/	t,t,t,t,t,t,t	<img class = center src='/static/experiments/beast_fmri_test/images/P.png'></img>	89,71	2750.0	test	<img class = center src='/static/experiments/beast_fmri_test/images/redP.png'></img>	go	2000.0	2.0	25.0	go	target	P	89,Middle Finger	71,Index Finger	750.0	650.0	2000.0	2150.0	1.0	n/a	750.0	1.0	go_stim
114408.8353317338	1777.1646682661551	n/a	564	89	2750	1777.16466827	stim	stop-signal	252	710334	0.0-13.25-1.25	beast_fmri_test	393	707661,/,708340,/,709020,/,709700,/,710379,/,711060,/,711740,/	t,t,t,t,t,t,t	<img class = center src='/static/experiments/beast_fmri_test/images/P.png'></img>	89,71	2750.0	test	<img class = center src='/static/experiments/beast_fmri_test/images/redP.png'></img>	go	2000.0	2.0	25.0	go	target	P	89,Middle Finger	71,Index Finger	750.0	650.0	2000.0	2150.0	1.0	n/a	750.0	1.0	ITI
118490	500	n/a	-1	-1	500	0.0	fixation	poldrack-single-stim	253	712638	0.0-13.26-0.26	beast_fmri_test	393	712421,/	t	<div class = centerbox2><div class = fixation>+</div></div>	none	500.0	test	n/a	n/a	n/a	n/a	n/a	n/a	n/a	n/a	n/a	n/a	n/a	n/a	n/a	n/a	n/a	n/a	n/a	n/a	fixation
116640.61000958073	2750	n/a	685	71	2750	1853.38999042	stim	stop-signal	254	715392	0.0-13.26-1.26	beast_fmri_test	393	713101,/,713780,/,714461,/,715140,/,715820,/,716501,/,717181,/	t,t,t,t,t,t,t	<img class = center src='/static/experiments/beast_fmri_test/images/V.png'></img>	89,71	2750.0	test	<img class = center src='/static/experiments/beast_fmri_test/images/redV.png'></img>	go	2100.0	2.0	26.0	go	non-target	V	89,Middle Finger	71,Index Finger	750.0	650.0	2000.0	2100.0	1.0	n/a	650.0	1.0	go_stim
119390.61000958073	1853.3899904192401	n/a	685	71	2750	1853.38999042	stim	stop-signal	254	715392	0.0-13.26-1.26	beast_fmri_test	393	713101,/,713780,/,714461,/,715140,/,715820,/,716501,/,717181,/	t,t,t,t,t,t,t	<img class = center src='/static/experiments/beast_fmri_test/images/V.png'></img>	89,71	2750.0	test	<img class = center src='/static/experiments/beast_fmri_test/images/redV.png'></img>	go	2100.0	2.0	26.0	go	non-target	V	89,Middle Finger	71,Index Finger	750.0	650.0	2000.0	2100.0	1.0	n/a	650.0	1.0	ITI
123625	500	n/a	-1	-1	500	0.0	fixation	poldrack-single-stim	255	717773	0.0-13.27-0.27	beast_fmri_test	393	n/a	n/a	<div class = centerbox2><div class = fixation>+</div></div>	none	500.0	test	n/a	n/a	n/a	n/a	n/a	n/a	n/a	n/a	n/a	n/a	n/a	n/a	n/a	n/a	n/a	n/a	n/a	n/a	fixation
122874.6870906715	2750	n/a	952	71	2750	754.312909328	stim	stop-signal	256	720527	0.0-13.27-1.27	beast_fmri_test	393	717861,/,718541,/,719221,/,719900,/,720581,/,721262,/	t,t,t,t,t,t	<img class = center src='/static/experiments/beast_fmri_test/images/V.png'></img>	89,71	2750.0	test	<img class = center src='/static/experiments/beast_fmri_test/images/redV.png'></img>	go	2100.0	2.0	27.0	go	non-target	V	89,Middle Finger	71,Index Finger	750.0	650.0	2000.0	2100.0	1.0	n/a	650.0	1.0	go_stim
125624.6870906715	754.31290932845525	n/a	952	71	2750	754.312909328	stim	stop-signal	256	720527	0.0-13.27-1.27	beast_fmri_test	393	717861,/,718541,/,719221,/,719900,/,720581,/,721262,/	t,t,t,t,t,t	<img class = center src='/static/experiments/beast_fmri_test/images/V.png'></img>	89,71	2750.0	test	<img class = center src='/static/experiments/beast_fmri_test/images/redV.png'></img>	go	2100.0	2.0	27.0	go	non-target	V	89,Middle Finger	71,Index Finger	750.0	650.0	2000.0	2100.0	1.0	n/a	650.0	1.0	ITI
127658	500	n/a	-1	-1	500	0.0	fixation	poldrack-single-stim	257	721806	0.0-13.28-0.28	beast_fmri_test	393	n/a	n/a	<div class = centerbox2><div class = fixation>+</div></div>	none	500.0	test	n/a	n/a	n/a	n/a	n/a	n/a	n/a	n/a	n/a	n/a	n/a	n/a	n/a	n/a	n/a	n/a	n/a	n/a	fixation
125273.71295873763	2750	n/a	1813	71	2750	2384.28704126	stim	stop-signal	258	724556	0.0-13.28-1.28	beast_fmri_test	393	721940,/,722617,/,723297,/,723977,/,724656,/,725336,/,726017,/,726696,/	t,t,t,t,t,t,t,t	<img class = center src='/static/experiments/beast_fmri_test/images/T.png'></img>	89,71	2750.0	test	<img class = center src='/static/experiments/beast_fmri_test/images/redT.png'></img>	go	2100.0	2.0	28.0	go	non-target	T	89,Middle Finger	71,Index Finger	750.0	650.0	2000.0	2100.0	1.0	n/a	650.0	1.0	go_stim
128023.71295873763	2384.2870412624129	n/a	1813	71	2750	2384.28704126	stim	stop-signal	258	724556	0.0-13.28-1.28	beast_fmri_test	393	721940,/,722617,/,723297,/,723977,/,724656,/,725336,/,726017,/,726696,/	t,t,t,t,t,t,t,t	<img class = center src='/static/experiments/beast_fmri_test/images/T.png'></img>	89,71	2750.0	test	<img class = center src='/static/experiments/beast_fmri_test/images/redT.png'></img>	go	2100.0	2.0	28.0	go	non-target	T	89,Middle Finger	71,Index Finger	750.0	650.0	2000.0	2100.0	1.0	n/a	650.0	1.0	ITI
133322	500	n/a	-1	-1	500	0.0	fixation	poldrack-single-stim	259	727470	0.0-13.29-0.29	beast_fmri_test	393	727377,/	t	<div class = centerbox2><div class = fixation>+</div></div>	none	500.0	test	n/a	n/a	n/a	n/a	n/a	n/a	n/a	n/a	n/a	n/a	n/a	n/a	n/a	n/a	n/a	n/a	n/a	n/a	fixation
133170.41966621182	650.0	n/a	633	71	2750	155.580333788	stim	stop-signal	260	730224	0.0-13.29-1.29	beast_fmri_test	393	728057,/,728736,/,729416,/,730096,/	t,t,t,t	<img class = center src='/static/experiments/beast_fmri_test/images/D.png'></img>	89,71	2750.0	test	<img class = center src='/static/experiments/beast_fmri_test/images/redD.png'></img>	stop	2100.0	2.0	29.0	stop	non-target	D	89,Middle Finger	71,Index Finger	750.0	650.0	2000.0	2100.0	0.0	0.0	650.0	n/a	go_stim
135270.41966621182	2100.0	n/a	633	71	2750	155.580333788	stim	stop-signal	260	730224	0.0-13.29-1.29	beast_fmri_test	393	728057,/,728736,/,729416,/,730096,/	t,t,t,t	<img class = center src='/static/experiments/beast_fmri_test/images/D.png'></img>	89,71	2750.0	test	<img class = center src='/static/experiments/beast_fmri_test/images/redD.png'></img>	stop	2100.0	2.0	29.0	stop	non-target	D	89,Middle Finger	71,Index Finger	750.0	650.0	2000.0	2100.0	0.0	0.0	650.0	n/a	stop_stim
135920.41966621182	155.58033378815213	n/a	633	71	2750	155.580333788	stim	stop-signal	260	730224	0.0-13.29-1.29	beast_fmri_test	393	728057,/,728736,/,729416,/,730096,/	t,t,t,t	<img class = center src='/static/experiments/beast_fmri_test/images/D.png'></img>	89,71	2750.0	test	<img class = center src='/static/experiments/beast_fmri_test/images/redD.png'></img>	stop	2100.0	2.0	29.0	stop	non-target	D	89,Middle Finger	71,Index Finger	750.0	650.0	2000.0	2100.0	0.0	0.0	650.0	n/a	ITI
136760	500	n/a	-1	-1	500	0.0	fixation	poldrack-single-stim	261	730908	0.0-13.30-0.30	beast_fmri_test	393	730777,/	t	<div class = centerbox2><div class = fixation>+</div></div>	none	500.0	test	n/a	n/a	n/a	n/a	n/a	n/a	n/a	n/a	n/a	n/a	n/a	n/a	n/a	n/a	n/a	n/a	n/a	n/a	fixation
135445.95054359559	2750	n/a	944	89	2750	1312.0494564	stim	stop-signal	262	733656	0.0-13.30-1.30	beast_fmri_test	393	731457,/,732134,/,732811,/,733491,/,734171,/,734852,/	t,t,t,t,t,t	<img class = center src='/static/experiments/beast_fmri_test/images/T.png'></img>	89,71	2750.0	test	<img class = center src='/static/experiments/beast_fmri_test/images/redT.png'></img>	go	2000.0	2.0	30.0	go	target	T	89,Middle Finger	71,Index Finger	750.0	600.0	2000.0	2100.0	1.0	n/a	750.0	1.0	go_stim
138195.95054359559	1312.0494564043966	n/a	944	89	2750	1312.0494564	stim	stop-signal	262	733656	0.0-13.30-1.30	beast_fmri_test	393	731457,/,732134,/,732811,/,733491,/,734171,/,734852,/	t,t,t,t,t,t	<img class = center src='/static/experiments/beast_fmri_test/images/T.png'></img>	89,71	2750.0	test	<img class = center src='/static/experiments/beast_fmri_test/images/redT.png'></img>	go	2000.0	2.0	30.0	go	target	T	89,Middle Finger	71,Index Finger	750.0	600.0	2000.0	2100.0	1.0	n/a	750.0	1.0	ITI
141348	500	n/a	-1	-1	500	0.0	fixation	poldrack-single-stim	263	735496	0.0-13.31-0.31	beast_fmri_test	393	n/a	n/a	<div class = centerbox2><div class = fixation>+</div></div>	none	500.0	test	n/a	n/a	n/a	n/a	n/a	n/a	n/a	n/a	n/a	n/a	n/a	n/a	n/a	n/a	n/a	n/a	n/a	n/a	fixation
141281.39697600913	2750	n/a	1215	89	2750	70.6030239908	stim	stop-signal	264	738250	0.0-13.31-1.31	beast_fmri_test	393	735530,/,736211,/,736891,/,737571,/,738251,/	t,t,t,t,t	<img class = center src='/static/experiments/beast_fmri_test/images/D.png'></img>	89,71	2750.0	test	<img class = center src='/static/experiments/beast_fmri_test/images/redD.png'></img>	go	2000.0	2.0	31.0	go	target	D	89,Middle Finger	71,Index Finger	750.0	600.0	2000.0	2100.0	1.0	n/a	750.0	1.0	go_stim
144031.39697600913	70.603023990818016	n/a	1215	89	2750	70.6030239908	stim	stop-signal	264	738250	0.0-13.31-1.31	beast_fmri_test	393	735530,/,736211,/,736891,/,737571,/,738251,/	t,t,t,t,t	<img class = center src='/static/experiments/beast_fmri_test/images/D.png'></img>	89,71	2750.0	test	<img class = center src='/static/experiments/beast_fmri_test/images/redD.png'></img>	go	2000.0	2.0	31.0	go	target	D	89,Middle Finger	71,Index Finger	750.0	600.0	2000.0	2100.0	1.0	n/a	750.0	1.0	ITI
144702	500	n/a	-1	-1	500	0.0	fixation	poldrack-single-stim	265	738850	0.0-13.32-0.32	beast_fmri_test	393	n/a	n/a	<div class = centerbox2><div class = fixation>+</div></div>	none	500.0	test	n/a	n/a	n/a	n/a	n/a	n/a	n/a	n/a	n/a	n/a	n/a	n/a	n/a	n/a	n/a	n/a	n/a	n/a	fixation
144548.4344568837	2750	n/a	727	89	2750	155.565543116	stim	stop-signal	266	741602	0.0-13.32-1.32	beast_fmri_test	393	738931,/,739611,/,740291,/,740971,/,741651,/	t,t,t,t,t	<img class = center src='/static/experiments/beast_fmri_test/images/T.png'></img>	89,71	2750.0	test	<img class = center src='/static/experiments/beast_fmri_test/images/redT.png'></img>	go	2000.0	2.0	32.0	go	target	T	89,Middle Finger	71,Index Finger	750.0	600.0	2000.0	2100.0	1.0	n/a	750.0	1.0	go_stim
147298.4344568837	155.56554311625862	n/a	727	89	2750	155.565543116	stim	stop-signal	266	741602	0.0-13.32-1.32	beast_fmri_test	393	738931,/,739611,/,740291,/,740971,/,741651,/	t,t,t,t,t	<img class = center src='/static/experiments/beast_fmri_test/images/T.png'></img>	89,71	2750.0	test	<img class = center src='/static/experiments/beast_fmri_test/images/redT.png'></img>	go	2000.0	2.0	32.0	go	target	T	89,Middle Finger	71,Index Finger	750.0	600.0	2000.0	2100.0	1.0	n/a	750.0	1.0	ITI
148136	500	n/a	-1	-1	500	0.0	fixation	poldrack-single-stim	267	742284	0.0-13.33-0.33	beast_fmri_test	393	n/a	n/a	<div class = centerbox2><div class = fixation>+</div></div>	none	500.0	test	n/a	n/a	n/a	n/a	n/a	n/a	n/a	n/a	n/a	n/a	n/a	n/a	n/a	n/a	n/a	n/a	n/a	n/a	fixation
147645.99071725248	750.0	n/a	759	89	2750	492.009282748	stim	stop-signal	268	745036	0.0-13.33-1.33	beast_fmri_test	393	742327,/,743006,/,743686,/,744366,/,745047,/	t,t,t,t,t	<img class = center src='/static/experiments/beast_fmri_test/images/D.png'></img>	89,71	2750.0	test	<img class = center src='/static/experiments/beast_fmri_test/images/redD.png'></img>	stop	2000.0	2.0	33.0	stop	target	D	89,Middle Finger	71,Index Finger	750.0	600.0	2000.0	2100.0	0.0	0.0	750.0	n/a	go_stim
149645.99071725248	2000.0	n/a	759	89	2750	492.009282748	stim	stop-signal	268	745036	0.0-13.33-1.33	beast_fmri_test	393	742327,/,743006,/,743686,/,744366,/,745047,/	t,t,t,t,t	<img class = center src='/static/experiments/beast_fmri_test/images/D.png'></img>	89,71	2750.0	test	<img class = center src='/static/experiments/beast_fmri_test/images/redD.png'></img>	stop	2000.0	2.0	33.0	stop	target	D	89,Middle Finger	71,Index Finger	750.0	600.0	2000.0	2100.0	0.0	0.0	750.0	n/a	stop_stim
150395.99071725248	492.00928274756654	n/a	759	89	2750	492.009282748	stim	stop-signal	268	745036	0.0-13.33-1.33	beast_fmri_test	393	742327,/,743006,/,743686,/,744366,/,745047,/	t,t,t,t,t	<img class = center src='/static/experiments/beast_fmri_test/images/D.png'></img>	89,71	2750.0	test	<img class = center src='/static/experiments/beast_fmri_test/images/redD.png'></img>	stop	2000.0	2.0	33.0	stop	target	D	89,Middle Finger	71,Index Finger	750.0	600.0	2000.0	2100.0	0.0	0.0	750.0	n/a	ITI
151910	500	n/a	-1	-1	500	0.0	fixation	poldrack-single-stim	269	746058	0.0-13.34-0.34	beast_fmri_test	393	745727,/	t	<div class = centerbox2><div class = fixation>+</div></div>	none	500.0	test	n/a	n/a	n/a	n/a	n/a	n/a	n/a	n/a	n/a	n/a	n/a	n/a	n/a	n/a	n/a	n/a	n/a	n/a	fixation
150260.89203114167	2750	n/a	663	71	2750	1652.10796886	stim	stop-signal	270	748811	0.0-13.34-1.34	beast_fmri_test	393	746407,/,747086,/,747766,/,748447,/,749128,/,749807,/	t,t,t,t,t,t	<img class = center src='/static/experiments/beast_fmri_test/images/P.png'></img>	89,71	2750.0	test	<img class = center src='/static/experiments/beast_fmri_test/images/redP.png'></img>	go	2150.0	2.0	34.0	go	non-target	P	89,Middle Finger	71,Index Finger	700.0	600.0	2000.0	2150.0	1.0	n/a	600.0	1.0	go_stim
153010.89203114167	1652.1079688583495	n/a	663	71	2750	1652.10796886	stim	stop-signal	270	748811	0.0-13.34-1.34	beast_fmri_test	393	746407,/,747086,/,747766,/,748447,/,749128,/,749807,/	t,t,t,t,t,t	<img class = center src='/static/experiments/beast_fmri_test/images/P.png'></img>	89,71	2750.0	test	<img class = center src='/static/experiments/beast_fmri_test/images/redP.png'></img>	go	2150.0	2.0	34.0	go	non-target	P	89,Middle Finger	71,Index Finger	700.0	600.0	2000.0	2150.0	1.0	n/a	600.0	1.0	ITI
157411	500	n/a	-1	-1	500	0.0	fixation	poldrack-single-stim	271	751559	0.0-13.35-0.35	beast_fmri_test	393	751058,/	t	<div class = centerbox2><div class = fixation>+</div></div>	none	500.0	test	n/a	n/a	n/a	n/a	n/a	n/a	n/a	n/a	n/a	n/a	n/a	n/a	n/a	n/a	n/a	n/a	n/a	n/a	fixation
156334.77680017869	2750	n/a	1217	89	2750	1074.22319982	stim	stop-signal	272	754307	0.0-13.35-1.35	beast_fmri_test	393	751734,/,752412,/,753090,/,753769,/,754449,/,755129,/	t,t,t,t,t,t	<img class = center src='/static/experiments/beast_fmri_test/images/D.png'></img>	89,71	2750.0	test	<img class = center src='/static/experiments/beast_fmri_test/images/redD.png'></img>	go	2050.0	2.0	35.0	go	target	D	89,Middle Finger	71,Index Finger	700.0	600.0	2050.0	2150.0	1.0	n/a	700.0	1.0	go_stim
159084.77680017869	1074.2231998213085	n/a	1217	89	2750	1074.22319982	stim	stop-signal	272	754307	0.0-13.35-1.35	beast_fmri_test	393	751734,/,752412,/,753090,/,753769,/,754449,/,755129,/	t,t,t,t,t,t	<img class = center src='/static/experiments/beast_fmri_test/images/D.png'></img>	89,71	2750.0	test	<img class = center src='/static/experiments/beast_fmri_test/images/redD.png'></img>	go	2050.0	2.0	35.0	go	target	D	89,Middle Finger	71,Index Finger	700.0	600.0	2050.0	2150.0	1.0	n/a	700.0	1.0	ITI
161762	500	n/a	-1	-1	500	0.0	fixation	poldrack-single-stim	273	755910	0.0-13.36-0.36	beast_fmri_test	393	755809,/	t	<div class = centerbox2><div class = fixation>+</div></div>	none	500.0	test	n/a	n/a	n/a	n/a	n/a	n/a	n/a	n/a	n/a	n/a	n/a	n/a	n/a	n/a	n/a	n/a	n/a	n/a	fixation
161669.18363025098	600.0	n/a	656	71	2750	96.816369749	stim	stop-signal	274	758664	0.0-13.36-1.36	beast_fmri_test	393	756489,/,757169,/,757849,/,758529,/	t,t,t,t	<img class = center src='/static/experiments/beast_fmri_test/images/V.png'></img>	89,71	2750.0	test	<img class = center src='/static/experiments/beast_fmri_test/images/redV.png'></img>	stop	2150.0	2.0	36.0	stop	non-target	V	89,Middle Finger	71,Index Finger	700.0	600.0	2050.0	2150.0	0.0	0.0	600.0	n/a	go_stim
163819.18363025098	2150.0	n/a	656	71	2750	96.816369749	stim	stop-signal	274	758664	0.0-13.36-1.36	beast_fmri_test	393	756489,/,757169,/,757849,/,758529,/	t,t,t,t	<img class = center src='/static/experiments/beast_fmri_test/images/V.png'></img>	89,71	2750.0	test	<img class = center src='/static/experiments/beast_fmri_test/images/redV.png'></img>	stop	2150.0	2.0	36.0	stop	non-target	V	89,Middle Finger	71,Index Finger	700.0	600.0	2050.0	2150.0	0.0	0.0	600.0	n/a	stop_stim
164419.18363025098	96.816369748983689	n/a	656	71	2750	96.816369749	stim	stop-signal	274	758664	0.0-13.36-1.36	beast_fmri_test	393	756489,/,757169,/,757849,/,758529,/	t,t,t,t	<img class = center src='/static/experiments/beast_fmri_test/images/V.png'></img>	89,71	2750.0	test	<img class = center src='/static/experiments/beast_fmri_test/images/redV.png'></img>	stop	2150.0	2.0	36.0	stop	non-target	V	89,Middle Finger	71,Index Finger	700.0	600.0	2050.0	2150.0	0.0	0.0	600.0	n/a	ITI
165142	500	n/a	-1	-1	500	0.0	fixation	poldrack-single-stim	275	759290	0.0-13.37-0.37	beast_fmri_test	393	759209,/	t	<div class = centerbox2><div class = fixation>+</div></div>	none	500.0	test	n/a	n/a	n/a	n/a	n/a	n/a	n/a	n/a	n/a	n/a	n/a	n/a	n/a	n/a	n/a	n/a	n/a	n/a	fixation
163015.29875762912	2750	n/a	742	71	2750	2129.70124237	stim	stop-signal	276	762043	0.0-13.37-1.37	beast_fmri_test	393	759889,/,760569,/,761249,/,761929,/,762611,/,763293,/,763973,/	t,t,t,t,t,t,t	<img class = center src='/static/experiments/beast_fmri_test/images/V.png'></img>	89,71	2750.0	test	<img class = center src='/static/experiments/beast_fmri_test/images/redV.png'></img>	go	2200.0	2.0	37.0	go	non-target	V	89,Middle Finger	71,Index Finger	700.0	550.0	2050.0	2200.0	1.0	n/a	550.0	1.0	go_stim
165765.29875762912	2129.7012423709257	n/a	742	71	2750	2129.70124237	stim	stop-signal	276	762043	0.0-13.37-1.37	beast_fmri_test	393	759889,/,760569,/,761249,/,761929,/,762611,/,763293,/,763973,/	t,t,t,t,t,t,t	<img class = center src='/static/experiments/beast_fmri_test/images/V.png'></img>	89,71	2750.0	test	<img class = center src='/static/experiments/beast_fmri_test/images/redV.png'></img>	go	2200.0	2.0	37.0	go	non-target	V	89,Middle Finger	71,Index Finger	700.0	550.0	2050.0	2200.0	1.0	n/a	550.0	1.0	ITI
170556	500	n/a	-1	-1	500	0.0	fixation	poldrack-single-stim	277	764704	0.0-13.38-0.38	beast_fmri_test	393	764653,/	t	<div class = centerbox2><div class = fixation>+</div></div>	none	500.0	test	n/a	n/a	n/a	n/a	n/a	n/a	n/a	n/a	n/a	n/a	n/a	n/a	n/a	n/a	n/a	n/a	n/a	n/a	fixation
168947.22267625004	2750	n/a	860	89	2750	1612.77732375	stim	stop-signal	278	767458	0.0-13.38-1.38	beast_fmri_test	393	765332,/,766013,/,766693,/,767373,/,768053,/,768733,/	t,t,t,t,t,t	<img class = center src='/static/experiments/beast_fmri_test/images/V.png'></img>	89,71	2750.0	test	<img class = center src='/static/experiments/beast_fmri_test/images/redV.png'></img>	go	2050.0	2.0	38.0	go	target	V	89,Middle Finger	71,Index Finger	700.0	550.0	2050.0	2200.0	1.0	n/a	700.0	1.0	go_stim
171697.22267625004	1612.7773237499218	n/a	860	89	2750	1612.77732375	stim	stop-signal	278	767458	0.0-13.38-1.38	beast_fmri_test	393	765332,/,766013,/,766693,/,767373,/,768053,/,768733,/	t,t,t,t,t,t	<img class = center src='/static/experiments/beast_fmri_test/images/V.png'></img>	89,71	2750.0	test	<img class = center src='/static/experiments/beast_fmri_test/images/redV.png'></img>	go	2050.0	2.0	38.0	go	target	V	89,Middle Finger	71,Index Finger	700.0	550.0	2050.0	2200.0	1.0	n/a	700.0	1.0	ITI
175452	500	n/a	-1	-1	500	0.0	fixation	poldrack-single-stim	279	769600	0.0-13.39-0.39	beast_fmri_test	393	769413,/	t	<div class = centerbox2><div class = fixation>+</div></div>	none	500.0	test	n/a	n/a	n/a	n/a	n/a	n/a	n/a	n/a	n/a	n/a	n/a	n/a	n/a	n/a	n/a	n/a	n/a	n/a	fixation
175318.70024558867	700.0	n/a	671	89	2750	136.299754411	stim	stop-signal	280	772353	0.0-13.39-1.39	beast_fmri_test	393	770094,/,770773,/,771453,/,772133,/	t,t,t,t	<img class = center src='/static/experiments/beast_fmri_test/images/V.png'></img>	89,71	2750.0	test	<img class = center src='/static/experiments/beast_fmri_test/images/redV.png'></img>	stop	2050.0	2.0	39.0	stop	target	V	89,Middle Finger	71,Index Finger	700.0	550.0	2050.0	2200.0	0.0	0.0	700.0	n/a	go_stim
177368.70024558867	2050.0	n/a	671	89	2750	136.299754411	stim	stop-signal	280	772353	0.0-13.39-1.39	beast_fmri_test	393	770094,/,770773,/,771453,/,772133,/	t,t,t,t	<img class = center src='/static/experiments/beast_fmri_test/images/V.png'></img>	89,71	2750.0	test	<img class = center src='/static/experiments/beast_fmri_test/images/redV.png'></img>	stop	2050.0	2.0	39.0	stop	target	V	89,Middle Finger	71,Index Finger	700.0	550.0	2050.0	2200.0	0.0	0.0	700.0	n/a	stop_stim
178068.70024558867	136.2997544113407	n/a	671	89	2750	136.299754411	stim	stop-signal	280	772353	0.0-13.39-1.39	beast_fmri_test	393	770094,/,770773,/,771453,/,772133,/	t,t,t,t	<img class = center src='/static/experiments/beast_fmri_test/images/V.png'></img>	89,71	2750.0	test	<img class = center src='/static/experiments/beast_fmri_test/images/redV.png'></img>	stop	2050.0	2.0	39.0	stop	target	V	89,Middle Finger	71,Index Finger	700.0	550.0	2050.0	2200.0	0.0	0.0	700.0	n/a	ITI
178870	500	n/a	-1	-1	500	0.0	fixation	poldrack-single-stim	281	773018	0.0-13.40-0.40	beast_fmri_test	393	772813,/	t	<div class = centerbox2><div class = fixation>+</div></div>	none	500.0	test	n/a	n/a	n/a	n/a	n/a	n/a	n/a	n/a	n/a	n/a	n/a	n/a	n/a	n/a	n/a	n/a	n/a	n/a	fixation
175418.15452754614	2750	n/a	1580	71	2750	3454.84547245	stim	stop-signal	282	775771	0.0-13.40-1.40	beast_fmri_test	393	773493,/,774173,/,774853,/,775534,/,776214,/,776894,/,777574,/,778254,/,778934,/	t,t,t,t,t,t,t,t,t	<img class = center src='/static/experiments/beast_fmri_test/images/D.png'></img>	89,71	2750.0	test	<img class = center src='/static/experiments/beast_fmri_test/images/redD.png'></img>	go	2200.0	2.0	40.0	go	non-target	D	89,Middle Finger	71,Index Finger	650.0	550.0	2050.0	2200.0	1.0	n/a	550.0	1.0	go_stim
178168.15452754614	3454.8454724538951	n/a	1580	71	2750	3454.84547245	stim	stop-signal	282	775771	0.0-13.40-1.40	beast_fmri_test	393	773493,/,774173,/,774853,/,775534,/,776214,/,776894,/,777574,/,778254,/,778934,/	t,t,t,t,t,t,t,t,t	<img class = center src='/static/experiments/beast_fmri_test/images/D.png'></img>	89,71	2750.0	test	<img class = center src='/static/experiments/beast_fmri_test/images/redD.png'></img>	go	2200.0	2.0	40.0	go	non-target	D	89,Middle Finger	71,Index Finger	650.0	550.0	2050.0	2200.0	1.0	n/a	550.0	1.0	ITI
185607	500	n/a	-1	-1	500	0.0	fixation	poldrack-single-stim	283	779755	0.0-13.41-0.41	beast_fmri_test	393	779615,/	t	<div class = centerbox2><div class = fixation>+</div></div>	none	500.0	test	n/a	n/a	n/a	n/a	n/a	n/a	n/a	n/a	n/a	n/a	n/a	n/a	n/a	n/a	n/a	n/a	n/a	n/a	fixation
184581.67821380286	550.0	n/a	829	89	2750	1030.3217862	stim	stop-signal	284	782510	0.0-13.41-1.41	beast_fmri_test	393	780293,/,780974,/,781654,/,782335,/,783018,/	t,t,t,t,t	<img class = center src='/static/experiments/beast_fmri_test/images/D.png'></img>	89,71	2750.0	test	<img class = center src='/static/experiments/beast_fmri_test/images/redD.png'></img>	stop	2200.0	2.0	41.0	stop	non-target	D	89,Middle Finger	71,Index Finger	650.0	550.0	2050.0	2200.0	0.0	0.0	550.0	n/a	go_stim
186781.67821380286	2200.0	n/a	829	89	2750	1030.3217862	stim	stop-signal	284	782510	0.0-13.41-1.41	beast_fmri_test	393	780293,/,780974,/,781654,/,782335,/,783018,/	t,t,t,t,t	<img class = center src='/static/experiments/beast_fmri_test/images/D.png'></img>	89,71	2750.0	test	<img class = center src='/static/experiments/beast_fmri_test/images/redD.png'></img>	stop	2200.0	2.0	41.0	stop	non-target	D	89,Middle Finger	71,Index Finger	650.0	550.0	2050.0	2200.0	0.0	0.0	550.0	n/a	stop_stim
187331.67821380286	1030.3217861971584	n/a	829	89	2750	1030.3217862	stim	stop-signal	284	782510	0.0-13.41-1.41	beast_fmri_test	393	780293,/,780974,/,781654,/,782335,/,783018,/	t,t,t,t,t	<img class = center src='/static/experiments/beast_fmri_test/images/D.png'></img>	89,71	2750.0	test	<img class = center src='/static/experiments/beast_fmri_test/images/redD.png'></img>	stop	2200.0	2.0	41.0	stop	non-target	D	89,Middle Finger	71,Index Finger	650.0	550.0	2050.0	2200.0	0.0	0.0	550.0	n/a	ITI
189925	500	n/a	-1	-1	500	0.0	fixation	poldrack-single-stim	285	784073	0.0-13.42-0.42	beast_fmri_test	393	783698,/	t	<div class = centerbox2><div class = fixation>+</div></div>	none	500.0	test	n/a	n/a	n/a	n/a	n/a	n/a	n/a	n/a	n/a	n/a	n/a	n/a	n/a	n/a	n/a	n/a	n/a	n/a	fixation
189730.01730488811	2750	n/a	859	71	2750	198.982695112	stim	stop-signal	286	786827	0.0-13.42-1.42	beast_fmri_test	393	784378,/,785059,/,785737,/,786418,/	t,t,t,t	<img class = center src='/static/experiments/beast_fmri_test/images/T.png'></img>	89,71	2750.0	test	<img class = center src='/static/experiments/beast_fmri_test/images/redT.png'></img>	go	2250.0	2.0	42.0	go	non-target	T	89,Middle Finger	71,Index Finger	650.0	500.0	2050.0	2250.0	1.0	n/a	500.0	1.0	go_stim
192480.01730488811	198.98269511186589	n/a	859	71	2750	198.982695112	stim	stop-signal	286	786827	0.0-13.42-1.42	beast_fmri_test	393	784378,/,785059,/,785737,/,786418,/	t,t,t,t	<img class = center src='/static/experiments/beast_fmri_test/images/T.png'></img>	89,71	2750.0	test	<img class = center src='/static/experiments/beast_fmri_test/images/redT.png'></img>	go	2250.0	2.0	42.0	go	non-target	T	89,Middle Finger	71,Index Finger	650.0	500.0	2050.0	2250.0	1.0	n/a	500.0	1.0	ITI
193402	500	n/a	-1	-1	500	0.0	fixation	poldrack-single-stim	287	787550	0.0-13.43-0.43	beast_fmri_test	393	787098,/	t	<div class = centerbox2><div class = fixation>+</div></div>	none	500.0	test	n/a	n/a	n/a	n/a	n/a	n/a	n/a	n/a	n/a	n/a	n/a	n/a	n/a	n/a	n/a	n/a	n/a	n/a	fixation
193109.2427514731	2750	n/a	1092	71	2750	293.757248527	stim	stop-signal	288	790301	0.0-13.43-1.43	beast_fmri_test	393	787778,/,788457,/,789137,/,789818,/,790497,/	t,t,t,t,t	<img class = center src='/static/experiments/beast_fmri_test/images/P.png'></img>	89,71	2750.0	test	<img class = center src='/static/experiments/beast_fmri_test/images/redP.png'></img>	go	2250.0	2.0	43.0	go	non-target	P	89,Middle Finger	71,Index Finger	650.0	500.0	2050.0	2250.0	1.0	n/a	500.0	1.0	go_stim
195859.2427514731	293.7572485269111	n/a	1092	71	2750	293.757248527	stim	stop-signal	288	790301	0.0-13.43-1.43	beast_fmri_test	393	787778,/,788457,/,789137,/,789818,/,790497,/	t,t,t,t,t	<img class = center src='/static/experiments/beast_fmri_test/images/P.png'></img>	89,71	2750.0	test	<img class = center src='/static/experiments/beast_fmri_test/images/redP.png'></img>	go	2250.0	2.0	43.0	go	non-target	P	89,Middle Finger	71,Index Finger	650.0	500.0	2050.0	2250.0	1.0	n/a	500.0	1.0	ITI
196973	500	n/a	-1	-1	500	0.0	fixation	poldrack-single-stim	289	791121	0.0-13.44-0.44	beast_fmri_test	393	n/a	n/a	<div class = centerbox2><div class = fixation>+</div></div>	none	500.0	test	n/a	n/a	n/a	n/a	n/a	n/a	n/a	n/a	n/a	n/a	n/a	n/a	n/a	n/a	n/a	n/a	n/a	n/a	fixation
195760.51388785662	2750	n/a	871	71	2750	1219.48611214	stim	stop-signal	290	793878	0.0-13.44-1.44	beast_fmri_test	393	791178,/,791859,/,792539,/,793222,/,793902,/,794583,/	t,t,t,t,t,t	<img class = center src='/static/experiments/beast_fmri_test/images/P.png'></img>	89,71	2750.0	test	<img class = center src='/static/experiments/beast_fmri_test/images/redP.png'></img>	go	2250.0	2.0	44.0	go	non-target	P	89,Middle Finger	71,Index Finger	650.0	500.0	2050.0	2250.0	1.0	n/a	500.0	1.0	go_stim
198510.51388785662	1219.4861121434033	n/a	871	71	2750	1219.48611214	stim	stop-signal	290	793878	0.0-13.44-1.44	beast_fmri_test	393	791178,/,791859,/,792539,/,793222,/,793902,/,794583,/	t,t,t,t,t,t	<img class = center src='/static/experiments/beast_fmri_test/images/P.png'></img>	89,71	2750.0	test	<img class = center src='/static/experiments/beast_fmri_test/images/redP.png'></img>	go	2250.0	2.0	44.0	go	non-target	P	89,Middle Finger	71,Index Finger	650.0	500.0	2050.0	2250.0	1.0	n/a	500.0	1.0	ITI
201477	500	n/a	-1	-1	500	0.0	fixation	poldrack-single-stim	291	795625	0.0-13.45-0.45	beast_fmri_test	393	795262,/	t	<div class = centerbox2><div class = fixation>+</div></div>	none	500.0	test	n/a	n/a	n/a	n/a	n/a	n/a	n/a	n/a	n/a	n/a	n/a	n/a	n/a	n/a	n/a	n/a	n/a	n/a	fixation
200197.04524187231	2750	n/a	845	71	2750	1282.95475813	stim	stop-signal	292	798378	0.0-13.45-1.45	beast_fmri_test	393	795942,/,796622,/,797302,/,797982,/,798662,/,799341,/	t,t,t,t,t,t	<img class = center src='/static/experiments/beast_fmri_test/images/T.png'></img>	89,71	2750.0	test	<img class = center src='/static/experiments/beast_fmri_test/images/redT.png'></img>	go	2250.0	2.0	45.0	go	non-target	T	89,Middle Finger	71,Index Finger	650.0	500.0	2050.0	2250.0	1.0	n/a	500.0	1.0	go_stim
202947.04524187231	1282.9547581277145	n/a	845	71	2750	1282.95475813	stim	stop-signal	292	798378	0.0-13.45-1.45	beast_fmri_test	393	795942,/,796622,/,797302,/,797982,/,798662,/,799341,/	t,t,t,t,t,t	<img class = center src='/static/experiments/beast_fmri_test/images/T.png'></img>	89,71	2750.0	test	<img class = center src='/static/experiments/beast_fmri_test/images/redT.png'></img>	go	2250.0	2.0	45.0	go	non-target	T	89,Middle Finger	71,Index Finger	650.0	500.0	2050.0	2250.0	1.0	n/a	500.0	1.0	ITI
206043	500	n/a	-1	-1	500	0.0	fixation	poldrack-single-stim	293	800191	0.0-13.46-0.46	beast_fmri_test	393	800022,/	t	<div class = centerbox2><div class = fixation>+</div></div>	none	500.0	test	n/a	n/a	n/a	n/a	n/a	n/a	n/a	n/a	n/a	n/a	n/a	n/a	n/a	n/a	n/a	n/a	n/a	n/a	fixation
204765.837780184	2750	n/a	840	89	2750	1284.16221982	stim	stop-signal	294	802948	0.0-13.46-1.46	beast_fmri_test	393	800702,/,801382,/,802063,/,802746,/,803426,/,804107,/	t,t,t,t,t,t	<img class = center src='/static/experiments/beast_fmri_test/images/P.png'></img>	89,71	2750.0	test	<img class = center src='/static/experiments/beast_fmri_test/images/redP.png'></img>	go	2100.0	2.0	46.0	go	target	P	89,Middle Finger	71,Index Finger	650.0	500.0	2100.0	2250.0	1.0	n/a	650.0	1.0	go_stim
207515.837780184	1284.1622198159828	n/a	840	89	2750	1284.16221982	stim	stop-signal	294	802948	0.0-13.46-1.46	beast_fmri_test	393	800702,/,801382,/,802063,/,802746,/,803426,/,804107,/	t,t,t,t,t,t	<img class = center src='/static/experiments/beast_fmri_test/images/P.png'></img>	89,71	2750.0	test	<img class = center src='/static/experiments/beast_fmri_test/images/redP.png'></img>	go	2100.0	2.0	46.0	go	target	P	89,Middle Finger	71,Index Finger	650.0	500.0	2100.0	2250.0	1.0	n/a	650.0	1.0	ITI
225120	15000	n/a	-1	-1	15000	0.0	practice-no-stop-feedback	poldrack-single-stim	295	819268	0.0-14.0	beast_fmri_test	393	804788,/,805467,/,806148,/,806828,/,807508,/,808188,/,808867,/,809547,/,810228,/,810908,/,811588,/,812268,/,812951,/,813631,/,814312,/,814992,/,815672,/,816352,/,817032,/,817712,/,818392,/,819072,/	t,t,t,t,t,t,t,t,t,t,t,t,t,t,t,t,t,t,t,t,t,t	"<div class = ""centerbox2_2""><p class = ""block-text2"">Your delay is 3 trials.</p><p class = block-text2>Please wait for the scanner to start the block</p></div>"	77	15000.0	n/a	n/a	n/a	n/a	n/a	n/a	n/a	n/a	n/a	n/a	n/a	n/a	n/a	n/a	n/a	n/a	n/a	n/a	n/a	practice-no-stop-feedback
225623	500	n/a	-1	-1	500	0.0	fixation	poldrack-single-stim	296	819771	0.0-15.0-0.0	beast_fmri_test	393	819752,/	t	<div class = centerbox2><div class = fixation>+</div></div>	none	500.0	test	n/a	n/a	n/a	n/a	n/a	n/a	n/a	n/a	n/a	n/a	n/a	n/a	n/a	n/a	n/a	n/a	n/a	n/a	fixation
224441.40289225965	2750	n/a	1242	71	2750	1186.59710774	stim	stop-signal	297	822526	0.0-15.0-1.0	beast_fmri_test	393	820431,/,821111,/,821791,/,822473,/,823156,/	t,t,t,t,t	<img class = center src='/static/experiments/beast_fmri_test/images/P.png'></img>	89,71	2750.0	test	<img class = center src='/static/experiments/beast_fmri_test/images/redP.png'></img>	go	-1.0	3.0	0.0	go	temp-non-target	P	89,Middle Finger	71,Index Finger	650.0	500.0	2100.0	2250.0	0.0	n/a	n/a	n/a	go_stim
227191.40289225965	1186.5971077403024	n/a	1242	71	2750	1186.59710774	stim	stop-signal	297	822526	0.0-15.0-1.0	beast_fmri_test	393	820431,/,821111,/,821791,/,822473,/,823156,/	t,t,t,t,t	<img class = center src='/static/experiments/beast_fmri_test/images/P.png'></img>	89,71	2750.0	test	<img class = center src='/static/experiments/beast_fmri_test/images/redP.png'></img>	go	-1.0	3.0	0.0	go	temp-non-target	P	89,Middle Finger	71,Index Finger	650.0	500.0	2100.0	2250.0	0.0	n/a	n/a	n/a	ITI
230097	500	n/a	-1	-1	500	0.0	fixation	poldrack-single-stim	298	824245	0.0-15.1-0.1	beast_fmri_test	393	823836,/	t	<div class = centerbox2><div class = fixation>+</div></div>	none	500.0	test	n/a	n/a	n/a	n/a	n/a	n/a	n/a	n/a	n/a	n/a	n/a	n/a	n/a	n/a	n/a	n/a	n/a	n/a	fixation
227861.80458828574	temp_go_duration	n/a	617	71	2750	2238.19541171	stim	stop-signal	299	826998	0.0-15.1-1.1	beast_fmri_test	393	824516,/,825196,/,825876,/,826556,/,827236,/,827916,/,828595,/	t,t,t,t,t,t,t	<img class = center src='/static/experiments/beast_fmri_test/images/T.png'></img>	89,71	2750.0	test	<img class = center src='/static/experiments/beast_fmri_test/images/redT.png'></img>	stop	-1.0	3.0	1.0	stop	temp-non-target	T	89,Middle Finger	71,Index Finger	650.0	500.0	2100.0	2250.0	0.0	0.0	n/a	n/a	go_stim
temp-non-target	temp_stop_duration	n/a	617	71	2750	2238.19541171	stim	stop-signal	299	826998	0.0-15.1-1.1	beast_fmri_test	393	824516,/,825196,/,825876,/,826556,/,827236,/,827916,/,828595,/	t,t,t,t,t,t,t	<img class = center src='/static/experiments/beast_fmri_test/images/T.png'></img>	89,71	2750.0	test	<img class = center src='/static/experiments/beast_fmri_test/images/redT.png'></img>	stop	-1.0	3.0	1.0	stop	temp-non-target	T	89,Middle Finger	71,Index Finger	650.0	500.0	2100.0	2250.0	0.0	0.0	n/a	n/a	stop_stim
230611.80458828574	2238.1954117142527	n/a	617	71	2750	2238.19541171	stim	stop-signal	299	826998	0.0-15.1-1.1	beast_fmri_test	393	824516,/,825196,/,825876,/,826556,/,827236,/,827916,/,828595,/	t,t,t,t,t,t,t	<img class = center src='/static/experiments/beast_fmri_test/images/T.png'></img>	89,71	2750.0	test	<img class = center src='/static/experiments/beast_fmri_test/images/redT.png'></img>	stop	-1.0	3.0	1.0	stop	temp-non-target	T	89,Middle Finger	71,Index Finger	650.0	500.0	2100.0	2250.0	0.0	0.0	n/a	n/a	ITI
235620	500	n/a	-1	-1	500	0.0	fixation	poldrack-single-stim	300	829768	0.0-15.2-0.2	beast_fmri_test	393	829276,/	t	<div class = centerbox2><div class = fixation>+</div></div>	none	500.0	test	n/a	n/a	n/a	n/a	n/a	n/a	n/a	n/a	n/a	n/a	n/a	n/a	n/a	n/a	n/a	n/a	n/a	n/a	fixation
234756.51368445007	2750	n/a	620	71	2750	866.48631555	stim	stop-signal	301	832521	0.0-15.2-1.2	beast_fmri_test	393	829955,/,830637,/,831316,/,831997,/,832675,/,833357,/	t,t,t,t,t,t	<img class = center src='/static/experiments/beast_fmri_test/images/V.png'></img>	89,71	2750.0	test	<img class = center src='/static/experiments/beast_fmri_test/images/redV.png'></img>	go	-1.0	3.0	2.0	go	temp-non-target	V	89,Middle Finger	71,Index Finger	650.0	500.0	2100.0	2250.0	0.0	n/a	n/a	n/a	go_stim
237506.51368445007	866.4863155499072	n/a	620	71	2750	866.48631555	stim	stop-signal	301	832521	0.0-15.2-1.2	beast_fmri_test	393	829955,/,830637,/,831316,/,831997,/,832675,/,833357,/	t,t,t,t,t,t	<img class = center src='/static/experiments/beast_fmri_test/images/V.png'></img>	89,71	2750.0	test	<img class = center src='/static/experiments/beast_fmri_test/images/redV.png'></img>	go	-1.0	3.0	2.0	go	temp-non-target	V	89,Middle Finger	71,Index Finger	650.0	500.0	2100.0	2250.0	0.0	n/a	n/a	n/a	ITI
239772	500	n/a	-1	-1	500	0.0	fixation	poldrack-single-stim	302	833920	0.0-15.3-0.3	beast_fmri_test	393	n/a	n/a	<div class = centerbox2><div class = fixation>+</div></div>	none	500.0	test	n/a	n/a	n/a	n/a	n/a	n/a	n/a	n/a	n/a	n/a	n/a	n/a	n/a	n/a	n/a	n/a	n/a	n/a	fixation
237202.23991247488	2750	n/a	849	71	2750	2572.76008753	stim	stop-signal	303	836673	0.0-15.3-1.3	beast_fmri_test	393	834036,/,834717,/,835397,/,836077,/,836756,/,837437,/,838117,/,838797,/	t,t,t,t,t,t,t,t	<img class = center src='/static/experiments/beast_fmri_test/images/B.png'></img>	89,71	2750.0	test	<img class = center src='/static/experiments/beast_fmri_test/images/redB.png'></img>	go	2250.0	3.0	3.0	go	non-target	B	89,Middle Finger	71,Index Finger	650.0	500.0	2100.0	2250.0	1.0	n/a	500.0	1.0	go_stim
239952.23991247488	2572.7600875251601	n/a	849	71	2750	2572.76008753	stim	stop-signal	303	836673	0.0-15.3-1.3	beast_fmri_test	393	834036,/,834717,/,835397,/,836077,/,836756,/,837437,/,838117,/,838797,/	t,t,t,t,t,t,t,t	<img class = center src='/static/experiments/beast_fmri_test/images/B.png'></img>	89,71	2750.0	test	<img class = center src='/static/experiments/beast_fmri_test/images/redB.png'></img>	go	2250.0	3.0	3.0	go	non-target	B	89,Middle Finger	71,Index Finger	650.0	500.0	2100.0	2250.0	1.0	n/a	500.0	1.0	ITI
245629	500	n/a	-1	-1	500	0.0	fixation	poldrack-single-stim	304	839777	0.0-15.4-0.4	beast_fmri_test	393	839477,/	t	<div class = centerbox2><div class = fixation>+</div></div>	none	500.0	test	n/a	n/a	n/a	n/a	n/a	n/a	n/a	n/a	n/a	n/a	n/a	n/a	n/a	n/a	n/a	n/a	n/a	n/a	fixation
244052.08558345807	2750	n/a	1116	89	2750	1581.91441654	stim	stop-signal	305	842532	0.0-15.4-1.4	beast_fmri_test	393	840157,/,840837,/,841516,/,842197,/,842880,/,843561,/	t,t,t,t,t,t	<img class = center src='/static/experiments/beast_fmri_test/images/T.png'></img>	89,71	2750.0	test	<img class = center src='/static/experiments/beast_fmri_test/images/redT.png'></img>	go	2100.0	3.0	4.0	go	target	T	89,Middle Finger	71,Index Finger	650.0	500.0	2100.0	2250.0	1.0	n/a	650.0	1.0	go_stim
246802.08558345807	1581.9144165419625	n/a	1116	89	2750	1581.91441654	stim	stop-signal	305	842532	0.0-15.4-1.4	beast_fmri_test	393	840157,/,840837,/,841516,/,842197,/,842880,/,843561,/	t,t,t,t,t,t	<img class = center src='/static/experiments/beast_fmri_test/images/T.png'></img>	89,71	2750.0	test	<img class = center src='/static/experiments/beast_fmri_test/images/redT.png'></img>	go	2100.0	3.0	4.0	go	target	T	89,Middle Finger	71,Index Finger	650.0	500.0	2100.0	2250.0	1.0	n/a	650.0	1.0	ITI
250499	500	n/a	-1	-1	500	0.0	fixation	poldrack-single-stim	306	844647	0.0-15.5-0.5	beast_fmri_test	393	844241,/	t	<div class = centerbox2><div class = fixation>+</div></div>	none	500.0	test	n/a	n/a	n/a	n/a	n/a	n/a	n/a	n/a	n/a	n/a	n/a	n/a	n/a	n/a	n/a	n/a	n/a	n/a	fixation
250472.16490870889	2750	n/a	874	71	2750	30.8350912911	stim	stop-signal	307	847401	0.0-15.5-1.5	beast_fmri_test	393	844921,/,845601,/,846281,/,846961,/	t,t,t,t	<img class = center src='/static/experiments/beast_fmri_test/images/P.png'></img>	89,71	2750.0	test	<img class = center src='/static/experiments/beast_fmri_test/images/redP.png'></img>	go	2250.0	3.0	5.0	go	non-target	P	89,Middle Finger	71,Index Finger	650.0	500.0	2100.0	2250.0	1.0	n/a	500.0	1.0	go_stim
253222.16490870889	30.835091291059424	n/a	874	71	2750	30.8350912911	stim	stop-signal	307	847401	0.0-15.5-1.5	beast_fmri_test	393	844921,/,845601,/,846281,/,846961,/	t,t,t,t	<img class = center src='/static/experiments/beast_fmri_test/images/P.png'></img>	89,71	2750.0	test	<img class = center src='/static/experiments/beast_fmri_test/images/redP.png'></img>	go	2250.0	3.0	5.0	go	non-target	P	89,Middle Finger	71,Index Finger	650.0	500.0	2100.0	2250.0	1.0	n/a	500.0	1.0	ITI
253815	500	n/a	-1	-1	500	0.0	fixation	poldrack-single-stim	308	847963	0.0-15.6-0.6	beast_fmri_test	393	847641,/	t	<div class = centerbox2><div class = fixation>+</div></div>	none	500.0	test	n/a	n/a	n/a	n/a	n/a	n/a	n/a	n/a	n/a	n/a	n/a	n/a	n/a	n/a	n/a	n/a	n/a	n/a	fixation
253348.48000573018	650.0	n/a	803	89	2750	470.51999427	stim	stop-signal	309	850717	0.0-15.6-1.6	beast_fmri_test	393	848321,/,849001,/,849681,/,850360,/,851041,/	t,t,t,t,t	<img class = center src='/static/experiments/beast_fmri_test/images/B.png'></img>	89,71	2750.0	test	<img class = center src='/static/experiments/beast_fmri_test/images/redB.png'></img>	stop	2100.0	3.0	6.0	stop	target	B	89,Middle Finger	71,Index Finger	650.0	500.0	2100.0	2250.0	0.0	0.0	650.0	n/a	go_stim
255448.48000573018	2100.0	n/a	803	89	2750	470.51999427	stim	stop-signal	309	850717	0.0-15.6-1.6	beast_fmri_test	393	848321,/,849001,/,849681,/,850360,/,851041,/	t,t,t,t,t	<img class = center src='/static/experiments/beast_fmri_test/images/B.png'></img>	89,71	2750.0	test	<img class = center src='/static/experiments/beast_fmri_test/images/redB.png'></img>	stop	2100.0	3.0	6.0	stop	target	B	89,Middle Finger	71,Index Finger	650.0	500.0	2100.0	2250.0	0.0	0.0	650.0	n/a	stop_stim
256098.48000573018	470.51999426979125	n/a	803	89	2750	470.51999427	stim	stop-signal	309	850717	0.0-15.6-1.6	beast_fmri_test	393	848321,/,849001,/,849681,/,850360,/,851041,/	t,t,t,t,t	<img class = center src='/static/experiments/beast_fmri_test/images/B.png'></img>	89,71	2750.0	test	<img class = center src='/static/experiments/beast_fmri_test/images/redB.png'></img>	stop	2100.0	3.0	6.0	stop	target	B	89,Middle Finger	71,Index Finger	650.0	500.0	2100.0	2250.0	0.0	0.0	650.0	n/a	ITI
257571	500	n/a	-1	-1	500	0.0	fixation	poldrack-single-stim	310	851719	0.0-15.7-0.7	beast_fmri_test	393	n/a	n/a	<div class = centerbox2><div class = fixation>+</div></div>	none	500.0	test	n/a	n/a	n/a	n/a	n/a	n/a	n/a	n/a	n/a	n/a	n/a	n/a	n/a	n/a	n/a	n/a	n/a	n/a	fixation
257291.04183207732	2750	n/a	1053	71	2750	287.958167923	stim	stop-signal	311	854477	0.0-15.7-1.7	beast_fmri_test	393	851722,/,852402,/,853084,/,853765,/,854445,/	t,t,t,t,t	<img class = center src='/static/experiments/beast_fmri_test/images/D.png'></img>	89,71	2750.0	test	<img class = center src='/static/experiments/beast_fmri_test/images/redD.png'></img>	go	2250.0	3.0	7.0	go	non-target	D	89,Middle Finger	71,Index Finger	600.0	500.0	2100.0	2250.0	1.0	n/a	500.0	1.0	go_stim
260041.04183207732	287.95816792270091	n/a	1053	71	2750	287.958167923	stim	stop-signal	311	854477	0.0-15.7-1.7	beast_fmri_test	393	851722,/,852402,/,853084,/,853765,/,854445,/	t,t,t,t,t	<img class = center src='/static/experiments/beast_fmri_test/images/D.png'></img>	89,71	2750.0	test	<img class = center src='/static/experiments/beast_fmri_test/images/redD.png'></img>	go	2250.0	3.0	7.0	go	non-target	D	89,Middle Finger	71,Index Finger	600.0	500.0	2100.0	2250.0	1.0	n/a	500.0	1.0	ITI
261147	500	n/a	-1	-1	500	0.0	fixation	poldrack-single-stim	312	855295	0.0-15.8-0.8	beast_fmri_test	393	855125,/	t	<div class = centerbox2><div class = fixation>+</div></div>	none	500.0	test	n/a	n/a	n/a	n/a	n/a	n/a	n/a	n/a	n/a	n/a	n/a	n/a	n/a	n/a	n/a	n/a	n/a	n/a	fixation
258153.1969170582	500.0	n/a	-1	-1	2750	2997.80308294	stim	stop-signal	313	858049	0.0-15.8-1.8	beast_fmri_test	393	855805,/,856485,/,857165,/,857845,/,858525,/,859205,/,859886,/,860566,/	t,t,t,t,t,t,t,t	<img class = center src='/static/experiments/beast_fmri_test/images/T.png'></img>	89,71	2750.0	test	<img class = center src='/static/experiments/beast_fmri_test/images/redT.png'></img>	stop	2250.0	3.0	8.0	stop	non-target	T	89,Middle Finger	71,Index Finger	600.0	500.0	2100.0	2250.0	0.0	1.0	500.0	n/a	go_stim
260403.1969170582	2250.0	n/a	-1	-1	2750	2997.80308294	stim	stop-signal	313	858049	0.0-15.8-1.8	beast_fmri_test	393	855805,/,856485,/,857165,/,857845,/,858525,/,859205,/,859886,/,860566,/	t,t,t,t,t,t,t,t	<img class = center src='/static/experiments/beast_fmri_test/images/T.png'></img>	89,71	2750.0	test	<img class = center src='/static/experiments/beast_fmri_test/images/redT.png'></img>	stop	2250.0	3.0	8.0	stop	non-target	T	89,Middle Finger	71,Index Finger	600.0	500.0	2100.0	2250.0	0.0	1.0	500.0	n/a	stop_stim
260903.1969170582	2997.8030829417439	n/a	-1	-1	2750	2997.80308294	stim	stop-signal	313	858049	0.0-15.8-1.8	beast_fmri_test	393	855805,/,856485,/,857165,/,857845,/,858525,/,859205,/,859886,/,860566,/	t,t,t,t,t,t,t,t	<img class = center src='/static/experiments/beast_fmri_test/images/T.png'></img>	89,71	2750.0	test	<img class = center src='/static/experiments/beast_fmri_test/images/redT.png'></img>	stop	2250.0	3.0	8.0	stop	non-target	T	89,Middle Finger	71,Index Finger	600.0	500.0	2100.0	2250.0	0.0	1.0	500.0	n/a	ITI
267430	500	n/a	-1	-1	500	0.0	fixation	poldrack-single-stim	314	861578	0.0-15.9-0.9	beast_fmri_test	393	861246,/	t	<div class = centerbox2><div class = fixation>+</div></div>	none	500.0	test	n/a	n/a	n/a	n/a	n/a	n/a	n/a	n/a	n/a	n/a	n/a	n/a	n/a	n/a	n/a	n/a	n/a	n/a	fixation
267052.89125307126	2750	n/a	1461	71	2750	384.108746929	stim	stop-signal	315	864335	0.0-15.9-1.9	beast_fmri_test	393	861926,/,862608,/,863290,/,863970,/,864650,/	t,t,t,t,t	<img class = center src='/static/experiments/beast_fmri_test/images/T.png'></img>	89,71	2750.0	test	<img class = center src='/static/experiments/beast_fmri_test/images/redT.png'></img>	go	2200.0	3.0	9.0	go	non-target	T	89,Middle Finger	71,Index Finger	600.0	550.0	2100.0	2200.0	1.0	n/a	550.0	1.0	go_stim
269802.89125307126	384.1087469287848	n/a	1461	71	2750	384.108746929	stim	stop-signal	315	864335	0.0-15.9-1.9	beast_fmri_test	393	861926,/,862608,/,863290,/,863970,/,864650,/	t,t,t,t,t	<img class = center src='/static/experiments/beast_fmri_test/images/T.png'></img>	89,71	2750.0	test	<img class = center src='/static/experiments/beast_fmri_test/images/redT.png'></img>	go	2200.0	3.0	9.0	go	non-target	T	89,Middle Finger	71,Index Finger	600.0	550.0	2100.0	2200.0	1.0	n/a	550.0	1.0	ITI
271104	500	n/a	-1	-1	500	0.0	fixation	poldrack-single-stim	316	865252	0.0-15.10-0.10	beast_fmri_test	393	n/a	n/a	<div class = centerbox2><div class = fixation>+</div></div>	none	500.0	test	n/a	n/a	n/a	n/a	n/a	n/a	n/a	n/a	n/a	n/a	n/a	n/a	n/a	n/a	n/a	n/a	n/a	n/a	fixation
270401.15127267875	2750	n/a	1401	89	2750	706.848727321	stim	stop-signal	317	868006	0.0-15.10-1.10	beast_fmri_test	393	865329,/,866010,/,866690,/,867370,/,868049,/	t,t,t,t,t	<img class = center src='/static/experiments/beast_fmri_test/images/D.png'></img>	89,71	2750.0	test	<img class = center src='/static/experiments/beast_fmri_test/images/redD.png'></img>	go	2150.0	3.0	10.0	go	target	D	89,Middle Finger	71,Index Finger	600.0	550.0	2150.0	2200.0	1.0	n/a	600.0	1.0	go_stim
273151.15127267875	706.84872732120471	n/a	1401	89	2750	706.848727321	stim	stop-signal	317	868006	0.0-15.10-1.10	beast_fmri_test	393	865329,/,866010,/,866690,/,867370,/,868049,/	t,t,t,t,t	<img class = center src='/static/experiments/beast_fmri_test/images/D.png'></img>	89,71	2750.0	test	<img class = center src='/static/experiments/beast_fmri_test/images/redD.png'></img>	go	2150.0	3.0	10.0	go	target	D	89,Middle Finger	71,Index Finger	600.0	550.0	2150.0	2200.0	1.0	n/a	600.0	1.0	ITI
275099	500	n/a	-1	-1	500	0.0	fixation	poldrack-single-stim	318	869247	0.0-15.11-0.11	beast_fmri_test	393	868745,/	t	<div class = centerbox2><div class = fixation>+</div></div>	none	500.0	test	n/a	n/a	n/a	n/a	n/a	n/a	n/a	n/a	n/a	n/a	n/a	n/a	n/a	n/a	n/a	n/a	n/a	n/a	fixation
273721.96627519606	2750	n/a	805	71	2750	1380.0337248	stim	stop-signal	319	872000	0.0-15.11-1.11	beast_fmri_test	393	869410,/,870090,/,870770,/,871450,/,872130,/,872813,/	t,t,t,t,t,t	<img class = center src='/static/experiments/beast_fmri_test/images/B.png'></img>	89,71	2750.0	test	<img class = center src='/static/experiments/beast_fmri_test/images/redB.png'></img>	go	2200.0	3.0	11.0	go	non-target	B	89,Middle Finger	71,Index Finger	600.0	550.0	2150.0	2200.0	1.0	n/a	550.0	1.0	go_stim
276471.96627519606	1380.0337248039948	n/a	805	71	2750	1380.0337248	stim	stop-signal	319	872000	0.0-15.11-1.11	beast_fmri_test	393	869410,/,870090,/,870770,/,871450,/,872130,/,872813,/	t,t,t,t,t,t	<img class = center src='/static/experiments/beast_fmri_test/images/B.png'></img>	89,71	2750.0	test	<img class = center src='/static/experiments/beast_fmri_test/images/redB.png'></img>	go	2200.0	3.0	11.0	go	non-target	B	89,Middle Finger	71,Index Finger	600.0	550.0	2150.0	2200.0	1.0	n/a	550.0	1.0	ITI
279767	500	n/a	-1	-1	500	0.0	fixation	poldrack-single-stim	320	873915	0.0-15.12-0.12	beast_fmri_test	393	873494,/	t	<div class = centerbox2><div class = fixation>+</div></div>	none	500.0	test	n/a	n/a	n/a	n/a	n/a	n/a	n/a	n/a	n/a	n/a	n/a	n/a	n/a	n/a	n/a	n/a	n/a	n/a	fixation
279489.31136733503	550.0	n/a	-1	-1	2750	281.688632665	stim	stop-signal	321	876669	0.0-15.12-1.12	beast_fmri_test	393	874174,/,874854,/,875534,/,876214,/,876894,/	t,t,t,t,t	<img class = center src='/static/experiments/beast_fmri_test/images/P.png'></img>	89,71	2750.0	test	<img class = center src='/static/experiments/beast_fmri_test/images/redP.png'></img>	stop	2200.0	3.0	12.0	stop	non-target	P	89,Middle Finger	71,Index Finger	600.0	550.0	2150.0	2200.0	0.0	1.0	550.0	n/a	go_stim
281689.31136733503	2200.0	n/a	-1	-1	2750	281.688632665	stim	stop-signal	321	876669	0.0-15.12-1.12	beast_fmri_test	393	874174,/,874854,/,875534,/,876214,/,876894,/	t,t,t,t,t	<img class = center src='/static/experiments/beast_fmri_test/images/P.png'></img>	89,71	2750.0	test	<img class = center src='/static/experiments/beast_fmri_test/images/redP.png'></img>	stop	2200.0	3.0	12.0	stop	non-target	P	89,Middle Finger	71,Index Finger	600.0	550.0	2150.0	2200.0	0.0	1.0	550.0	n/a	stop_stim
282239.31136733503	281.68863266496447	n/a	-1	-1	2750	281.688632665	stim	stop-signal	321	876669	0.0-15.12-1.12	beast_fmri_test	393	874174,/,874854,/,875534,/,876214,/,876894,/	t,t,t,t,t	<img class = center src='/static/experiments/beast_fmri_test/images/P.png'></img>	89,71	2750.0	test	<img class = center src='/static/experiments/beast_fmri_test/images/redP.png'></img>	stop	2200.0	3.0	12.0	stop	non-target	P	89,Middle Finger	71,Index Finger	600.0	550.0	2150.0	2200.0	0.0	1.0	550.0	n/a	ITI
283336	500	n/a	-1	-1	500	0.0	fixation	poldrack-single-stim	322	877484	0.0-15.13-0.13	beast_fmri_test	393	n/a	n/a	<div class = centerbox2><div class = fixation>+</div></div>	none	500.0	test	n/a	n/a	n/a	n/a	n/a	n/a	n/a	n/a	n/a	n/a	n/a	n/a	n/a	n/a	n/a	n/a	n/a	n/a	fixation
281576.18150288041	2750	n/a	1037	71	2750	1762.81849712	stim	stop-signal	323	880237	0.0-15.13-1.13	beast_fmri_test	393	877573,/,878254,/,878934,/,879614,/,880294,/,880974,/,881654,/	t,t,t,t,t,t,t	<img class = center src='/static/experiments/beast_fmri_test/images/T.png'></img>	89,71	2750.0	test	<img class = center src='/static/experiments/beast_fmri_test/images/redT.png'></img>	go	2150.0	3.0	13.0	go	non-target	T	89,Middle Finger	71,Index Finger	600.0	600.0	2150.0	2150.0	1.0	n/a	600.0	1.0	go_stim
284326.18150288041	1762.8184971196076	n/a	1037	71	2750	1762.81849712	stim	stop-signal	323	880237	0.0-15.13-1.13	beast_fmri_test	393	877573,/,878254,/,878934,/,879614,/,880294,/,880974,/,881654,/	t,t,t,t,t,t,t	<img class = center src='/static/experiments/beast_fmri_test/images/T.png'></img>	89,71	2750.0	test	<img class = center src='/static/experiments/beast_fmri_test/images/redT.png'></img>	go	2150.0	3.0	13.0	go	non-target	T	89,Middle Finger	71,Index Finger	600.0	600.0	2150.0	2150.0	1.0	n/a	600.0	1.0	ITI
288388	500	n/a	-1	-1	500	0.0	fixation	poldrack-single-stim	324	882536	0.0-15.14-0.14	beast_fmri_test	393	882335,/	t	<div class = centerbox2><div class = fixation>+</div></div>	none	500.0	test	n/a	n/a	n/a	n/a	n/a	n/a	n/a	n/a	n/a	n/a	n/a	n/a	n/a	n/a	n/a	n/a	n/a	n/a	fixation
287380.14238119009	2750	n/a	1960	71	2750	1013.85761881	stim	stop-signal	325	885292	0.0-15.14-1.14	beast_fmri_test	393	883018,/,883698,/,884379,/,885059,/,885738,/	t,t,t,t,t	<img class = center src='/static/experiments/beast_fmri_test/images/B.png'></img>	89,71	2750.0	test	<img class = center src='/static/experiments/beast_fmri_test/images/redB.png'></img>	go	2150.0	3.0	14.0	go	target	B	89,Middle Finger	71,Index Finger	600.0	600.0	2150.0	2150.0	0.0	n/a	600.0	0.0	go_stim
290130.14238119009	1013.8576188098532	n/a	1960	71	2750	1013.85761881	stim	stop-signal	325	885292	0.0-15.14-1.14	beast_fmri_test	393	883018,/,883698,/,884379,/,885059,/,885738,/	t,t,t,t,t	<img class = center src='/static/experiments/beast_fmri_test/images/B.png'></img>	89,71	2750.0	test	<img class = center src='/static/experiments/beast_fmri_test/images/redB.png'></img>	go	2150.0	3.0	14.0	go	target	B	89,Middle Finger	71,Index Finger	600.0	600.0	2150.0	2150.0	0.0	n/a	600.0	0.0	ITI
292690	500	n/a	-1	-1	500	0.0	fixation	poldrack-single-stim	326	886838	0.0-15.15-0.15	beast_fmri_test	393	886418,/	t	<div class = centerbox2><div class = fixation>+</div></div>	none	500.0	test	n/a	n/a	n/a	n/a	n/a	n/a	n/a	n/a	n/a	n/a	n/a	n/a	n/a	n/a	n/a	n/a	n/a	n/a	fixation
291958.06958350493	2750	n/a	1471	71	2750	734.930416495	stim	stop-signal	327	889591	0.0-15.15-1.15	beast_fmri_test	393	887098,/,887779,/,888459,/,889139,/,889819,/	t,t,t,t,t	<img class = center src='/static/experiments/beast_fmri_test/images/P.png'></img>	89,71	2750.0	test	<img class = center src='/static/experiments/beast_fmri_test/images/redP.png'></img>	go	2150.0	3.0	15.0	go	target	P	89,Middle Finger	71,Index Finger	600.0	600.0	2150.0	2150.0	0.0	n/a	600.0	0.0	go_stim
294708.06958350493	734.93041649508962	n/a	1471	71	2750	734.930416495	stim	stop-signal	327	889591	0.0-15.15-1.15	beast_fmri_test	393	887098,/,887779,/,888459,/,889139,/,889819,/	t,t,t,t,t	<img class = center src='/static/experiments/beast_fmri_test/images/P.png'></img>	89,71	2750.0	test	<img class = center src='/static/experiments/beast_fmri_test/images/redP.png'></img>	go	2150.0	3.0	15.0	go	target	P	89,Middle Finger	71,Index Finger	600.0	600.0	2150.0	2150.0	0.0	n/a	600.0	0.0	ITI
296712	500	n/a	-1	-1	500	0.0	fixation	poldrack-single-stim	328	890860	0.0-15.16-0.16	beast_fmri_test	393	890499,/	t	<div class = centerbox2><div class = fixation>+</div></div>	none	500.0	test	n/a	n/a	n/a	n/a	n/a	n/a	n/a	n/a	n/a	n/a	n/a	n/a	n/a	n/a	n/a	n/a	n/a	n/a	fixation
294941.9506714103	2750	n/a	2125	89	2750	1776.04932859	stim	stop-signal	329	893616	0.0-15.16-1.16	beast_fmri_test	393	891179,/,891859,/,892541,/,893223,/,893903,/,894583,/,895263,/	t,t,t,t,t,t,t	<img class = center src='/static/experiments/beast_fmri_test/images/T.png'></img>	89,71	2750.0	test	<img class = center src='/static/experiments/beast_fmri_test/images/redT.png'></img>	go	2150.0	3.0	16.0	go	target	T	89,Middle Finger	71,Index Finger	600.0	600.0	2150.0	2150.0	1.0	n/a	600.0	1.0	go_stim
297691.9506714103	1776.0493285896389	n/a	2125	89	2750	1776.04932859	stim	stop-signal	329	893616	0.0-15.16-1.16	beast_fmri_test	393	891179,/,891859,/,892541,/,893223,/,893903,/,894583,/,895263,/	t,t,t,t,t,t,t	<img class = center src='/static/experiments/beast_fmri_test/images/T.png'></img>	89,71	2750.0	test	<img class = center src='/static/experiments/beast_fmri_test/images/redT.png'></img>	go	2150.0	3.0	16.0	go	target	T	89,Middle Finger	71,Index Finger	600.0	600.0	2150.0	2150.0	1.0	n/a	600.0	1.0	ITI
301779	500	n/a	-1	-1	500	0.0	fixation	poldrack-single-stim	330	895927	0.0-15.17-0.17	beast_fmri_test	393	n/a	n/a	<div class = centerbox2><div class = fixation>+</div></div>	none	500.0	test	n/a	n/a	n/a	n/a	n/a	n/a	n/a	n/a	n/a	n/a	n/a	n/a	n/a	n/a	n/a	n/a	n/a	n/a	fixation
301172.43264335091	2750	n/a	1711	71	2750	609.567356649	stim	stop-signal	331	898680	0.0-15.17-1.17	beast_fmri_test	393	895943,/,896623,/,897303,/,897983,/,898663,/	t,t,t,t,t	<img class = center src='/static/experiments/beast_fmri_test/images/B.png'></img>	89,71	2750.0	test	<img class = center src='/static/experiments/beast_fmri_test/images/redB.png'></img>	go	2150.0	3.0	17.0	go	target	B	89,Middle Finger	71,Index Finger	600.0	600.0	2150.0	2150.0	0.0	n/a	600.0	0.0	go_stim
303922.43264335091	609.56735664906978	n/a	1711	71	2750	609.567356649	stim	stop-signal	331	898680	0.0-15.17-1.17	beast_fmri_test	393	895943,/,896623,/,897303,/,897983,/,898663,/	t,t,t,t,t	<img class = center src='/static/experiments/beast_fmri_test/images/B.png'></img>	89,71	2750.0	test	<img class = center src='/static/experiments/beast_fmri_test/images/redB.png'></img>	go	2150.0	3.0	17.0	go	target	B	89,Middle Finger	71,Index Finger	600.0	600.0	2150.0	2150.0	0.0	n/a	600.0	0.0	ITI
305675	500	n/a	-1	-1	500	0.0	fixation	poldrack-single-stim	332	899823	0.0-15.18-0.18	beast_fmri_test	393	899342,/	t	<div class = centerbox2><div class = fixation>+</div></div>	none	500.0	test	n/a	n/a	n/a	n/a	n/a	n/a	n/a	n/a	n/a	n/a	n/a	n/a	n/a	n/a	n/a	n/a	n/a	n/a	fixation
304660.00986591936	2750	n/a	2187	71	2750	1019.99013408	stim	stop-signal	333	902578	0.0-15.18-1.18	beast_fmri_test	393	900023,/,900703,/,901384,/,902063,/,902745,/,903427,/	t,t,t,t,t,t	<img class = center src='/static/experiments/beast_fmri_test/images/T.png'></img>	89,71	2750.0	test	<img class = center src='/static/experiments/beast_fmri_test/images/redT.png'></img>	go	2150.0	3.0	18.0	go	non-target	T	89,Middle Finger	71,Index Finger	600.0	600.0	2150.0	2150.0	1.0	n/a	600.0	1.0	go_stim
307410.00986591936	1019.9901340806773	n/a	2187	71	2750	1019.99013408	stim	stop-signal	333	902578	0.0-15.18-1.18	beast_fmri_test	393	900023,/,900703,/,901384,/,902063,/,902745,/,903427,/	t,t,t,t,t,t	<img class = center src='/static/experiments/beast_fmri_test/images/T.png'></img>	89,71	2750.0	test	<img class = center src='/static/experiments/beast_fmri_test/images/redT.png'></img>	go	2150.0	3.0	18.0	go	non-target	T	89,Middle Finger	71,Index Finger	600.0	600.0	2150.0	2150.0	1.0	n/a	600.0	1.0	ITI
309985	500	n/a	-1	-1	500	0.0	fixation	poldrack-single-stim	334	904133	0.0-15.19-0.19	beast_fmri_test	393	904107,/	t	<div class = centerbox2><div class = fixation>+</div></div>	none	500.0	test	n/a	n/a	n/a	n/a	n/a	n/a	n/a	n/a	n/a	n/a	n/a	n/a	n/a	n/a	n/a	n/a	n/a	n/a	fixation
309706.30924025073	2750	n/a	2295	71	2750	281.690759749	stim	stop-signal	335	906886	0.0-15.19-1.19	beast_fmri_test	393	904787,/,905467,/,906148,/,906827,/	t,t,t,t	<img class = center src='/static/experiments/beast_fmri_test/images/T.png'></img>	89,71	2750.0	test	<img class = center src='/static/experiments/beast_fmri_test/images/redT.png'></img>	go	2150.0	3.0	19.0	go	target	T	89,Middle Finger	71,Index Finger	600.0	600.0	2150.0	2150.0	0.0	n/a	600.0	0.0	go_stim
312456.30924025073	281.69075974924414	n/a	2295	71	2750	281.690759749	stim	stop-signal	335	906886	0.0-15.19-1.19	beast_fmri_test	393	904787,/,905467,/,906148,/,906827,/	t,t,t,t	<img class = center src='/static/experiments/beast_fmri_test/images/T.png'></img>	89,71	2750.0	test	<img class = center src='/static/experiments/beast_fmri_test/images/redT.png'></img>	go	2150.0	3.0	19.0	go	target	T	89,Middle Finger	71,Index Finger	600.0	600.0	2150.0	2150.0	0.0	n/a	600.0	0.0	ITI
313555	500	n/a	-1	-1	500	0.0	fixation	poldrack-single-stim	336	907703	0.0-15.20-0.20	beast_fmri_test	393	907508,/	t	<div class = centerbox2><div class = fixation>+</div></div>	none	500.0	test	n/a	n/a	n/a	n/a	n/a	n/a	n/a	n/a	n/a	n/a	n/a	n/a	n/a	n/a	n/a	n/a	n/a	n/a	fixation
312342.20359162544	2750	n/a	1161	71	2750	1215.79640837	stim	stop-signal	337	910456	0.0-15.20-1.20	beast_fmri_test	393	908187,/,908867,/,909547,/,910227,/,910907,/,911587,/	t,t,t,t,t,t	<img class = center src='/static/experiments/beast_fmri_test/images/T.png'></img>	89,71	2750.0	test	<img class = center src='/static/experiments/beast_fmri_test/images/redT.png'></img>	go	2150.0	3.0	20.0	go	non-target	T	89,Middle Finger	71,Index Finger	600.0	600.0	2150.0	2150.0	1.0	n/a	600.0	1.0	go_stim
315092.20359162544	1215.7964083745326	n/a	1161	71	2750	1215.79640837	stim	stop-signal	337	910456	0.0-15.20-1.20	beast_fmri_test	393	908187,/,908867,/,909547,/,910227,/,910907,/,911587,/	t,t,t,t,t,t	<img class = center src='/static/experiments/beast_fmri_test/images/T.png'></img>	89,71	2750.0	test	<img class = center src='/static/experiments/beast_fmri_test/images/redT.png'></img>	go	2150.0	3.0	20.0	go	non-target	T	89,Middle Finger	71,Index Finger	600.0	600.0	2150.0	2150.0	1.0	n/a	600.0	1.0	ITI
318059	500	n/a	-1	-1	500	0.0	fixation	poldrack-single-stim	338	912207	0.0-15.21-0.21	beast_fmri_test	393	n/a	n/a	<div class = centerbox2><div class = fixation>+</div></div>	none	500.0	test	n/a	n/a	n/a	n/a	n/a	n/a	n/a	n/a	n/a	n/a	n/a	n/a	n/a	n/a	n/a	n/a	n/a	n/a	fixation
317236.65930598858	600.0	n/a	648	89	2750	828.340694011	stim	stop-signal	339	914963	0.0-15.21-1.21	beast_fmri_test	393	912268,/,912951,/,913632,/,914311,/,914991,/,915672,/	t,t,t,t,t,t	<img class = center src='/static/experiments/beast_fmri_test/images/T.png'></img>	89,71	2750.0	test	<img class = center src='/static/experiments/beast_fmri_test/images/redT.png'></img>	stop	2150.0	3.0	21.0	stop	target	T	89,Middle Finger	71,Index Finger	600.0	600.0	2150.0	2150.0	0.0	0.0	600.0	n/a	go_stim
319386.65930598858	2150.0	n/a	648	89	2750	828.340694011	stim	stop-signal	339	914963	0.0-15.21-1.21	beast_fmri_test	393	912268,/,912951,/,913632,/,914311,/,914991,/,915672,/	t,t,t,t,t,t	<img class = center src='/static/experiments/beast_fmri_test/images/T.png'></img>	89,71	2750.0	test	<img class = center src='/static/experiments/beast_fmri_test/images/redT.png'></img>	stop	2150.0	3.0	21.0	stop	target	T	89,Middle Finger	71,Index Finger	600.0	600.0	2150.0	2150.0	0.0	0.0	600.0	n/a	stop_stim
319986.65930598858	828.34069401138072	n/a	648	89	2750	828.340694011	stim	stop-signal	339	914963	0.0-15.21-1.21	beast_fmri_test	393	912268,/,912951,/,913632,/,914311,/,914991,/,915672,/	t,t,t,t,t,t	<img class = center src='/static/experiments/beast_fmri_test/images/T.png'></img>	89,71	2750.0	test	<img class = center src='/static/experiments/beast_fmri_test/images/redT.png'></img>	stop	2150.0	3.0	21.0	stop	target	T	89,Middle Finger	71,Index Finger	600.0	600.0	2150.0	2150.0	0.0	0.0	600.0	n/a	ITI
322179	500	n/a	-1	-1	500	0.0	fixation	poldrack-single-stim	340	916327	0.0-15.22-0.22	beast_fmri_test	393	n/a	n/a	<div class = centerbox2><div class = fixation>+</div></div>	none	500.0	test	n/a	n/a	n/a	n/a	n/a	n/a	n/a	n/a	n/a	n/a	n/a	n/a	n/a	n/a	n/a	n/a	n/a	n/a	fixation
317182.0	600.0	n/a	-1	-1	2750	5000.0	stim	stop-signal	341	919080	0.0-15.22-1.22	beast_fmri_test	393	916351,/,917032,/,917712,/,918391,/,919072,/,919752,/,920432,/,921113,/,921792,/,922474,/,923156,/,923837,/	t,t,t,t,t,t,t,t,t,t,t,t	<img class = center src='/static/experiments/beast_fmri_test/images/V.png'></img>	89,71	2750.0	test	<img class = center src='/static/experiments/beast_fmri_test/images/redV.png'></img>	stop	2150.0	3.0	22.0	stop	non-target	V	89,Middle Finger	71,Index Finger	550.0	600.0	2150.0	2150.0	0.0	1.0	600.0	n/a	go_stim
319332.0	2150.0	n/a	-1	-1	2750	5000.0	stim	stop-signal	341	919080	0.0-15.22-1.22	beast_fmri_test	393	916351,/,917032,/,917712,/,918391,/,919072,/,919752,/,920432,/,921113,/,921792,/,922474,/,923156,/,923837,/	t,t,t,t,t,t,t,t,t,t,t,t	<img class = center src='/static/experiments/beast_fmri_test/images/V.png'></img>	89,71	2750.0	test	<img class = center src='/static/experiments/beast_fmri_test/images/redV.png'></img>	stop	2150.0	3.0	22.0	stop	non-target	V	89,Middle Finger	71,Index Finger	550.0	600.0	2150.0	2150.0	0.0	1.0	600.0	n/a	stop_stim
319932.0	5000.0	n/a	-1	-1	2750	5000.0	stim	stop-signal	341	919080	0.0-15.22-1.22	beast_fmri_test	393	916351,/,917032,/,917712,/,918391,/,919072,/,919752,/,920432,/,921113,/,921792,/,922474,/,923156,/,923837,/	t,t,t,t,t,t,t,t,t,t,t,t	<img class = center src='/static/experiments/beast_fmri_test/images/V.png'></img>	89,71	2750.0	test	<img class = center src='/static/experiments/beast_fmri_test/images/redV.png'></img>	stop	2150.0	3.0	22.0	stop	non-target	V	89,Middle Finger	71,Index Finger	550.0	600.0	2150.0	2150.0	0.0	1.0	600.0	n/a	ITI
330471	500	n/a	-1	-1	500	0.0	fixation	poldrack-single-stim	342	924619	0.0-15.23-0.23	beast_fmri_test	393	924517,/	t	<div class = centerbox2><div class = fixation>+</div></div>	none	500.0	test	n/a	n/a	n/a	n/a	n/a	n/a	n/a	n/a	n/a	n/a	n/a	n/a	n/a	n/a	n/a	n/a	n/a	n/a	fixation
