onset	duration	text	rt	key_press	block_duration	timing_post_trial	trial_id	trial_type	trial_index	time_elapsed	internal_node_id	exp_id	subject_id	trigger_times	triggers	stimulus	possible_responses	stim_duration	exp_stage	SS_stimulus	SS_trial_type	SS_duration	load	trial_num	stop_trial_type	adaptive_trial_type	stim	yes_response_key	no_response_key	SSD_target	SSD_non_target	SSTarget	SSNonTarget	go_acc	SS_delay	adaptive_acc	stop_acc	new_trial_type
test	10880	n/a	-1	-1	10880	0.0	practice-no-stop-feedback	poldrack-single-stim	392	1126883	0.0-18.0	beast_fmri_test	358	1116008,/,1116688,/,1117366,/,1118047,/,1118725,/,1119405,/,1120084,/,1120765,/,1121444,/,1122124,/,1122804,/,1123483,/,1124164,/,1124842,/,1125521,/,1126201,/,1126881,/	t,t,t,t,t,t,t,t,t,t,t,t,t,t,t,t,t	"<div class = ""centerbox""><p class = ""block-text"">Your delay is 3 trials.</p><p class = block-text>Please wait for the scanner to start the block</p></div>"	77	10880.0	n/a	n/a	n/a	n/a	n/a	n/a	n/a	n/a	n/a	n/a	n/a	n/a	n/a	n/a	n/a	n/a	n/a	n/a	n/a	start_functional_block
11378	500	n/a	-1	-1	500	0.0	fixation	poldrack-single-stim	393	1127386	0.0-19.0-0.0	beast_fmri_test	358	n/a	n/a	<div class = centerbox2><div class = fixation>+</div></div>	none	500.0	test	n/a	n/a	n/a	n/a	n/a	n/a	n/a	n/a	n/a	n/a	n/a	n/a	n/a	n/a	n/a	n/a	n/a	n/a	fixation
10238.116086949361	2750	n/a	798	89	2750	1140.88391305	stim	stop-signal	394	1130137	0.0-19.0-1.0	beast_fmri_test	358	1127561,/,1128241,/,1128920,/,1129600,/,1130279,/,1130959,/	t,t,t,t,t,t	<img class = center src='/static/experiments/beast_fmri_test/images/B.png'></img>	71,89	2750.0	test	<img class = center src='/static/experiments/beast_fmri_test/images/redB.png'></img>	go	-1.0	3.0	0.0	go	temp-non-target	B	71,Index Finger	89,Middle Finger	500.0	500.0	2200.0	2300.0	0.0	n/a	n/a	n/a	go_stim
12988.116086949361	1140.8839130506285	n/a	798	89	2750	1140.88391305	stim	stop-signal	394	1130137	0.0-19.0-1.0	beast_fmri_test	358	1127561,/,1128241,/,1128920,/,1129600,/,1130279,/,1130959,/	t,t,t,t,t,t	<img class = center src='/static/experiments/beast_fmri_test/images/B.png'></img>	71,89	2750.0	test	<img class = center src='/static/experiments/beast_fmri_test/images/redB.png'></img>	go	-1.0	3.0	0.0	go	temp-non-target	B	71,Index Finger	89,Middle Finger	500.0	500.0	2200.0	2300.0	0.0	n/a	n/a	n/a	ITI
15814	500	n/a	-1	-1	500	0.0	fixation	poldrack-single-stim	395	1131822	0.0-19.1-0.1	beast_fmri_test	358	1131640,/	t	<div class = centerbox2><div class = fixation>+</div></div>	none	500.0	test	n/a	n/a	n/a	n/a	n/a	n/a	n/a	n/a	n/a	n/a	n/a	n/a	n/a	n/a	n/a	n/a	n/a	n/a	fixation
14614.315699364757	2750	n/a	387	89	2750	1201.68430064	stim	stop-signal	396	1134574	0.0-19.1-1.1	beast_fmri_test	358	1132318,/,1132999,/,1133679,/,1134358,/,1135037,/,1135718,/	t,t,t,t,t,t	<img class = center src='/static/experiments/beast_fmri_test/images/D.png'></img>	71,89	2750.0	test	<img class = center src='/static/experiments/beast_fmri_test/images/redD.png'></img>	go	-1.0	3.0	1.0	go	temp-non-target	D	71,Index Finger	89,Middle Finger	500.0	500.0	2200.0	2300.0	0.0	n/a	n/a	n/a	go_stim
17364.315699364757	1201.6843006351585	n/a	387	89	2750	1201.68430064	stim	stop-signal	396	1134574	0.0-19.1-1.1	beast_fmri_test	358	1132318,/,1132999,/,1133679,/,1134358,/,1135037,/,1135718,/	t,t,t,t,t,t	<img class = center src='/static/experiments/beast_fmri_test/images/D.png'></img>	71,89	2750.0	test	<img class = center src='/static/experiments/beast_fmri_test/images/redD.png'></img>	go	-1.0	3.0	1.0	go	temp-non-target	D	71,Index Finger	89,Middle Finger	500.0	500.0	2200.0	2300.0	0.0	n/a	n/a	n/a	ITI
20312	500	n/a	-1	-1	500	0.0	fixation	poldrack-single-stim	397	1136320	0.0-19.2-0.2	beast_fmri_test	358	n/a	n/a	<div class = centerbox2><div class = fixation>+</div></div>	none	500.0	test	n/a	n/a	n/a	n/a	n/a	n/a	n/a	n/a	n/a	n/a	n/a	n/a	n/a	n/a	n/a	n/a	n/a	n/a	fixation
18159.448295704555	temp_go_duration	n/a	980	89	2750	2154.5517043	stim	stop-signal	398	1139072	0.0-19.2-1.2	beast_fmri_test	358	1136396,/,1137076,/,1137755,/,1138436,/,1139116,/,1139797,/,1140475,/,1141156,/	t,t,t,t,t,t,t,t	<img class = center src='/static/experiments/beast_fmri_test/images/D.png'></img>	71,89	2750.0	test	<img class = center src='/static/experiments/beast_fmri_test/images/redD.png'></img>	stop	-1.0	3.0	2.0	stop	temp-non-target	D	71,Index Finger	89,Middle Finger	500.0	500.0	2200.0	2300.0	0.0	n/a	n/a	0.0	go_stim
temp-non-target	temp_stop_duration	n/a	980	89	2750	2154.5517043	stim	stop-signal	398	1139072	0.0-19.2-1.2	beast_fmri_test	358	1136396,/,1137076,/,1137755,/,1138436,/,1139116,/,1139797,/,1140475,/,1141156,/	t,t,t,t,t,t,t,t	<img class = center src='/static/experiments/beast_fmri_test/images/D.png'></img>	71,89	2750.0	test	<img class = center src='/static/experiments/beast_fmri_test/images/redD.png'></img>	stop	-1.0	3.0	2.0	stop	temp-non-target	D	71,Index Finger	89,Middle Finger	500.0	500.0	2200.0	2300.0	0.0	n/a	n/a	0.0	stop_stim
20909.448295704555	2154.5517042955166	n/a	980	89	2750	2154.5517043	stim	stop-signal	398	1139072	0.0-19.2-1.2	beast_fmri_test	358	1136396,/,1137076,/,1137755,/,1138436,/,1139116,/,1139797,/,1140475,/,1141156,/	t,t,t,t,t,t,t,t	<img class = center src='/static/experiments/beast_fmri_test/images/D.png'></img>	71,89	2750.0	test	<img class = center src='/static/experiments/beast_fmri_test/images/redD.png'></img>	stop	-1.0	3.0	2.0	stop	temp-non-target	D	71,Index Finger	89,Middle Finger	500.0	500.0	2200.0	2300.0	0.0	n/a	n/a	0.0	ITI
25765	500	n/a	-1	-1	500	0.0	fixation	poldrack-single-stim	399	1141773	0.0-19.3-0.3	beast_fmri_test	358	n/a	n/a	<div class = centerbox2><div class = fixation>+</div></div>	none	500.0	test	n/a	n/a	n/a	n/a	n/a	n/a	n/a	n/a	n/a	n/a	n/a	n/a	n/a	n/a	n/a	n/a	n/a	n/a	fixation
25590.737323361915	2750	n/a	853	89	2750	175.262676638	stim	stop-signal	400	1144524	0.0-19.3-1.3	beast_fmri_test	358	1141835,/,1142516,/,1143195,/,1143875,/,1144553,/	t,t,t,t,t	<img class = center src='/static/experiments/beast_fmri_test/images/T.png'></img>	71,89	2750.0	test	<img class = center src='/static/experiments/beast_fmri_test/images/redT.png'></img>	go	2250.0	3.0	3.0	go	non-target	T	71,Index Finger	89,Middle Finger	500.0	500.0	2200.0	2250.0	1.0	500.0	1.0	n/a	go_stim
28340.737323361915	175.26267663808238	n/a	853	89	2750	175.262676638	stim	stop-signal	400	1144524	0.0-19.3-1.3	beast_fmri_test	358	1141835,/,1142516,/,1143195,/,1143875,/,1144553,/	t,t,t,t,t	<img class = center src='/static/experiments/beast_fmri_test/images/T.png'></img>	71,89	2750.0	test	<img class = center src='/static/experiments/beast_fmri_test/images/redT.png'></img>	go	2250.0	3.0	3.0	go	non-target	T	71,Index Finger	89,Middle Finger	500.0	500.0	2200.0	2250.0	1.0	500.0	1.0	n/a	ITI
29237	500	n/a	-1	-1	500	0.0	fixation	poldrack-single-stim	401	1145245	0.0-19.4-0.4	beast_fmri_test	358	1145234,/	t	<div class = centerbox2><div class = fixation>+</div></div>	none	500.0	test	n/a	n/a	n/a	n/a	n/a	n/a	n/a	n/a	n/a	n/a	n/a	n/a	n/a	n/a	n/a	n/a	n/a	n/a	fixation
28665.2129395667	2750	n/a	911	71	2750	572.787060433	stim	stop-signal	402	1147996	0.0-19.4-1.4	beast_fmri_test	358	1145914,/,1146593,/,1147273,/,1147951,/	t,t,t,t	<img class = center src='/static/experiments/beast_fmri_test/images/D.png'></img>	71,89	2750.0	test	<img class = center src='/static/experiments/beast_fmri_test/images/redD.png'></img>	go	2250.0	3.0	4.0	go	target	D	71,Index Finger	89,Middle Finger	500.0	500.0	2250.0	2250.0	1.0	500.0	1.0	n/a	go_stim
31415.2129395667	572.78706043323723	n/a	911	71	2750	572.787060433	stim	stop-signal	402	1147996	0.0-19.4-1.4	beast_fmri_test	358	1145914,/,1146593,/,1147273,/,1147951,/	t,t,t,t	<img class = center src='/static/experiments/beast_fmri_test/images/D.png'></img>	71,89	2750.0	test	<img class = center src='/static/experiments/beast_fmri_test/images/redD.png'></img>	go	2250.0	3.0	4.0	go	target	D	71,Index Finger	89,Middle Finger	500.0	500.0	2250.0	2250.0	1.0	500.0	1.0	n/a	ITI
33105	500	n/a	-1	-1	500	0.0	fixation	poldrack-single-stim	403	1149113	0.0-19.5-0.5	beast_fmri_test	358	1148632,/	t	<div class = centerbox2><div class = fixation>+</div></div>	none	500.0	test	n/a	n/a	n/a	n/a	n/a	n/a	n/a	n/a	n/a	n/a	n/a	n/a	n/a	n/a	n/a	n/a	n/a	n/a	fixation
31687.77275101305	2750	n/a	511	71	2750	1419.22724899	stim	stop-signal	404	1151865	0.0-19.5-1.5	beast_fmri_test	358	1149310,/,1149992,/,1150670,/,1151350,/,1152030,/,1152710,/	t,t,t,t,t,t	<img class = center src='/static/experiments/beast_fmri_test/images/D.png'></img>	71,89	2750.0	test	<img class = center src='/static/experiments/beast_fmri_test/images/redD.png'></img>	go	2250.0	3.0	5.0	go	target	D	71,Index Finger	89,Middle Finger	500.0	500.0	2250.0	2250.0	1.0	500.0	1.0	n/a	go_stim
34437.77275101305	1419.2272489868601	n/a	511	71	2750	1419.22724899	stim	stop-signal	404	1151865	0.0-19.5-1.5	beast_fmri_test	358	1149310,/,1149992,/,1150670,/,1151350,/,1152030,/,1152710,/	t,t,t,t,t,t	<img class = center src='/static/experiments/beast_fmri_test/images/D.png'></img>	71,89	2750.0	test	<img class = center src='/static/experiments/beast_fmri_test/images/redD.png'></img>	go	2250.0	3.0	5.0	go	target	D	71,Index Finger	89,Middle Finger	500.0	500.0	2250.0	2250.0	1.0	500.0	1.0	n/a	ITI
37820	500	n/a	-1	-1	500	0.0	fixation	poldrack-single-stim	405	1153828	0.0-19.6-0.6	beast_fmri_test	358	1153390,/	t	<div class = centerbox2><div class = fixation>+</div></div>	none	500.0	test	n/a	n/a	n/a	n/a	n/a	n/a	n/a	n/a	n/a	n/a	n/a	n/a	n/a	n/a	n/a	n/a	n/a	n/a	fixation
37257.376849944238	500.0	n/a	622	71	2750	564.623150056	stim	stop-signal	406	1156580	0.0-19.6-1.6	beast_fmri_test	358	1154070,/,1154749,/,1155428,/,1156109,/,1156787,/	t,t,t,t,t	<img class = center src='/static/experiments/beast_fmri_test/images/T.png'></img>	71,89	2750.0	test	<img class = center src='/static/experiments/beast_fmri_test/images/redT.png'></img>	stop	2250.0	3.0	6.0	stop	target	T	71,Index Finger	89,Middle Finger	500.0	500.0	2250.0	2250.0	0.0	500.0	n/a	0.0	go_stim
39507.376849944238	2250.0	n/a	622	71	2750	564.623150056	stim	stop-signal	406	1156580	0.0-19.6-1.6	beast_fmri_test	358	1154070,/,1154749,/,1155428,/,1156109,/,1156787,/	t,t,t,t,t	<img class = center src='/static/experiments/beast_fmri_test/images/T.png'></img>	71,89	2750.0	test	<img class = center src='/static/experiments/beast_fmri_test/images/redT.png'></img>	stop	2250.0	3.0	6.0	stop	target	T	71,Index Finger	89,Middle Finger	500.0	500.0	2250.0	2250.0	0.0	500.0	n/a	0.0	stop_stim
40007.376849944238	564.62315005574249	n/a	622	71	2750	564.623150056	stim	stop-signal	406	1156580	0.0-19.6-1.6	beast_fmri_test	358	1154070,/,1154749,/,1155428,/,1156109,/,1156787,/	t,t,t,t,t	<img class = center src='/static/experiments/beast_fmri_test/images/T.png'></img>	71,89	2750.0	test	<img class = center src='/static/experiments/beast_fmri_test/images/redT.png'></img>	stop	2250.0	3.0	6.0	stop	target	T	71,Index Finger	89,Middle Finger	500.0	500.0	2250.0	2250.0	0.0	500.0	n/a	0.0	ITI
41680	500	n/a	-1	-1	500	0.0	fixation	poldrack-single-stim	407	1157688	0.0-19.7-0.7	beast_fmri_test	358	1157468,/	t	<div class = centerbox2><div class = fixation>+</div></div>	none	500.0	test	n/a	n/a	n/a	n/a	n/a	n/a	n/a	n/a	n/a	n/a	n/a	n/a	n/a	n/a	n/a	n/a	n/a	n/a	fixation
40854.803916967008	450.0	n/a	-1	-1	2750	826.196083033	stim	stop-signal	408	1160439	0.0-19.7-1.7	beast_fmri_test	358	1158148,/,1158827,/,1159506,/,1160187,/,1160865,/	t,t,t,t,t	<img class = center src='/static/experiments/beast_fmri_test/images/D.png'></img>	71,89	2750.0	test	<img class = center src='/static/experiments/beast_fmri_test/images/redD.png'></img>	stop	2300.0	3.0	7.0	stop	target	D	71,Index Finger	89,Middle Finger	450.0	500.0	2300.0	2250.0	0.0	450.0	n/a	1.0	go_stim
43154.803916967008	2300.0	n/a	-1	-1	2750	826.196083033	stim	stop-signal	408	1160439	0.0-19.7-1.7	beast_fmri_test	358	1158148,/,1158827,/,1159506,/,1160187,/,1160865,/	t,t,t,t,t	<img class = center src='/static/experiments/beast_fmri_test/images/D.png'></img>	71,89	2750.0	test	<img class = center src='/static/experiments/beast_fmri_test/images/redD.png'></img>	stop	2300.0	3.0	7.0	stop	target	D	71,Index Finger	89,Middle Finger	450.0	500.0	2300.0	2250.0	0.0	450.0	n/a	1.0	stop_stim
43604.803916967008	826.19608303305699	n/a	-1	-1	2750	826.196083033	stim	stop-signal	408	1160439	0.0-19.7-1.7	beast_fmri_test	358	1158148,/,1158827,/,1159506,/,1160187,/,1160865,/	t,t,t,t,t	<img class = center src='/static/experiments/beast_fmri_test/images/D.png'></img>	71,89	2750.0	test	<img class = center src='/static/experiments/beast_fmri_test/images/redD.png'></img>	stop	2300.0	3.0	7.0	stop	target	D	71,Index Finger	89,Middle Finger	450.0	500.0	2300.0	2250.0	0.0	450.0	n/a	1.0	ITI
45803	500	n/a	-1	-1	500	0.0	fixation	poldrack-single-stim	409	1161811	0.0-19.8-0.8	beast_fmri_test	358	1161545,/	t	<div class = centerbox2><div class = fixation>+</div></div>	none	500.0	test	n/a	n/a	n/a	n/a	n/a	n/a	n/a	n/a	n/a	n/a	n/a	n/a	n/a	n/a	n/a	n/a	n/a	n/a	fixation
45143.664989931043	2750	n/a	686	89	2750	662.335010069	stim	stop-signal	410	1164564	0.0-19.8-1.8	beast_fmri_test	358	1162225,/,1162904,/,1163585,/,1164264,/,1164944,/	t,t,t,t,t	<img class = center src='/static/experiments/beast_fmri_test/images/P.png'></img>	71,89	2750.0	test	<img class = center src='/static/experiments/beast_fmri_test/images/redP.png'></img>	go	2250.0	3.0	8.0	go	non-target	P	71,Index Finger	89,Middle Finger	500.0	500.0	2300.0	2250.0	1.0	500.0	1.0	n/a	go_stim
47893.664989931043	662.33501006892322	n/a	686	89	2750	662.335010069	stim	stop-signal	410	1164564	0.0-19.8-1.8	beast_fmri_test	358	1162225,/,1162904,/,1163585,/,1164264,/,1164944,/	t,t,t,t,t	<img class = center src='/static/experiments/beast_fmri_test/images/P.png'></img>	71,89	2750.0	test	<img class = center src='/static/experiments/beast_fmri_test/images/redP.png'></img>	go	2250.0	3.0	8.0	go	non-target	P	71,Index Finger	89,Middle Finger	500.0	500.0	2300.0	2250.0	1.0	500.0	1.0	n/a	ITI
49763	500	n/a	-1	-1	500	0.0	fixation	poldrack-single-stim	411	1165771	0.0-19.9-0.9	beast_fmri_test	358	1165623,/	t	<div class = centerbox2><div class = fixation>+</div></div>	none	500.0	test	n/a	n/a	n/a	n/a	n/a	n/a	n/a	n/a	n/a	n/a	n/a	n/a	n/a	n/a	n/a	n/a	n/a	n/a	fixation
48294.887361892965	2750	n/a	752	71	2750	1470.11263811	stim	stop-signal	412	1168523	0.0-19.9-1.9	beast_fmri_test	358	1166303,/,1166983,/,1167663,/,1168342,/,1169023,/,1169701,/	t,t,t,t,t,t	<img class = center src='/static/experiments/beast_fmri_test/images/T.png'></img>	71,89	2750.0	test	<img class = center src='/static/experiments/beast_fmri_test/images/redT.png'></img>	go	2250.0	3.0	9.0	go	target	T	71,Index Finger	89,Middle Finger	500.0	500.0	2250.0	2250.0	1.0	500.0	1.0	n/a	go_stim
51044.887361892965	1470.112638107001	n/a	752	71	2750	1470.11263811	stim	stop-signal	412	1168523	0.0-19.9-1.9	beast_fmri_test	358	1166303,/,1166983,/,1167663,/,1168342,/,1169023,/,1169701,/	t,t,t,t,t,t	<img class = center src='/static/experiments/beast_fmri_test/images/T.png'></img>	71,89	2750.0	test	<img class = center src='/static/experiments/beast_fmri_test/images/redT.png'></img>	go	2250.0	3.0	9.0	go	target	T	71,Index Finger	89,Middle Finger	500.0	500.0	2250.0	2250.0	1.0	500.0	1.0	n/a	ITI
54524	500	n/a	-1	-1	500	0.0	fixation	poldrack-single-stim	413	1170532	0.0-19.10-0.10	beast_fmri_test	358	1170382,/	t	<div class = centerbox2><div class = fixation>+</div></div>	none	500.0	test	n/a	n/a	n/a	n/a	n/a	n/a	n/a	n/a	n/a	n/a	n/a	n/a	n/a	n/a	n/a	n/a	n/a	n/a	fixation
51282.61023775232	2750	n/a	647	71	2750	3243.38976225	stim	stop-signal	414	1173284	0.0-19.10-1.10	beast_fmri_test	358	1171061,/,1171741,/,1172421,/,1173101,/,1173781,/,1174460,/,1175141,/,1175820,/,1176499,/	t,t,t,t,t,t,t,t,t	<img class = center src='/static/experiments/beast_fmri_test/images/D.png'></img>	71,89	2750.0	test	<img class = center src='/static/experiments/beast_fmri_test/images/redD.png'></img>	go	2250.0	3.0	10.0	go	target	D	71,Index Finger	89,Middle Finger	500.0	500.0	2250.0	2250.0	1.0	500.0	1.0	n/a	go_stim
54032.61023775232	3243.3897622475688	n/a	647	71	2750	3243.38976225	stim	stop-signal	414	1173284	0.0-19.10-1.10	beast_fmri_test	358	1171061,/,1171741,/,1172421,/,1173101,/,1173781,/,1174460,/,1175141,/,1175820,/,1176499,/	t,t,t,t,t,t,t,t,t	<img class = center src='/static/experiments/beast_fmri_test/images/D.png'></img>	71,89	2750.0	test	<img class = center src='/static/experiments/beast_fmri_test/images/redD.png'></img>	go	2250.0	3.0	10.0	go	target	D	71,Index Finger	89,Middle Finger	500.0	500.0	2250.0	2250.0	1.0	500.0	1.0	n/a	ITI
61060	500	n/a	-1	-1	500	0.0	fixation	poldrack-single-stim	415	1177068	0.0-19.11-0.11	beast_fmri_test	358	n/a	n/a	<div class = centerbox2><div class = fixation>+</div></div>	none	500.0	test	n/a	n/a	n/a	n/a	n/a	n/a	n/a	n/a	n/a	n/a	n/a	n/a	n/a	n/a	n/a	n/a	n/a	n/a	fixation
60436.090720432345	2750	n/a	701	71	2750	625.909279568	stim	stop-signal	416	1179820	0.0-19.11-1.11	beast_fmri_test	358	1177178,/,1177859,/,1178537,/,1179218,/,1179897,/	t,t,t,t,t	<img class = center src='/static/experiments/beast_fmri_test/images/P.png'></img>	71,89	2750.0	test	<img class = center src='/static/experiments/beast_fmri_test/images/redP.png'></img>	go	2250.0	3.0	11.0	go	target	P	71,Index Finger	89,Middle Finger	500.0	500.0	2250.0	2250.0	1.0	500.0	1.0	n/a	go_stim
63186.090720432345	625.90927956767837	n/a	701	71	2750	625.909279568	stim	stop-signal	416	1179820	0.0-19.11-1.11	beast_fmri_test	358	1177178,/,1177859,/,1178537,/,1179218,/,1179897,/	t,t,t,t,t	<img class = center src='/static/experiments/beast_fmri_test/images/P.png'></img>	71,89	2750.0	test	<img class = center src='/static/experiments/beast_fmri_test/images/redP.png'></img>	go	2250.0	3.0	11.0	go	target	P	71,Index Finger	89,Middle Finger	500.0	500.0	2250.0	2250.0	1.0	500.0	1.0	n/a	ITI
64980	500	n/a	-1	-1	500	0.0	fixation	poldrack-single-stim	417	1180988	0.0-19.12-0.12	beast_fmri_test	358	1180578,/	t	<div class = centerbox2><div class = fixation>+</div></div>	none	500.0	test	n/a	n/a	n/a	n/a	n/a	n/a	n/a	n/a	n/a	n/a	n/a	n/a	n/a	n/a	n/a	n/a	n/a	n/a	fixation
64119.830425990745	2750	n/a	950	89	2750	862.169574009	stim	stop-signal	418	1183740	0.0-19.12-1.12	beast_fmri_test	358	1181256,/,1181937,/,1182617,/,1183296,/,1183976,/	t,t,t,t,t	<img class = center src='/static/experiments/beast_fmri_test/images/V.png'></img>	71,89	2750.0	test	<img class = center src='/static/experiments/beast_fmri_test/images/redV.png'></img>	go	2250.0	3.0	12.0	go	non-target	V	71,Index Finger	89,Middle Finger	500.0	500.0	2250.0	2250.0	1.0	500.0	1.0	n/a	go_stim
66869.830425990745	862.16957400915067	n/a	950	89	2750	862.169574009	stim	stop-signal	418	1183740	0.0-19.12-1.12	beast_fmri_test	358	1181256,/,1181937,/,1182617,/,1183296,/,1183976,/	t,t,t,t,t	<img class = center src='/static/experiments/beast_fmri_test/images/V.png'></img>	71,89	2750.0	test	<img class = center src='/static/experiments/beast_fmri_test/images/redV.png'></img>	go	2250.0	3.0	12.0	go	non-target	V	71,Index Finger	89,Middle Finger	500.0	500.0	2250.0	2250.0	1.0	500.0	1.0	n/a	ITI
69135	500	n/a	-1	-1	500	0.0	fixation	poldrack-single-stim	419	1185143	0.0-19.13-0.13	beast_fmri_test	358	1184658,/	t	<div class = centerbox2><div class = fixation>+</div></div>	none	500.0	test	n/a	n/a	n/a	n/a	n/a	n/a	n/a	n/a	n/a	n/a	n/a	n/a	n/a	n/a	n/a	n/a	n/a	n/a	fixation
69120.713993669022	500.0	n/a	-1	-1	2750	15.286006331	stim	stop-signal	420	1187894	0.0-19.13-1.13	beast_fmri_test	358	1185335,/,1186015,/,1186695,/,1187373,/	t,t,t,t	<img class = center src='/static/experiments/beast_fmri_test/images/V.png'></img>	71,89	2750.0	test	<img class = center src='/static/experiments/beast_fmri_test/images/redV.png'></img>	stop	2250.0	3.0	13.0	stop	non-target	V	71,Index Finger	89,Middle Finger	500.0	500.0	2250.0	2250.0	0.0	500.0	n/a	1.0	go_stim
71370.713993669022	2250.0	n/a	-1	-1	2750	15.286006331	stim	stop-signal	420	1187894	0.0-19.13-1.13	beast_fmri_test	358	1185335,/,1186015,/,1186695,/,1187373,/	t,t,t,t	<img class = center src='/static/experiments/beast_fmri_test/images/V.png'></img>	71,89	2750.0	test	<img class = center src='/static/experiments/beast_fmri_test/images/redV.png'></img>	stop	2250.0	3.0	13.0	stop	non-target	V	71,Index Finger	89,Middle Finger	500.0	500.0	2250.0	2250.0	0.0	500.0	n/a	1.0	stop_stim
71870.713993669022	15.286006331018472	n/a	-1	-1	2750	15.286006331	stim	stop-signal	420	1187894	0.0-19.13-1.13	beast_fmri_test	358	1185335,/,1186015,/,1186695,/,1187373,/	t,t,t,t	<img class = center src='/static/experiments/beast_fmri_test/images/V.png'></img>	71,89	2750.0	test	<img class = center src='/static/experiments/beast_fmri_test/images/redV.png'></img>	stop	2250.0	3.0	13.0	stop	non-target	V	71,Index Finger	89,Middle Finger	500.0	500.0	2250.0	2250.0	0.0	500.0	n/a	1.0	ITI
72443	500	n/a	-1	-1	500	0.0	fixation	poldrack-single-stim	421	1188451	0.0-19.14-0.14	beast_fmri_test	358	1188055,/	t	<div class = centerbox2><div class = fixation>+</div></div>	none	500.0	test	n/a	n/a	n/a	n/a	n/a	n/a	n/a	n/a	n/a	n/a	n/a	n/a	n/a	n/a	n/a	n/a	n/a	n/a	fixation
71104.966587547446	500.0	n/a	779	71	2750	1339.03341245	stim	stop-signal	422	1191202	0.0-19.14-1.14	beast_fmri_test	358	1188733,/,1189413,/,1190092,/,1190773,/,1191452,/,1192133,/	t,t,t,t,t,t	<img class = center src='/static/experiments/beast_fmri_test/images/P.png'></img>	71,89	2750.0	test	<img class = center src='/static/experiments/beast_fmri_test/images/redP.png'></img>	stop	2250.0	3.0	14.0	stop	target	P	71,Index Finger	89,Middle Finger	500.0	550.0	2250.0	2250.0	0.0	500.0	n/a	0.0	go_stim
73354.966587547446	2250.0	n/a	779	71	2750	1339.03341245	stim	stop-signal	422	1191202	0.0-19.14-1.14	beast_fmri_test	358	1188733,/,1189413,/,1190092,/,1190773,/,1191452,/,1192133,/	t,t,t,t,t,t	<img class = center src='/static/experiments/beast_fmri_test/images/P.png'></img>	71,89	2750.0	test	<img class = center src='/static/experiments/beast_fmri_test/images/redP.png'></img>	stop	2250.0	3.0	14.0	stop	target	P	71,Index Finger	89,Middle Finger	500.0	550.0	2250.0	2250.0	0.0	500.0	n/a	0.0	stop_stim
73854.966587547446	1339.0334124525093	n/a	779	71	2750	1339.03341245	stim	stop-signal	422	1191202	0.0-19.14-1.14	beast_fmri_test	358	1188733,/,1189413,/,1190092,/,1190773,/,1191452,/,1192133,/	t,t,t,t,t,t	<img class = center src='/static/experiments/beast_fmri_test/images/P.png'></img>	71,89	2750.0	test	<img class = center src='/static/experiments/beast_fmri_test/images/redP.png'></img>	stop	2250.0	3.0	14.0	stop	target	P	71,Index Finger	89,Middle Finger	500.0	550.0	2250.0	2250.0	0.0	500.0	n/a	0.0	ITI
77074	500	n/a	-1	-1	500	0.0	fixation	poldrack-single-stim	423	1193082	0.0-19.15-0.15	beast_fmri_test	358	1192812,/	t	<div class = centerbox2><div class = fixation>+</div></div>	none	500.0	test	n/a	n/a	n/a	n/a	n/a	n/a	n/a	n/a	n/a	n/a	n/a	n/a	n/a	n/a	n/a	n/a	n/a	n/a	fixation
76664.694550824817	2750	n/a	668	71	2750	411.305449175	stim	stop-signal	424	1195834	0.0-19.15-1.15	beast_fmri_test	358	1193490,/,1194171,/,1194850,/,1195530,/,1196209,/	t,t,t,t,t	<img class = center src='/static/experiments/beast_fmri_test/images/V.png'></img>	71,89	2750.0	test	<img class = center src='/static/experiments/beast_fmri_test/images/redV.png'></img>	go	2300.0	3.0	15.0	go	target	V	71,Index Finger	89,Middle Finger	450.0	550.0	2300.0	2250.0	1.0	450.0	1.0	n/a	go_stim
79414.694550824817	411.30544917514135	n/a	668	71	2750	411.305449175	stim	stop-signal	424	1195834	0.0-19.15-1.15	beast_fmri_test	358	1193490,/,1194171,/,1194850,/,1195530,/,1196209,/	t,t,t,t,t	<img class = center src='/static/experiments/beast_fmri_test/images/V.png'></img>	71,89	2750.0	test	<img class = center src='/static/experiments/beast_fmri_test/images/redV.png'></img>	go	2300.0	3.0	15.0	go	target	V	71,Index Finger	89,Middle Finger	450.0	550.0	2300.0	2250.0	1.0	450.0	1.0	n/a	ITI
80780	500	n/a	-1	-1	500	0.0	fixation	poldrack-single-stim	425	1196788	0.0-19.16-0.16	beast_fmri_test	358	n/a	n/a	<div class = centerbox2><div class = fixation>+</div></div>	none	500.0	test	n/a	n/a	n/a	n/a	n/a	n/a	n/a	n/a	n/a	n/a	n/a	n/a	n/a	n/a	n/a	n/a	n/a	n/a	fixation
76096.671625693096	2750	n/a	1747	71	2750	4684.32837431	stim	stop-signal	426	1199539	0.0-19.16-1.16	beast_fmri_test	358	1196890,/,1197570,/,1198249,/,1198929,/,1199609,/,1200288,/,1200969,/,1201649,/,1202328,/,1203008,/,1203688,/	t,t,t,t,t,t,t,t,t,t,t	<img class = center src='/static/experiments/beast_fmri_test/images/V.png'></img>	71,89	2750.0	test	<img class = center src='/static/experiments/beast_fmri_test/images/redV.png'></img>	go	2300.0	3.0	16.0	go	target	V	71,Index Finger	89,Middle Finger	450.0	550.0	2300.0	2250.0	1.0	450.0	1.0	n/a	go_stim
78846.671625693096	4684.328374306855	n/a	1747	71	2750	4684.32837431	stim	stop-signal	426	1199539	0.0-19.16-1.16	beast_fmri_test	358	1196890,/,1197570,/,1198249,/,1198929,/,1199609,/,1200288,/,1200969,/,1201649,/,1202328,/,1203008,/,1203688,/	t,t,t,t,t,t,t,t,t,t,t	<img class = center src='/static/experiments/beast_fmri_test/images/V.png'></img>	71,89	2750.0	test	<img class = center src='/static/experiments/beast_fmri_test/images/redV.png'></img>	go	2300.0	3.0	16.0	go	target	V	71,Index Finger	89,Middle Finger	450.0	550.0	2300.0	2250.0	1.0	450.0	1.0	n/a	ITI
88755	500	n/a	-1	-1	500	0.0	fixation	poldrack-single-stim	427	1204763	0.0-19.17-0.17	beast_fmri_test	358	1204367,/	t	<div class = centerbox2><div class = fixation>+</div></div>	none	500.0	test	n/a	n/a	n/a	n/a	n/a	n/a	n/a	n/a	n/a	n/a	n/a	n/a	n/a	n/a	n/a	n/a	n/a	n/a	fixation
88619.525006401818	2750	n/a	1429	89	2750	137.474993598	stim	stop-signal	428	1207515	0.0-19.17-1.17	beast_fmri_test	358	1205046,/,1205727,/,1206404,/,1207086,/	t,t,t,t	<img class = center src='/static/experiments/beast_fmri_test/images/B.png'></img>	71,89	2750.0	test	<img class = center src='/static/experiments/beast_fmri_test/images/redB.png'></img>	go	2200.0	3.0	17.0	go	non-target	B	71,Index Finger	89,Middle Finger	450.0	550.0	2300.0	2200.0	1.0	550.0	1.0	n/a	go_stim
91369.525006401818	137.47499359828794	n/a	1429	89	2750	137.474993598	stim	stop-signal	428	1207515	0.0-19.17-1.17	beast_fmri_test	358	1205046,/,1205727,/,1206404,/,1207086,/	t,t,t,t	<img class = center src='/static/experiments/beast_fmri_test/images/B.png'></img>	71,89	2750.0	test	<img class = center src='/static/experiments/beast_fmri_test/images/redB.png'></img>	go	2200.0	3.0	17.0	go	non-target	B	71,Index Finger	89,Middle Finger	450.0	550.0	2300.0	2200.0	1.0	550.0	1.0	n/a	ITI
92183	500	n/a	-1	-1	500	0.0	fixation	poldrack-single-stim	429	1208191	0.0-19.18-0.18	beast_fmri_test	358	1207765,/	t	<div class = centerbox2><div class = fixation>+</div></div>	none	500.0	test	n/a	n/a	n/a	n/a	n/a	n/a	n/a	n/a	n/a	n/a	n/a	n/a	n/a	n/a	n/a	n/a	n/a	n/a	fixation
89749.311635797145	550.0	n/a	-1	-1	2750	2435.6883642	stim	stop-signal	430	1210943	0.0-19.18-1.18	beast_fmri_test	358	1208445,/,1209124,/,1209803,/,1210484,/,1211162,/,1211844,/,1212523,/,1213203,/	t,t,t,t,t,t,t,t	<img class = center src='/static/experiments/beast_fmri_test/images/D.png'></img>	71,89	2750.0	test	<img class = center src='/static/experiments/beast_fmri_test/images/redD.png'></img>	stop	2200.0	3.0	18.0	stop	non-target	D	71,Index Finger	89,Middle Finger	450.0	550.0	2300.0	2200.0	0.0	550.0	n/a	1.0	go_stim
91949.311635797145	2200.0	n/a	-1	-1	2750	2435.6883642	stim	stop-signal	430	1210943	0.0-19.18-1.18	beast_fmri_test	358	1208445,/,1209124,/,1209803,/,1210484,/,1211162,/,1211844,/,1212523,/,1213203,/	t,t,t,t,t,t,t,t	<img class = center src='/static/experiments/beast_fmri_test/images/D.png'></img>	71,89	2750.0	test	<img class = center src='/static/experiments/beast_fmri_test/images/redD.png'></img>	stop	2200.0	3.0	18.0	stop	non-target	D	71,Index Finger	89,Middle Finger	450.0	550.0	2300.0	2200.0	0.0	550.0	n/a	1.0	stop_stim
92499.311635797145	2435.6883642029466	n/a	-1	-1	2750	2435.6883642	stim	stop-signal	430	1210943	0.0-19.18-1.18	beast_fmri_test	358	1208445,/,1209124,/,1209803,/,1210484,/,1211162,/,1211844,/,1212523,/,1213203,/	t,t,t,t,t,t,t,t	<img class = center src='/static/experiments/beast_fmri_test/images/D.png'></img>	71,89	2750.0	test	<img class = center src='/static/experiments/beast_fmri_test/images/redD.png'></img>	stop	2200.0	3.0	18.0	stop	non-target	D	71,Index Finger	89,Middle Finger	450.0	550.0	2300.0	2200.0	0.0	550.0	n/a	1.0	ITI
97915	500	n/a	-1	-1	500	0.0	fixation	poldrack-single-stim	431	1213923	0.0-19.19-0.19	beast_fmri_test	358	1213881,/	t	<div class = centerbox2><div class = fixation>+</div></div>	none	500.0	test	n/a	n/a	n/a	n/a	n/a	n/a	n/a	n/a	n/a	n/a	n/a	n/a	n/a	n/a	n/a	n/a	n/a	n/a	fixation
95898.540114040487	2750	n/a	1269	71	2750	2017.45988596	stim	stop-signal	432	1216674	0.0-19.19-1.19	beast_fmri_test	358	1214562,/,1215241,/,1215922,/,1216608,/,1217279,/,1217961,/,1218639,/	t,t,t,t,t,t,t	<img class = center src='/static/experiments/beast_fmri_test/images/V.png'></img>	71,89	2750.0	test	<img class = center src='/static/experiments/beast_fmri_test/images/redV.png'></img>	go	2300.0	3.0	19.0	go	target	V	71,Index Finger	89,Middle Finger	450.0	600.0	2300.0	2200.0	1.0	450.0	1.0	n/a	go_stim
98648.540114040487	2017.4598859594169	n/a	1269	71	2750	2017.45988596	stim	stop-signal	432	1216674	0.0-19.19-1.19	beast_fmri_test	358	1214562,/,1215241,/,1215922,/,1216608,/,1217279,/,1217961,/,1218639,/	t,t,t,t,t,t,t	<img class = center src='/static/experiments/beast_fmri_test/images/V.png'></img>	71,89	2750.0	test	<img class = center src='/static/experiments/beast_fmri_test/images/redV.png'></img>	go	2300.0	3.0	19.0	go	target	V	71,Index Finger	89,Middle Finger	450.0	600.0	2300.0	2200.0	1.0	450.0	1.0	n/a	ITI
103224	500	n/a	-1	-1	500	0.0	fixation	poldrack-single-stim	433	1219232	0.0-19.20-0.20	beast_fmri_test	358	n/a	n/a	<div class = centerbox2><div class = fixation>+</div></div>	none	500.0	test	n/a	n/a	n/a	n/a	n/a	n/a	n/a	n/a	n/a	n/a	n/a	n/a	n/a	n/a	n/a	n/a	n/a	n/a	fixation
103174.26436569821	2750	n/a	957	89	2750	50.7356343018	stim	stop-signal	434	1221983	0.0-19.20-1.20	beast_fmri_test	358	1219318,/,1219998,/,1220679,/,1221358,/	t,t,t,t	<img class = center src='/static/experiments/beast_fmri_test/images/T.png'></img>	71,89	2750.0	test	<img class = center src='/static/experiments/beast_fmri_test/images/redT.png'></img>	go	2150.0	3.0	20.0	go	non-target	T	71,Index Finger	89,Middle Finger	450.0	600.0	2300.0	2150.0	1.0	600.0	1.0	n/a	go_stim
105924.26436569821	50.735634301795187	n/a	957	89	2750	50.7356343018	stim	stop-signal	434	1221983	0.0-19.20-1.20	beast_fmri_test	358	1219318,/,1219998,/,1220679,/,1221358,/	t,t,t,t	<img class = center src='/static/experiments/beast_fmri_test/images/T.png'></img>	71,89	2750.0	test	<img class = center src='/static/experiments/beast_fmri_test/images/redT.png'></img>	go	2150.0	3.0	20.0	go	non-target	T	71,Index Finger	89,Middle Finger	450.0	600.0	2300.0	2150.0	1.0	600.0	1.0	n/a	ITI
106568	500	n/a	-1	-1	500	0.0	fixation	poldrack-single-stim	435	1222576	0.0-19.21-0.21	beast_fmri_test	358	1222074,/	t	<div class = centerbox2><div class = fixation>+</div></div>	none	500.0	test	n/a	n/a	n/a	n/a	n/a	n/a	n/a	n/a	n/a	n/a	n/a	n/a	n/a	n/a	n/a	n/a	n/a	n/a	fixation
102194.43616610207	600.0	n/a	2156	89	2750	4374.5638339	stim	stop-signal	436	1225327	0.0-19.21-1.21	beast_fmri_test	358	1222718,/,1223396,/,1224076,/,1224756,/,1225436,/,1226117,/,1226796,/,1227476,/,1228156,/,1228835,/,1229514,/	t,t,t,t,t,t,t,t,t,t,t	<img class = center src='/static/experiments/beast_fmri_test/images/P.png'></img>	71,89	2750.0	test	<img class = center src='/static/experiments/beast_fmri_test/images/redP.png'></img>	stop	2150.0	3.0	21.0	stop	non-target	P	71,Index Finger	89,Middle Finger	450.0	600.0	2300.0	2150.0	0.0	600.0	n/a	0.0	go_stim
104344.43616610207	2150.0	n/a	2156	89	2750	4374.5638339	stim	stop-signal	436	1225327	0.0-19.21-1.21	beast_fmri_test	358	1222718,/,1223396,/,1224076,/,1224756,/,1225436,/,1226117,/,1226796,/,1227476,/,1228156,/,1228835,/,1229514,/	t,t,t,t,t,t,t,t,t,t,t	<img class = center src='/static/experiments/beast_fmri_test/images/P.png'></img>	71,89	2750.0	test	<img class = center src='/static/experiments/beast_fmri_test/images/redP.png'></img>	stop	2150.0	3.0	21.0	stop	non-target	P	71,Index Finger	89,Middle Finger	450.0	600.0	2300.0	2150.0	0.0	600.0	n/a	0.0	stop_stim
104944.43616610207	4374.5638338978788	n/a	2156	89	2750	4374.5638339	stim	stop-signal	436	1225327	0.0-19.21-1.21	beast_fmri_test	358	1222718,/,1223396,/,1224076,/,1224756,/,1225436,/,1226117,/,1226796,/,1227476,/,1228156,/,1228835,/,1229514,/	t,t,t,t,t,t,t,t,t,t,t	<img class = center src='/static/experiments/beast_fmri_test/images/P.png'></img>	71,89	2750.0	test	<img class = center src='/static/experiments/beast_fmri_test/images/redP.png'></img>	stop	2150.0	3.0	21.0	stop	non-target	P	71,Index Finger	89,Middle Finger	450.0	600.0	2300.0	2150.0	0.0	600.0	n/a	0.0	ITI
114232	500	n/a	-1	-1	500	0.0	fixation	poldrack-single-stim	437	1230240	0.0-19.22-0.22	beast_fmri_test	358	1230194,/	t	<div class = centerbox2><div class = fixation>+</div></div>	none	500.0	test	n/a	n/a	n/a	n/a	n/a	n/a	n/a	n/a	n/a	n/a	n/a	n/a	n/a	n/a	n/a	n/a	n/a	n/a	fixation
113446.69691233779	2750	n/a	1130	89	2750	786.303087662	stim	stop-signal	438	1232991	0.0-19.22-1.22	beast_fmri_test	358	1230875,/,1231555,/,1232234,/,1232914,/,1233592,/	t,t,t,t,t	<img class = center src='/static/experiments/beast_fmri_test/images/D.png'></img>	71,89	2750.0	test	<img class = center src='/static/experiments/beast_fmri_test/images/redD.png'></img>	go	2200.0	3.0	22.0	go	non-target	D	71,Index Finger	89,Middle Finger	450.0	550.0	2300.0	2200.0	1.0	550.0	1.0	n/a	go_stim
116196.69691233779	786.30308766216365	n/a	1130	89	2750	786.303087662	stim	stop-signal	438	1232991	0.0-19.22-1.22	beast_fmri_test	358	1230875,/,1231555,/,1232234,/,1232914,/,1233592,/	t,t,t,t,t	<img class = center src='/static/experiments/beast_fmri_test/images/D.png'></img>	71,89	2750.0	test	<img class = center src='/static/experiments/beast_fmri_test/images/redD.png'></img>	go	2200.0	3.0	22.0	go	non-target	D	71,Index Finger	89,Middle Finger	450.0	550.0	2300.0	2200.0	1.0	550.0	1.0	n/a	ITI
118315	500	n/a	-1	-1	500	0.0	fixation	poldrack-single-stim	439	1234323	0.0-19.23-0.23	beast_fmri_test	358	1234274,/	t	<div class = centerbox2><div class = fixation>+</div></div>	none	500.0	test	n/a	n/a	n/a	n/a	n/a	n/a	n/a	n/a	n/a	n/a	n/a	n/a	n/a	n/a	n/a	n/a	n/a	n/a	fixation
118104.78755044634	550.0	n/a	2039	71	2750	212.212449554	stim	stop-signal	440	1237075	0.0-19.23-1.23	beast_fmri_test	358	1234951,/,1235633,/,1236311,/,1236992,/	t,t,t,t	<img class = center src='/static/experiments/beast_fmri_test/images/V.png'></img>	71,89	2750.0	test	<img class = center src='/static/experiments/beast_fmri_test/images/redV.png'></img>	stop	2200.0	3.0	23.0	stop	non-target	V	71,Index Finger	89,Middle Finger	450.0	550.0	2300.0	2200.0	0.0	550.0	n/a	0.0	go_stim
120304.78755044634	2200.0	n/a	2039	71	2750	212.212449554	stim	stop-signal	440	1237075	0.0-19.23-1.23	beast_fmri_test	358	1234951,/,1235633,/,1236311,/,1236992,/	t,t,t,t	<img class = center src='/static/experiments/beast_fmri_test/images/V.png'></img>	71,89	2750.0	test	<img class = center src='/static/experiments/beast_fmri_test/images/redV.png'></img>	stop	2200.0	3.0	23.0	stop	non-target	V	71,Index Finger	89,Middle Finger	450.0	550.0	2300.0	2200.0	0.0	550.0	n/a	0.0	stop_stim
120854.78755044634	212.2124495537299	n/a	2039	71	2750	212.212449554	stim	stop-signal	440	1237075	0.0-19.23-1.23	beast_fmri_test	358	1234951,/,1235633,/,1236311,/,1236992,/	t,t,t,t	<img class = center src='/static/experiments/beast_fmri_test/images/V.png'></img>	71,89	2750.0	test	<img class = center src='/static/experiments/beast_fmri_test/images/redV.png'></img>	stop	2200.0	3.0	23.0	stop	non-target	V	71,Index Finger	89,Middle Finger	450.0	550.0	2300.0	2200.0	0.0	550.0	n/a	0.0	ITI
121826	500	n/a	-1	-1	500	0.0	fixation	poldrack-single-stim	441	1237834	0.0-19.24-0.24	beast_fmri_test	358	1237670,/	t	<div class = centerbox2><div class = fixation>+</div></div>	none	500.0	test	n/a	n/a	n/a	n/a	n/a	n/a	n/a	n/a	n/a	n/a	n/a	n/a	n/a	n/a	n/a	n/a	n/a	n/a	fixation
121609.59941630135	500.0	n/a	-1	-1	2750	218.400583699	stim	stop-signal	442	1240586	0.0-19.24-1.24	beast_fmri_test	358	1238349,/,1239031,/,1239710,/,1240390,/	t,t,t,t	<img class = center src='/static/experiments/beast_fmri_test/images/B.png'></img>	71,89	2750.0	test	<img class = center src='/static/experiments/beast_fmri_test/images/redB.png'></img>	stop	2250.0	3.0	24.0	stop	non-target	B	71,Index Finger	89,Middle Finger	450.0	500.0	2300.0	2250.0	0.0	500.0	n/a	1.0	go_stim
123859.59941630135	2250.0	n/a	-1	-1	2750	218.400583699	stim	stop-signal	442	1240586	0.0-19.24-1.24	beast_fmri_test	358	1238349,/,1239031,/,1239710,/,1240390,/	t,t,t,t	<img class = center src='/static/experiments/beast_fmri_test/images/B.png'></img>	71,89	2750.0	test	<img class = center src='/static/experiments/beast_fmri_test/images/redB.png'></img>	stop	2250.0	3.0	24.0	stop	non-target	B	71,Index Finger	89,Middle Finger	450.0	500.0	2300.0	2250.0	0.0	500.0	n/a	1.0	stop_stim
124359.59941630135	218.40058369853841	n/a	-1	-1	2750	218.400583699	stim	stop-signal	442	1240586	0.0-19.24-1.24	beast_fmri_test	358	1238349,/,1239031,/,1239710,/,1240390,/	t,t,t,t	<img class = center src='/static/experiments/beast_fmri_test/images/B.png'></img>	71,89	2750.0	test	<img class = center src='/static/experiments/beast_fmri_test/images/redB.png'></img>	stop	2250.0	3.0	24.0	stop	non-target	B	71,Index Finger	89,Middle Finger	450.0	500.0	2300.0	2250.0	0.0	500.0	n/a	1.0	ITI
125341	500	n/a	-1	-1	500	0.0	fixation	poldrack-single-stim	443	1241349	0.0-19.25-0.25	beast_fmri_test	358	1241070,/	t	<div class = centerbox2><div class = fixation>+</div></div>	none	500.0	test	n/a	n/a	n/a	n/a	n/a	n/a	n/a	n/a	n/a	n/a	n/a	n/a	n/a	n/a	n/a	n/a	n/a	n/a	fixation
122220.5478028676	2750	n/a	742	89	2750	3122.45219713	stim	stop-signal	444	1244101	0.0-19.25-1.25	beast_fmri_test	358	1241748,/,1242429,/,1243108,/,1243789,/,1244469,/,1245149,/,1245828,/,1246507,/,1247187,/	t,t,t,t,t,t,t,t,t	<img class = center src='/static/experiments/beast_fmri_test/images/T.png'></img>	71,89	2750.0	test	<img class = center src='/static/experiments/beast_fmri_test/images/redT.png'></img>	go	2200.0	3.0	25.0	go	non-target	T	71,Index Finger	89,Middle Finger	450.0	550.0	2300.0	2200.0	1.0	550.0	1.0	n/a	go_stim
124970.5478028676	3122.4521971322997	n/a	742	89	2750	3122.45219713	stim	stop-signal	444	1244101	0.0-19.25-1.25	beast_fmri_test	358	1241748,/,1242429,/,1243108,/,1243789,/,1244469,/,1245149,/,1245828,/,1246507,/,1247187,/	t,t,t,t,t,t,t,t,t	<img class = center src='/static/experiments/beast_fmri_test/images/T.png'></img>	71,89	2750.0	test	<img class = center src='/static/experiments/beast_fmri_test/images/redT.png'></img>	go	2200.0	3.0	25.0	go	non-target	T	71,Index Finger	89,Middle Finger	450.0	550.0	2300.0	2200.0	1.0	550.0	1.0	n/a	ITI
131756	500	n/a	-1	-1	500	0.0	fixation	poldrack-single-stim	445	1247764	0.0-19.26-0.26	beast_fmri_test	358	n/a	n/a	<div class = centerbox2><div class = fixation>+</div></div>	none	500.0	test	n/a	n/a	n/a	n/a	n/a	n/a	n/a	n/a	n/a	n/a	n/a	n/a	n/a	n/a	n/a	n/a	n/a	n/a	fixation
130041.6916336806	2750	n/a	1845	89	2750	1714.30836632	stim	stop-signal	446	1250514	0.0-19.26-1.26	beast_fmri_test	358	1247866,/,1248547,/,1249226,/,1249906,/,1250585,/,1251265,/,1251945,/	t,t,t,t,t,t,t	<img class = center src='/static/experiments/beast_fmri_test/images/V.png'></img>	71,89	2750.0	test	<img class = center src='/static/experiments/beast_fmri_test/images/redV.png'></img>	go	2300.0	3.0	26.0	go	target	V	71,Index Finger	89,Middle Finger	450.0	550.0	2300.0	2200.0	0.0	450.0	0.0	n/a	go_stim
132791.6916336806	1714.3083663194006	n/a	1845	89	2750	1714.30836632	stim	stop-signal	446	1250514	0.0-19.26-1.26	beast_fmri_test	358	1247866,/,1248547,/,1249226,/,1249906,/,1250585,/,1251265,/,1251945,/	t,t,t,t,t,t,t	<img class = center src='/static/experiments/beast_fmri_test/images/V.png'></img>	71,89	2750.0	test	<img class = center src='/static/experiments/beast_fmri_test/images/redV.png'></img>	go	2300.0	3.0	26.0	go	target	V	71,Index Finger	89,Middle Finger	450.0	550.0	2300.0	2200.0	0.0	450.0	0.0	n/a	ITI
136767	500	n/a	-1	-1	500	0.0	fixation	poldrack-single-stim	447	1252775	0.0-19.27-0.27	beast_fmri_test	358	1252625,/	t	<div class = centerbox2><div class = fixation>+</div></div>	none	500.0	test	n/a	n/a	n/a	n/a	n/a	n/a	n/a	n/a	n/a	n/a	n/a	n/a	n/a	n/a	n/a	n/a	n/a	n/a	fixation
136210.62323964084	2750	n/a	1316	89	2750	556.376760359	stim	stop-signal	448	1255525	0.0-19.27-1.27	beast_fmri_test	358	1253304,/,1253984,/,1254664,/,1255342,/,1256024,/	t,t,t,t,t	<img class = center src='/static/experiments/beast_fmri_test/images/P.png'></img>	71,89	2750.0	test	<img class = center src='/static/experiments/beast_fmri_test/images/redP.png'></img>	go	2200.0	3.0	27.0	go	non-target	P	71,Index Finger	89,Middle Finger	450.0	550.0	2300.0	2200.0	1.0	550.0	1.0	n/a	go_stim
138960.62323964084	556.37676035916149	n/a	1316	89	2750	556.376760359	stim	stop-signal	448	1255525	0.0-19.27-1.27	beast_fmri_test	358	1253304,/,1253984,/,1254664,/,1255342,/,1256024,/	t,t,t,t,t	<img class = center src='/static/experiments/beast_fmri_test/images/P.png'></img>	71,89	2750.0	test	<img class = center src='/static/experiments/beast_fmri_test/images/redP.png'></img>	go	2200.0	3.0	27.0	go	non-target	P	71,Index Finger	89,Middle Finger	450.0	550.0	2300.0	2200.0	1.0	550.0	1.0	n/a	ITI
140620	500	n/a	-1	-1	500	0.0	fixation	poldrack-single-stim	449	1256628	0.0-19.28-0.28	beast_fmri_test	358	n/a	n/a	<div class = centerbox2><div class = fixation>+</div></div>	none	500.0	test	n/a	n/a	n/a	n/a	n/a	n/a	n/a	n/a	n/a	n/a	n/a	n/a	n/a	n/a	n/a	n/a	n/a	n/a	fixation
139608.47997793625	450.0	n/a	681	89	2750	1013.52002206	stim	stop-signal	450	1259380	0.0-19.28-1.28	beast_fmri_test	358	1256703,/,1257383,/,1258062,/,1258743,/,1259421,/,1260102,/	t,t,t,t,t,t	<img class = center src='/static/experiments/beast_fmri_test/images/T.png'></img>	71,89	2750.0	test	<img class = center src='/static/experiments/beast_fmri_test/images/redT.png'></img>	stop	2300.0	3.0	28.0	stop	target	T	71,Index Finger	89,Middle Finger	450.0	550.0	2300.0	2200.0	0.0	450.0	n/a	0.0	go_stim
141908.47997793625	2300.0	n/a	681	89	2750	1013.52002206	stim	stop-signal	450	1259380	0.0-19.28-1.28	beast_fmri_test	358	1256703,/,1257383,/,1258062,/,1258743,/,1259421,/,1260102,/	t,t,t,t,t,t	<img class = center src='/static/experiments/beast_fmri_test/images/T.png'></img>	71,89	2750.0	test	<img class = center src='/static/experiments/beast_fmri_test/images/redT.png'></img>	stop	2300.0	3.0	28.0	stop	target	T	71,Index Finger	89,Middle Finger	450.0	550.0	2300.0	2200.0	0.0	450.0	n/a	0.0	stop_stim
142358.47997793625	1013.5200220637787	n/a	681	89	2750	1013.52002206	stim	stop-signal	450	1259380	0.0-19.28-1.28	beast_fmri_test	358	1256703,/,1257383,/,1258062,/,1258743,/,1259421,/,1260102,/	t,t,t,t,t,t	<img class = center src='/static/experiments/beast_fmri_test/images/T.png'></img>	71,89	2750.0	test	<img class = center src='/static/experiments/beast_fmri_test/images/redT.png'></img>	stop	2300.0	3.0	28.0	stop	target	T	71,Index Finger	89,Middle Finger	450.0	550.0	2300.0	2200.0	0.0	450.0	n/a	0.0	ITI
144930	500	n/a	-1	-1	500	0.0	fixation	poldrack-single-stim	451	1260938	0.0-19.29-0.29	beast_fmri_test	358	1260780,/	t	<div class = centerbox2><div class = fixation>+</div></div>	none	500.0	test	n/a	n/a	n/a	n/a	n/a	n/a	n/a	n/a	n/a	n/a	n/a	n/a	n/a	n/a	n/a	n/a	n/a	n/a	fixation
144353.55400277418	2750	n/a	811	89	2750	577.445997226	stim	stop-signal	452	1263689	0.0-19.29-1.29	beast_fmri_test	358	1261461,/,1262140,/,1262821,/,1263500,/,1264179,/	t,t,t,t,t	<img class = center src='/static/experiments/beast_fmri_test/images/P.png'></img>	71,89	2750.0	test	<img class = center src='/static/experiments/beast_fmri_test/images/redP.png'></img>	go	2200.0	3.0	29.0	go	non-target	P	71,Index Finger	89,Middle Finger	400.0	550.0	2300.0	2200.0	1.0	550.0	1.0	n/a	go_stim
147103.55400277418	577.44599722589749	n/a	811	89	2750	577.445997226	stim	stop-signal	452	1263689	0.0-19.29-1.29	beast_fmri_test	358	1261461,/,1262140,/,1262821,/,1263500,/,1264179,/	t,t,t,t,t	<img class = center src='/static/experiments/beast_fmri_test/images/P.png'></img>	71,89	2750.0	test	<img class = center src='/static/experiments/beast_fmri_test/images/redP.png'></img>	go	2200.0	3.0	29.0	go	non-target	P	71,Index Finger	89,Middle Finger	400.0	550.0	2300.0	2200.0	1.0	550.0	1.0	n/a	ITI
148814	500	n/a	-1	-1	500	0.0	fixation	poldrack-single-stim	453	1264822	0.0-19.30-0.30	beast_fmri_test	358	n/a	n/a	<div class = centerbox2><div class = fixation>+</div></div>	none	500.0	test	n/a	n/a	n/a	n/a	n/a	n/a	n/a	n/a	n/a	n/a	n/a	n/a	n/a	n/a	n/a	n/a	n/a	n/a	fixation
148279.48214920145	2750	n/a	738	71	2750	535.517850799	stim	stop-signal	454	1267573	0.0-19.30-1.30	beast_fmri_test	358	1264859,/,1265539,/,1266218,/,1266897,/,1267578,/	t,t,t,t,t	<img class = center src='/static/experiments/beast_fmri_test/images/T.png'></img>	71,89	2750.0	test	<img class = center src='/static/experiments/beast_fmri_test/images/redT.png'></img>	go	2200.0	3.0	30.0	go	non-target	T	71,Index Finger	89,Middle Finger	400.0	550.0	2300.0	2200.0	0.0	550.0	0.0	n/a	go_stim
151029.48214920145	535.51785079859189	n/a	738	71	2750	535.517850799	stim	stop-signal	454	1267573	0.0-19.30-1.30	beast_fmri_test	358	1264859,/,1265539,/,1266218,/,1266897,/,1267578,/	t,t,t,t,t	<img class = center src='/static/experiments/beast_fmri_test/images/T.png'></img>	71,89	2750.0	test	<img class = center src='/static/experiments/beast_fmri_test/images/redT.png'></img>	go	2200.0	3.0	30.0	go	non-target	T	71,Index Finger	89,Middle Finger	400.0	550.0	2300.0	2200.0	0.0	550.0	0.0	n/a	ITI
152648	500	n/a	-1	-1	500	0.0	fixation	poldrack-single-stim	455	1268656	0.0-19.31-0.31	beast_fmri_test	358	1268257,/	t	<div class = centerbox2><div class = fixation>+</div></div>	none	500.0	test	n/a	n/a	n/a	n/a	n/a	n/a	n/a	n/a	n/a	n/a	n/a	n/a	n/a	n/a	n/a	n/a	n/a	n/a	fixation
151363.31773545546	550.0	n/a	-1	-1	2750	1286.68226454	stim	stop-signal	456	1271408	0.0-19.31-1.31	beast_fmri_test	358	1268938,/,1269616,/,1270297,/,1270976,/,1271656,/,1272336,/	t,t,t,t,t,t	<img class = center src='/static/experiments/beast_fmri_test/images/V.png'></img>	71,89	2750.0	test	<img class = center src='/static/experiments/beast_fmri_test/images/redV.png'></img>	stop	2200.0	3.0	31.0	stop	non-target	V	71,Index Finger	89,Middle Finger	400.0	550.0	2300.0	2200.0	0.0	550.0	n/a	1.0	go_stim
153563.31773545546	2200.0	n/a	-1	-1	2750	1286.68226454	stim	stop-signal	456	1271408	0.0-19.31-1.31	beast_fmri_test	358	1268938,/,1269616,/,1270297,/,1270976,/,1271656,/,1272336,/	t,t,t,t,t,t	<img class = center src='/static/experiments/beast_fmri_test/images/V.png'></img>	71,89	2750.0	test	<img class = center src='/static/experiments/beast_fmri_test/images/redV.png'></img>	stop	2200.0	3.0	31.0	stop	non-target	V	71,Index Finger	89,Middle Finger	400.0	550.0	2300.0	2200.0	0.0	550.0	n/a	1.0	stop_stim
154113.31773545546	1286.6822645445202	n/a	-1	-1	2750	1286.68226454	stim	stop-signal	456	1271408	0.0-19.31-1.31	beast_fmri_test	358	1268938,/,1269616,/,1270297,/,1270976,/,1271656,/,1272336,/	t,t,t,t,t,t	<img class = center src='/static/experiments/beast_fmri_test/images/V.png'></img>	71,89	2750.0	test	<img class = center src='/static/experiments/beast_fmri_test/images/redV.png'></img>	stop	2200.0	3.0	31.0	stop	non-target	V	71,Index Finger	89,Middle Finger	400.0	550.0	2300.0	2200.0	0.0	550.0	n/a	1.0	ITI
157234	500	n/a	-1	-1	500	0.0	fixation	poldrack-single-stim	457	1273242	0.0-19.32-0.32	beast_fmri_test	358	1273016,/	t	<div class = centerbox2><div class = fixation>+</div></div>	none	500.0	test	n/a	n/a	n/a	n/a	n/a	n/a	n/a	n/a	n/a	n/a	n/a	n/a	n/a	n/a	n/a	n/a	n/a	n/a	fixation
156802.70765919168	600.0	n/a	-1	-1	2750	433.292340808	stim	stop-signal	458	1275994	0.0-19.32-1.32	beast_fmri_test	358	1273695,/,1274373,/,1275055,/,1275734,/,1276414,/	t,t,t,t,t	<img class = center src='/static/experiments/beast_fmri_test/images/B.png'></img>	71,89	2750.0	test	<img class = center src='/static/experiments/beast_fmri_test/images/redB.png'></img>	stop	2150.0	3.0	32.0	stop	non-target	B	71,Index Finger	89,Middle Finger	400.0	600.0	2300.0	2150.0	0.0	600.0	n/a	1.0	go_stim
158952.70765919168	2150.0	n/a	-1	-1	2750	433.292340808	stim	stop-signal	458	1275994	0.0-19.32-1.32	beast_fmri_test	358	1273695,/,1274373,/,1275055,/,1275734,/,1276414,/	t,t,t,t,t	<img class = center src='/static/experiments/beast_fmri_test/images/B.png'></img>	71,89	2750.0	test	<img class = center src='/static/experiments/beast_fmri_test/images/redB.png'></img>	stop	2150.0	3.0	32.0	stop	non-target	B	71,Index Finger	89,Middle Finger	400.0	600.0	2300.0	2150.0	0.0	600.0	n/a	1.0	stop_stim
159552.70765919168	433.29234080839637	n/a	-1	-1	2750	433.292340808	stim	stop-signal	458	1275994	0.0-19.32-1.32	beast_fmri_test	358	1273695,/,1274373,/,1275055,/,1275734,/,1276414,/	t,t,t,t,t	<img class = center src='/static/experiments/beast_fmri_test/images/B.png'></img>	71,89	2750.0	test	<img class = center src='/static/experiments/beast_fmri_test/images/redB.png'></img>	stop	2150.0	3.0	32.0	stop	non-target	B	71,Index Finger	89,Middle Finger	400.0	600.0	2300.0	2150.0	0.0	600.0	n/a	1.0	ITI
160972	500	n/a	-1	-1	500	0.0	fixation	poldrack-single-stim	459	1276980	0.0-19.33-0.33	beast_fmri_test	358	n/a	n/a	<div class = centerbox2><div class = fixation>+</div></div>	none	500.0	test	n/a	n/a	n/a	n/a	n/a	n/a	n/a	n/a	n/a	n/a	n/a	n/a	n/a	n/a	n/a	n/a	n/a	n/a	fixation
157709.0062760883	2750	n/a	1628	89	2750	3265.99372391	stim	stop-signal	460	1279733	0.0-19.33-1.33	beast_fmri_test	358	1277093,/,1277773,/,1278452,/,1279133,/,1279811,/,1280492,/,1281171,/,1281851,/,1282531,/	t,t,t,t,t,t,t,t,t	<img class = center src='/static/experiments/beast_fmri_test/images/V.png'></img>	71,89	2750.0	test	<img class = center src='/static/experiments/beast_fmri_test/images/redV.png'></img>	go	2100.0	3.0	33.0	go	non-target	V	71,Index Finger	89,Middle Finger	400.0	650.0	2300.0	2100.0	1.0	650.0	1.0	n/a	go_stim
160459.0062760883	3265.9937239117103	n/a	1628	89	2750	3265.99372391	stim	stop-signal	460	1279733	0.0-19.33-1.33	beast_fmri_test	358	1277093,/,1277773,/,1278452,/,1279133,/,1279811,/,1280492,/,1281171,/,1281851,/,1282531,/	t,t,t,t,t,t,t,t,t	<img class = center src='/static/experiments/beast_fmri_test/images/V.png'></img>	71,89	2750.0	test	<img class = center src='/static/experiments/beast_fmri_test/images/redV.png'></img>	go	2100.0	3.0	33.0	go	non-target	V	71,Index Finger	89,Middle Finger	400.0	650.0	2300.0	2100.0	1.0	650.0	1.0	n/a	ITI
167538	500	n/a	-1	-1	500	0.0	fixation	poldrack-single-stim	461	1283546	0.0-19.34-0.34	beast_fmri_test	358	1283211,/	t	<div class = centerbox2><div class = fixation>+</div></div>	none	500.0	test	n/a	n/a	n/a	n/a	n/a	n/a	n/a	n/a	n/a	n/a	n/a	n/a	n/a	n/a	n/a	n/a	n/a	n/a	fixation
167066.67763806414	650.0	n/a	895	89	2750	472.322361936	stim	stop-signal	462	1286297	0.0-19.34-1.34	beast_fmri_test	358	1283891,/,1284569,/,1285250,/,1285929,/,1286610,/	t,t,t,t,t	<img class = center src='/static/experiments/beast_fmri_test/images/P.png'></img>	71,89	2750.0	test	<img class = center src='/static/experiments/beast_fmri_test/images/redP.png'></img>	stop	2100.0	3.0	34.0	stop	non-target	P	71,Index Finger	89,Middle Finger	400.0	650.0	2300.0	2100.0	0.0	650.0	n/a	0.0	go_stim
169166.67763806414	2100.0	n/a	895	89	2750	472.322361936	stim	stop-signal	462	1286297	0.0-19.34-1.34	beast_fmri_test	358	1283891,/,1284569,/,1285250,/,1285929,/,1286610,/	t,t,t,t,t	<img class = center src='/static/experiments/beast_fmri_test/images/P.png'></img>	71,89	2750.0	test	<img class = center src='/static/experiments/beast_fmri_test/images/redP.png'></img>	stop	2100.0	3.0	34.0	stop	non-target	P	71,Index Finger	89,Middle Finger	400.0	650.0	2300.0	2100.0	0.0	650.0	n/a	0.0	stop_stim
169816.67763806414	472.32236193596435	n/a	895	89	2750	472.322361936	stim	stop-signal	462	1286297	0.0-19.34-1.34	beast_fmri_test	358	1283891,/,1284569,/,1285250,/,1285929,/,1286610,/	t,t,t,t,t	<img class = center src='/static/experiments/beast_fmri_test/images/P.png'></img>	71,89	2750.0	test	<img class = center src='/static/experiments/beast_fmri_test/images/redP.png'></img>	stop	2100.0	3.0	34.0	stop	non-target	P	71,Index Finger	89,Middle Finger	400.0	650.0	2300.0	2100.0	0.0	650.0	n/a	0.0	ITI
171310	500	n/a	-1	-1	500	0.0	fixation	poldrack-single-stim	463	1287318	0.0-19.35-0.35	beast_fmri_test	358	1287288,/	t	<div class = centerbox2><div class = fixation>+</div></div>	none	500.0	test	n/a	n/a	n/a	n/a	n/a	n/a	n/a	n/a	n/a	n/a	n/a	n/a	n/a	n/a	n/a	n/a	n/a	n/a	fixation
169665.365480026	600.0	n/a	-1	-1	2750	1646.63451997	stim	stop-signal	464	1290070	0.0-19.35-1.35	beast_fmri_test	358	1287969,/,1288647,/,1289328,/,1290007,/,1290688,/,1291367,/	t,t,t,t,t,t	<img class = center src='/static/experiments/beast_fmri_test/images/P.png'></img>	71,89	2750.0	test	<img class = center src='/static/experiments/beast_fmri_test/images/redP.png'></img>	stop	2150.0	3.0	35.0	stop	non-target	P	71,Index Finger	89,Middle Finger	400.0	600.0	2300.0	2150.0	0.0	600.0	n/a	1.0	go_stim
171815.365480026	2150.0	n/a	-1	-1	2750	1646.63451997	stim	stop-signal	464	1290070	0.0-19.35-1.35	beast_fmri_test	358	1287969,/,1288647,/,1289328,/,1290007,/,1290688,/,1291367,/	t,t,t,t,t,t	<img class = center src='/static/experiments/beast_fmri_test/images/P.png'></img>	71,89	2750.0	test	<img class = center src='/static/experiments/beast_fmri_test/images/redP.png'></img>	stop	2150.0	3.0	35.0	stop	non-target	P	71,Index Finger	89,Middle Finger	400.0	600.0	2300.0	2150.0	0.0	600.0	n/a	1.0	stop_stim
172415.365480026	1646.6345199740977	n/a	-1	-1	2750	1646.63451997	stim	stop-signal	464	1290070	0.0-19.35-1.35	beast_fmri_test	358	1287969,/,1288647,/,1289328,/,1290007,/,1290688,/,1291367,/	t,t,t,t,t,t	<img class = center src='/static/experiments/beast_fmri_test/images/P.png'></img>	71,89	2750.0	test	<img class = center src='/static/experiments/beast_fmri_test/images/redP.png'></img>	stop	2150.0	3.0	35.0	stop	non-target	P	71,Index Finger	89,Middle Finger	400.0	600.0	2300.0	2150.0	0.0	600.0	n/a	1.0	ITI
176256	500	n/a	-1	-1	500	0.0	fixation	poldrack-single-stim	465	1292264	0.0-19.36-0.36	beast_fmri_test	358	1292046,/	t	<div class = centerbox2><div class = fixation>+</div></div>	none	500.0	test	n/a	n/a	n/a	n/a	n/a	n/a	n/a	n/a	n/a	n/a	n/a	n/a	n/a	n/a	n/a	n/a	n/a	n/a	fixation
175094.3619398817	2750	n/a	1586	89	2750	1163.63806012	stim	stop-signal	466	1295016	0.0-19.36-1.36	beast_fmri_test	358	1292727,/,1293406,/,1294087,/,1294764,/,1295445,/,1296124,/	t,t,t,t,t,t	<img class = center src='/static/experiments/beast_fmri_test/images/B.png'></img>	71,89	2750.0	test	<img class = center src='/static/experiments/beast_fmri_test/images/redB.png'></img>	go	2100.0	3.0	36.0	go	non-target	B	71,Index Finger	89,Middle Finger	400.0	650.0	2300.0	2100.0	1.0	650.0	1.0	n/a	go_stim
177844.3619398817	1163.6380601182507	n/a	1586	89	2750	1163.63806012	stim	stop-signal	466	1295016	0.0-19.36-1.36	beast_fmri_test	358	1292727,/,1293406,/,1294087,/,1294764,/,1295445,/,1296124,/	t,t,t,t,t,t	<img class = center src='/static/experiments/beast_fmri_test/images/B.png'></img>	71,89	2750.0	test	<img class = center src='/static/experiments/beast_fmri_test/images/redB.png'></img>	go	2100.0	3.0	36.0	go	non-target	B	71,Index Finger	89,Middle Finger	400.0	650.0	2300.0	2100.0	1.0	650.0	1.0	n/a	ITI
180721	500	n/a	-1	-1	500	0.0	fixation	poldrack-single-stim	467	1296729	0.0-19.37-0.37	beast_fmri_test	358	n/a	n/a	<div class = centerbox2><div class = fixation>+</div></div>	none	500.0	test	n/a	n/a	n/a	n/a	n/a	n/a	n/a	n/a	n/a	n/a	n/a	n/a	n/a	n/a	n/a	n/a	n/a	n/a	fixation
180412.09557551611	400.0	n/a	-1	-1	2750	310.904424484	stim	stop-signal	468	1299481	0.0-19.37-1.37	beast_fmri_test	358	1296806,/,1297483,/,1298164,/,1298843,/,1299523,/	t,t,t,t,t	<img class = center src='/static/experiments/beast_fmri_test/images/P.png'></img>	71,89	2750.0	test	<img class = center src='/static/experiments/beast_fmri_test/images/redP.png'></img>	stop	2350.0	3.0	37.0	stop	target	P	71,Index Finger	89,Middle Finger	400.0	650.0	2350.0	2100.0	0.0	400.0	n/a	1.0	go_stim
182762.09557551611	2350.0	n/a	-1	-1	2750	310.904424484	stim	stop-signal	468	1299481	0.0-19.37-1.37	beast_fmri_test	358	1296806,/,1297483,/,1298164,/,1298843,/,1299523,/	t,t,t,t,t	<img class = center src='/static/experiments/beast_fmri_test/images/P.png'></img>	71,89	2750.0	test	<img class = center src='/static/experiments/beast_fmri_test/images/redP.png'></img>	stop	2350.0	3.0	37.0	stop	target	P	71,Index Finger	89,Middle Finger	400.0	650.0	2350.0	2100.0	0.0	400.0	n/a	1.0	stop_stim
183162.09557551611	310.90442448377695	n/a	-1	-1	2750	310.904424484	stim	stop-signal	468	1299481	0.0-19.37-1.37	beast_fmri_test	358	1296806,/,1297483,/,1298164,/,1298843,/,1299523,/	t,t,t,t,t	<img class = center src='/static/experiments/beast_fmri_test/images/P.png'></img>	71,89	2750.0	test	<img class = center src='/static/experiments/beast_fmri_test/images/redP.png'></img>	stop	2350.0	3.0	37.0	stop	target	P	71,Index Finger	89,Middle Finger	400.0	650.0	2350.0	2100.0	0.0	400.0	n/a	1.0	ITI
184332	500	n/a	-1	-1	500	0.0	fixation	poldrack-single-stim	469	1300340	0.0-19.38-0.38	beast_fmri_test	358	1300202,/	t	<div class = centerbox2><div class = fixation>+</div></div>	none	500.0	test	n/a	n/a	n/a	n/a	n/a	n/a	n/a	n/a	n/a	n/a	n/a	n/a	n/a	n/a	n/a	n/a	n/a	n/a	fixation
183687.79895685636	650.0	n/a	-1	-1	2750	645.201043144	stim	stop-signal	470	1303091	0.0-19.38-1.38	beast_fmri_test	358	1300883,/,1301562,/,1302242,/,1302922,/,1303600,/	t,t,t,t,t	<img class = center src='/static/experiments/beast_fmri_test/images/T.png'></img>	71,89	2750.0	test	<img class = center src='/static/experiments/beast_fmri_test/images/redT.png'></img>	stop	2100.0	3.0	38.0	stop	non-target	T	71,Index Finger	89,Middle Finger	450.0	650.0	2350.0	2100.0	0.0	650.0	n/a	1.0	go_stim
185787.79895685636	2100.0	n/a	-1	-1	2750	645.201043144	stim	stop-signal	470	1303091	0.0-19.38-1.38	beast_fmri_test	358	1300883,/,1301562,/,1302242,/,1302922,/,1303600,/	t,t,t,t,t	<img class = center src='/static/experiments/beast_fmri_test/images/T.png'></img>	71,89	2750.0	test	<img class = center src='/static/experiments/beast_fmri_test/images/redT.png'></img>	stop	2100.0	3.0	38.0	stop	non-target	T	71,Index Finger	89,Middle Finger	450.0	650.0	2350.0	2100.0	0.0	650.0	n/a	1.0	stop_stim
186437.79895685636	645.20104314357286	n/a	-1	-1	2750	645.201043144	stim	stop-signal	470	1303091	0.0-19.38-1.38	beast_fmri_test	358	1300883,/,1301562,/,1302242,/,1302922,/,1303600,/	t,t,t,t,t	<img class = center src='/static/experiments/beast_fmri_test/images/T.png'></img>	71,89	2750.0	test	<img class = center src='/static/experiments/beast_fmri_test/images/redT.png'></img>	stop	2100.0	3.0	38.0	stop	non-target	T	71,Index Finger	89,Middle Finger	450.0	650.0	2350.0	2100.0	0.0	650.0	n/a	1.0	ITI
188281	500	n/a	-1	-1	500	0.0	fixation	poldrack-single-stim	471	1304289	0.0-19.39-0.39	beast_fmri_test	358	1304281,/	t	<div class = centerbox2><div class = fixation>+</div></div>	none	500.0	test	n/a	n/a	n/a	n/a	n/a	n/a	n/a	n/a	n/a	n/a	n/a	n/a	n/a	n/a	n/a	n/a	n/a	n/a	fixation
187846.6958707592	2750	n/a	1353	89	2750	436.304129241	stim	stop-signal	472	1307041	0.0-19.39-1.39	beast_fmri_test	358	1304960,/,1305641,/,1306319,/,1307000,/	t,t,t,t	<img class = center src='/static/experiments/beast_fmri_test/images/P.png'></img>	71,89	2750.0	test	<img class = center src='/static/experiments/beast_fmri_test/images/redP.png'></img>	go	2050.0	3.0	39.0	go	non-target	P	71,Index Finger	89,Middle Finger	450.0	700.0	2350.0	2050.0	1.0	700.0	1.0	n/a	go_stim
190596.6958707592	436.30412924085374	n/a	1353	89	2750	436.304129241	stim	stop-signal	472	1307041	0.0-19.39-1.39	beast_fmri_test	358	1304960,/,1305641,/,1306319,/,1307000,/	t,t,t,t	<img class = center src='/static/experiments/beast_fmri_test/images/P.png'></img>	71,89	2750.0	test	<img class = center src='/static/experiments/beast_fmri_test/images/redP.png'></img>	go	2050.0	3.0	39.0	go	non-target	P	71,Index Finger	89,Middle Finger	450.0	700.0	2350.0	2050.0	1.0	700.0	1.0	n/a	ITI
192021	500	n/a	-1	-1	500	0.0	fixation	poldrack-single-stim	473	1308029	0.0-19.40-0.40	beast_fmri_test	358	1307678,/	t	<div class = centerbox2><div class = fixation>+</div></div>	none	500.0	test	n/a	n/a	n/a	n/a	n/a	n/a	n/a	n/a	n/a	n/a	n/a	n/a	n/a	n/a	n/a	n/a	n/a	n/a	fixation
191865.89711820404	2750	n/a	1883	89	2750	155.102881796	stim	stop-signal	474	1310779	0.0-19.40-1.40	beast_fmri_test	358	1308359,/,1309038,/,1309719,/,1310398,/	t,t,t,t	<img class = center src='/static/experiments/beast_fmri_test/images/T.png'></img>	71,89	2750.0	test	<img class = center src='/static/experiments/beast_fmri_test/images/redT.png'></img>	go	2050.0	3.0	40.0	go	non-target	T	71,Index Finger	89,Middle Finger	450.0	700.0	2350.0	2050.0	1.0	700.0	1.0	n/a	go_stim
194615.89711820404	155.10288179587343	n/a	1883	89	2750	155.102881796	stim	stop-signal	474	1310779	0.0-19.40-1.40	beast_fmri_test	358	1308359,/,1309038,/,1309719,/,1310398,/	t,t,t,t	<img class = center src='/static/experiments/beast_fmri_test/images/T.png'></img>	71,89	2750.0	test	<img class = center src='/static/experiments/beast_fmri_test/images/redT.png'></img>	go	2050.0	3.0	40.0	go	non-target	T	71,Index Finger	89,Middle Finger	450.0	700.0	2350.0	2050.0	1.0	700.0	1.0	n/a	ITI
195476	500	n/a	-1	-1	500	0.0	fixation	poldrack-single-stim	475	1311484	0.0-19.41-0.41	beast_fmri_test	358	1311078,/	t	<div class = centerbox2><div class = fixation>+</div></div>	none	500.0	test	n/a	n/a	n/a	n/a	n/a	n/a	n/a	n/a	n/a	n/a	n/a	n/a	n/a	n/a	n/a	n/a	n/a	n/a	fixation
194272.43456716486	2750	n/a	805	71	2750	1204.56543284	stim	stop-signal	476	1314235	0.0-19.41-1.41	beast_fmri_test	358	1311757,/,1312435,/,1313117,/,1313796,/,1314476,/,1315156,/	t,t,t,t,t,t	<img class = center src='/static/experiments/beast_fmri_test/images/P.png'></img>	71,89	2750.0	test	<img class = center src='/static/experiments/beast_fmri_test/images/redP.png'></img>	go	2050.0	3.0	41.0	go	non-target	P	71,Index Finger	89,Middle Finger	450.0	700.0	2350.0	2050.0	0.0	700.0	0.0	n/a	go_stim
197022.43456716486	1204.5654328351266	n/a	805	71	2750	1204.56543284	stim	stop-signal	476	1314235	0.0-19.41-1.41	beast_fmri_test	358	1311757,/,1312435,/,1313117,/,1313796,/,1314476,/,1315156,/	t,t,t,t,t,t	<img class = center src='/static/experiments/beast_fmri_test/images/P.png'></img>	71,89	2750.0	test	<img class = center src='/static/experiments/beast_fmri_test/images/redP.png'></img>	go	2050.0	3.0	41.0	go	non-target	P	71,Index Finger	89,Middle Finger	450.0	700.0	2350.0	2050.0	0.0	700.0	0.0	n/a	ITI
199983	500	n/a	-1	-1	500	0.0	fixation	poldrack-single-stim	477	1315991	0.0-19.42-0.42	beast_fmri_test	358	1315837,/	t	<div class = centerbox2><div class = fixation>+</div></div>	none	500.0	test	n/a	n/a	n/a	n/a	n/a	n/a	n/a	n/a	n/a	n/a	n/a	n/a	n/a	n/a	n/a	n/a	n/a	n/a	fixation
199171.19175408548	2750	n/a	325	89	2750	811.808245914	stim	stop-signal	478	1318741	0.0-19.42-1.42	beast_fmri_test	358	1316514,/,1317195,/,1317874,/,1318554,/,1319233,/	t,t,t,t,t	<img class = center src='/static/experiments/beast_fmri_test/images/T.png'></img>	71,89	2750.0	test	<img class = center src='/static/experiments/beast_fmri_test/images/redT.png'></img>	go	2050.0	3.0	42.0	go	non-target	T	71,Index Finger	89,Middle Finger	450.0	700.0	2350.0	2050.0	1.0	700.0	1.0	n/a	go_stim
201921.19175408548	811.8082459144473	n/a	325	89	2750	811.808245914	stim	stop-signal	478	1318741	0.0-19.42-1.42	beast_fmri_test	358	1316514,/,1317195,/,1317874,/,1318554,/,1319233,/	t,t,t,t,t	<img class = center src='/static/experiments/beast_fmri_test/images/T.png'></img>	71,89	2750.0	test	<img class = center src='/static/experiments/beast_fmri_test/images/redT.png'></img>	go	2050.0	3.0	42.0	go	non-target	T	71,Index Finger	89,Middle Finger	450.0	700.0	2350.0	2050.0	1.0	700.0	1.0	n/a	ITI
204094	500	n/a	-1	-1	500	0.0	fixation	poldrack-single-stim	479	1320102	0.0-19.43-0.43	beast_fmri_test	358	1319913,/	t	<div class = centerbox2><div class = fixation>+</div></div>	none	500.0	test	n/a	n/a	n/a	n/a	n/a	n/a	n/a	n/a	n/a	n/a	n/a	n/a	n/a	n/a	n/a	n/a	n/a	n/a	fixation
203787.81814682856	2750	n/a	726	71	2750	307.181853172	stim	stop-signal	480	1322853	0.0-19.43-1.43	beast_fmri_test	358	1320593,/,1321274,/,1321953,/,1322631,/	t,t,t,t	<img class = center src='/static/experiments/beast_fmri_test/images/D.png'></img>	71,89	2750.0	test	<img class = center src='/static/experiments/beast_fmri_test/images/redD.png'></img>	go	2050.0	3.0	43.0	go	non-target	D	71,Index Finger	89,Middle Finger	450.0	700.0	2350.0	2050.0	0.0	700.0	0.0	n/a	go_stim
206537.81814682856	307.1818531715474	n/a	726	71	2750	307.181853172	stim	stop-signal	480	1322853	0.0-19.43-1.43	beast_fmri_test	358	1320593,/,1321274,/,1321953,/,1322631,/	t,t,t,t	<img class = center src='/static/experiments/beast_fmri_test/images/D.png'></img>	71,89	2750.0	test	<img class = center src='/static/experiments/beast_fmri_test/images/redD.png'></img>	go	2050.0	3.0	43.0	go	non-target	D	71,Index Finger	89,Middle Finger	450.0	700.0	2350.0	2050.0	0.0	700.0	0.0	n/a	ITI
207704	500	n/a	-1	-1	500	0.0	fixation	poldrack-single-stim	481	1323712	0.0-19.44-0.44	beast_fmri_test	358	1323313,/	t	<div class = centerbox2><div class = fixation>+</div></div>	none	500.0	test	n/a	n/a	n/a	n/a	n/a	n/a	n/a	n/a	n/a	n/a	n/a	n/a	n/a	n/a	n/a	n/a	n/a	n/a	fixation
207526.02660808549	2750	n/a	668	89	2750	179.973391914	stim	stop-signal	482	1326464	0.0-19.44-1.44	beast_fmri_test	358	1323992,/,1324672,/,1325351,/,1326032,/	t,t,t,t	<img class = center src='/static/experiments/beast_fmri_test/images/D.png'></img>	71,89	2750.0	test	<img class = center src='/static/experiments/beast_fmri_test/images/redD.png'></img>	go	2050.0	3.0	44.0	go	non-target	D	71,Index Finger	89,Middle Finger	450.0	700.0	2350.0	2050.0	1.0	700.0	1.0	n/a	go_stim
210276.02660808549	179.9733919144962	n/a	668	89	2750	179.973391914	stim	stop-signal	482	1326464	0.0-19.44-1.44	beast_fmri_test	358	1323992,/,1324672,/,1325351,/,1326032,/	t,t,t,t	<img class = center src='/static/experiments/beast_fmri_test/images/D.png'></img>	71,89	2750.0	test	<img class = center src='/static/experiments/beast_fmri_test/images/redD.png'></img>	go	2050.0	3.0	44.0	go	non-target	D	71,Index Finger	89,Middle Finger	450.0	700.0	2350.0	2050.0	1.0	700.0	1.0	n/a	ITI
211191	500	n/a	-1	-1	500	0.0	fixation	poldrack-single-stim	483	1327199	0.0-19.45-0.45	beast_fmri_test	358	1326712,/	t	<div class = centerbox2><div class = fixation>+</div></div>	none	500.0	test	n/a	n/a	n/a	n/a	n/a	n/a	n/a	n/a	n/a	n/a	n/a	n/a	n/a	n/a	n/a	n/a	n/a	n/a	fixation
209549.47384345927	2750	n/a	733	71	2750	1644.52615654	stim	stop-signal	484	1329952	0.0-19.45-1.45	beast_fmri_test	358	1327391,/,1328069,/,1328750,/,1329429,/,1330109,/,1330789,/,1331467,/	t,t,t,t,t,t,t	<img class = center src='/static/experiments/beast_fmri_test/images/T.png'></img>	71,89	2750.0	test	<img class = center src='/static/experiments/beast_fmri_test/images/redT.png'></img>	go	2300.0	3.0	45.0	go	target	T	71,Index Finger	89,Middle Finger	450.0	700.0	2300.0	2050.0	1.0	450.0	1.0	n/a	go_stim
212299.47384345927	1644.5261565406672	n/a	733	71	2750	1644.52615654	stim	stop-signal	484	1329952	0.0-19.45-1.45	beast_fmri_test	358	1327391,/,1328069,/,1328750,/,1329429,/,1330109,/,1330789,/,1331467,/	t,t,t,t,t,t,t	<img class = center src='/static/experiments/beast_fmri_test/images/T.png'></img>	71,89	2750.0	test	<img class = center src='/static/experiments/beast_fmri_test/images/redT.png'></img>	go	2300.0	3.0	45.0	go	target	T	71,Index Finger	89,Middle Finger	450.0	700.0	2300.0	2050.0	1.0	450.0	1.0	n/a	ITI
216133	500	n/a	-1	-1	500	0.0	fixation	poldrack-single-stim	485	1332141	0.0-19.46-0.46	beast_fmri_test	358	n/a	n/a	<div class = centerbox2><div class = fixation>+</div></div>	none	500.0	test	n/a	n/a	n/a	n/a	n/a	n/a	n/a	n/a	n/a	n/a	n/a	n/a	n/a	n/a	n/a	n/a	n/a	n/a	fixation
214259.93713761028	2750	n/a	466	89	2750	1877.06286239	stim	stop-signal	486	1334895	0.0-19.46-1.46	beast_fmri_test	358	1332157,/,1332827,/,1333507,/,1334186,/,1334867,/,1335547,/,1336226,/	t,t,t,t,t,t,t	<img class = center src='/static/experiments/beast_fmri_test/images/P.png'></img>	71,89	2750.0	test	<img class = center src='/static/experiments/beast_fmri_test/images/redP.png'></img>	go	2050.0	3.0	46.0	go	non-target	P	71,Index Finger	89,Middle Finger	450.0	700.0	2300.0	2050.0	1.0	700.0	1.0	n/a	go_stim
217009.93713761028	1877.0628623898097	n/a	466	89	2750	1877.06286239	stim	stop-signal	486	1334895	0.0-19.46-1.46	beast_fmri_test	358	1332157,/,1332827,/,1333507,/,1334186,/,1334867,/,1335547,/,1336226,/	t,t,t,t,t,t,t	<img class = center src='/static/experiments/beast_fmri_test/images/P.png'></img>	71,89	2750.0	test	<img class = center src='/static/experiments/beast_fmri_test/images/redP.png'></img>	go	2050.0	3.0	46.0	go	non-target	P	71,Index Finger	89,Middle Finger	450.0	700.0	2300.0	2050.0	1.0	700.0	1.0	n/a	ITI
221312	500	n/a	-1	-1	500	0.0	fixation	poldrack-single-stim	487	1337320	0.0-19.47-0.47	beast_fmri_test	358	1336905,/	t	<div class = centerbox2><div class = fixation>+</div></div>	none	500.0	test	n/a	n/a	n/a	n/a	n/a	n/a	n/a	n/a	n/a	n/a	n/a	n/a	n/a	n/a	n/a	n/a	n/a	n/a	fixation
221191.48780938215	2750	n/a	561	89	2750	121.512190618	stim	stop-signal	488	1340071	0.0-19.47-1.47	beast_fmri_test	358	1337584,/,1338264,/,1338944,/,1339624,/	t,t,t,t	<img class = center src='/static/experiments/beast_fmri_test/images/B.png'></img>	71,89	2750.0	test	<img class = center src='/static/experiments/beast_fmri_test/images/redB.png'></img>	go	2050.0	3.0	47.0	go	non-target	B	71,Index Finger	89,Middle Finger	450.0	700.0	2300.0	2050.0	1.0	700.0	1.0	n/a	go_stim
223941.48780938215	121.51219061778187	n/a	561	89	2750	121.512190618	stim	stop-signal	488	1340071	0.0-19.47-1.47	beast_fmri_test	358	1337584,/,1338264,/,1338944,/,1339624,/	t,t,t,t	<img class = center src='/static/experiments/beast_fmri_test/images/B.png'></img>	71,89	2750.0	test	<img class = center src='/static/experiments/beast_fmri_test/images/redB.png'></img>	go	2050.0	3.0	47.0	go	non-target	B	71,Index Finger	89,Middle Finger	450.0	700.0	2300.0	2050.0	1.0	700.0	1.0	n/a	ITI
239223	15000	n/a	-1	-1	15000	0.0	practice-no-stop-feedback	poldrack-single-stim	489	1355231	0.0-20.0	beast_fmri_test	358	1340304,/,1340983,/,1341665,/,1342343,/,1343024,/,1343704,/,1344382,/,1345063,/,1345741,/,1346423,/,1347101,/,1347782,/,1348460,/,1349141,/,1349819,/,1350500,/,1351178,/,1351860,/,1352539,/,1353219,/,1353898,/,1354577,/	t,t,t,t,t,t,t,t,t,t,t,t,t,t,t,t,t,t,t,t,t,t	"<div class = ""centerbox""><p class = ""block-text"">Your delay is 3 trials.</p><p class = block-text>Please wait for the scanner to start the block</p></div>"	77	15000.0	n/a	n/a	n/a	n/a	n/a	n/a	n/a	n/a	n/a	n/a	n/a	n/a	n/a	n/a	n/a	n/a	n/a	n/a	n/a	practice-no-stop-feedback
239727	500	n/a	-1	-1	500	0.0	fixation	poldrack-single-stim	490	1355735	0.0-21.0-0.0	beast_fmri_test	358	1355256,/	t	<div class = centerbox2><div class = fixation>+</div></div>	none	500.0	test	n/a	n/a	n/a	n/a	n/a	n/a	n/a	n/a	n/a	n/a	n/a	n/a	n/a	n/a	n/a	n/a	n/a	n/a	fixation
238755.8590767167	2750	n/a	1367	89	2750	973.140923283	stim	stop-signal	491	1358487	0.0-21.0-1.0	beast_fmri_test	358	1355936,/,1356617,/,1357296,/,1357976,/,1358655,/,1359335,/	t,t,t,t,t,t	<img class = center src='/static/experiments/beast_fmri_test/images/B.png'></img>	71,89	2750.0	test	<img class = center src='/static/experiments/beast_fmri_test/images/redB.png'></img>	go	-1.0	3.0	0.0	go	temp-non-target	B	71,Index Finger	89,Middle Finger	450.0	700.0	2300.0	2050.0	0.0	n/a	n/a	n/a	go_stim
241505.8590767167	973.1409232833646	n/a	1367	89	2750	973.140923283	stim	stop-signal	491	1358487	0.0-21.0-1.0	beast_fmri_test	358	1355936,/,1356617,/,1357296,/,1357976,/,1358655,/,1359335,/	t,t,t,t,t,t	<img class = center src='/static/experiments/beast_fmri_test/images/B.png'></img>	71,89	2750.0	test	<img class = center src='/static/experiments/beast_fmri_test/images/redB.png'></img>	go	-1.0	3.0	0.0	go	temp-non-target	B	71,Index Finger	89,Middle Finger	450.0	700.0	2300.0	2050.0	0.0	n/a	n/a	n/a	ITI
244002	500	n/a	-1	-1	500	0.0	fixation	poldrack-single-stim	492	1360010	0.0-21.1-0.1	beast_fmri_test	358	n/a	n/a	<div class = centerbox2><div class = fixation>+</div></div>	none	500.0	test	n/a	n/a	n/a	n/a	n/a	n/a	n/a	n/a	n/a	n/a	n/a	n/a	n/a	n/a	n/a	n/a	n/a	n/a	fixation
241592.86752329161	temp_go_duration	n/a	624	89	2750	2411.13247671	stim	stop-signal	493	1362762	0.0-21.1-1.1	beast_fmri_test	358	1360014,/,1360695,/,1361373,/,1362055,/,1362734,/,1363414,/,1364093,/,1364772,/	t,t,t,t,t,t,t,t	<img class = center src='/static/experiments/beast_fmri_test/images/D.png'></img>	71,89	2750.0	test	<img class = center src='/static/experiments/beast_fmri_test/images/redD.png'></img>	stop	-1.0	3.0	1.0	stop	temp-non-target	D	71,Index Finger	89,Middle Finger	450.0	700.0	2300.0	2050.0	0.0	n/a	n/a	0.0	go_stim
temp-non-target	temp_stop_duration	n/a	624	89	2750	2411.13247671	stim	stop-signal	493	1362762	0.0-21.1-1.1	beast_fmri_test	358	1360014,/,1360695,/,1361373,/,1362055,/,1362734,/,1363414,/,1364093,/,1364772,/	t,t,t,t,t,t,t,t	<img class = center src='/static/experiments/beast_fmri_test/images/D.png'></img>	71,89	2750.0	test	<img class = center src='/static/experiments/beast_fmri_test/images/redD.png'></img>	stop	-1.0	3.0	1.0	stop	temp-non-target	D	71,Index Finger	89,Middle Finger	450.0	700.0	2300.0	2050.0	0.0	n/a	n/a	0.0	stop_stim
244342.86752329161	2411.1324767084643	n/a	624	89	2750	2411.13247671	stim	stop-signal	493	1362762	0.0-21.1-1.1	beast_fmri_test	358	1360014,/,1360695,/,1361373,/,1362055,/,1362734,/,1363414,/,1364093,/,1364772,/	t,t,t,t,t,t,t,t	<img class = center src='/static/experiments/beast_fmri_test/images/D.png'></img>	71,89	2750.0	test	<img class = center src='/static/experiments/beast_fmri_test/images/redD.png'></img>	stop	-1.0	3.0	1.0	stop	temp-non-target	D	71,Index Finger	89,Middle Finger	450.0	700.0	2300.0	2050.0	0.0	n/a	n/a	0.0	ITI
249713	500	n/a	-1	-1	500	0.0	fixation	poldrack-single-stim	494	1365721	0.0-21.2-0.2	beast_fmri_test	358	1365452,/	t	<div class = centerbox2><div class = fixation>+</div></div>	none	500.0	test	n/a	n/a	n/a	n/a	n/a	n/a	n/a	n/a	n/a	n/a	n/a	n/a	n/a	n/a	n/a	n/a	n/a	n/a	fixation
248981.43478505244	2750	n/a	602	89	2750	732.565214948	stim	stop-signal	495	1368472	0.0-21.2-1.2	beast_fmri_test	358	1366131,/,1366812,/,1367490,/,1368171,/,1368849,/	t,t,t,t,t	<img class = center src='/static/experiments/beast_fmri_test/images/B.png'></img>	71,89	2750.0	test	<img class = center src='/static/experiments/beast_fmri_test/images/redB.png'></img>	go	-1.0	3.0	2.0	go	temp-non-target	B	71,Index Finger	89,Middle Finger	450.0	700.0	2300.0	2050.0	0.0	n/a	n/a	n/a	go_stim
251731.43478505244	732.56521494754747	n/a	602	89	2750	732.565214948	stim	stop-signal	495	1368472	0.0-21.2-1.2	beast_fmri_test	358	1366131,/,1366812,/,1367490,/,1368171,/,1368849,/	t,t,t,t,t	<img class = center src='/static/experiments/beast_fmri_test/images/B.png'></img>	71,89	2750.0	test	<img class = center src='/static/experiments/beast_fmri_test/images/redB.png'></img>	go	-1.0	3.0	2.0	go	temp-non-target	B	71,Index Finger	89,Middle Finger	450.0	700.0	2300.0	2050.0	0.0	n/a	n/a	n/a	ITI
253746	500	n/a	-1	-1	500	0.0	fixation	poldrack-single-stim	496	1369754	0.0-21.3-0.3	beast_fmri_test	358	1369531,/	t	<div class = centerbox2><div class = fixation>+</div></div>	none	500.0	test	n/a	n/a	n/a	n/a	n/a	n/a	n/a	n/a	n/a	n/a	n/a	n/a	n/a	n/a	n/a	n/a	n/a	n/a	fixation
252970.7415434001	2750	n/a	563	89	2750	776.2584566	stim	stop-signal	497	1372505	0.0-21.3-1.3	beast_fmri_test	358	1370210,/,1370890,/,1371569,/,1372250,/,1372929,/	t,t,t,t,t	<img class = center src='/static/experiments/beast_fmri_test/images/T.png'></img>	71,89	2750.0	test	<img class = center src='/static/experiments/beast_fmri_test/images/redT.png'></img>	go	2050.0	3.0	3.0	go	non-target	T	71,Index Finger	89,Middle Finger	450.0	700.0	2300.0	2050.0	1.0	700.0	1.0	n/a	go_stim
255720.7415434001	776.25845659980473	n/a	563	89	2750	776.2584566	stim	stop-signal	497	1372505	0.0-21.3-1.3	beast_fmri_test	358	1370210,/,1370890,/,1371569,/,1372250,/,1372929,/	t,t,t,t,t	<img class = center src='/static/experiments/beast_fmri_test/images/T.png'></img>	71,89	2750.0	test	<img class = center src='/static/experiments/beast_fmri_test/images/redT.png'></img>	go	2050.0	3.0	3.0	go	non-target	T	71,Index Finger	89,Middle Finger	450.0	700.0	2300.0	2050.0	1.0	700.0	1.0	n/a	ITI
257824	500	n/a	-1	-1	500	0.0	fixation	poldrack-single-stim	498	1373832	0.0-21.4-0.4	beast_fmri_test	358	1373609,/	t	<div class = centerbox2><div class = fixation>+</div></div>	none	500.0	test	n/a	n/a	n/a	n/a	n/a	n/a	n/a	n/a	n/a	n/a	n/a	n/a	n/a	n/a	n/a	n/a	n/a	n/a	fixation
257436.94763515936	2750	n/a	531	89	2750	388.052364841	stim	stop-signal	499	1376583	0.0-21.4-1.4	beast_fmri_test	358	1374289,/,1374969,/,1375648,/,1376328,/	t,t,t,t	<img class = center src='/static/experiments/beast_fmri_test/images/V.png'></img>	71,89	2750.0	test	<img class = center src='/static/experiments/beast_fmri_test/images/redV.png'></img>	go	2050.0	3.0	4.0	go	non-target	V	71,Index Finger	89,Middle Finger	450.0	700.0	2300.0	2050.0	1.0	700.0	1.0	n/a	go_stim
260186.94763515936	388.05236484070571	n/a	531	89	2750	388.052364841	stim	stop-signal	499	1376583	0.0-21.4-1.4	beast_fmri_test	358	1374289,/,1374969,/,1375648,/,1376328,/	t,t,t,t	<img class = center src='/static/experiments/beast_fmri_test/images/V.png'></img>	71,89	2750.0	test	<img class = center src='/static/experiments/beast_fmri_test/images/redV.png'></img>	go	2050.0	3.0	4.0	go	non-target	V	71,Index Finger	89,Middle Finger	450.0	700.0	2300.0	2050.0	1.0	700.0	1.0	n/a	ITI
261515	500	n/a	-1	-1	500	0.0	fixation	poldrack-single-stim	500	1377523	0.0-21.5-0.5	beast_fmri_test	358	1377023,/	t	<div class = centerbox2><div class = fixation>+</div></div>	none	500.0	test	n/a	n/a	n/a	n/a	n/a	n/a	n/a	n/a	n/a	n/a	n/a	n/a	n/a	n/a	n/a	n/a	n/a	n/a	fixation
260653.99159776536	2750	n/a	803	89	2750	863.008402235	stim	stop-signal	501	1380275	0.0-21.5-1.5	beast_fmri_test	358	1377686,/,1378367,/,1379046,/,1379725,/,1380405,/,1381086,/	t,t,t,t,t,t	<img class = center src='/static/experiments/beast_fmri_test/images/V.png'></img>	71,89	2750.0	test	<img class = center src='/static/experiments/beast_fmri_test/images/redV.png'></img>	go	2050.0	3.0	5.0	go	non-target	V	71,Index Finger	89,Middle Finger	450.0	700.0	2300.0	2050.0	1.0	700.0	1.0	n/a	go_stim
263403.99159776536	863.00840223460261	n/a	803	89	2750	863.008402235	stim	stop-signal	501	1380275	0.0-21.5-1.5	beast_fmri_test	358	1377686,/,1378367,/,1379046,/,1379725,/,1380405,/,1381086,/	t,t,t,t,t,t	<img class = center src='/static/experiments/beast_fmri_test/images/V.png'></img>	71,89	2750.0	test	<img class = center src='/static/experiments/beast_fmri_test/images/redV.png'></img>	go	2050.0	3.0	5.0	go	non-target	V	71,Index Finger	89,Middle Finger	450.0	700.0	2300.0	2050.0	1.0	700.0	1.0	n/a	ITI
265681	500	n/a	-1	-1	500	0.0	fixation	poldrack-single-stim	502	1381689	0.0-21.6-0.6	beast_fmri_test	358	n/a	n/a	<div class = centerbox2><div class = fixation>+</div></div>	none	500.0	test	n/a	n/a	n/a	n/a	n/a	n/a	n/a	n/a	n/a	n/a	n/a	n/a	n/a	n/a	n/a	n/a	n/a	n/a	fixation
265595.71542043472	2750	n/a	1037	71	2750	86.2845795653	stim	stop-signal	503	1384440	0.0-21.6-1.6	beast_fmri_test	358	1381765,/,1382445,/,1383124,/,1383804,/,1384484,/	t,t,t,t,t	<img class = center src='/static/experiments/beast_fmri_test/images/B.png'></img>	71,89	2750.0	test	<img class = center src='/static/experiments/beast_fmri_test/images/redB.png'></img>	go	2050.0	3.0	6.0	go	non-target	B	71,Index Finger	89,Middle Finger	450.0	700.0	2300.0	2050.0	0.0	700.0	0.0	n/a	go_stim
268345.71542043472	86.284579565287032	n/a	1037	71	2750	86.2845795653	stim	stop-signal	503	1384440	0.0-21.6-1.6	beast_fmri_test	358	1381765,/,1382445,/,1383124,/,1383804,/,1384484,/	t,t,t,t,t	<img class = center src='/static/experiments/beast_fmri_test/images/B.png'></img>	71,89	2750.0	test	<img class = center src='/static/experiments/beast_fmri_test/images/redB.png'></img>	go	2050.0	3.0	6.0	go	non-target	B	71,Index Finger	89,Middle Finger	450.0	700.0	2300.0	2050.0	0.0	700.0	0.0	n/a	ITI
269072	500	n/a	-1	-1	500	0.0	fixation	poldrack-single-stim	504	1385080	0.0-21.7-0.7	beast_fmri_test	358	n/a	n/a	<div class = centerbox2><div class = fixation>+</div></div>	none	500.0	test	n/a	n/a	n/a	n/a	n/a	n/a	n/a	n/a	n/a	n/a	n/a	n/a	n/a	n/a	n/a	n/a	n/a	n/a	fixation
268591.4594135345	450.0	n/a	782	71	2750	482.540586465	stim	stop-signal	505	1387832	0.0-21.7-1.7	beast_fmri_test	358	1385163,/,1385844,/,1386523,/,1387203,/,1387881,/	t,t,t,t,t	<img class = center src='/static/experiments/beast_fmri_test/images/V.png'></img>	71,89	2750.0	test	<img class = center src='/static/experiments/beast_fmri_test/images/redV.png'></img>	stop	2300.0	3.0	7.0	stop	target	V	71,Index Finger	89,Middle Finger	450.0	700.0	2300.0	2050.0	0.0	450.0	n/a	0.0	go_stim
270891.4594135345	2300.0	n/a	782	71	2750	482.540586465	stim	stop-signal	505	1387832	0.0-21.7-1.7	beast_fmri_test	358	1385163,/,1385844,/,1386523,/,1387203,/,1387881,/	t,t,t,t,t	<img class = center src='/static/experiments/beast_fmri_test/images/V.png'></img>	71,89	2750.0	test	<img class = center src='/static/experiments/beast_fmri_test/images/redV.png'></img>	stop	2300.0	3.0	7.0	stop	target	V	71,Index Finger	89,Middle Finger	450.0	700.0	2300.0	2050.0	0.0	450.0	n/a	0.0	stop_stim
271341.4594135345	482.54058646540221	n/a	782	71	2750	482.540586465	stim	stop-signal	505	1387832	0.0-21.7-1.7	beast_fmri_test	358	1385163,/,1385844,/,1386523,/,1387203,/,1387881,/	t,t,t,t,t	<img class = center src='/static/experiments/beast_fmri_test/images/V.png'></img>	71,89	2750.0	test	<img class = center src='/static/experiments/beast_fmri_test/images/redV.png'></img>	stop	2300.0	3.0	7.0	stop	target	V	71,Index Finger	89,Middle Finger	450.0	700.0	2300.0	2050.0	0.0	450.0	n/a	0.0	ITI
272858	500	n/a	-1	-1	500	0.0	fixation	poldrack-single-stim	506	1388866	0.0-21.8-0.8	beast_fmri_test	358	1388561,/	t	<div class = centerbox2><div class = fixation>+</div></div>	none	500.0	test	n/a	n/a	n/a	n/a	n/a	n/a	n/a	n/a	n/a	n/a	n/a	n/a	n/a	n/a	n/a	n/a	n/a	n/a	fixation
271985.99196138512	2750	n/a	1936	89	2750	872.008038615	stim	stop-signal	507	1391616	0.0-21.8-1.8	beast_fmri_test	358	1389240,/,1389922,/,1390600,/,1391280,/,1391960,/	t,t,t,t,t	<img class = center src='/static/experiments/beast_fmri_test/images/V.png'></img>	71,89	2750.0	test	<img class = center src='/static/experiments/beast_fmri_test/images/redV.png'></img>	go	2350.0	3.0	8.0	go	target	V	71,Index Finger	89,Middle Finger	400.0	700.0	2350.0	2050.0	0.0	400.0	0.0	n/a	go_stim
274735.99196138512	872.00803861484451	n/a	1936	89	2750	872.008038615	stim	stop-signal	507	1391616	0.0-21.8-1.8	beast_fmri_test	358	1389240,/,1389922,/,1390600,/,1391280,/,1391960,/	t,t,t,t,t	<img class = center src='/static/experiments/beast_fmri_test/images/V.png'></img>	71,89	2750.0	test	<img class = center src='/static/experiments/beast_fmri_test/images/redV.png'></img>	go	2350.0	3.0	8.0	go	target	V	71,Index Finger	89,Middle Finger	400.0	700.0	2350.0	2050.0	0.0	400.0	0.0	n/a	ITI
277030	500	n/a	-1	-1	500	0.0	fixation	poldrack-single-stim	508	1393038	0.0-21.9-0.9	beast_fmri_test	358	1392640,/	t	<div class = centerbox2><div class = fixation>+</div></div>	none	500.0	test	n/a	n/a	n/a	n/a	n/a	n/a	n/a	n/a	n/a	n/a	n/a	n/a	n/a	n/a	n/a	n/a	n/a	n/a	fixation
274681.36572161806	2750	n/a	873	89	2750	2350.63427838	stim	stop-signal	509	1395790	0.0-21.9-1.9	beast_fmri_test	358	1393320,/,1393999,/,1394678,/,1395357,/,1396039,/,1396717,/,1397397,/,1398076,/	t,t,t,t,t,t,t,t	<img class = center src='/static/experiments/beast_fmri_test/images/T.png'></img>	71,89	2750.0	test	<img class = center src='/static/experiments/beast_fmri_test/images/redT.png'></img>	go	2050.0	3.0	9.0	go	non-target	T	71,Index Finger	89,Middle Finger	400.0	700.0	2350.0	2050.0	1.0	700.0	1.0	n/a	go_stim
277431.36572161806	2350.6342783819291	n/a	873	89	2750	2350.63427838	stim	stop-signal	509	1395790	0.0-21.9-1.9	beast_fmri_test	358	1393320,/,1393999,/,1394678,/,1395357,/,1396039,/,1396717,/,1397397,/,1398076,/	t,t,t,t,t,t,t,t	<img class = center src='/static/experiments/beast_fmri_test/images/T.png'></img>	71,89	2750.0	test	<img class = center src='/static/experiments/beast_fmri_test/images/redT.png'></img>	go	2050.0	3.0	9.0	go	non-target	T	71,Index Finger	89,Middle Finger	400.0	700.0	2350.0	2050.0	1.0	700.0	1.0	n/a	ITI
282681	500	n/a	-1	-1	500	0.0	fixation	poldrack-single-stim	510	1398689	0.0-21.10-0.10	beast_fmri_test	358	n/a	n/a	<div class = centerbox2><div class = fixation>+</div></div>	none	500.0	test	n/a	n/a	n/a	n/a	n/a	n/a	n/a	n/a	n/a	n/a	n/a	n/a	n/a	n/a	n/a	n/a	n/a	n/a	fixation
282032.86788892769	700.0	n/a	981	89	2750	649.132111072	stim	stop-signal	511	1401440	0.0-21.10-1.10	beast_fmri_test	358	1398756,/,1399437,/,1400117,/,1400796,/,1401474,/	t,t,t,t,t	<img class = center src='/static/experiments/beast_fmri_test/images/T.png'></img>	71,89	2750.0	test	<img class = center src='/static/experiments/beast_fmri_test/images/redT.png'></img>	stop	2050.0	3.0	10.0	stop	non-target	T	71,Index Finger	89,Middle Finger	400.0	700.0	2350.0	2050.0	0.0	700.0	n/a	0.0	go_stim
284082.86788892769	2050.0	n/a	981	89	2750	649.132111072	stim	stop-signal	511	1401440	0.0-21.10-1.10	beast_fmri_test	358	1398756,/,1399437,/,1400117,/,1400796,/,1401474,/	t,t,t,t,t	<img class = center src='/static/experiments/beast_fmri_test/images/T.png'></img>	71,89	2750.0	test	<img class = center src='/static/experiments/beast_fmri_test/images/redT.png'></img>	stop	2050.0	3.0	10.0	stop	non-target	T	71,Index Finger	89,Middle Finger	400.0	700.0	2350.0	2050.0	0.0	700.0	n/a	0.0	stop_stim
284782.86788892769	649.13211107233326	n/a	981	89	2750	649.132111072	stim	stop-signal	511	1401440	0.0-21.10-1.10	beast_fmri_test	358	1398756,/,1399437,/,1400117,/,1400796,/,1401474,/	t,t,t,t,t	<img class = center src='/static/experiments/beast_fmri_test/images/T.png'></img>	71,89	2750.0	test	<img class = center src='/static/experiments/beast_fmri_test/images/redT.png'></img>	stop	2050.0	3.0	10.0	stop	non-target	T	71,Index Finger	89,Middle Finger	400.0	700.0	2350.0	2050.0	0.0	700.0	n/a	0.0	ITI
286635	500	n/a	-1	-1	500	0.0	fixation	poldrack-single-stim	512	1402643	0.0-21.11-0.11	beast_fmri_test	358	1402155,/	t	<div class = centerbox2><div class = fixation>+</div></div>	none	500.0	test	n/a	n/a	n/a	n/a	n/a	n/a	n/a	n/a	n/a	n/a	n/a	n/a	n/a	n/a	n/a	n/a	n/a	n/a	fixation
286238.05208186875	2750	n/a	-1	-1	2750	398.947918131	stim	stop-signal	513	1405395	0.0-21.11-1.11	beast_fmri_test	358	1402836,/,1403514,/,1404194,/,1404874,/,1405555,/	t,t,t,t,t	<img class = center src='/static/experiments/beast_fmri_test/images/V.png'></img>	71,89	2750.0	test	<img class = center src='/static/experiments/beast_fmri_test/images/redV.png'></img>	go	2350.0	3.0	11.0	go	target	V	71,Index Finger	89,Middle Finger	400.0	650.0	2350.0	2050.0	0.0	400.0	0.0	n/a	go_stim
288988.05208186875	398.94791813129234	n/a	-1	-1	2750	398.947918131	stim	stop-signal	513	1405395	0.0-21.11-1.11	beast_fmri_test	358	1402836,/,1403514,/,1404194,/,1404874,/,1405555,/	t,t,t,t,t	<img class = center src='/static/experiments/beast_fmri_test/images/V.png'></img>	71,89	2750.0	test	<img class = center src='/static/experiments/beast_fmri_test/images/redV.png'></img>	go	2350.0	3.0	11.0	go	target	V	71,Index Finger	89,Middle Finger	400.0	650.0	2350.0	2050.0	0.0	400.0	0.0	n/a	ITI
290340	500	n/a	-1	-1	500	0.0	fixation	poldrack-single-stim	514	1406348	0.0-21.12-0.12	beast_fmri_test	358	1406233,/	t	<div class = centerbox2><div class = fixation>+</div></div>	none	500.0	test	n/a	n/a	n/a	n/a	n/a	n/a	n/a	n/a	n/a	n/a	n/a	n/a	n/a	n/a	n/a	n/a	n/a	n/a	fixation
289362.59399629082	650.0	n/a	-1	-1	2750	980.406003709	stim	stop-signal	515	1409101	0.0-21.12-1.12	beast_fmri_test	358	1406914,/,1407593,/,1408274,/,1408954,/,1409632,/	t,t,t,t,t	<img class = center src='/static/experiments/beast_fmri_test/images/B.png'></img>	71,89	2750.0	test	<img class = center src='/static/experiments/beast_fmri_test/images/redB.png'></img>	stop	2100.0	3.0	12.0	stop	non-target	B	71,Index Finger	89,Middle Finger	400.0	650.0	2350.0	2100.0	0.0	650.0	n/a	1.0	go_stim
291462.59399629082	2100.0	n/a	-1	-1	2750	980.406003709	stim	stop-signal	515	1409101	0.0-21.12-1.12	beast_fmri_test	358	1406914,/,1407593,/,1408274,/,1408954,/,1409632,/	t,t,t,t,t	<img class = center src='/static/experiments/beast_fmri_test/images/B.png'></img>	71,89	2750.0	test	<img class = center src='/static/experiments/beast_fmri_test/images/redB.png'></img>	stop	2100.0	3.0	12.0	stop	non-target	B	71,Index Finger	89,Middle Finger	400.0	650.0	2350.0	2100.0	0.0	650.0	n/a	1.0	stop_stim
292112.59399629082	980.40600370924176	n/a	-1	-1	2750	980.406003709	stim	stop-signal	515	1409101	0.0-21.12-1.12	beast_fmri_test	358	1406914,/,1407593,/,1408274,/,1408954,/,1409632,/	t,t,t,t,t	<img class = center src='/static/experiments/beast_fmri_test/images/B.png'></img>	71,89	2750.0	test	<img class = center src='/static/experiments/beast_fmri_test/images/redB.png'></img>	stop	2100.0	3.0	12.0	stop	non-target	B	71,Index Finger	89,Middle Finger	400.0	650.0	2350.0	2100.0	0.0	650.0	n/a	1.0	ITI
294621	500	n/a	-1	-1	500	0.0	fixation	poldrack-single-stim	516	1410629	0.0-21.13-0.13	beast_fmri_test	358	1410311,/	t	<div class = centerbox2><div class = fixation>+</div></div>	none	500.0	test	n/a	n/a	n/a	n/a	n/a	n/a	n/a	n/a	n/a	n/a	n/a	n/a	n/a	n/a	n/a	n/a	n/a	n/a	fixation
294524.91286374908	700.0	n/a	-1	-1	2750	97.0871362509	stim	stop-signal	517	1413380	0.0-21.13-1.13	beast_fmri_test	358	1410991,/,1411672,/,1412350,/,1413032,/	t,t,t,t	<img class = center src='/static/experiments/beast_fmri_test/images/V.png'></img>	71,89	2750.0	test	<img class = center src='/static/experiments/beast_fmri_test/images/redV.png'></img>	stop	2050.0	3.0	13.0	stop	non-target	V	71,Index Finger	89,Middle Finger	400.0	700.0	2350.0	2050.0	0.0	700.0	n/a	1.0	go_stim
296574.91286374908	2050.0	n/a	-1	-1	2750	97.0871362509	stim	stop-signal	517	1413380	0.0-21.13-1.13	beast_fmri_test	358	1410991,/,1411672,/,1412350,/,1413032,/	t,t,t,t	<img class = center src='/static/experiments/beast_fmri_test/images/V.png'></img>	71,89	2750.0	test	<img class = center src='/static/experiments/beast_fmri_test/images/redV.png'></img>	stop	2050.0	3.0	13.0	stop	non-target	V	71,Index Finger	89,Middle Finger	400.0	700.0	2350.0	2050.0	0.0	700.0	n/a	1.0	stop_stim
297274.91286374908	97.08713625087627	n/a	-1	-1	2750	97.0871362509	stim	stop-signal	517	1413380	0.0-21.13-1.13	beast_fmri_test	358	1410991,/,1411672,/,1412350,/,1413032,/	t,t,t,t	<img class = center src='/static/experiments/beast_fmri_test/images/V.png'></img>	71,89	2750.0	test	<img class = center src='/static/experiments/beast_fmri_test/images/redV.png'></img>	stop	2050.0	3.0	13.0	stop	non-target	V	71,Index Finger	89,Middle Finger	400.0	700.0	2350.0	2050.0	0.0	700.0	n/a	1.0	ITI
298024	500	n/a	-1	-1	500	0.0	fixation	poldrack-single-stim	518	1414032	0.0-21.14-0.14	beast_fmri_test	358	1413712,/	t	<div class = centerbox2><div class = fixation>+</div></div>	none	500.0	test	n/a	n/a	n/a	n/a	n/a	n/a	n/a	n/a	n/a	n/a	n/a	n/a	n/a	n/a	n/a	n/a	n/a	n/a	fixation
297732.69738873211	2750	n/a	1886	89	2750	293.302611268	stim	stop-signal	519	1416784	0.0-21.14-1.14	beast_fmri_test	358	1414390,/,1415070,/,1415750,/,1416429,/	t,t,t,t	<img class = center src='/static/experiments/beast_fmri_test/images/V.png'></img>	71,89	2750.0	test	<img class = center src='/static/experiments/beast_fmri_test/images/redV.png'></img>	go	2350.0	3.0	14.0	go	target	V	71,Index Finger	89,Middle Finger	400.0	750.0	2350.0	2050.0	0.0	400.0	0.0	n/a	go_stim
300482.69738873211	293.30261126800372	n/a	1886	89	2750	293.302611268	stim	stop-signal	519	1416784	0.0-21.14-1.14	beast_fmri_test	358	1414390,/,1415070,/,1415750,/,1416429,/	t,t,t,t	<img class = center src='/static/experiments/beast_fmri_test/images/V.png'></img>	71,89	2750.0	test	<img class = center src='/static/experiments/beast_fmri_test/images/redV.png'></img>	go	2350.0	3.0	14.0	go	target	V	71,Index Finger	89,Middle Finger	400.0	750.0	2350.0	2050.0	0.0	400.0	0.0	n/a	ITI
301621	500	n/a	-1	-1	500	0.0	fixation	poldrack-single-stim	520	1417629	0.0-21.15-0.15	beast_fmri_test	358	1417127,/	t	<div class = centerbox2><div class = fixation>+</div></div>	none	500.0	test	n/a	n/a	n/a	n/a	n/a	n/a	n/a	n/a	n/a	n/a	n/a	n/a	n/a	n/a	n/a	n/a	n/a	n/a	fixation
300398.71996020409	2750	n/a	2205	89	2750	1223.2800398	stim	stop-signal	521	1420380	0.0-21.15-1.15	beast_fmri_test	358	1417789,/,1418467,/,1419147,/,1419827,/,1420507,/,1421185,/	t,t,t,t,t,t	<img class = center src='/static/experiments/beast_fmri_test/images/P.png'></img>	71,89	2750.0	test	<img class = center src='/static/experiments/beast_fmri_test/images/redP.png'></img>	go	2000.0	3.0	15.0	go	non-target	P	71,Index Finger	89,Middle Finger	400.0	750.0	2350.0	2000.0	1.0	750.0	1.0	n/a	go_stim
303148.71996020409	1223.2800397958715	n/a	2205	89	2750	1223.2800398	stim	stop-signal	521	1420380	0.0-21.15-1.15	beast_fmri_test	358	1417789,/,1418467,/,1419147,/,1419827,/,1420507,/,1421185,/	t,t,t,t,t,t	<img class = center src='/static/experiments/beast_fmri_test/images/P.png'></img>	71,89	2750.0	test	<img class = center src='/static/experiments/beast_fmri_test/images/redP.png'></img>	go	2000.0	3.0	15.0	go	non-target	P	71,Index Finger	89,Middle Finger	400.0	750.0	2350.0	2000.0	1.0	750.0	1.0	n/a	ITI
306145	500	n/a	-1	-1	500	0.0	fixation	poldrack-single-stim	522	1422153	0.0-21.16-0.16	beast_fmri_test	358	1421866,/	t	<div class = centerbox2><div class = fixation>+</div></div>	none	500.0	test	n/a	n/a	n/a	n/a	n/a	n/a	n/a	n/a	n/a	n/a	n/a	n/a	n/a	n/a	n/a	n/a	n/a	n/a	fixation
305221.791817358	2750	n/a	914	71	2750	925.208182642	stim	stop-signal	523	1424905	0.0-21.16-1.16	beast_fmri_test	358	1422547,/,1423226,/,1423906,/,1424585,/,1425265,/	t,t,t,t,t	<img class = center src='/static/experiments/beast_fmri_test/images/T.png'></img>	71,89	2750.0	test	<img class = center src='/static/experiments/beast_fmri_test/images/redT.png'></img>	go	2000.0	3.0	16.0	go	non-target	T	71,Index Finger	89,Middle Finger	400.0	750.0	2350.0	2000.0	0.0	750.0	0.0	n/a	go_stim
307971.791817358	925.2081826420756	n/a	914	71	2750	925.208182642	stim	stop-signal	523	1424905	0.0-21.16-1.16	beast_fmri_test	358	1422547,/,1423226,/,1423906,/,1424585,/,1425265,/	t,t,t,t,t	<img class = center src='/static/experiments/beast_fmri_test/images/T.png'></img>	71,89	2750.0	test	<img class = center src='/static/experiments/beast_fmri_test/images/redT.png'></img>	go	2000.0	3.0	16.0	go	non-target	T	71,Index Finger	89,Middle Finger	400.0	750.0	2350.0	2000.0	0.0	750.0	0.0	n/a	ITI
310375	500	n/a	-1	-1	500	0.0	fixation	poldrack-single-stim	524	1426383	0.0-21.17-0.17	beast_fmri_test	358	1425944,/	t	<div class = centerbox2><div class = fixation>+</div></div>	none	500.0	test	n/a	n/a	n/a	n/a	n/a	n/a	n/a	n/a	n/a	n/a	n/a	n/a	n/a	n/a	n/a	n/a	n/a	n/a	fixation
310316.62246591807	2750	n/a	623	71	2750	59.3775340819	stim	stop-signal	525	1429134	0.0-21.17-1.17	beast_fmri_test	358	1426624,/,1427303,/,1427984,/,1428662,/	t,t,t,t	<img class = center src='/static/experiments/beast_fmri_test/images/V.png'></img>	71,89	2750.0	test	<img class = center src='/static/experiments/beast_fmri_test/images/redV.png'></img>	go	2350.0	3.0	17.0	go	target	V	71,Index Finger	89,Middle Finger	400.0	750.0	2350.0	2000.0	1.0	400.0	1.0	n/a	go_stim
313066.62246591807	59.377534081937725	n/a	623	71	2750	59.3775340819	stim	stop-signal	525	1429134	0.0-21.17-1.17	beast_fmri_test	358	1426624,/,1427303,/,1427984,/,1428662,/	t,t,t,t	<img class = center src='/static/experiments/beast_fmri_test/images/V.png'></img>	71,89	2750.0	test	<img class = center src='/static/experiments/beast_fmri_test/images/redV.png'></img>	go	2350.0	3.0	17.0	go	target	V	71,Index Finger	89,Middle Finger	400.0	750.0	2350.0	2000.0	1.0	400.0	1.0	n/a	ITI
313738	500	n/a	-1	-1	500	0.0	fixation	poldrack-single-stim	526	1429746	0.0-21.18-0.18	beast_fmri_test	358	1429344,/	t	<div class = centerbox2><div class = fixation>+</div></div>	none	500.0	test	n/a	n/a	n/a	n/a	n/a	n/a	n/a	n/a	n/a	n/a	n/a	n/a	n/a	n/a	n/a	n/a	n/a	n/a	fixation
312608.20073792385	750.0	n/a	396	89	2750	1131.79926208	stim	stop-signal	527	1432498	0.0-21.18-1.18	beast_fmri_test	358	1430023,/,1430703,/,1431381,/,1432062,/,1432741,/,1433422,/	t,t,t,t,t,t	<img class = center src='/static/experiments/beast_fmri_test/images/D.png'></img>	71,89	2750.0	test	<img class = center src='/static/experiments/beast_fmri_test/images/redD.png'></img>	stop	2000.0	3.0	18.0	stop	non-target	D	71,Index Finger	89,Middle Finger	400.0	750.0	2350.0	2000.0	0.0	750.0	n/a	0.0	go_stim
314608.20073792385	2000.0	n/a	396	89	2750	1131.79926208	stim	stop-signal	527	1432498	0.0-21.18-1.18	beast_fmri_test	358	1430023,/,1430703,/,1431381,/,1432062,/,1432741,/,1433422,/	t,t,t,t,t,t	<img class = center src='/static/experiments/beast_fmri_test/images/D.png'></img>	71,89	2750.0	test	<img class = center src='/static/experiments/beast_fmri_test/images/redD.png'></img>	stop	2000.0	3.0	18.0	stop	non-target	D	71,Index Finger	89,Middle Finger	400.0	750.0	2350.0	2000.0	0.0	750.0	n/a	0.0	stop_stim
315358.20073792385	1131.7992620762316	n/a	396	89	2750	1131.79926208	stim	stop-signal	527	1432498	0.0-21.18-1.18	beast_fmri_test	358	1430023,/,1430703,/,1431381,/,1432062,/,1432741,/,1433422,/	t,t,t,t,t,t	<img class = center src='/static/experiments/beast_fmri_test/images/D.png'></img>	71,89	2750.0	test	<img class = center src='/static/experiments/beast_fmri_test/images/redD.png'></img>	stop	2000.0	3.0	18.0	stop	non-target	D	71,Index Finger	89,Middle Finger	400.0	750.0	2350.0	2000.0	0.0	750.0	n/a	0.0	ITI
318172	500	n/a	-1	-1	500	0.0	fixation	poldrack-single-stim	528	1434180	0.0-21.19-0.19	beast_fmri_test	358	1434101,/	t	<div class = centerbox2><div class = fixation>+</div></div>	none	500.0	test	n/a	n/a	n/a	n/a	n/a	n/a	n/a	n/a	n/a	n/a	n/a	n/a	n/a	n/a	n/a	n/a	n/a	n/a	fixation
318037.48370638397	2750	n/a	1371	71	2750	135.516293616	stim	stop-signal	529	1436931	0.0-21.19-1.19	beast_fmri_test	358	1434781,/,1435460,/,1436140,/,1436820,/	t,t,t,t	<img class = center src='/static/experiments/beast_fmri_test/images/T.png'></img>	71,89	2750.0	test	<img class = center src='/static/experiments/beast_fmri_test/images/redT.png'></img>	go	2350.0	3.0	19.0	go	target	T	71,Index Finger	89,Middle Finger	400.0	700.0	2350.0	2000.0	1.0	400.0	1.0	n/a	go_stim
320787.48370638397	135.51629361591804	n/a	1371	71	2750	135.516293616	stim	stop-signal	529	1436931	0.0-21.19-1.19	beast_fmri_test	358	1434781,/,1435460,/,1436140,/,1436820,/	t,t,t,t	<img class = center src='/static/experiments/beast_fmri_test/images/T.png'></img>	71,89	2750.0	test	<img class = center src='/static/experiments/beast_fmri_test/images/redT.png'></img>	go	2350.0	3.0	19.0	go	target	T	71,Index Finger	89,Middle Finger	400.0	700.0	2350.0	2000.0	1.0	400.0	1.0	n/a	ITI
321611	500	n/a	-1	-1	500	0.0	fixation	poldrack-single-stim	530	1437619	0.0-21.20-0.20	beast_fmri_test	358	1437500,/	t	<div class = centerbox2><div class = fixation>+</div></div>	none	500.0	test	n/a	n/a	n/a	n/a	n/a	n/a	n/a	n/a	n/a	n/a	n/a	n/a	n/a	n/a	n/a	n/a	n/a	n/a	fixation
319564.14014435885	2750	n/a	2070	89	2750	2048.85985564	stim	stop-signal	531	1440371	0.0-21.20-1.20	beast_fmri_test	358	1438179,/,1438858,/,1439539,/,1440217,/,1440898,/,1441577,/,1442257,/	t,t,t,t,t,t,t	<img class = center src='/static/experiments/beast_fmri_test/images/P.png'></img>	71,89	2750.0	test	<img class = center src='/static/experiments/beast_fmri_test/images/redP.png'></img>	go	2050.0	3.0	20.0	go	non-target	P	71,Index Finger	89,Middle Finger	400.0	700.0	2350.0	2050.0	1.0	700.0	1.0	n/a	go_stim
322314.14014435885	2048.8598556410348	n/a	2070	89	2750	2048.85985564	stim	stop-signal	531	1440371	0.0-21.20-1.20	beast_fmri_test	358	1438179,/,1438858,/,1439539,/,1440217,/,1440898,/,1441577,/,1442257,/	t,t,t,t,t,t,t	<img class = center src='/static/experiments/beast_fmri_test/images/P.png'></img>	71,89	2750.0	test	<img class = center src='/static/experiments/beast_fmri_test/images/redP.png'></img>	go	2050.0	3.0	20.0	go	non-target	P	71,Index Finger	89,Middle Finger	400.0	700.0	2350.0	2050.0	1.0	700.0	1.0	n/a	ITI
