onset	duration	text	rt	key_press	block_duration	timing_post_trial	trial_id	trial_type	trial_index	time_elapsed	internal_node_id	exp_id	subject_id	trigger_times	triggers	stimulus	possible_responses	stim_duration	exp_stage	SS_stimulus	SS_trial_type	SS_duration	load	trial_num	stop_trial_type	adaptive_trial_type	stim	yes_response_key	no_response_key	SSD_target	SSD_non_target	SSTarget	SSNonTarget	go_acc	SS_delay	adaptive_acc	stop_acc	new_trial_type
test	10880	n/a	-1	-1	10880	0.0	practice-no-stop-feedback	poldrack-single-stim	196	533061	0.0-12.0	beast_fmri_test	301	522181,/,522860,/,523540,/,524221,/,524900,/,525580,/,526260,/,526940,/,527621,/,528300,/,528981,/,529660,/,530340,/,531020,/,531700,/,532380,/,533060,/	t,t,t,t,t,t,t,t,t,t,t,t,t,t,t,t,t	"<div class = ""centerbox""><p class = ""center-block-text"">Your delay is 1 trials.</p><p class = center-block-text>Please wait for the scanner to start the block</p></div>"	77	10880.0	n/a	n/a	n/a	n/a	n/a	n/a	n/a	n/a	n/a	n/a	n/a	n/a	n/a	n/a	n/a	n/a	n/a	n/a	n/a	start_functional_block
11382	500	n/a	-1	-1	500	0.0	fixation	poldrack-single-stim	197	533563	0.0-13.0-0.0	beast_fmri_test	301	n/a	n/a	<div class = centerbox><div class = fixation>+</div></div>	none	500.0	test	n/a	n/a	n/a	n/a	n/a	n/a	n/a	n/a	n/a	n/a	n/a	n/a	n/a	n/a	n/a	n/a	n/a	n/a	fixation
11025.328499349649	temp_go_duration	n/a	1228	89	2750	359.67150065	stim	stop-signal	198	536316	0.0-13.0-1.0	beast_fmri_test	301	533740,/,534421,/,535101,/,535781,/,536461,/	t,t,t,t,t	<img class = center src='/static/experiments/beast_fmri_test/images/P.png'></img>	89,71	2750.0	test	<img class = center src='/static/experiments/beast_fmri_test/images/redP.png'></img>	stop	-1.0	1.0	0.0	stop	temp-non-target	P	89,Yellow Button	71,Green Button	600.0	700.0	2150.0	2000.0	0.0	n/a	n/a	0.0	go_stim
temp-non-target	temp_stop_duration	n/a	1228	89	2750	359.67150065	stim	stop-signal	198	536316	0.0-13.0-1.0	beast_fmri_test	301	533740,/,534421,/,535101,/,535781,/,536461,/	t,t,t,t,t	<img class = center src='/static/experiments/beast_fmri_test/images/P.png'></img>	89,71	2750.0	test	<img class = center src='/static/experiments/beast_fmri_test/images/redP.png'></img>	stop	-1.0	1.0	0.0	stop	temp-non-target	P	89,Yellow Button	71,Green Button	600.0	700.0	2150.0	2000.0	0.0	n/a	n/a	0.0	stop_stim
13775.328499349649	359.671500650334	n/a	1228	89	2750	359.67150065	stim	stop-signal	198	536316	0.0-13.0-1.0	beast_fmri_test	301	533740,/,534421,/,535101,/,535781,/,536461,/	t,t,t,t,t	<img class = center src='/static/experiments/beast_fmri_test/images/P.png'></img>	89,71	2750.0	test	<img class = center src='/static/experiments/beast_fmri_test/images/redP.png'></img>	stop	-1.0	1.0	0.0	stop	temp-non-target	P	89,Yellow Button	71,Green Button	600.0	700.0	2150.0	2000.0	0.0	n/a	n/a	0.0	ITI
15007	500	n/a	-1	-1	500	0.0	fixation	poldrack-single-stim	199	537188	0.0-13.1-0.1	beast_fmri_test	301	537141,/	t	<div class = centerbox><div class = fixation>+</div></div>	none	500.0	test	n/a	n/a	n/a	n/a	n/a	n/a	n/a	n/a	n/a	n/a	n/a	n/a	n/a	n/a	n/a	n/a	n/a	n/a	fixation
14887.212209011661	2750	n/a	722	89	2750	122.787790988	stim	stop-signal	200	539941	0.0-13.1-1.1	beast_fmri_test	301	537821,/,538501,/,539182,/,539861,/	t,t,t,t	<img class = center src='/static/experiments/beast_fmri_test/images/D.png'></img>	89,71	2750.0	test	<img class = center src='/static/experiments/beast_fmri_test/images/redD.png'></img>	go	2050.0	1.0	1.0	go	non-target	D	89,Yellow Button	71,Green Button	600.0	700.0	2150.0	2050.0	0.0	700.0	0.0	n/a	go_stim
17637.212209011661	122.78779098829	n/a	722	89	2750	122.787790988	stim	stop-signal	200	539941	0.0-13.1-1.1	beast_fmri_test	301	537821,/,538501,/,539182,/,539861,/	t,t,t,t	<img class = center src='/static/experiments/beast_fmri_test/images/D.png'></img>	89,71	2750.0	test	<img class = center src='/static/experiments/beast_fmri_test/images/redD.png'></img>	go	2050.0	1.0	1.0	go	non-target	D	89,Yellow Button	71,Green Button	600.0	700.0	2150.0	2050.0	0.0	700.0	0.0	n/a	ITI
18394	500	n/a	-1	-1	500	0.0	fixation	poldrack-single-stim	201	540575	0.0-13.2-0.2	beast_fmri_test	301	540541,/	t	<div class = centerbox><div class = fixation>+</div></div>	none	500.0	test	n/a	n/a	n/a	n/a	n/a	n/a	n/a	n/a	n/a	n/a	n/a	n/a	n/a	n/a	n/a	n/a	n/a	n/a	fixation
17961.389452741249	2750	n/a	578	89	2750	434.610547259	stim	stop-signal	202	543327	0.0-13.2-1.2	beast_fmri_test	301	541221,/,541901,/,542581,/,543261,/	t,t,t,t	<img class = center src='/static/experiments/beast_fmri_test/images/B.png'></img>	89,71	2750.0	test	<img class = center src='/static/experiments/beast_fmri_test/images/redB.png'></img>	go	2050.0	1.0	2.0	go	non-target	B	89,Yellow Button	71,Green Button	600.0	700.0	2150.0	2050.0	0.0	700.0	0.0	n/a	go_stim
20711.389452741249	434.610547258726	n/a	578	89	2750	434.610547259	stim	stop-signal	202	543327	0.0-13.2-1.2	beast_fmri_test	301	541221,/,541901,/,542581,/,543261,/	t,t,t,t	<img class = center src='/static/experiments/beast_fmri_test/images/B.png'></img>	89,71	2750.0	test	<img class = center src='/static/experiments/beast_fmri_test/images/redB.png'></img>	go	2050.0	1.0	2.0	go	non-target	B	89,Yellow Button	71,Green Button	600.0	700.0	2150.0	2050.0	0.0	700.0	0.0	n/a	ITI
22091	500	n/a	-1	-1	500	0.0	fixation	poldrack-single-stim	203	544272	0.0-13.3-0.3	beast_fmri_test	301	543941,/	t	<div class = centerbox><div class = fixation>+</div></div>	none	500.0	test	n/a	n/a	n/a	n/a	n/a	n/a	n/a	n/a	n/a	n/a	n/a	n/a	n/a	n/a	n/a	n/a	n/a	n/a	fixation
22055.305595154059	2750	n/a	561	71	2750	37.6944048459	stim	stop-signal	204	547024	0.0-13.3-1.3	beast_fmri_test	301	544621,/,545301,/,545981,/,546661,/	t,t,t,t	<img class = center src='/static/experiments/beast_fmri_test/images/B.png'></img>	89,71	2750.0	test	<img class = center src='/static/experiments/beast_fmri_test/images/redB.png'></img>	go	2150.0	1.0	3.0	go	target	B	89,Yellow Button	71,Green Button	600.0	700.0	2150.0	2050.0	0.0	600.0	0.0	n/a	go_stim
24805.305595154059	37.694404845920801	n/a	561	71	2750	37.6944048459	stim	stop-signal	204	547024	0.0-13.3-1.3	beast_fmri_test	301	544621,/,545301,/,545981,/,546661,/	t,t,t,t	<img class = center src='/static/experiments/beast_fmri_test/images/B.png'></img>	89,71	2750.0	test	<img class = center src='/static/experiments/beast_fmri_test/images/redB.png'></img>	go	2150.0	1.0	3.0	go	target	B	89,Yellow Button	71,Green Button	600.0	700.0	2150.0	2050.0	0.0	600.0	0.0	n/a	ITI
25393	500	n/a	-1	-1	500	0.0	fixation	poldrack-single-stim	205	547574	0.0-13.4-0.4	beast_fmri_test	301	547341,/	t	<div class = centerbox><div class = fixation>+</div></div>	none	500.0	test	n/a	n/a	n/a	n/a	n/a	n/a	n/a	n/a	n/a	n/a	n/a	n/a	n/a	n/a	n/a	n/a	n/a	n/a	fixation
24743.95501133916	700.0	n/a	1745	89	2750	651.044988661	stim	stop-signal	206	550326	0.0-13.4-1.4	beast_fmri_test	301	548021,/,548701,/,549381,/,550061,/,550741,/	t,t,t,t,t	<img class = center src='/static/experiments/beast_fmri_test/images/V.png'></img>	89,71	2750.0	test	<img class = center src='/static/experiments/beast_fmri_test/images/redV.png'></img>	stop	2050.0	1.0	4.0	stop	non-target	V	89,Yellow Button	71,Green Button	600.0	700.0	2150.0	2050.0	0.0	700.0	0.0	0.0	go_stim
26793.95501133916	2050.0	n/a	1745	89	2750	651.044988661	stim	stop-signal	206	550326	0.0-13.4-1.4	beast_fmri_test	301	548021,/,548701,/,549381,/,550061,/,550741,/	t,t,t,t,t	<img class = center src='/static/experiments/beast_fmri_test/images/V.png'></img>	89,71	2750.0	test	<img class = center src='/static/experiments/beast_fmri_test/images/redV.png'></img>	stop	2050.0	1.0	4.0	stop	non-target	V	89,Yellow Button	71,Green Button	600.0	700.0	2150.0	2050.0	0.0	700.0	0.0	0.0	stop_stim
27493.95501133916	651.04498866083998	n/a	1745	89	2750	651.044988661	stim	stop-signal	206	550326	0.0-13.4-1.4	beast_fmri_test	301	548021,/,548701,/,549381,/,550061,/,550741,/	t,t,t,t,t	<img class = center src='/static/experiments/beast_fmri_test/images/V.png'></img>	89,71	2750.0	test	<img class = center src='/static/experiments/beast_fmri_test/images/redV.png'></img>	stop	2050.0	1.0	4.0	stop	non-target	V	89,Yellow Button	71,Green Button	600.0	700.0	2150.0	2050.0	0.0	700.0	0.0	0.0	ITI
29308	500	n/a	-1	-1	500	0.0	fixation	poldrack-single-stim	207	551489	0.0-13.5-0.5	beast_fmri_test	301	551421,/	t	<div class = centerbox><div class = fixation>+</div></div>	none	500.0	test	n/a	n/a	n/a	n/a	n/a	n/a	n/a	n/a	n/a	n/a	n/a	n/a	n/a	n/a	n/a	n/a	n/a	n/a	fixation
29268.858668559231	2750	n/a	1180	89	2750	41.1413314408	stim	stop-signal	208	554241	0.0-13.5-1.5	beast_fmri_test	301	552101,/,552781,/,553461,/,554141,/	t,t,t,t	<img class = center src='/static/experiments/beast_fmri_test/images/B.png'></img>	89,71	2750.0	test	<img class = center src='/static/experiments/beast_fmri_test/images/redB.png'></img>	go	2100.0	1.0	5.0	go	non-target	B	89,Yellow Button	71,Green Button	600.0	650.0	2150.0	2100.0	0.0	650.0	0.0	n/a	go_stim
32018.858668559231	41.141331440765697	n/a	1180	89	2750	41.1413314408	stim	stop-signal	208	554241	0.0-13.5-1.5	beast_fmri_test	301	552101,/,552781,/,553461,/,554141,/	t,t,t,t	<img class = center src='/static/experiments/beast_fmri_test/images/B.png'></img>	89,71	2750.0	test	<img class = center src='/static/experiments/beast_fmri_test/images/redB.png'></img>	go	2100.0	1.0	5.0	go	non-target	B	89,Yellow Button	71,Green Button	600.0	650.0	2150.0	2100.0	0.0	650.0	0.0	n/a	ITI
32613	500	n/a	-1	-1	500	0.0	fixation	poldrack-single-stim	209	554794	0.0-13.6-0.6	beast_fmri_test	301	n/a	n/a	<div class = centerbox><div class = fixation>+</div></div>	none	500.0	test	n/a	n/a	n/a	n/a	n/a	n/a	n/a	n/a	n/a	n/a	n/a	n/a	n/a	n/a	n/a	n/a	n/a	n/a	fixation
32273.213352805586	650.0	n/a	712	89	2750	341.786647194	stim	stop-signal	210	557546	0.0-13.6-1.6	beast_fmri_test	301	554821,/,555501,/,556181,/,556861,/,557541,/	t,t,t,t,t	<img class = center src='/static/experiments/beast_fmri_test/images/T.png'></img>	89,71	2750.0	test	<img class = center src='/static/experiments/beast_fmri_test/images/redT.png'></img>	stop	2100.0	1.0	6.0	stop	non-target	T	89,Yellow Button	71,Green Button	600.0	650.0	2150.0	2100.0	0.0	650.0	0.0	0.0	go_stim
34373.213352805586	2100.0	n/a	712	89	2750	341.786647194	stim	stop-signal	210	557546	0.0-13.6-1.6	beast_fmri_test	301	554821,/,555501,/,556181,/,556861,/,557541,/	t,t,t,t,t	<img class = center src='/static/experiments/beast_fmri_test/images/T.png'></img>	89,71	2750.0	test	<img class = center src='/static/experiments/beast_fmri_test/images/redT.png'></img>	stop	2100.0	1.0	6.0	stop	non-target	T	89,Yellow Button	71,Green Button	600.0	650.0	2150.0	2100.0	0.0	650.0	0.0	0.0	stop_stim
35023.213352805586	341.78664719442202	n/a	712	89	2750	341.786647194	stim	stop-signal	210	557546	0.0-13.6-1.6	beast_fmri_test	301	554821,/,555501,/,556181,/,556861,/,557541,/	t,t,t,t,t	<img class = center src='/static/experiments/beast_fmri_test/images/T.png'></img>	89,71	2750.0	test	<img class = center src='/static/experiments/beast_fmri_test/images/redT.png'></img>	stop	2100.0	1.0	6.0	stop	non-target	T	89,Yellow Button	71,Green Button	600.0	650.0	2150.0	2100.0	0.0	650.0	0.0	0.0	ITI
36220	500	n/a	-1	-1	500	0.0	fixation	poldrack-single-stim	211	558401	0.0-13.7-0.7	beast_fmri_test	301	558221,/	t	<div class = centerbox><div class = fixation>+</div></div>	none	500.0	test	n/a	n/a	n/a	n/a	n/a	n/a	n/a	n/a	n/a	n/a	n/a	n/a	n/a	n/a	n/a	n/a	n/a	n/a	fixation
36179.447688221931	2750	n/a	1030	89	2750	42.552311778	stim	stop-signal	212	561153	0.0-13.7-1.7	beast_fmri_test	301	558901,/,559581,/,560261,/,560940,/	t,t,t,t	<img class = center src='/static/experiments/beast_fmri_test/images/D.png'></img>	89,71	2750.0	test	<img class = center src='/static/experiments/beast_fmri_test/images/redD.png'></img>	go	2150.0	1.0	7.0	go	non-target	D	89,Yellow Button	71,Green Button	600.0	600.0	2150.0	2150.0	0.0	600.0	0.0	n/a	go_stim
38929.447688221931	42.552311778040199	n/a	1030	89	2750	42.552311778	stim	stop-signal	212	561153	0.0-13.7-1.7	beast_fmri_test	301	558901,/,559581,/,560261,/,560940,/	t,t,t,t	<img class = center src='/static/experiments/beast_fmri_test/images/D.png'></img>	89,71	2750.0	test	<img class = center src='/static/experiments/beast_fmri_test/images/redD.png'></img>	go	2150.0	1.0	7.0	go	non-target	D	89,Yellow Button	71,Green Button	600.0	600.0	2150.0	2150.0	0.0	600.0	0.0	n/a	ITI
39525	500	n/a	-1	-1	500	0.0	fixation	poldrack-single-stim	213	561706	0.0-13.8-0.8	beast_fmri_test	301	561621,/	t	<div class = centerbox><div class = fixation>+</div></div>	none	500.0	test	n/a	n/a	n/a	n/a	n/a	n/a	n/a	n/a	n/a	n/a	n/a	n/a	n/a	n/a	n/a	n/a	n/a	n/a	fixation
39242.302672476391	600.0	n/a	1007	89	2750	284.697327524	stim	stop-signal	214	564458	0.0-13.8-1.8	beast_fmri_test	301	562301,/,562981,/,563660,/,564341,/	t,t,t,t	<img class = center src='/static/experiments/beast_fmri_test/images/B.png'></img>	89,71	2750.0	test	<img class = center src='/static/experiments/beast_fmri_test/images/redB.png'></img>	stop	2150.0	1.0	8.0	stop	non-target	B	89,Yellow Button	71,Green Button	600.0	600.0	2150.0	2150.0	0.0	600.0	0.0	0.0	go_stim
41392.302672476391	2150.0	n/a	1007	89	2750	284.697327524	stim	stop-signal	214	564458	0.0-13.8-1.8	beast_fmri_test	301	562301,/,562981,/,563660,/,564341,/	t,t,t,t	<img class = center src='/static/experiments/beast_fmri_test/images/B.png'></img>	89,71	2750.0	test	<img class = center src='/static/experiments/beast_fmri_test/images/redB.png'></img>	stop	2150.0	1.0	8.0	stop	non-target	B	89,Yellow Button	71,Green Button	600.0	600.0	2150.0	2150.0	0.0	600.0	0.0	0.0	stop_stim
41992.302672476391	284.697327523615	n/a	1007	89	2750	284.697327524	stim	stop-signal	214	564458	0.0-13.8-1.8	beast_fmri_test	301	562301,/,562981,/,563660,/,564341,/	t,t,t,t	<img class = center src='/static/experiments/beast_fmri_test/images/B.png'></img>	89,71	2750.0	test	<img class = center src='/static/experiments/beast_fmri_test/images/redB.png'></img>	stop	2150.0	1.0	8.0	stop	non-target	B	89,Yellow Button	71,Green Button	600.0	600.0	2150.0	2150.0	0.0	600.0	0.0	0.0	ITI
43073	500	n/a	-1	-1	500	0.0	fixation	poldrack-single-stim	215	565254	0.0-13.9-0.9	beast_fmri_test	301	565021,/	t	<div class = centerbox><div class = fixation>+</div></div>	none	500.0	test	n/a	n/a	n/a	n/a	n/a	n/a	n/a	n/a	n/a	n/a	n/a	n/a	n/a	n/a	n/a	n/a	n/a	n/a	fixation
42531.76596953941	2750	n/a	646	71	2750	543.234030461	stim	stop-signal	216	568006	0.0-13.9-1.9	beast_fmri_test	301	565701,/,566380,/,567061,/,567742,/,568422,/	t,t,t,t,t	<img class = center src='/static/experiments/beast_fmri_test/images/B.png'></img>	89,71	2750.0	test	<img class = center src='/static/experiments/beast_fmri_test/images/redB.png'></img>	go	2150.0	1.0	9.0	go	target	B	89,Yellow Button	71,Green Button	600.0	550.0	2150.0	2150.0	0.0	600.0	0.0	n/a	go_stim
45281.76596953941	543.23403046057695	n/a	646	71	2750	543.234030461	stim	stop-signal	216	568006	0.0-13.9-1.9	beast_fmri_test	301	565701,/,566380,/,567061,/,567742,/,568422,/	t,t,t,t,t	<img class = center src='/static/experiments/beast_fmri_test/images/B.png'></img>	89,71	2750.0	test	<img class = center src='/static/experiments/beast_fmri_test/images/redB.png'></img>	go	2150.0	1.0	9.0	go	target	B	89,Yellow Button	71,Green Button	600.0	550.0	2150.0	2150.0	0.0	600.0	0.0	n/a	ITI
46879	500	n/a	-1	-1	500	0.0	fixation	poldrack-single-stim	217	569060	0.0-13.10-0.10	beast_fmri_test	301	n/a	n/a	<div class = centerbox><div class = fixation>+</div></div>	none	500.0	test	n/a	n/a	n/a	n/a	n/a	n/a	n/a	n/a	n/a	n/a	n/a	n/a	n/a	n/a	n/a	n/a	n/a	n/a	fixation
46701.271566475509	2750	n/a	860	89	2750	179.728433525	stim	stop-signal	218	571812	0.0-13.10-1.10	beast_fmri_test	301	569101,/,569783,/,570461,/,571142,/,571821,/	t,t,t,t,t	<img class = center src='/static/experiments/beast_fmri_test/images/T.png'></img>	89,71	2750.0	test	<img class = center src='/static/experiments/beast_fmri_test/images/redT.png'></img>	go	2200.0	1.0	10.0	go	non-target	T	89,Yellow Button	71,Green Button	600.0	550.0	2150.0	2200.0	0.0	550.0	0.0	n/a	go_stim
49451.271566475509	179.72843352452099	n/a	860	89	2750	179.728433525	stim	stop-signal	218	571812	0.0-13.10-1.10	beast_fmri_test	301	569101,/,569783,/,570461,/,571142,/,571821,/	t,t,t,t,t	<img class = center src='/static/experiments/beast_fmri_test/images/T.png'></img>	89,71	2750.0	test	<img class = center src='/static/experiments/beast_fmri_test/images/redT.png'></img>	go	2200.0	1.0	10.0	go	non-target	T	89,Yellow Button	71,Green Button	600.0	550.0	2150.0	2200.0	0.0	550.0	0.0	n/a	ITI
50323	500	n/a	-1	-1	500	0.0	fixation	poldrack-single-stim	219	572504	0.0-13.11-0.11	beast_fmri_test	301	572501,/	t	<div class = centerbox><div class = fixation>+</div></div>	none	500.0	test	n/a	n/a	n/a	n/a	n/a	n/a	n/a	n/a	n/a	n/a	n/a	n/a	n/a	n/a	n/a	n/a	n/a	n/a	fixation
49912.780554269324	550.0	n/a	-1	-1	2750	412.219445731	stim	stop-signal	220	575256	0.0-13.11-1.11	beast_fmri_test	301	573181,/,573862,/,574541,/,575222,/	t,t,t,t	<img class = center src='/static/experiments/beast_fmri_test/images/D.png'></img>	89,71	2750.0	test	<img class = center src='/static/experiments/beast_fmri_test/images/redD.png'></img>	stop	2200.0	1.0	11.0	stop	non-target	D	89,Yellow Button	71,Green Button	600.0	550.0	2150.0	2200.0	0.0	550.0	0.0	1.0	go_stim
52112.780554269324	2200.0	n/a	-1	-1	2750	412.219445731	stim	stop-signal	220	575256	0.0-13.11-1.11	beast_fmri_test	301	573181,/,573862,/,574541,/,575222,/	t,t,t,t	<img class = center src='/static/experiments/beast_fmri_test/images/D.png'></img>	89,71	2750.0	test	<img class = center src='/static/experiments/beast_fmri_test/images/redD.png'></img>	stop	2200.0	1.0	11.0	stop	non-target	D	89,Yellow Button	71,Green Button	600.0	550.0	2150.0	2200.0	0.0	550.0	0.0	1.0	stop_stim
52662.780554269324	412.21944573068902	n/a	-1	-1	2750	412.219445731	stim	stop-signal	220	575256	0.0-13.11-1.11	beast_fmri_test	301	573181,/,573862,/,574541,/,575222,/	t,t,t,t	<img class = center src='/static/experiments/beast_fmri_test/images/D.png'></img>	89,71	2750.0	test	<img class = center src='/static/experiments/beast_fmri_test/images/redD.png'></img>	stop	2200.0	1.0	11.0	stop	non-target	D	89,Yellow Button	71,Green Button	600.0	550.0	2150.0	2200.0	0.0	550.0	0.0	1.0	ITI
54000	500	n/a	-1	-1	500	0.0	fixation	poldrack-single-stim	221	576181	0.0-13.12-0.12	beast_fmri_test	301	575901,/	t	<div class = centerbox><div class = fixation>+</div></div>	none	500.0	test	n/a	n/a	n/a	n/a	n/a	n/a	n/a	n/a	n/a	n/a	n/a	n/a	n/a	n/a	n/a	n/a	n/a	n/a	fixation
53814.269911632407	2750	n/a	596	71	2750	187.730088368	stim	stop-signal	222	578933	0.0-13.12-1.12	beast_fmri_test	301	576581,/,577262,/,577941,/,578621,/	t,t,t,t	<img class = center src='/static/experiments/beast_fmri_test/images/D.png'></img>	89,71	2750.0	test	<img class = center src='/static/experiments/beast_fmri_test/images/redD.png'></img>	go	2150.0	1.0	12.0	go	target	D	89,Yellow Button	71,Green Button	600.0	600.0	2150.0	2200.0	0.0	600.0	0.0	n/a	go_stim
56564.269911632407	187.730088367599	n/a	596	71	2750	187.730088368	stim	stop-signal	222	578933	0.0-13.12-1.12	beast_fmri_test	301	576581,/,577262,/,577941,/,578621,/	t,t,t,t	<img class = center src='/static/experiments/beast_fmri_test/images/D.png'></img>	89,71	2750.0	test	<img class = center src='/static/experiments/beast_fmri_test/images/redD.png'></img>	go	2150.0	1.0	12.0	go	target	D	89,Yellow Button	71,Green Button	600.0	600.0	2150.0	2200.0	0.0	600.0	0.0	n/a	ITI
57451	500	n/a	-1	-1	500	0.0	fixation	poldrack-single-stim	223	579632	0.0-13.13-0.13	beast_fmri_test	301	579302,/	t	<div class = centerbox><div class = fixation>+</div></div>	none	500.0	test	n/a	n/a	n/a	n/a	n/a	n/a	n/a	n/a	n/a	n/a	n/a	n/a	n/a	n/a	n/a	n/a	n/a	n/a	fixation
54391.716197320377	2750	n/a	-1	-1	2750	3061.28380268	stim	stop-signal	224	582384	0.0-13.13-1.13	beast_fmri_test	301	579982,/,580662,/,581341,/,582022,/,582701,/,583381,/,584061,/,584741,/,585421,/	t,t,t,t,t,t,t,t,t	<img class = center src='/static/experiments/beast_fmri_test/images/D.png'></img>	89,71	2750.0	test	<img class = center src='/static/experiments/beast_fmri_test/images/redD.png'></img>	go	2150.0	1.0	13.0	go	target	D	89,Yellow Button	71,Green Button	600.0	600.0	2150.0	2200.0	0.0	600.0	0.0	n/a	go_stim
57141.716197320377	3061.2838026795898	n/a	-1	-1	2750	3061.28380268	stim	stop-signal	224	582384	0.0-13.13-1.13	beast_fmri_test	301	579982,/,580662,/,581341,/,582022,/,582701,/,583381,/,584061,/,584741,/,585421,/	t,t,t,t,t,t,t,t,t	<img class = center src='/static/experiments/beast_fmri_test/images/D.png'></img>	89,71	2750.0	test	<img class = center src='/static/experiments/beast_fmri_test/images/redD.png'></img>	go	2150.0	1.0	13.0	go	target	D	89,Yellow Button	71,Green Button	600.0	600.0	2150.0	2200.0	0.0	600.0	0.0	n/a	ITI
63779	500	n/a	-1	-1	500	0.0	fixation	poldrack-single-stim	225	585960	0.0-13.14-0.14	beast_fmri_test	301	n/a	n/a	<div class = centerbox><div class = fixation>+</div></div>	none	500.0	test	n/a	n/a	n/a	n/a	n/a	n/a	n/a	n/a	n/a	n/a	n/a	n/a	n/a	n/a	n/a	n/a	n/a	n/a	fixation
63403.929791475763	600.0	n/a	-1	-1	2750	377.070208524	stim	stop-signal	226	588712	0.0-13.14-1.14	beast_fmri_test	301	586101,/,586781,/,587461,/,588141,/,588821,/	t,t,t,t,t	<img class = center src='/static/experiments/beast_fmri_test/images/B.png'></img>	89,71	2750.0	test	<img class = center src='/static/experiments/beast_fmri_test/images/redB.png'></img>	stop	2150.0	1.0	14.0	stop	non-target	B	89,Yellow Button	71,Green Button	600.0	600.0	2150.0	2150.0	0.0	600.0	0.0	1.0	go_stim
65553.929791475763	2150.0	n/a	-1	-1	2750	377.070208524	stim	stop-signal	226	588712	0.0-13.14-1.14	beast_fmri_test	301	586101,/,586781,/,587461,/,588141,/,588821,/	t,t,t,t,t	<img class = center src='/static/experiments/beast_fmri_test/images/B.png'></img>	89,71	2750.0	test	<img class = center src='/static/experiments/beast_fmri_test/images/redB.png'></img>	stop	2150.0	1.0	14.0	stop	non-target	B	89,Yellow Button	71,Green Button	600.0	600.0	2150.0	2150.0	0.0	600.0	0.0	1.0	stop_stim
66153.929791475763	377.07020852427502	n/a	-1	-1	2750	377.070208524	stim	stop-signal	226	588712	0.0-13.14-1.14	beast_fmri_test	301	586101,/,586781,/,587461,/,588141,/,588821,/	t,t,t,t,t	<img class = center src='/static/experiments/beast_fmri_test/images/B.png'></img>	89,71	2750.0	test	<img class = center src='/static/experiments/beast_fmri_test/images/redB.png'></img>	stop	2150.0	1.0	14.0	stop	non-target	B	89,Yellow Button	71,Green Button	600.0	600.0	2150.0	2150.0	0.0	600.0	0.0	1.0	ITI
67420	500	n/a	-1	-1	500	0.0	fixation	poldrack-single-stim	227	589601	0.0-13.15-0.15	beast_fmri_test	301	589501,/	t	<div class = centerbox><div class = fixation>+</div></div>	none	500.0	test	n/a	n/a	n/a	n/a	n/a	n/a	n/a	n/a	n/a	n/a	n/a	n/a	n/a	n/a	n/a	n/a	n/a	n/a	fixation
67156.699490398518	2750	n/a	834	89	2750	265.300509602	stim	stop-signal	228	592353	0.0-13.15-1.15	beast_fmri_test	301	590182,/,590861,/,591541,/,592221,/	t,t,t,t	<img class = center src='/static/experiments/beast_fmri_test/images/D.png'></img>	89,71	2750.0	test	<img class = center src='/static/experiments/beast_fmri_test/images/redD.png'></img>	go	2100.0	1.0	15.0	go	non-target	D	89,Yellow Button	71,Green Button	600.0	650.0	2150.0	2100.0	0.0	650.0	0.0	n/a	go_stim
69906.699490398518	265.30050960151101	n/a	834	89	2750	265.300509602	stim	stop-signal	228	592353	0.0-13.15-1.15	beast_fmri_test	301	590182,/,590861,/,591541,/,592221,/	t,t,t,t	<img class = center src='/static/experiments/beast_fmri_test/images/D.png'></img>	89,71	2750.0	test	<img class = center src='/static/experiments/beast_fmri_test/images/redD.png'></img>	go	2100.0	1.0	15.0	go	non-target	D	89,Yellow Button	71,Green Button	600.0	650.0	2150.0	2100.0	0.0	650.0	0.0	n/a	ITI
70948	500	n/a	-1	-1	500	0.0	fixation	poldrack-single-stim	229	593129	0.0-13.16-0.16	beast_fmri_test	301	592901,/	t	<div class = centerbox><div class = fixation>+</div></div>	none	500.0	test	n/a	n/a	n/a	n/a	n/a	n/a	n/a	n/a	n/a	n/a	n/a	n/a	n/a	n/a	n/a	n/a	n/a	n/a	fixation
68561.959085293463	650.0	n/a	963	89	2750	2389.04091471	stim	stop-signal	230	595882	0.0-13.16-1.16	beast_fmri_test	301	593581,/,594261,/,594941,/,595621,/,596301,/,596981,/,597661,/	t,t,t,t,t,t,t	<img class = center src='/static/experiments/beast_fmri_test/images/B.png'></img>	89,71	2750.0	test	<img class = center src='/static/experiments/beast_fmri_test/images/redB.png'></img>	stop	2100.0	1.0	16.0	stop	non-target	B	89,Yellow Button	71,Green Button	600.0	650.0	2150.0	2100.0	0.0	650.0	0.0	0.0	go_stim
70661.959085293463	2100.0	n/a	963	89	2750	2389.04091471	stim	stop-signal	230	595882	0.0-13.16-1.16	beast_fmri_test	301	593581,/,594261,/,594941,/,595621,/,596301,/,596981,/,597661,/	t,t,t,t,t,t,t	<img class = center src='/static/experiments/beast_fmri_test/images/B.png'></img>	89,71	2750.0	test	<img class = center src='/static/experiments/beast_fmri_test/images/redB.png'></img>	stop	2100.0	1.0	16.0	stop	non-target	B	89,Yellow Button	71,Green Button	600.0	650.0	2150.0	2100.0	0.0	650.0	0.0	0.0	stop_stim
71311.959085293463	2389.0409147064802	n/a	963	89	2750	2389.04091471	stim	stop-signal	230	595882	0.0-13.16-1.16	beast_fmri_test	301	593581,/,594261,/,594941,/,595621,/,596301,/,596981,/,597661,/	t,t,t,t,t,t,t	<img class = center src='/static/experiments/beast_fmri_test/images/B.png'></img>	89,71	2750.0	test	<img class = center src='/static/experiments/beast_fmri_test/images/redB.png'></img>	stop	2100.0	1.0	16.0	stop	non-target	B	89,Yellow Button	71,Green Button	600.0	650.0	2150.0	2100.0	0.0	650.0	0.0	0.0	ITI
76605	500	n/a	-1	-1	500	0.0	fixation	poldrack-single-stim	231	598786	0.0-13.17-0.17	beast_fmri_test	301	598341,/	t	<div class = centerbox><div class = fixation>+</div></div>	none	500.0	test	n/a	n/a	n/a	n/a	n/a	n/a	n/a	n/a	n/a	n/a	n/a	n/a	n/a	n/a	n/a	n/a	n/a	n/a	fixation
75991.995545825688	2750	n/a	871	71	2750	615.004454174	stim	stop-signal	232	601538	0.0-13.17-1.17	beast_fmri_test	301	599022,/,599702,/,600382,/,601062,/,601742,/	t,t,t,t,t	<img class = center src='/static/experiments/beast_fmri_test/images/B.png'></img>	89,71	2750.0	test	<img class = center src='/static/experiments/beast_fmri_test/images/redB.png'></img>	go	2150.0	1.0	17.0	go	target	B	89,Yellow Button	71,Green Button	600.0	600.0	2150.0	2100.0	0.0	600.0	0.0	n/a	go_stim
78741.995545825688	615.00445417428398	n/a	871	71	2750	615.004454174	stim	stop-signal	232	601538	0.0-13.17-1.17	beast_fmri_test	301	599022,/,599702,/,600382,/,601062,/,601742,/	t,t,t,t,t	<img class = center src='/static/experiments/beast_fmri_test/images/B.png'></img>	89,71	2750.0	test	<img class = center src='/static/experiments/beast_fmri_test/images/redB.png'></img>	go	2150.0	1.0	17.0	go	target	B	89,Yellow Button	71,Green Button	600.0	600.0	2150.0	2100.0	0.0	600.0	0.0	n/a	ITI
80486	500	n/a	-1	-1	500	0.0	fixation	poldrack-single-stim	233	602667	0.0-13.18-0.18	beast_fmri_test	301	602422,/	t	<div class = centerbox><div class = fixation>+</div></div>	none	500.0	test	n/a	n/a	n/a	n/a	n/a	n/a	n/a	n/a	n/a	n/a	n/a	n/a	n/a	n/a	n/a	n/a	n/a	n/a	fixation
79493.645977579406	600.0	n/a	777	71	2750	994.354022421	stim	stop-signal	234	605419	0.0-13.18-1.18	beast_fmri_test	301	603102,/,603782,/,604462,/,605142,/,605822,/	t,t,t,t,t	<img class = center src='/static/experiments/beast_fmri_test/images/B.png'></img>	89,71	2750.0	test	<img class = center src='/static/experiments/beast_fmri_test/images/redB.png'></img>	stop	2150.0	1.0	18.0	stop	target	B	89,Yellow Button	71,Green Button	600.0	600.0	2150.0	2100.0	0.0	600.0	0.0	0.0	go_stim
81643.645977579406	2150.0	n/a	777	71	2750	994.354022421	stim	stop-signal	234	605419	0.0-13.18-1.18	beast_fmri_test	301	603102,/,603782,/,604462,/,605142,/,605822,/	t,t,t,t,t	<img class = center src='/static/experiments/beast_fmri_test/images/B.png'></img>	89,71	2750.0	test	<img class = center src='/static/experiments/beast_fmri_test/images/redB.png'></img>	stop	2150.0	1.0	18.0	stop	target	B	89,Yellow Button	71,Green Button	600.0	600.0	2150.0	2100.0	0.0	600.0	0.0	0.0	stop_stim
82243.645977579406	994.35402242054295	n/a	777	71	2750	994.354022421	stim	stop-signal	234	605419	0.0-13.18-1.18	beast_fmri_test	301	603102,/,603782,/,604462,/,605142,/,605822,/	t,t,t,t,t	<img class = center src='/static/experiments/beast_fmri_test/images/B.png'></img>	89,71	2750.0	test	<img class = center src='/static/experiments/beast_fmri_test/images/redB.png'></img>	stop	2150.0	1.0	18.0	stop	target	B	89,Yellow Button	71,Green Button	600.0	600.0	2150.0	2100.0	0.0	600.0	0.0	0.0	ITI
84745	500	n/a	-1	-1	500	0.0	fixation	poldrack-single-stim	235	606926	0.0-13.19-0.19	beast_fmri_test	301	606502,/	t	<div class = centerbox><div class = fixation>+</div></div>	none	500.0	test	n/a	n/a	n/a	n/a	n/a	n/a	n/a	n/a	n/a	n/a	n/a	n/a	n/a	n/a	n/a	n/a	n/a	n/a	fixation
83653.367552854121	2750	n/a	969	89	2750	1093.63244715	stim	stop-signal	236	609678	0.0-13.19-1.19	beast_fmri_test	301	607182,/,607862,/,608542,/,609222,/,609902,/,610583,/	t,t,t,t,t,t	<img class = center src='/static/experiments/beast_fmri_test/images/T.png'></img>	89,71	2750.0	test	<img class = center src='/static/experiments/beast_fmri_test/images/redT.png'></img>	go	2150.0	1.0	19.0	go	non-target	T	89,Yellow Button	71,Green Button	550.0	600.0	2150.0	2150.0	0.0	600.0	0.0	n/a	go_stim
86403.367552854121	1093.6324471458599	n/a	969	89	2750	1093.63244715	stim	stop-signal	236	609678	0.0-13.19-1.19	beast_fmri_test	301	607182,/,607862,/,608542,/,609222,/,609902,/,610583,/	t,t,t,t,t,t	<img class = center src='/static/experiments/beast_fmri_test/images/T.png'></img>	89,71	2750.0	test	<img class = center src='/static/experiments/beast_fmri_test/images/redT.png'></img>	go	2150.0	1.0	19.0	go	non-target	T	89,Yellow Button	71,Green Button	550.0	600.0	2150.0	2150.0	0.0	600.0	0.0	n/a	ITI
89106	500	n/a	-1	-1	500	0.0	fixation	poldrack-single-stim	237	611287	0.0-13.20-0.20	beast_fmri_test	301	611262,/	t	<div class = centerbox><div class = fixation>+</div></div>	none	500.0	test	n/a	n/a	n/a	n/a	n/a	n/a	n/a	n/a	n/a	n/a	n/a	n/a	n/a	n/a	n/a	n/a	n/a	n/a	fixation
88838.086420157342	2750	n/a	933	89	2750	268.913579843	stim	stop-signal	238	614038	0.0-13.20-1.20	beast_fmri_test	301	611942,/,612622,/,613302,/,613982,/	t,t,t,t	<img class = center src='/static/experiments/beast_fmri_test/images/P.png'></img>	89,71	2750.0	test	<img class = center src='/static/experiments/beast_fmri_test/images/redP.png'></img>	go	2150.0	1.0	20.0	go	non-target	P	89,Yellow Button	71,Green Button	550.0	600.0	2150.0	2150.0	0.0	600.0	0.0	n/a	go_stim
91588.086420157342	268.91357984270502	n/a	933	89	2750	268.913579843	stim	stop-signal	238	614038	0.0-13.20-1.20	beast_fmri_test	301	611942,/,612622,/,613302,/,613982,/	t,t,t,t	<img class = center src='/static/experiments/beast_fmri_test/images/P.png'></img>	89,71	2750.0	test	<img class = center src='/static/experiments/beast_fmri_test/images/redP.png'></img>	go	2150.0	1.0	20.0	go	non-target	P	89,Yellow Button	71,Green Button	550.0	600.0	2150.0	2150.0	0.0	600.0	0.0	n/a	ITI
92640	500	n/a	-1	-1	500	0.0	fixation	poldrack-single-stim	239	614821	0.0-13.21-0.21	beast_fmri_test	301	614662,/	t	<div class = centerbox><div class = fixation>+</div></div>	none	500.0	test	n/a	n/a	n/a	n/a	n/a	n/a	n/a	n/a	n/a	n/a	n/a	n/a	n/a	n/a	n/a	n/a	n/a	n/a	fixation
92492.580627091811	2750	n/a	998	89	2750	150.419372908	stim	stop-signal	240	617574	0.0-13.21-1.21	beast_fmri_test	301	615342,/,616022,/,616701,/,617382,/	t,t,t,t	<img class = center src='/static/experiments/beast_fmri_test/images/D.png'></img>	89,71	2750.0	test	<img class = center src='/static/experiments/beast_fmri_test/images/redD.png'></img>	go	2150.0	1.0	21.0	go	non-target	D	89,Yellow Button	71,Green Button	550.0	600.0	2150.0	2150.0	0.0	600.0	0.0	n/a	go_stim
95242.580627091811	150.41937290817401	n/a	998	89	2750	150.419372908	stim	stop-signal	240	617574	0.0-13.21-1.21	beast_fmri_test	301	615342,/,616022,/,616701,/,617382,/	t,t,t,t	<img class = center src='/static/experiments/beast_fmri_test/images/D.png'></img>	89,71	2750.0	test	<img class = center src='/static/experiments/beast_fmri_test/images/redD.png'></img>	go	2150.0	1.0	21.0	go	non-target	D	89,Yellow Button	71,Green Button	550.0	600.0	2150.0	2150.0	0.0	600.0	0.0	n/a	ITI
96057	500	n/a	-1	-1	500	0.0	fixation	poldrack-single-stim	241	618238	0.0-13.22-0.22	beast_fmri_test	301	618062,/	t	<div class = centerbox><div class = fixation>+</div></div>	none	500.0	test	n/a	n/a	n/a	n/a	n/a	n/a	n/a	n/a	n/a	n/a	n/a	n/a	n/a	n/a	n/a	n/a	n/a	n/a	fixation
95837.745995760895	550.0	n/a	-1	-1	2750	221.254004239	stim	stop-signal	242	620990	0.0-13.22-1.22	beast_fmri_test	301	618742,/,619422,/,620102,/,620783,/	t,t,t,t	<img class = center src='/static/experiments/beast_fmri_test/images/D.png'></img>	89,71	2750.0	test	<img class = center src='/static/experiments/beast_fmri_test/images/redD.png'></img>	stop	2200.0	1.0	22.0	stop	target	D	89,Yellow Button	71,Green Button	550.0	600.0	2200.0	2150.0	0.0	550.0	0.0	1.0	go_stim
98037.745995760895	2200.0	n/a	-1	-1	2750	221.254004239	stim	stop-signal	242	620990	0.0-13.22-1.22	beast_fmri_test	301	618742,/,619422,/,620102,/,620783,/	t,t,t,t	<img class = center src='/static/experiments/beast_fmri_test/images/D.png'></img>	89,71	2750.0	test	<img class = center src='/static/experiments/beast_fmri_test/images/redD.png'></img>	stop	2200.0	1.0	22.0	stop	target	D	89,Yellow Button	71,Green Button	550.0	600.0	2200.0	2150.0	0.0	550.0	0.0	1.0	stop_stim
98587.745995760895	221.254004239106	n/a	-1	-1	2750	221.254004239	stim	stop-signal	242	620990	0.0-13.22-1.22	beast_fmri_test	301	618742,/,619422,/,620102,/,620783,/	t,t,t,t	<img class = center src='/static/experiments/beast_fmri_test/images/D.png'></img>	89,71	2750.0	test	<img class = center src='/static/experiments/beast_fmri_test/images/redD.png'></img>	stop	2200.0	1.0	22.0	stop	target	D	89,Yellow Button	71,Green Button	550.0	600.0	2200.0	2150.0	0.0	550.0	0.0	1.0	ITI
99542	500	n/a	-1	-1	500	0.0	fixation	poldrack-single-stim	243	621723	0.0-13.23-0.23	beast_fmri_test	301	621462,/	t	<div class = centerbox><div class = fixation>+</div></div>	none	500.0	test	n/a	n/a	n/a	n/a	n/a	n/a	n/a	n/a	n/a	n/a	n/a	n/a	n/a	n/a	n/a	n/a	n/a	n/a	fixation
98364.600615864503	600.0	n/a	-1	-1	2750	1179.39938414	stim	stop-signal	244	624475	0.0-13.23-1.23	beast_fmri_test	301	622141,/,622822,/,623502,/,624182,/,624861,/,625542,/	t,t,t,t,t,t	<img class = center src='/static/experiments/beast_fmri_test/images/V.png'></img>	89,71	2750.0	test	<img class = center src='/static/experiments/beast_fmri_test/images/redV.png'></img>	stop	2150.0	1.0	23.0	stop	non-target	V	89,Yellow Button	71,Green Button	600.0	600.0	2200.0	2150.0	0.0	600.0	0.0	1.0	go_stim
100514.6006158645	2150.0	n/a	-1	-1	2750	1179.39938414	stim	stop-signal	244	624475	0.0-13.23-1.23	beast_fmri_test	301	622141,/,622822,/,623502,/,624182,/,624861,/,625542,/	t,t,t,t,t,t	<img class = center src='/static/experiments/beast_fmri_test/images/V.png'></img>	89,71	2750.0	test	<img class = center src='/static/experiments/beast_fmri_test/images/redV.png'></img>	stop	2150.0	1.0	23.0	stop	non-target	V	89,Yellow Button	71,Green Button	600.0	600.0	2200.0	2150.0	0.0	600.0	0.0	1.0	stop_stim
101114.6006158645	1179.39938413554	n/a	-1	-1	2750	1179.39938414	stim	stop-signal	244	624475	0.0-13.23-1.23	beast_fmri_test	301	622141,/,622822,/,623502,/,624182,/,624861,/,625542,/	t,t,t,t,t,t	<img class = center src='/static/experiments/beast_fmri_test/images/V.png'></img>	89,71	2750.0	test	<img class = center src='/static/experiments/beast_fmri_test/images/redV.png'></img>	stop	2150.0	1.0	23.0	stop	non-target	V	89,Yellow Button	71,Green Button	600.0	600.0	2200.0	2150.0	0.0	600.0	0.0	1.0	ITI
103985	500	n/a	-1	-1	500	0.0	fixation	poldrack-single-stim	245	626166	0.0-13.24-0.24	beast_fmri_test	301	n/a	n/a	<div class = centerbox><div class = fixation>+</div></div>	none	500.0	test	n/a	n/a	n/a	n/a	n/a	n/a	n/a	n/a	n/a	n/a	n/a	n/a	n/a	n/a	n/a	n/a	n/a	n/a	fixation
101814.75288197713	2750	n/a	618	89	2750	2172.24711802	stim	stop-signal	246	628918	0.0-13.24-1.24	beast_fmri_test	301	626222,/,626901,/,627581,/,628262,/,628941,/,629621,/,630301,/,630982,/	t,t,t,t,t,t,t,t	<img class = center src='/static/experiments/beast_fmri_test/images/D.png'></img>	89,71	2750.0	test	<img class = center src='/static/experiments/beast_fmri_test/images/redD.png'></img>	go	2100.0	1.0	24.0	go	non-target	D	89,Yellow Button	71,Green Button	600.0	650.0	2200.0	2100.0	0.0	650.0	0.0	n/a	go_stim
104564.75288197713	2172.2471180228199	n/a	618	89	2750	2172.24711802	stim	stop-signal	246	628918	0.0-13.24-1.24	beast_fmri_test	301	626222,/,626901,/,627581,/,628262,/,628941,/,629621,/,630301,/,630982,/	t,t,t,t,t,t,t,t	<img class = center src='/static/experiments/beast_fmri_test/images/D.png'></img>	89,71	2750.0	test	<img class = center src='/static/experiments/beast_fmri_test/images/redD.png'></img>	go	2100.0	1.0	24.0	go	non-target	D	89,Yellow Button	71,Green Button	600.0	650.0	2200.0	2100.0	0.0	650.0	0.0	n/a	ITI
109422	500	n/a	-1	-1	500	0.0	fixation	poldrack-single-stim	247	631603	0.0-13.25-0.25	beast_fmri_test	301	n/a	n/a	<div class = centerbox><div class = fixation>+</div></div>	none	500.0	test	n/a	n/a	n/a	n/a	n/a	n/a	n/a	n/a	n/a	n/a	n/a	n/a	n/a	n/a	n/a	n/a	n/a	n/a	fixation
108681.71866699727	2750	n/a	1475	89	2750	742.281333003	stim	stop-signal	248	634355	0.0-13.25-1.25	beast_fmri_test	301	631662,/,632342,/,633023,/,633702,/,634382,/,635062,/	t,t,t,t,t,t	<img class = center src='/static/experiments/beast_fmri_test/images/D.png'></img>	89,71	2750.0	test	<img class = center src='/static/experiments/beast_fmri_test/images/redD.png'></img>	go	2150.0	1.0	25.0	go	target	D	89,Yellow Button	71,Green Button	600.0	650.0	2150.0	2100.0	1.0	600.0	1.0	n/a	go_stim
111431.71866699727	742.28133300276897	n/a	1475	89	2750	742.281333003	stim	stop-signal	248	634355	0.0-13.25-1.25	beast_fmri_test	301	631662,/,632342,/,633023,/,633702,/,634382,/,635062,/	t,t,t,t,t,t	<img class = center src='/static/experiments/beast_fmri_test/images/D.png'></img>	89,71	2750.0	test	<img class = center src='/static/experiments/beast_fmri_test/images/redD.png'></img>	go	2150.0	1.0	25.0	go	target	D	89,Yellow Button	71,Green Button	600.0	650.0	2150.0	2100.0	1.0	600.0	1.0	n/a	ITI
113428	500	n/a	-1	-1	500	0.0	fixation	poldrack-single-stim	249	635609	0.0-13.26-0.26	beast_fmri_test	301	n/a	n/a	<div class = centerbox><div class = fixation>+</div></div>	none	500.0	test	n/a	n/a	n/a	n/a	n/a	n/a	n/a	n/a	n/a	n/a	n/a	n/a	n/a	n/a	n/a	n/a	n/a	n/a	fixation
111979.80972154567	650.0	n/a	1032	89	2750	1451.19027845	stim	stop-signal	250	638362	0.0-13.26-1.26	beast_fmri_test	301	635743,/,636422,/,637102,/,637782,/,638462,/,639142,/	t,t,t,t,t,t	<img class = center src='/static/experiments/beast_fmri_test/images/P.png'></img>	89,71	2750.0	test	<img class = center src='/static/experiments/beast_fmri_test/images/redP.png'></img>	stop	2100.0	1.0	26.0	stop	non-target	P	89,Yellow Button	71,Green Button	600.0	650.0	2150.0	2100.0	0.0	650.0	0.0	0.0	go_stim
114079.80972154567	2100.0	n/a	1032	89	2750	1451.19027845	stim	stop-signal	250	638362	0.0-13.26-1.26	beast_fmri_test	301	635743,/,636422,/,637102,/,637782,/,638462,/,639142,/	t,t,t,t,t,t	<img class = center src='/static/experiments/beast_fmri_test/images/P.png'></img>	89,71	2750.0	test	<img class = center src='/static/experiments/beast_fmri_test/images/redP.png'></img>	stop	2100.0	1.0	26.0	stop	non-target	P	89,Yellow Button	71,Green Button	600.0	650.0	2150.0	2100.0	0.0	650.0	0.0	0.0	stop_stim
114729.80972154567	1451.1902784543299	n/a	1032	89	2750	1451.19027845	stim	stop-signal	250	638362	0.0-13.26-1.26	beast_fmri_test	301	635743,/,636422,/,637102,/,637782,/,638462,/,639142,/	t,t,t,t,t,t	<img class = center src='/static/experiments/beast_fmri_test/images/P.png'></img>	89,71	2750.0	test	<img class = center src='/static/experiments/beast_fmri_test/images/redP.png'></img>	stop	2100.0	1.0	26.0	stop	non-target	P	89,Yellow Button	71,Green Button	600.0	650.0	2150.0	2100.0	0.0	650.0	0.0	0.0	ITI
118145	500	n/a	-1	-1	500	0.0	fixation	poldrack-single-stim	251	640326	0.0-13.27-0.27	beast_fmri_test	301	639825,/	t	<div class = centerbox><div class = fixation>+</div></div>	none	500.0	test	n/a	n/a	n/a	n/a	n/a	n/a	n/a	n/a	n/a	n/a	n/a	n/a	n/a	n/a	n/a	n/a	n/a	n/a	fixation
116792.28599779343	2750	n/a	766	89	2750	1354.71400221	stim	stop-signal	252	643078	0.0-13.27-1.27	beast_fmri_test	301	640502,/,641182,/,641862,/,642542,/,643222,/,643902,/	t,t,t,t,t,t	<img class = center src='/static/experiments/beast_fmri_test/images/V.png'></img>	89,71	2750.0	test	<img class = center src='/static/experiments/beast_fmri_test/images/redV.png'></img>	go	2150.0	1.0	27.0	go	non-target	V	89,Yellow Button	71,Green Button	600.0	600.0	2150.0	2150.0	0.0	600.0	0.0	n/a	go_stim
119542.28599779343	1354.71400220654	n/a	766	89	2750	1354.71400221	stim	stop-signal	252	643078	0.0-13.27-1.27	beast_fmri_test	301	640502,/,641182,/,641862,/,642542,/,643222,/,643902,/	t,t,t,t,t,t	<img class = center src='/static/experiments/beast_fmri_test/images/V.png'></img>	89,71	2750.0	test	<img class = center src='/static/experiments/beast_fmri_test/images/redV.png'></img>	go	2150.0	1.0	27.0	go	non-target	V	89,Yellow Button	71,Green Button	600.0	600.0	2150.0	2150.0	0.0	600.0	0.0	n/a	ITI
122763	500	n/a	-1	-1	500	0.0	fixation	poldrack-single-stim	253	644944	0.0-13.28-0.28	beast_fmri_test	301	644582,/	t	<div class = centerbox><div class = fixation>+</div></div>	none	500.0	test	n/a	n/a	n/a	n/a	n/a	n/a	n/a	n/a	n/a	n/a	n/a	n/a	n/a	n/a	n/a	n/a	n/a	n/a	fixation
122648.88606168411	2750	n/a	883	89	2750	116.113938316	stim	stop-signal	254	647696	0.0-13.28-1.28	beast_fmri_test	301	645262,/,645942,/,646622,/,647302,/	t,t,t,t	<img class = center src='/static/experiments/beast_fmri_test/images/T.png'></img>	89,71	2750.0	test	<img class = center src='/static/experiments/beast_fmri_test/images/redT.png'></img>	go	2150.0	1.0	28.0	go	non-target	T	89,Yellow Button	71,Green Button	600.0	600.0	2150.0	2150.0	0.0	600.0	0.0	n/a	go_stim
125398.88606168411	116.113938315913	n/a	883	89	2750	116.113938316	stim	stop-signal	254	647696	0.0-13.28-1.28	beast_fmri_test	301	645262,/,645942,/,646622,/,647302,/	t,t,t,t	<img class = center src='/static/experiments/beast_fmri_test/images/T.png'></img>	89,71	2750.0	test	<img class = center src='/static/experiments/beast_fmri_test/images/redT.png'></img>	go	2150.0	1.0	28.0	go	non-target	T	89,Yellow Button	71,Green Button	600.0	600.0	2150.0	2150.0	0.0	600.0	0.0	n/a	ITI
126144	500	n/a	-1	-1	500	0.0	fixation	poldrack-single-stim	255	648325	0.0-13.29-0.29	beast_fmri_test	301	647982,/	t	<div class = centerbox><div class = fixation>+</div></div>	none	500.0	test	n/a	n/a	n/a	n/a	n/a	n/a	n/a	n/a	n/a	n/a	n/a	n/a	n/a	n/a	n/a	n/a	n/a	n/a	fixation
122667.60644362029	2750	n/a	1655	71	2750	3479.39355638	stim	stop-signal	256	651078	0.0-13.29-1.29	beast_fmri_test	301	648662,/,649342,/,650022,/,650702,/,651383,/,652062,/,652742,/,653422,/,654102,/	t,t,t,t,t,t,t,t,t	<img class = center src='/static/experiments/beast_fmri_test/images/D.png'></img>	89,71	2750.0	test	<img class = center src='/static/experiments/beast_fmri_test/images/redD.png'></img>	go	2150.0	1.0	29.0	go	non-target	D	89,Yellow Button	71,Green Button	600.0	600.0	2150.0	2150.0	1.0	600.0	1.0	n/a	go_stim
125417.60644362029	3479.3935563796799	n/a	1655	71	2750	3479.39355638	stim	stop-signal	256	651078	0.0-13.29-1.29	beast_fmri_test	301	648662,/,649342,/,650022,/,650702,/,651383,/,652062,/,652742,/,653422,/,654102,/	t,t,t,t,t,t,t,t,t	<img class = center src='/static/experiments/beast_fmri_test/images/D.png'></img>	89,71	2750.0	test	<img class = center src='/static/experiments/beast_fmri_test/images/redD.png'></img>	go	2150.0	1.0	29.0	go	non-target	D	89,Yellow Button	71,Green Button	600.0	600.0	2150.0	2150.0	1.0	600.0	1.0	n/a	ITI
132889	500	n/a	-1	-1	500	0.0	fixation	poldrack-single-stim	257	655070	0.0-13.30-0.30	beast_fmri_test	301	654782,/	t	<div class = centerbox><div class = fixation>+</div></div>	none	500.0	test	n/a	n/a	n/a	n/a	n/a	n/a	n/a	n/a	n/a	n/a	n/a	n/a	n/a	n/a	n/a	n/a	n/a	n/a	fixation
132053.82375725114	2750	n/a	885	89	2750	837.176242749	stim	stop-signal	258	657822	0.0-13.30-1.30	beast_fmri_test	301	655462,/,656142,/,656822,/,657502,/,658182,/	t,t,t,t,t	<img class = center src='/static/experiments/beast_fmri_test/images/T.png'></img>	89,71	2750.0	test	<img class = center src='/static/experiments/beast_fmri_test/images/redT.png'></img>	go	2150.0	1.0	30.0	go	non-target	T	89,Yellow Button	71,Green Button	600.0	600.0	2150.0	2150.0	0.0	600.0	0.0	n/a	go_stim
134803.82375725114	837.17624274891295	n/a	885	89	2750	837.176242749	stim	stop-signal	258	657822	0.0-13.30-1.30	beast_fmri_test	301	655462,/,656142,/,656822,/,657502,/,658182,/	t,t,t,t,t	<img class = center src='/static/experiments/beast_fmri_test/images/T.png'></img>	89,71	2750.0	test	<img class = center src='/static/experiments/beast_fmri_test/images/redT.png'></img>	go	2150.0	1.0	30.0	go	non-target	T	89,Yellow Button	71,Green Button	600.0	600.0	2150.0	2150.0	0.0	600.0	0.0	n/a	ITI
136991	500	n/a	-1	-1	500	0.0	fixation	poldrack-single-stim	259	659172	0.0-13.31-0.31	beast_fmri_test	301	658862,/	t	<div class = centerbox><div class = fixation>+</div></div>	none	500.0	test	n/a	n/a	n/a	n/a	n/a	n/a	n/a	n/a	n/a	n/a	n/a	n/a	n/a	n/a	n/a	n/a	n/a	n/a	fixation
131994.0	2750	n/a	577	71	2750	5000.0	stim	stop-signal	260	661925	0.0-13.31-1.31	beast_fmri_test	301	659542,/,660222,/,660902,/,661583,/,662262,/,662942,/,663622,/,664302,/,664982,/,665662,/,666342,/	t,t,t,t,t,t,t,t,t,t,t	<img class = center src='/static/experiments/beast_fmri_test/images/T.png'></img>	89,71	2750.0	test	<img class = center src='/static/experiments/beast_fmri_test/images/redT.png'></img>	go	2150.0	1.0	31.0	go	target	T	89,Yellow Button	71,Green Button	600.0	600.0	2150.0	2150.0	0.0	600.0	0.0	n/a	go_stim
134744.0	5000.0	n/a	577	71	2750	5000.0	stim	stop-signal	260	661925	0.0-13.31-1.31	beast_fmri_test	301	659542,/,660222,/,660902,/,661583,/,662262,/,662942,/,663622,/,664302,/,664982,/,665662,/,666342,/	t,t,t,t,t,t,t,t,t,t,t	<img class = center src='/static/experiments/beast_fmri_test/images/T.png'></img>	89,71	2750.0	test	<img class = center src='/static/experiments/beast_fmri_test/images/redT.png'></img>	go	2150.0	1.0	31.0	go	target	T	89,Yellow Button	71,Green Button	600.0	600.0	2150.0	2150.0	0.0	600.0	0.0	n/a	ITI
145256	500	n/a	-1	-1	500	0.0	fixation	poldrack-single-stim	261	667437	0.0-13.32-0.32	beast_fmri_test	301	667023,/	t	<div class = centerbox><div class = fixation>+</div></div>	none	500.0	test	n/a	n/a	n/a	n/a	n/a	n/a	n/a	n/a	n/a	n/a	n/a	n/a	n/a	n/a	n/a	n/a	n/a	n/a	fixation
144461.86665280408	600.0	n/a	719	71	2750	796.133347196	stim	stop-signal	262	670189	0.0-13.32-1.32	beast_fmri_test	301	667703,/,668383,/,669063,/,669743,/,670423,/	t,t,t,t,t	<img class = center src='/static/experiments/beast_fmri_test/images/T.png'></img>	89,71	2750.0	test	<img class = center src='/static/experiments/beast_fmri_test/images/redT.png'></img>	stop	2150.0	1.0	32.0	stop	target	T	89,Yellow Button	71,Green Button	600.0	600.0	2150.0	2150.0	0.0	600.0	0.0	0.0	go_stim
146611.86665280408	2150.0	n/a	719	71	2750	796.133347196	stim	stop-signal	262	670189	0.0-13.32-1.32	beast_fmri_test	301	667703,/,668383,/,669063,/,669743,/,670423,/	t,t,t,t,t	<img class = center src='/static/experiments/beast_fmri_test/images/T.png'></img>	89,71	2750.0	test	<img class = center src='/static/experiments/beast_fmri_test/images/redT.png'></img>	stop	2150.0	1.0	32.0	stop	target	T	89,Yellow Button	71,Green Button	600.0	600.0	2150.0	2150.0	0.0	600.0	0.0	0.0	stop_stim
147211.86665280408	796.13334719593502	n/a	719	71	2750	796.133347196	stim	stop-signal	262	670189	0.0-13.32-1.32	beast_fmri_test	301	667703,/,668383,/,669063,/,669743,/,670423,/	t,t,t,t,t	<img class = center src='/static/experiments/beast_fmri_test/images/T.png'></img>	89,71	2750.0	test	<img class = center src='/static/experiments/beast_fmri_test/images/redT.png'></img>	stop	2150.0	1.0	32.0	stop	target	T	89,Yellow Button	71,Green Button	600.0	600.0	2150.0	2150.0	0.0	600.0	0.0	0.0	ITI
149316	500	n/a	-1	-1	500	0.0	fixation	poldrack-single-stim	263	671497	0.0-13.33-0.33	beast_fmri_test	301	671103,/	t	<div class = centerbox><div class = fixation>+</div></div>	none	500.0	test	n/a	n/a	n/a	n/a	n/a	n/a	n/a	n/a	n/a	n/a	n/a	n/a	n/a	n/a	n/a	n/a	n/a	n/a	fixation
149172.7310589269	2750	n/a	912	71	2750	145.268941073	stim	stop-signal	264	674249	0.0-13.33-1.33	beast_fmri_test	301	671784,/,672463,/,673143,/,673823,/	t,t,t,t	<img class = center src='/static/experiments/beast_fmri_test/images/T.png'></img>	89,71	2750.0	test	<img class = center src='/static/experiments/beast_fmri_test/images/redT.png'></img>	go	2200.0	1.0	33.0	go	target	T	89,Yellow Button	71,Green Button	550.0	600.0	2200.0	2150.0	0.0	550.0	0.0	n/a	go_stim
151922.7310589269	145.26894107306299	n/a	912	71	2750	145.268941073	stim	stop-signal	264	674249	0.0-13.33-1.33	beast_fmri_test	301	671784,/,672463,/,673143,/,673823,/	t,t,t,t	<img class = center src='/static/experiments/beast_fmri_test/images/T.png'></img>	89,71	2750.0	test	<img class = center src='/static/experiments/beast_fmri_test/images/redT.png'></img>	go	2200.0	1.0	33.0	go	target	T	89,Yellow Button	71,Green Button	550.0	600.0	2200.0	2150.0	0.0	550.0	0.0	n/a	ITI
152729	500	n/a	-1	-1	500	0.0	fixation	poldrack-single-stim	265	674910	0.0-13.34-0.34	beast_fmri_test	301	674503,/	t	<div class = centerbox><div class = fixation>+</div></div>	none	500.0	test	n/a	n/a	n/a	n/a	n/a	n/a	n/a	n/a	n/a	n/a	n/a	n/a	n/a	n/a	n/a	n/a	n/a	n/a	fixation
152679.52285638382	2750	n/a	2087	89	2750	50.4771436162	stim	stop-signal	266	677661	0.0-13.34-1.34	beast_fmri_test	301	675183,/,675863,/,676543,/,677223,/	t,t,t,t	<img class = center src='/static/experiments/beast_fmri_test/images/P.png'></img>	89,71	2750.0	test	<img class = center src='/static/experiments/beast_fmri_test/images/redP.png'></img>	go	2150.0	1.0	34.0	go	non-target	P	89,Yellow Button	71,Green Button	550.0	600.0	2200.0	2150.0	0.0	600.0	0.0	n/a	go_stim
155429.52285638382	50.4771436162047	n/a	2087	89	2750	50.4771436162	stim	stop-signal	266	677661	0.0-13.34-1.34	beast_fmri_test	301	675183,/,675863,/,676543,/,677223,/	t,t,t,t	<img class = center src='/static/experiments/beast_fmri_test/images/P.png'></img>	89,71	2750.0	test	<img class = center src='/static/experiments/beast_fmri_test/images/redP.png'></img>	go	2150.0	1.0	34.0	go	non-target	P	89,Yellow Button	71,Green Button	550.0	600.0	2200.0	2150.0	0.0	600.0	0.0	n/a	ITI
156043	500	n/a	-1	-1	500	0.0	fixation	poldrack-single-stim	267	678224	0.0-13.35-0.35	beast_fmri_test	301	677903,/	t	<div class = centerbox><div class = fixation>+</div></div>	none	500.0	test	n/a	n/a	n/a	n/a	n/a	n/a	n/a	n/a	n/a	n/a	n/a	n/a	n/a	n/a	n/a	n/a	n/a	n/a	fixation
155608.72579611198	600.0	n/a	942	89	2750	436.274203888	stim	stop-signal	268	680976	0.0-13.35-1.35	beast_fmri_test	301	678582,/,679263,/,679942,/,680623,/,681302,/	t,t,t,t,t	<img class = center src='/static/experiments/beast_fmri_test/images/D.png'></img>	89,71	2750.0	test	<img class = center src='/static/experiments/beast_fmri_test/images/redD.png'></img>	stop	2150.0	1.0	35.0	stop	non-target	D	89,Yellow Button	71,Green Button	550.0	600.0	2200.0	2150.0	0.0	600.0	0.0	0.0	go_stim
157758.72579611198	2150.0	n/a	942	89	2750	436.274203888	stim	stop-signal	268	680976	0.0-13.35-1.35	beast_fmri_test	301	678582,/,679263,/,679942,/,680623,/,681302,/	t,t,t,t,t	<img class = center src='/static/experiments/beast_fmri_test/images/D.png'></img>	89,71	2750.0	test	<img class = center src='/static/experiments/beast_fmri_test/images/redD.png'></img>	stop	2150.0	1.0	35.0	stop	non-target	D	89,Yellow Button	71,Green Button	550.0	600.0	2200.0	2150.0	0.0	600.0	0.0	0.0	stop_stim
158358.72579611198	436.27420388798498	n/a	942	89	2750	436.274203888	stim	stop-signal	268	680976	0.0-13.35-1.35	beast_fmri_test	301	678582,/,679263,/,679942,/,680623,/,681302,/	t,t,t,t,t	<img class = center src='/static/experiments/beast_fmri_test/images/D.png'></img>	89,71	2750.0	test	<img class = center src='/static/experiments/beast_fmri_test/images/redD.png'></img>	stop	2150.0	1.0	35.0	stop	non-target	D	89,Yellow Button	71,Green Button	550.0	600.0	2200.0	2150.0	0.0	600.0	0.0	0.0	ITI
159744	500	n/a	-1	-1	500	0.0	fixation	poldrack-single-stim	269	681925	0.0-13.36-0.36	beast_fmri_test	301	n/a	n/a	<div class = centerbox><div class = fixation>+</div></div>	none	500.0	test	n/a	n/a	n/a	n/a	n/a	n/a	n/a	n/a	n/a	n/a	n/a	n/a	n/a	n/a	n/a	n/a	n/a	n/a	fixation
159199.81389759295	2750	n/a	986	71	2750	546.186102407	stim	stop-signal	270	684677	0.0-13.36-1.36	beast_fmri_test	301	681984,/,682663,/,683343,/,684022,/,684703,/	t,t,t,t,t	<img class = center src='/static/experiments/beast_fmri_test/images/D.png'></img>	89,71	2750.0	test	<img class = center src='/static/experiments/beast_fmri_test/images/redD.png'></img>	go	2200.0	1.0	36.0	go	target	D	89,Yellow Button	71,Green Button	550.0	550.0	2200.0	2150.0	0.0	550.0	0.0	n/a	go_stim
161949.81389759295	546.186102407097	n/a	986	71	2750	546.186102407	stim	stop-signal	270	684677	0.0-13.36-1.36	beast_fmri_test	301	681984,/,682663,/,683343,/,684022,/,684703,/	t,t,t,t,t	<img class = center src='/static/experiments/beast_fmri_test/images/D.png'></img>	89,71	2750.0	test	<img class = center src='/static/experiments/beast_fmri_test/images/redD.png'></img>	go	2200.0	1.0	36.0	go	target	D	89,Yellow Button	71,Green Button	550.0	550.0	2200.0	2150.0	0.0	550.0	0.0	n/a	ITI
163558	500	n/a	-1	-1	500	0.0	fixation	poldrack-single-stim	271	685739	0.0-13.37-0.37	beast_fmri_test	301	685382,/	t	<div class = centerbox><div class = fixation>+</div></div>	none	500.0	test	n/a	n/a	n/a	n/a	n/a	n/a	n/a	n/a	n/a	n/a	n/a	n/a	n/a	n/a	n/a	n/a	n/a	n/a	fixation
163497.9547287639	2750	n/a	1559	71	2750	62.0452712361	stim	stop-signal	272	688491	0.0-13.37-1.37	beast_fmri_test	301	686062,/,686743,/,687423,/,688102,/	t,t,t,t	<img class = center src='/static/experiments/beast_fmri_test/images/P.png'></img>	89,71	2750.0	test	<img class = center src='/static/experiments/beast_fmri_test/images/redP.png'></img>	go	2200.0	1.0	37.0	go	non-target	P	89,Yellow Button	71,Green Button	550.0	550.0	2200.0	2200.0	1.0	550.0	1.0	n/a	go_stim
166247.9547287639	62.045271236056202	n/a	1559	71	2750	62.0452712361	stim	stop-signal	272	688491	0.0-13.37-1.37	beast_fmri_test	301	686062,/,686743,/,687423,/,688102,/	t,t,t,t	<img class = center src='/static/experiments/beast_fmri_test/images/P.png'></img>	89,71	2750.0	test	<img class = center src='/static/experiments/beast_fmri_test/images/redP.png'></img>	go	2200.0	1.0	37.0	go	non-target	P	89,Yellow Button	71,Green Button	550.0	550.0	2200.0	2200.0	1.0	550.0	1.0	n/a	ITI
166888	500	n/a	-1	-1	500	0.0	fixation	poldrack-single-stim	273	689069	0.0-13.38-0.38	beast_fmri_test	301	688783,/	t	<div class = centerbox><div class = fixation>+</div></div>	none	500.0	test	n/a	n/a	n/a	n/a	n/a	n/a	n/a	n/a	n/a	n/a	n/a	n/a	n/a	n/a	n/a	n/a	n/a	n/a	fixation
166265.26143999456	550.0	n/a	-1	-1	2750	625.738560005	stim	stop-signal	274	691822	0.0-13.38-1.38	beast_fmri_test	301	689463,/,690143,/,690822,/,691503,/,692183,/	t,t,t,t,t	<img class = center src='/static/experiments/beast_fmri_test/images/P.png'></img>	89,71	2750.0	test	<img class = center src='/static/experiments/beast_fmri_test/images/redP.png'></img>	stop	2200.0	1.0	38.0	stop	target	P	89,Yellow Button	71,Green Button	550.0	550.0	2200.0	2200.0	0.0	550.0	0.0	1.0	go_stim
168465.26143999456	2200.0	n/a	-1	-1	2750	625.738560005	stim	stop-signal	274	691822	0.0-13.38-1.38	beast_fmri_test	301	689463,/,690143,/,690822,/,691503,/,692183,/	t,t,t,t,t	<img class = center src='/static/experiments/beast_fmri_test/images/P.png'></img>	89,71	2750.0	test	<img class = center src='/static/experiments/beast_fmri_test/images/redP.png'></img>	stop	2200.0	1.0	38.0	stop	target	P	89,Yellow Button	71,Green Button	550.0	550.0	2200.0	2200.0	0.0	550.0	0.0	1.0	stop_stim
169015.26143999456	625.73856000549301	n/a	-1	-1	2750	625.738560005	stim	stop-signal	274	691822	0.0-13.38-1.38	beast_fmri_test	301	689463,/,690143,/,690822,/,691503,/,692183,/	t,t,t,t,t	<img class = center src='/static/experiments/beast_fmri_test/images/P.png'></img>	89,71	2750.0	test	<img class = center src='/static/experiments/beast_fmri_test/images/redP.png'></img>	stop	2200.0	1.0	38.0	stop	target	P	89,Yellow Button	71,Green Button	550.0	550.0	2200.0	2200.0	0.0	550.0	0.0	1.0	ITI
170779	500	n/a	-1	-1	500	0.0	fixation	poldrack-single-stim	275	692960	0.0-13.39-0.39	beast_fmri_test	301	692863,/	t	<div class = centerbox><div class = fixation>+</div></div>	none	500.0	test	n/a	n/a	n/a	n/a	n/a	n/a	n/a	n/a	n/a	n/a	n/a	n/a	n/a	n/a	n/a	n/a	n/a	n/a	fixation
170412.54176606296	600.0	n/a	731	71	2750	368.458233937	stim	stop-signal	276	695712	0.0-13.39-1.39	beast_fmri_test	301	693542,/,694222,/,694902,/,695582,/	t,t,t,t	<img class = center src='/static/experiments/beast_fmri_test/images/P.png'></img>	89,71	2750.0	test	<img class = center src='/static/experiments/beast_fmri_test/images/redP.png'></img>	stop	2150.0	1.0	39.0	stop	target	P	89,Yellow Button	71,Green Button	600.0	550.0	2150.0	2200.0	0.0	600.0	0.0	0.0	go_stim
172562.54176606296	2150.0	n/a	731	71	2750	368.458233937	stim	stop-signal	276	695712	0.0-13.39-1.39	beast_fmri_test	301	693542,/,694222,/,694902,/,695582,/	t,t,t,t	<img class = center src='/static/experiments/beast_fmri_test/images/P.png'></img>	89,71	2750.0	test	<img class = center src='/static/experiments/beast_fmri_test/images/redP.png'></img>	stop	2150.0	1.0	39.0	stop	target	P	89,Yellow Button	71,Green Button	600.0	550.0	2150.0	2200.0	0.0	600.0	0.0	0.0	stop_stim
173162.54176606296	368.45823393699101	n/a	731	71	2750	368.458233937	stim	stop-signal	276	695712	0.0-13.39-1.39	beast_fmri_test	301	693542,/,694222,/,694902,/,695582,/	t,t,t,t	<img class = center src='/static/experiments/beast_fmri_test/images/P.png'></img>	89,71	2750.0	test	<img class = center src='/static/experiments/beast_fmri_test/images/redP.png'></img>	stop	2150.0	1.0	39.0	stop	target	P	89,Yellow Button	71,Green Button	600.0	550.0	2150.0	2200.0	0.0	600.0	0.0	0.0	ITI
174411	500	n/a	-1	-1	500	0.0	fixation	poldrack-single-stim	277	696592	0.0-13.40-0.40	beast_fmri_test	301	696262,/	t	<div class = centerbox><div class = fixation>+</div></div>	none	500.0	test	n/a	n/a	n/a	n/a	n/a	n/a	n/a	n/a	n/a	n/a	n/a	n/a	n/a	n/a	n/a	n/a	n/a	n/a	fixation
174341.02226567571	2750	n/a	660	89	2750	71.9777343243	stim	stop-signal	278	699344	0.0-13.40-1.40	beast_fmri_test	301	696942,/,697622,/,698302,/,698982,/	t,t,t,t	<img class = center src='/static/experiments/beast_fmri_test/images/T.png'></img>	89,71	2750.0	test	<img class = center src='/static/experiments/beast_fmri_test/images/redT.png'></img>	go	2200.0	1.0	40.0	go	non-target	T	89,Yellow Button	71,Green Button	550.0	550.0	2150.0	2200.0	0.0	550.0	0.0	n/a	go_stim
177091.02226567571	71.977734324263807	n/a	660	89	2750	71.9777343243	stim	stop-signal	278	699344	0.0-13.40-1.40	beast_fmri_test	301	696942,/,697622,/,698302,/,698982,/	t,t,t,t	<img class = center src='/static/experiments/beast_fmri_test/images/T.png'></img>	89,71	2750.0	test	<img class = center src='/static/experiments/beast_fmri_test/images/redT.png'></img>	go	2200.0	1.0	40.0	go	non-target	T	89,Yellow Button	71,Green Button	550.0	550.0	2150.0	2200.0	0.0	550.0	0.0	n/a	ITI
177749	500	n/a	-1	-1	500	0.0	fixation	poldrack-single-stim	279	699930	0.0-13.41-0.41	beast_fmri_test	301	699663,/	t	<div class = centerbox><div class = fixation>+</div></div>	none	500.0	test	n/a	n/a	n/a	n/a	n/a	n/a	n/a	n/a	n/a	n/a	n/a	n/a	n/a	n/a	n/a	n/a	n/a	n/a	fixation
177363.20319062402	550.0	n/a	-1	-1	2750	387.796809376	stim	stop-signal	280	702682	0.0-13.41-1.41	beast_fmri_test	301	700343,/,701023,/,701703,/,702384,/,703063,/	t,t,t,t,t	<img class = center src='/static/experiments/beast_fmri_test/images/P.png'></img>	89,71	2750.0	test	<img class = center src='/static/experiments/beast_fmri_test/images/redP.png'></img>	stop	2200.0	1.0	41.0	stop	non-target	P	89,Yellow Button	71,Green Button	550.0	550.0	2150.0	2200.0	0.0	550.0	0.0	1.0	go_stim
179563.20319062402	2200.0	n/a	-1	-1	2750	387.796809376	stim	stop-signal	280	702682	0.0-13.41-1.41	beast_fmri_test	301	700343,/,701023,/,701703,/,702384,/,703063,/	t,t,t,t,t	<img class = center src='/static/experiments/beast_fmri_test/images/P.png'></img>	89,71	2750.0	test	<img class = center src='/static/experiments/beast_fmri_test/images/redP.png'></img>	stop	2200.0	1.0	41.0	stop	non-target	P	89,Yellow Button	71,Green Button	550.0	550.0	2150.0	2200.0	0.0	550.0	0.0	1.0	stop_stim
180113.20319062402	387.796809376022	n/a	-1	-1	2750	387.796809376	stim	stop-signal	280	702682	0.0-13.41-1.41	beast_fmri_test	301	700343,/,701023,/,701703,/,702384,/,703063,/	t,t,t,t,t	<img class = center src='/static/experiments/beast_fmri_test/images/P.png'></img>	89,71	2750.0	test	<img class = center src='/static/experiments/beast_fmri_test/images/redP.png'></img>	stop	2200.0	1.0	41.0	stop	non-target	P	89,Yellow Button	71,Green Button	550.0	550.0	2150.0	2200.0	0.0	550.0	0.0	1.0	ITI
181403	500	n/a	-1	-1	500	0.0	fixation	poldrack-single-stim	281	703584	0.0-13.42-0.42	beast_fmri_test	301	n/a	n/a	<div class = centerbox><div class = fixation>+</div></div>	none	500.0	test	n/a	n/a	n/a	n/a	n/a	n/a	n/a	n/a	n/a	n/a	n/a	n/a	n/a	n/a	n/a	n/a	n/a	n/a	fixation
181046.38923979469	2750	n/a	923	71	2750	358.610760205	stim	stop-signal	282	706336	0.0-13.42-1.42	beast_fmri_test	301	703743,/,704423,/,705103,/,705783,/,706463,/	t,t,t,t,t	<img class = center src='/static/experiments/beast_fmri_test/images/P.png'></img>	89,71	2750.0	test	<img class = center src='/static/experiments/beast_fmri_test/images/redP.png'></img>	go	2200.0	1.0	42.0	go	target	P	89,Yellow Button	71,Green Button	550.0	600.0	2200.0	2200.0	0.0	550.0	0.0	n/a	go_stim
183796.38923979469	358.610760205318	n/a	923	71	2750	358.610760205	stim	stop-signal	282	706336	0.0-13.42-1.42	beast_fmri_test	301	703743,/,704423,/,705103,/,705783,/,706463,/	t,t,t,t,t	<img class = center src='/static/experiments/beast_fmri_test/images/P.png'></img>	89,71	2750.0	test	<img class = center src='/static/experiments/beast_fmri_test/images/redP.png'></img>	go	2200.0	1.0	42.0	go	target	P	89,Yellow Button	71,Green Button	550.0	600.0	2200.0	2200.0	0.0	550.0	0.0	n/a	ITI
185024	500	n/a	-1	-1	500	0.0	fixation	poldrack-single-stim	283	707205	0.0-13.43-0.43	beast_fmri_test	301	707143,/	t	<div class = centerbox><div class = fixation>+</div></div>	none	500.0	test	n/a	n/a	n/a	n/a	n/a	n/a	n/a	n/a	n/a	n/a	n/a	n/a	n/a	n/a	n/a	n/a	n/a	n/a	fixation
184166.23295141163	2750	n/a	-1	-1	2750	859.767048588	stim	stop-signal	284	709957	0.0-13.43-1.43	beast_fmri_test	301	707823,/,708503,/,709183,/,709863,/,710543,/	t,t,t,t,t	<img class = center src='/static/experiments/beast_fmri_test/images/T.png'></img>	89,71	2750.0	test	<img class = center src='/static/experiments/beast_fmri_test/images/redT.png'></img>	go	2150.0	1.0	43.0	go	non-target	T	89,Yellow Button	71,Green Button	550.0	600.0	2200.0	2150.0	0.0	600.0	0.0	n/a	go_stim
186916.23295141163	859.76704858839196	n/a	-1	-1	2750	859.767048588	stim	stop-signal	284	709957	0.0-13.43-1.43	beast_fmri_test	301	707823,/,708503,/,709183,/,709863,/,710543,/	t,t,t,t,t	<img class = center src='/static/experiments/beast_fmri_test/images/T.png'></img>	89,71	2750.0	test	<img class = center src='/static/experiments/beast_fmri_test/images/redT.png'></img>	go	2150.0	1.0	43.0	go	non-target	T	89,Yellow Button	71,Green Button	550.0	600.0	2200.0	2150.0	0.0	600.0	0.0	n/a	ITI
189150	500	n/a	-1	-1	500	0.0	fixation	poldrack-single-stim	285	711331	0.0-13.44-0.44	beast_fmri_test	301	711223,/	t	<div class = centerbox><div class = fixation>+</div></div>	none	500.0	test	n/a	n/a	n/a	n/a	n/a	n/a	n/a	n/a	n/a	n/a	n/a	n/a	n/a	n/a	n/a	n/a	n/a	n/a	fixation
187488.41132478486	2750	n/a	36	71	2750	1663.58867522	stim	stop-signal	286	714083	0.0-13.44-1.44	beast_fmri_test	301	711903,/,712583,/,713263,/,713943,/,714623,/,715303,/	t,t,t,t,t,t	<img class = center src='/static/experiments/beast_fmri_test/images/P.png'></img>	89,71	2750.0	test	<img class = center src='/static/experiments/beast_fmri_test/images/redP.png'></img>	go	2150.0	1.0	44.0	go	non-target	P	89,Yellow Button	71,Green Button	550.0	600.0	2200.0	2150.0	1.0	600.0	1.0	n/a	go_stim
190238.41132478486	1663.58867521516	n/a	36	71	2750	1663.58867522	stim	stop-signal	286	714083	0.0-13.44-1.44	beast_fmri_test	301	711903,/,712583,/,713263,/,713943,/,714623,/,715303,/	t,t,t,t,t,t	<img class = center src='/static/experiments/beast_fmri_test/images/P.png'></img>	89,71	2750.0	test	<img class = center src='/static/experiments/beast_fmri_test/images/redP.png'></img>	go	2150.0	1.0	44.0	go	non-target	P	89,Yellow Button	71,Green Button	550.0	600.0	2200.0	2150.0	1.0	600.0	1.0	n/a	ITI
194080	500	n/a	-1	-1	500	0.0	fixation	poldrack-single-stim	287	716261	0.0-13.45-0.45	beast_fmri_test	301	715983,/	t	<div class = centerbox><div class = fixation>+</div></div>	none	500.0	test	n/a	n/a	n/a	n/a	n/a	n/a	n/a	n/a	n/a	n/a	n/a	n/a	n/a	n/a	n/a	n/a	n/a	n/a	fixation
193962.1376418859	2750	n/a	-1	-1	2750	119.862358114	stim	stop-signal	288	719013	0.0-13.45-1.45	beast_fmri_test	301	716663,/,717343,/,718023,/,718703,/	t,t,t,t	<img class = center src='/static/experiments/beast_fmri_test/images/D.png'></img>	89,71	2750.0	test	<img class = center src='/static/experiments/beast_fmri_test/images/redD.png'></img>	go	2150.0	1.0	45.0	go	non-target	D	89,Yellow Button	71,Green Button	550.0	600.0	2200.0	2150.0	0.0	600.0	0.0	n/a	go_stim
196712.1376418859	119.862358114104	n/a	-1	-1	2750	119.862358114	stim	stop-signal	288	719013	0.0-13.45-1.45	beast_fmri_test	301	716663,/,717343,/,718023,/,718703,/	t,t,t,t	<img class = center src='/static/experiments/beast_fmri_test/images/D.png'></img>	89,71	2750.0	test	<img class = center src='/static/experiments/beast_fmri_test/images/redD.png'></img>	go	2150.0	1.0	45.0	go	non-target	D	89,Yellow Button	71,Green Button	550.0	600.0	2200.0	2150.0	0.0	600.0	0.0	n/a	ITI
211967	15000	n/a	-1	-1	15000	0.0	practice-no-stop-feedback	poldrack-single-stim	289	734148	0.0-14.0	beast_fmri_test	301	719383,/,720063,/,720743,/,721423,/,722103,/,722784,/,723463,/,724143,/,724823,/,725503,/,726183,/,726863,/,727543,/,728223,/,728903,/,729583,/,730263,/,730943,/,731623,/,732303,/,732983,/,733664,/	t,t,t,t,t,t,t,t,t,t,t,t,t,t,t,t,t,t,t,t,t,t	"<div class = ""centerbox""><p class = ""center-block-text"">Your delay is 1 trials.</p><p class = center-block-text>Please wait for the scanner to start the block</p></div>"	77	15000.0	n/a	n/a	n/a	n/a	n/a	n/a	n/a	n/a	n/a	n/a	n/a	n/a	n/a	n/a	n/a	n/a	n/a	n/a	n/a	practice-no-stop-feedback
212469	500	n/a	-1	-1	500	0.0	fixation	poldrack-single-stim	290	734650	0.0-15.0-0.0	beast_fmri_test	301	734344,/	t	<div class = centerbox><div class = fixation>+</div></div>	none	500.0	test	n/a	n/a	n/a	n/a	n/a	n/a	n/a	n/a	n/a	n/a	n/a	n/a	n/a	n/a	n/a	n/a	n/a	n/a	fixation
210802.59174052323	2750	n/a	1294	89	2750	1668.40825948	stim	stop-signal	291	737402	0.0-15.0-1.0	beast_fmri_test	301	735024,/,735704,/,736384,/,737063,/,737744,/,738423,/	t,t,t,t,t,t	<img class = center src='/static/experiments/beast_fmri_test/images/T.png'></img>	89,71	2750.0	test	<img class = center src='/static/experiments/beast_fmri_test/images/redT.png'></img>	go	-1.0	1.0	0.0	go	temp-non-target	T	89,Yellow Button	71,Green Button	550.0	600.0	2200.0	2150.0	0.0	n/a	n/a	n/a	go_stim
213552.59174052323	1668.4082594767401	n/a	1294	89	2750	1668.40825948	stim	stop-signal	291	737402	0.0-15.0-1.0	beast_fmri_test	301	735024,/,735704,/,736384,/,737063,/,737744,/,738423,/	t,t,t,t,t,t	<img class = center src='/static/experiments/beast_fmri_test/images/T.png'></img>	89,71	2750.0	test	<img class = center src='/static/experiments/beast_fmri_test/images/redT.png'></img>	go	-1.0	1.0	0.0	go	temp-non-target	T	89,Yellow Button	71,Green Button	550.0	600.0	2200.0	2150.0	0.0	n/a	n/a	n/a	ITI
217403	500	n/a	-1	-1	500	0.0	fixation	poldrack-single-stim	292	739584	0.0-15.1-0.1	beast_fmri_test	301	739103,/	t	<div class = centerbox><div class = fixation>+</div></div>	none	500.0	test	n/a	n/a	n/a	n/a	n/a	n/a	n/a	n/a	n/a	n/a	n/a	n/a	n/a	n/a	n/a	n/a	n/a	n/a	fixation
216939.10212913749	2750	n/a	518	89	2750	465.897870862	stim	stop-signal	293	742336	0.0-15.1-1.1	beast_fmri_test	301	739784,/,740464,/,741144,/,741824,/,742504,/	t,t,t,t,t	<img class = center src='/static/experiments/beast_fmri_test/images/D.png'></img>	89,71	2750.0	test	<img class = center src='/static/experiments/beast_fmri_test/images/redD.png'></img>	go	2150.0	1.0	1.0	go	non-target	D	89,Yellow Button	71,Green Button	550.0	600.0	2200.0	2150.0	0.0	600.0	0.0	n/a	go_stim
219689.10212913749	465.89787086247202	n/a	518	89	2750	465.897870862	stim	stop-signal	293	742336	0.0-15.1-1.1	beast_fmri_test	301	739784,/,740464,/,741144,/,741824,/,742504,/	t,t,t,t,t	<img class = center src='/static/experiments/beast_fmri_test/images/D.png'></img>	89,71	2750.0	test	<img class = center src='/static/experiments/beast_fmri_test/images/redD.png'></img>	go	2150.0	1.0	1.0	go	non-target	D	89,Yellow Button	71,Green Button	550.0	600.0	2200.0	2150.0	0.0	600.0	0.0	n/a	ITI
221134	500	n/a	-1	-1	500	0.0	fixation	poldrack-single-stim	294	743315	0.0-15.2-0.2	beast_fmri_test	301	743184,/	t	<div class = centerbox><div class = fixation>+</div></div>	none	500.0	test	n/a	n/a	n/a	n/a	n/a	n/a	n/a	n/a	n/a	n/a	n/a	n/a	n/a	n/a	n/a	n/a	n/a	n/a	fixation
216206.63639641542	2750	n/a	1608	71	2750	4929.36360358	stim	stop-signal	295	746067	0.0-15.2-1.2	beast_fmri_test	301	743863,/,744544,/,745223,/,745903,/,746583,/,747263,/,747943,/,748623,/,749303,/,749983,/,750663,/	t,t,t,t,t,t,t,t,t,t,t	<img class = center src='/static/experiments/beast_fmri_test/images/T.png'></img>	89,71	2750.0	test	<img class = center src='/static/experiments/beast_fmri_test/images/redT.png'></img>	go	2150.0	1.0	2.0	go	non-target	T	89,Yellow Button	71,Green Button	550.0	600.0	2200.0	2150.0	1.0	600.0	1.0	n/a	go_stim
218956.63639641542	4929.3636035845902	n/a	1608	71	2750	4929.36360358	stim	stop-signal	295	746067	0.0-15.2-1.2	beast_fmri_test	301	743863,/,744544,/,745223,/,745903,/,746583,/,747263,/,747943,/,748623,/,749303,/,749983,/,750663,/	t,t,t,t,t,t,t,t,t,t,t	<img class = center src='/static/experiments/beast_fmri_test/images/T.png'></img>	89,71	2750.0	test	<img class = center src='/static/experiments/beast_fmri_test/images/redT.png'></img>	go	2150.0	1.0	2.0	go	non-target	T	89,Yellow Button	71,Green Button	550.0	600.0	2200.0	2150.0	1.0	600.0	1.0	n/a	ITI
229332	500	n/a	-1	-1	500	0.0	fixation	poldrack-single-stim	296	751513	0.0-15.3-0.3	beast_fmri_test	301	751343,/	t	<div class = centerbox><div class = fixation>+</div></div>	none	500.0	test	n/a	n/a	n/a	n/a	n/a	n/a	n/a	n/a	n/a	n/a	n/a	n/a	n/a	n/a	n/a	n/a	n/a	n/a	fixation
228514.03253938863	2750	n/a	769	89	2750	819.967460611	stim	stop-signal	297	754265	0.0-15.3-1.3	beast_fmri_test	301	752024,/,752703,/,753384,/,754063,/,754743,/	t,t,t,t,t	<img class = center src='/static/experiments/beast_fmri_test/images/V.png'></img>	89,71	2750.0	test	<img class = center src='/static/experiments/beast_fmri_test/images/redV.png'></img>	go	2150.0	1.0	3.0	go	non-target	V	89,Yellow Button	71,Green Button	550.0	600.0	2200.0	2150.0	0.0	600.0	0.0	n/a	go_stim
231264.03253938863	819.96746061142596	n/a	769	89	2750	819.967460611	stim	stop-signal	297	754265	0.0-15.3-1.3	beast_fmri_test	301	752024,/,752703,/,753384,/,754063,/,754743,/	t,t,t,t,t	<img class = center src='/static/experiments/beast_fmri_test/images/V.png'></img>	89,71	2750.0	test	<img class = center src='/static/experiments/beast_fmri_test/images/redV.png'></img>	go	2150.0	1.0	3.0	go	non-target	V	89,Yellow Button	71,Green Button	550.0	600.0	2200.0	2150.0	0.0	600.0	0.0	n/a	ITI
233423	500	n/a	-1	-1	500	0.0	fixation	poldrack-single-stim	298	755604	0.0-15.4-0.4	beast_fmri_test	301	755424,/	t	<div class = centerbox><div class = fixation>+</div></div>	none	500.0	test	n/a	n/a	n/a	n/a	n/a	n/a	n/a	n/a	n/a	n/a	n/a	n/a	n/a	n/a	n/a	n/a	n/a	n/a	fixation
232553.56764344359	2750	n/a	615	71	2750	870.432356556	stim	stop-signal	299	758355	0.0-15.4-1.4	beast_fmri_test	301	756103,/,756783,/,757463,/,758143,/,758823,/	t,t,t,t,t	<img class = center src='/static/experiments/beast_fmri_test/images/V.png'></img>	89,71	2750.0	test	<img class = center src='/static/experiments/beast_fmri_test/images/redV.png'></img>	go	2200.0	1.0	4.0	go	target	V	89,Yellow Button	71,Green Button	550.0	600.0	2200.0	2150.0	0.0	550.0	0.0	n/a	go_stim
235303.56764344359	870.43235655638398	n/a	615	71	2750	870.432356556	stim	stop-signal	299	758355	0.0-15.4-1.4	beast_fmri_test	301	756103,/,756783,/,757463,/,758143,/,758823,/	t,t,t,t,t	<img class = center src='/static/experiments/beast_fmri_test/images/V.png'></img>	89,71	2750.0	test	<img class = center src='/static/experiments/beast_fmri_test/images/redV.png'></img>	go	2200.0	1.0	4.0	go	target	V	89,Yellow Button	71,Green Button	550.0	600.0	2200.0	2150.0	0.0	550.0	0.0	n/a	ITI
237560	500	n/a	-1	-1	500	0.0	fixation	poldrack-single-stim	300	759741	0.0-15.5-0.5	beast_fmri_test	301	759503,/	t	<div class = centerbox><div class = fixation>+</div></div>	none	500.0	test	n/a	n/a	n/a	n/a	n/a	n/a	n/a	n/a	n/a	n/a	n/a	n/a	n/a	n/a	n/a	n/a	n/a	n/a	fixation
236377.93416174443	600.0	n/a	-1	-1	2750	1184.06583826	stim	stop-signal	301	762493	0.0-15.5-1.5	beast_fmri_test	301	760183,/,760863,/,761543,/,762223,/,762903,/,763584,/	t,t,t,t,t,t	<img class = center src='/static/experiments/beast_fmri_test/images/P.png'></img>	89,71	2750.0	test	<img class = center src='/static/experiments/beast_fmri_test/images/redP.png'></img>	stop	2150.0	1.0	5.0	stop	non-target	P	89,Yellow Button	71,Green Button	550.0	600.0	2200.0	2150.0	0.0	600.0	0.0	1.0	go_stim
238527.93416174443	2150.0	n/a	-1	-1	2750	1184.06583826	stim	stop-signal	301	762493	0.0-15.5-1.5	beast_fmri_test	301	760183,/,760863,/,761543,/,762223,/,762903,/,763584,/	t,t,t,t,t,t	<img class = center src='/static/experiments/beast_fmri_test/images/P.png'></img>	89,71	2750.0	test	<img class = center src='/static/experiments/beast_fmri_test/images/redP.png'></img>	stop	2150.0	1.0	5.0	stop	non-target	P	89,Yellow Button	71,Green Button	550.0	600.0	2200.0	2150.0	0.0	600.0	0.0	1.0	stop_stim
239127.93416174443	1184.06583825553	n/a	-1	-1	2750	1184.06583826	stim	stop-signal	301	762493	0.0-15.5-1.5	beast_fmri_test	301	760183,/,760863,/,761543,/,762223,/,762903,/,763584,/	t,t,t,t,t,t	<img class = center src='/static/experiments/beast_fmri_test/images/P.png'></img>	89,71	2750.0	test	<img class = center src='/static/experiments/beast_fmri_test/images/redP.png'></img>	stop	2150.0	1.0	5.0	stop	non-target	P	89,Yellow Button	71,Green Button	550.0	600.0	2200.0	2150.0	0.0	600.0	0.0	1.0	ITI
242009	500	n/a	-1	-1	500	0.0	fixation	poldrack-single-stim	302	764190	0.0-15.6-0.6	beast_fmri_test	301	n/a	n/a	<div class = centerbox><div class = fixation>+</div></div>	none	500.0	test	n/a	n/a	n/a	n/a	n/a	n/a	n/a	n/a	n/a	n/a	n/a	n/a	n/a	n/a	n/a	n/a	n/a	n/a	fixation
240249.72316422407	550.0	n/a	787	89	2750	1761.27683578	stim	stop-signal	303	766942	0.0-15.6-1.6	beast_fmri_test	301	764263,/,764943,/,765623,/,766303,/,766984,/,767664,/,768344,/	t,t,t,t,t,t,t	<img class = center src='/static/experiments/beast_fmri_test/images/P.png'></img>	89,71	2750.0	test	<img class = center src='/static/experiments/beast_fmri_test/images/redP.png'></img>	stop	2200.0	1.0	6.0	stop	target	P	89,Yellow Button	71,Green Button	550.0	650.0	2200.0	2150.0	0.0	550.0	1.0	0.0	go_stim
242449.72316422407	2200.0	n/a	787	89	2750	1761.27683578	stim	stop-signal	303	766942	0.0-15.6-1.6	beast_fmri_test	301	764263,/,764943,/,765623,/,766303,/,766984,/,767664,/,768344,/	t,t,t,t,t,t,t	<img class = center src='/static/experiments/beast_fmri_test/images/P.png'></img>	89,71	2750.0	test	<img class = center src='/static/experiments/beast_fmri_test/images/redP.png'></img>	stop	2200.0	1.0	6.0	stop	target	P	89,Yellow Button	71,Green Button	550.0	650.0	2200.0	2150.0	0.0	550.0	1.0	0.0	stop_stim
242999.72316422407	1761.2768357759101	n/a	787	89	2750	1761.27683578	stim	stop-signal	303	766942	0.0-15.6-1.6	beast_fmri_test	301	764263,/,764943,/,765623,/,766303,/,766984,/,767664,/,768344,/	t,t,t,t,t,t,t	<img class = center src='/static/experiments/beast_fmri_test/images/P.png'></img>	89,71	2750.0	test	<img class = center src='/static/experiments/beast_fmri_test/images/redP.png'></img>	stop	2200.0	1.0	6.0	stop	target	P	89,Yellow Button	71,Green Button	550.0	650.0	2200.0	2150.0	0.0	550.0	1.0	0.0	ITI
247038	500	n/a	-1	-1	500	0.0	fixation	poldrack-single-stim	304	769219	0.0-15.7-0.7	beast_fmri_test	301	769024,/	t	<div class = centerbox><div class = fixation>+</div></div>	none	500.0	test	n/a	n/a	n/a	n/a	n/a	n/a	n/a	n/a	n/a	n/a	n/a	n/a	n/a	n/a	n/a	n/a	n/a	n/a	fixation
246872.93541923945	2750	n/a	612	89	2750	167.064580761	stim	stop-signal	305	771971	0.0-15.7-1.7	beast_fmri_test	301	769704,/,770384,/,771064,/,771744,/	t,t,t,t	<img class = center src='/static/experiments/beast_fmri_test/images/D.png'></img>	89,71	2750.0	test	<img class = center src='/static/experiments/beast_fmri_test/images/redD.png'></img>	go	2100.0	1.0	7.0	go	non-target	D	89,Yellow Button	71,Green Button	500.0	650.0	2200.0	2100.0	0.0	650.0	0.0	n/a	go_stim
249622.93541923945	167.06458076055799	n/a	612	89	2750	167.064580761	stim	stop-signal	305	771971	0.0-15.7-1.7	beast_fmri_test	301	769704,/,770384,/,771064,/,771744,/	t,t,t,t	<img class = center src='/static/experiments/beast_fmri_test/images/D.png'></img>	89,71	2750.0	test	<img class = center src='/static/experiments/beast_fmri_test/images/redD.png'></img>	go	2100.0	1.0	7.0	go	non-target	D	89,Yellow Button	71,Green Button	500.0	650.0	2200.0	2100.0	0.0	650.0	0.0	n/a	ITI
250474	500	n/a	-1	-1	500	0.0	fixation	poldrack-single-stim	306	772655	0.0-15.8-0.8	beast_fmri_test	301	772424,/	t	<div class = centerbox><div class = fixation>+</div></div>	none	500.0	test	n/a	n/a	n/a	n/a	n/a	n/a	n/a	n/a	n/a	n/a	n/a	n/a	n/a	n/a	n/a	n/a	n/a	n/a	fixation
249887.79439441557	500.0	n/a	442	71	2750	588.205605584	stim	stop-signal	307	775407	0.0-15.8-1.8	beast_fmri_test	301	773104,/,773785,/,774464,/,775144,/,775824,/	t,t,t,t,t	<img class = center src='/static/experiments/beast_fmri_test/images/D.png'></img>	89,71	2750.0	test	<img class = center src='/static/experiments/beast_fmri_test/images/redD.png'></img>	stop	2250.0	1.0	8.0	stop	target	D	89,Yellow Button	71,Green Button	500.0	650.0	2250.0	2100.0	0.0	500.0	0.0	0.0	go_stim
252137.79439441557	2250.0	n/a	442	71	2750	588.205605584	stim	stop-signal	307	775407	0.0-15.8-1.8	beast_fmri_test	301	773104,/,773785,/,774464,/,775144,/,775824,/	t,t,t,t,t	<img class = center src='/static/experiments/beast_fmri_test/images/D.png'></img>	89,71	2750.0	test	<img class = center src='/static/experiments/beast_fmri_test/images/redD.png'></img>	stop	2250.0	1.0	8.0	stop	target	D	89,Yellow Button	71,Green Button	500.0	650.0	2250.0	2100.0	0.0	500.0	0.0	0.0	stop_stim
252637.79439441557	588.20560558447903	n/a	442	71	2750	588.205605584	stim	stop-signal	307	775407	0.0-15.8-1.8	beast_fmri_test	301	773104,/,773785,/,774464,/,775144,/,775824,/	t,t,t,t,t	<img class = center src='/static/experiments/beast_fmri_test/images/D.png'></img>	89,71	2750.0	test	<img class = center src='/static/experiments/beast_fmri_test/images/redD.png'></img>	stop	2250.0	1.0	8.0	stop	target	D	89,Yellow Button	71,Green Button	500.0	650.0	2250.0	2100.0	0.0	500.0	0.0	0.0	ITI
254328	500	n/a	-1	-1	500	0.0	fixation	poldrack-single-stim	308	776509	0.0-15.9-0.9	beast_fmri_test	301	776504,/	t	<div class = centerbox><div class = fixation>+</div></div>	none	500.0	test	n/a	n/a	n/a	n/a	n/a	n/a	n/a	n/a	n/a	n/a	n/a	n/a	n/a	n/a	n/a	n/a	n/a	n/a	fixation
253411.5550826845	2750	n/a	522	71	2750	919.444917315	stim	stop-signal	309	779262	0.0-15.9-1.9	beast_fmri_test	301	777184,/,777864,/,778544,/,779224,/,779904,/	t,t,t,t,t	<img class = center src='/static/experiments/beast_fmri_test/images/D.png'></img>	89,71	2750.0	test	<img class = center src='/static/experiments/beast_fmri_test/images/redD.png'></img>	go	2300.0	1.0	9.0	go	target	D	89,Yellow Button	71,Green Button	450.0	650.0	2300.0	2100.0	0.0	450.0	0.0	n/a	go_stim
256161.5550826845	919.44491731549294	n/a	522	71	2750	919.444917315	stim	stop-signal	309	779262	0.0-15.9-1.9	beast_fmri_test	301	777184,/,777864,/,778544,/,779224,/,779904,/	t,t,t,t,t	<img class = center src='/static/experiments/beast_fmri_test/images/D.png'></img>	89,71	2750.0	test	<img class = center src='/static/experiments/beast_fmri_test/images/redD.png'></img>	go	2300.0	1.0	9.0	go	target	D	89,Yellow Button	71,Green Button	450.0	650.0	2300.0	2100.0	0.0	450.0	0.0	n/a	ITI
258516	500	n/a	-1	-1	500	0.0	fixation	poldrack-single-stim	310	780697	0.0-15.10-0.10	beast_fmri_test	301	780584,/	t	<div class = centerbox><div class = fixation>+</div></div>	none	500.0	test	n/a	n/a	n/a	n/a	n/a	n/a	n/a	n/a	n/a	n/a	n/a	n/a	n/a	n/a	n/a	n/a	n/a	n/a	fixation
256835.54504723672	450.0	n/a	548	71	2750	1682.45495276	stim	stop-signal	311	783449	0.0-15.10-1.10	beast_fmri_test	301	781264,/,781944,/,782624,/,783304,/,783985,/,784664,/	t,t,t,t,t,t	<img class = center src='/static/experiments/beast_fmri_test/images/D.png'></img>	89,71	2750.0	test	<img class = center src='/static/experiments/beast_fmri_test/images/redD.png'></img>	stop	2300.0	1.0	10.0	stop	target	D	89,Yellow Button	71,Green Button	450.0	650.0	2300.0	2100.0	0.0	450.0	0.0	0.0	go_stim
259135.54504723672	2300.0	n/a	548	71	2750	1682.45495276	stim	stop-signal	311	783449	0.0-15.10-1.10	beast_fmri_test	301	781264,/,781944,/,782624,/,783304,/,783985,/,784664,/	t,t,t,t,t,t	<img class = center src='/static/experiments/beast_fmri_test/images/D.png'></img>	89,71	2750.0	test	<img class = center src='/static/experiments/beast_fmri_test/images/redD.png'></img>	stop	2300.0	1.0	10.0	stop	target	D	89,Yellow Button	71,Green Button	450.0	650.0	2300.0	2100.0	0.0	450.0	0.0	0.0	stop_stim
259585.54504723672	1682.4549527633101	n/a	548	71	2750	1682.45495276	stim	stop-signal	311	783449	0.0-15.10-1.10	beast_fmri_test	301	781264,/,781944,/,782624,/,783304,/,783985,/,784664,/	t,t,t,t,t,t	<img class = center src='/static/experiments/beast_fmri_test/images/D.png'></img>	89,71	2750.0	test	<img class = center src='/static/experiments/beast_fmri_test/images/redD.png'></img>	stop	2300.0	1.0	10.0	stop	target	D	89,Yellow Button	71,Green Button	450.0	650.0	2300.0	2100.0	0.0	450.0	0.0	0.0	ITI
263465	500	n/a	-1	-1	500	0.0	fixation	poldrack-single-stim	312	785646	0.0-15.11-0.11	beast_fmri_test	301	785344,/	t	<div class = centerbox><div class = fixation>+</div></div>	none	500.0	test	n/a	n/a	n/a	n/a	n/a	n/a	n/a	n/a	n/a	n/a	n/a	n/a	n/a	n/a	n/a	n/a	n/a	n/a	fixation
262276.66550921299	2750	n/a	542	71	2750	1190.33449079	stim	stop-signal	313	788398	0.0-15.11-1.11	beast_fmri_test	301	786024,/,786703,/,787384,/,788063,/,788744,/,789423,/	t,t,t,t,t,t	<img class = center src='/static/experiments/beast_fmri_test/images/D.png'></img>	89,71	2750.0	test	<img class = center src='/static/experiments/beast_fmri_test/images/redD.png'></img>	go	2350.0	1.0	11.0	go	target	D	89,Yellow Button	71,Green Button	400.0	650.0	2350.0	2100.0	0.0	400.0	0.0	n/a	go_stim
265026.66550921299	1190.3344907870501	n/a	542	71	2750	1190.33449079	stim	stop-signal	313	788398	0.0-15.11-1.11	beast_fmri_test	301	786024,/,786703,/,787384,/,788063,/,788744,/,789423,/	t,t,t,t,t,t	<img class = center src='/static/experiments/beast_fmri_test/images/D.png'></img>	89,71	2750.0	test	<img class = center src='/static/experiments/beast_fmri_test/images/redD.png'></img>	go	2350.0	1.0	11.0	go	target	D	89,Yellow Button	71,Green Button	400.0	650.0	2350.0	2100.0	0.0	400.0	0.0	n/a	ITI
267924	500	n/a	-1	-1	500	0.0	fixation	poldrack-single-stim	314	790105	0.0-15.12-0.12	beast_fmri_test	301	790104,/	t	<div class = centerbox><div class = fixation>+</div></div>	none	500.0	test	n/a	n/a	n/a	n/a	n/a	n/a	n/a	n/a	n/a	n/a	n/a	n/a	n/a	n/a	n/a	n/a	n/a	n/a	fixation
267684.1368869741	2750	n/a	-1	-1	2750	241.863113026	stim	stop-signal	315	792857	0.0-15.12-1.12	beast_fmri_test	301	790784,/,791464,/,792143,/,792824,/	t,t,t,t	<img class = center src='/static/experiments/beast_fmri_test/images/P.png'></img>	89,71	2750.0	test	<img class = center src='/static/experiments/beast_fmri_test/images/redP.png'></img>	go	2100.0	1.0	12.0	go	non-target	P	89,Yellow Button	71,Green Button	400.0	650.0	2350.0	2100.0	0.0	650.0	0.0	n/a	go_stim
270434.1368869741	241.863113025888	n/a	-1	-1	2750	241.863113026	stim	stop-signal	315	792857	0.0-15.12-1.12	beast_fmri_test	301	790784,/,791464,/,792143,/,792824,/	t,t,t,t	<img class = center src='/static/experiments/beast_fmri_test/images/P.png'></img>	89,71	2750.0	test	<img class = center src='/static/experiments/beast_fmri_test/images/redP.png'></img>	go	2100.0	1.0	12.0	go	non-target	P	89,Yellow Button	71,Green Button	400.0	650.0	2350.0	2100.0	0.0	650.0	0.0	n/a	ITI
271434	500	n/a	-1	-1	500	0.0	fixation	poldrack-single-stim	316	793615	0.0-15.13-0.13	beast_fmri_test	301	793504,/	t	<div class = centerbox><div class = fixation>+</div></div>	none	500.0	test	n/a	n/a	n/a	n/a	n/a	n/a	n/a	n/a	n/a	n/a	n/a	n/a	n/a	n/a	n/a	n/a	n/a	n/a	fixation
270085.48278515565	2750	n/a	795	89	2750	1350.51721484	stim	stop-signal	317	796367	0.0-15.13-1.13	beast_fmri_test	301	794184,/,794863,/,795543,/,796223,/,796904,/,797583,/	t,t,t,t,t,t	<img class = center src='/static/experiments/beast_fmri_test/images/V.png'></img>	89,71	2750.0	test	<img class = center src='/static/experiments/beast_fmri_test/images/redV.png'></img>	go	2100.0	1.0	13.0	go	non-target	V	89,Yellow Button	71,Green Button	400.0	650.0	2350.0	2100.0	0.0	650.0	0.0	n/a	go_stim
272835.48278515565	1350.5172148443	n/a	795	89	2750	1350.51721484	stim	stop-signal	317	796367	0.0-15.13-1.13	beast_fmri_test	301	794184,/,794863,/,795543,/,796223,/,796904,/,797583,/	t,t,t,t,t,t	<img class = center src='/static/experiments/beast_fmri_test/images/V.png'></img>	89,71	2750.0	test	<img class = center src='/static/experiments/beast_fmri_test/images/redV.png'></img>	go	2100.0	1.0	13.0	go	non-target	V	89,Yellow Button	71,Green Button	400.0	650.0	2350.0	2100.0	0.0	650.0	0.0	n/a	ITI
276052	500	n/a	-1	-1	500	0.0	fixation	poldrack-single-stim	318	798233	0.0-15.14-0.14	beast_fmri_test	301	n/a	n/a	<div class = centerbox><div class = fixation>+</div></div>	none	500.0	test	n/a	n/a	n/a	n/a	n/a	n/a	n/a	n/a	n/a	n/a	n/a	n/a	n/a	n/a	n/a	n/a	n/a	n/a	fixation
275311.28392624203	2750	n/a	550	71	2750	742.716073758	stim	stop-signal	319	800985	0.0-15.14-1.14	beast_fmri_test	301	798264,/,798943,/,799625,/,800304,/,800985,/,801664,/	t,t,t,t,t,t	<img class = center src='/static/experiments/beast_fmri_test/images/V.png'></img>	89,71	2750.0	test	<img class = center src='/static/experiments/beast_fmri_test/images/redV.png'></img>	go	2350.0	1.0	14.0	go	target	V	89,Yellow Button	71,Green Button	400.0	650.0	2350.0	2100.0	0.0	400.0	0.0	n/a	go_stim
278061.28392624203	742.71607375793303	n/a	550	71	2750	742.716073758	stim	stop-signal	319	800985	0.0-15.14-1.14	beast_fmri_test	301	798264,/,798943,/,799625,/,800304,/,800985,/,801664,/	t,t,t,t,t,t	<img class = center src='/static/experiments/beast_fmri_test/images/V.png'></img>	89,71	2750.0	test	<img class = center src='/static/experiments/beast_fmri_test/images/redV.png'></img>	go	2350.0	1.0	14.0	go	target	V	89,Yellow Button	71,Green Button	400.0	650.0	2350.0	2100.0	0.0	400.0	0.0	n/a	ITI
280066	500	n/a	-1	-1	500	0.0	fixation	poldrack-single-stim	320	802247	0.0-15.15-0.15	beast_fmri_test	301	n/a	n/a	<div class = centerbox><div class = fixation>+</div></div>	none	500.0	test	n/a	n/a	n/a	n/a	n/a	n/a	n/a	n/a	n/a	n/a	n/a	n/a	n/a	n/a	n/a	n/a	n/a	n/a	fixation
277966.71474572585	2750	n/a	703	71	2750	2102.28525427	stim	stop-signal	321	805000	0.0-15.15-1.15	beast_fmri_test	301	802345,/,803024,/,803704,/,804385,/,805065,/,805744,/,806425,/	t,t,t,t,t,t,t	<img class = center src='/static/experiments/beast_fmri_test/images/V.png'></img>	89,71	2750.0	test	<img class = center src='/static/experiments/beast_fmri_test/images/redV.png'></img>	go	2350.0	1.0	15.0	go	target	V	89,Yellow Button	71,Green Button	400.0	650.0	2350.0	2100.0	0.0	400.0	0.0	n/a	go_stim
280716.71474572585	2102.2852542741398	n/a	703	71	2750	2102.28525427	stim	stop-signal	321	805000	0.0-15.15-1.15	beast_fmri_test	301	802345,/,803024,/,803704,/,804385,/,805065,/,805744,/,806425,/	t,t,t,t,t,t,t	<img class = center src='/static/experiments/beast_fmri_test/images/V.png'></img>	89,71	2750.0	test	<img class = center src='/static/experiments/beast_fmri_test/images/redV.png'></img>	go	2350.0	1.0	15.0	go	target	V	89,Yellow Button	71,Green Button	400.0	650.0	2350.0	2100.0	0.0	400.0	0.0	n/a	ITI
285436	500	n/a	-1	-1	500	0.0	fixation	poldrack-single-stim	322	807617	0.0-15.16-0.16	beast_fmri_test	301	807116,/	t	<div class = centerbox><div class = fixation>+</div></div>	none	500.0	test	n/a	n/a	n/a	n/a	n/a	n/a	n/a	n/a	n/a	n/a	n/a	n/a	n/a	n/a	n/a	n/a	n/a	n/a	fixation
285335.45198613091	2750	n/a	707	71	2750	102.548013869	stim	stop-signal	323	810369	0.0-15.16-1.16	beast_fmri_test	301	807785,/,808464,/,809144,/,809824,/	t,t,t,t	<img class = center src='/static/experiments/beast_fmri_test/images/V.png'></img>	89,71	2750.0	test	<img class = center src='/static/experiments/beast_fmri_test/images/redV.png'></img>	go	2350.0	1.0	16.0	go	target	V	89,Yellow Button	71,Green Button	400.0	650.0	2350.0	2100.0	0.0	400.0	0.0	n/a	go_stim
288085.45198613091	102.548013869041	n/a	707	71	2750	102.548013869	stim	stop-signal	323	810369	0.0-15.16-1.16	beast_fmri_test	301	807785,/,808464,/,809144,/,809824,/	t,t,t,t	<img class = center src='/static/experiments/beast_fmri_test/images/V.png'></img>	89,71	2750.0	test	<img class = center src='/static/experiments/beast_fmri_test/images/redV.png'></img>	go	2350.0	1.0	16.0	go	target	V	89,Yellow Button	71,Green Button	400.0	650.0	2350.0	2100.0	0.0	400.0	0.0	n/a	ITI
288807	500	n/a	-1	-1	500	0.0	fixation	poldrack-single-stim	324	810988	0.0-15.17-0.17	beast_fmri_test	301	810504,/	t	<div class = centerbox><div class = fixation>+</div></div>	none	500.0	test	n/a	n/a	n/a	n/a	n/a	n/a	n/a	n/a	n/a	n/a	n/a	n/a	n/a	n/a	n/a	n/a	n/a	n/a	fixation
286218.87868770724	2750	n/a	1727	89	2750	2590.12131229	stim	stop-signal	325	813740	0.0-15.17-1.17	beast_fmri_test	301	811184,/,811864,/,812544,/,813224,/,813904,/,814585,/,815264,/,815944,/	t,t,t,t,t,t,t,t	<img class = center src='/static/experiments/beast_fmri_test/images/D.png'></img>	89,71	2750.0	test	<img class = center src='/static/experiments/beast_fmri_test/images/redD.png'></img>	go	2100.0	1.0	17.0	go	non-target	D	89,Yellow Button	71,Green Button	400.0	650.0	2350.0	2100.0	0.0	650.0	0.0	n/a	go_stim
288968.87868770724	2590.1213122927902	n/a	1727	89	2750	2590.12131229	stim	stop-signal	325	813740	0.0-15.17-1.17	beast_fmri_test	301	811184,/,811864,/,812544,/,813224,/,813904,/,814585,/,815264,/,815944,/	t,t,t,t,t,t,t,t	<img class = center src='/static/experiments/beast_fmri_test/images/D.png'></img>	89,71	2750.0	test	<img class = center src='/static/experiments/beast_fmri_test/images/redD.png'></img>	go	2100.0	1.0	17.0	go	non-target	D	89,Yellow Button	71,Green Button	400.0	650.0	2350.0	2100.0	0.0	650.0	0.0	n/a	ITI
294667	500	n/a	-1	-1	500	0.0	fixation	poldrack-single-stim	326	816848	0.0-15.18-0.18	beast_fmri_test	301	816624,/	t	<div class = centerbox><div class = fixation>+</div></div>	none	500.0	test	n/a	n/a	n/a	n/a	n/a	n/a	n/a	n/a	n/a	n/a	n/a	n/a	n/a	n/a	n/a	n/a	n/a	n/a	fixation
293267.03606540465	2750	n/a	847	89	2750	1401.9639346	stim	stop-signal	327	819600	0.0-15.18-1.18	beast_fmri_test	301	817304,/,817984,/,818664,/,819344,/,820024,/,820704,/	t,t,t,t,t,t	<img class = center src='/static/experiments/beast_fmri_test/images/D.png'></img>	89,71	2750.0	test	<img class = center src='/static/experiments/beast_fmri_test/images/redD.png'></img>	go	2350.0	1.0	18.0	go	target	D	89,Yellow Button	71,Green Button	400.0	650.0	2350.0	2100.0	1.0	400.0	1.0	n/a	go_stim
296017.03606540465	1401.9639345953001	n/a	847	89	2750	1401.9639346	stim	stop-signal	327	819600	0.0-15.18-1.18	beast_fmri_test	301	817304,/,817984,/,818664,/,819344,/,820024,/,820704,/	t,t,t,t,t,t	<img class = center src='/static/experiments/beast_fmri_test/images/D.png'></img>	89,71	2750.0	test	<img class = center src='/static/experiments/beast_fmri_test/images/redD.png'></img>	go	2350.0	1.0	18.0	go	target	D	89,Yellow Button	71,Green Button	400.0	650.0	2350.0	2100.0	1.0	400.0	1.0	n/a	ITI
299338	500	n/a	-1	-1	500	0.0	fixation	poldrack-single-stim	328	821519	0.0-15.19-0.19	beast_fmri_test	301	821384,/	t	<div class = centerbox><div class = fixation>+</div></div>	none	500.0	test	n/a	n/a	n/a	n/a	n/a	n/a	n/a	n/a	n/a	n/a	n/a	n/a	n/a	n/a	n/a	n/a	n/a	n/a	fixation
298096.71026628709	2750	n/a	815	89	2750	1242.28973371	stim	stop-signal	329	824270	0.0-15.19-1.19	beast_fmri_test	301	822064,/,822744,/,823424,/,824104,/,824785,/,825469,/	t,t,t,t,t,t	<img class = center src='/static/experiments/beast_fmri_test/images/V.png'></img>	89,71	2750.0	test	<img class = center src='/static/experiments/beast_fmri_test/images/redV.png'></img>	go	2100.0	1.0	19.0	go	non-target	V	89,Yellow Button	71,Green Button	400.0	650.0	2350.0	2100.0	0.0	650.0	0.0	n/a	go_stim
300846.71026628709	1242.28973371292	n/a	815	89	2750	1242.28973371	stim	stop-signal	329	824270	0.0-15.19-1.19	beast_fmri_test	301	822064,/,822744,/,823424,/,824104,/,824785,/,825469,/	t,t,t,t,t,t	<img class = center src='/static/experiments/beast_fmri_test/images/V.png'></img>	89,71	2750.0	test	<img class = center src='/static/experiments/beast_fmri_test/images/redV.png'></img>	go	2100.0	1.0	19.0	go	non-target	V	89,Yellow Button	71,Green Button	400.0	650.0	2350.0	2100.0	0.0	650.0	0.0	n/a	ITI
303847	500	n/a	-1	-1	500	0.0	fixation	poldrack-single-stim	330	826028	0.0-15.20-0.20	beast_fmri_test	301	n/a	n/a	<div class = centerbox><div class = fixation>+</div></div>	none	500.0	test	n/a	n/a	n/a	n/a	n/a	n/a	n/a	n/a	n/a	n/a	n/a	n/a	n/a	n/a	n/a	n/a	n/a	n/a	fixation
302955.55486080155	400.0	n/a	427	71	2750	893.445139198	stim	stop-signal	331	828780	0.0-15.20-1.20	beast_fmri_test	301	826144,/,826824,/,827504,/,828184,/,828864,/,829544,/	t,t,t,t,t,t	<img class = center src='/static/experiments/beast_fmri_test/images/V.png'></img>	89,71	2750.0	test	<img class = center src='/static/experiments/beast_fmri_test/images/redV.png'></img>	stop	2350.0	1.0	20.0	stop	target	V	89,Yellow Button	71,Green Button	400.0	650.0	2350.0	2100.0	0.0	400.0	0.0	0.0	go_stim
305305.55486080155	2350.0	n/a	427	71	2750	893.445139198	stim	stop-signal	331	828780	0.0-15.20-1.20	beast_fmri_test	301	826144,/,826824,/,827504,/,828184,/,828864,/,829544,/	t,t,t,t,t,t	<img class = center src='/static/experiments/beast_fmri_test/images/V.png'></img>	89,71	2750.0	test	<img class = center src='/static/experiments/beast_fmri_test/images/redV.png'></img>	stop	2350.0	1.0	20.0	stop	target	V	89,Yellow Button	71,Green Button	400.0	650.0	2350.0	2100.0	0.0	400.0	0.0	0.0	stop_stim
305705.55486080155	893.445139198417	n/a	427	71	2750	893.445139198	stim	stop-signal	331	828780	0.0-15.20-1.20	beast_fmri_test	301	826144,/,826824,/,827504,/,828184,/,828864,/,829544,/	t,t,t,t,t,t	<img class = center src='/static/experiments/beast_fmri_test/images/V.png'></img>	89,71	2750.0	test	<img class = center src='/static/experiments/beast_fmri_test/images/redV.png'></img>	stop	2350.0	1.0	20.0	stop	target	V	89,Yellow Button	71,Green Button	400.0	650.0	2350.0	2100.0	0.0	400.0	0.0	0.0	ITI
308007	500	n/a	-1	-1	500	0.0	fixation	poldrack-single-stim	332	830188	0.0-15.21-0.21	beast_fmri_test	301	n/a	n/a	<div class = centerbox><div class = fixation>+</div></div>	none	500.0	test	n/a	n/a	n/a	n/a	n/a	n/a	n/a	n/a	n/a	n/a	n/a	n/a	n/a	n/a	n/a	n/a	n/a	n/a	fixation
306217.6335690316	2750	n/a	-1	-1	2750	1791.36643097	stim	stop-signal	333	832940	0.0-15.21-1.21	beast_fmri_test	301	830224,/,830904,/,831584,/,832264,/,832943,/,833625,/,834305,/	t,t,t,t,t,t,t	<img class = center src='/static/experiments/beast_fmri_test/images/D.png'></img>	89,71	2750.0	test	<img class = center src='/static/experiments/beast_fmri_test/images/redD.png'></img>	go	2100.0	1.0	21.0	go	non-target	D	89,Yellow Button	71,Green Button	350.0	650.0	2350.0	2100.0	0.0	650.0	0.0	n/a	go_stim
308967.6335690316	1791.36643096841	n/a	-1	-1	2750	1791.36643097	stim	stop-signal	333	832940	0.0-15.21-1.21	beast_fmri_test	301	830224,/,830904,/,831584,/,832264,/,832943,/,833625,/,834305,/	t,t,t,t,t,t,t	<img class = center src='/static/experiments/beast_fmri_test/images/D.png'></img>	89,71	2750.0	test	<img class = center src='/static/experiments/beast_fmri_test/images/redD.png'></img>	go	2100.0	1.0	21.0	go	non-target	D	89,Yellow Button	71,Green Button	350.0	650.0	2350.0	2100.0	0.0	650.0	0.0	n/a	ITI
313066	500	n/a	-1	-1	500	0.0	fixation	poldrack-single-stim	334	835247	0.0-15.22-0.22	beast_fmri_test	301	834986,/	t	<div class = centerbox><div class = fixation>+</div></div>	none	500.0	test	n/a	n/a	n/a	n/a	n/a	n/a	n/a	n/a	n/a	n/a	n/a	n/a	n/a	n/a	n/a	n/a	n/a	n/a	fixation
313040.50845188205	650.0	n/a	797	71	2750	26.491548118	stim	stop-signal	335	837998	0.0-15.22-1.22	beast_fmri_test	301	835665,/,836345,/,837024,/,837705,/	t,t,t,t	<img class = center src='/static/experiments/beast_fmri_test/images/V.png'></img>	89,71	2750.0	test	<img class = center src='/static/experiments/beast_fmri_test/images/redV.png'></img>	stop	2100.0	1.0	22.0	stop	non-target	V	89,Yellow Button	71,Green Button	350.0	650.0	2350.0	2100.0	0.0	650.0	1.0	0.0	go_stim
315140.50845188205	2100.0	n/a	797	71	2750	26.491548118	stim	stop-signal	335	837998	0.0-15.22-1.22	beast_fmri_test	301	835665,/,836345,/,837024,/,837705,/	t,t,t,t	<img class = center src='/static/experiments/beast_fmri_test/images/V.png'></img>	89,71	2750.0	test	<img class = center src='/static/experiments/beast_fmri_test/images/redV.png'></img>	stop	2100.0	1.0	22.0	stop	non-target	V	89,Yellow Button	71,Green Button	350.0	650.0	2350.0	2100.0	0.0	650.0	1.0	0.0	stop_stim
315790.50845188205	26.491548117980798	n/a	797	71	2750	26.491548118	stim	stop-signal	335	837998	0.0-15.22-1.22	beast_fmri_test	301	835665,/,836345,/,837024,/,837705,/	t,t,t,t	<img class = center src='/static/experiments/beast_fmri_test/images/V.png'></img>	89,71	2750.0	test	<img class = center src='/static/experiments/beast_fmri_test/images/redV.png'></img>	stop	2100.0	1.0	22.0	stop	non-target	V	89,Yellow Button	71,Green Button	350.0	650.0	2350.0	2100.0	0.0	650.0	1.0	0.0	ITI
316358	500	n/a	-1	-1	500	0.0	fixation	poldrack-single-stim	336	838539	0.0-15.23-0.23	beast_fmri_test	301	838385,/	t	<div class = centerbox><div class = fixation>+</div></div>	none	500.0	test	n/a	n/a	n/a	n/a	n/a	n/a	n/a	n/a	n/a	n/a	n/a	n/a	n/a	n/a	n/a	n/a	n/a	n/a	fixation
316161.64166096726	600.0	n/a	-1	-1	2750	198.358339033	stim	stop-signal	337	841291	0.0-15.23-1.23	beast_fmri_test	301	839065,/,839745,/,840425,/,841105,/	t,t,t,t	<img class = center src='/static/experiments/beast_fmri_test/images/D.png'></img>	89,71	2750.0	test	<img class = center src='/static/experiments/beast_fmri_test/images/redD.png'></img>	stop	2150.0	1.0	23.0	stop	non-target	D	89,Yellow Button	71,Green Button	350.0	600.0	2350.0	2150.0	0.0	600.0	0.0	1.0	go_stim
318311.64166096726	2150.0	n/a	-1	-1	2750	198.358339033	stim	stop-signal	337	841291	0.0-15.23-1.23	beast_fmri_test	301	839065,/,839745,/,840425,/,841105,/	t,t,t,t	<img class = center src='/static/experiments/beast_fmri_test/images/D.png'></img>	89,71	2750.0	test	<img class = center src='/static/experiments/beast_fmri_test/images/redD.png'></img>	stop	2150.0	1.0	23.0	stop	non-target	D	89,Yellow Button	71,Green Button	350.0	600.0	2350.0	2150.0	0.0	600.0	0.0	1.0	stop_stim
318911.64166096726	198.35833903271401	n/a	-1	-1	2750	198.358339033	stim	stop-signal	337	841291	0.0-15.23-1.23	beast_fmri_test	301	839065,/,839745,/,840425,/,841105,/	t,t,t,t	<img class = center src='/static/experiments/beast_fmri_test/images/D.png'></img>	89,71	2750.0	test	<img class = center src='/static/experiments/beast_fmri_test/images/redD.png'></img>	stop	2150.0	1.0	23.0	stop	non-target	D	89,Yellow Button	71,Green Button	350.0	600.0	2350.0	2150.0	0.0	600.0	0.0	1.0	ITI
319823	500	n/a	-1	-1	500	0.0	fixation	poldrack-single-stim	338	842004	0.0-15.24-0.24	beast_fmri_test	301	841785,/	t	<div class = centerbox><div class = fixation>+</div></div>	none	500.0	test	n/a	n/a	n/a	n/a	n/a	n/a	n/a	n/a	n/a	n/a	n/a	n/a	n/a	n/a	n/a	n/a	n/a	n/a	fixation
