onset	duration	text	rt	key_press	block_duration	timing_post_trial	trial_id	trial_type	trial_index	time_elapsed	internal_node_id	exp_id	subject_id	trigger_times	triggers	stimulus	possible_responses	stim_duration	exp_stage	SS_stimulus	SS_trial_type	SS_duration	load	trial_num	stop_trial_type	adaptive_trial_type	stim	yes_response_key	no_response_key	SSD_target	SSD_non_target	SSTarget	SSNonTarget	go_acc	SS_delay	adaptive_acc	stop_acc	new_trial_type
test	10880	n/a	-1	-1	10880	0.0	practice-no-stop-feedback	poldrack-single-stim	572	1564384	0.0-24.0	beast_fmri_test	301	1553504,/,1554183,/,1554863,/,1555543,/,1556223,/,1556903,/,1557583,/,1558263,/,1558943,/,1559623,/,1560303,/,1560984,/,1561663,/,1562343,/,1563023,/,1563703,/,1564383,/	t,t,t,t,t,t,t,t,t,t,t,t,t,t,t,t,t	"<div class = ""centerbox""><p class = ""center-block-text"">Your delay is 1 trials.</p><p class = center-block-text>Please wait for the scanner to start the block</p></div>"	77	10880.0	n/a	n/a	n/a	n/a	n/a	n/a	n/a	n/a	n/a	n/a	n/a	n/a	n/a	n/a	n/a	n/a	n/a	n/a	n/a	start_functional_block
11383	500	n/a	-1	-1	500	0.0	fixation	poldrack-single-stim	573	1564887	0.0-25.0-0.0	beast_fmri_test	301	n/a	n/a	<div class = centerbox><div class = fixation>+</div></div>	none	500.0	test	n/a	n/a	n/a	n/a	n/a	n/a	n/a	n/a	n/a	n/a	n/a	n/a	n/a	n/a	n/a	n/a	n/a	n/a	fixation
10854.012171110604	temp_go_duration	n/a	914	89	2750	530.987828889	stim	stop-signal	574	1567639	0.0-25.0-1.0	beast_fmri_test	301	1565063,/,1565743,/,1566423,/,1567103,/,1567783,/	t,t,t,t,t	<img class = center src='/static/experiments/beast_fmri_test/images/V.png'></img>	89,71	2750.0	test	<img class = center src='/static/experiments/beast_fmri_test/images/redV.png'></img>	stop	-1.0	1.0	0.0	stop	temp-non-target	V	89,Yellow Button	71,Green Button	300.0	400.0	2450.0	2350.0	0.0	n/a	n/a	0.0	go_stim
temp-non-target	temp_stop_duration	n/a	914	89	2750	530.987828889	stim	stop-signal	574	1567639	0.0-25.0-1.0	beast_fmri_test	301	1565063,/,1565743,/,1566423,/,1567103,/,1567783,/	t,t,t,t,t	<img class = center src='/static/experiments/beast_fmri_test/images/V.png'></img>	89,71	2750.0	test	<img class = center src='/static/experiments/beast_fmri_test/images/redV.png'></img>	stop	-1.0	1.0	0.0	stop	temp-non-target	V	89,Yellow Button	71,Green Button	300.0	400.0	2450.0	2350.0	0.0	n/a	n/a	0.0	stop_stim
13604.012171110604	530.987828889453	n/a	914	89	2750	530.987828889	stim	stop-signal	574	1567639	0.0-25.0-1.0	beast_fmri_test	301	1565063,/,1565743,/,1566423,/,1567103,/,1567783,/	t,t,t,t,t	<img class = center src='/static/experiments/beast_fmri_test/images/V.png'></img>	89,71	2750.0	test	<img class = center src='/static/experiments/beast_fmri_test/images/redV.png'></img>	stop	-1.0	1.0	0.0	stop	temp-non-target	V	89,Yellow Button	71,Green Button	300.0	400.0	2450.0	2350.0	0.0	n/a	n/a	0.0	ITI
15189	500	n/a	-1	-1	500	0.0	fixation	poldrack-single-stim	575	1568693	0.0-25.1-0.1	beast_fmri_test	301	1568463,/	t	<div class = centerbox><div class = fixation>+</div></div>	none	500.0	test	n/a	n/a	n/a	n/a	n/a	n/a	n/a	n/a	n/a	n/a	n/a	n/a	n/a	n/a	n/a	n/a	n/a	n/a	fixation
14883.933202358661	300.0	n/a	514	71	2750	307.066797641	stim	stop-signal	576	1571445	0.0-25.1-1.1	beast_fmri_test	301	1569143,/,1569823,/,1570503,/,1571184,/	t,t,t,t	<img class = center src='/static/experiments/beast_fmri_test/images/V.png'></img>	89,71	2750.0	test	<img class = center src='/static/experiments/beast_fmri_test/images/redV.png'></img>	stop	2450.0	1.0	1.0	stop	target	V	89,Yellow Button	71,Green Button	300.0	400.0	2450.0	2350.0	0.0	300.0	0.0	0.0	go_stim
17333.933202358661	2450.0	n/a	514	71	2750	307.066797641	stim	stop-signal	576	1571445	0.0-25.1-1.1	beast_fmri_test	301	1569143,/,1569823,/,1570503,/,1571184,/	t,t,t,t	<img class = center src='/static/experiments/beast_fmri_test/images/V.png'></img>	89,71	2750.0	test	<img class = center src='/static/experiments/beast_fmri_test/images/redV.png'></img>	stop	2450.0	1.0	1.0	stop	target	V	89,Yellow Button	71,Green Button	300.0	400.0	2450.0	2350.0	0.0	300.0	0.0	0.0	stop_stim
17633.933202358661	307.06679764137402	n/a	514	71	2750	307.066797641	stim	stop-signal	576	1571445	0.0-25.1-1.1	beast_fmri_test	301	1569143,/,1569823,/,1570503,/,1571184,/	t,t,t,t	<img class = center src='/static/experiments/beast_fmri_test/images/V.png'></img>	89,71	2750.0	test	<img class = center src='/static/experiments/beast_fmri_test/images/redV.png'></img>	stop	2450.0	1.0	1.0	stop	target	V	89,Yellow Button	71,Green Button	300.0	400.0	2450.0	2350.0	0.0	300.0	0.0	0.0	ITI
18773	500	n/a	-1	-1	500	0.0	fixation	poldrack-single-stim	577	1572277	0.0-25.2-0.2	beast_fmri_test	301	1571863,/	t	<div class = centerbox><div class = fixation>+</div></div>	none	500.0	test	n/a	n/a	n/a	n/a	n/a	n/a	n/a	n/a	n/a	n/a	n/a	n/a	n/a	n/a	n/a	n/a	n/a	n/a	fixation
18460.583302480169	2750	n/a	544	71	2750	314.41669752	stim	stop-signal	578	1575029	0.0-25.2-1.2	beast_fmri_test	301	1572543,/,1573223,/,1573903,/,1574583,/,1575263,/	t,t,t,t,t	<img class = center src='/static/experiments/beast_fmri_test/images/V.png'></img>	89,71	2750.0	test	<img class = center src='/static/experiments/beast_fmri_test/images/redV.png'></img>	go	2500.0	1.0	2.0	go	target	V	89,Yellow Button	71,Green Button	250.0	400.0	2500.0	2350.0	0.0	250.0	0.0	n/a	go_stim
21210.583302480169	314.41669751985	n/a	544	71	2750	314.41669752	stim	stop-signal	578	1575029	0.0-25.2-1.2	beast_fmri_test	301	1572543,/,1573223,/,1573903,/,1574583,/,1575263,/	t,t,t,t,t	<img class = center src='/static/experiments/beast_fmri_test/images/V.png'></img>	89,71	2750.0	test	<img class = center src='/static/experiments/beast_fmri_test/images/redV.png'></img>	go	2500.0	1.0	2.0	go	target	V	89,Yellow Button	71,Green Button	250.0	400.0	2500.0	2350.0	0.0	250.0	0.0	n/a	ITI
22362	500	n/a	-1	-1	500	0.0	fixation	poldrack-single-stim	579	1575866	0.0-25.3-0.3	beast_fmri_test	301	n/a	n/a	<div class = centerbox><div class = fixation>+</div></div>	none	500.0	test	n/a	n/a	n/a	n/a	n/a	n/a	n/a	n/a	n/a	n/a	n/a	n/a	n/a	n/a	n/a	n/a	n/a	n/a	fixation
22289.97256073216	2750	n/a	456	89	2750	74.0274392679	stim	stop-signal	580	1578618	0.0-25.3-1.3	beast_fmri_test	301	1575943,/,1576623,/,1577303,/,1577983,/,1578663,/	t,t,t,t,t	<img class = center src='/static/experiments/beast_fmri_test/images/T.png'></img>	89,71	2750.0	test	<img class = center src='/static/experiments/beast_fmri_test/images/redT.png'></img>	go	2350.0	1.0	3.0	go	non-target	T	89,Yellow Button	71,Green Button	250.0	400.0	2500.0	2350.0	0.0	400.0	0.0	n/a	go_stim
25039.97256073216	74.027439267927903	n/a	456	89	2750	74.0274392679	stim	stop-signal	580	1578618	0.0-25.3-1.3	beast_fmri_test	301	1575943,/,1576623,/,1577303,/,1577983,/,1578663,/	t,t,t,t,t	<img class = center src='/static/experiments/beast_fmri_test/images/T.png'></img>	89,71	2750.0	test	<img class = center src='/static/experiments/beast_fmri_test/images/redT.png'></img>	go	2350.0	1.0	3.0	go	non-target	T	89,Yellow Button	71,Green Button	250.0	400.0	2500.0	2350.0	0.0	400.0	0.0	n/a	ITI
25708	500	n/a	-1	-1	500	0.0	fixation	poldrack-single-stim	581	1579212	0.0-25.4-0.4	beast_fmri_test	301	n/a	n/a	<div class = centerbox><div class = fixation>+</div></div>	none	500.0	test	n/a	n/a	n/a	n/a	n/a	n/a	n/a	n/a	n/a	n/a	n/a	n/a	n/a	n/a	n/a	n/a	n/a	n/a	fixation
25145.60824793065	400.0	n/a	558	89	2750	564.391752069	stim	stop-signal	582	1581964	0.0-25.4-1.4	beast_fmri_test	301	1579343,/,1580022,/,1580702,/,1581383,/,1582064,/	t,t,t,t,t	<img class = center src='/static/experiments/beast_fmri_test/images/D.png'></img>	89,71	2750.0	test	<img class = center src='/static/experiments/beast_fmri_test/images/redD.png'></img>	stop	2350.0	1.0	4.0	stop	non-target	D	89,Yellow Button	71,Green Button	250.0	400.0	2500.0	2350.0	0.0	400.0	0.0	0.0	go_stim
27495.60824793065	2350.0	n/a	558	89	2750	564.391752069	stim	stop-signal	582	1581964	0.0-25.4-1.4	beast_fmri_test	301	1579343,/,1580022,/,1580702,/,1581383,/,1582064,/	t,t,t,t,t	<img class = center src='/static/experiments/beast_fmri_test/images/D.png'></img>	89,71	2750.0	test	<img class = center src='/static/experiments/beast_fmri_test/images/redD.png'></img>	stop	2350.0	1.0	4.0	stop	non-target	D	89,Yellow Button	71,Green Button	250.0	400.0	2500.0	2350.0	0.0	400.0	0.0	0.0	stop_stim
27895.60824793065	564.39175206931804	n/a	558	89	2750	564.391752069	stim	stop-signal	582	1581964	0.0-25.4-1.4	beast_fmri_test	301	1579343,/,1580022,/,1580702,/,1581383,/,1582064,/	t,t,t,t,t	<img class = center src='/static/experiments/beast_fmri_test/images/D.png'></img>	89,71	2750.0	test	<img class = center src='/static/experiments/beast_fmri_test/images/redD.png'></img>	stop	2350.0	1.0	4.0	stop	non-target	D	89,Yellow Button	71,Green Button	250.0	400.0	2500.0	2350.0	0.0	400.0	0.0	0.0	ITI
29546	500	n/a	-1	-1	500	0.0	fixation	poldrack-single-stim	583	1583050	0.0-25.5-0.5	beast_fmri_test	301	1582744,/	t	<div class = centerbox><div class = fixation>+</div></div>	none	500.0	test	n/a	n/a	n/a	n/a	n/a	n/a	n/a	n/a	n/a	n/a	n/a	n/a	n/a	n/a	n/a	n/a	n/a	n/a	fixation
28509.473845114	2750	n/a	605	71	2750	1038.52615489	stim	stop-signal	584	1585802	0.0-25.5-1.5	beast_fmri_test	301	1583424,/,1584103,/,1584784,/,1585463,/,1586144,/,1586823,/	t,t,t,t,t,t	<img class = center src='/static/experiments/beast_fmri_test/images/D.png'></img>	89,71	2750.0	test	<img class = center src='/static/experiments/beast_fmri_test/images/redD.png'></img>	go	2500.0	1.0	5.0	go	target	D	89,Yellow Button	71,Green Button	250.0	350.0	2500.0	2350.0	0.0	250.0	0.0	n/a	go_stim
31259.473845114	1038.5261548860699	n/a	605	71	2750	1038.52615489	stim	stop-signal	584	1585802	0.0-25.5-1.5	beast_fmri_test	301	1583424,/,1584103,/,1584784,/,1585463,/,1586144,/,1586823,/	t,t,t,t,t,t	<img class = center src='/static/experiments/beast_fmri_test/images/D.png'></img>	89,71	2750.0	test	<img class = center src='/static/experiments/beast_fmri_test/images/redD.png'></img>	go	2500.0	1.0	5.0	go	target	D	89,Yellow Button	71,Green Button	250.0	350.0	2500.0	2350.0	0.0	250.0	0.0	n/a	ITI
33863	500	n/a	-1	-1	500	0.0	fixation	poldrack-single-stim	585	1587367	0.0-25.6-0.6	beast_fmri_test	301	n/a	n/a	<div class = centerbox><div class = fixation>+</div></div>	none	500.0	test	n/a	n/a	n/a	n/a	n/a	n/a	n/a	n/a	n/a	n/a	n/a	n/a	n/a	n/a	n/a	n/a	n/a	n/a	fixation
32852.425394558348	2750	n/a	501	71	2750	1012.57460544	stim	stop-signal	586	1590119	0.0-25.6-1.6	beast_fmri_test	301	1587504,/,1588183,/,1588864,/,1589543,/,1590223,/,1590904,/	t,t,t,t,t,t	<img class = center src='/static/experiments/beast_fmri_test/images/D.png'></img>	89,71	2750.0	test	<img class = center src='/static/experiments/beast_fmri_test/images/redD.png'></img>	go	2500.0	1.0	6.0	go	target	D	89,Yellow Button	71,Green Button	250.0	350.0	2500.0	2350.0	0.0	250.0	0.0	n/a	go_stim
35602.425394558348	1012.57460544171	n/a	501	71	2750	1012.57460544	stim	stop-signal	586	1590119	0.0-25.6-1.6	beast_fmri_test	301	1587504,/,1588183,/,1588864,/,1589543,/,1590223,/,1590904,/	t,t,t,t,t,t	<img class = center src='/static/experiments/beast_fmri_test/images/D.png'></img>	89,71	2750.0	test	<img class = center src='/static/experiments/beast_fmri_test/images/redD.png'></img>	go	2500.0	1.0	6.0	go	target	D	89,Yellow Button	71,Green Button	250.0	350.0	2500.0	2350.0	0.0	250.0	0.0	n/a	ITI
38154	500	n/a	-1	-1	500	0.0	fixation	poldrack-single-stim	587	1591658	0.0-25.7-0.7	beast_fmri_test	301	1591585,/	t	<div class = centerbox><div class = fixation>+</div></div>	none	500.0	test	n/a	n/a	n/a	n/a	n/a	n/a	n/a	n/a	n/a	n/a	n/a	n/a	n/a	n/a	n/a	n/a	n/a	n/a	fixation
37175.398450726643	2750	n/a	538	71	2750	980.601549273	stim	stop-signal	588	1594410	0.0-25.7-1.7	beast_fmri_test	301	1592264,/,1592944,/,1593623,/,1594304,/,1594983,/	t,t,t,t,t	<img class = center src='/static/experiments/beast_fmri_test/images/D.png'></img>	89,71	2750.0	test	<img class = center src='/static/experiments/beast_fmri_test/images/redD.png'></img>	go	2500.0	1.0	7.0	go	target	D	89,Yellow Button	71,Green Button	250.0	350.0	2500.0	2350.0	0.0	250.0	0.0	n/a	go_stim
39925.398450726643	980.60154927344297	n/a	538	71	2750	980.601549273	stim	stop-signal	588	1594410	0.0-25.7-1.7	beast_fmri_test	301	1592264,/,1592944,/,1593623,/,1594304,/,1594983,/	t,t,t,t,t	<img class = center src='/static/experiments/beast_fmri_test/images/D.png'></img>	89,71	2750.0	test	<img class = center src='/static/experiments/beast_fmri_test/images/redD.png'></img>	go	2500.0	1.0	7.0	go	target	D	89,Yellow Button	71,Green Button	250.0	350.0	2500.0	2350.0	0.0	250.0	0.0	n/a	ITI
42408	500	n/a	-1	-1	500	0.0	fixation	poldrack-single-stim	589	1595912	0.0-25.8-0.8	beast_fmri_test	301	1595663,/	t	<div class = centerbox><div class = fixation>+</div></div>	none	500.0	test	n/a	n/a	n/a	n/a	n/a	n/a	n/a	n/a	n/a	n/a	n/a	n/a	n/a	n/a	n/a	n/a	n/a	n/a	fixation
40857.916638762457	250.0	n/a	542	71	2750	1552.08336124	stim	stop-signal	590	1598664	0.0-25.8-1.8	beast_fmri_test	301	1596343,/,1597024,/,1597704,/,1598384,/,1599063,/,1599744,/	t,t,t,t,t,t	<img class = center src='/static/experiments/beast_fmri_test/images/D.png'></img>	89,71	2750.0	test	<img class = center src='/static/experiments/beast_fmri_test/images/redD.png'></img>	stop	2500.0	1.0	8.0	stop	target	D	89,Yellow Button	71,Green Button	250.0	350.0	2500.0	2350.0	0.0	250.0	0.0	0.0	go_stim
43357.916638762457	2500.0	n/a	542	71	2750	1552.08336124	stim	stop-signal	590	1598664	0.0-25.8-1.8	beast_fmri_test	301	1596343,/,1597024,/,1597704,/,1598384,/,1599063,/,1599744,/	t,t,t,t,t,t	<img class = center src='/static/experiments/beast_fmri_test/images/D.png'></img>	89,71	2750.0	test	<img class = center src='/static/experiments/beast_fmri_test/images/redD.png'></img>	stop	2500.0	1.0	8.0	stop	target	D	89,Yellow Button	71,Green Button	250.0	350.0	2500.0	2350.0	0.0	250.0	0.0	0.0	stop_stim
43607.916638762457	1552.08336123754	n/a	542	71	2750	1552.08336124	stim	stop-signal	590	1598664	0.0-25.8-1.8	beast_fmri_test	301	1596343,/,1597024,/,1597704,/,1598384,/,1599063,/,1599744,/	t,t,t,t,t,t	<img class = center src='/static/experiments/beast_fmri_test/images/D.png'></img>	89,71	2750.0	test	<img class = center src='/static/experiments/beast_fmri_test/images/redD.png'></img>	stop	2500.0	1.0	8.0	stop	target	D	89,Yellow Button	71,Green Button	250.0	350.0	2500.0	2350.0	0.0	250.0	0.0	0.0	ITI
47236	500	n/a	-1	-1	500	0.0	fixation	poldrack-single-stim	591	1600740	0.0-25.9-0.9	beast_fmri_test	301	1600423,/	t	<div class = centerbox><div class = fixation>+</div></div>	none	500.0	test	n/a	n/a	n/a	n/a	n/a	n/a	n/a	n/a	n/a	n/a	n/a	n/a	n/a	n/a	n/a	n/a	n/a	n/a	fixation
45944.00019714376	350.0	n/a	382	89	2750	1293.99980286	stim	stop-signal	592	1603492	0.0-25.9-1.9	beast_fmri_test	301	1601103,/,1601784,/,1602464,/,1603143,/,1603823,/,1604503,/	t,t,t,t,t,t	<img class = center src='/static/experiments/beast_fmri_test/images/T.png'></img>	89,71	2750.0	test	<img class = center src='/static/experiments/beast_fmri_test/images/redT.png'></img>	stop	2400.0	1.0	9.0	stop	non-target	T	89,Yellow Button	71,Green Button	200.0	350.0	2500.0	2400.0	0.0	350.0	0.0	0.0	go_stim
48344.00019714376	2400.0	n/a	382	89	2750	1293.99980286	stim	stop-signal	592	1603492	0.0-25.9-1.9	beast_fmri_test	301	1601103,/,1601784,/,1602464,/,1603143,/,1603823,/,1604503,/	t,t,t,t,t,t	<img class = center src='/static/experiments/beast_fmri_test/images/T.png'></img>	89,71	2750.0	test	<img class = center src='/static/experiments/beast_fmri_test/images/redT.png'></img>	stop	2400.0	1.0	9.0	stop	non-target	T	89,Yellow Button	71,Green Button	200.0	350.0	2500.0	2400.0	0.0	350.0	0.0	0.0	stop_stim
48694.00019714376	1293.9998028561699	n/a	382	89	2750	1293.99980286	stim	stop-signal	592	1603492	0.0-25.9-1.9	beast_fmri_test	301	1601103,/,1601784,/,1602464,/,1603143,/,1603823,/,1604503,/	t,t,t,t,t,t	<img class = center src='/static/experiments/beast_fmri_test/images/T.png'></img>	89,71	2750.0	test	<img class = center src='/static/experiments/beast_fmri_test/images/redT.png'></img>	stop	2400.0	1.0	9.0	stop	non-target	T	89,Yellow Button	71,Green Button	200.0	350.0	2500.0	2400.0	0.0	350.0	0.0	0.0	ITI
51810	500	n/a	-1	-1	500	0.0	fixation	poldrack-single-stim	593	1605314	0.0-25.10-0.10	beast_fmri_test	301	1605184,/	t	<div class = centerbox><div class = fixation>+</div></div>	none	500.0	test	n/a	n/a	n/a	n/a	n/a	n/a	n/a	n/a	n/a	n/a	n/a	n/a	n/a	n/a	n/a	n/a	n/a	n/a	fixation
50438.302256025607	2750	n/a	735	89	2750	1372.69774397	stim	stop-signal	594	1608065	0.0-25.10-1.10	beast_fmri_test	301	1605863,/,1606543,/,1607223,/,1607904,/,1608583,/,1609263,/	t,t,t,t,t,t	<img class = center src='/static/experiments/beast_fmri_test/images/V.png'></img>	89,71	2750.0	test	<img class = center src='/static/experiments/beast_fmri_test/images/redV.png'></img>	go	2450.0	1.0	10.0	go	non-target	V	89,Yellow Button	71,Green Button	200.0	300.0	2500.0	2450.0	0.0	300.0	0.0	n/a	go_stim
53188.302256025607	1372.69774397434	n/a	735	89	2750	1372.69774397	stim	stop-signal	594	1608065	0.0-25.10-1.10	beast_fmri_test	301	1605863,/,1606543,/,1607223,/,1607904,/,1608583,/,1609263,/	t,t,t,t,t,t	<img class = center src='/static/experiments/beast_fmri_test/images/V.png'></img>	89,71	2750.0	test	<img class = center src='/static/experiments/beast_fmri_test/images/redV.png'></img>	go	2450.0	1.0	10.0	go	non-target	V	89,Yellow Button	71,Green Button	200.0	300.0	2500.0	2450.0	0.0	300.0	0.0	n/a	ITI
56460	500	n/a	-1	-1	500	0.0	fixation	poldrack-single-stim	595	1609964	0.0-25.11-0.11	beast_fmri_test	301	1609943,/	t	<div class = centerbox><div class = fixation>+</div></div>	none	500.0	test	n/a	n/a	n/a	n/a	n/a	n/a	n/a	n/a	n/a	n/a	n/a	n/a	n/a	n/a	n/a	n/a	n/a	n/a	fixation
55201.164407898206	300.0	n/a	939	89	2750	1260.8355921	stim	stop-signal	596	1612716	0.0-25.11-1.11	beast_fmri_test	301	1610623,/,1611303,/,1611984,/,1612663,/,1613343,/	t,t,t,t,t	<img class = center src='/static/experiments/beast_fmri_test/images/T.png'></img>	89,71	2750.0	test	<img class = center src='/static/experiments/beast_fmri_test/images/redT.png'></img>	stop	2450.0	1.0	11.0	stop	non-target	T	89,Yellow Button	71,Green Button	200.0	300.0	2500.0	2450.0	0.0	300.0	0.0	0.0	go_stim
57651.164407898206	2450.0	n/a	939	89	2750	1260.8355921	stim	stop-signal	596	1612716	0.0-25.11-1.11	beast_fmri_test	301	1610623,/,1611303,/,1611984,/,1612663,/,1613343,/	t,t,t,t,t	<img class = center src='/static/experiments/beast_fmri_test/images/T.png'></img>	89,71	2750.0	test	<img class = center src='/static/experiments/beast_fmri_test/images/redT.png'></img>	stop	2450.0	1.0	11.0	stop	non-target	T	89,Yellow Button	71,Green Button	200.0	300.0	2500.0	2450.0	0.0	300.0	0.0	0.0	stop_stim
57951.164407898206	1260.8355921018399	n/a	939	89	2750	1260.8355921	stim	stop-signal	596	1612716	0.0-25.11-1.11	beast_fmri_test	301	1610623,/,1611303,/,1611984,/,1612663,/,1613343,/	t,t,t,t,t	<img class = center src='/static/experiments/beast_fmri_test/images/T.png'></img>	89,71	2750.0	test	<img class = center src='/static/experiments/beast_fmri_test/images/redT.png'></img>	stop	2450.0	1.0	11.0	stop	non-target	T	89,Yellow Button	71,Green Button	200.0	300.0	2500.0	2450.0	0.0	300.0	0.0	0.0	ITI
61003	500	n/a	-1	-1	500	0.0	fixation	poldrack-single-stim	597	1614507	0.0-25.12-0.12	beast_fmri_test	301	1614023,/	t	<div class = centerbox><div class = fixation>+</div></div>	none	500.0	test	n/a	n/a	n/a	n/a	n/a	n/a	n/a	n/a	n/a	n/a	n/a	n/a	n/a	n/a	n/a	n/a	n/a	n/a	fixation
60882.169192143483	2750	n/a	907	71	2750	122.830807857	stim	stop-signal	598	1617259	0.0-25.12-1.12	beast_fmri_test	301	1614703,/,1615384,/,1616064,/,1616744,/	t,t,t,t	<img class = center src='/static/experiments/beast_fmri_test/images/T.png'></img>	89,71	2750.0	test	<img class = center src='/static/experiments/beast_fmri_test/images/redT.png'></img>	go	2550.0	1.0	12.0	go	target	T	89,Yellow Button	71,Green Button	200.0	250.0	2550.0	2450.0	0.0	200.0	0.0	n/a	go_stim
63632.169192143483	122.830807856501	n/a	907	71	2750	122.830807857	stim	stop-signal	598	1617259	0.0-25.12-1.12	beast_fmri_test	301	1614703,/,1615384,/,1616064,/,1616744,/	t,t,t,t	<img class = center src='/static/experiments/beast_fmri_test/images/T.png'></img>	89,71	2750.0	test	<img class = center src='/static/experiments/beast_fmri_test/images/redT.png'></img>	go	2550.0	1.0	12.0	go	target	T	89,Yellow Button	71,Green Button	200.0	250.0	2550.0	2450.0	0.0	200.0	0.0	n/a	ITI
64401	500	n/a	-1	-1	500	0.0	fixation	poldrack-single-stim	599	1617905	0.0-25.13-0.13	beast_fmri_test	301	1617424,/	t	<div class = centerbox><div class = fixation>+</div></div>	none	500.0	test	n/a	n/a	n/a	n/a	n/a	n/a	n/a	n/a	n/a	n/a	n/a	n/a	n/a	n/a	n/a	n/a	n/a	n/a	fixation
64103.492981054587	2750	n/a	1865	89	2750	298.507018945	stim	stop-signal	600	1620656	0.0-25.13-1.13	beast_fmri_test	301	1618104,/,1618784,/,1619464,/,1620144,/,1620824,/	t,t,t,t,t	<img class = center src='/static/experiments/beast_fmri_test/images/P.png'></img>	89,71	2750.0	test	<img class = center src='/static/experiments/beast_fmri_test/images/redP.png'></img>	go	2500.0	1.0	13.0	go	non-target	P	89,Yellow Button	71,Green Button	200.0	250.0	2550.0	2500.0	0.0	250.0	0.0	n/a	go_stim
66853.492981054587	298.50701894538201	n/a	1865	89	2750	298.507018945	stim	stop-signal	600	1620656	0.0-25.13-1.13	beast_fmri_test	301	1618104,/,1618784,/,1619464,/,1620144,/,1620824,/	t,t,t,t,t	<img class = center src='/static/experiments/beast_fmri_test/images/P.png'></img>	89,71	2750.0	test	<img class = center src='/static/experiments/beast_fmri_test/images/redP.png'></img>	go	2500.0	1.0	13.0	go	non-target	P	89,Yellow Button	71,Green Button	200.0	250.0	2550.0	2500.0	0.0	250.0	0.0	n/a	ITI
67971	500	n/a	-1	-1	500	0.0	fixation	poldrack-single-stim	601	1621475	0.0-25.14-0.14	beast_fmri_test	301	n/a	n/a	<div class = centerbox><div class = fixation>+</div></div>	none	500.0	test	n/a	n/a	n/a	n/a	n/a	n/a	n/a	n/a	n/a	n/a	n/a	n/a	n/a	n/a	n/a	n/a	n/a	n/a	fixation
67411.615185524803	2750	n/a	870	71	2750	560.384814475	stim	stop-signal	602	1624226	0.0-25.14-1.14	beast_fmri_test	301	1621504,/,1622184,/,1622863,/,1623544,/,1624223,/	t,t,t,t,t	<img class = center src='/static/experiments/beast_fmri_test/images/P.png'></img>	89,71	2750.0	test	<img class = center src='/static/experiments/beast_fmri_test/images/redP.png'></img>	go	2550.0	1.0	14.0	go	target	P	89,Yellow Button	71,Green Button	200.0	250.0	2550.0	2500.0	0.0	200.0	0.0	n/a	go_stim
70161.615185524803	560.38481447527499	n/a	870	71	2750	560.384814475	stim	stop-signal	602	1624226	0.0-25.14-1.14	beast_fmri_test	301	1621504,/,1622184,/,1622863,/,1623544,/,1624223,/	t,t,t,t,t	<img class = center src='/static/experiments/beast_fmri_test/images/P.png'></img>	89,71	2750.0	test	<img class = center src='/static/experiments/beast_fmri_test/images/redP.png'></img>	go	2550.0	1.0	14.0	go	target	P	89,Yellow Button	71,Green Button	200.0	250.0	2550.0	2500.0	0.0	200.0	0.0	n/a	ITI
71802	500	n/a	-1	-1	500	0.0	fixation	poldrack-single-stim	603	1625306	0.0-25.15-0.15	beast_fmri_test	301	1624904,/	t	<div class = centerbox><div class = fixation>+</div></div>	none	500.0	test	n/a	n/a	n/a	n/a	n/a	n/a	n/a	n/a	n/a	n/a	n/a	n/a	n/a	n/a	n/a	n/a	n/a	n/a	fixation
71099.811722343322	250.0	n/a	-1	-1	2750	703.188277657	stim	stop-signal	604	1628057	0.0-25.15-1.15	beast_fmri_test	301	1625584,/,1626264,/,1626944,/,1627624,/,1628303,/	t,t,t,t,t	<img class = center src='/static/experiments/beast_fmri_test/images/V.png'></img>	89,71	2750.0	test	<img class = center src='/static/experiments/beast_fmri_test/images/redV.png'></img>	stop	2500.0	1.0	15.0	stop	non-target	V	89,Yellow Button	71,Green Button	200.0	250.0	2550.0	2500.0	0.0	250.0	0.0	1.0	go_stim
73599.811722343322	2500.0	n/a	-1	-1	2750	703.188277657	stim	stop-signal	604	1628057	0.0-25.15-1.15	beast_fmri_test	301	1625584,/,1626264,/,1626944,/,1627624,/,1628303,/	t,t,t,t,t	<img class = center src='/static/experiments/beast_fmri_test/images/V.png'></img>	89,71	2750.0	test	<img class = center src='/static/experiments/beast_fmri_test/images/redV.png'></img>	stop	2500.0	1.0	15.0	stop	non-target	V	89,Yellow Button	71,Green Button	200.0	250.0	2550.0	2500.0	0.0	250.0	0.0	1.0	stop_stim
73849.811722343322	703.18827765672995	n/a	-1	-1	2750	703.188277657	stim	stop-signal	604	1628057	0.0-25.15-1.15	beast_fmri_test	301	1625584,/,1626264,/,1626944,/,1627624,/,1628303,/	t,t,t,t,t	<img class = center src='/static/experiments/beast_fmri_test/images/V.png'></img>	89,71	2750.0	test	<img class = center src='/static/experiments/beast_fmri_test/images/redV.png'></img>	stop	2500.0	1.0	15.0	stop	non-target	V	89,Yellow Button	71,Green Button	200.0	250.0	2550.0	2500.0	0.0	250.0	0.0	1.0	ITI
75778	500	n/a	-1	-1	500	0.0	fixation	poldrack-single-stim	605	1629282	0.0-25.16-0.16	beast_fmri_test	301	1628983,/	t	<div class = centerbox><div class = fixation>+</div></div>	none	500.0	test	n/a	n/a	n/a	n/a	n/a	n/a	n/a	n/a	n/a	n/a	n/a	n/a	n/a	n/a	n/a	n/a	n/a	n/a	fixation
74164.060746125178	300.0	n/a	-1	-1	2750	1614.93925387	stim	stop-signal	606	1632033	0.0-25.16-1.16	beast_fmri_test	301	1629664,/,1630343,/,1631023,/,1631704,/,1632384,/,1633063,/	t,t,t,t,t,t	<img class = center src='/static/experiments/beast_fmri_test/images/T.png'></img>	89,71	2750.0	test	<img class = center src='/static/experiments/beast_fmri_test/images/redT.png'></img>	stop	2450.0	1.0	16.0	stop	non-target	T	89,Yellow Button	71,Green Button	200.0	300.0	2550.0	2450.0	0.0	300.0	0.0	1.0	go_stim
76614.060746125178	2450.0	n/a	-1	-1	2750	1614.93925387	stim	stop-signal	606	1632033	0.0-25.16-1.16	beast_fmri_test	301	1629664,/,1630343,/,1631023,/,1631704,/,1632384,/,1633063,/	t,t,t,t,t,t	<img class = center src='/static/experiments/beast_fmri_test/images/T.png'></img>	89,71	2750.0	test	<img class = center src='/static/experiments/beast_fmri_test/images/redT.png'></img>	stop	2450.0	1.0	16.0	stop	non-target	T	89,Yellow Button	71,Green Button	200.0	300.0	2550.0	2450.0	0.0	300.0	0.0	1.0	stop_stim
76914.060746125178	1614.93925387489	n/a	-1	-1	2750	1614.93925387	stim	stop-signal	606	1632033	0.0-25.16-1.16	beast_fmri_test	301	1629664,/,1630343,/,1631023,/,1631704,/,1632384,/,1633063,/	t,t,t,t,t,t	<img class = center src='/static/experiments/beast_fmri_test/images/T.png'></img>	89,71	2750.0	test	<img class = center src='/static/experiments/beast_fmri_test/images/redT.png'></img>	stop	2450.0	1.0	16.0	stop	non-target	T	89,Yellow Button	71,Green Button	200.0	300.0	2550.0	2450.0	0.0	300.0	0.0	1.0	ITI
80665	500	n/a	-1	-1	500	0.0	fixation	poldrack-single-stim	607	1634169	0.0-25.17-0.17	beast_fmri_test	301	1633743,/	t	<div class = centerbox><div class = fixation>+</div></div>	none	500.0	test	n/a	n/a	n/a	n/a	n/a	n/a	n/a	n/a	n/a	n/a	n/a	n/a	n/a	n/a	n/a	n/a	n/a	n/a	fixation
80411.266889477614	2750	n/a	1234	89	2750	255.733110522	stim	stop-signal	608	1636921	0.0-25.17-1.17	beast_fmri_test	301	1634423,/,1635103,/,1635783,/,1636463,/,1637143,/	t,t,t,t,t	<img class = center src='/static/experiments/beast_fmri_test/images/B.png'></img>	89,71	2750.0	test	<img class = center src='/static/experiments/beast_fmri_test/images/redB.png'></img>	go	2400.0	1.0	17.0	go	non-target	B	89,Yellow Button	71,Green Button	200.0	350.0	2550.0	2400.0	0.0	350.0	0.0	n/a	go_stim
83161.266889477614	255.733110522483	n/a	1234	89	2750	255.733110522	stim	stop-signal	608	1636921	0.0-25.17-1.17	beast_fmri_test	301	1634423,/,1635103,/,1635783,/,1636463,/,1637143,/	t,t,t,t,t	<img class = center src='/static/experiments/beast_fmri_test/images/B.png'></img>	89,71	2750.0	test	<img class = center src='/static/experiments/beast_fmri_test/images/redB.png'></img>	go	2400.0	1.0	17.0	go	non-target	B	89,Yellow Button	71,Green Button	200.0	350.0	2550.0	2400.0	0.0	350.0	0.0	n/a	ITI
84194	500	n/a	-1	-1	500	0.0	fixation	poldrack-single-stim	609	1637698	0.0-25.18-0.18	beast_fmri_test	301	n/a	n/a	<div class = centerbox><div class = fixation>+</div></div>	none	500.0	test	n/a	n/a	n/a	n/a	n/a	n/a	n/a	n/a	n/a	n/a	n/a	n/a	n/a	n/a	n/a	n/a	n/a	n/a	fixation
83871.884587882319	2750	n/a	1669	71	2750	322.115412118	stim	stop-signal	610	1640448	0.0-25.18-1.18	beast_fmri_test	301	1637824,/,1638503,/,1639183,/,1639863,/,1640543,/	t,t,t,t,t	<img class = center src='/static/experiments/beast_fmri_test/images/D.png'></img>	89,71	2750.0	test	<img class = center src='/static/experiments/beast_fmri_test/images/redD.png'></img>	go	2400.0	1.0	18.0	go	non-target	D	89,Yellow Button	71,Green Button	200.0	350.0	2550.0	2400.0	1.0	350.0	1.0	n/a	go_stim
86621.884587882319	322.11541211763398	n/a	1669	71	2750	322.115412118	stim	stop-signal	610	1640448	0.0-25.18-1.18	beast_fmri_test	301	1637824,/,1638503,/,1639183,/,1639863,/,1640543,/	t,t,t,t,t	<img class = center src='/static/experiments/beast_fmri_test/images/D.png'></img>	89,71	2750.0	test	<img class = center src='/static/experiments/beast_fmri_test/images/redD.png'></img>	go	2400.0	1.0	18.0	go	non-target	D	89,Yellow Button	71,Green Button	200.0	350.0	2550.0	2400.0	1.0	350.0	1.0	n/a	ITI
87789	500	n/a	-1	-1	500	0.0	fixation	poldrack-single-stim	611	1641293	0.0-25.19-0.19	beast_fmri_test	301	1641223,/	t	<div class = centerbox><div class = fixation>+</div></div>	none	500.0	test	n/a	n/a	n/a	n/a	n/a	n/a	n/a	n/a	n/a	n/a	n/a	n/a	n/a	n/a	n/a	n/a	n/a	n/a	fixation
87419.138925499516	2750	n/a	1641	89	2750	371.861074501	stim	stop-signal	612	1644045	0.0-25.19-1.19	beast_fmri_test	301	1641903,/,1642584,/,1643263,/,1643943,/	t,t,t,t	<img class = center src='/static/experiments/beast_fmri_test/images/V.png'></img>	89,71	2750.0	test	<img class = center src='/static/experiments/beast_fmri_test/images/redV.png'></img>	go	2400.0	1.0	19.0	go	non-target	V	89,Yellow Button	71,Green Button	200.0	350.0	2550.0	2400.0	0.0	350.0	0.0	n/a	go_stim
90169.138925499516	371.861074500575	n/a	1641	89	2750	371.861074501	stim	stop-signal	612	1644045	0.0-25.19-1.19	beast_fmri_test	301	1641903,/,1642584,/,1643263,/,1643943,/	t,t,t,t	<img class = center src='/static/experiments/beast_fmri_test/images/V.png'></img>	89,71	2750.0	test	<img class = center src='/static/experiments/beast_fmri_test/images/redV.png'></img>	go	2400.0	1.0	19.0	go	non-target	V	89,Yellow Button	71,Green Button	200.0	350.0	2550.0	2400.0	0.0	350.0	0.0	n/a	ITI
91433	500	n/a	-1	-1	500	0.0	fixation	poldrack-single-stim	613	1644937	0.0-25.20-0.20	beast_fmri_test	301	1644623,/	t	<div class = centerbox><div class = fixation>+</div></div>	none	500.0	test	n/a	n/a	n/a	n/a	n/a	n/a	n/a	n/a	n/a	n/a	n/a	n/a	n/a	n/a	n/a	n/a	n/a	n/a	fixation
91107.197632800555	2750	n/a	1806	71	2750	327.802367199	stim	stop-signal	614	1647689	0.0-25.20-1.20	beast_fmri_test	301	1645303,/,1645983,/,1646663,/,1647343,/	t,t,t,t	<img class = center src='/static/experiments/beast_fmri_test/images/V.png'></img>	89,71	2750.0	test	<img class = center src='/static/experiments/beast_fmri_test/images/redV.png'></img>	go	2550.0	1.0	20.0	go	target	V	89,Yellow Button	71,Green Button	200.0	350.0	2550.0	2400.0	0.0	200.0	0.0	n/a	go_stim
93857.197632800555	327.80236719945498	n/a	1806	71	2750	327.802367199	stim	stop-signal	614	1647689	0.0-25.20-1.20	beast_fmri_test	301	1645303,/,1645983,/,1646663,/,1647343,/	t,t,t,t	<img class = center src='/static/experiments/beast_fmri_test/images/V.png'></img>	89,71	2750.0	test	<img class = center src='/static/experiments/beast_fmri_test/images/redV.png'></img>	go	2550.0	1.0	20.0	go	target	V	89,Yellow Button	71,Green Button	200.0	350.0	2550.0	2400.0	0.0	200.0	0.0	n/a	ITI
95032	500	n/a	-1	-1	500	0.0	fixation	poldrack-single-stim	615	1648536	0.0-25.21-0.21	beast_fmri_test	301	1648035,/	t	<div class = centerbox><div class = fixation>+</div></div>	none	500.0	test	n/a	n/a	n/a	n/a	n/a	n/a	n/a	n/a	n/a	n/a	n/a	n/a	n/a	n/a	n/a	n/a	n/a	n/a	fixation
94053.833051017951	200.0	n/a	-1	-1	2750	980.166948982	stim	stop-signal	616	1651288	0.0-25.21-1.21	beast_fmri_test	301	1648703,/,1649384,/,1650064,/,1650744,/,1651424,/,1652104,/	t,t,t,t,t,t	<img class = center src='/static/experiments/beast_fmri_test/images/V.png'></img>	89,71	2750.0	test	<img class = center src='/static/experiments/beast_fmri_test/images/redV.png'></img>	stop	2550.0	1.0	21.0	stop	target	V	89,Yellow Button	71,Green Button	200.0	350.0	2550.0	2400.0	0.0	200.0	0.0	1.0	go_stim
96603.833051017951	2550.0	n/a	-1	-1	2750	980.166948982	stim	stop-signal	616	1651288	0.0-25.21-1.21	beast_fmri_test	301	1648703,/,1649384,/,1650064,/,1650744,/,1651424,/,1652104,/	t,t,t,t,t,t	<img class = center src='/static/experiments/beast_fmri_test/images/V.png'></img>	89,71	2750.0	test	<img class = center src='/static/experiments/beast_fmri_test/images/redV.png'></img>	stop	2550.0	1.0	21.0	stop	target	V	89,Yellow Button	71,Green Button	200.0	350.0	2550.0	2400.0	0.0	200.0	0.0	1.0	stop_stim
96803.833051017951	980.16694898205196	n/a	-1	-1	2750	980.166948982	stim	stop-signal	616	1651288	0.0-25.21-1.21	beast_fmri_test	301	1648703,/,1649384,/,1650064,/,1650744,/,1651424,/,1652104,/	t,t,t,t,t,t	<img class = center src='/static/experiments/beast_fmri_test/images/V.png'></img>	89,71	2750.0	test	<img class = center src='/static/experiments/beast_fmri_test/images/redV.png'></img>	stop	2550.0	1.0	21.0	stop	target	V	89,Yellow Button	71,Green Button	200.0	350.0	2550.0	2400.0	0.0	200.0	0.0	1.0	ITI
99286	500	n/a	-1	-1	500	0.0	fixation	poldrack-single-stim	617	1652790	0.0-25.22-0.22	beast_fmri_test	301	1652785,/	t	<div class = centerbox><div class = fixation>+</div></div>	none	500.0	test	n/a	n/a	n/a	n/a	n/a	n/a	n/a	n/a	n/a	n/a	n/a	n/a	n/a	n/a	n/a	n/a	n/a	n/a	fixation
96513.943121797405	2750	n/a	1471	89	2750	2774.0568782	stim	stop-signal	618	1655542	0.0-25.22-1.22	beast_fmri_test	301	1653464,/,1654144,/,1654824,/,1655504,/,1656184,/,1656864,/,1657544,/,1658224,/	t,t,t,t,t,t,t,t	<img class = center src='/static/experiments/beast_fmri_test/images/T.png'></img>	89,71	2750.0	test	<img class = center src='/static/experiments/beast_fmri_test/images/redT.png'></img>	go	2400.0	1.0	22.0	go	non-target	T	89,Yellow Button	71,Green Button	250.0	350.0	2550.0	2400.0	0.0	350.0	0.0	n/a	go_stim
99263.943121797405	2774.0568782025098	n/a	1471	89	2750	2774.0568782	stim	stop-signal	618	1655542	0.0-25.22-1.22	beast_fmri_test	301	1653464,/,1654144,/,1654824,/,1655504,/,1656184,/,1656864,/,1657544,/,1658224,/	t,t,t,t,t,t,t,t	<img class = center src='/static/experiments/beast_fmri_test/images/T.png'></img>	89,71	2750.0	test	<img class = center src='/static/experiments/beast_fmri_test/images/redT.png'></img>	go	2400.0	1.0	22.0	go	non-target	T	89,Yellow Button	71,Green Button	250.0	350.0	2550.0	2400.0	0.0	350.0	0.0	n/a	ITI
105334	500	n/a	-1	-1	500	0.0	fixation	poldrack-single-stim	619	1658838	0.0-25.23-0.23	beast_fmri_test	301	n/a	n/a	<div class = centerbox><div class = fixation>+</div></div>	none	500.0	test	n/a	n/a	n/a	n/a	n/a	n/a	n/a	n/a	n/a	n/a	n/a	n/a	n/a	n/a	n/a	n/a	n/a	n/a	fixation
103878.44911278063	2750	n/a	579	89	2750	1456.55088722	stim	stop-signal	620	1661589	0.0-25.23-1.23	beast_fmri_test	301	1658904,/,1659584,/,1660264,/,1660944,/,1661624,/,1662304,/,1662984,/	t,t,t,t,t,t,t	<img class = center src='/static/experiments/beast_fmri_test/images/P.png'></img>	89,71	2750.0	test	<img class = center src='/static/experiments/beast_fmri_test/images/redP.png'></img>	go	2400.0	1.0	23.0	go	non-target	P	89,Yellow Button	71,Green Button	250.0	350.0	2550.0	2400.0	0.0	350.0	0.0	n/a	go_stim
106628.44911278063	1456.55088721928	n/a	579	89	2750	1456.55088722	stim	stop-signal	620	1661589	0.0-25.23-1.23	beast_fmri_test	301	1658904,/,1659584,/,1660264,/,1660944,/,1661624,/,1662304,/,1662984,/	t,t,t,t,t,t,t	<img class = center src='/static/experiments/beast_fmri_test/images/P.png'></img>	89,71	2750.0	test	<img class = center src='/static/experiments/beast_fmri_test/images/redP.png'></img>	go	2400.0	1.0	23.0	go	non-target	P	89,Yellow Button	71,Green Button	250.0	350.0	2550.0	2400.0	0.0	350.0	0.0	n/a	ITI
110061	500	n/a	-1	-1	500	0.0	fixation	poldrack-single-stim	621	1663565	0.0-25.24-0.24	beast_fmri_test	301	n/a	n/a	<div class = centerbox><div class = fixation>+</div></div>	none	500.0	test	n/a	n/a	n/a	n/a	n/a	n/a	n/a	n/a	n/a	n/a	n/a	n/a	n/a	n/a	n/a	n/a	n/a	n/a	fixation
108908.00850255159	350.0	n/a	745	89	2750	1153.99149745	stim	stop-signal	622	1666316	0.0-25.24-1.24	beast_fmri_test	301	1663664,/,1664344,/,1665024,/,1665704,/,1666384,/,1667064,/	t,t,t,t,t,t	<img class = center src='/static/experiments/beast_fmri_test/images/V.png'></img>	89,71	2750.0	test	<img class = center src='/static/experiments/beast_fmri_test/images/redV.png'></img>	stop	2400.0	1.0	24.0	stop	non-target	V	89,Yellow Button	71,Green Button	250.0	350.0	2550.0	2400.0	0.0	350.0	0.0	0.0	go_stim
111308.00850255159	2400.0	n/a	745	89	2750	1153.99149745	stim	stop-signal	622	1666316	0.0-25.24-1.24	beast_fmri_test	301	1663664,/,1664344,/,1665024,/,1665704,/,1666384,/,1667064,/	t,t,t,t,t,t	<img class = center src='/static/experiments/beast_fmri_test/images/V.png'></img>	89,71	2750.0	test	<img class = center src='/static/experiments/beast_fmri_test/images/redV.png'></img>	stop	2400.0	1.0	24.0	stop	non-target	V	89,Yellow Button	71,Green Button	250.0	350.0	2550.0	2400.0	0.0	350.0	0.0	0.0	stop_stim
111658.00850255159	1153.99149744842	n/a	745	89	2750	1153.99149745	stim	stop-signal	622	1666316	0.0-25.24-1.24	beast_fmri_test	301	1663664,/,1664344,/,1665024,/,1665704,/,1666384,/,1667064,/	t,t,t,t,t,t	<img class = center src='/static/experiments/beast_fmri_test/images/V.png'></img>	89,71	2750.0	test	<img class = center src='/static/experiments/beast_fmri_test/images/redV.png'></img>	stop	2400.0	1.0	24.0	stop	non-target	V	89,Yellow Button	71,Green Button	250.0	350.0	2550.0	2400.0	0.0	350.0	0.0	0.0	ITI
114487	500	n/a	-1	-1	500	0.0	fixation	poldrack-single-stim	623	1667991	0.0-25.25-0.25	beast_fmri_test	301	1667744,/	t	<div class = centerbox><div class = fixation>+</div></div>	none	500.0	test	n/a	n/a	n/a	n/a	n/a	n/a	n/a	n/a	n/a	n/a	n/a	n/a	n/a	n/a	n/a	n/a	n/a	n/a	fixation
114191.2423478947	2750	n/a	846	89	2750	296.757652105	stim	stop-signal	624	1670742	0.0-25.25-1.25	beast_fmri_test	301	1668424,/,1669104,/,1669784,/,1670464,/	t,t,t,t	<img class = center src='/static/experiments/beast_fmri_test/images/P.png'></img>	89,71	2750.0	test	<img class = center src='/static/experiments/beast_fmri_test/images/redP.png'></img>	go	2450.0	1.0	25.0	go	non-target	P	89,Yellow Button	71,Green Button	250.0	300.0	2550.0	2450.0	0.0	300.0	0.0	n/a	go_stim
116941.2423478947	296.75765210531699	n/a	846	89	2750	296.757652105	stim	stop-signal	624	1670742	0.0-25.25-1.25	beast_fmri_test	301	1668424,/,1669104,/,1669784,/,1670464,/	t,t,t,t	<img class = center src='/static/experiments/beast_fmri_test/images/P.png'></img>	89,71	2750.0	test	<img class = center src='/static/experiments/beast_fmri_test/images/redP.png'></img>	go	2450.0	1.0	25.0	go	non-target	P	89,Yellow Button	71,Green Button	250.0	300.0	2550.0	2450.0	0.0	300.0	0.0	n/a	ITI
118055	500	n/a	-1	-1	500	0.0	fixation	poldrack-single-stim	625	1671559	0.0-25.26-0.26	beast_fmri_test	301	1671144,/	t	<div class = centerbox><div class = fixation>+</div></div>	none	500.0	test	n/a	n/a	n/a	n/a	n/a	n/a	n/a	n/a	n/a	n/a	n/a	n/a	n/a	n/a	n/a	n/a	n/a	n/a	fixation
117853.53463799576	2750	n/a	984	89	2750	203.465362004	stim	stop-signal	626	1674311	0.0-25.26-1.26	beast_fmri_test	301	1671824,/,1672504,/,1673184,/,1673864,/	t,t,t,t	<img class = center src='/static/experiments/beast_fmri_test/images/B.png'></img>	89,71	2750.0	test	<img class = center src='/static/experiments/beast_fmri_test/images/redB.png'></img>	go	2450.0	1.0	26.0	go	non-target	B	89,Yellow Button	71,Green Button	250.0	300.0	2550.0	2450.0	0.0	300.0	0.0	n/a	go_stim
120603.53463799576	203.46536200428	n/a	984	89	2750	203.465362004	stim	stop-signal	626	1674311	0.0-25.26-1.26	beast_fmri_test	301	1671824,/,1672504,/,1673184,/,1673864,/	t,t,t,t	<img class = center src='/static/experiments/beast_fmri_test/images/B.png'></img>	89,71	2750.0	test	<img class = center src='/static/experiments/beast_fmri_test/images/redB.png'></img>	go	2450.0	1.0	26.0	go	non-target	B	89,Yellow Button	71,Green Button	250.0	300.0	2550.0	2450.0	0.0	300.0	0.0	n/a	ITI
121532	500	n/a	-1	-1	500	0.0	fixation	poldrack-single-stim	627	1675036	0.0-25.27-0.27	beast_fmri_test	301	1674545,/	t	<div class = centerbox><div class = fixation>+</div></div>	none	500.0	test	n/a	n/a	n/a	n/a	n/a	n/a	n/a	n/a	n/a	n/a	n/a	n/a	n/a	n/a	n/a	n/a	n/a	n/a	fixation
120814.06120795012	2750	n/a	825	89	2750	718.93879205	stim	stop-signal	628	1677787	0.0-25.27-1.27	beast_fmri_test	301	1675224,/,1675904,/,1676584,/,1677264,/,1677944,/	t,t,t,t,t	<img class = center src='/static/experiments/beast_fmri_test/images/T.png'></img>	89,71	2750.0	test	<img class = center src='/static/experiments/beast_fmri_test/images/redT.png'></img>	go	2450.0	1.0	27.0	go	non-target	T	89,Yellow Button	71,Green Button	250.0	300.0	2550.0	2450.0	0.0	300.0	0.0	n/a	go_stim
123564.06120795012	718.93879204995596	n/a	825	89	2750	718.93879205	stim	stop-signal	628	1677787	0.0-25.27-1.27	beast_fmri_test	301	1675224,/,1675904,/,1676584,/,1677264,/,1677944,/	t,t,t,t,t	<img class = center src='/static/experiments/beast_fmri_test/images/T.png'></img>	89,71	2750.0	test	<img class = center src='/static/experiments/beast_fmri_test/images/redT.png'></img>	go	2450.0	1.0	27.0	go	non-target	T	89,Yellow Button	71,Green Button	250.0	300.0	2550.0	2450.0	0.0	300.0	0.0	n/a	ITI
125521	500	n/a	-1	-1	500	0.0	fixation	poldrack-single-stim	629	1679025	0.0-25.28-0.28	beast_fmri_test	301	1678624,/	t	<div class = centerbox><div class = fixation>+</div></div>	none	500.0	test	n/a	n/a	n/a	n/a	n/a	n/a	n/a	n/a	n/a	n/a	n/a	n/a	n/a	n/a	n/a	n/a	n/a	n/a	fixation
125447.41276248428	2750	n/a	1812	89	2750	74.5872375158	stim	stop-signal	630	1681776	0.0-25.28-1.28	beast_fmri_test	301	1679304,/,1679984,/,1680664,/,1681344,/	t,t,t,t	<img class = center src='/static/experiments/beast_fmri_test/images/D.png'></img>	89,71	2750.0	test	<img class = center src='/static/experiments/beast_fmri_test/images/redD.png'></img>	go	2450.0	1.0	28.0	go	non-target	D	89,Yellow Button	71,Green Button	250.0	300.0	2550.0	2450.0	0.0	300.0	0.0	n/a	go_stim
128197.41276248428	74.587237515824597	n/a	1812	89	2750	74.5872375158	stim	stop-signal	630	1681776	0.0-25.28-1.28	beast_fmri_test	301	1679304,/,1679984,/,1680664,/,1681344,/	t,t,t,t	<img class = center src='/static/experiments/beast_fmri_test/images/D.png'></img>	89,71	2750.0	test	<img class = center src='/static/experiments/beast_fmri_test/images/redD.png'></img>	go	2450.0	1.0	28.0	go	non-target	D	89,Yellow Button	71,Green Button	250.0	300.0	2550.0	2450.0	0.0	300.0	0.0	n/a	ITI
128868	500	n/a	-1	-1	500	0.0	fixation	poldrack-single-stim	631	1682372	0.0-25.29-0.29	beast_fmri_test	301	1682024,/	t	<div class = centerbox><div class = fixation>+</div></div>	none	500.0	test	n/a	n/a	n/a	n/a	n/a	n/a	n/a	n/a	n/a	n/a	n/a	n/a	n/a	n/a	n/a	n/a	n/a	n/a	fixation
127281.40117356344	2750	n/a	773	71	2750	1588.59882644	stim	stop-signal	632	1685124	0.0-25.29-1.29	beast_fmri_test	301	1682705,/,1683385,/,1684064,/,1684745,/,1685425,/,1686105,/	t,t,t,t,t,t	<img class = center src='/static/experiments/beast_fmri_test/images/D.png'></img>	89,71	2750.0	test	<img class = center src='/static/experiments/beast_fmri_test/images/redD.png'></img>	go	2500.0	1.0	29.0	go	target	D	89,Yellow Button	71,Green Button	250.0	300.0	2500.0	2450.0	0.0	250.0	0.0	n/a	go_stim
130031.40117356344	1588.5988264364501	n/a	773	71	2750	1588.59882644	stim	stop-signal	632	1685124	0.0-25.29-1.29	beast_fmri_test	301	1682705,/,1683385,/,1684064,/,1684745,/,1685425,/,1686105,/	t,t,t,t,t,t	<img class = center src='/static/experiments/beast_fmri_test/images/D.png'></img>	89,71	2750.0	test	<img class = center src='/static/experiments/beast_fmri_test/images/redD.png'></img>	go	2500.0	1.0	29.0	go	target	D	89,Yellow Button	71,Green Button	250.0	300.0	2500.0	2450.0	0.0	250.0	0.0	n/a	ITI
133729	500	n/a	-1	-1	500	0.0	fixation	poldrack-single-stim	633	1687233	0.0-25.30-0.30	beast_fmri_test	301	1686785,/	t	<div class = centerbox><div class = fixation>+</div></div>	none	500.0	test	n/a	n/a	n/a	n/a	n/a	n/a	n/a	n/a	n/a	n/a	n/a	n/a	n/a	n/a	n/a	n/a	n/a	n/a	fixation
132808.04472537409	2750	n/a	915	71	2750	921.955274626	stim	stop-signal	634	1689984	0.0-25.30-1.30	beast_fmri_test	301	1687465,/,1688145,/,1688824,/,1689504,/,1690184,/,1690865,/	t,t,t,t,t,t	<img class = center src='/static/experiments/beast_fmri_test/images/T.png'></img>	89,71	2750.0	test	<img class = center src='/static/experiments/beast_fmri_test/images/redT.png'></img>	go	2450.0	1.0	30.0	go	non-target	T	89,Yellow Button	71,Green Button	250.0	300.0	2500.0	2450.0	1.0	300.0	1.0	n/a	go_stim
135558.04472537409	921.95527462599796	n/a	915	71	2750	921.955274626	stim	stop-signal	634	1689984	0.0-25.30-1.30	beast_fmri_test	301	1687465,/,1688145,/,1688824,/,1689504,/,1690184,/,1690865,/	t,t,t,t,t,t	<img class = center src='/static/experiments/beast_fmri_test/images/T.png'></img>	89,71	2750.0	test	<img class = center src='/static/experiments/beast_fmri_test/images/redT.png'></img>	go	2450.0	1.0	30.0	go	non-target	T	89,Yellow Button	71,Green Button	250.0	300.0	2500.0	2450.0	1.0	300.0	1.0	n/a	ITI
137923	500	n/a	-1	-1	500	0.0	fixation	poldrack-single-stim	635	1691427	0.0-25.31-0.31	beast_fmri_test	301	n/a	n/a	<div class = centerbox><div class = fixation>+</div></div>	none	500.0	test	n/a	n/a	n/a	n/a	n/a	n/a	n/a	n/a	n/a	n/a	n/a	n/a	n/a	n/a	n/a	n/a	n/a	n/a	fixation
137749.30430166447	300.0	n/a	680	89	2750	175.695698336	stim	stop-signal	636	1694179	0.0-25.31-1.31	beast_fmri_test	301	1691545,/,1692224,/,1692904,/,1693585,/,1694264,/	t,t,t,t,t	<img class = center src='/static/experiments/beast_fmri_test/images/V.png'></img>	89,71	2750.0	test	<img class = center src='/static/experiments/beast_fmri_test/images/redV.png'></img>	stop	2450.0	1.0	31.0	stop	non-target	V	89,Yellow Button	71,Green Button	250.0	300.0	2500.0	2450.0	0.0	300.0	0.0	0.0	go_stim
140199.30430166447	2450.0	n/a	680	89	2750	175.695698336	stim	stop-signal	636	1694179	0.0-25.31-1.31	beast_fmri_test	301	1691545,/,1692224,/,1692904,/,1693585,/,1694264,/	t,t,t,t,t	<img class = center src='/static/experiments/beast_fmri_test/images/V.png'></img>	89,71	2750.0	test	<img class = center src='/static/experiments/beast_fmri_test/images/redV.png'></img>	stop	2450.0	1.0	31.0	stop	non-target	V	89,Yellow Button	71,Green Button	250.0	300.0	2500.0	2450.0	0.0	300.0	0.0	0.0	stop_stim
140499.30430166447	175.69569833550199	n/a	680	89	2750	175.695698336	stim	stop-signal	636	1694179	0.0-25.31-1.31	beast_fmri_test	301	1691545,/,1692224,/,1692904,/,1693585,/,1694264,/	t,t,t,t,t	<img class = center src='/static/experiments/beast_fmri_test/images/V.png'></img>	89,71	2750.0	test	<img class = center src='/static/experiments/beast_fmri_test/images/redV.png'></img>	stop	2450.0	1.0	31.0	stop	non-target	V	89,Yellow Button	71,Green Button	250.0	300.0	2500.0	2450.0	0.0	300.0	0.0	0.0	ITI
141374	500	n/a	-1	-1	500	0.0	fixation	poldrack-single-stim	637	1694878	0.0-25.32-0.32	beast_fmri_test	301	n/a	n/a	<div class = centerbox><div class = fixation>+</div></div>	none	500.0	test	n/a	n/a	n/a	n/a	n/a	n/a	n/a	n/a	n/a	n/a	n/a	n/a	n/a	n/a	n/a	n/a	n/a	n/a	fixation
138091.04456399148	250.0	n/a	467	71	2750	3283.95543601	stim	stop-signal	638	1697629	0.0-25.32-1.32	beast_fmri_test	301	1694944,/,1695624,/,1696304,/,1696984,/,1697664,/,1698344,/,1699024,/,1699704,/,1700384,/	t,t,t,t,t,t,t,t,t	<img class = center src='/static/experiments/beast_fmri_test/images/V.png'></img>	89,71	2750.0	test	<img class = center src='/static/experiments/beast_fmri_test/images/redV.png'></img>	stop	2500.0	1.0	32.0	stop	target	V	89,Yellow Button	71,Green Button	250.0	250.0	2500.0	2450.0	0.0	250.0	0.0	0.0	go_stim
140591.04456399148	2500.0	n/a	467	71	2750	3283.95543601	stim	stop-signal	638	1697629	0.0-25.32-1.32	beast_fmri_test	301	1694944,/,1695624,/,1696304,/,1696984,/,1697664,/,1698344,/,1699024,/,1699704,/,1700384,/	t,t,t,t,t,t,t,t,t	<img class = center src='/static/experiments/beast_fmri_test/images/V.png'></img>	89,71	2750.0	test	<img class = center src='/static/experiments/beast_fmri_test/images/redV.png'></img>	stop	2500.0	1.0	32.0	stop	target	V	89,Yellow Button	71,Green Button	250.0	250.0	2500.0	2450.0	0.0	250.0	0.0	0.0	stop_stim
140841.04456399148	3283.9554360084699	n/a	467	71	2750	3283.95543601	stim	stop-signal	638	1697629	0.0-25.32-1.32	beast_fmri_test	301	1694944,/,1695624,/,1696304,/,1696984,/,1697664,/,1698344,/,1699024,/,1699704,/,1700384,/	t,t,t,t,t,t,t,t,t	<img class = center src='/static/experiments/beast_fmri_test/images/V.png'></img>	89,71	2750.0	test	<img class = center src='/static/experiments/beast_fmri_test/images/redV.png'></img>	stop	2500.0	1.0	32.0	stop	target	V	89,Yellow Button	71,Green Button	250.0	250.0	2500.0	2450.0	0.0	250.0	0.0	0.0	ITI
147929	500	n/a	-1	-1	500	0.0	fixation	poldrack-single-stim	639	1701433	0.0-25.33-0.33	beast_fmri_test	301	1701064,/	t	<div class = centerbox><div class = fixation>+</div></div>	none	500.0	test	n/a	n/a	n/a	n/a	n/a	n/a	n/a	n/a	n/a	n/a	n/a	n/a	n/a	n/a	n/a	n/a	n/a	n/a	fixation
146499.57366012875	2750	n/a	870	89	2750	1430.42633987	stim	stop-signal	640	1704184	0.0-25.33-1.33	beast_fmri_test	301	1701744,/,1702424,/,1703104,/,1703785,/,1704464,/,1705144,/	t,t,t,t,t,t	<img class = center src='/static/experiments/beast_fmri_test/images/D.png'></img>	89,71	2750.0	test	<img class = center src='/static/experiments/beast_fmri_test/images/redD.png'></img>	go	2500.0	1.0	33.0	go	non-target	D	89,Yellow Button	71,Green Button	200.0	250.0	2500.0	2500.0	0.0	250.0	0.0	n/a	go_stim
149249.57366012875	1430.4263398712701	n/a	870	89	2750	1430.42633987	stim	stop-signal	640	1704184	0.0-25.33-1.33	beast_fmri_test	301	1701744,/,1702424,/,1703104,/,1703785,/,1704464,/,1705144,/	t,t,t,t,t,t	<img class = center src='/static/experiments/beast_fmri_test/images/D.png'></img>	89,71	2750.0	test	<img class = center src='/static/experiments/beast_fmri_test/images/redD.png'></img>	go	2500.0	1.0	33.0	go	non-target	D	89,Yellow Button	71,Green Button	200.0	250.0	2500.0	2500.0	0.0	250.0	0.0	n/a	ITI
152633	500	n/a	-1	-1	500	0.0	fixation	poldrack-single-stim	641	1706137	0.0-25.34-0.34	beast_fmri_test	301	1705824,/	t	<div class = centerbox><div class = fixation>+</div></div>	none	500.0	test	n/a	n/a	n/a	n/a	n/a	n/a	n/a	n/a	n/a	n/a	n/a	n/a	n/a	n/a	n/a	n/a	n/a	n/a	fixation
151321.69231329416	2750	n/a	1264	89	2750	1313.30768671	stim	stop-signal	642	1708889	0.0-25.34-1.34	beast_fmri_test	301	1706504,/,1707184,/,1707864,/,1708544,/,1709224,/,1709904,/	t,t,t,t,t,t	<img class = center src='/static/experiments/beast_fmri_test/images/P.png'></img>	89,71	2750.0	test	<img class = center src='/static/experiments/beast_fmri_test/images/redP.png'></img>	go	2500.0	1.0	34.0	go	non-target	P	89,Yellow Button	71,Green Button	200.0	250.0	2500.0	2500.0	0.0	250.0	0.0	n/a	go_stim
154071.69231329416	1313.3076867058401	n/a	1264	89	2750	1313.30768671	stim	stop-signal	642	1708889	0.0-25.34-1.34	beast_fmri_test	301	1706504,/,1707184,/,1707864,/,1708544,/,1709224,/,1709904,/	t,t,t,t,t,t	<img class = center src='/static/experiments/beast_fmri_test/images/P.png'></img>	89,71	2750.0	test	<img class = center src='/static/experiments/beast_fmri_test/images/redP.png'></img>	go	2500.0	1.0	34.0	go	non-target	P	89,Yellow Button	71,Green Button	200.0	250.0	2500.0	2500.0	0.0	250.0	0.0	n/a	ITI
157221	500	n/a	-1	-1	500	0.0	fixation	poldrack-single-stim	643	1710725	0.0-25.35-0.35	beast_fmri_test	301	1710584,/	t	<div class = centerbox><div class = fixation>+</div></div>	none	500.0	test	n/a	n/a	n/a	n/a	n/a	n/a	n/a	n/a	n/a	n/a	n/a	n/a	n/a	n/a	n/a	n/a	n/a	n/a	fixation
156291.67148713558	200.0	n/a	971	71	2750	930.328512864	stim	stop-signal	644	1713476	0.0-25.35-1.35	beast_fmri_test	301	1711264,/,1711944,/,1712624,/,1713304,/,1713985,/	t,t,t,t,t	<img class = center src='/static/experiments/beast_fmri_test/images/P.png'></img>	89,71	2750.0	test	<img class = center src='/static/experiments/beast_fmri_test/images/redP.png'></img>	stop	2550.0	1.0	35.0	stop	target	P	89,Yellow Button	71,Green Button	200.0	250.0	2550.0	2500.0	0.0	200.0	0.0	0.0	go_stim
158841.67148713558	2550.0	n/a	971	71	2750	930.328512864	stim	stop-signal	644	1713476	0.0-25.35-1.35	beast_fmri_test	301	1711264,/,1711944,/,1712624,/,1713304,/,1713985,/	t,t,t,t,t	<img class = center src='/static/experiments/beast_fmri_test/images/P.png'></img>	89,71	2750.0	test	<img class = center src='/static/experiments/beast_fmri_test/images/redP.png'></img>	stop	2550.0	1.0	35.0	stop	target	P	89,Yellow Button	71,Green Button	200.0	250.0	2550.0	2500.0	0.0	200.0	0.0	0.0	stop_stim
159041.67148713558	930.32851286446305	n/a	971	71	2750	930.328512864	stim	stop-signal	644	1713476	0.0-25.35-1.35	beast_fmri_test	301	1711264,/,1711944,/,1712624,/,1713304,/,1713985,/	t,t,t,t,t	<img class = center src='/static/experiments/beast_fmri_test/images/P.png'></img>	89,71	2750.0	test	<img class = center src='/static/experiments/beast_fmri_test/images/redP.png'></img>	stop	2550.0	1.0	35.0	stop	target	P	89,Yellow Button	71,Green Button	200.0	250.0	2550.0	2500.0	0.0	200.0	0.0	0.0	ITI
161427	500	n/a	-1	-1	500	0.0	fixation	poldrack-single-stim	645	1714931	0.0-25.36-0.36	beast_fmri_test	301	1714664,/	t	<div class = centerbox><div class = fixation>+</div></div>	none	500.0	test	n/a	n/a	n/a	n/a	n/a	n/a	n/a	n/a	n/a	n/a	n/a	n/a	n/a	n/a	n/a	n/a	n/a	n/a	fixation
160957.9555850022	250.0	n/a	2298	89	2750	471.044414998	stim	stop-signal	646	1717683	0.0-25.36-1.36	beast_fmri_test	301	1715344,/,1716024,/,1716705,/,1717385,/,1718065,/	t,t,t,t,t	<img class = center src='/static/experiments/beast_fmri_test/images/T.png'></img>	89,71	2750.0	test	<img class = center src='/static/experiments/beast_fmri_test/images/redT.png'></img>	stop	2500.0	1.0	36.0	stop	non-target	T	89,Yellow Button	71,Green Button	150.0	250.0	2550.0	2500.0	0.0	250.0	0.0	0.0	go_stim
163457.9555850022	2500.0	n/a	2298	89	2750	471.044414998	stim	stop-signal	646	1717683	0.0-25.36-1.36	beast_fmri_test	301	1715344,/,1716024,/,1716705,/,1717385,/,1718065,/	t,t,t,t,t	<img class = center src='/static/experiments/beast_fmri_test/images/T.png'></img>	89,71	2750.0	test	<img class = center src='/static/experiments/beast_fmri_test/images/redT.png'></img>	stop	2500.0	1.0	36.0	stop	non-target	T	89,Yellow Button	71,Green Button	150.0	250.0	2550.0	2500.0	0.0	250.0	0.0	0.0	stop_stim
163707.9555850022	471.04441499777602	n/a	2298	89	2750	471.044414998	stim	stop-signal	646	1717683	0.0-25.36-1.36	beast_fmri_test	301	1715344,/,1716024,/,1716705,/,1717385,/,1718065,/	t,t,t,t,t	<img class = center src='/static/experiments/beast_fmri_test/images/T.png'></img>	89,71	2750.0	test	<img class = center src='/static/experiments/beast_fmri_test/images/redT.png'></img>	stop	2500.0	1.0	36.0	stop	non-target	T	89,Yellow Button	71,Green Button	150.0	250.0	2550.0	2500.0	0.0	250.0	0.0	0.0	ITI
165173	500	n/a	-1	-1	500	0.0	fixation	poldrack-single-stim	647	1718677	0.0-25.37-0.37	beast_fmri_test	301	n/a	n/a	<div class = centerbox><div class = fixation>+</div></div>	none	500.0	test	n/a	n/a	n/a	n/a	n/a	n/a	n/a	n/a	n/a	n/a	n/a	n/a	n/a	n/a	n/a	n/a	n/a	n/a	fixation
164499.58556687762	2750	n/a	806	89	2750	675.414433122	stim	stop-signal	648	1721429	0.0-25.37-1.37	beast_fmri_test	301	1718745,/,1719425,/,1720105,/,1720785,/,1721465,/	t,t,t,t,t	<img class = center src='/static/experiments/beast_fmri_test/images/B.png'></img>	89,71	2750.0	test	<img class = center src='/static/experiments/beast_fmri_test/images/redB.png'></img>	go	2550.0	1.0	37.0	go	non-target	B	89,Yellow Button	71,Green Button	150.0	200.0	2550.0	2550.0	0.0	200.0	0.0	n/a	go_stim
167249.58556687762	675.41443312244803	n/a	806	89	2750	675.414433122	stim	stop-signal	648	1721429	0.0-25.37-1.37	beast_fmri_test	301	1718745,/,1719425,/,1720105,/,1720785,/,1721465,/	t,t,t,t,t	<img class = center src='/static/experiments/beast_fmri_test/images/B.png'></img>	89,71	2750.0	test	<img class = center src='/static/experiments/beast_fmri_test/images/redB.png'></img>	go	2550.0	1.0	37.0	go	non-target	B	89,Yellow Button	71,Green Button	150.0	200.0	2550.0	2550.0	0.0	200.0	0.0	n/a	ITI
169122	500	n/a	-1	-1	500	0.0	fixation	poldrack-single-stim	649	1722626	0.0-25.38-0.38	beast_fmri_test	301	1722145,/	t	<div class = centerbox><div class = fixation>+</div></div>	none	500.0	test	n/a	n/a	n/a	n/a	n/a	n/a	n/a	n/a	n/a	n/a	n/a	n/a	n/a	n/a	n/a	n/a	n/a	n/a	fixation
164124.0	200.0	n/a	-1	-1	2750	5000.0	stim	stop-signal	650	1725378	0.0-25.38-1.38	beast_fmri_test	301	1722825,/,1723505,/,1724185,/,1724865,/,1725545,/,1726225,/,1726905,/,1727585,/,1728265,/,1728945,/,1729625,/,1730305,/	t,t,t,t,t,t,t,t,t,t,t,t	<img class = center src='/static/experiments/beast_fmri_test/images/T.png'></img>	89,71	2750.0	test	<img class = center src='/static/experiments/beast_fmri_test/images/redT.png'></img>	stop	2550.0	1.0	38.0	stop	non-target	T	89,Yellow Button	71,Green Button	150.0	200.0	2550.0	2550.0	0.0	200.0	0.0	1.0	go_stim
166674.0	2550.0	n/a	-1	-1	2750	5000.0	stim	stop-signal	650	1725378	0.0-25.38-1.38	beast_fmri_test	301	1722825,/,1723505,/,1724185,/,1724865,/,1725545,/,1726225,/,1726905,/,1727585,/,1728265,/,1728945,/,1729625,/,1730305,/	t,t,t,t,t,t,t,t,t,t,t,t	<img class = center src='/static/experiments/beast_fmri_test/images/T.png'></img>	89,71	2750.0	test	<img class = center src='/static/experiments/beast_fmri_test/images/redT.png'></img>	stop	2550.0	1.0	38.0	stop	non-target	T	89,Yellow Button	71,Green Button	150.0	200.0	2550.0	2550.0	0.0	200.0	0.0	1.0	stop_stim
166874.0	5000.0	n/a	-1	-1	2750	5000.0	stim	stop-signal	650	1725378	0.0-25.38-1.38	beast_fmri_test	301	1722825,/,1723505,/,1724185,/,1724865,/,1725545,/,1726225,/,1726905,/,1727585,/,1728265,/,1728945,/,1729625,/,1730305,/	t,t,t,t,t,t,t,t,t,t,t,t	<img class = center src='/static/experiments/beast_fmri_test/images/T.png'></img>	89,71	2750.0	test	<img class = center src='/static/experiments/beast_fmri_test/images/redT.png'></img>	stop	2550.0	1.0	38.0	stop	non-target	T	89,Yellow Button	71,Green Button	150.0	200.0	2550.0	2550.0	0.0	200.0	0.0	1.0	ITI
177394	500	n/a	-1	-1	500	0.0	fixation	poldrack-single-stim	651	1730898	0.0-25.39-0.39	beast_fmri_test	301	n/a	n/a	<div class = centerbox><div class = fixation>+</div></div>	none	500.0	test	n/a	n/a	n/a	n/a	n/a	n/a	n/a	n/a	n/a	n/a	n/a	n/a	n/a	n/a	n/a	n/a	n/a	n/a	fixation
177228.41673665983	2750	n/a	567	89	2750	166.58326334	stim	stop-signal	652	1733649	0.0-25.39-1.39	beast_fmri_test	301	1730985,/,1731665,/,1732345,/,1733025,/,1733705,/	t,t,t,t,t	<img class = center src='/static/experiments/beast_fmri_test/images/P.png'></img>	89,71	2750.0	test	<img class = center src='/static/experiments/beast_fmri_test/images/redP.png'></img>	go	2500.0	1.0	39.0	go	non-target	P	89,Yellow Button	71,Green Button	150.0	250.0	2550.0	2500.0	0.0	250.0	0.0	n/a	go_stim
179978.41673665983	166.58326334012699	n/a	567	89	2750	166.58326334	stim	stop-signal	652	1733649	0.0-25.39-1.39	beast_fmri_test	301	1730985,/,1731665,/,1732345,/,1733025,/,1733705,/	t,t,t,t,t	<img class = center src='/static/experiments/beast_fmri_test/images/P.png'></img>	89,71	2750.0	test	<img class = center src='/static/experiments/beast_fmri_test/images/redP.png'></img>	go	2500.0	1.0	39.0	go	non-target	P	89,Yellow Button	71,Green Button	150.0	250.0	2550.0	2500.0	0.0	250.0	0.0	n/a	ITI
180833	500	n/a	-1	-1	500	0.0	fixation	poldrack-single-stim	653	1734337	0.0-25.40-0.40	beast_fmri_test	301	n/a	n/a	<div class = centerbox><div class = fixation>+</div></div>	none	500.0	test	n/a	n/a	n/a	n/a	n/a	n/a	n/a	n/a	n/a	n/a	n/a	n/a	n/a	n/a	n/a	n/a	n/a	n/a	fixation
180586.82722571166	2750	n/a	1396	89	2750	248.172774288	stim	stop-signal	654	1737089	0.0-25.40-1.40	beast_fmri_test	301	1734385,/,1735065,/,1735745,/,1736425,/,1737104,/	t,t,t,t,t	<img class = center src='/static/experiments/beast_fmri_test/images/T.png'></img>	89,71	2750.0	test	<img class = center src='/static/experiments/beast_fmri_test/images/redT.png'></img>	go	2500.0	1.0	40.0	go	non-target	T	89,Yellow Button	71,Green Button	150.0	250.0	2550.0	2500.0	0.0	250.0	0.0	n/a	go_stim
183336.82722571166	248.17277428826699	n/a	1396	89	2750	248.172774288	stim	stop-signal	654	1737089	0.0-25.40-1.40	beast_fmri_test	301	1734385,/,1735065,/,1735745,/,1736425,/,1737104,/	t,t,t,t,t	<img class = center src='/static/experiments/beast_fmri_test/images/T.png'></img>	89,71	2750.0	test	<img class = center src='/static/experiments/beast_fmri_test/images/redT.png'></img>	go	2500.0	1.0	40.0	go	non-target	T	89,Yellow Button	71,Green Button	150.0	250.0	2550.0	2500.0	0.0	250.0	0.0	n/a	ITI
184354	500	n/a	-1	-1	500	0.0	fixation	poldrack-single-stim	655	1737858	0.0-25.41-0.41	beast_fmri_test	301	1737785,/	t	<div class = centerbox><div class = fixation>+</div></div>	none	500.0	test	n/a	n/a	n/a	n/a	n/a	n/a	n/a	n/a	n/a	n/a	n/a	n/a	n/a	n/a	n/a	n/a	n/a	n/a	fixation
184115.7929784467	2750	n/a	965	71	2750	239.207021553	stim	stop-signal	656	1740609	0.0-25.41-1.41	beast_fmri_test	301	1738465,/,1739144,/,1739824,/,1740504,/	t,t,t,t	<img class = center src='/static/experiments/beast_fmri_test/images/T.png'></img>	89,71	2750.0	test	<img class = center src='/static/experiments/beast_fmri_test/images/redT.png'></img>	go	2600.0	1.0	41.0	go	target	T	89,Yellow Button	71,Green Button	150.0	250.0	2600.0	2500.0	0.0	150.0	0.0	n/a	go_stim
186865.7929784467	239.20702155337199	n/a	965	71	2750	239.207021553	stim	stop-signal	656	1740609	0.0-25.41-1.41	beast_fmri_test	301	1738465,/,1739144,/,1739824,/,1740504,/	t,t,t,t	<img class = center src='/static/experiments/beast_fmri_test/images/T.png'></img>	89,71	2750.0	test	<img class = center src='/static/experiments/beast_fmri_test/images/redT.png'></img>	go	2600.0	1.0	41.0	go	target	T	89,Yellow Button	71,Green Button	150.0	250.0	2600.0	2500.0	0.0	150.0	0.0	n/a	ITI
187864	500	n/a	-1	-1	500	0.0	fixation	poldrack-single-stim	657	1741368	0.0-25.42-0.42	beast_fmri_test	301	1741184,/	t	<div class = centerbox><div class = fixation>+</div></div>	none	500.0	test	n/a	n/a	n/a	n/a	n/a	n/a	n/a	n/a	n/a	n/a	n/a	n/a	n/a	n/a	n/a	n/a	n/a	n/a	fixation
187864.19761424302	250.0	n/a	784	89	2750	1.80238575696	stim	stop-signal	658	1744120	0.0-25.42-1.42	beast_fmri_test	301	1741864,/,1742544,/,1743224,/,1743905,/	t,t,t,t	<img class = center src='/static/experiments/beast_fmri_test/images/B.png'></img>	89,71	2750.0	test	<img class = center src='/static/experiments/beast_fmri_test/images/redB.png'></img>	stop	2500.0	1.0	42.0	stop	non-target	B	89,Yellow Button	71,Green Button	150.0	250.0	2600.0	2500.0	0.0	250.0	0.0	0.0	go_stim
190364.19761424302	2500.0	n/a	784	89	2750	1.80238575696	stim	stop-signal	658	1744120	0.0-25.42-1.42	beast_fmri_test	301	1741864,/,1742544,/,1743224,/,1743905,/	t,t,t,t	<img class = center src='/static/experiments/beast_fmri_test/images/B.png'></img>	89,71	2750.0	test	<img class = center src='/static/experiments/beast_fmri_test/images/redB.png'></img>	stop	2500.0	1.0	42.0	stop	non-target	B	89,Yellow Button	71,Green Button	150.0	250.0	2600.0	2500.0	0.0	250.0	0.0	0.0	stop_stim
190614.19761424302	1.80238575696097	n/a	784	89	2750	1.80238575696	stim	stop-signal	658	1744120	0.0-25.42-1.42	beast_fmri_test	301	1741864,/,1742544,/,1743224,/,1743905,/	t,t,t,t	<img class = center src='/static/experiments/beast_fmri_test/images/B.png'></img>	89,71	2750.0	test	<img class = center src='/static/experiments/beast_fmri_test/images/redB.png'></img>	stop	2500.0	1.0	42.0	stop	non-target	B	89,Yellow Button	71,Green Button	150.0	250.0	2600.0	2500.0	0.0	250.0	0.0	0.0	ITI
191141	500	n/a	-1	-1	500	0.0	fixation	poldrack-single-stim	659	1744645	0.0-25.43-0.43	beast_fmri_test	301	1744586,/	t	<div class = centerbox><div class = fixation>+</div></div>	none	500.0	test	n/a	n/a	n/a	n/a	n/a	n/a	n/a	n/a	n/a	n/a	n/a	n/a	n/a	n/a	n/a	n/a	n/a	n/a	fixation
190782.41155643319	2750	n/a	747	89	2750	360.588443567	stim	stop-signal	660	1747397	0.0-25.43-1.43	beast_fmri_test	301	1745264,/,1745944,/,1746625,/,1747305,/	t,t,t,t	<img class = center src='/static/experiments/beast_fmri_test/images/D.png'></img>	89,71	2750.0	test	<img class = center src='/static/experiments/beast_fmri_test/images/redD.png'></img>	go	2550.0	1.0	43.0	go	non-target	D	89,Yellow Button	71,Green Button	150.0	200.0	2600.0	2550.0	0.0	200.0	0.0	n/a	go_stim
193532.41155643319	360.58844356691498	n/a	747	89	2750	360.588443567	stim	stop-signal	660	1747397	0.0-25.43-1.43	beast_fmri_test	301	1745264,/,1745944,/,1746625,/,1747305,/	t,t,t,t	<img class = center src='/static/experiments/beast_fmri_test/images/D.png'></img>	89,71	2750.0	test	<img class = center src='/static/experiments/beast_fmri_test/images/redD.png'></img>	go	2550.0	1.0	43.0	go	non-target	D	89,Yellow Button	71,Green Button	150.0	200.0	2600.0	2550.0	0.0	200.0	0.0	n/a	ITI
194774	500	n/a	-1	-1	500	0.0	fixation	poldrack-single-stim	661	1748278	0.0-25.44-0.44	beast_fmri_test	301	1747985,/	t	<div class = centerbox><div class = fixation>+</div></div>	none	500.0	test	n/a	n/a	n/a	n/a	n/a	n/a	n/a	n/a	n/a	n/a	n/a	n/a	n/a	n/a	n/a	n/a	n/a	n/a	fixation
192904.83795910142	2750	n/a	1235	71	2750	1870.1620409	stim	stop-signal	662	1751029	0.0-25.44-1.44	beast_fmri_test	301	1748664,/,1749345,/,1750025,/,1750705,/,1751386,/,1752065,/,1752745,/	t,t,t,t,t,t,t	<img class = center src='/static/experiments/beast_fmri_test/images/D.png'></img>	89,71	2750.0	test	<img class = center src='/static/experiments/beast_fmri_test/images/redD.png'></img>	go	2600.0	1.0	44.0	go	target	D	89,Yellow Button	71,Green Button	150.0	200.0	2600.0	2550.0	0.0	150.0	0.0	n/a	go_stim
195654.83795910142	1870.16204089864	n/a	1235	71	2750	1870.1620409	stim	stop-signal	662	1751029	0.0-25.44-1.44	beast_fmri_test	301	1748664,/,1749345,/,1750025,/,1750705,/,1751386,/,1752065,/,1752745,/	t,t,t,t,t,t,t	<img class = center src='/static/experiments/beast_fmri_test/images/D.png'></img>	89,71	2750.0	test	<img class = center src='/static/experiments/beast_fmri_test/images/redD.png'></img>	go	2600.0	1.0	44.0	go	target	D	89,Yellow Button	71,Green Button	150.0	200.0	2600.0	2550.0	0.0	150.0	0.0	n/a	ITI
199914	500	n/a	-1	-1	500	0.0	fixation	poldrack-single-stim	663	1753418	0.0-25.45-0.45	beast_fmri_test	301	n/a	n/a	<div class = centerbox><div class = fixation>+</div></div>	none	500.0	test	n/a	n/a	n/a	n/a	n/a	n/a	n/a	n/a	n/a	n/a	n/a	n/a	n/a	n/a	n/a	n/a	n/a	n/a	fixation
198820.86302924808	2750	n/a	-1	-1	2750	1095.13697075	stim	stop-signal	664	1756170	0.0-25.45-1.45	beast_fmri_test	301	1753425,/,1754106,/,1754786,/,1755466,/,1756146,/,1756825,/	t,t,t,t,t,t	<img class = center src='/static/experiments/beast_fmri_test/images/T.png'></img>	89,71	2750.0	test	<img class = center src='/static/experiments/beast_fmri_test/images/redT.png'></img>	go	2550.0	1.0	45.0	go	non-target	T	89,Yellow Button	71,Green Button	150.0	200.0	2600.0	2550.0	0.0	200.0	0.0	n/a	go_stim
201570.86302924808	1095.13697075189	n/a	-1	-1	2750	1095.13697075	stim	stop-signal	664	1756170	0.0-25.45-1.45	beast_fmri_test	301	1753425,/,1754106,/,1754786,/,1755466,/,1756146,/,1756825,/	t,t,t,t,t,t	<img class = center src='/static/experiments/beast_fmri_test/images/T.png'></img>	89,71	2750.0	test	<img class = center src='/static/experiments/beast_fmri_test/images/redT.png'></img>	go	2550.0	1.0	45.0	go	non-target	T	89,Yellow Button	71,Green Button	150.0	200.0	2600.0	2550.0	0.0	200.0	0.0	n/a	ITI
218784	15000	n/a	-1	-1	15000	0.0	practice-no-stop-feedback	poldrack-single-stim	665	1772288	0.0-26.0	beast_fmri_test	301	1757505,/,1758186,/,1758866,/,1759545,/,1760226,/,1760905,/,1761585,/,1762265,/,1762945,/,1763626,/,1764305,/,1764987,/,1765665,/,1766345,/,1767025,/,1767705,/,1768385,/,1769066,/,1769745,/,1770425,/,1771105,/,1771785,/	t,t,t,t,t,t,t,t,t,t,t,t,t,t,t,t,t,t,t,t,t,t	"<div class = ""centerbox""><p class = ""center-block-text"">Your delay is 1 trials.</p><p class = center-block-text>Please wait for the scanner to start the block</p></div>"	77	15000.0	n/a	n/a	n/a	n/a	n/a	n/a	n/a	n/a	n/a	n/a	n/a	n/a	n/a	n/a	n/a	n/a	n/a	n/a	n/a	practice-no-stop-feedback
219285	500	n/a	-1	-1	500	0.0	fixation	poldrack-single-stim	666	1772789	0.0-27.0-0.0	beast_fmri_test	301	1772465,/	t	<div class = centerbox><div class = fixation>+</div></div>	none	500.0	test	n/a	n/a	n/a	n/a	n/a	n/a	n/a	n/a	n/a	n/a	n/a	n/a	n/a	n/a	n/a	n/a	n/a	n/a	fixation
215180.78377293679	temp_go_duration	n/a	1063	89	2750	4105.21622706	stim	stop-signal	667	1775540	0.0-27.0-1.0	beast_fmri_test	301	1773145,/,1773825,/,1774506,/,1775186,/,1775865,/,1776545,/,1777225,/,1777905,/,1778586,/,1779265,/	t,t,t,t,t,t,t,t,t,t	<img class = center src='/static/experiments/beast_fmri_test/images/V.png'></img>	89,71	2750.0	test	<img class = center src='/static/experiments/beast_fmri_test/images/redV.png'></img>	stop	-1.0	1.0	0.0	stop	temp-non-target	V	89,Yellow Button	71,Green Button	150.0	200.0	2600.0	2550.0	0.0	n/a	n/a	0.0	go_stim
temp-non-target	temp_stop_duration	n/a	1063	89	2750	4105.21622706	stim	stop-signal	667	1775540	0.0-27.0-1.0	beast_fmri_test	301	1773145,/,1773825,/,1774506,/,1775186,/,1775865,/,1776545,/,1777225,/,1777905,/,1778586,/,1779265,/	t,t,t,t,t,t,t,t,t,t	<img class = center src='/static/experiments/beast_fmri_test/images/V.png'></img>	89,71	2750.0	test	<img class = center src='/static/experiments/beast_fmri_test/images/redV.png'></img>	stop	-1.0	1.0	0.0	stop	temp-non-target	V	89,Yellow Button	71,Green Button	150.0	200.0	2600.0	2550.0	0.0	n/a	n/a	0.0	stop_stim
217930.78377293679	4105.2162270631397	n/a	1063	89	2750	4105.21622706	stim	stop-signal	667	1775540	0.0-27.0-1.0	beast_fmri_test	301	1773145,/,1773825,/,1774506,/,1775186,/,1775865,/,1776545,/,1777225,/,1777905,/,1778586,/,1779265,/	t,t,t,t,t,t,t,t,t,t	<img class = center src='/static/experiments/beast_fmri_test/images/V.png'></img>	89,71	2750.0	test	<img class = center src='/static/experiments/beast_fmri_test/images/redV.png'></img>	stop	-1.0	1.0	0.0	stop	temp-non-target	V	89,Yellow Button	71,Green Button	150.0	200.0	2600.0	2550.0	0.0	n/a	n/a	0.0	ITI
226663	500	n/a	-1	-1	500	0.0	fixation	poldrack-single-stim	668	1780167	0.0-27.1-0.1	beast_fmri_test	301	1779945,/	t	<div class = centerbox><div class = fixation>+</div></div>	none	500.0	test	n/a	n/a	n/a	n/a	n/a	n/a	n/a	n/a	n/a	n/a	n/a	n/a	n/a	n/a	n/a	n/a	n/a	n/a	fixation
225027.010353002	2750	n/a	761	89	2750	1637.989647	stim	stop-signal	669	1782919	0.0-27.1-1.1	beast_fmri_test	301	1780625,/,1781305,/,1781985,/,1782665,/,1783345,/,1784026,/	t,t,t,t,t,t	<img class = center src='/static/experiments/beast_fmri_test/images/T.png'></img>	89,71	2750.0	test	<img class = center src='/static/experiments/beast_fmri_test/images/redT.png'></img>	go	2550.0	1.0	1.0	go	non-target	T	89,Yellow Button	71,Green Button	150.0	200.0	2600.0	2550.0	0.0	200.0	0.0	n/a	go_stim
227777.010353002	1637.9896469980099	n/a	761	89	2750	1637.989647	stim	stop-signal	669	1782919	0.0-27.1-1.1	beast_fmri_test	301	1780625,/,1781305,/,1781985,/,1782665,/,1783345,/,1784026,/	t,t,t,t,t,t	<img class = center src='/static/experiments/beast_fmri_test/images/T.png'></img>	89,71	2750.0	test	<img class = center src='/static/experiments/beast_fmri_test/images/redT.png'></img>	go	2550.0	1.0	1.0	go	non-target	T	89,Yellow Button	71,Green Button	150.0	200.0	2600.0	2550.0	0.0	200.0	0.0	n/a	ITI
231572	500	n/a	-1	-1	500	0.0	fixation	poldrack-single-stim	670	1785076	0.0-27.2-0.2	beast_fmri_test	301	1784706,/	t	<div class = centerbox><div class = fixation>+</div></div>	none	500.0	test	n/a	n/a	n/a	n/a	n/a	n/a	n/a	n/a	n/a	n/a	n/a	n/a	n/a	n/a	n/a	n/a	n/a	n/a	fixation
226574.0	2750	n/a	1081	71	2750	5000.0	stim	stop-signal	671	1787828	0.0-27.2-1.2	beast_fmri_test	301	1785386,/,1786066,/,1786746,/,1787426,/,1788106,/,1788786,/,1789466,/,1790146,/,1790826,/,1791506,/,1792186,/	t,t,t,t,t,t,t,t,t,t,t	<img class = center src='/static/experiments/beast_fmri_test/images/D.png'></img>	89,71	2750.0	test	<img class = center src='/static/experiments/beast_fmri_test/images/redD.png'></img>	go	2550.0	1.0	2.0	go	non-target	D	89,Yellow Button	71,Green Button	150.0	200.0	2600.0	2550.0	1.0	200.0	1.0	n/a	go_stim
229324.0	5000.0	n/a	1081	71	2750	5000.0	stim	stop-signal	671	1787828	0.0-27.2-1.2	beast_fmri_test	301	1785386,/,1786066,/,1786746,/,1787426,/,1788106,/,1788786,/,1789466,/,1790146,/,1790826,/,1791506,/,1792186,/	t,t,t,t,t,t,t,t,t,t,t	<img class = center src='/static/experiments/beast_fmri_test/images/D.png'></img>	89,71	2750.0	test	<img class = center src='/static/experiments/beast_fmri_test/images/redD.png'></img>	go	2550.0	1.0	2.0	go	non-target	D	89,Yellow Button	71,Green Button	150.0	200.0	2600.0	2550.0	1.0	200.0	1.0	n/a	ITI
239848	500	n/a	-1	-1	500	0.0	fixation	poldrack-single-stim	672	1793352	0.0-27.3-0.3	beast_fmri_test	301	1792866,/	t	<div class = centerbox><div class = fixation>+</div></div>	none	500.0	test	n/a	n/a	n/a	n/a	n/a	n/a	n/a	n/a	n/a	n/a	n/a	n/a	n/a	n/a	n/a	n/a	n/a	n/a	fixation
239562.78535453882	2750	n/a	917	89	2750	287.214645461	stim	stop-signal	673	1796104	0.0-27.3-1.3	beast_fmri_test	301	1793546,/,1794226,/,1794906,/,1795586,/,1796266,/	t,t,t,t,t	<img class = center src='/static/experiments/beast_fmri_test/images/T.png'></img>	89,71	2750.0	test	<img class = center src='/static/experiments/beast_fmri_test/images/redT.png'></img>	go	2550.0	1.0	3.0	go	non-target	T	89,Yellow Button	71,Green Button	150.0	200.0	2600.0	2550.0	0.0	200.0	0.0	n/a	go_stim
242312.78535453882	287.21464546127601	n/a	917	89	2750	287.214645461	stim	stop-signal	673	1796104	0.0-27.3-1.3	beast_fmri_test	301	1793546,/,1794226,/,1794906,/,1795586,/,1796266,/	t,t,t,t,t	<img class = center src='/static/experiments/beast_fmri_test/images/T.png'></img>	89,71	2750.0	test	<img class = center src='/static/experiments/beast_fmri_test/images/redT.png'></img>	go	2550.0	1.0	3.0	go	non-target	T	89,Yellow Button	71,Green Button	150.0	200.0	2600.0	2550.0	0.0	200.0	0.0	n/a	ITI
243417	500	n/a	-1	-1	500	0.0	fixation	poldrack-single-stim	674	1796921	0.0-27.4-0.4	beast_fmri_test	301	n/a	n/a	<div class = centerbox><div class = fixation>+</div></div>	none	500.0	test	n/a	n/a	n/a	n/a	n/a	n/a	n/a	n/a	n/a	n/a	n/a	n/a	n/a	n/a	n/a	n/a	n/a	n/a	fixation
242442.78765277239	2750	n/a	854	71	2750	976.212347228	stim	stop-signal	675	1799673	0.0-27.4-1.4	beast_fmri_test	301	1796946,/,1797626,/,1798306,/,1798985,/,1799666,/,1800345,/	t,t,t,t,t,t	<img class = center src='/static/experiments/beast_fmri_test/images/T.png'></img>	89,71	2750.0	test	<img class = center src='/static/experiments/beast_fmri_test/images/redT.png'></img>	go	2600.0	1.0	4.0	go	target	T	89,Yellow Button	71,Green Button	150.0	200.0	2600.0	2550.0	0.0	150.0	0.0	n/a	go_stim
245192.78765277239	976.21234722769702	n/a	854	71	2750	976.212347228	stim	stop-signal	675	1799673	0.0-27.4-1.4	beast_fmri_test	301	1796946,/,1797626,/,1798306,/,1798985,/,1799666,/,1800345,/	t,t,t,t,t,t	<img class = center src='/static/experiments/beast_fmri_test/images/T.png'></img>	89,71	2750.0	test	<img class = center src='/static/experiments/beast_fmri_test/images/redT.png'></img>	go	2600.0	1.0	4.0	go	target	T	89,Yellow Button	71,Green Button	150.0	200.0	2600.0	2550.0	0.0	150.0	0.0	n/a	ITI
247673	500	n/a	-1	-1	500	0.0	fixation	poldrack-single-stim	676	1801177	0.0-27.5-0.5	beast_fmri_test	301	1801026,/	t	<div class = centerbox><div class = fixation>+</div></div>	none	500.0	test	n/a	n/a	n/a	n/a	n/a	n/a	n/a	n/a	n/a	n/a	n/a	n/a	n/a	n/a	n/a	n/a	n/a	n/a	fixation
247148.13440693822	2750	n/a	1207	89	2750	525.865593062	stim	stop-signal	677	1803928	0.0-27.5-1.5	beast_fmri_test	301	1801706,/,1802386,/,1803065,/,1803745,/,1804425,/	t,t,t,t,t	<img class = center src='/static/experiments/beast_fmri_test/images/V.png'></img>	89,71	2750.0	test	<img class = center src='/static/experiments/beast_fmri_test/images/redV.png'></img>	go	2550.0	1.0	5.0	go	non-target	V	89,Yellow Button	71,Green Button	150.0	200.0	2600.0	2550.0	0.0	200.0	0.0	n/a	go_stim
249898.13440693822	525.86559306178697	n/a	1207	89	2750	525.865593062	stim	stop-signal	677	1803928	0.0-27.5-1.5	beast_fmri_test	301	1801706,/,1802386,/,1803065,/,1803745,/,1804425,/	t,t,t,t,t	<img class = center src='/static/experiments/beast_fmri_test/images/V.png'></img>	89,71	2750.0	test	<img class = center src='/static/experiments/beast_fmri_test/images/redV.png'></img>	go	2550.0	1.0	5.0	go	non-target	V	89,Yellow Button	71,Green Button	150.0	200.0	2600.0	2550.0	0.0	200.0	0.0	n/a	ITI
251472	500	n/a	-1	-1	500	0.0	fixation	poldrack-single-stim	678	1804976	0.0-27.6-0.6	beast_fmri_test	301	n/a	n/a	<div class = centerbox><div class = fixation>+</div></div>	none	500.0	test	n/a	n/a	n/a	n/a	n/a	n/a	n/a	n/a	n/a	n/a	n/a	n/a	n/a	n/a	n/a	n/a	n/a	n/a	fixation
250729.93060403061	200.0	n/a	-1	-1	2750	743.069395969	stim	stop-signal	679	1807727	0.0-27.6-1.6	beast_fmri_test	301	1805105,/,1805787,/,1806466,/,1807146,/,1807825,/	t,t,t,t,t	<img class = center src='/static/experiments/beast_fmri_test/images/P.png'></img>	89,71	2750.0	test	<img class = center src='/static/experiments/beast_fmri_test/images/redP.png'></img>	stop	2550.0	1.0	6.0	stop	non-target	P	89,Yellow Button	71,Green Button	150.0	200.0	2600.0	2550.0	0.0	200.0	0.0	1.0	go_stim
253279.93060403061	2550.0	n/a	-1	-1	2750	743.069395969	stim	stop-signal	679	1807727	0.0-27.6-1.6	beast_fmri_test	301	1805105,/,1805787,/,1806466,/,1807146,/,1807825,/	t,t,t,t,t	<img class = center src='/static/experiments/beast_fmri_test/images/P.png'></img>	89,71	2750.0	test	<img class = center src='/static/experiments/beast_fmri_test/images/redP.png'></img>	stop	2550.0	1.0	6.0	stop	non-target	P	89,Yellow Button	71,Green Button	150.0	200.0	2600.0	2550.0	0.0	200.0	0.0	1.0	stop_stim
253479.93060403061	743.06939596934001	n/a	-1	-1	2750	743.069395969	stim	stop-signal	679	1807727	0.0-27.6-1.6	beast_fmri_test	301	1805105,/,1805787,/,1806466,/,1807146,/,1807825,/	t,t,t,t,t	<img class = center src='/static/experiments/beast_fmri_test/images/P.png'></img>	89,71	2750.0	test	<img class = center src='/static/experiments/beast_fmri_test/images/redP.png'></img>	stop	2550.0	1.0	6.0	stop	non-target	P	89,Yellow Button	71,Green Button	150.0	200.0	2600.0	2550.0	0.0	200.0	0.0	1.0	ITI
255495	500	n/a	-1	-1	500	0.0	fixation	poldrack-single-stim	680	1808999	0.0-27.7-0.7	beast_fmri_test	301	1808507,/	t	<div class = centerbox><div class = fixation>+</div></div>	none	500.0	test	n/a	n/a	n/a	n/a	n/a	n/a	n/a	n/a	n/a	n/a	n/a	n/a	n/a	n/a	n/a	n/a	n/a	n/a	fixation
255407.28898879304	250.0	n/a	-1	-1	2750	89.7110112069	stim	stop-signal	681	1811751	0.0-27.7-1.7	beast_fmri_test	301	1809186,/,1809866,/,1810546,/,1811226,/	t,t,t,t	<img class = center src='/static/experiments/beast_fmri_test/images/D.png'></img>	89,71	2750.0	test	<img class = center src='/static/experiments/beast_fmri_test/images/redD.png'></img>	stop	2500.0	1.0	7.0	stop	non-target	D	89,Yellow Button	71,Green Button	150.0	250.0	2600.0	2500.0	0.0	250.0	0.0	1.0	go_stim
257907.28898879304	2500.0	n/a	-1	-1	2750	89.7110112069	stim	stop-signal	681	1811751	0.0-27.7-1.7	beast_fmri_test	301	1809186,/,1809866,/,1810546,/,1811226,/	t,t,t,t	<img class = center src='/static/experiments/beast_fmri_test/images/D.png'></img>	89,71	2750.0	test	<img class = center src='/static/experiments/beast_fmri_test/images/redD.png'></img>	stop	2500.0	1.0	7.0	stop	non-target	D	89,Yellow Button	71,Green Button	150.0	250.0	2600.0	2500.0	0.0	250.0	0.0	1.0	stop_stim
258157.28898879304	89.711011206947106	n/a	-1	-1	2750	89.7110112069	stim	stop-signal	681	1811751	0.0-27.7-1.7	beast_fmri_test	301	1809186,/,1809866,/,1810546,/,1811226,/	t,t,t,t	<img class = center src='/static/experiments/beast_fmri_test/images/D.png'></img>	89,71	2750.0	test	<img class = center src='/static/experiments/beast_fmri_test/images/redD.png'></img>	stop	2500.0	1.0	7.0	stop	non-target	D	89,Yellow Button	71,Green Button	150.0	250.0	2600.0	2500.0	0.0	250.0	0.0	1.0	ITI
258861	500	n/a	-1	-1	500	0.0	fixation	poldrack-single-stim	682	1812365	0.0-27.8-0.8	beast_fmri_test	301	1811905,/	t	<div class = centerbox><div class = fixation>+</div></div>	none	500.0	test	n/a	n/a	n/a	n/a	n/a	n/a	n/a	n/a	n/a	n/a	n/a	n/a	n/a	n/a	n/a	n/a	n/a	n/a	fixation
258611.93730406999	2750	n/a	829	71	2750	250.06269593	stim	stop-signal	683	1815116	0.0-27.8-1.8	beast_fmri_test	301	1812585,/,1813266,/,1813946,/,1814625,/,1815305,/	t,t,t,t,t	<img class = center src='/static/experiments/beast_fmri_test/images/D.png'></img>	89,71	2750.0	test	<img class = center src='/static/experiments/beast_fmri_test/images/redD.png'></img>	go	2600.0	1.0	8.0	go	target	D	89,Yellow Button	71,Green Button	150.0	300.0	2600.0	2500.0	0.0	150.0	0.0	n/a	go_stim
261361.93730406999	250.06269592990199	n/a	829	71	2750	250.06269593	stim	stop-signal	683	1815116	0.0-27.8-1.8	beast_fmri_test	301	1812585,/,1813266,/,1813946,/,1814625,/,1815305,/	t,t,t,t,t	<img class = center src='/static/experiments/beast_fmri_test/images/D.png'></img>	89,71	2750.0	test	<img class = center src='/static/experiments/beast_fmri_test/images/redD.png'></img>	go	2600.0	1.0	8.0	go	target	D	89,Yellow Button	71,Green Button	150.0	300.0	2600.0	2500.0	0.0	150.0	0.0	n/a	ITI
262390	500	n/a	-1	-1	500	0.0	fixation	poldrack-single-stim	684	1815894	0.0-27.9-0.9	beast_fmri_test	301	n/a	n/a	<div class = centerbox><div class = fixation>+</div></div>	none	500.0	test	n/a	n/a	n/a	n/a	n/a	n/a	n/a	n/a	n/a	n/a	n/a	n/a	n/a	n/a	n/a	n/a	n/a	n/a	fixation
261395.56218864326	150.0	n/a	-1	-1	2750	995.437811357	stim	stop-signal	685	1818645	0.0-27.9-1.9	beast_fmri_test	301	1815986,/,1816666,/,1817345,/,1818027,/,1818705,/,1819386,/	t,t,t,t,t,t	<img class = center src='/static/experiments/beast_fmri_test/images/D.png'></img>	89,71	2750.0	test	<img class = center src='/static/experiments/beast_fmri_test/images/redD.png'></img>	stop	2600.0	1.0	9.0	stop	target	D	89,Yellow Button	71,Green Button	150.0	300.0	2600.0	2500.0	0.0	150.0	0.0	1.0	go_stim
263995.56218864326	2600.0	n/a	-1	-1	2750	995.437811357	stim	stop-signal	685	1818645	0.0-27.9-1.9	beast_fmri_test	301	1815986,/,1816666,/,1817345,/,1818027,/,1818705,/,1819386,/	t,t,t,t,t,t	<img class = center src='/static/experiments/beast_fmri_test/images/D.png'></img>	89,71	2750.0	test	<img class = center src='/static/experiments/beast_fmri_test/images/redD.png'></img>	stop	2600.0	1.0	9.0	stop	target	D	89,Yellow Button	71,Green Button	150.0	300.0	2600.0	2500.0	0.0	150.0	0.0	1.0	stop_stim
264145.56218864326	995.43781135674203	n/a	-1	-1	2750	995.437811357	stim	stop-signal	685	1818645	0.0-27.9-1.9	beast_fmri_test	301	1815986,/,1816666,/,1817345,/,1818027,/,1818705,/,1819386,/	t,t,t,t,t,t	<img class = center src='/static/experiments/beast_fmri_test/images/D.png'></img>	89,71	2750.0	test	<img class = center src='/static/experiments/beast_fmri_test/images/redD.png'></img>	stop	2600.0	1.0	9.0	stop	target	D	89,Yellow Button	71,Green Button	150.0	300.0	2600.0	2500.0	0.0	150.0	0.0	1.0	ITI
266662	500	n/a	-1	-1	500	0.0	fixation	poldrack-single-stim	686	1820166	0.0-27.10-0.10	beast_fmri_test	301	1820067,/	t	<div class = centerbox><div class = fixation>+</div></div>	none	500.0	test	n/a	n/a	n/a	n/a	n/a	n/a	n/a	n/a	n/a	n/a	n/a	n/a	n/a	n/a	n/a	n/a	n/a	n/a	fixation
266235.45428935415	2750	n/a	810	89	2750	428.545710646	stim	stop-signal	687	1822918	0.0-27.10-1.10	beast_fmri_test	301	1820746,/,1821426,/,1822106,/,1822786,/	t,t,t,t	<img class = center src='/static/experiments/beast_fmri_test/images/V.png'></img>	89,71	2750.0	test	<img class = center src='/static/experiments/beast_fmri_test/images/redV.png'></img>	go	2450.0	1.0	10.0	go	non-target	V	89,Yellow Button	71,Green Button	200.0	300.0	2600.0	2450.0	0.0	300.0	0.0	n/a	go_stim
268985.45428935415	428.54571064582302	n/a	810	89	2750	428.545710646	stim	stop-signal	687	1822918	0.0-27.10-1.10	beast_fmri_test	301	1820746,/,1821426,/,1822106,/,1822786,/	t,t,t,t	<img class = center src='/static/experiments/beast_fmri_test/images/V.png'></img>	89,71	2750.0	test	<img class = center src='/static/experiments/beast_fmri_test/images/redV.png'></img>	go	2450.0	1.0	10.0	go	non-target	V	89,Yellow Button	71,Green Button	200.0	300.0	2600.0	2450.0	0.0	300.0	0.0	n/a	ITI
270369	500	n/a	-1	-1	500	0.0	fixation	poldrack-single-stim	688	1823873	0.0-27.11-0.11	beast_fmri_test	301	1823467,/	t	<div class = centerbox><div class = fixation>+</div></div>	none	500.0	test	n/a	n/a	n/a	n/a	n/a	n/a	n/a	n/a	n/a	n/a	n/a	n/a	n/a	n/a	n/a	n/a	n/a	n/a	fixation
267511.54184696823	300.0	n/a	-1	-1	2750	2859.45815303	stim	stop-signal	689	1826625	0.0-27.11-1.11	beast_fmri_test	301	1824146,/,1824827,/,1825507,/,1826187,/,1826866,/,1827546,/,1828227,/,1828907,/	t,t,t,t,t,t,t,t	<img class = center src='/static/experiments/beast_fmri_test/images/P.png'></img>	89,71	2750.0	test	<img class = center src='/static/experiments/beast_fmri_test/images/redP.png'></img>	stop	2450.0	1.0	11.0	stop	non-target	P	89,Yellow Button	71,Green Button	200.0	300.0	2600.0	2450.0	0.0	300.0	0.0	1.0	go_stim
269961.54184696823	2450.0	n/a	-1	-1	2750	2859.45815303	stim	stop-signal	689	1826625	0.0-27.11-1.11	beast_fmri_test	301	1824146,/,1824827,/,1825507,/,1826187,/,1826866,/,1827546,/,1828227,/,1828907,/	t,t,t,t,t,t,t,t	<img class = center src='/static/experiments/beast_fmri_test/images/P.png'></img>	89,71	2750.0	test	<img class = center src='/static/experiments/beast_fmri_test/images/redP.png'></img>	stop	2450.0	1.0	11.0	stop	non-target	P	89,Yellow Button	71,Green Button	200.0	300.0	2600.0	2450.0	0.0	300.0	0.0	1.0	stop_stim
270261.54184696823	2859.45815303176	n/a	-1	-1	2750	2859.45815303	stim	stop-signal	689	1826625	0.0-27.11-1.11	beast_fmri_test	301	1824146,/,1824827,/,1825507,/,1826187,/,1826866,/,1827546,/,1828227,/,1828907,/	t,t,t,t,t,t,t,t	<img class = center src='/static/experiments/beast_fmri_test/images/P.png'></img>	89,71	2750.0	test	<img class = center src='/static/experiments/beast_fmri_test/images/redP.png'></img>	stop	2450.0	1.0	11.0	stop	non-target	P	89,Yellow Button	71,Green Button	200.0	300.0	2600.0	2450.0	0.0	300.0	0.0	1.0	ITI
276505	500	n/a	-1	-1	500	0.0	fixation	poldrack-single-stim	690	1830009	0.0-27.12-0.12	beast_fmri_test	301	1829587,/	t	<div class = centerbox><div class = fixation>+</div></div>	none	500.0	test	n/a	n/a	n/a	n/a	n/a	n/a	n/a	n/a	n/a	n/a	n/a	n/a	n/a	n/a	n/a	n/a	n/a	n/a	fixation
276324.48198489775	2750	n/a	523	71	2750	183.518015102	stim	stop-signal	691	1832762	0.0-27.12-1.12	beast_fmri_test	301	1830267,/,1830946,/,1831626,/,1832306,/	t,t,t,t	<img class = center src='/static/experiments/beast_fmri_test/images/P.png'></img>	89,71	2750.0	test	<img class = center src='/static/experiments/beast_fmri_test/images/redP.png'></img>	go	2550.0	1.0	12.0	go	target	P	89,Yellow Button	71,Green Button	200.0	350.0	2550.0	2450.0	0.0	200.0	0.0	n/a	go_stim
279074.48198489775	183.51801510214801	n/a	523	71	2750	183.518015102	stim	stop-signal	691	1832762	0.0-27.12-1.12	beast_fmri_test	301	1830267,/,1830946,/,1831626,/,1832306,/	t,t,t,t	<img class = center src='/static/experiments/beast_fmri_test/images/P.png'></img>	89,71	2750.0	test	<img class = center src='/static/experiments/beast_fmri_test/images/redP.png'></img>	go	2550.0	1.0	12.0	go	target	P	89,Yellow Button	71,Green Button	200.0	350.0	2550.0	2450.0	0.0	200.0	0.0	n/a	ITI
279967	500	n/a	-1	-1	500	0.0	fixation	poldrack-single-stim	692	1833471	0.0-27.13-0.13	beast_fmri_test	301	1832986,/	t	<div class = centerbox><div class = fixation>+</div></div>	none	500.0	test	n/a	n/a	n/a	n/a	n/a	n/a	n/a	n/a	n/a	n/a	n/a	n/a	n/a	n/a	n/a	n/a	n/a	n/a	fixation
279094.69389078231	2750	n/a	1648	89	2750	874.306109218	stim	stop-signal	693	1836223	0.0-27.13-1.13	beast_fmri_test	301	1833667,/,1834346,/,1835026,/,1835706,/,1836387,/,1837066,/	t,t,t,t,t,t	<img class = center src='/static/experiments/beast_fmri_test/images/D.png'></img>	89,71	2750.0	test	<img class = center src='/static/experiments/beast_fmri_test/images/redD.png'></img>	go	2400.0	1.0	13.0	go	non-target	D	89,Yellow Button	71,Green Button	200.0	350.0	2550.0	2400.0	0.0	350.0	0.0	n/a	go_stim
281844.69389078231	874.30610921759001	n/a	1648	89	2750	874.306109218	stim	stop-signal	693	1836223	0.0-27.13-1.13	beast_fmri_test	301	1833667,/,1834346,/,1835026,/,1835706,/,1836387,/,1837066,/	t,t,t,t,t,t	<img class = center src='/static/experiments/beast_fmri_test/images/D.png'></img>	89,71	2750.0	test	<img class = center src='/static/experiments/beast_fmri_test/images/redD.png'></img>	go	2400.0	1.0	13.0	go	non-target	D	89,Yellow Button	71,Green Button	200.0	350.0	2550.0	2400.0	0.0	350.0	0.0	n/a	ITI
284126	500	n/a	-1	-1	500	0.0	fixation	poldrack-single-stim	694	1837630	0.0-27.14-0.14	beast_fmri_test	301	n/a	n/a	<div class = centerbox><div class = fixation>+</div></div>	none	500.0	test	n/a	n/a	n/a	n/a	n/a	n/a	n/a	n/a	n/a	n/a	n/a	n/a	n/a	n/a	n/a	n/a	n/a	n/a	fixation
283574.26226533903	2750	n/a	1264	71	2750	553.737734661	stim	stop-signal	695	1840382	0.0-27.14-1.14	beast_fmri_test	301	1837747,/,1838426,/,1839106,/,1839786,/,1840466,/	t,t,t,t,t	<img class = center src='/static/experiments/beast_fmri_test/images/B.png'></img>	89,71	2750.0	test	<img class = center src='/static/experiments/beast_fmri_test/images/redB.png'></img>	go	2400.0	1.0	14.0	go	non-target	B	89,Yellow Button	71,Green Button	200.0	350.0	2550.0	2400.0	1.0	350.0	1.0	n/a	go_stim
286324.26226533903	553.73773466100204	n/a	1264	71	2750	553.737734661	stim	stop-signal	695	1840382	0.0-27.14-1.14	beast_fmri_test	301	1837747,/,1838426,/,1839106,/,1839786,/,1840466,/	t,t,t,t,t	<img class = center src='/static/experiments/beast_fmri_test/images/B.png'></img>	89,71	2750.0	test	<img class = center src='/static/experiments/beast_fmri_test/images/redB.png'></img>	go	2400.0	1.0	14.0	go	non-target	B	89,Yellow Button	71,Green Button	200.0	350.0	2550.0	2400.0	1.0	350.0	1.0	n/a	ITI
287963	500	n/a	-1	-1	500	0.0	fixation	poldrack-single-stim	696	1841467	0.0-27.15-0.15	beast_fmri_test	301	1841147,/	t	<div class = centerbox><div class = fixation>+</div></div>	none	500.0	test	n/a	n/a	n/a	n/a	n/a	n/a	n/a	n/a	n/a	n/a	n/a	n/a	n/a	n/a	n/a	n/a	n/a	n/a	fixation
286750.66792482603	2750	n/a	-1	-1	2750	1215.33207517	stim	stop-signal	697	1844220	0.0-27.15-1.15	beast_fmri_test	301	1841826,/,1842506,/,1843186,/,1843866,/,1844546,/,1845226,/	t,t,t,t,t,t	<img class = center src='/static/experiments/beast_fmri_test/images/V.png'></img>	89,71	2750.0	test	<img class = center src='/static/experiments/beast_fmri_test/images/redV.png'></img>	go	2400.0	1.0	15.0	go	non-target	V	89,Yellow Button	71,Green Button	200.0	350.0	2550.0	2400.0	0.0	350.0	0.0	n/a	go_stim
289500.66792482603	1215.33207517387	n/a	-1	-1	2750	1215.33207517	stim	stop-signal	697	1844220	0.0-27.15-1.15	beast_fmri_test	301	1841826,/,1842506,/,1843186,/,1843866,/,1844546,/,1845226,/	t,t,t,t,t,t	<img class = center src='/static/experiments/beast_fmri_test/images/V.png'></img>	89,71	2750.0	test	<img class = center src='/static/experiments/beast_fmri_test/images/redV.png'></img>	go	2400.0	1.0	15.0	go	non-target	V	89,Yellow Button	71,Green Button	200.0	350.0	2550.0	2400.0	0.0	350.0	0.0	n/a	ITI
292459	500	n/a	-1	-1	500	0.0	fixation	poldrack-single-stim	698	1845963	0.0-27.16-0.16	beast_fmri_test	301	1845907,/	t	<div class = centerbox><div class = fixation>+</div></div>	none	500.0	test	n/a	n/a	n/a	n/a	n/a	n/a	n/a	n/a	n/a	n/a	n/a	n/a	n/a	n/a	n/a	n/a	n/a	n/a	fixation
290937.92605016637	2750	n/a	1359	89	2750	1524.07394983	stim	stop-signal	699	1848716	0.0-27.16-1.16	beast_fmri_test	301	1846587,/,1847266,/,1847946,/,1848626,/,1849306,/,1849986,/	t,t,t,t,t,t	<img class = center src='/static/experiments/beast_fmri_test/images/T.png'></img>	89,71	2750.0	test	<img class = center src='/static/experiments/beast_fmri_test/images/redT.png'></img>	go	2400.0	1.0	16.0	go	non-target	T	89,Yellow Button	71,Green Button	200.0	350.0	2550.0	2400.0	0.0	350.0	0.0	n/a	go_stim
293687.92605016637	1524.0739498335499	n/a	1359	89	2750	1524.07394983	stim	stop-signal	699	1848716	0.0-27.16-1.16	beast_fmri_test	301	1846587,/,1847266,/,1847946,/,1848626,/,1849306,/,1849986,/	t,t,t,t,t,t	<img class = center src='/static/experiments/beast_fmri_test/images/T.png'></img>	89,71	2750.0	test	<img class = center src='/static/experiments/beast_fmri_test/images/redT.png'></img>	go	2400.0	1.0	16.0	go	non-target	T	89,Yellow Button	71,Green Button	200.0	350.0	2550.0	2400.0	0.0	350.0	0.0	n/a	ITI
297265	500	n/a	-1	-1	500	0.0	fixation	poldrack-single-stim	700	1850769	0.0-27.17-0.17	beast_fmri_test	301	1850666,/	t	<div class = centerbox><div class = fixation>+</div></div>	none	500.0	test	n/a	n/a	n/a	n/a	n/a	n/a	n/a	n/a	n/a	n/a	n/a	n/a	n/a	n/a	n/a	n/a	n/a	n/a	fixation
293652.79246878903	350.0	n/a	786	89	2750	3614.20753121	stim	stop-signal	701	1853521	0.0-27.17-1.17	beast_fmri_test	301	1851346,/,1852026,/,1852707,/,1853387,/,1854067,/,1854747,/,1855427,/,1856107,/,1856788,/	t,t,t,t,t,t,t,t,t	<img class = center src='/static/experiments/beast_fmri_test/images/B.png'></img>	89,71	2750.0	test	<img class = center src='/static/experiments/beast_fmri_test/images/redB.png'></img>	stop	2400.0	1.0	17.0	stop	non-target	B	89,Yellow Button	71,Green Button	200.0	350.0	2550.0	2400.0	0.0	350.0	0.0	0.0	go_stim
296052.79246878903	2400.0	n/a	786	89	2750	3614.20753121	stim	stop-signal	701	1853521	0.0-27.17-1.17	beast_fmri_test	301	1851346,/,1852026,/,1852707,/,1853387,/,1854067,/,1854747,/,1855427,/,1856107,/,1856788,/	t,t,t,t,t,t,t,t,t	<img class = center src='/static/experiments/beast_fmri_test/images/B.png'></img>	89,71	2750.0	test	<img class = center src='/static/experiments/beast_fmri_test/images/redB.png'></img>	stop	2400.0	1.0	17.0	stop	non-target	B	89,Yellow Button	71,Green Button	200.0	350.0	2550.0	2400.0	0.0	350.0	0.0	0.0	stop_stim
296402.79246878903	3614.20753121087	n/a	786	89	2750	3614.20753121	stim	stop-signal	701	1853521	0.0-27.17-1.17	beast_fmri_test	301	1851346,/,1852026,/,1852707,/,1853387,/,1854067,/,1854747,/,1855427,/,1856107,/,1856788,/	t,t,t,t,t,t,t,t,t	<img class = center src='/static/experiments/beast_fmri_test/images/B.png'></img>	89,71	2750.0	test	<img class = center src='/static/experiments/beast_fmri_test/images/redB.png'></img>	stop	2400.0	1.0	17.0	stop	non-target	B	89,Yellow Button	71,Green Button	200.0	350.0	2550.0	2400.0	0.0	350.0	0.0	0.0	ITI
304165	500	n/a	-1	-1	500	0.0	fixation	poldrack-single-stim	702	1857669	0.0-27.18-0.18	beast_fmri_test	301	1857467,/	t	<div class = centerbox><div class = fixation>+</div></div>	none	500.0	test	n/a	n/a	n/a	n/a	n/a	n/a	n/a	n/a	n/a	n/a	n/a	n/a	n/a	n/a	n/a	n/a	n/a	n/a	fixation
303449.00657426682	2750	n/a	1220	89	2750	716.993425733	stim	stop-signal	703	1860420	0.0-27.18-1.18	beast_fmri_test	301	1858147,/,1858827,/,1859507,/,1860187,/,1860867,/	t,t,t,t,t	<img class = center src='/static/experiments/beast_fmri_test/images/V.png'></img>	89,71	2750.0	test	<img class = center src='/static/experiments/beast_fmri_test/images/redV.png'></img>	go	2450.0	1.0	18.0	go	non-target	V	89,Yellow Button	71,Green Button	200.0	300.0	2550.0	2450.0	0.0	300.0	0.0	n/a	go_stim
306199.00657426682	716.99342573318904	n/a	1220	89	2750	716.993425733	stim	stop-signal	703	1860420	0.0-27.18-1.18	beast_fmri_test	301	1858147,/,1858827,/,1859507,/,1860187,/,1860867,/	t,t,t,t,t	<img class = center src='/static/experiments/beast_fmri_test/images/V.png'></img>	89,71	2750.0	test	<img class = center src='/static/experiments/beast_fmri_test/images/redV.png'></img>	go	2450.0	1.0	18.0	go	non-target	V	89,Yellow Button	71,Green Button	200.0	300.0	2550.0	2450.0	0.0	300.0	0.0	n/a	ITI
308159	500	n/a	-1	-1	500	0.0	fixation	poldrack-single-stim	704	1861663	0.0-27.19-0.19	beast_fmri_test	301	1861547,/	t	<div class = centerbox><div class = fixation>+</div></div>	none	500.0	test	n/a	n/a	n/a	n/a	n/a	n/a	n/a	n/a	n/a	n/a	n/a	n/a	n/a	n/a	n/a	n/a	n/a	n/a	fixation
306832.05298271379	200.0	n/a	766	71	2750	1328.94701729	stim	stop-signal	705	1864415	0.0-27.19-1.19	beast_fmri_test	301	1862227,/,1862907,/,1863587,/,1864267,/,1864947,/,1865627,/	t,t,t,t,t,t	<img class = center src='/static/experiments/beast_fmri_test/images/V.png'></img>	89,71	2750.0	test	<img class = center src='/static/experiments/beast_fmri_test/images/redV.png'></img>	stop	2550.0	1.0	19.0	stop	target	V	89,Yellow Button	71,Green Button	200.0	300.0	2550.0	2450.0	0.0	200.0	0.0	0.0	go_stim
309382.05298271379	2550.0	n/a	766	71	2750	1328.94701729	stim	stop-signal	705	1864415	0.0-27.19-1.19	beast_fmri_test	301	1862227,/,1862907,/,1863587,/,1864267,/,1864947,/,1865627,/	t,t,t,t,t,t	<img class = center src='/static/experiments/beast_fmri_test/images/V.png'></img>	89,71	2750.0	test	<img class = center src='/static/experiments/beast_fmri_test/images/redV.png'></img>	stop	2550.0	1.0	19.0	stop	target	V	89,Yellow Button	71,Green Button	200.0	300.0	2550.0	2450.0	0.0	200.0	0.0	0.0	stop_stim
309582.05298271379	1328.94701728628	n/a	766	71	2750	1328.94701729	stim	stop-signal	705	1864415	0.0-27.19-1.19	beast_fmri_test	301	1862227,/,1862907,/,1863587,/,1864267,/,1864947,/,1865627,/	t,t,t,t,t,t	<img class = center src='/static/experiments/beast_fmri_test/images/V.png'></img>	89,71	2750.0	test	<img class = center src='/static/experiments/beast_fmri_test/images/redV.png'></img>	stop	2550.0	1.0	19.0	stop	target	V	89,Yellow Button	71,Green Button	200.0	300.0	2550.0	2450.0	0.0	200.0	0.0	0.0	ITI
312767	500	n/a	-1	-1	500	0.0	fixation	poldrack-single-stim	706	1866271	0.0-27.20-0.20	beast_fmri_test	301	n/a	n/a	<div class = centerbox><div class = fixation>+</div></div>	none	500.0	test	n/a	n/a	n/a	n/a	n/a	n/a	n/a	n/a	n/a	n/a	n/a	n/a	n/a	n/a	n/a	n/a	n/a	n/a	fixation
312417.72664682195	2750	n/a	505	89	2750	350.273353178	stim	stop-signal	707	1869022	0.0-27.20-1.20	beast_fmri_test	301	1866307,/,1866988,/,1867667,/,1868346,/,1869026,/	t,t,t,t,t	<img class = center src='/static/experiments/beast_fmri_test/images/T.png'></img>	89,71	2750.0	test	<img class = center src='/static/experiments/beast_fmri_test/images/redT.png'></img>	go	2450.0	1.0	20.0	go	non-target	T	89,Yellow Button	71,Green Button	150.0	300.0	2550.0	2450.0	0.0	300.0	0.0	n/a	go_stim
315167.72664682195	350.27335317795502	n/a	505	89	2750	350.273353178	stim	stop-signal	707	1869022	0.0-27.20-1.20	beast_fmri_test	301	1866307,/,1866988,/,1867667,/,1868346,/,1869026,/	t,t,t,t,t	<img class = center src='/static/experiments/beast_fmri_test/images/T.png'></img>	89,71	2750.0	test	<img class = center src='/static/experiments/beast_fmri_test/images/redT.png'></img>	go	2450.0	1.0	20.0	go	non-target	T	89,Yellow Button	71,Green Button	150.0	300.0	2550.0	2450.0	0.0	300.0	0.0	n/a	ITI
316398	500	n/a	-1	-1	500	0.0	fixation	poldrack-single-stim	708	1869902	0.0-27.21-0.21	beast_fmri_test	301	1869706,/	t	<div class = centerbox><div class = fixation>+</div></div>	none	500.0	test	n/a	n/a	n/a	n/a	n/a	n/a	n/a	n/a	n/a	n/a	n/a	n/a	n/a	n/a	n/a	n/a	n/a	n/a	fixation
315855.39159587258	150.0	n/a	-1	-1	2750	544.608404127	stim	stop-signal	709	1872654	0.0-27.21-1.21	beast_fmri_test	301	1870387,/,1871067,/,1871747,/,1872426,/,1873107,/	t,t,t,t,t	<img class = center src='/static/experiments/beast_fmri_test/images/T.png'></img>	89,71	2750.0	test	<img class = center src='/static/experiments/beast_fmri_test/images/redT.png'></img>	stop	2600.0	1.0	21.0	stop	target	T	89,Yellow Button	71,Green Button	150.0	300.0	2600.0	2450.0	0.0	150.0	0.0	1.0	go_stim
318455.39159587258	2600.0	n/a	-1	-1	2750	544.608404127	stim	stop-signal	709	1872654	0.0-27.21-1.21	beast_fmri_test	301	1870387,/,1871067,/,1871747,/,1872426,/,1873107,/	t,t,t,t,t	<img class = center src='/static/experiments/beast_fmri_test/images/T.png'></img>	89,71	2750.0	test	<img class = center src='/static/experiments/beast_fmri_test/images/redT.png'></img>	stop	2600.0	1.0	21.0	stop	target	T	89,Yellow Button	71,Green Button	150.0	300.0	2600.0	2450.0	0.0	150.0	0.0	1.0	stop_stim
318605.39159587258	544.60840412733103	n/a	-1	-1	2750	544.608404127	stim	stop-signal	709	1872654	0.0-27.21-1.21	beast_fmri_test	301	1870387,/,1871067,/,1871747,/,1872426,/,1873107,/	t,t,t,t,t	<img class = center src='/static/experiments/beast_fmri_test/images/T.png'></img>	89,71	2750.0	test	<img class = center src='/static/experiments/beast_fmri_test/images/redT.png'></img>	stop	2600.0	1.0	21.0	stop	target	T	89,Yellow Button	71,Green Button	150.0	300.0	2600.0	2450.0	0.0	150.0	0.0	1.0	ITI
320217	500	n/a	-1	-1	500	0.0	fixation	poldrack-single-stim	710	1873721	0.0-27.22-0.22	beast_fmri_test	301	n/a	n/a	<div class = centerbox><div class = fixation>+</div></div>	none	500.0	test	n/a	n/a	n/a	n/a	n/a	n/a	n/a	n/a	n/a	n/a	n/a	n/a	n/a	n/a	n/a	n/a	n/a	n/a	fixation
