onset	duration	text	rt	key_press	block_duration	timing_post_trial	trial_id	trial_type	trial_index	time_elapsed	internal_node_id	exp_id	subject_id	trigger_times	triggers	stimulus	possible_responses	stim_duration	exp_stage	SS_stimulus	SS_trial_type	SS_duration	load	trial_num	stop_trial_type	adaptive_trial_type	stim	yes_response_key	no_response_key	SSD_target	SSD_non_target	SSTarget	SSNonTarget	go_acc	SS_delay	adaptive_acc	stop_acc	new_trial_type
test	10880.0	n/a	-1	-1	10880	0.0	practice-no-stop-feedback	poldrack-single-stim	384	1045614	0.0-18.0	beast_fmri_test	301	1034733,/,1035412,/,1036092,/,1036772,/,1037452,/,1038132,/,1038812,/,1039492,/,1040172,/,1040852,/,1041532,/,1042212,/,1042893,/,1043572,/,1044252,/,1044932,/,1045612,/	t,t,t,t,t,t,t,t,t,t,t,t,t,t,t,t,t	"<div class = ""centerbox""><p class = ""center-block-text"">Your delay is 1 trials.</p><p class = center-block-text>Please wait for the scanner to start the block</p></div>"	77	10880.0	n/a	n/a	n/a	n/a	n/a	n/a	n/a	n/a	n/a	n/a	n/a	n/a	n/a	n/a	n/a	n/a	n/a	n/a	n/a	start_functional_block
11383	500.0	n/a	-1	-1	500	0.0	fixation	poldrack-single-stim	385	1046116	0.0-19.0-0.0	beast_fmri_test	301	n/a	n/a	<div class = centerbox><div class = fixation>+</div></div>	none	500.0	test	n/a	n/a	n/a	n/a	n/a	n/a	n/a	n/a	n/a	n/a	n/a	n/a	n/a	n/a	n/a	n/a	n/a	n/a	fixation
10720.767114381772	2750.0	n/a	981	89	2750	663.232885618	stim	stop-signal	386	1048867	0.0-19.0-1.0	beast_fmri_test	301	1046292,/,1046972,/,1047652,/,1048332,/,1049012,/	t,t,t,t,t	<img class = center src='/static/experiments/beast_fmri_test/images/V.png'></img>	89,71	2750.0	test	<img class = center src='/static/experiments/beast_fmri_test/images/redV.png'></img>	go	-1.0	1.0	0.0	go	temp-non-target	V	89,Yellow Button	71,Green Button	300.0	600.0	2450.0	2100.0	0.0	n/a	n/a	n/a	go_stim
13470.767114381772	663.232885618	n/a	981	89	2750	663.232885618	stim	stop-signal	386	1048867	0.0-19.0-1.0	beast_fmri_test	301	1046292,/,1046972,/,1047652,/,1048332,/,1049012,/	t,t,t,t,t	<img class = center src='/static/experiments/beast_fmri_test/images/V.png'></img>	89,71	2750.0	test	<img class = center src='/static/experiments/beast_fmri_test/images/redV.png'></img>	go	-1.0	1.0	0.0	go	temp-non-target	V	89,Yellow Button	71,Green Button	300.0	600.0	2450.0	2100.0	0.0	n/a	n/a	n/a	ITI
15318	500.0	n/a	-1	-1	500	0.0	fixation	poldrack-single-stim	387	1050051	0.0-19.1-0.1	beast_fmri_test	301	1049692,/	t	<div class = centerbox><div class = fixation>+</div></div>	none	500.0	test	n/a	n/a	n/a	n/a	n/a	n/a	n/a	n/a	n/a	n/a	n/a	n/a	n/a	n/a	n/a	n/a	n/a	n/a	fixation
14197.613943032455	2750.0	n/a	523	89	2750	1122.38605697	stim	stop-signal	388	1052803	0.0-19.1-1.1	beast_fmri_test	301	1050372,/,1051053,/,1051733,/,1052413,/,1053094,/,1053773,/	t,t,t,t,t,t	<img class = center src='/static/experiments/beast_fmri_test/images/P.png'></img>	89,71	2750.0	test	<img class = center src='/static/experiments/beast_fmri_test/images/redP.png'></img>	go	2150.0	1.0	1.0	go	non-target	P	89,Yellow Button	71,Green Button	300.0	600.0	2450.0	2150.0	0.0	600.0	0.0	n/a	go_stim
16947.613943032455	1122.38605697	n/a	523	89	2750	1122.38605697	stim	stop-signal	388	1052803	0.0-19.1-1.1	beast_fmri_test	301	1050372,/,1051053,/,1051733,/,1052413,/,1053094,/,1053773,/	t,t,t,t,t,t	<img class = center src='/static/experiments/beast_fmri_test/images/P.png'></img>	89,71	2750.0	test	<img class = center src='/static/experiments/beast_fmri_test/images/redP.png'></img>	go	2150.0	1.0	1.0	go	non-target	P	89,Yellow Button	71,Green Button	300.0	600.0	2450.0	2150.0	0.0	600.0	0.0	n/a	ITI
19711	500.0	n/a	-1	-1	500	0.0	fixation	poldrack-single-stim	389	1054444	0.0-19.2-0.2	beast_fmri_test	301	n/a	n/a	<div class = centerbox><div class = fixation>+</div></div>	none	500.0	test	n/a	n/a	n/a	n/a	n/a	n/a	n/a	n/a	n/a	n/a	n/a	n/a	n/a	n/a	n/a	n/a	n/a	n/a	fixation
18872.493750880007	600.0	n/a	532	89	2750	840.50624912	stim	stop-signal	390	1057196	0.0-19.2-1.2	beast_fmri_test	301	1054453,/,1055133,/,1055813,/,1056493,/,1057173,/,1057853,/	t,t,t,t,t,t	<img class = center src='/static/experiments/beast_fmri_test/images/D.png'></img>	89,71	2750.0	test	<img class = center src='/static/experiments/beast_fmri_test/images/redD.png'></img>	stop	2150.0	1.0	2.0	stop	non-target	D	89,Yellow Button	71,Green Button	300.0	600.0	2450.0	2150.0	0.0	600.0	0.0	0.0	go_stim
21022.493750880007	2150.0	n/a	532	89	2750	840.50624912	stim	stop-signal	390	1057196	0.0-19.2-1.2	beast_fmri_test	301	1054453,/,1055133,/,1055813,/,1056493,/,1057173,/,1057853,/	t,t,t,t,t,t	<img class = center src='/static/experiments/beast_fmri_test/images/D.png'></img>	89,71	2750.0	test	<img class = center src='/static/experiments/beast_fmri_test/images/redD.png'></img>	stop	2150.0	1.0	2.0	stop	non-target	D	89,Yellow Button	71,Green Button	300.0	600.0	2450.0	2150.0	0.0	600.0	0.0	0.0	stop_stim
21622.493750880007	840.50624912	n/a	532	89	2750	840.50624912	stim	stop-signal	390	1057196	0.0-19.2-1.2	beast_fmri_test	301	1054453,/,1055133,/,1055813,/,1056493,/,1057173,/,1057853,/	t,t,t,t,t,t	<img class = center src='/static/experiments/beast_fmri_test/images/D.png'></img>	89,71	2750.0	test	<img class = center src='/static/experiments/beast_fmri_test/images/redD.png'></img>	stop	2150.0	1.0	2.0	stop	non-target	D	89,Yellow Button	71,Green Button	300.0	600.0	2450.0	2150.0	0.0	600.0	0.0	0.0	ITI
23824	500.0	n/a	-1	-1	500	0.0	fixation	poldrack-single-stim	391	1058557	0.0-19.3-0.3	beast_fmri_test	301	1058533,/	t	<div class = centerbox><div class = fixation>+</div></div>	none	500.0	test	n/a	n/a	n/a	n/a	n/a	n/a	n/a	n/a	n/a	n/a	n/a	n/a	n/a	n/a	n/a	n/a	n/a	n/a	fixation
23017.413334248355	550.0	n/a	580	89	2750	807.586665752	stim	stop-signal	392	1061308	0.0-19.3-1.3	beast_fmri_test	301	1059213,/,1059893,/,1060573,/,1061253,/,1061933,/	t,t,t,t,t	<img class = center src='/static/experiments/beast_fmri_test/images/P.png'></img>	89,71	2750.0	test	<img class = center src='/static/experiments/beast_fmri_test/images/redP.png'></img>	stop	2200.0	1.0	3.0	stop	non-target	P	89,Yellow Button	71,Green Button	300.0	550.0	2450.0	2200.0	0.0	550.0	0.0	0.0	go_stim
25217.413334248355	2200.0	n/a	580	89	2750	807.586665752	stim	stop-signal	392	1061308	0.0-19.3-1.3	beast_fmri_test	301	1059213,/,1059893,/,1060573,/,1061253,/,1061933,/	t,t,t,t,t	<img class = center src='/static/experiments/beast_fmri_test/images/P.png'></img>	89,71	2750.0	test	<img class = center src='/static/experiments/beast_fmri_test/images/redP.png'></img>	stop	2200.0	1.0	3.0	stop	non-target	P	89,Yellow Button	71,Green Button	300.0	550.0	2450.0	2200.0	0.0	550.0	0.0	0.0	stop_stim
25767.413334248355	807.586665752	n/a	580	89	2750	807.586665752	stim	stop-signal	392	1061308	0.0-19.3-1.3	beast_fmri_test	301	1059213,/,1059893,/,1060573,/,1061253,/,1061933,/	t,t,t,t,t	<img class = center src='/static/experiments/beast_fmri_test/images/P.png'></img>	89,71	2750.0	test	<img class = center src='/static/experiments/beast_fmri_test/images/redP.png'></img>	stop	2200.0	1.0	3.0	stop	non-target	P	89,Yellow Button	71,Green Button	300.0	550.0	2450.0	2200.0	0.0	550.0	0.0	0.0	ITI
27900	500.0	n/a	-1	-1	500	0.0	fixation	poldrack-single-stim	393	1062633	0.0-19.4-0.4	beast_fmri_test	301	1062613,/	t	<div class = centerbox><div class = fixation>+</div></div>	none	500.0	test	n/a	n/a	n/a	n/a	n/a	n/a	n/a	n/a	n/a	n/a	n/a	n/a	n/a	n/a	n/a	n/a	n/a	n/a	fixation
27617.026756620966	2750.0	n/a	489	71	2750	284.973243379	stim	stop-signal	394	1065385	0.0-19.4-1.4	beast_fmri_test	301	1063293,/,1063973,/,1064653,/,1065333,/	t,t,t,t	<img class = center src='/static/experiments/beast_fmri_test/images/P.png'></img>	89,71	2750.0	test	<img class = center src='/static/experiments/beast_fmri_test/images/redP.png'></img>	go	2450.0	1.0	4.0	go	target	P	89,Yellow Button	71,Green Button	300.0	500.0	2450.0	2200.0	0.0	300.0	0.0	n/a	go_stim
30367.026756620966	284.973243379	n/a	489	71	2750	284.973243379	stim	stop-signal	394	1065385	0.0-19.4-1.4	beast_fmri_test	301	1063293,/,1063973,/,1064653,/,1065333,/	t,t,t,t	<img class = center src='/static/experiments/beast_fmri_test/images/P.png'></img>	89,71	2750.0	test	<img class = center src='/static/experiments/beast_fmri_test/images/redP.png'></img>	go	2450.0	1.0	4.0	go	target	P	89,Yellow Button	71,Green Button	300.0	500.0	2450.0	2200.0	0.0	300.0	0.0	n/a	ITI
31458	500.0	n/a	-1	-1	500	0.0	fixation	poldrack-single-stim	395	1066191	0.0-19.5-0.5	beast_fmri_test	301	1066013,/	t	<div class = centerbox><div class = fixation>+</div></div>	none	500.0	test	n/a	n/a	n/a	n/a	n/a	n/a	n/a	n/a	n/a	n/a	n/a	n/a	n/a	n/a	n/a	n/a	n/a	n/a	fixation
31217.015456752852	500.0	n/a	661	89	2750	242.984543247	stim	stop-signal	396	1068943	0.0-19.5-1.5	beast_fmri_test	301	1066693,/,1067372,/,1068053,/,1068733,/	t,t,t,t	<img class = center src='/static/experiments/beast_fmri_test/images/V.png'></img>	89,71	2750.0	test	<img class = center src='/static/experiments/beast_fmri_test/images/redV.png'></img>	stop	2250.0	1.0	5.0	stop	non-target	V	89,Yellow Button	71,Green Button	300.0	500.0	2450.0	2250.0	0.0	500.0	0.0	0.0	go_stim
33467.015456752852	2250.0	n/a	661	89	2750	242.984543247	stim	stop-signal	396	1068943	0.0-19.5-1.5	beast_fmri_test	301	1066693,/,1067372,/,1068053,/,1068733,/	t,t,t,t	<img class = center src='/static/experiments/beast_fmri_test/images/V.png'></img>	89,71	2750.0	test	<img class = center src='/static/experiments/beast_fmri_test/images/redV.png'></img>	stop	2250.0	1.0	5.0	stop	non-target	V	89,Yellow Button	71,Green Button	300.0	500.0	2450.0	2250.0	0.0	500.0	0.0	0.0	stop_stim
33967.015456752852	242.984543247	n/a	661	89	2750	242.984543247	stim	stop-signal	396	1068943	0.0-19.5-1.5	beast_fmri_test	301	1066693,/,1067372,/,1068053,/,1068733,/	t,t,t,t	<img class = center src='/static/experiments/beast_fmri_test/images/V.png'></img>	89,71	2750.0	test	<img class = center src='/static/experiments/beast_fmri_test/images/redV.png'></img>	stop	2250.0	1.0	5.0	stop	non-target	V	89,Yellow Button	71,Green Button	300.0	500.0	2450.0	2250.0	0.0	500.0	0.0	0.0	ITI
34975	500.0	n/a	-1	-1	500	0.0	fixation	poldrack-single-stim	397	1069708	0.0-19.6-0.6	beast_fmri_test	301	1069413,/	t	<div class = centerbox><div class = fixation>+</div></div>	none	500.0	test	n/a	n/a	n/a	n/a	n/a	n/a	n/a	n/a	n/a	n/a	n/a	n/a	n/a	n/a	n/a	n/a	n/a	n/a	fixation
33339.482765190536	2750.0	n/a	581	89	2750	1637.51723481	stim	stop-signal	398	1072460	0.0-19.6-1.6	beast_fmri_test	301	1070093,/,1070773,/,1071452,/,1072133,/,1072813,/,1073494,/	t,t,t,t,t,t	<img class = center src='/static/experiments/beast_fmri_test/images/D.png'></img>	89,71	2750.0	test	<img class = center src='/static/experiments/beast_fmri_test/images/redD.png'></img>	go	2300.0	1.0	6.0	go	non-target	D	89,Yellow Button	71,Green Button	300.0	450.0	2450.0	2300.0	0.0	450.0	0.0	n/a	go_stim
36089.482765190536	1637.51723481	n/a	581	89	2750	1637.51723481	stim	stop-signal	398	1072460	0.0-19.6-1.6	beast_fmri_test	301	1070093,/,1070773,/,1071452,/,1072133,/,1072813,/,1073494,/	t,t,t,t,t,t	<img class = center src='/static/experiments/beast_fmri_test/images/D.png'></img>	89,71	2750.0	test	<img class = center src='/static/experiments/beast_fmri_test/images/redD.png'></img>	go	2300.0	1.0	6.0	go	non-target	D	89,Yellow Button	71,Green Button	300.0	450.0	2450.0	2300.0	0.0	450.0	0.0	n/a	ITI
39885	500.0	n/a	-1	-1	500	0.0	fixation	poldrack-single-stim	399	1074618	0.0-19.7-0.7	beast_fmri_test	301	1074173,/	t	<div class = centerbox><div class = fixation>+</div></div>	none	500.0	test	n/a	n/a	n/a	n/a	n/a	n/a	n/a	n/a	n/a	n/a	n/a	n/a	n/a	n/a	n/a	n/a	n/a	n/a	fixation
38569.847901920322	300.0	n/a	-1	-1	2750	1317.15209808	stim	stop-signal	400	1077370	0.0-19.7-1.7	beast_fmri_test	301	1074853,/,1075533,/,1076213,/,1076893,/,1077573,/,1078252,/	t,t,t,t,t,t	<img class = center src='/static/experiments/beast_fmri_test/images/D.png'></img>	89,71	2750.0	test	<img class = center src='/static/experiments/beast_fmri_test/images/redD.png'></img>	stop	2450.0	1.0	7.0	stop	target	D	89,Yellow Button	71,Green Button	300.0	450.0	2450.0	2300.0	0.0	300.0	0.0	1.0	go_stim
41019.847901920322	2450.0	n/a	-1	-1	2750	1317.15209808	stim	stop-signal	400	1077370	0.0-19.7-1.7	beast_fmri_test	301	1074853,/,1075533,/,1076213,/,1076893,/,1077573,/,1078252,/	t,t,t,t,t,t	<img class = center src='/static/experiments/beast_fmri_test/images/D.png'></img>	89,71	2750.0	test	<img class = center src='/static/experiments/beast_fmri_test/images/redD.png'></img>	stop	2450.0	1.0	7.0	stop	target	D	89,Yellow Button	71,Green Button	300.0	450.0	2450.0	2300.0	0.0	300.0	0.0	1.0	stop_stim
41319.847901920322	1317.15209808	n/a	-1	-1	2750	1317.15209808	stim	stop-signal	400	1077370	0.0-19.7-1.7	beast_fmri_test	301	1074853,/,1075533,/,1076213,/,1076893,/,1077573,/,1078252,/	t,t,t,t,t,t	<img class = center src='/static/experiments/beast_fmri_test/images/D.png'></img>	89,71	2750.0	test	<img class = center src='/static/experiments/beast_fmri_test/images/redD.png'></img>	stop	2450.0	1.0	7.0	stop	target	D	89,Yellow Button	71,Green Button	300.0	450.0	2450.0	2300.0	0.0	300.0	0.0	1.0	ITI
44475	500.0	n/a	-1	-1	500	0.0	fixation	poldrack-single-stim	401	1079208	0.0-19.8-0.8	beast_fmri_test	301	1078933,/	t	<div class = centerbox><div class = fixation>+</div></div>	none	500.0	test	n/a	n/a	n/a	n/a	n/a	n/a	n/a	n/a	n/a	n/a	n/a	n/a	n/a	n/a	n/a	n/a	n/a	n/a	fixation
44283.277814252535	450.0	n/a	721	89	2750	194.722185747	stim	stop-signal	402	1081961	0.0-19.8-1.8	beast_fmri_test	301	1079612,/,1080293,/,1080972,/,1081653,/	t,t,t,t	<img class = center src='/static/experiments/beast_fmri_test/images/B.png'></img>	89,71	2750.0	test	<img class = center src='/static/experiments/beast_fmri_test/images/redB.png'></img>	stop	2300.0	1.0	8.0	stop	non-target	B	89,Yellow Button	71,Green Button	350.0	450.0	2450.0	2300.0	0.0	450.0	0.0	0.0	go_stim
46583.277814252535	2300.0	n/a	721	89	2750	194.722185747	stim	stop-signal	402	1081961	0.0-19.8-1.8	beast_fmri_test	301	1079612,/,1080293,/,1080972,/,1081653,/	t,t,t,t	<img class = center src='/static/experiments/beast_fmri_test/images/B.png'></img>	89,71	2750.0	test	<img class = center src='/static/experiments/beast_fmri_test/images/redB.png'></img>	stop	2300.0	1.0	8.0	stop	non-target	B	89,Yellow Button	71,Green Button	350.0	450.0	2450.0	2300.0	0.0	450.0	0.0	0.0	stop_stim
47033.277814252535	194.722185747	n/a	721	89	2750	194.722185747	stim	stop-signal	402	1081961	0.0-19.8-1.8	beast_fmri_test	301	1079612,/,1080293,/,1080972,/,1081653,/	t,t,t,t	<img class = center src='/static/experiments/beast_fmri_test/images/B.png'></img>	89,71	2750.0	test	<img class = center src='/static/experiments/beast_fmri_test/images/redB.png'></img>	stop	2300.0	1.0	8.0	stop	non-target	B	89,Yellow Button	71,Green Button	350.0	450.0	2450.0	2300.0	0.0	450.0	0.0	0.0	ITI
47943	500.0	n/a	-1	-1	500	0.0	fixation	poldrack-single-stim	403	1082676	0.0-19.9-0.9	beast_fmri_test	301	1082332,/	t	<div class = centerbox><div class = fixation>+</div></div>	none	500.0	test	n/a	n/a	n/a	n/a	n/a	n/a	n/a	n/a	n/a	n/a	n/a	n/a	n/a	n/a	n/a	n/a	n/a	n/a	fixation
44784.030652708141	2750.0	n/a	694	71	2750	3160.96934729	stim	stop-signal	404	1085428	0.0-19.9-1.9	beast_fmri_test	301	1083013,/,1083693,/,1084373,/,1085053,/,1085734,/,1086413,/,1087094,/,1087773,/,1088454,/	t,t,t,t,t,t,t,t,t	<img class = center src='/static/experiments/beast_fmri_test/images/B.png'></img>	89,71	2750.0	test	<img class = center src='/static/experiments/beast_fmri_test/images/redB.png'></img>	go	2400.0	1.0	9.0	go	target	B	89,Yellow Button	71,Green Button	350.0	400.0	2400.0	2300.0	0.0	350.0	0.0	n/a	go_stim
47534.030652708141	3160.96934729	n/a	694	71	2750	3160.96934729	stim	stop-signal	404	1085428	0.0-19.9-1.9	beast_fmri_test	301	1083013,/,1083693,/,1084373,/,1085053,/,1085734,/,1086413,/,1087094,/,1087773,/,1088454,/	t,t,t,t,t,t,t,t,t	<img class = center src='/static/experiments/beast_fmri_test/images/B.png'></img>	89,71	2750.0	test	<img class = center src='/static/experiments/beast_fmri_test/images/redB.png'></img>	go	2400.0	1.0	9.0	go	target	B	89,Yellow Button	71,Green Button	350.0	400.0	2400.0	2300.0	0.0	350.0	0.0	n/a	ITI
54376	500.0	n/a	-1	-1	500	0.0	fixation	poldrack-single-stim	405	1089109	0.0-19.10-0.10	beast_fmri_test	301	n/a	n/a	<div class = centerbox><div class = fixation>+</div></div>	none	500.0	test	n/a	n/a	n/a	n/a	n/a	n/a	n/a	n/a	n/a	n/a	n/a	n/a	n/a	n/a	n/a	n/a	n/a	n/a	fixation
52381.511731338687	2750.0	n/a	1315	89	2750	1996.48826866	stim	stop-signal	406	1091861	0.0-19.10-1.10	beast_fmri_test	301	1089133,/,1089814,/,1090493,/,1091173,/,1091853,/,1092533,/,1093213,/	t,t,t,t,t,t,t	<img class = center src='/static/experiments/beast_fmri_test/images/T.png'></img>	89,71	2750.0	test	<img class = center src='/static/experiments/beast_fmri_test/images/redT.png'></img>	go	2350.0	1.0	10.0	go	non-target	T	89,Yellow Button	71,Green Button	350.0	400.0	2400.0	2350.0	0.0	400.0	0.0	n/a	go_stim
55131.511731338687	1996.48826866	n/a	1315	89	2750	1996.48826866	stim	stop-signal	406	1091861	0.0-19.10-1.10	beast_fmri_test	301	1089133,/,1089814,/,1090493,/,1091173,/,1091853,/,1092533,/,1093213,/	t,t,t,t,t,t,t	<img class = center src='/static/experiments/beast_fmri_test/images/T.png'></img>	89,71	2750.0	test	<img class = center src='/static/experiments/beast_fmri_test/images/redT.png'></img>	go	2350.0	1.0	10.0	go	non-target	T	89,Yellow Button	71,Green Button	350.0	400.0	2400.0	2350.0	0.0	400.0	0.0	n/a	ITI
59646	500.0	n/a	-1	-1	500	0.0	fixation	poldrack-single-stim	407	1094379	0.0-19.11-0.11	beast_fmri_test	301	1093894,/	t	<div class = centerbox><div class = fixation>+</div></div>	none	500.0	test	n/a	n/a	n/a	n/a	n/a	n/a	n/a	n/a	n/a	n/a	n/a	n/a	n/a	n/a	n/a	n/a	n/a	n/a	fixation
59153.543950479012	400.0	n/a	661	89	2750	494.456049521	stim	stop-signal	408	1097131	0.0-19.11-1.11	beast_fmri_test	301	1094573,/,1095253,/,1095933,/,1096613,/,1097293,/	t,t,t,t,t	<img class = center src='/static/experiments/beast_fmri_test/images/D.png'></img>	89,71	2750.0	test	<img class = center src='/static/experiments/beast_fmri_test/images/redD.png'></img>	stop	2350.0	1.0	11.0	stop	non-target	D	89,Yellow Button	71,Green Button	350.0	400.0	2400.0	2350.0	0.0	400.0	0.0	0.0	go_stim
61503.543950479012	2350.0	n/a	661	89	2750	494.456049521	stim	stop-signal	408	1097131	0.0-19.11-1.11	beast_fmri_test	301	1094573,/,1095253,/,1095933,/,1096613,/,1097293,/	t,t,t,t,t	<img class = center src='/static/experiments/beast_fmri_test/images/D.png'></img>	89,71	2750.0	test	<img class = center src='/static/experiments/beast_fmri_test/images/redD.png'></img>	stop	2350.0	1.0	11.0	stop	non-target	D	89,Yellow Button	71,Green Button	350.0	400.0	2400.0	2350.0	0.0	400.0	0.0	0.0	stop_stim
61903.543950479012	494.456049521	n/a	661	89	2750	494.456049521	stim	stop-signal	408	1097131	0.0-19.11-1.11	beast_fmri_test	301	1094573,/,1095253,/,1095933,/,1096613,/,1097293,/	t,t,t,t,t	<img class = center src='/static/experiments/beast_fmri_test/images/D.png'></img>	89,71	2750.0	test	<img class = center src='/static/experiments/beast_fmri_test/images/redD.png'></img>	stop	2350.0	1.0	11.0	stop	non-target	D	89,Yellow Button	71,Green Button	350.0	400.0	2400.0	2350.0	0.0	400.0	0.0	0.0	ITI
63409	500.0	n/a	-1	-1	500	0.0	fixation	poldrack-single-stim	409	1098142	0.0-19.12-0.12	beast_fmri_test	301	1097973,/	t	<div class = centerbox><div class = fixation>+</div></div>	none	500.0	test	n/a	n/a	n/a	n/a	n/a	n/a	n/a	n/a	n/a	n/a	n/a	n/a	n/a	n/a	n/a	n/a	n/a	n/a	fixation
62816.844614325557	2750.0	n/a	765	89	2750	594.155385674	stim	stop-signal	410	1100894	0.0-19.12-1.12	beast_fmri_test	301	1098653,/,1099333,/,1100013,/,1100693,/,1101373,/	t,t,t,t,t	<img class = center src='/static/experiments/beast_fmri_test/images/T.png'></img>	89,71	2750.0	test	<img class = center src='/static/experiments/beast_fmri_test/images/redT.png'></img>	go	2400.0	1.0	12.0	go	non-target	T	89,Yellow Button	71,Green Button	350.0	350.0	2400.0	2400.0	0.0	350.0	0.0	n/a	go_stim
65566.844614325557	594.155385674	n/a	765	89	2750	594.155385674	stim	stop-signal	410	1100894	0.0-19.12-1.12	beast_fmri_test	301	1098653,/,1099333,/,1100013,/,1100693,/,1101373,/	t,t,t,t,t	<img class = center src='/static/experiments/beast_fmri_test/images/T.png'></img>	89,71	2750.0	test	<img class = center src='/static/experiments/beast_fmri_test/images/redT.png'></img>	go	2400.0	1.0	12.0	go	non-target	T	89,Yellow Button	71,Green Button	350.0	350.0	2400.0	2400.0	0.0	350.0	0.0	n/a	ITI
67273	500.0	n/a	-1	-1	500	0.0	fixation	poldrack-single-stim	411	1102006	0.0-19.13-0.13	beast_fmri_test	301	n/a	n/a	<div class = centerbox><div class = fixation>+</div></div>	none	500.0	test	n/a	n/a	n/a	n/a	n/a	n/a	n/a	n/a	n/a	n/a	n/a	n/a	n/a	n/a	n/a	n/a	n/a	n/a	fixation
66580.121736914618	2750.0	n/a	720	71	2750	694.878263085	stim	stop-signal	412	1104758	0.0-19.13-1.13	beast_fmri_test	301	1102053,/,1102733,/,1103413,/,1104094,/,1104773,/,1105453,/	t,t,t,t,t,t	<img class = center src='/static/experiments/beast_fmri_test/images/T.png'></img>	89,71	2750.0	test	<img class = center src='/static/experiments/beast_fmri_test/images/redT.png'></img>	go	2400.0	1.0	13.0	go	target	T	89,Yellow Button	71,Green Button	350.0	350.0	2400.0	2400.0	0.0	350.0	0.0	n/a	go_stim
69330.121736914618	694.878263085	n/a	720	71	2750	694.878263085	stim	stop-signal	412	1104758	0.0-19.13-1.13	beast_fmri_test	301	1102053,/,1102733,/,1103413,/,1104094,/,1104773,/,1105453,/	t,t,t,t,t,t	<img class = center src='/static/experiments/beast_fmri_test/images/T.png'></img>	89,71	2750.0	test	<img class = center src='/static/experiments/beast_fmri_test/images/redT.png'></img>	go	2400.0	1.0	13.0	go	target	T	89,Yellow Button	71,Green Button	350.0	350.0	2400.0	2400.0	0.0	350.0	0.0	n/a	ITI
71236	500.0	n/a	-1	-1	500	0.0	fixation	poldrack-single-stim	413	1105969	0.0-19.14-0.14	beast_fmri_test	301	n/a	n/a	<div class = centerbox><div class = fixation>+</div></div>	none	500.0	test	n/a	n/a	n/a	n/a	n/a	n/a	n/a	n/a	n/a	n/a	n/a	n/a	n/a	n/a	n/a	n/a	n/a	n/a	fixation
70009.969903558725	2750.0	n/a	1875	71	2750	1228.03009644	stim	stop-signal	414	1108721	0.0-19.14-1.14	beast_fmri_test	301	1106133,/,1106813,/,1107493,/,1108173,/,1108853,/,1109533,/	t,t,t,t,t,t	<img class = center src='/static/experiments/beast_fmri_test/images/T.png'></img>	89,71	2750.0	test	<img class = center src='/static/experiments/beast_fmri_test/images/redT.png'></img>	go	2400.0	1.0	14.0	go	target	T	89,Yellow Button	71,Green Button	350.0	350.0	2400.0	2400.0	0.0	350.0	0.0	n/a	go_stim
72759.969903558725	1228.03009644	n/a	1875	71	2750	1228.03009644	stim	stop-signal	414	1108721	0.0-19.14-1.14	beast_fmri_test	301	1106133,/,1106813,/,1107493,/,1108173,/,1108853,/,1109533,/	t,t,t,t,t,t	<img class = center src='/static/experiments/beast_fmri_test/images/T.png'></img>	89,71	2750.0	test	<img class = center src='/static/experiments/beast_fmri_test/images/redT.png'></img>	go	2400.0	1.0	14.0	go	target	T	89,Yellow Button	71,Green Button	350.0	350.0	2400.0	2400.0	0.0	350.0	0.0	n/a	ITI
75736	500.0	n/a	-1	-1	500	0.0	fixation	poldrack-single-stim	415	1110469	0.0-19.15-0.15	beast_fmri_test	301	1110213,/	t	<div class = centerbox><div class = fixation>+</div></div>	none	500.0	test	n/a	n/a	n/a	n/a	n/a	n/a	n/a	n/a	n/a	n/a	n/a	n/a	n/a	n/a	n/a	n/a	n/a	n/a	fixation
73970.020542085404	2750.0	n/a	692	71	2750	1768.97945791	stim	stop-signal	416	1113222	0.0-19.15-1.15	beast_fmri_test	301	1110893,/,1111573,/,1112253,/,1112933,/,1113613,/,1114294,/,1114973,/	t,t,t,t,t,t,t	<img class = center src='/static/experiments/beast_fmri_test/images/T.png'></img>	89,71	2750.0	test	<img class = center src='/static/experiments/beast_fmri_test/images/redT.png'></img>	go	2400.0	1.0	15.0	go	target	T	89,Yellow Button	71,Green Button	350.0	350.0	2400.0	2400.0	0.0	350.0	0.0	n/a	go_stim
76720.020542085404	1768.97945791	n/a	692	71	2750	1768.97945791	stim	stop-signal	416	1113222	0.0-19.15-1.15	beast_fmri_test	301	1110893,/,1111573,/,1112253,/,1112933,/,1113613,/,1114294,/,1114973,/	t,t,t,t,t,t,t	<img class = center src='/static/experiments/beast_fmri_test/images/T.png'></img>	89,71	2750.0	test	<img class = center src='/static/experiments/beast_fmri_test/images/redT.png'></img>	go	2400.0	1.0	15.0	go	target	T	89,Yellow Button	71,Green Button	350.0	350.0	2400.0	2400.0	0.0	350.0	0.0	n/a	ITI
80777	500.0	n/a	-1	-1	500	0.0	fixation	poldrack-single-stim	417	1115510	0.0-19.16-0.16	beast_fmri_test	301	n/a	n/a	<div class = centerbox><div class = fixation>+</div></div>	none	500.0	test	n/a	n/a	n/a	n/a	n/a	n/a	n/a	n/a	n/a	n/a	n/a	n/a	n/a	n/a	n/a	n/a	n/a	n/a	fixation
80421.14782080031	2750.0	n/a	697	71	2750	357.8521792	stim	stop-signal	418	1118262	0.0-19.16-1.16	beast_fmri_test	301	1115653,/,1116333,/,1117013,/,1117693,/,1118374,/	t,t,t,t,t	<img class = center src='/static/experiments/beast_fmri_test/images/T.png'></img>	89,71	2750.0	test	<img class = center src='/static/experiments/beast_fmri_test/images/redT.png'></img>	go	2400.0	1.0	16.0	go	target	T	89,Yellow Button	71,Green Button	350.0	350.0	2400.0	2400.0	0.0	350.0	0.0	n/a	go_stim
83171.14782080031	357.8521792	n/a	697	71	2750	357.8521792	stim	stop-signal	418	1118262	0.0-19.16-1.16	beast_fmri_test	301	1115653,/,1116333,/,1117013,/,1117693,/,1118374,/	t,t,t,t,t	<img class = center src='/static/experiments/beast_fmri_test/images/T.png'></img>	89,71	2750.0	test	<img class = center src='/static/experiments/beast_fmri_test/images/redT.png'></img>	go	2400.0	1.0	16.0	go	target	T	89,Yellow Button	71,Green Button	350.0	350.0	2400.0	2400.0	0.0	350.0	0.0	n/a	ITI
84404	500.0	n/a	-1	-1	500	0.0	fixation	poldrack-single-stim	419	1119137	0.0-19.17-0.17	beast_fmri_test	301	1119054,/	t	<div class = centerbox><div class = fixation>+</div></div>	none	500.0	test	n/a	n/a	n/a	n/a	n/a	n/a	n/a	n/a	n/a	n/a	n/a	n/a	n/a	n/a	n/a	n/a	n/a	n/a	fixation
84087.967849280918	2750.0	n/a	1668	71	2750	318.032150719	stim	stop-signal	420	1121889	0.0-19.17-1.17	beast_fmri_test	301	1119734,/,1120414,/,1121094,/,1121774,/	t,t,t,t	<img class = center src='/static/experiments/beast_fmri_test/images/P.png'></img>	89,71	2750.0	test	<img class = center src='/static/experiments/beast_fmri_test/images/redP.png'></img>	go	2400.0	1.0	17.0	go	non-target	P	89,Yellow Button	71,Green Button	350.0	350.0	2400.0	2400.0	1.0	350.0	1.0	n/a	go_stim
86837.967849280918	318.032150719	n/a	1668	71	2750	318.032150719	stim	stop-signal	420	1121889	0.0-19.17-1.17	beast_fmri_test	301	1119734,/,1120414,/,1121094,/,1121774,/	t,t,t,t	<img class = center src='/static/experiments/beast_fmri_test/images/P.png'></img>	89,71	2750.0	test	<img class = center src='/static/experiments/beast_fmri_test/images/redP.png'></img>	go	2400.0	1.0	17.0	go	non-target	P	89,Yellow Button	71,Green Button	350.0	350.0	2400.0	2400.0	1.0	350.0	1.0	n/a	ITI
87993	500.0	n/a	-1	-1	500	0.0	fixation	poldrack-single-stim	421	1122726	0.0-19.18-0.18	beast_fmri_test	301	1122454,/	t	<div class = centerbox><div class = fixation>+</div></div>	none	500.0	test	n/a	n/a	n/a	n/a	n/a	n/a	n/a	n/a	n/a	n/a	n/a	n/a	n/a	n/a	n/a	n/a	n/a	n/a	fixation
84435.667942707893	2750.0	n/a	620	71	2750	3559.33205729	stim	stop-signal	422	1125478	0.0-19.18-1.18	beast_fmri_test	301	1123134,/,1123814,/,1124494,/,1125174,/,1125854,/,1126534,/,1127214,/,1127894,/,1128573,/	t,t,t,t,t,t,t,t,t	<img class = center src='/static/experiments/beast_fmri_test/images/P.png'></img>	89,71	2750.0	test	<img class = center src='/static/experiments/beast_fmri_test/images/redP.png'></img>	go	2400.0	1.0	18.0	go	target	P	89,Yellow Button	71,Green Button	350.0	350.0	2400.0	2400.0	0.0	350.0	0.0	n/a	go_stim
87185.667942707893	3559.33205729	n/a	620	71	2750	3559.33205729	stim	stop-signal	422	1125478	0.0-19.18-1.18	beast_fmri_test	301	1123134,/,1123814,/,1124494,/,1125174,/,1125854,/,1126534,/,1127214,/,1127894,/,1128573,/	t,t,t,t,t,t,t,t,t	<img class = center src='/static/experiments/beast_fmri_test/images/P.png'></img>	89,71	2750.0	test	<img class = center src='/static/experiments/beast_fmri_test/images/redP.png'></img>	go	2400.0	1.0	18.0	go	target	P	89,Yellow Button	71,Green Button	350.0	350.0	2400.0	2400.0	0.0	350.0	0.0	n/a	ITI
94825	500.0	n/a	-1	-1	500	0.0	fixation	poldrack-single-stim	423	1129558	0.0-19.19-0.19	beast_fmri_test	301	1129254,/	t	<div class = centerbox><div class = fixation>+</div></div>	none	500.0	test	n/a	n/a	n/a	n/a	n/a	n/a	n/a	n/a	n/a	n/a	n/a	n/a	n/a	n/a	n/a	n/a	n/a	n/a	fixation
91995.901390077081	2750.0	n/a	2057	89	2750	2831.09860992	stim	stop-signal	424	1132310	0.0-19.19-1.19	beast_fmri_test	301	1129934,/,1130614,/,1131293,/,1131974,/,1132654,/,1133334,/,1134013,/,1134694,/	t,t,t,t,t,t,t,t	<img class = center src='/static/experiments/beast_fmri_test/images/V.png'></img>	89,71	2750.0	test	<img class = center src='/static/experiments/beast_fmri_test/images/redV.png'></img>	go	2400.0	1.0	19.0	go	non-target	V	89,Yellow Button	71,Green Button	350.0	350.0	2400.0	2400.0	0.0	350.0	0.0	n/a	go_stim
94745.901390077081	2831.09860992	n/a	2057	89	2750	2831.09860992	stim	stop-signal	424	1132310	0.0-19.19-1.19	beast_fmri_test	301	1129934,/,1130614,/,1131293,/,1131974,/,1132654,/,1133334,/,1134013,/,1134694,/	t,t,t,t,t,t,t,t	<img class = center src='/static/experiments/beast_fmri_test/images/V.png'></img>	89,71	2750.0	test	<img class = center src='/static/experiments/beast_fmri_test/images/redV.png'></img>	go	2400.0	1.0	19.0	go	non-target	V	89,Yellow Button	71,Green Button	350.0	350.0	2400.0	2400.0	0.0	350.0	0.0	n/a	ITI
100926	500.0	n/a	-1	-1	500	0.0	fixation	poldrack-single-stim	425	1135659	0.0-19.20-0.20	beast_fmri_test	301	1135373,/	t	<div class = centerbox><div class = fixation>+</div></div>	none	500.0	test	n/a	n/a	n/a	n/a	n/a	n/a	n/a	n/a	n/a	n/a	n/a	n/a	n/a	n/a	n/a	n/a	n/a	n/a	fixation
99218.090401798487	2750.0	n/a	577	89	2750	1709.9095982	stim	stop-signal	426	1138411	0.0-19.20-1.20	beast_fmri_test	301	1136054,/,1136734,/,1137414,/,1138093,/,1138774,/,1139453,/	t,t,t,t,t,t	<img class = center src='/static/experiments/beast_fmri_test/images/T.png'></img>	89,71	2750.0	test	<img class = center src='/static/experiments/beast_fmri_test/images/redT.png'></img>	go	2400.0	1.0	20.0	go	non-target	T	89,Yellow Button	71,Green Button	350.0	350.0	2400.0	2400.0	0.0	350.0	0.0	n/a	go_stim
101968.09040179849	1709.9095982	n/a	577	89	2750	1709.9095982	stim	stop-signal	426	1138411	0.0-19.20-1.20	beast_fmri_test	301	1136054,/,1136734,/,1137414,/,1138093,/,1138774,/,1139453,/	t,t,t,t,t,t	<img class = center src='/static/experiments/beast_fmri_test/images/T.png'></img>	89,71	2750.0	test	<img class = center src='/static/experiments/beast_fmri_test/images/redT.png'></img>	go	2400.0	1.0	20.0	go	non-target	T	89,Yellow Button	71,Green Button	350.0	350.0	2400.0	2400.0	0.0	350.0	0.0	n/a	ITI
105909	500.0	n/a	-1	-1	500	0.0	fixation	poldrack-single-stim	427	1140642	0.0-19.21-0.21	beast_fmri_test	301	1140141,/	t	<div class = centerbox><div class = fixation>+</div></div>	none	500.0	test	n/a	n/a	n/a	n/a	n/a	n/a	n/a	n/a	n/a	n/a	n/a	n/a	n/a	n/a	n/a	n/a	n/a	n/a	fixation
105787.06231279951	350.0	n/a	646	89	2750	123.937687201	stim	stop-signal	428	1143394	0.0-19.21-1.21	beast_fmri_test	301	1140813,/,1141494,/,1142174,/,1142854,/	t,t,t,t	<img class = center src='/static/experiments/beast_fmri_test/images/B.png'></img>	89,71	2750.0	test	<img class = center src='/static/experiments/beast_fmri_test/images/redB.png'></img>	stop	2400.0	1.0	21.0	stop	non-target	B	89,Yellow Button	71,Green Button	350.0	350.0	2400.0	2400.0	0.0	350.0	0.0	0.0	go_stim
108187.06231279951	2400.0	n/a	646	89	2750	123.937687201	stim	stop-signal	428	1143394	0.0-19.21-1.21	beast_fmri_test	301	1140813,/,1141494,/,1142174,/,1142854,/	t,t,t,t	<img class = center src='/static/experiments/beast_fmri_test/images/B.png'></img>	89,71	2750.0	test	<img class = center src='/static/experiments/beast_fmri_test/images/redB.png'></img>	stop	2400.0	1.0	21.0	stop	non-target	B	89,Yellow Button	71,Green Button	350.0	350.0	2400.0	2400.0	0.0	350.0	0.0	0.0	stop_stim
108537.06231279951	123.937687201	n/a	646	89	2750	123.937687201	stim	stop-signal	428	1143394	0.0-19.21-1.21	beast_fmri_test	301	1140813,/,1141494,/,1142174,/,1142854,/	t,t,t,t	<img class = center src='/static/experiments/beast_fmri_test/images/B.png'></img>	89,71	2750.0	test	<img class = center src='/static/experiments/beast_fmri_test/images/redB.png'></img>	stop	2400.0	1.0	21.0	stop	non-target	B	89,Yellow Button	71,Green Button	350.0	350.0	2400.0	2400.0	0.0	350.0	0.0	0.0	ITI
109307	500.0	n/a	-1	-1	500	0.0	fixation	poldrack-single-stim	429	1144040	0.0-19.22-0.22	beast_fmri_test	301	1143539,/	t	<div class = centerbox><div class = fixation>+</div></div>	none	500.0	test	n/a	n/a	n/a	n/a	n/a	n/a	n/a	n/a	n/a	n/a	n/a	n/a	n/a	n/a	n/a	n/a	n/a	n/a	fixation
108893.89141010167	2750.0	n/a	975	89	2750	416.108589898	stim	stop-signal	430	1146793	0.0-19.22-1.22	beast_fmri_test	301	1144214,/,1144894,/,1145573,/,1146254,/,1146933,/	t,t,t,t,t	<img class = center src='/static/experiments/beast_fmri_test/images/T.png'></img>	89,71	2750.0	test	<img class = center src='/static/experiments/beast_fmri_test/images/redT.png'></img>	go	2450.0	1.0	22.0	go	non-target	T	89,Yellow Button	71,Green Button	350.0	300.0	2400.0	2450.0	0.0	300.0	0.0	n/a	go_stim
111643.89141010167	416.108589898	n/a	975	89	2750	416.108589898	stim	stop-signal	430	1146793	0.0-19.22-1.22	beast_fmri_test	301	1144214,/,1144894,/,1145573,/,1146254,/,1146933,/	t,t,t,t,t	<img class = center src='/static/experiments/beast_fmri_test/images/T.png'></img>	89,71	2750.0	test	<img class = center src='/static/experiments/beast_fmri_test/images/redT.png'></img>	go	2450.0	1.0	22.0	go	non-target	T	89,Yellow Button	71,Green Button	350.0	300.0	2400.0	2450.0	0.0	300.0	0.0	n/a	ITI
112996	500.0	n/a	-1	-1	500	0.0	fixation	poldrack-single-stim	431	1147729	0.0-19.23-0.23	beast_fmri_test	301	1147613,/	t	<div class = centerbox><div class = fixation>+</div></div>	none	500.0	test	n/a	n/a	n/a	n/a	n/a	n/a	n/a	n/a	n/a	n/a	n/a	n/a	n/a	n/a	n/a	n/a	n/a	n/a	fixation
112939.67206223682	2750.0	n/a	561	71	2750	58.3279377631	stim	stop-signal	432	1150481	0.0-19.23-1.23	beast_fmri_test	301	1148293,/,1148973,/,1149654,/,1150333,/	t,t,t,t	<img class = center src='/static/experiments/beast_fmri_test/images/T.png'></img>	89,71	2750.0	test	<img class = center src='/static/experiments/beast_fmri_test/images/redT.png'></img>	go	2400.0	1.0	23.0	go	target	T	89,Yellow Button	71,Green Button	350.0	300.0	2400.0	2450.0	0.0	350.0	0.0	n/a	go_stim
115689.67206223682	58.3279377631	n/a	561	71	2750	58.3279377631	stim	stop-signal	432	1150481	0.0-19.23-1.23	beast_fmri_test	301	1148293,/,1148973,/,1149654,/,1150333,/	t,t,t,t	<img class = center src='/static/experiments/beast_fmri_test/images/T.png'></img>	89,71	2750.0	test	<img class = center src='/static/experiments/beast_fmri_test/images/redT.png'></img>	go	2400.0	1.0	23.0	go	target	T	89,Yellow Button	71,Green Button	350.0	300.0	2400.0	2450.0	0.0	350.0	0.0	n/a	ITI
116323	500.0	n/a	-1	-1	500	0.0	fixation	poldrack-single-stim	433	1151056	0.0-19.24-0.24	beast_fmri_test	301	1151015,/	t	<div class = centerbox><div class = fixation>+</div></div>	none	500.0	test	n/a	n/a	n/a	n/a	n/a	n/a	n/a	n/a	n/a	n/a	n/a	n/a	n/a	n/a	n/a	n/a	n/a	n/a	fixation
116216.00769992918	2750.0	n/a	1676	89	2750	108.992300071	stim	stop-signal	434	1153808	0.0-19.24-1.24	beast_fmri_test	301	1151695,/,1152374,/,1153054,/,1153734,/	t,t,t,t	<img class = center src='/static/experiments/beast_fmri_test/images/V.png'></img>	89,71	2750.0	test	<img class = center src='/static/experiments/beast_fmri_test/images/redV.png'></img>	go	2450.0	1.0	24.0	go	non-target	V	89,Yellow Button	71,Green Button	350.0	300.0	2400.0	2450.0	0.0	300.0	0.0	n/a	go_stim
118966.00769992918	108.992300071	n/a	1676	89	2750	108.992300071	stim	stop-signal	434	1153808	0.0-19.24-1.24	beast_fmri_test	301	1151695,/,1152374,/,1153054,/,1153734,/	t,t,t,t	<img class = center src='/static/experiments/beast_fmri_test/images/V.png'></img>	89,71	2750.0	test	<img class = center src='/static/experiments/beast_fmri_test/images/redV.png'></img>	go	2450.0	1.0	24.0	go	non-target	V	89,Yellow Button	71,Green Button	350.0	300.0	2400.0	2450.0	0.0	300.0	0.0	n/a	ITI
119701	500.0	n/a	-1	-1	500	0.0	fixation	poldrack-single-stim	435	1154434	0.0-19.25-0.25	beast_fmri_test	301	1154415,/	t	<div class = centerbox><div class = fixation>+</div></div>	none	500.0	test	n/a	n/a	n/a	n/a	n/a	n/a	n/a	n/a	n/a	n/a	n/a	n/a	n/a	n/a	n/a	n/a	n/a	n/a	fixation
117688.69179547904	2750.0	n/a	2322	89	2750	2014.30820452	stim	stop-signal	436	1157186	0.0-19.25-1.25	beast_fmri_test	301	1155095,/,1155774,/,1156454,/,1157134,/,1157814,/,1158494,/,1159174,/	t,t,t,t,t,t,t	<img class = center src='/static/experiments/beast_fmri_test/images/P.png'></img>	89,71	2750.0	test	<img class = center src='/static/experiments/beast_fmri_test/images/redP.png'></img>	go	2450.0	1.0	25.0	go	non-target	P	89,Yellow Button	71,Green Button	350.0	300.0	2400.0	2450.0	0.0	300.0	0.0	n/a	go_stim
120438.69179547904	2014.30820452	n/a	2322	89	2750	2014.30820452	stim	stop-signal	436	1157186	0.0-19.25-1.25	beast_fmri_test	301	1155095,/,1155774,/,1156454,/,1157134,/,1157814,/,1158494,/,1159174,/	t,t,t,t,t,t,t	<img class = center src='/static/experiments/beast_fmri_test/images/P.png'></img>	89,71	2750.0	test	<img class = center src='/static/experiments/beast_fmri_test/images/redP.png'></img>	go	2450.0	1.0	25.0	go	non-target	P	89,Yellow Button	71,Green Button	350.0	300.0	2400.0	2450.0	0.0	300.0	0.0	n/a	ITI
124985	500.0	n/a	-1	-1	500	0.0	fixation	poldrack-single-stim	437	1159718	0.0-19.26-0.26	beast_fmri_test	301	n/a	n/a	<div class = centerbox><div class = fixation>+</div></div>	none	500.0	test	n/a	n/a	n/a	n/a	n/a	n/a	n/a	n/a	n/a	n/a	n/a	n/a	n/a	n/a	n/a	n/a	n/a	n/a	fixation
124239.95372452587	2750.0	n/a	1755	89	2750	747.046275474	stim	stop-signal	438	1162470	0.0-19.26-1.26	beast_fmri_test	301	1159854,/,1160534,/,1161214,/,1161894,/,1162574,/	t,t,t,t,t	<img class = center src='/static/experiments/beast_fmri_test/images/T.png'></img>	89,71	2750.0	test	<img class = center src='/static/experiments/beast_fmri_test/images/redT.png'></img>	go	2450.0	1.0	26.0	go	non-target	T	89,Yellow Button	71,Green Button	350.0	300.0	2400.0	2450.0	0.0	300.0	0.0	n/a	go_stim
126989.95372452587	747.046275474	n/a	1755	89	2750	747.046275474	stim	stop-signal	438	1162470	0.0-19.26-1.26	beast_fmri_test	301	1159854,/,1160534,/,1161214,/,1161894,/,1162574,/	t,t,t,t,t	<img class = center src='/static/experiments/beast_fmri_test/images/T.png'></img>	89,71	2750.0	test	<img class = center src='/static/experiments/beast_fmri_test/images/redT.png'></img>	go	2450.0	1.0	26.0	go	non-target	T	89,Yellow Button	71,Green Button	350.0	300.0	2400.0	2450.0	0.0	300.0	0.0	n/a	ITI
129005	500.0	n/a	-1	-1	500	0.0	fixation	poldrack-single-stim	439	1163738	0.0-19.27-0.27	beast_fmri_test	301	1163254,/	t	<div class = centerbox><div class = fixation>+</div></div>	none	500.0	test	n/a	n/a	n/a	n/a	n/a	n/a	n/a	n/a	n/a	n/a	n/a	n/a	n/a	n/a	n/a	n/a	n/a	n/a	fixation
127304.0453344665	350.0	n/a	-1	-1	2750	1701.95466553	stim	stop-signal	440	1166489	0.0-19.27-1.27	beast_fmri_test	301	1163934,/,1164614,/,1165295,/,1165974,/,1166654,/,1167334,/,1168014,/	t,t,t,t,t,t,t	<img class = center src='/static/experiments/beast_fmri_test/images/T.png'></img>	89,71	2750.0	test	<img class = center src='/static/experiments/beast_fmri_test/images/redT.png'></img>	stop	2400.0	1.0	27.0	stop	target	T	89,Yellow Button	71,Green Button	350.0	300.0	2400.0	2450.0	0.0	350.0	0.0	1.0	go_stim
129704.0453344665	2400.0	n/a	-1	-1	2750	1701.95466553	stim	stop-signal	440	1166489	0.0-19.27-1.27	beast_fmri_test	301	1163934,/,1164614,/,1165295,/,1165974,/,1166654,/,1167334,/,1168014,/	t,t,t,t,t,t,t	<img class = center src='/static/experiments/beast_fmri_test/images/T.png'></img>	89,71	2750.0	test	<img class = center src='/static/experiments/beast_fmri_test/images/redT.png'></img>	stop	2400.0	1.0	27.0	stop	target	T	89,Yellow Button	71,Green Button	350.0	300.0	2400.0	2450.0	0.0	350.0	0.0	1.0	stop_stim
130054.0453344665	1701.95466553	n/a	-1	-1	2750	1701.95466553	stim	stop-signal	440	1166489	0.0-19.27-1.27	beast_fmri_test	301	1163934,/,1164614,/,1165295,/,1165974,/,1166654,/,1167334,/,1168014,/	t,t,t,t,t,t,t	<img class = center src='/static/experiments/beast_fmri_test/images/T.png'></img>	89,71	2750.0	test	<img class = center src='/static/experiments/beast_fmri_test/images/redT.png'></img>	stop	2400.0	1.0	27.0	stop	target	T	89,Yellow Button	71,Green Button	350.0	300.0	2400.0	2450.0	0.0	350.0	0.0	1.0	ITI
133981	500.0	n/a	-1	-1	500	0.0	fixation	poldrack-single-stim	441	1168714	0.0-19.28-0.28	beast_fmri_test	301	1168694,/	t	<div class = centerbox><div class = fixation>+</div></div>	none	500.0	test	n/a	n/a	n/a	n/a	n/a	n/a	n/a	n/a	n/a	n/a	n/a	n/a	n/a	n/a	n/a	n/a	n/a	n/a	fixation
133599.10966181243	2750.0	n/a	1048	89	2750	383.890338188	stim	stop-signal	442	1171466	0.0-19.28-1.28	beast_fmri_test	301	1169374,/,1170054,/,1170734,/,1171414,/	t,t,t,t	<img class = center src='/static/experiments/beast_fmri_test/images/V.png'></img>	89,71	2750.0	test	<img class = center src='/static/experiments/beast_fmri_test/images/redV.png'></img>	go	2450.0	1.0	28.0	go	non-target	V	89,Yellow Button	71,Green Button	400.0	300.0	2400.0	2450.0	0.0	300.0	0.0	n/a	go_stim
136349.10966181243	383.890338188	n/a	1048	89	2750	383.890338188	stim	stop-signal	442	1171466	0.0-19.28-1.28	beast_fmri_test	301	1169374,/,1170054,/,1170734,/,1171414,/	t,t,t,t	<img class = center src='/static/experiments/beast_fmri_test/images/V.png'></img>	89,71	2750.0	test	<img class = center src='/static/experiments/beast_fmri_test/images/redV.png'></img>	go	2450.0	1.0	28.0	go	non-target	V	89,Yellow Button	71,Green Button	400.0	300.0	2400.0	2450.0	0.0	300.0	0.0	n/a	ITI
137634	500.0	n/a	-1	-1	500	0.0	fixation	poldrack-single-stim	443	1172367	0.0-19.29-0.29	beast_fmri_test	301	1172094,/	t	<div class = centerbox><div class = fixation>+</div></div>	none	500.0	test	n/a	n/a	n/a	n/a	n/a	n/a	n/a	n/a	n/a	n/a	n/a	n/a	n/a	n/a	n/a	n/a	n/a	n/a	fixation
137370.94838815229	400.0	n/a	-1	-1	2750	265.051611848	stim	stop-signal	444	1175119	0.0-19.29-1.29	beast_fmri_test	301	1172774,/,1173454,/,1174134,/,1174813,/	t,t,t,t	<img class = center src='/static/experiments/beast_fmri_test/images/V.png'></img>	89,71	2750.0	test	<img class = center src='/static/experiments/beast_fmri_test/images/redV.png'></img>	stop	2350.0	1.0	29.0	stop	target	V	89,Yellow Button	71,Green Button	400.0	300.0	2350.0	2450.0	0.0	400.0	0.0	1.0	go_stim
139720.94838815229	2350.0	n/a	-1	-1	2750	265.051611848	stim	stop-signal	444	1175119	0.0-19.29-1.29	beast_fmri_test	301	1172774,/,1173454,/,1174134,/,1174813,/	t,t,t,t	<img class = center src='/static/experiments/beast_fmri_test/images/V.png'></img>	89,71	2750.0	test	<img class = center src='/static/experiments/beast_fmri_test/images/redV.png'></img>	stop	2350.0	1.0	29.0	stop	target	V	89,Yellow Button	71,Green Button	400.0	300.0	2350.0	2450.0	0.0	400.0	0.0	1.0	stop_stim
140120.94838815229	265.051611848	n/a	-1	-1	2750	265.051611848	stim	stop-signal	444	1175119	0.0-19.29-1.29	beast_fmri_test	301	1172774,/,1173454,/,1174134,/,1174813,/	t,t,t,t	<img class = center src='/static/experiments/beast_fmri_test/images/V.png'></img>	89,71	2750.0	test	<img class = center src='/static/experiments/beast_fmri_test/images/redV.png'></img>	stop	2350.0	1.0	29.0	stop	target	V	89,Yellow Button	71,Green Button	400.0	300.0	2350.0	2450.0	0.0	400.0	0.0	1.0	ITI
141168	500.0	n/a	-1	-1	500	0.0	fixation	poldrack-single-stim	445	1175901	0.0-19.30-0.30	beast_fmri_test	301	1175494,/	t	<div class = centerbox><div class = fixation>+</div></div>	none	500.0	test	n/a	n/a	n/a	n/a	n/a	n/a	n/a	n/a	n/a	n/a	n/a	n/a	n/a	n/a	n/a	n/a	n/a	n/a	fixation
140716.88642311632	2750.0	n/a	614	71	2750	453.113576884	stim	stop-signal	446	1178653	0.0-19.30-1.30	beast_fmri_test	301	1176174,/,1176854,/,1177534,/,1178214,/,1178893,/	t,t,t,t,t	<img class = center src='/static/experiments/beast_fmri_test/images/V.png'></img>	89,71	2750.0	test	<img class = center src='/static/experiments/beast_fmri_test/images/redV.png'></img>	go	2300.0	1.0	30.0	go	target	V	89,Yellow Button	71,Green Button	450.0	300.0	2300.0	2450.0	0.0	450.0	0.0	n/a	go_stim
143466.88642311632	453.113576884	n/a	614	71	2750	453.113576884	stim	stop-signal	446	1178653	0.0-19.30-1.30	beast_fmri_test	301	1176174,/,1176854,/,1177534,/,1178214,/,1178893,/	t,t,t,t,t	<img class = center src='/static/experiments/beast_fmri_test/images/V.png'></img>	89,71	2750.0	test	<img class = center src='/static/experiments/beast_fmri_test/images/redV.png'></img>	go	2300.0	1.0	30.0	go	target	V	89,Yellow Button	71,Green Button	450.0	300.0	2300.0	2450.0	0.0	450.0	0.0	n/a	ITI
144896	500.0	n/a	-1	-1	500	0.0	fixation	poldrack-single-stim	447	1179629	0.0-19.31-0.31	beast_fmri_test	301	1179574,/	t	<div class = centerbox><div class = fixation>+</div></div>	none	500.0	test	n/a	n/a	n/a	n/a	n/a	n/a	n/a	n/a	n/a	n/a	n/a	n/a	n/a	n/a	n/a	n/a	n/a	n/a	fixation
143765.46341282804	2750.0	n/a	1440	89	2750	1131.53658717	stim	stop-signal	448	1182380	0.0-19.31-1.31	beast_fmri_test	301	1180254,/,1180933,/,1181613,/,1182294,/,1182973,/	t,t,t,t,t	<img class = center src='/static/experiments/beast_fmri_test/images/T.png'></img>	89,71	2750.0	test	<img class = center src='/static/experiments/beast_fmri_test/images/redT.png'></img>	go	2450.0	1.0	31.0	go	non-target	T	89,Yellow Button	71,Green Button	450.0	300.0	2300.0	2450.0	0.0	300.0	0.0	n/a	go_stim
146515.46341282804	1131.53658717	n/a	1440	89	2750	1131.53658717	stim	stop-signal	448	1182380	0.0-19.31-1.31	beast_fmri_test	301	1180254,/,1180933,/,1181613,/,1182294,/,1182973,/	t,t,t,t,t	<img class = center src='/static/experiments/beast_fmri_test/images/T.png'></img>	89,71	2750.0	test	<img class = center src='/static/experiments/beast_fmri_test/images/redT.png'></img>	go	2450.0	1.0	31.0	go	non-target	T	89,Yellow Button	71,Green Button	450.0	300.0	2300.0	2450.0	0.0	300.0	0.0	n/a	ITI
149297	500.0	n/a	-1	-1	500	0.0	fixation	poldrack-single-stim	449	1184030	0.0-19.32-0.32	beast_fmri_test	301	1183654,/	t	<div class = centerbox><div class = fixation>+</div></div>	none	500.0	test	n/a	n/a	n/a	n/a	n/a	n/a	n/a	n/a	n/a	n/a	n/a	n/a	n/a	n/a	n/a	n/a	n/a	n/a	fixation
148956.65206157393	450.0	n/a	487	71	2750	342.347938426	stim	stop-signal	450	1186782	0.0-19.32-1.32	beast_fmri_test	301	1184334,/,1185014,/,1185695,/,1186375,/,1187055,/	t,t,t,t,t	<img class = center src='/static/experiments/beast_fmri_test/images/T.png'></img>	89,71	2750.0	test	<img class = center src='/static/experiments/beast_fmri_test/images/redT.png'></img>	stop	2300.0	1.0	32.0	stop	target	T	89,Yellow Button	71,Green Button	450.0	300.0	2300.0	2450.0	0.0	450.0	0.0	0.0	go_stim
151256.65206157393	2300.0	n/a	487	71	2750	342.347938426	stim	stop-signal	450	1186782	0.0-19.32-1.32	beast_fmri_test	301	1184334,/,1185014,/,1185695,/,1186375,/,1187055,/	t,t,t,t,t	<img class = center src='/static/experiments/beast_fmri_test/images/T.png'></img>	89,71	2750.0	test	<img class = center src='/static/experiments/beast_fmri_test/images/redT.png'></img>	stop	2300.0	1.0	32.0	stop	target	T	89,Yellow Button	71,Green Button	450.0	300.0	2300.0	2450.0	0.0	450.0	0.0	0.0	stop_stim
151706.65206157393	342.347938426	n/a	487	71	2750	342.347938426	stim	stop-signal	450	1186782	0.0-19.32-1.32	beast_fmri_test	301	1184334,/,1185014,/,1185695,/,1186375,/,1187055,/	t,t,t,t,t	<img class = center src='/static/experiments/beast_fmri_test/images/T.png'></img>	89,71	2750.0	test	<img class = center src='/static/experiments/beast_fmri_test/images/redT.png'></img>	stop	2300.0	1.0	32.0	stop	target	T	89,Yellow Button	71,Green Button	450.0	300.0	2300.0	2450.0	0.0	450.0	0.0	0.0	ITI
152909	500.0	n/a	-1	-1	500	0.0	fixation	poldrack-single-stim	451	1187642	0.0-19.33-0.33	beast_fmri_test	301	n/a	n/a	<div class = centerbox><div class = fixation>+</div></div>	none	500.0	test	n/a	n/a	n/a	n/a	n/a	n/a	n/a	n/a	n/a	n/a	n/a	n/a	n/a	n/a	n/a	n/a	n/a	n/a	fixation
151356.06364764273	300.0	n/a	-1	-1	2750	1555.93635236	stim	stop-signal	452	1190395	0.0-19.33-1.33	beast_fmri_test	301	1187735,/,1188415,/,1189095,/,1189775,/,1190455,/,1191134,/,1191814,/	t,t,t,t,t,t,t	<img class = center src='/static/experiments/beast_fmri_test/images/B.png'></img>	89,71	2750.0	test	<img class = center src='/static/experiments/beast_fmri_test/images/redB.png'></img>	stop	2450.0	1.0	33.0	stop	non-target	B	89,Yellow Button	71,Green Button	400.0	300.0	2300.0	2450.0	0.0	300.0	0.0	1.0	go_stim
153806.06364764273	2450.0	n/a	-1	-1	2750	1555.93635236	stim	stop-signal	452	1190395	0.0-19.33-1.33	beast_fmri_test	301	1187735,/,1188415,/,1189095,/,1189775,/,1190455,/,1191134,/,1191814,/	t,t,t,t,t,t,t	<img class = center src='/static/experiments/beast_fmri_test/images/B.png'></img>	89,71	2750.0	test	<img class = center src='/static/experiments/beast_fmri_test/images/redB.png'></img>	stop	2450.0	1.0	33.0	stop	non-target	B	89,Yellow Button	71,Green Button	400.0	300.0	2300.0	2450.0	0.0	300.0	0.0	1.0	stop_stim
154106.06364764273	1555.93635236	n/a	-1	-1	2750	1555.93635236	stim	stop-signal	452	1190395	0.0-19.33-1.33	beast_fmri_test	301	1187735,/,1188415,/,1189095,/,1189775,/,1190455,/,1191134,/,1191814,/	t,t,t,t,t,t,t	<img class = center src='/static/experiments/beast_fmri_test/images/B.png'></img>	89,71	2750.0	test	<img class = center src='/static/experiments/beast_fmri_test/images/redB.png'></img>	stop	2450.0	1.0	33.0	stop	non-target	B	89,Yellow Button	71,Green Button	400.0	300.0	2300.0	2450.0	0.0	300.0	0.0	1.0	ITI
157735	500.0	n/a	-1	-1	500	0.0	fixation	poldrack-single-stim	453	1192468	0.0-19.34-0.34	beast_fmri_test	301	n/a	n/a	<div class = centerbox><div class = fixation>+</div></div>	none	500.0	test	n/a	n/a	n/a	n/a	n/a	n/a	n/a	n/a	n/a	n/a	n/a	n/a	n/a	n/a	n/a	n/a	n/a	n/a	fixation
154309.46378391795	2750.0	n/a	2150	71	2750	3427.53621608	stim	stop-signal	454	1195220	0.0-19.34-1.34	beast_fmri_test	301	1192495,/,1193175,/,1193854,/,1194534,/,1195214,/,1195895,/,1196574,/,1197254,/,1197934,/,1198614,/	t,t,t,t,t,t,t,t,t,t	<img class = center src='/static/experiments/beast_fmri_test/images/D.png'></img>	89,71	2750.0	test	<img class = center src='/static/experiments/beast_fmri_test/images/redD.png'></img>	go	2400.0	1.0	34.0	go	non-target	D	89,Yellow Button	71,Green Button	400.0	350.0	2300.0	2400.0	1.0	350.0	1.0	n/a	go_stim
157059.46378391795	3427.53621608	n/a	2150	71	2750	3427.53621608	stim	stop-signal	454	1195220	0.0-19.34-1.34	beast_fmri_test	301	1192495,/,1193175,/,1193854,/,1194534,/,1195214,/,1195895,/,1196574,/,1197254,/,1197934,/,1198614,/	t,t,t,t,t,t,t,t,t,t	<img class = center src='/static/experiments/beast_fmri_test/images/D.png'></img>	89,71	2750.0	test	<img class = center src='/static/experiments/beast_fmri_test/images/redD.png'></img>	go	2400.0	1.0	34.0	go	non-target	D	89,Yellow Button	71,Green Button	400.0	350.0	2300.0	2400.0	1.0	350.0	1.0	n/a	ITI
164430	500.0	n/a	-1	-1	500	0.0	fixation	poldrack-single-stim	455	1199163	0.0-19.35-0.35	beast_fmri_test	301	n/a	n/a	<div class = centerbox><div class = fixation>+</div></div>	none	500.0	test	n/a	n/a	n/a	n/a	n/a	n/a	n/a	n/a	n/a	n/a	n/a	n/a	n/a	n/a	n/a	n/a	n/a	n/a	fixation
163166.34322322323	350.0	n/a	-1	-1	2750	1264.65677678	stim	stop-signal	456	1201914	0.0-19.35-1.35	beast_fmri_test	301	1199294,/,1199974,/,1200654,/,1201334,/,1202014,/,1202694,/	t,t,t,t,t,t	<img class = center src='/static/experiments/beast_fmri_test/images/V.png'></img>	89,71	2750.0	test	<img class = center src='/static/experiments/beast_fmri_test/images/redV.png'></img>	stop	2400.0	1.0	35.0	stop	non-target	V	89,Yellow Button	71,Green Button	400.0	350.0	2300.0	2400.0	0.0	350.0	0.0	1.0	go_stim
165566.34322322323	2400.0	n/a	-1	-1	2750	1264.65677678	stim	stop-signal	456	1201914	0.0-19.35-1.35	beast_fmri_test	301	1199294,/,1199974,/,1200654,/,1201334,/,1202014,/,1202694,/	t,t,t,t,t,t	<img class = center src='/static/experiments/beast_fmri_test/images/V.png'></img>	89,71	2750.0	test	<img class = center src='/static/experiments/beast_fmri_test/images/redV.png'></img>	stop	2400.0	1.0	35.0	stop	non-target	V	89,Yellow Button	71,Green Button	400.0	350.0	2300.0	2400.0	0.0	350.0	0.0	1.0	stop_stim
165916.34322322323	1264.65677678	n/a	-1	-1	2750	1264.65677678	stim	stop-signal	456	1201914	0.0-19.35-1.35	beast_fmri_test	301	1199294,/,1199974,/,1200654,/,1201334,/,1202014,/,1202694,/	t,t,t,t,t,t	<img class = center src='/static/experiments/beast_fmri_test/images/V.png'></img>	89,71	2750.0	test	<img class = center src='/static/experiments/beast_fmri_test/images/redV.png'></img>	stop	2400.0	1.0	35.0	stop	non-target	V	89,Yellow Button	71,Green Button	400.0	350.0	2300.0	2400.0	0.0	350.0	0.0	1.0	ITI
168963	500.0	n/a	-1	-1	500	0.0	fixation	poldrack-single-stim	457	1203696	0.0-19.36-0.36	beast_fmri_test	301	1203374,/	t	<div class = centerbox><div class = fixation>+</div></div>	none	500.0	test	n/a	n/a	n/a	n/a	n/a	n/a	n/a	n/a	n/a	n/a	n/a	n/a	n/a	n/a	n/a	n/a	n/a	n/a	fixation
167962.94055689825	400.0	n/a	533	71	2750	1001.0594431	stim	stop-signal	458	1206447	0.0-19.36-1.36	beast_fmri_test	301	1204054,/,1204734,/,1205414,/,1206095,/,1206774,/	t,t,t,t,t	<img class = center src='/static/experiments/beast_fmri_test/images/V.png'></img>	89,71	2750.0	test	<img class = center src='/static/experiments/beast_fmri_test/images/redV.png'></img>	stop	2350.0	1.0	36.0	stop	target	V	89,Yellow Button	71,Green Button	400.0	400.0	2350.0	2400.0	0.0	400.0	0.0	0.0	go_stim
170312.94055689825	2350.0	n/a	533	71	2750	1001.0594431	stim	stop-signal	458	1206447	0.0-19.36-1.36	beast_fmri_test	301	1204054,/,1204734,/,1205414,/,1206095,/,1206774,/	t,t,t,t,t	<img class = center src='/static/experiments/beast_fmri_test/images/V.png'></img>	89,71	2750.0	test	<img class = center src='/static/experiments/beast_fmri_test/images/redV.png'></img>	stop	2350.0	1.0	36.0	stop	target	V	89,Yellow Button	71,Green Button	400.0	400.0	2350.0	2400.0	0.0	400.0	0.0	0.0	stop_stim
170712.94055689825	1001.0594431	n/a	533	71	2750	1001.0594431	stim	stop-signal	458	1206447	0.0-19.36-1.36	beast_fmri_test	301	1204054,/,1204734,/,1205414,/,1206095,/,1206774,/	t,t,t,t,t	<img class = center src='/static/experiments/beast_fmri_test/images/V.png'></img>	89,71	2750.0	test	<img class = center src='/static/experiments/beast_fmri_test/images/redV.png'></img>	stop	2350.0	1.0	36.0	stop	target	V	89,Yellow Button	71,Green Button	400.0	400.0	2350.0	2400.0	0.0	400.0	0.0	0.0	ITI
173233	500.0	n/a	-1	-1	500	0.0	fixation	poldrack-single-stim	459	1207966	0.0-19.37-0.37	beast_fmri_test	301	1207464,/	t	<div class = centerbox><div class = fixation>+</div></div>	none	500.0	test	n/a	n/a	n/a	n/a	n/a	n/a	n/a	n/a	n/a	n/a	n/a	n/a	n/a	n/a	n/a	n/a	n/a	n/a	fixation
173194.59609460831	2750.0	n/a	546	89	2750	40.4039053917	stim	stop-signal	460	1210718	0.0-19.37-1.37	beast_fmri_test	301	1208134,/,1208814,/,1209494,/,1210174,/	t,t,t,t	<img class = center src='/static/experiments/beast_fmri_test/images/T.png'></img>	89,71	2750.0	test	<img class = center src='/static/experiments/beast_fmri_test/images/redT.png'></img>	go	2350.0	1.0	37.0	go	non-target	T	89,Yellow Button	71,Green Button	350.0	400.0	2350.0	2350.0	0.0	400.0	0.0	n/a	go_stim
175944.59609460831	40.4039053917	n/a	546	89	2750	40.4039053917	stim	stop-signal	460	1210718	0.0-19.37-1.37	beast_fmri_test	301	1208134,/,1208814,/,1209494,/,1210174,/	t,t,t,t	<img class = center src='/static/experiments/beast_fmri_test/images/T.png'></img>	89,71	2750.0	test	<img class = center src='/static/experiments/beast_fmri_test/images/redT.png'></img>	go	2350.0	1.0	37.0	go	non-target	T	89,Yellow Button	71,Green Button	350.0	400.0	2350.0	2350.0	0.0	400.0	0.0	n/a	ITI
176545	500.0	n/a	-1	-1	500	0.0	fixation	poldrack-single-stim	461	1211278	0.0-19.38-0.38	beast_fmri_test	301	1210854,/	t	<div class = centerbox><div class = fixation>+</div></div>	none	500.0	test	n/a	n/a	n/a	n/a	n/a	n/a	n/a	n/a	n/a	n/a	n/a	n/a	n/a	n/a	n/a	n/a	n/a	n/a	fixation
175930.68902249215	2750.0	n/a	605	71	2750	616.310977508	stim	stop-signal	462	1214030	0.0-19.38-1.38	beast_fmri_test	301	1211534,/,1212214,/,1212894,/,1213574,/,1214254,/	t,t,t,t,t	<img class = center src='/static/experiments/beast_fmri_test/images/T.png'></img>	89,71	2750.0	test	<img class = center src='/static/experiments/beast_fmri_test/images/redT.png'></img>	go	2400.0	1.0	38.0	go	target	T	89,Yellow Button	71,Green Button	350.0	400.0	2400.0	2350.0	0.0	350.0	0.0	n/a	go_stim
178680.68902249215	616.310977508	n/a	605	71	2750	616.310977508	stim	stop-signal	462	1214030	0.0-19.38-1.38	beast_fmri_test	301	1211534,/,1212214,/,1212894,/,1213574,/,1214254,/	t,t,t,t,t	<img class = center src='/static/experiments/beast_fmri_test/images/T.png'></img>	89,71	2750.0	test	<img class = center src='/static/experiments/beast_fmri_test/images/redT.png'></img>	go	2400.0	1.0	38.0	go	target	T	89,Yellow Button	71,Green Button	350.0	400.0	2400.0	2350.0	0.0	350.0	0.0	n/a	ITI
180431	500.0	n/a	-1	-1	500	0.0	fixation	poldrack-single-stim	463	1215164	0.0-19.39-0.39	beast_fmri_test	301	1214934,/	t	<div class = centerbox><div class = fixation>+</div></div>	none	500.0	test	n/a	n/a	n/a	n/a	n/a	n/a	n/a	n/a	n/a	n/a	n/a	n/a	n/a	n/a	n/a	n/a	n/a	n/a	fixation
177732.93501219293	2750.0	n/a	564	89	2750	2699.06498781	stim	stop-signal	464	1217915	0.0-19.39-1.39	beast_fmri_test	301	1215614,/,1216295,/,1216974,/,1217655,/,1218335,/,1219015,/,1219695,/,1220375,/	t,t,t,t,t,t,t,t	<img class = center src='/static/experiments/beast_fmri_test/images/B.png'></img>	89,71	2750.0	test	<img class = center src='/static/experiments/beast_fmri_test/images/redB.png'></img>	go	2350.0	1.0	39.0	go	non-target	B	89,Yellow Button	71,Green Button	350.0	400.0	2400.0	2350.0	0.0	400.0	0.0	n/a	go_stim
180482.93501219293	2699.06498781	n/a	564	89	2750	2699.06498781	stim	stop-signal	464	1217915	0.0-19.39-1.39	beast_fmri_test	301	1215614,/,1216295,/,1216974,/,1217655,/,1218335,/,1219015,/,1219695,/,1220375,/	t,t,t,t,t,t,t,t	<img class = center src='/static/experiments/beast_fmri_test/images/B.png'></img>	89,71	2750.0	test	<img class = center src='/static/experiments/beast_fmri_test/images/redB.png'></img>	go	2350.0	1.0	39.0	go	non-target	B	89,Yellow Button	71,Green Button	350.0	400.0	2400.0	2350.0	0.0	400.0	0.0	n/a	ITI
186407	500.0	n/a	-1	-1	500	0.0	fixation	poldrack-single-stim	465	1221140	0.0-19.40-0.40	beast_fmri_test	301	1221055,/	t	<div class = centerbox><div class = fixation>+</div></div>	none	500.0	test	n/a	n/a	n/a	n/a	n/a	n/a	n/a	n/a	n/a	n/a	n/a	n/a	n/a	n/a	n/a	n/a	n/a	n/a	fixation
186097.6896395022	2750.0	n/a	761	89	2750	309.310360498	stim	stop-signal	466	1223890	0.0-19.40-1.40	beast_fmri_test	301	1221735,/,1222415,/,1223095,/,1223775,/	t,t,t,t	<img class = center src='/static/experiments/beast_fmri_test/images/P.png'></img>	89,71	2750.0	test	<img class = center src='/static/experiments/beast_fmri_test/images/redP.png'></img>	go	2350.0	1.0	40.0	go	non-target	P	89,Yellow Button	71,Green Button	350.0	400.0	2400.0	2350.0	0.0	400.0	0.0	n/a	go_stim
188847.6896395022	309.310360498	n/a	761	89	2750	309.310360498	stim	stop-signal	466	1223890	0.0-19.40-1.40	beast_fmri_test	301	1221735,/,1222415,/,1223095,/,1223775,/	t,t,t,t	<img class = center src='/static/experiments/beast_fmri_test/images/P.png'></img>	89,71	2750.0	test	<img class = center src='/static/experiments/beast_fmri_test/images/redP.png'></img>	go	2350.0	1.0	40.0	go	non-target	P	89,Yellow Button	71,Green Button	350.0	400.0	2400.0	2350.0	0.0	400.0	0.0	n/a	ITI
189987	500.0	n/a	-1	-1	500	0.0	fixation	poldrack-single-stim	467	1224720	0.0-19.41-0.41	beast_fmri_test	301	1224455,/	t	<div class = centerbox><div class = fixation>+</div></div>	none	500.0	test	n/a	n/a	n/a	n/a	n/a	n/a	n/a	n/a	n/a	n/a	n/a	n/a	n/a	n/a	n/a	n/a	n/a	n/a	fixation
189180.05995545117	400.0	n/a	-1	-1	2750	807.940044549	stim	stop-signal	468	1227471	0.0-19.41-1.41	beast_fmri_test	301	1225135,/,1225815,/,1226496,/,1227175,/,1227855,/	t,t,t,t,t	<img class = center src='/static/experiments/beast_fmri_test/images/D.png'></img>	89,71	2750.0	test	<img class = center src='/static/experiments/beast_fmri_test/images/redD.png'></img>	stop	2350.0	1.0	41.0	stop	non-target	D	89,Yellow Button	71,Green Button	350.0	400.0	2400.0	2350.0	0.0	400.0	0.0	1.0	go_stim
191530.05995545117	2350.0	n/a	-1	-1	2750	807.940044549	stim	stop-signal	468	1227471	0.0-19.41-1.41	beast_fmri_test	301	1225135,/,1225815,/,1226496,/,1227175,/,1227855,/	t,t,t,t,t	<img class = center src='/static/experiments/beast_fmri_test/images/D.png'></img>	89,71	2750.0	test	<img class = center src='/static/experiments/beast_fmri_test/images/redD.png'></img>	stop	2350.0	1.0	41.0	stop	non-target	D	89,Yellow Button	71,Green Button	350.0	400.0	2400.0	2350.0	0.0	400.0	0.0	1.0	stop_stim
191930.05995545117	807.940044549	n/a	-1	-1	2750	807.940044549	stim	stop-signal	468	1227471	0.0-19.41-1.41	beast_fmri_test	301	1225135,/,1225815,/,1226496,/,1227175,/,1227855,/	t,t,t,t,t	<img class = center src='/static/experiments/beast_fmri_test/images/D.png'></img>	89,71	2750.0	test	<img class = center src='/static/experiments/beast_fmri_test/images/redD.png'></img>	stop	2350.0	1.0	41.0	stop	non-target	D	89,Yellow Button	71,Green Button	350.0	400.0	2400.0	2350.0	0.0	400.0	0.0	1.0	ITI
194067	500.0	n/a	-1	-1	500	0.0	fixation	poldrack-single-stim	469	1228800	0.0-19.42-0.42	beast_fmri_test	301	1228535,/	t	<div class = centerbox><div class = fixation>+</div></div>	none	500.0	test	n/a	n/a	n/a	n/a	n/a	n/a	n/a	n/a	n/a	n/a	n/a	n/a	n/a	n/a	n/a	n/a	n/a	n/a	fixation
189069.0	2750.0	n/a	1157	89	2750	5000.0	stim	stop-signal	470	1231552	0.0-19.42-1.42	beast_fmri_test	301	1229215,/,1229895,/,1230575,/,1231255,/,1231935,/,1232615,/,1233295,/,1233974,/,1234655,/,1235335,/,1236014,/	t,t,t,t,t,t,t,t,t,t,t	<img class = center src='/static/experiments/beast_fmri_test/images/P.png'></img>	89,71	2750.0	test	<img class = center src='/static/experiments/beast_fmri_test/images/redP.png'></img>	go	2300.0	1.0	42.0	go	non-target	P	89,Yellow Button	71,Green Button	350.0	450.0	2400.0	2300.0	0.0	450.0	0.0	n/a	go_stim
191819.0	5000.0	n/a	1157	89	2750	5000.0	stim	stop-signal	470	1231552	0.0-19.42-1.42	beast_fmri_test	301	1229215,/,1229895,/,1230575,/,1231255,/,1231935,/,1232615,/,1233295,/,1233974,/,1234655,/,1235335,/,1236014,/	t,t,t,t,t,t,t,t,t,t,t	<img class = center src='/static/experiments/beast_fmri_test/images/P.png'></img>	89,71	2750.0	test	<img class = center src='/static/experiments/beast_fmri_test/images/redP.png'></img>	go	2300.0	1.0	42.0	go	non-target	P	89,Yellow Button	71,Green Button	350.0	450.0	2400.0	2300.0	0.0	450.0	0.0	n/a	ITI
202342	500.0	n/a	-1	-1	500	0.0	fixation	poldrack-single-stim	471	1237075	0.0-19.43-0.43	beast_fmri_test	301	1236695,/	t	<div class = centerbox><div class = fixation>+</div></div>	none	500.0	test	n/a	n/a	n/a	n/a	n/a	n/a	n/a	n/a	n/a	n/a	n/a	n/a	n/a	n/a	n/a	n/a	n/a	n/a	fixation
201461.70907933637	450.0	n/a	1508	89	2750	881.290920664	stim	stop-signal	472	1239826	0.0-19.43-1.43	beast_fmri_test	301	1237375,/,1238054,/,1238735,/,1239415,/,1240094,/	t,t,t,t,t	<img class = center src='/static/experiments/beast_fmri_test/images/B.png'></img>	89,71	2750.0	test	<img class = center src='/static/experiments/beast_fmri_test/images/redB.png'></img>	stop	2300.0	1.0	43.0	stop	non-target	B	89,Yellow Button	71,Green Button	350.0	450.0	2400.0	2300.0	0.0	450.0	0.0	0.0	go_stim
203761.70907933637	2300.0	n/a	1508	89	2750	881.290920664	stim	stop-signal	472	1239826	0.0-19.43-1.43	beast_fmri_test	301	1237375,/,1238054,/,1238735,/,1239415,/,1240094,/	t,t,t,t,t	<img class = center src='/static/experiments/beast_fmri_test/images/B.png'></img>	89,71	2750.0	test	<img class = center src='/static/experiments/beast_fmri_test/images/redB.png'></img>	stop	2300.0	1.0	43.0	stop	non-target	B	89,Yellow Button	71,Green Button	350.0	450.0	2400.0	2300.0	0.0	450.0	0.0	0.0	stop_stim
204211.70907933637	881.290920664	n/a	1508	89	2750	881.290920664	stim	stop-signal	472	1239826	0.0-19.43-1.43	beast_fmri_test	301	1237375,/,1238054,/,1238735,/,1239415,/,1240094,/	t,t,t,t,t	<img class = center src='/static/experiments/beast_fmri_test/images/B.png'></img>	89,71	2750.0	test	<img class = center src='/static/experiments/beast_fmri_test/images/redB.png'></img>	stop	2300.0	1.0	43.0	stop	non-target	B	89,Yellow Button	71,Green Button	350.0	450.0	2400.0	2300.0	0.0	450.0	0.0	0.0	ITI
206495	500.0	n/a	-1	-1	500	0.0	fixation	poldrack-single-stim	473	1241228	0.0-19.44-0.44	beast_fmri_test	301	1240775,/	t	<div class = centerbox><div class = fixation>+</div></div>	none	500.0	test	n/a	n/a	n/a	n/a	n/a	n/a	n/a	n/a	n/a	n/a	n/a	n/a	n/a	n/a	n/a	n/a	n/a	n/a	fixation
206089.65060261427	2750.0	n/a	2313	89	2750	407.349397386	stim	stop-signal	474	1243980	0.0-19.44-1.44	beast_fmri_test	301	1241455,/,1242134,/,1242815,/,1243495,/,1244174,/	t,t,t,t,t	<img class = center src='/static/experiments/beast_fmri_test/images/T.png'></img>	89,71	2750.0	test	<img class = center src='/static/experiments/beast_fmri_test/images/redT.png'></img>	go	2350.0	1.0	44.0	go	non-target	T	89,Yellow Button	71,Green Button	350.0	400.0	2400.0	2350.0	0.0	400.0	0.0	n/a	go_stim
208839.65060261427	407.349397386	n/a	2313	89	2750	407.349397386	stim	stop-signal	474	1243980	0.0-19.44-1.44	beast_fmri_test	301	1241455,/,1242134,/,1242815,/,1243495,/,1244174,/	t,t,t,t,t	<img class = center src='/static/experiments/beast_fmri_test/images/T.png'></img>	89,71	2750.0	test	<img class = center src='/static/experiments/beast_fmri_test/images/redT.png'></img>	go	2350.0	1.0	44.0	go	non-target	T	89,Yellow Button	71,Green Button	350.0	400.0	2400.0	2350.0	0.0	400.0	0.0	n/a	ITI
210172	500.0	n/a	-1	-1	500	0.0	fixation	poldrack-single-stim	475	1244905	0.0-19.45-0.45	beast_fmri_test	301	1244854,/	t	<div class = centerbox><div class = fixation>+</div></div>	none	500.0	test	n/a	n/a	n/a	n/a	n/a	n/a	n/a	n/a	n/a	n/a	n/a	n/a	n/a	n/a	n/a	n/a	n/a	n/a	fixation
208960.0732057495	2750.0	n/a	1511	89	2750	1212.92679425	stim	stop-signal	476	1247656	0.0-19.45-1.45	beast_fmri_test	301	1245535,/,1246215,/,1246895,/,1247574,/,1248254,/	t,t,t,t,t	<img class = center src='/static/experiments/beast_fmri_test/images/P.png'></img>	89,71	2750.0	test	<img class = center src='/static/experiments/beast_fmri_test/images/redP.png'></img>	go	2350.0	1.0	45.0	go	non-target	P	89,Yellow Button	71,Green Button	350.0	400.0	2400.0	2350.0	0.0	400.0	0.0	n/a	go_stim
211710.0732057495	1212.92679425	n/a	1511	89	2750	1212.92679425	stim	stop-signal	476	1247656	0.0-19.45-1.45	beast_fmri_test	301	1245535,/,1246215,/,1246895,/,1247574,/,1248254,/	t,t,t,t,t	<img class = center src='/static/experiments/beast_fmri_test/images/P.png'></img>	89,71	2750.0	test	<img class = center src='/static/experiments/beast_fmri_test/images/redP.png'></img>	go	2350.0	1.0	45.0	go	non-target	P	89,Yellow Button	71,Green Button	350.0	400.0	2400.0	2350.0	0.0	400.0	0.0	n/a	ITI
229160	15000.0	n/a	-1	-1	15000	0.0	practice-no-stop-feedback	poldrack-single-stim	477	1263893	0.0-20.0	beast_fmri_test	301	1248935,/,1249615,/,1250295,/,1250974,/,1251655,/,1252336,/,1253015,/,1253696,/,1254375,/,1255056,/,1255735,/,1256416,/,1257096,/,1257776,/,1258455,/,1259136,/,1259815,/,1260496,/,1261175,/,1261856,/,1262535,/,1263216,/	t,t,t,t,t,t,t,t,t,t,t,t,t,t,t,t,t,t,t,t,t,t	"<div class = ""centerbox""><p class = ""center-block-text"">Your delay is 1 trials.</p><p class = center-block-text>Please wait for the scanner to start the block</p></div>"	77	15000.0	n/a	n/a	n/a	n/a	n/a	n/a	n/a	n/a	n/a	n/a	n/a	n/a	n/a	n/a	n/a	n/a	n/a	n/a	n/a	practice-no-stop-feedback
229661	500.0	n/a	-1	-1	500	0.0	fixation	poldrack-single-stim	478	1264394	0.0-21.0-0.0	beast_fmri_test	301	1263895,/	t	<div class = centerbox><div class = fixation>+</div></div>	none	500.0	test	n/a	n/a	n/a	n/a	n/a	n/a	n/a	n/a	n/a	n/a	n/a	n/a	n/a	n/a	n/a	n/a	n/a	n/a	fixation
228932.04805726884	2750.0	n/a	1163	89	2750	730.951942731	stim	stop-signal	479	1267146	0.0-21.0-1.0	beast_fmri_test	301	1264576,/,1265255,/,1265935,/,1266615,/,1267296,/	t,t,t,t,t	<img class = center src='/static/experiments/beast_fmri_test/images/V.png'></img>	89,71	2750.0	test	<img class = center src='/static/experiments/beast_fmri_test/images/redV.png'></img>	go	-1.0	1.0	0.0	go	temp-non-target	V	89,Yellow Button	71,Green Button	350.0	400.0	2400.0	2350.0	0.0	n/a	n/a	n/a	go_stim
231682.04805726884	730.951942731	n/a	1163	89	2750	730.951942731	stim	stop-signal	479	1267146	0.0-21.0-1.0	beast_fmri_test	301	1264576,/,1265255,/,1265935,/,1266615,/,1267296,/	t,t,t,t,t	<img class = center src='/static/experiments/beast_fmri_test/images/V.png'></img>	89,71	2750.0	test	<img class = center src='/static/experiments/beast_fmri_test/images/redV.png'></img>	go	-1.0	1.0	0.0	go	temp-non-target	V	89,Yellow Button	71,Green Button	350.0	400.0	2400.0	2350.0	0.0	n/a	n/a	n/a	ITI
233661	500.0	n/a	-1	-1	500	0.0	fixation	poldrack-single-stim	480	1268394	0.0-21.1-0.1	beast_fmri_test	301	1267975,/	t	<div class = centerbox><div class = fixation>+</div></div>	none	500.0	test	n/a	n/a	n/a	n/a	n/a	n/a	n/a	n/a	n/a	n/a	n/a	n/a	n/a	n/a	n/a	n/a	n/a	n/a	fixation
232277.77711004042	2750.0	n/a	678	89	2750	1385.22288996	stim	stop-signal	481	1271146	0.0-21.1-1.1	beast_fmri_test	301	1268655,/,1269335,/,1270015,/,1270695,/,1271375,/,1272055,/	t,t,t,t,t,t	<img class = center src='/static/experiments/beast_fmri_test/images/T.png'></img>	89,71	2750.0	test	<img class = center src='/static/experiments/beast_fmri_test/images/redT.png'></img>	go	2350.0	1.0	1.0	go	non-target	T	89,Yellow Button	71,Green Button	350.0	400.0	2400.0	2350.0	0.0	400.0	0.0	n/a	go_stim
235027.77711004042	1385.22288996	n/a	678	89	2750	1385.22288996	stim	stop-signal	481	1271146	0.0-21.1-1.1	beast_fmri_test	301	1268655,/,1269335,/,1270015,/,1270695,/,1271375,/,1272055,/	t,t,t,t,t,t	<img class = center src='/static/experiments/beast_fmri_test/images/T.png'></img>	89,71	2750.0	test	<img class = center src='/static/experiments/beast_fmri_test/images/redT.png'></img>	go	2350.0	1.0	1.0	go	non-target	T	89,Yellow Button	71,Green Button	350.0	400.0	2400.0	2350.0	0.0	400.0	0.0	n/a	ITI
238321	500.0	n/a	-1	-1	500	0.0	fixation	poldrack-single-stim	482	1273054	0.0-21.2-0.2	beast_fmri_test	301	1272735,/	t	<div class = centerbox><div class = fixation>+</div></div>	none	500.0	test	n/a	n/a	n/a	n/a	n/a	n/a	n/a	n/a	n/a	n/a	n/a	n/a	n/a	n/a	n/a	n/a	n/a	n/a	fixation
237659.08056107606	400.0	n/a	936	89	2750	663.919438924	stim	stop-signal	483	1275806	0.0-21.2-1.2	beast_fmri_test	301	1273415,/,1274095,/,1274775,/,1275455,/,1276135,/	t,t,t,t,t	<img class = center src='/static/experiments/beast_fmri_test/images/V.png'></img>	89,71	2750.0	test	<img class = center src='/static/experiments/beast_fmri_test/images/redV.png'></img>	stop	2350.0	1.0	2.0	stop	non-target	V	89,Yellow Button	71,Green Button	350.0	400.0	2400.0	2350.0	0.0	400.0	0.0	0.0	go_stim
240009.08056107606	2350.0	n/a	936	89	2750	663.919438924	stim	stop-signal	483	1275806	0.0-21.2-1.2	beast_fmri_test	301	1273415,/,1274095,/,1274775,/,1275455,/,1276135,/	t,t,t,t,t	<img class = center src='/static/experiments/beast_fmri_test/images/V.png'></img>	89,71	2750.0	test	<img class = center src='/static/experiments/beast_fmri_test/images/redV.png'></img>	stop	2350.0	1.0	2.0	stop	non-target	V	89,Yellow Button	71,Green Button	350.0	400.0	2400.0	2350.0	0.0	400.0	0.0	0.0	stop_stim
240409.08056107606	663.919438924	n/a	936	89	2750	663.919438924	stim	stop-signal	483	1275806	0.0-21.2-1.2	beast_fmri_test	301	1273415,/,1274095,/,1274775,/,1275455,/,1276135,/	t,t,t,t,t	<img class = center src='/static/experiments/beast_fmri_test/images/V.png'></img>	89,71	2750.0	test	<img class = center src='/static/experiments/beast_fmri_test/images/redV.png'></img>	stop	2350.0	1.0	2.0	stop	non-target	V	89,Yellow Button	71,Green Button	350.0	400.0	2400.0	2350.0	0.0	400.0	0.0	0.0	ITI
242259	500.0	n/a	-1	-1	500	0.0	fixation	poldrack-single-stim	484	1276992	0.0-21.3-0.3	beast_fmri_test	301	1276815,/	t	<div class = centerbox><div class = fixation>+</div></div>	none	500.0	test	n/a	n/a	n/a	n/a	n/a	n/a	n/a	n/a	n/a	n/a	n/a	n/a	n/a	n/a	n/a	n/a	n/a	n/a	fixation
241613.34270093706	2750.0	n/a	766	71	2750	646.657299063	stim	stop-signal	485	1279743	0.0-21.3-1.3	beast_fmri_test	301	1277496,/,1278175,/,1278855,/,1279535,/,1280215,/	t,t,t,t,t	<img class = center src='/static/experiments/beast_fmri_test/images/V.png'></img>	89,71	2750.0	test	<img class = center src='/static/experiments/beast_fmri_test/images/redV.png'></img>	go	2400.0	1.0	3.0	go	target	V	89,Yellow Button	71,Green Button	350.0	350.0	2400.0	2350.0	0.0	350.0	0.0	n/a	go_stim
244363.34270093706	646.657299063	n/a	766	71	2750	646.657299063	stim	stop-signal	485	1279743	0.0-21.3-1.3	beast_fmri_test	301	1277496,/,1278175,/,1278855,/,1279535,/,1280215,/	t,t,t,t,t	<img class = center src='/static/experiments/beast_fmri_test/images/V.png'></img>	89,71	2750.0	test	<img class = center src='/static/experiments/beast_fmri_test/images/redV.png'></img>	go	2400.0	1.0	3.0	go	target	V	89,Yellow Button	71,Green Button	350.0	350.0	2400.0	2350.0	0.0	350.0	0.0	n/a	ITI
246181	500.0	n/a	-1	-1	500	0.0	fixation	poldrack-single-stim	486	1280914	0.0-21.4-0.4	beast_fmri_test	301	1280895,/	t	<div class = centerbox><div class = fixation>+</div></div>	none	500.0	test	n/a	n/a	n/a	n/a	n/a	n/a	n/a	n/a	n/a	n/a	n/a	n/a	n/a	n/a	n/a	n/a	n/a	n/a	fixation
245353.29558223183	350.0	n/a	-1	-1	2750	829.704417768	stim	stop-signal	487	1283666	0.0-21.4-1.4	beast_fmri_test	301	1281575,/,1282255,/,1282935,/,1283615,/,1284296,/	t,t,t,t,t	<img class = center src='/static/experiments/beast_fmri_test/images/B.png'></img>	89,71	2750.0	test	<img class = center src='/static/experiments/beast_fmri_test/images/redB.png'></img>	stop	2400.0	1.0	4.0	stop	non-target	B	89,Yellow Button	71,Green Button	350.0	350.0	2400.0	2400.0	0.0	350.0	0.0	1.0	go_stim
247753.29558223183	2400.0	n/a	-1	-1	2750	829.704417768	stim	stop-signal	487	1283666	0.0-21.4-1.4	beast_fmri_test	301	1281575,/,1282255,/,1282935,/,1283615,/,1284296,/	t,t,t,t,t	<img class = center src='/static/experiments/beast_fmri_test/images/B.png'></img>	89,71	2750.0	test	<img class = center src='/static/experiments/beast_fmri_test/images/redB.png'></img>	stop	2400.0	1.0	4.0	stop	non-target	B	89,Yellow Button	71,Green Button	350.0	350.0	2400.0	2400.0	0.0	350.0	0.0	1.0	stop_stim
248103.29558223183	829.704417768	n/a	-1	-1	2750	829.704417768	stim	stop-signal	487	1283666	0.0-21.4-1.4	beast_fmri_test	301	1281575,/,1282255,/,1282935,/,1283615,/,1284296,/	t,t,t,t,t	<img class = center src='/static/experiments/beast_fmri_test/images/B.png'></img>	89,71	2750.0	test	<img class = center src='/static/experiments/beast_fmri_test/images/redB.png'></img>	stop	2400.0	1.0	4.0	stop	non-target	B	89,Yellow Button	71,Green Button	350.0	350.0	2400.0	2400.0	0.0	350.0	0.0	1.0	ITI
250284	500.0	n/a	-1	-1	500	0.0	fixation	poldrack-single-stim	488	1285017	0.0-21.5-0.5	beast_fmri_test	301	1284976,/	t	<div class = centerbox><div class = fixation>+</div></div>	none	500.0	test	n/a	n/a	n/a	n/a	n/a	n/a	n/a	n/a	n/a	n/a	n/a	n/a	n/a	n/a	n/a	n/a	n/a	n/a	fixation
249353.62308646482	2750.0	n/a	2288	89	2750	932.376913535	stim	stop-signal	489	1287769	0.0-21.5-1.5	beast_fmri_test	301	1285656,/,1286336,/,1287016,/,1287696,/,1288376,/	t,t,t,t,t	<img class = center src='/static/experiments/beast_fmri_test/images/B.png'></img>	89,71	2750.0	test	<img class = center src='/static/experiments/beast_fmri_test/images/redB.png'></img>	go	2400.0	1.0	5.0	go	target	B	89,Yellow Button	71,Green Button	350.0	400.0	2400.0	2400.0	1.0	350.0	1.0	n/a	go_stim
252103.62308646482	932.376913535	n/a	2288	89	2750	932.376913535	stim	stop-signal	489	1287769	0.0-21.5-1.5	beast_fmri_test	301	1285656,/,1286336,/,1287016,/,1287696,/,1288376,/	t,t,t,t,t	<img class = center src='/static/experiments/beast_fmri_test/images/B.png'></img>	89,71	2750.0	test	<img class = center src='/static/experiments/beast_fmri_test/images/redB.png'></img>	go	2400.0	1.0	5.0	go	target	B	89,Yellow Button	71,Green Button	350.0	400.0	2400.0	2400.0	1.0	350.0	1.0	n/a	ITI
254486	500.0	n/a	-1	-1	500	0.0	fixation	poldrack-single-stim	490	1289219	0.0-21.6-0.6	beast_fmri_test	301	1289056,/	t	<div class = centerbox><div class = fixation>+</div></div>	none	500.0	test	n/a	n/a	n/a	n/a	n/a	n/a	n/a	n/a	n/a	n/a	n/a	n/a	n/a	n/a	n/a	n/a	n/a	n/a	fixation
254078.30599707505	350.0	n/a	433	71	2750	409.694002925	stim	stop-signal	491	1291971	0.0-21.6-1.6	beast_fmri_test	301	1289736,/,1290416,/,1291096,/,1291776,/	t,t,t,t	<img class = center src='/static/experiments/beast_fmri_test/images/B.png'></img>	89,71	2750.0	test	<img class = center src='/static/experiments/beast_fmri_test/images/redB.png'></img>	stop	2400.0	1.0	6.0	stop	target	B	89,Yellow Button	71,Green Button	350.0	400.0	2400.0	2400.0	0.0	350.0	0.0	0.0	go_stim
256478.30599707505	2400.0	n/a	433	71	2750	409.694002925	stim	stop-signal	491	1291971	0.0-21.6-1.6	beast_fmri_test	301	1289736,/,1290416,/,1291096,/,1291776,/	t,t,t,t	<img class = center src='/static/experiments/beast_fmri_test/images/B.png'></img>	89,71	2750.0	test	<img class = center src='/static/experiments/beast_fmri_test/images/redB.png'></img>	stop	2400.0	1.0	6.0	stop	target	B	89,Yellow Button	71,Green Button	350.0	400.0	2400.0	2400.0	0.0	350.0	0.0	0.0	stop_stim
256828.30599707505	409.694002925	n/a	433	71	2750	409.694002925	stim	stop-signal	491	1291971	0.0-21.6-1.6	beast_fmri_test	301	1289736,/,1290416,/,1291096,/,1291776,/	t,t,t,t	<img class = center src='/static/experiments/beast_fmri_test/images/B.png'></img>	89,71	2750.0	test	<img class = center src='/static/experiments/beast_fmri_test/images/redB.png'></img>	stop	2400.0	1.0	6.0	stop	target	B	89,Yellow Button	71,Green Button	350.0	400.0	2400.0	2400.0	0.0	350.0	0.0	0.0	ITI
258167	500.0	n/a	-1	-1	500	0.0	fixation	poldrack-single-stim	492	1292900	0.0-21.7-0.7	beast_fmri_test	301	1292456,/	t	<div class = centerbox><div class = fixation>+</div></div>	none	500.0	test	n/a	n/a	n/a	n/a	n/a	n/a	n/a	n/a	n/a	n/a	n/a	n/a	n/a	n/a	n/a	n/a	n/a	n/a	fixation
258032.47198307444	300.0	n/a	421	71	2750	136.528016926	stim	stop-signal	493	1295652	0.0-21.7-1.7	beast_fmri_test	301	1293136,/,1293816,/,1294496,/,1295176,/	t,t,t,t	<img class = center src='/static/experiments/beast_fmri_test/images/B.png'></img>	89,71	2750.0	test	<img class = center src='/static/experiments/beast_fmri_test/images/redB.png'></img>	stop	2450.0	1.0	7.0	stop	target	B	89,Yellow Button	71,Green Button	300.0	400.0	2450.0	2400.0	0.0	300.0	0.0	0.0	go_stim
260482.47198307444	2450.0	n/a	421	71	2750	136.528016926	stim	stop-signal	493	1295652	0.0-21.7-1.7	beast_fmri_test	301	1293136,/,1293816,/,1294496,/,1295176,/	t,t,t,t	<img class = center src='/static/experiments/beast_fmri_test/images/B.png'></img>	89,71	2750.0	test	<img class = center src='/static/experiments/beast_fmri_test/images/redB.png'></img>	stop	2450.0	1.0	7.0	stop	target	B	89,Yellow Button	71,Green Button	300.0	400.0	2450.0	2400.0	0.0	300.0	0.0	0.0	stop_stim
260782.47198307444	136.528016926	n/a	421	71	2750	136.528016926	stim	stop-signal	493	1295652	0.0-21.7-1.7	beast_fmri_test	301	1293136,/,1293816,/,1294496,/,1295176,/	t,t,t,t	<img class = center src='/static/experiments/beast_fmri_test/images/B.png'></img>	89,71	2750.0	test	<img class = center src='/static/experiments/beast_fmri_test/images/redB.png'></img>	stop	2450.0	1.0	7.0	stop	target	B	89,Yellow Button	71,Green Button	300.0	400.0	2450.0	2400.0	0.0	300.0	0.0	0.0	ITI
261577	500.0	n/a	-1	-1	500	0.0	fixation	poldrack-single-stim	494	1296310	0.0-21.8-0.8	beast_fmri_test	301	1295856,/	t	<div class = centerbox><div class = fixation>+</div></div>	none	500.0	test	n/a	n/a	n/a	n/a	n/a	n/a	n/a	n/a	n/a	n/a	n/a	n/a	n/a	n/a	n/a	n/a	n/a	n/a	fixation
261053.44624731597	2750.0	n/a	794	89	2750	526.553752684	stim	stop-signal	495	1299063	0.0-21.8-1.8	beast_fmri_test	301	1296536,/,1297216,/,1297897,/,1298576,/,1299256,/	t,t,t,t,t	<img class = center src='/static/experiments/beast_fmri_test/images/D.png'></img>	89,71	2750.0	test	<img class = center src='/static/experiments/beast_fmri_test/images/redD.png'></img>	go	2350.0	1.0	8.0	go	non-target	D	89,Yellow Button	71,Green Button	250.0	400.0	2450.0	2350.0	0.0	400.0	0.0	n/a	go_stim
263803.44624731597	526.553752684	n/a	794	89	2750	526.553752684	stim	stop-signal	495	1299063	0.0-21.8-1.8	beast_fmri_test	301	1296536,/,1297216,/,1297897,/,1298576,/,1299256,/	t,t,t,t,t	<img class = center src='/static/experiments/beast_fmri_test/images/D.png'></img>	89,71	2750.0	test	<img class = center src='/static/experiments/beast_fmri_test/images/redD.png'></img>	go	2350.0	1.0	8.0	go	non-target	D	89,Yellow Button	71,Green Button	250.0	400.0	2450.0	2350.0	0.0	400.0	0.0	n/a	ITI
265374	500.0	n/a	-1	-1	500	0.0	fixation	poldrack-single-stim	496	1300107	0.0-21.9-0.9	beast_fmri_test	301	1299936,/	t	<div class = centerbox><div class = fixation>+</div></div>	none	500.0	test	n/a	n/a	n/a	n/a	n/a	n/a	n/a	n/a	n/a	n/a	n/a	n/a	n/a	n/a	n/a	n/a	n/a	n/a	fixation
264975.00303955562	2750.0	n/a	529	89	2750	399.996960444	stim	stop-signal	497	1302858	0.0-21.9-1.9	beast_fmri_test	301	1300616,/,1301296,/,1301976,/,1302656,/	t,t,t,t	<img class = center src='/static/experiments/beast_fmri_test/images/V.png'></img>	89,71	2750.0	test	<img class = center src='/static/experiments/beast_fmri_test/images/redV.png'></img>	go	2350.0	1.0	9.0	go	non-target	V	89,Yellow Button	71,Green Button	250.0	400.0	2450.0	2350.0	0.0	400.0	0.0	n/a	go_stim
267725.00303955562	399.996960444	n/a	529	89	2750	399.996960444	stim	stop-signal	497	1302858	0.0-21.9-1.9	beast_fmri_test	301	1300616,/,1301296,/,1301976,/,1302656,/	t,t,t,t	<img class = center src='/static/experiments/beast_fmri_test/images/V.png'></img>	89,71	2750.0	test	<img class = center src='/static/experiments/beast_fmri_test/images/redV.png'></img>	go	2350.0	1.0	9.0	go	non-target	V	89,Yellow Button	71,Green Button	250.0	400.0	2450.0	2350.0	0.0	400.0	0.0	n/a	ITI
269047	500.0	n/a	-1	-1	500	0.0	fixation	poldrack-single-stim	498	1303780	0.0-21.10-0.10	beast_fmri_test	301	1303336,/	t	<div class = centerbox><div class = fixation>+</div></div>	none	500.0	test	n/a	n/a	n/a	n/a	n/a	n/a	n/a	n/a	n/a	n/a	n/a	n/a	n/a	n/a	n/a	n/a	n/a	n/a	fixation
268909.27822242212	2750.0	n/a	572	71	2750	139.721777578	stim	stop-signal	499	1306532	0.0-21.10-1.10	beast_fmri_test	301	1304016,/,1304696,/,1305375,/,1306055,/	t,t,t,t	<img class = center src='/static/experiments/beast_fmri_test/images/V.png'></img>	89,71	2750.0	test	<img class = center src='/static/experiments/beast_fmri_test/images/redV.png'></img>	go	2500.0	1.0	10.0	go	target	V	89,Yellow Button	71,Green Button	250.0	400.0	2500.0	2350.0	0.0	250.0	0.0	n/a	go_stim
271659.27822242212	139.721777578	n/a	572	71	2750	139.721777578	stim	stop-signal	499	1306532	0.0-21.10-1.10	beast_fmri_test	301	1304016,/,1304696,/,1305375,/,1306055,/	t,t,t,t	<img class = center src='/static/experiments/beast_fmri_test/images/V.png'></img>	89,71	2750.0	test	<img class = center src='/static/experiments/beast_fmri_test/images/redV.png'></img>	go	2500.0	1.0	10.0	go	target	V	89,Yellow Button	71,Green Button	250.0	400.0	2500.0	2350.0	0.0	250.0	0.0	n/a	ITI
272461	500.0	n/a	-1	-1	500	0.0	fixation	poldrack-single-stim	500	1307194	0.0-21.11-0.11	beast_fmri_test	301	1306736,/	t	<div class = centerbox><div class = fixation>+</div></div>	none	500.0	test	n/a	n/a	n/a	n/a	n/a	n/a	n/a	n/a	n/a	n/a	n/a	n/a	n/a	n/a	n/a	n/a	n/a	n/a	fixation
272450.25363664422	2750.0	n/a	1424	71	2750	12.7463633557	stim	stop-signal	501	1309946	0.0-21.11-1.11	beast_fmri_test	301	1307416,/,1308097,/,1308776,/,1309455,/	t,t,t,t	<img class = center src='/static/experiments/beast_fmri_test/images/B.png'></img>	89,71	2750.0	test	<img class = center src='/static/experiments/beast_fmri_test/images/redB.png'></img>	go	2350.0	1.0	11.0	go	non-target	B	89,Yellow Button	71,Green Button	250.0	400.0	2500.0	2350.0	1.0	400.0	1.0	n/a	go_stim
275200.25363664422	12.7463633557	n/a	1424	71	2750	12.7463633557	stim	stop-signal	501	1309946	0.0-21.11-1.11	beast_fmri_test	301	1307416,/,1308097,/,1308776,/,1309455,/	t,t,t,t	<img class = center src='/static/experiments/beast_fmri_test/images/B.png'></img>	89,71	2750.0	test	<img class = center src='/static/experiments/beast_fmri_test/images/redB.png'></img>	go	2350.0	1.0	11.0	go	non-target	B	89,Yellow Button	71,Green Button	250.0	400.0	2500.0	2350.0	1.0	400.0	1.0	n/a	ITI
275745	500.0	n/a	-1	-1	500	0.0	fixation	poldrack-single-stim	502	1310478	0.0-21.12-0.12	beast_fmri_test	301	1310136,/	t	<div class = centerbox><div class = fixation>+</div></div>	none	500.0	test	n/a	n/a	n/a	n/a	n/a	n/a	n/a	n/a	n/a	n/a	n/a	n/a	n/a	n/a	n/a	n/a	n/a	n/a	fixation
274944.33038921887	2750.0	n/a	1032	89	2750	802.669610781	stim	stop-signal	503	1313230	0.0-21.12-1.12	beast_fmri_test	301	1310815,/,1311495,/,1312175,/,1312856,/,1313536,/	t,t,t,t,t	<img class = center src='/static/experiments/beast_fmri_test/images/D.png'></img>	89,71	2750.0	test	<img class = center src='/static/experiments/beast_fmri_test/images/redD.png'></img>	go	2350.0	1.0	12.0	go	non-target	D	89,Yellow Button	71,Green Button	250.0	400.0	2500.0	2350.0	0.0	400.0	0.0	n/a	go_stim
277694.33038921887	802.669610781	n/a	1032	89	2750	802.669610781	stim	stop-signal	503	1313230	0.0-21.12-1.12	beast_fmri_test	301	1310815,/,1311495,/,1312175,/,1312856,/,1313536,/	t,t,t,t,t	<img class = center src='/static/experiments/beast_fmri_test/images/D.png'></img>	89,71	2750.0	test	<img class = center src='/static/experiments/beast_fmri_test/images/redD.png'></img>	go	2350.0	1.0	12.0	go	non-target	D	89,Yellow Button	71,Green Button	250.0	400.0	2500.0	2350.0	0.0	400.0	0.0	n/a	ITI
279822	500.0	n/a	-1	-1	500	0.0	fixation	poldrack-single-stim	504	1314555	0.0-21.13-0.13	beast_fmri_test	301	1314216,/	t	<div class = centerbox><div class = fixation>+</div></div>	none	500.0	test	n/a	n/a	n/a	n/a	n/a	n/a	n/a	n/a	n/a	n/a	n/a	n/a	n/a	n/a	n/a	n/a	n/a	n/a	fixation
277617.71166932955	250.0	n/a	455	71	2750	2206.28833067	stim	stop-signal	505	1317307	0.0-21.13-1.13	beast_fmri_test	301	1314896,/,1315576,/,1316255,/,1316936,/,1317616,/,1318296,/,1318976,/	t,t,t,t,t,t,t	<img class = center src='/static/experiments/beast_fmri_test/images/D.png'></img>	89,71	2750.0	test	<img class = center src='/static/experiments/beast_fmri_test/images/redD.png'></img>	stop	2500.0	1.0	13.0	stop	target	D	89,Yellow Button	71,Green Button	250.0	400.0	2500.0	2350.0	0.0	250.0	0.0	0.0	go_stim
280117.71166932955	2500.0	n/a	455	71	2750	2206.28833067	stim	stop-signal	505	1317307	0.0-21.13-1.13	beast_fmri_test	301	1314896,/,1315576,/,1316255,/,1316936,/,1317616,/,1318296,/,1318976,/	t,t,t,t,t,t,t	<img class = center src='/static/experiments/beast_fmri_test/images/D.png'></img>	89,71	2750.0	test	<img class = center src='/static/experiments/beast_fmri_test/images/redD.png'></img>	stop	2500.0	1.0	13.0	stop	target	D	89,Yellow Button	71,Green Button	250.0	400.0	2500.0	2350.0	0.0	250.0	0.0	0.0	stop_stim
280367.71166932955	2206.28833067	n/a	455	71	2750	2206.28833067	stim	stop-signal	505	1317307	0.0-21.13-1.13	beast_fmri_test	301	1314896,/,1315576,/,1316255,/,1316936,/,1317616,/,1318296,/,1318976,/	t,t,t,t,t,t,t	<img class = center src='/static/experiments/beast_fmri_test/images/D.png'></img>	89,71	2750.0	test	<img class = center src='/static/experiments/beast_fmri_test/images/redD.png'></img>	stop	2500.0	1.0	13.0	stop	target	D	89,Yellow Button	71,Green Button	250.0	400.0	2500.0	2350.0	0.0	250.0	0.0	0.0	ITI
285308	500.0	n/a	-1	-1	500	0.0	fixation	poldrack-single-stim	506	1320041	0.0-21.14-0.14	beast_fmri_test	301	1319657,/	t	<div class = centerbox><div class = fixation>+</div></div>	none	500.0	test	n/a	n/a	n/a	n/a	n/a	n/a	n/a	n/a	n/a	n/a	n/a	n/a	n/a	n/a	n/a	n/a	n/a	n/a	fixation
284985.47575162956	2750.0	n/a	1000	71	2750	324.524248371	stim	stop-signal	507	1322793	0.0-21.14-1.14	beast_fmri_test	301	1320336,/,1321017,/,1321696,/,1322376,/,1323056,/	t,t,t,t,t	<img class = center src='/static/experiments/beast_fmri_test/images/D.png'></img>	89,71	2750.0	test	<img class = center src='/static/experiments/beast_fmri_test/images/redD.png'></img>	go	2550.0	1.0	14.0	go	target	D	89,Yellow Button	71,Green Button	200.0	400.0	2550.0	2350.0	0.0	200.0	0.0	n/a	go_stim
287735.47575162956	324.524248371	n/a	1000	71	2750	324.524248371	stim	stop-signal	507	1322793	0.0-21.14-1.14	beast_fmri_test	301	1320336,/,1321017,/,1321696,/,1322376,/,1323056,/	t,t,t,t,t	<img class = center src='/static/experiments/beast_fmri_test/images/D.png'></img>	89,71	2750.0	test	<img class = center src='/static/experiments/beast_fmri_test/images/redD.png'></img>	go	2550.0	1.0	14.0	go	target	D	89,Yellow Button	71,Green Button	200.0	400.0	2550.0	2350.0	0.0	200.0	0.0	n/a	ITI
288909	500.0	n/a	-1	-1	500	0.0	fixation	poldrack-single-stim	508	1323642	0.0-21.15-0.15	beast_fmri_test	301	n/a	n/a	<div class = centerbox><div class = fixation>+</div></div>	none	500.0	test	n/a	n/a	n/a	n/a	n/a	n/a	n/a	n/a	n/a	n/a	n/a	n/a	n/a	n/a	n/a	n/a	n/a	n/a	fixation
286813.65607493278	2750.0	n/a	939	71	2750	2096.34392507	stim	stop-signal	509	1326393	0.0-21.15-1.15	beast_fmri_test	301	1323737,/,1324416,/,1325096,/,1325776,/,1326456,/,1327136,/,1327816,/	t,t,t,t,t,t,t	<img class = center src='/static/experiments/beast_fmri_test/images/D.png'></img>	89,71	2750.0	test	<img class = center src='/static/experiments/beast_fmri_test/images/redD.png'></img>	go	2550.0	1.0	15.0	go	target	D	89,Yellow Button	71,Green Button	200.0	400.0	2550.0	2350.0	0.0	200.0	0.0	n/a	go_stim
289563.65607493278	2096.34392507	n/a	939	71	2750	2096.34392507	stim	stop-signal	509	1326393	0.0-21.15-1.15	beast_fmri_test	301	1323737,/,1324416,/,1325096,/,1325776,/,1326456,/,1327136,/,1327816,/	t,t,t,t,t,t,t	<img class = center src='/static/experiments/beast_fmri_test/images/D.png'></img>	89,71	2750.0	test	<img class = center src='/static/experiments/beast_fmri_test/images/redD.png'></img>	go	2550.0	1.0	15.0	go	target	D	89,Yellow Button	71,Green Button	200.0	400.0	2550.0	2350.0	0.0	200.0	0.0	n/a	ITI
294283	500.0	n/a	-1	-1	500	0.0	fixation	poldrack-single-stim	510	1329016	0.0-21.16-0.16	beast_fmri_test	301	1328515,/	t	<div class = centerbox><div class = fixation>+</div></div>	none	500.0	test	n/a	n/a	n/a	n/a	n/a	n/a	n/a	n/a	n/a	n/a	n/a	n/a	n/a	n/a	n/a	n/a	n/a	n/a	fixation
293467.51543708006	400.0	n/a	-1	-1	2750	817.48456292	stim	stop-signal	511	1331768	0.0-21.16-1.16	beast_fmri_test	301	1329176,/,1329856,/,1330536,/,1331216,/,1331896,/,1332576,/	t,t,t,t,t,t	<img class = center src='/static/experiments/beast_fmri_test/images/T.png'></img>	89,71	2750.0	test	<img class = center src='/static/experiments/beast_fmri_test/images/redT.png'></img>	stop	2350.0	1.0	16.0	stop	non-target	T	89,Yellow Button	71,Green Button	200.0	400.0	2550.0	2350.0	0.0	400.0	0.0	1.0	go_stim
295817.51543708006	2350.0	n/a	-1	-1	2750	817.48456292	stim	stop-signal	511	1331768	0.0-21.16-1.16	beast_fmri_test	301	1329176,/,1329856,/,1330536,/,1331216,/,1331896,/,1332576,/	t,t,t,t,t,t	<img class = center src='/static/experiments/beast_fmri_test/images/T.png'></img>	89,71	2750.0	test	<img class = center src='/static/experiments/beast_fmri_test/images/redT.png'></img>	stop	2350.0	1.0	16.0	stop	non-target	T	89,Yellow Button	71,Green Button	200.0	400.0	2550.0	2350.0	0.0	400.0	0.0	1.0	stop_stim
296217.51543708006	817.48456292	n/a	-1	-1	2750	817.48456292	stim	stop-signal	511	1331768	0.0-21.16-1.16	beast_fmri_test	301	1329176,/,1329856,/,1330536,/,1331216,/,1331896,/,1332576,/	t,t,t,t,t,t	<img class = center src='/static/experiments/beast_fmri_test/images/T.png'></img>	89,71	2750.0	test	<img class = center src='/static/experiments/beast_fmri_test/images/redT.png'></img>	stop	2350.0	1.0	16.0	stop	non-target	T	89,Yellow Button	71,Green Button	200.0	400.0	2550.0	2350.0	0.0	400.0	0.0	1.0	ITI
298374	500.0	n/a	-1	-1	500	0.0	fixation	poldrack-single-stim	512	1333107	0.0-21.17-0.17	beast_fmri_test	301	n/a	n/a	<div class = centerbox><div class = fixation>+</div></div>	none	500.0	test	n/a	n/a	n/a	n/a	n/a	n/a	n/a	n/a	n/a	n/a	n/a	n/a	n/a	n/a	n/a	n/a	n/a	n/a	fixation
297005.78783764574	450.0	n/a	773	89	2750	1371.21216235	stim	stop-signal	513	1335860	0.0-21.17-1.17	beast_fmri_test	301	1333256,/,1333936,/,1334616,/,1335296,/,1335976,/,1336656,/	t,t,t,t,t,t	<img class = center src='/static/experiments/beast_fmri_test/images/P.png'></img>	89,71	2750.0	test	<img class = center src='/static/experiments/beast_fmri_test/images/redP.png'></img>	stop	2300.0	1.0	17.0	stop	non-target	P	89,Yellow Button	71,Green Button	200.0	450.0	2550.0	2300.0	0.0	450.0	0.0	0.0	go_stim
299305.78783764574	2300.0	n/a	773	89	2750	1371.21216235	stim	stop-signal	513	1335860	0.0-21.17-1.17	beast_fmri_test	301	1333256,/,1333936,/,1334616,/,1335296,/,1335976,/,1336656,/	t,t,t,t,t,t	<img class = center src='/static/experiments/beast_fmri_test/images/P.png'></img>	89,71	2750.0	test	<img class = center src='/static/experiments/beast_fmri_test/images/redP.png'></img>	stop	2300.0	1.0	17.0	stop	non-target	P	89,Yellow Button	71,Green Button	200.0	450.0	2550.0	2300.0	0.0	450.0	0.0	0.0	stop_stim
299755.78783764574	1371.21216235	n/a	773	89	2750	1371.21216235	stim	stop-signal	513	1335860	0.0-21.17-1.17	beast_fmri_test	301	1333256,/,1333936,/,1334616,/,1335296,/,1335976,/,1336656,/	t,t,t,t,t,t	<img class = center src='/static/experiments/beast_fmri_test/images/P.png'></img>	89,71	2750.0	test	<img class = center src='/static/experiments/beast_fmri_test/images/redP.png'></img>	stop	2300.0	1.0	17.0	stop	non-target	P	89,Yellow Button	71,Green Button	200.0	450.0	2550.0	2300.0	0.0	450.0	0.0	0.0	ITI
303020	500.0	n/a	-1	-1	500	0.0	fixation	poldrack-single-stim	514	1337753	0.0-21.18-0.18	beast_fmri_test	301	1337336,/	t	<div class = centerbox><div class = fixation>+</div></div>	none	500.0	test	n/a	n/a	n/a	n/a	n/a	n/a	n/a	n/a	n/a	n/a	n/a	n/a	n/a	n/a	n/a	n/a	n/a	n/a	fixation
301359.79365996132	2750.0	n/a	1091	89	2750	1662.20634004	stim	stop-signal	515	1340505	0.0-21.18-1.18	beast_fmri_test	301	1338016,/,1338697,/,1339376,/,1340056,/,1340736,/,1341416,/,1342096,/	t,t,t,t,t,t,t	<img class = center src='/static/experiments/beast_fmri_test/images/V.png'></img>	89,71	2750.0	test	<img class = center src='/static/experiments/beast_fmri_test/images/redV.png'></img>	go	2350.0	1.0	18.0	go	non-target	V	89,Yellow Button	71,Green Button	200.0	400.0	2550.0	2350.0	0.0	400.0	0.0	n/a	go_stim
304109.79365996132	1662.20634004	n/a	1091	89	2750	1662.20634004	stim	stop-signal	515	1340505	0.0-21.18-1.18	beast_fmri_test	301	1338016,/,1338697,/,1339376,/,1340056,/,1340736,/,1341416,/,1342096,/	t,t,t,t,t,t,t	<img class = center src='/static/experiments/beast_fmri_test/images/V.png'></img>	89,71	2750.0	test	<img class = center src='/static/experiments/beast_fmri_test/images/redV.png'></img>	go	2350.0	1.0	18.0	go	non-target	V	89,Yellow Button	71,Green Button	200.0	400.0	2550.0	2350.0	0.0	400.0	0.0	n/a	ITI
307957	500.0	n/a	-1	-1	500	0.0	fixation	poldrack-single-stim	516	1342690	0.0-21.19-0.19	beast_fmri_test	301	n/a	n/a	<div class = centerbox><div class = fixation>+</div></div>	none	500.0	test	n/a	n/a	n/a	n/a	n/a	n/a	n/a	n/a	n/a	n/a	n/a	n/a	n/a	n/a	n/a	n/a	n/a	n/a	fixation
307613.37804771913	2750.0	n/a	528	71	2750	345.621952281	stim	stop-signal	517	1345442	0.0-21.19-1.19	beast_fmri_test	301	1342776,/,1343456,/,1344136,/,1344816,/,1345496,/	t,t,t,t,t	<img class = center src='/static/experiments/beast_fmri_test/images/V.png'></img>	89,71	2750.0	test	<img class = center src='/static/experiments/beast_fmri_test/images/redV.png'></img>	go	2550.0	1.0	19.0	go	target	V	89,Yellow Button	71,Green Button	200.0	400.0	2550.0	2350.0	0.0	200.0	0.0	n/a	go_stim
310363.37804771913	345.621952281	n/a	528	71	2750	345.621952281	stim	stop-signal	517	1345442	0.0-21.19-1.19	beast_fmri_test	301	1342776,/,1343456,/,1344136,/,1344816,/,1345496,/	t,t,t,t,t	<img class = center src='/static/experiments/beast_fmri_test/images/V.png'></img>	89,71	2750.0	test	<img class = center src='/static/experiments/beast_fmri_test/images/redV.png'></img>	go	2550.0	1.0	19.0	go	target	V	89,Yellow Button	71,Green Button	200.0	400.0	2550.0	2350.0	0.0	200.0	0.0	n/a	ITI
311579	500.0	n/a	-1	-1	500	0.0	fixation	poldrack-single-stim	518	1346312	0.0-21.20-0.20	beast_fmri_test	301	1346176,/	t	<div class = centerbox><div class = fixation>+</div></div>	none	500.0	test	n/a	n/a	n/a	n/a	n/a	n/a	n/a	n/a	n/a	n/a	n/a	n/a	n/a	n/a	n/a	n/a	n/a	n/a	fixation
310587.32565010339	2750.0	n/a	814	89	2750	994.674349897	stim	stop-signal	519	1349065	0.0-21.20-1.20	beast_fmri_test	301	1346856,/,1347536,/,1348216,/,1348896,/,1349576,/	t,t,t,t,t	<img class = center src='/static/experiments/beast_fmri_test/images/T.png'></img>	89,71	2750.0	test	<img class = center src='/static/experiments/beast_fmri_test/images/redT.png'></img>	go	2350.0	1.0	20.0	go	non-target	T	89,Yellow Button	71,Green Button	200.0	400.0	2550.0	2350.0	0.0	400.0	0.0	n/a	go_stim
313337.32565010339	994.674349897	n/a	814	89	2750	994.674349897	stim	stop-signal	519	1349065	0.0-21.20-1.20	beast_fmri_test	301	1346856,/,1347536,/,1348216,/,1348896,/,1349576,/	t,t,t,t,t	<img class = center src='/static/experiments/beast_fmri_test/images/T.png'></img>	89,71	2750.0	test	<img class = center src='/static/experiments/beast_fmri_test/images/redT.png'></img>	go	2350.0	1.0	20.0	go	non-target	T	89,Yellow Button	71,Green Button	200.0	400.0	2550.0	2350.0	0.0	400.0	0.0	n/a	ITI
315852	500.0	n/a	-1	-1	500	0.0	fixation	poldrack-single-stim	520	1350585	0.0-21.21-0.21	beast_fmri_test	301	1350256,/	t	<div class = centerbox><div class = fixation>+</div></div>	none	500.0	test	n/a	n/a	n/a	n/a	n/a	n/a	n/a	n/a	n/a	n/a	n/a	n/a	n/a	n/a	n/a	n/a	n/a	n/a	fixation
315414.53067142563	2750.0	n/a	1354	89	2750	439.469328574	stim	stop-signal	521	1353337	0.0-21.21-1.21	beast_fmri_test	301	1350937,/,1351617,/,1352297,/,1352977,/,1353657,/	t,t,t,t,t	<img class = center src='/static/experiments/beast_fmri_test/images/D.png'></img>	89,71	2750.0	test	<img class = center src='/static/experiments/beast_fmri_test/images/redD.png'></img>	go	2350.0	1.0	21.0	go	non-target	D	89,Yellow Button	71,Green Button	200.0	400.0	2550.0	2350.0	0.0	400.0	0.0	n/a	go_stim
318164.53067142563	439.469328574	n/a	1354	89	2750	439.469328574	stim	stop-signal	521	1353337	0.0-21.21-1.21	beast_fmri_test	301	1350937,/,1351617,/,1352297,/,1352977,/,1353657,/	t,t,t,t,t	<img class = center src='/static/experiments/beast_fmri_test/images/D.png'></img>	89,71	2750.0	test	<img class = center src='/static/experiments/beast_fmri_test/images/redD.png'></img>	go	2350.0	1.0	21.0	go	non-target	D	89,Yellow Button	71,Green Button	200.0	400.0	2550.0	2350.0	0.0	400.0	0.0	n/a	ITI
319570	500.0	n/a	-1	-1	500	0.0	fixation	poldrack-single-stim	522	1354303	0.0-21.22-0.22	beast_fmri_test	301	n/a	n/a	<div class = centerbox><div class = fixation>+</div></div>	none	500.0	test	n/a	n/a	n/a	n/a	n/a	n/a	n/a	n/a	n/a	n/a	n/a	n/a	n/a	n/a	n/a	n/a	n/a	n/a	fixation
318380.22814053413	2750.0	n/a	-1	-1	2750	1191.77185947	stim	stop-signal	523	1357055	0.0-21.22-1.22	beast_fmri_test	301	1354337,/,1355017,/,1355697,/,1356377,/,1357056,/,1357737,/	t,t,t,t,t,t	<img class = center src='/static/experiments/beast_fmri_test/images/T.png'></img>	89,71	2750.0	test	<img class = center src='/static/experiments/beast_fmri_test/images/redT.png'></img>	go	2350.0	1.0	22.0	go	non-target	T	89,Yellow Button	71,Green Button	200.0	400.0	2550.0	2350.0	0.0	400.0	0.0	n/a	go_stim
321130.22814053413	1191.77185947	n/a	-1	-1	2750	1191.77185947	stim	stop-signal	523	1357055	0.0-21.22-1.22	beast_fmri_test	301	1354337,/,1355017,/,1355697,/,1356377,/,1357056,/,1357737,/	t,t,t,t,t,t	<img class = center src='/static/experiments/beast_fmri_test/images/T.png'></img>	89,71	2750.0	test	<img class = center src='/static/experiments/beast_fmri_test/images/redT.png'></img>	go	2350.0	1.0	22.0	go	non-target	T	89,Yellow Button	71,Green Button	200.0	400.0	2550.0	2350.0	0.0	400.0	0.0	n/a	ITI
324035	500.0	n/a	-1	-1	500	0.0	fixation	poldrack-single-stim	524	1358768	0.0-21.23-0.23	beast_fmri_test	301	1358417,/	t	<div class = centerbox><div class = fixation>+</div></div>	none	500.0	test	n/a	n/a	n/a	n/a	n/a	n/a	n/a	n/a	n/a	n/a	n/a	n/a	n/a	n/a	n/a	n/a	n/a	n/a	fixation
