onset	duration	text	rt	key_press	block_duration	timing_post_trial	trial_id	trial_type	trial_index	time_elapsed	internal_node_id	exp_id	subject_id	trigger_times	triggers	stimulus	possible_responses	stim_duration	exp_stage	SS_stimulus	SS_trial_type	SS_duration	load	trial_num	stop_trial_type	adaptive_trial_type	stim	yes_response_key	no_response_key	SSD_target	SSD_non_target	SSTarget	SSNonTarget	go_acc	SS_delay	adaptive_acc	stop_acc	new_trial_type
test	10880.0	n/a	-1	-1	10880	0.0	practice-no-stop-feedback	poldrack-single-stim	6	63770	0.0-6.0	beast_fmri_test	330	52893,/,53571,/,54250,/,54932,/,55610,/,56290,/,56971,/,57650,/,58329,/,59008,/,59688,/,60369,/,61048,/,61727,/,62408,/,63088,/,63767,/	t,t,t,t,t,t,t,t,t,t,t,t,t,t,t,t,t	"<div class = ""centerbox""><p class = ""block-text"">Your delay is 2 trials.</p><p class = block-text>Please wait for the scanner to start the block</p></div>"	77	10880.0	n/a	n/a	n/a	n/a	n/a	n/a	n/a	n/a	n/a	n/a	n/a	n/a	n/a	n/a	n/a	n/a	n/a	n/a	n/a	start_functional_block
11381	500.0	n/a	-1	-1	500	0.0	fixation	poldrack-single-stim	7	64274	0.0-7.0-0.0	beast_fmri_test	330	n/a	n/a	<div class = centerbox2><div class = fixation>+</div></div>	none	500.0	test	n/a	n/a	n/a	n/a	n/a	n/a	n/a	n/a	n/a	n/a	n/a	n/a	n/a	n/a	n/a	n/a	n/a	n/a	fixation
10027.038351722687	2750.0	n/a	1342	71	2750	1359.96164828	stim	stop-signal	8	67030	0.0-7.0-1.0	beast_fmri_test	330	64445,/,65125,/,65806,/,66484,/,67165,/,67844,/	t,t,t,t,t,t	<img class = center src='/static/experiments/beast_fmri_test/images/T.png'></img>	71,89	2750.0	test	<img class = center src='/static/experiments/beast_fmri_test/images/redT.png'></img>	go	-1.0	2.0	0.0	go	temp-non-target	T	71,Index Finger	89,Middle Finger	500.0	500.0	0.0	0.0	0.0	n/a	n/a	n/a	go_stim
12777.038351722687	1359.96164828	n/a	1342	71	2750	1359.96164828	stim	stop-signal	8	67030	0.0-7.0-1.0	beast_fmri_test	330	64445,/,65125,/,65806,/,66484,/,67165,/,67844,/	t,t,t,t,t,t	<img class = center src='/static/experiments/beast_fmri_test/images/T.png'></img>	71,89	2750.0	test	<img class = center src='/static/experiments/beast_fmri_test/images/redT.png'></img>	go	-1.0	2.0	0.0	go	temp-non-target	T	71,Index Finger	89,Middle Finger	500.0	500.0	0.0	0.0	0.0	n/a	n/a	n/a	ITI
16002	500.0	n/a	-1	-1	500	0.0	fixation	poldrack-single-stim	9	68895	0.0-7.1-0.1	beast_fmri_test	330	68524,/	t	<div class = centerbox2><div class = fixation>+</div></div>	none	500.0	test	n/a	n/a	n/a	n/a	n/a	n/a	n/a	n/a	n/a	n/a	n/a	n/a	n/a	n/a	n/a	n/a	n/a	n/a	fixation
14163.817809518616	2750.0	n/a	1415	71	2750	1841.18219048	stim	stop-signal	10	71648	0.0-7.1-1.1	beast_fmri_test	330	69204,/,69883,/,70563,/,71243,/,71923,/,72603,/,73282,/	t,t,t,t,t,t,t	<img class = center src='/static/experiments/beast_fmri_test/images/T.png'></img>	71,89	2750.0	test	<img class = center src='/static/experiments/beast_fmri_test/images/redT.png'></img>	go	-1.0	2.0	1.0	go	temp-non-target	T	71,Index Finger	89,Middle Finger	500.0	500.0	0.0	0.0	0.0	n/a	n/a	n/a	go_stim
16913.817809518616	1841.18219048	n/a	1415	71	2750	1841.18219048	stim	stop-signal	10	71648	0.0-7.1-1.1	beast_fmri_test	330	69204,/,69883,/,70563,/,71243,/,71923,/,72603,/,73282,/	t,t,t,t,t,t,t	<img class = center src='/static/experiments/beast_fmri_test/images/T.png'></img>	71,89	2750.0	test	<img class = center src='/static/experiments/beast_fmri_test/images/redT.png'></img>	go	-1.0	2.0	1.0	go	temp-non-target	T	71,Index Finger	89,Middle Finger	500.0	500.0	0.0	0.0	0.0	n/a	n/a	n/a	ITI
21106	500.0	n/a	-1	-1	500	0.0	fixation	poldrack-single-stim	11	73999	0.0-7.2-0.2	beast_fmri_test	330	73962,/	t	<div class = centerbox2><div class = fixation>+</div></div>	none	500.0	test	n/a	n/a	n/a	n/a	n/a	n/a	n/a	n/a	n/a	n/a	n/a	n/a	n/a	n/a	n/a	n/a	n/a	n/a	fixation
20337.560575497293	2750.0	n/a	813	71	2750	770.439424503	stim	stop-signal	12	76751	0.0-7.2-1.2	beast_fmri_test	330	74642,/,75321,/,76002,/,76680,/,77360,/	t,t,t,t,t	<img class = center src='/static/experiments/beast_fmri_test/images/V.png'></img>	71,89	2750.0	test	<img class = center src='/static/experiments/beast_fmri_test/images/redV.png'></img>	go	2250.0	2.0	2.0	go	non-target	V	71,Index Finger	89,Middle Finger	500.0	500.0	0.0	2250.0	0.0	500.0	0.0	n/a	go_stim
23087.560575497293	770.439424503	n/a	813	71	2750	770.439424503	stim	stop-signal	12	76751	0.0-7.2-1.2	beast_fmri_test	330	74642,/,75321,/,76002,/,76680,/,77360,/	t,t,t,t,t	<img class = center src='/static/experiments/beast_fmri_test/images/V.png'></img>	71,89	2750.0	test	<img class = center src='/static/experiments/beast_fmri_test/images/redV.png'></img>	go	2250.0	2.0	2.0	go	non-target	V	71,Index Finger	89,Middle Finger	500.0	500.0	0.0	2250.0	0.0	500.0	0.0	n/a	ITI
25136	500.0	n/a	-1	-1	500	0.0	fixation	poldrack-single-stim	13	78029	0.0-7.3-0.3	beast_fmri_test	330	n/a	n/a	<div class = centerbox2><div class = fixation>+</div></div>	none	500.0	test	n/a	n/a	n/a	n/a	n/a	n/a	n/a	n/a	n/a	n/a	n/a	n/a	n/a	n/a	n/a	n/a	n/a	n/a	fixation
23913.562711820385	2750.0	n/a	1119	89	2750	1223.43728818	stim	stop-signal	14	80780	0.0-7.3-1.3	beast_fmri_test	330	78040,/,78721,/,79400,/,80079,/,80758,/,81438,/	t,t,t,t,t,t	<img class = center src='/static/experiments/beast_fmri_test/images/T.png'></img>	71,89	2750.0	test	<img class = center src='/static/experiments/beast_fmri_test/images/redT.png'></img>	go	2250.0	2.0	3.0	go	target	T	71,Index Finger	89,Middle Finger	500.0	500.0	2250.0	2250.0	0.0	500.0	0.0	n/a	go_stim
26663.562711820385	1223.43728818	n/a	1119	89	2750	1223.43728818	stim	stop-signal	14	80780	0.0-7.3-1.3	beast_fmri_test	330	78040,/,78721,/,79400,/,80079,/,80758,/,81438,/	t,t,t,t,t,t	<img class = center src='/static/experiments/beast_fmri_test/images/T.png'></img>	71,89	2750.0	test	<img class = center src='/static/experiments/beast_fmri_test/images/redT.png'></img>	go	2250.0	2.0	3.0	go	target	T	71,Index Finger	89,Middle Finger	500.0	500.0	2250.0	2250.0	0.0	500.0	0.0	n/a	ITI
29616	500.0	n/a	-1	-1	500	0.0	fixation	poldrack-single-stim	15	82509	0.0-7.4-0.4	beast_fmri_test	330	82118,/	t	<div class = centerbox2><div class = fixation>+</div></div>	none	500.0	test	n/a	n/a	n/a	n/a	n/a	n/a	n/a	n/a	n/a	n/a	n/a	n/a	n/a	n/a	n/a	n/a	n/a	n/a	fixation
29169.024867515735	500.0	n/a	-1	-1	2750	448.975132484	stim	stop-signal	16	85261	0.0-7.4-1.4	beast_fmri_test	330	82797,/,83478,/,84157,/,84837,/,85517,/	t,t,t,t,t	<img class = center src='/static/experiments/beast_fmri_test/images/V.png'></img>	71,89	2750.0	test	<img class = center src='/static/experiments/beast_fmri_test/images/redV.png'></img>	stop	2250.0	2.0	4.0	stop	target	V	71,Index Finger	89,Middle Finger	500.0	500.0	2250.0	2250.0	0.0	500.0	n/a	1.0	go_stim
31419.024867515735	2250.0	n/a	-1	-1	2750	448.975132484	stim	stop-signal	16	85261	0.0-7.4-1.4	beast_fmri_test	330	82797,/,83478,/,84157,/,84837,/,85517,/	t,t,t,t,t	<img class = center src='/static/experiments/beast_fmri_test/images/V.png'></img>	71,89	2750.0	test	<img class = center src='/static/experiments/beast_fmri_test/images/redV.png'></img>	stop	2250.0	2.0	4.0	stop	target	V	71,Index Finger	89,Middle Finger	500.0	500.0	2250.0	2250.0	0.0	500.0	n/a	1.0	stop_stim
31919.024867515735	448.975132484	n/a	-1	-1	2750	448.975132484	stim	stop-signal	16	85261	0.0-7.4-1.4	beast_fmri_test	330	82797,/,83478,/,84157,/,84837,/,85517,/	t,t,t,t,t	<img class = center src='/static/experiments/beast_fmri_test/images/V.png'></img>	71,89	2750.0	test	<img class = center src='/static/experiments/beast_fmri_test/images/redV.png'></img>	stop	2250.0	2.0	4.0	stop	target	V	71,Index Finger	89,Middle Finger	500.0	500.0	2250.0	2250.0	0.0	500.0	n/a	1.0	ITI
33323	500.0	n/a	-1	-1	500	0.0	fixation	poldrack-single-stim	17	86216	0.0-7.5-0.5	beast_fmri_test	330	86196,/	t	<div class = centerbox2><div class = fixation>+</div></div>	none	500.0	test	n/a	n/a	n/a	n/a	n/a	n/a	n/a	n/a	n/a	n/a	n/a	n/a	n/a	n/a	n/a	n/a	n/a	n/a	fixation
31620.354377796873	550.0	n/a	994	71	2750	1704.6456222	stim	stop-signal	18	88968	0.0-7.5-1.5	beast_fmri_test	330	86875,/,87555,/,88235,/,88915,/,89596,/,90274,/	t,t,t,t,t,t	<img class = center src='/static/experiments/beast_fmri_test/images/T.png'></img>	71,89	2750.0	test	<img class = center src='/static/experiments/beast_fmri_test/images/redT.png'></img>	stop	2200.0	2.0	5.0	stop	target	T	71,Index Finger	89,Middle Finger	550.0	500.0	2200.0	2250.0	0.0	550.0	n/a	0.0	go_stim
33820.354377796873	2200.0	n/a	994	71	2750	1704.6456222	stim	stop-signal	18	88968	0.0-7.5-1.5	beast_fmri_test	330	86875,/,87555,/,88235,/,88915,/,89596,/,90274,/	t,t,t,t,t,t	<img class = center src='/static/experiments/beast_fmri_test/images/T.png'></img>	71,89	2750.0	test	<img class = center src='/static/experiments/beast_fmri_test/images/redT.png'></img>	stop	2200.0	2.0	5.0	stop	target	T	71,Index Finger	89,Middle Finger	550.0	500.0	2200.0	2250.0	0.0	550.0	n/a	0.0	stop_stim
34370.354377796873	1704.6456222	n/a	994	71	2750	1704.6456222	stim	stop-signal	18	88968	0.0-7.5-1.5	beast_fmri_test	330	86875,/,87555,/,88235,/,88915,/,89596,/,90274,/	t,t,t,t,t,t	<img class = center src='/static/experiments/beast_fmri_test/images/T.png'></img>	71,89	2750.0	test	<img class = center src='/static/experiments/beast_fmri_test/images/redT.png'></img>	stop	2200.0	2.0	5.0	stop	target	T	71,Index Finger	89,Middle Finger	550.0	500.0	2200.0	2250.0	0.0	550.0	n/a	0.0	ITI
38287	500.0	n/a	-1	-1	500	0.0	fixation	poldrack-single-stim	19	91180	0.0-7.6-0.6	beast_fmri_test	330	90955,/	t	<div class = centerbox2><div class = fixation>+</div></div>	none	500.0	test	n/a	n/a	n/a	n/a	n/a	n/a	n/a	n/a	n/a	n/a	n/a	n/a	n/a	n/a	n/a	n/a	n/a	n/a	fixation
37506.940275104775	2750.0	n/a	879	89	2750	782.059724895	stim	stop-signal	20	93932	0.0-7.6-1.6	beast_fmri_test	330	91633,/,92313,/,92994,/,93673,/,94352,/	t,t,t,t,t	<img class = center src='/static/experiments/beast_fmri_test/images/V.png'></img>	71,89	2750.0	test	<img class = center src='/static/experiments/beast_fmri_test/images/redV.png'></img>	go	2250.0	2.0	6.0	go	target	V	71,Index Finger	89,Middle Finger	500.0	500.0	2250.0	2250.0	0.0	500.0	0.0	n/a	go_stim
40256.940275104775	782.059724895	n/a	879	89	2750	782.059724895	stim	stop-signal	20	93932	0.0-7.6-1.6	beast_fmri_test	330	91633,/,92313,/,92994,/,93673,/,94352,/	t,t,t,t,t	<img class = center src='/static/experiments/beast_fmri_test/images/V.png'></img>	71,89	2750.0	test	<img class = center src='/static/experiments/beast_fmri_test/images/redV.png'></img>	go	2250.0	2.0	6.0	go	target	V	71,Index Finger	89,Middle Finger	500.0	500.0	2250.0	2250.0	0.0	500.0	0.0	n/a	ITI
42330	500.0	n/a	-1	-1	500	0.0	fixation	poldrack-single-stim	21	95223	0.0-7.7-0.7	beast_fmri_test	330	95032,/	t	<div class = centerbox2><div class = fixation>+</div></div>	none	500.0	test	n/a	n/a	n/a	n/a	n/a	n/a	n/a	n/a	n/a	n/a	n/a	n/a	n/a	n/a	n/a	n/a	n/a	n/a	fixation
41784.203429048124	2750.0	n/a	1580	71	2750	546.796570952	stim	stop-signal	22	97974	0.0-7.7-1.7	beast_fmri_test	330	95713,/,96391,/,97070,/,97750,/,98431,/	t,t,t,t,t	<img class = center src='/static/experiments/beast_fmri_test/images/V.png'></img>	71,89	2750.0	test	<img class = center src='/static/experiments/beast_fmri_test/images/redV.png'></img>	go	2250.0	2.0	7.0	go	non-target	V	71,Index Finger	89,Middle Finger	500.0	500.0	2250.0	2250.0	0.0	500.0	0.0	n/a	go_stim
44534.203429048124	546.796570952	n/a	1580	71	2750	546.796570952	stim	stop-signal	22	97974	0.0-7.7-1.7	beast_fmri_test	330	95713,/,96391,/,97070,/,97750,/,98431,/	t,t,t,t,t	<img class = center src='/static/experiments/beast_fmri_test/images/V.png'></img>	71,89	2750.0	test	<img class = center src='/static/experiments/beast_fmri_test/images/redV.png'></img>	go	2250.0	2.0	7.0	go	non-target	V	71,Index Finger	89,Middle Finger	500.0	500.0	2250.0	2250.0	0.0	500.0	0.0	n/a	ITI
46136	500.0	n/a	-1	-1	500	0.0	fixation	poldrack-single-stim	23	99029	0.0-7.8-0.8	beast_fmri_test	330	n/a	n/a	<div class = centerbox2><div class = fixation>+</div></div>	none	500.0	test	n/a	n/a	n/a	n/a	n/a	n/a	n/a	n/a	n/a	n/a	n/a	n/a	n/a	n/a	n/a	n/a	n/a	n/a	fixation
45915.464852506775	500.0	n/a	-1	-1	2750	221.535147493	stim	stop-signal	24	101780	0.0-7.8-1.8	beast_fmri_test	330	99110,/,99790,/,100470,/,101151,/,101831,/	t,t,t,t,t	<img class = center src='/static/experiments/beast_fmri_test/images/D.png'></img>	71,89	2750.0	test	<img class = center src='/static/experiments/beast_fmri_test/images/redD.png'></img>	stop	2250.0	2.0	8.0	stop	non-target	D	71,Index Finger	89,Middle Finger	500.0	500.0	2250.0	2250.0	0.0	500.0	n/a	1.0	go_stim
48165.464852506775	2250.0	n/a	-1	-1	2750	221.535147493	stim	stop-signal	24	101780	0.0-7.8-1.8	beast_fmri_test	330	99110,/,99790,/,100470,/,101151,/,101831,/	t,t,t,t,t	<img class = center src='/static/experiments/beast_fmri_test/images/D.png'></img>	71,89	2750.0	test	<img class = center src='/static/experiments/beast_fmri_test/images/redD.png'></img>	stop	2250.0	2.0	8.0	stop	non-target	D	71,Index Finger	89,Middle Finger	500.0	500.0	2250.0	2250.0	0.0	500.0	n/a	1.0	stop_stim
48665.464852506775	221.535147493	n/a	-1	-1	2750	221.535147493	stim	stop-signal	24	101780	0.0-7.8-1.8	beast_fmri_test	330	99110,/,99790,/,100470,/,101151,/,101831,/	t,t,t,t,t	<img class = center src='/static/experiments/beast_fmri_test/images/D.png'></img>	71,89	2750.0	test	<img class = center src='/static/experiments/beast_fmri_test/images/redD.png'></img>	stop	2250.0	2.0	8.0	stop	non-target	D	71,Index Finger	89,Middle Finger	500.0	500.0	2250.0	2250.0	0.0	500.0	n/a	1.0	ITI
49617	500.0	n/a	-1	-1	500	0.0	fixation	poldrack-single-stim	25	102510	0.0-7.9-0.9	beast_fmri_test	330	102509,/	t	<div class = centerbox2><div class = fixation>+</div></div>	none	500.0	test	n/a	n/a	n/a	n/a	n/a	n/a	n/a	n/a	n/a	n/a	n/a	n/a	n/a	n/a	n/a	n/a	n/a	n/a	fixation
49260.113518548213	2750.0	n/a	688	71	2750	357.886481452	stim	stop-signal	26	105261	0.0-7.9-1.9	beast_fmri_test	330	103190,/,103870,/,104548,/,105228,/	t,t,t,t	<img class = center src='/static/experiments/beast_fmri_test/images/P.png'></img>	71,89	2750.0	test	<img class = center src='/static/experiments/beast_fmri_test/images/redP.png'></img>	go	2200.0	2.0	9.0	go	non-target	P	71,Index Finger	89,Middle Finger	500.0	550.0	2250.0	2200.0	0.0	550.0	0.0	n/a	go_stim
52010.113518548213	357.886481452	n/a	688	71	2750	357.886481452	stim	stop-signal	26	105261	0.0-7.9-1.9	beast_fmri_test	330	103190,/,103870,/,104548,/,105228,/	t,t,t,t	<img class = center src='/static/experiments/beast_fmri_test/images/P.png'></img>	71,89	2750.0	test	<img class = center src='/static/experiments/beast_fmri_test/images/redP.png'></img>	go	2200.0	2.0	9.0	go	non-target	P	71,Index Finger	89,Middle Finger	500.0	550.0	2250.0	2200.0	0.0	550.0	0.0	n/a	ITI
53237	500.0	n/a	-1	-1	500	0.0	fixation	poldrack-single-stim	27	106130	0.0-7.10-0.10	beast_fmri_test	330	105908,/	t	<div class = centerbox2><div class = fixation>+</div></div>	none	500.0	test	n/a	n/a	n/a	n/a	n/a	n/a	n/a	n/a	n/a	n/a	n/a	n/a	n/a	n/a	n/a	n/a	n/a	n/a	fixation
53088.716991475871	550.0	n/a	949	71	2750	150.283008524	stim	stop-signal	28	108882	0.0-7.10-1.10	beast_fmri_test	330	106588,/,107267,/,107948,/,108627,/	t,t,t,t	<img class = center src='/static/experiments/beast_fmri_test/images/P.png'></img>	71,89	2750.0	test	<img class = center src='/static/experiments/beast_fmri_test/images/redP.png'></img>	stop	2200.0	2.0	10.0	stop	non-target	P	71,Index Finger	89,Middle Finger	500.0	550.0	2250.0	2200.0	0.0	550.0	n/a	0.0	go_stim
55288.716991475871	2200.0	n/a	949	71	2750	150.283008524	stim	stop-signal	28	108882	0.0-7.10-1.10	beast_fmri_test	330	106588,/,107267,/,107948,/,108627,/	t,t,t,t	<img class = center src='/static/experiments/beast_fmri_test/images/P.png'></img>	71,89	2750.0	test	<img class = center src='/static/experiments/beast_fmri_test/images/redP.png'></img>	stop	2200.0	2.0	10.0	stop	non-target	P	71,Index Finger	89,Middle Finger	500.0	550.0	2250.0	2200.0	0.0	550.0	n/a	0.0	stop_stim
55838.716991475871	150.283008524	n/a	949	71	2750	150.283008524	stim	stop-signal	28	108882	0.0-7.10-1.10	beast_fmri_test	330	106588,/,107267,/,107948,/,108627,/	t,t,t,t	<img class = center src='/static/experiments/beast_fmri_test/images/P.png'></img>	71,89	2750.0	test	<img class = center src='/static/experiments/beast_fmri_test/images/redP.png'></img>	stop	2200.0	2.0	10.0	stop	non-target	P	71,Index Finger	89,Middle Finger	500.0	550.0	2250.0	2200.0	0.0	550.0	n/a	0.0	ITI
56649	500.0	n/a	-1	-1	500	0.0	fixation	poldrack-single-stim	29	109542	0.0-7.11-0.11	beast_fmri_test	330	109306,/	t	<div class = centerbox2><div class = fixation>+</div></div>	none	500.0	test	n/a	n/a	n/a	n/a	n/a	n/a	n/a	n/a	n/a	n/a	n/a	n/a	n/a	n/a	n/a	n/a	n/a	n/a	fixation
56270.414785624904	2750.0	n/a	1156	89	2750	379.585214375	stim	stop-signal	30	112293	0.0-7.11-1.11	beast_fmri_test	330	109986,/,110665,/,111365,/,112024,/	t,t,t,t	<img class = center src='/static/experiments/beast_fmri_test/images/V.png'></img>	71,89	2750.0	test	<img class = center src='/static/experiments/beast_fmri_test/images/redV.png'></img>	go	2250.0	2.0	11.0	go	non-target	V	71,Index Finger	89,Middle Finger	500.0	500.0	2250.0	2250.0	1.0	500.0	1.0	n/a	go_stim
59020.414785624904	379.585214375	n/a	1156	89	2750	379.585214375	stim	stop-signal	30	112293	0.0-7.11-1.11	beast_fmri_test	330	109986,/,110665,/,111365,/,112024,/	t,t,t,t	<img class = center src='/static/experiments/beast_fmri_test/images/V.png'></img>	71,89	2750.0	test	<img class = center src='/static/experiments/beast_fmri_test/images/redV.png'></img>	go	2250.0	2.0	11.0	go	non-target	V	71,Index Finger	89,Middle Finger	500.0	500.0	2250.0	2250.0	1.0	500.0	1.0	n/a	ITI
60288	500.0	n/a	-1	-1	500	0.0	fixation	poldrack-single-stim	31	113181	0.0-7.12-0.12	beast_fmri_test	330	112705,/	t	<div class = centerbox2><div class = fixation>+</div></div>	none	500.0	test	n/a	n/a	n/a	n/a	n/a	n/a	n/a	n/a	n/a	n/a	n/a	n/a	n/a	n/a	n/a	n/a	n/a	n/a	fixation
58489.941496081359	500.0	n/a	-1	-1	2750	1799.05850392	stim	stop-signal	32	115932	0.0-7.12-1.12	beast_fmri_test	330	113384,/,114064,/,114743,/,115422,/,116102,/,116783,/,117462,/	t,t,t,t,t,t,t	<img class = center src='/static/experiments/beast_fmri_test/images/P.png'></img>	71,89	2750.0	test	<img class = center src='/static/experiments/beast_fmri_test/images/redP.png'></img>	stop	2250.0	2.0	12.0	stop	target	P	71,Index Finger	89,Middle Finger	500.0	500.0	2250.0	2250.0	0.0	500.0	n/a	1.0	go_stim
60739.941496081359	2250.0	n/a	-1	-1	2750	1799.05850392	stim	stop-signal	32	115932	0.0-7.12-1.12	beast_fmri_test	330	113384,/,114064,/,114743,/,115422,/,116102,/,116783,/,117462,/	t,t,t,t,t,t,t	<img class = center src='/static/experiments/beast_fmri_test/images/P.png'></img>	71,89	2750.0	test	<img class = center src='/static/experiments/beast_fmri_test/images/redP.png'></img>	stop	2250.0	2.0	12.0	stop	target	P	71,Index Finger	89,Middle Finger	500.0	500.0	2250.0	2250.0	0.0	500.0	n/a	1.0	stop_stim
61239.941496081359	1799.05850392	n/a	-1	-1	2750	1799.05850392	stim	stop-signal	32	115932	0.0-7.12-1.12	beast_fmri_test	330	113384,/,114064,/,114743,/,115422,/,116102,/,116783,/,117462,/	t,t,t,t,t,t,t	<img class = center src='/static/experiments/beast_fmri_test/images/P.png'></img>	71,89	2750.0	test	<img class = center src='/static/experiments/beast_fmri_test/images/redP.png'></img>	stop	2250.0	2.0	12.0	stop	target	P	71,Index Finger	89,Middle Finger	500.0	500.0	2250.0	2250.0	0.0	500.0	n/a	1.0	ITI
65347	500.0	n/a	-1	-1	500	0.0	fixation	poldrack-single-stim	33	118240	0.0-7.13-0.13	beast_fmri_test	330	118143,/	t	<div class = centerbox2><div class = fixation>+</div></div>	none	500.0	test	n/a	n/a	n/a	n/a	n/a	n/a	n/a	n/a	n/a	n/a	n/a	n/a	n/a	n/a	n/a	n/a	n/a	n/a	fixation
64042.091890585492	550.0	n/a	-1	-1	2750	1306.90810941	stim	stop-signal	34	120992	0.0-7.13-1.13	beast_fmri_test	330	118822,/,119501,/,120180,/,120860,/,121539,/,122220,/	t,t,t,t,t,t	<img class = center src='/static/experiments/beast_fmri_test/images/V.png'></img>	71,89	2750.0	test	<img class = center src='/static/experiments/beast_fmri_test/images/redV.png'></img>	stop	2200.0	2.0	13.0	stop	target	V	71,Index Finger	89,Middle Finger	550.0	500.0	2200.0	2250.0	0.0	550.0	n/a	1.0	go_stim
66242.091890585492	2200.0	n/a	-1	-1	2750	1306.90810941	stim	stop-signal	34	120992	0.0-7.13-1.13	beast_fmri_test	330	118822,/,119501,/,120180,/,120860,/,121539,/,122220,/	t,t,t,t,t,t	<img class = center src='/static/experiments/beast_fmri_test/images/V.png'></img>	71,89	2750.0	test	<img class = center src='/static/experiments/beast_fmri_test/images/redV.png'></img>	stop	2200.0	2.0	13.0	stop	target	V	71,Index Finger	89,Middle Finger	550.0	500.0	2200.0	2250.0	0.0	550.0	n/a	1.0	stop_stim
66792.091890585492	1306.90810941	n/a	-1	-1	2750	1306.90810941	stim	stop-signal	34	120992	0.0-7.13-1.13	beast_fmri_test	330	118822,/,119501,/,120180,/,120860,/,121539,/,122220,/	t,t,t,t,t,t	<img class = center src='/static/experiments/beast_fmri_test/images/V.png'></img>	71,89	2750.0	test	<img class = center src='/static/experiments/beast_fmri_test/images/redV.png'></img>	stop	2200.0	2.0	13.0	stop	target	V	71,Index Finger	89,Middle Finger	550.0	500.0	2200.0	2250.0	0.0	550.0	n/a	1.0	ITI
69914	500.0	n/a	-1	-1	500	0.0	fixation	poldrack-single-stim	35	122807	0.0-7.14-0.14	beast_fmri_test	330	n/a	n/a	<div class = centerbox2><div class = fixation>+</div></div>	none	500.0	test	n/a	n/a	n/a	n/a	n/a	n/a	n/a	n/a	n/a	n/a	n/a	n/a	n/a	n/a	n/a	n/a	n/a	n/a	fixation
69663.233785048782	2750.0	n/a	673	89	2750	251.766214951	stim	stop-signal	36	125558	0.0-7.14-1.14	beast_fmri_test	330	122899,/,123580,/,124258,/,124938,/,125617,/	t,t,t,t,t	<img class = center src='/static/experiments/beast_fmri_test/images/P.png'></img>	71,89	2750.0	test	<img class = center src='/static/experiments/beast_fmri_test/images/redP.png'></img>	go	2150.0	2.0	14.0	go	target	P	71,Index Finger	89,Middle Finger	600.0	500.0	2150.0	2250.0	0.0	600.0	0.0	n/a	go_stim
72413.233785048782	251.766214951	n/a	673	89	2750	251.766214951	stim	stop-signal	36	125558	0.0-7.14-1.14	beast_fmri_test	330	122899,/,123580,/,124258,/,124938,/,125617,/	t,t,t,t,t	<img class = center src='/static/experiments/beast_fmri_test/images/P.png'></img>	71,89	2750.0	test	<img class = center src='/static/experiments/beast_fmri_test/images/redP.png'></img>	go	2150.0	2.0	14.0	go	target	P	71,Index Finger	89,Middle Finger	600.0	500.0	2150.0	2250.0	0.0	600.0	0.0	n/a	ITI
73427	500.0	n/a	-1	-1	500	0.0	fixation	poldrack-single-stim	37	126320	0.0-7.15-0.15	beast_fmri_test	330	126297,/	t	<div class = centerbox2><div class = fixation>+</div></div>	none	500.0	test	n/a	n/a	n/a	n/a	n/a	n/a	n/a	n/a	n/a	n/a	n/a	n/a	n/a	n/a	n/a	n/a	n/a	n/a	fixation
73385.931831341979	2750.0	n/a	758	71	2750	43.068168658	stim	stop-signal	38	129072	0.0-7.15-1.15	beast_fmri_test	330	126978,/,127656,/,128337,/,129016,/	t,t,t,t	<img class = center src='/static/experiments/beast_fmri_test/images/V.png'></img>	71,89	2750.0	test	<img class = center src='/static/experiments/beast_fmri_test/images/redV.png'></img>	go	2150.0	2.0	15.0	go	target	V	71,Index Finger	89,Middle Finger	600.0	500.0	2150.0	2250.0	1.0	600.0	1.0	n/a	go_stim
76135.931831341979	43.068168658	n/a	758	71	2750	43.068168658	stim	stop-signal	38	129072	0.0-7.15-1.15	beast_fmri_test	330	126978,/,127656,/,128337,/,129016,/	t,t,t,t	<img class = center src='/static/experiments/beast_fmri_test/images/V.png'></img>	71,89	2750.0	test	<img class = center src='/static/experiments/beast_fmri_test/images/redV.png'></img>	go	2150.0	2.0	15.0	go	target	V	71,Index Finger	89,Middle Finger	600.0	500.0	2150.0	2250.0	1.0	600.0	1.0	n/a	ITI
76731	500.0	n/a	-1	-1	500	0.0	fixation	poldrack-single-stim	39	129624	0.0-7.16-0.16	beast_fmri_test	330	n/a	n/a	<div class = centerbox2><div class = fixation>+</div></div>	none	500.0	test	n/a	n/a	n/a	n/a	n/a	n/a	n/a	n/a	n/a	n/a	n/a	n/a	n/a	n/a	n/a	n/a	n/a	n/a	fixation
75896.727382927871	500.0	n/a	-1	-1	2750	835.272617072	stim	stop-signal	40	132375	0.0-7.16-1.16	beast_fmri_test	330	129697,/,130376,/,131057,/,131736,/,132416,/,133095,/	t,t,t,t,t,t	<img class = center src='/static/experiments/beast_fmri_test/images/V.png'></img>	71,89	2750.0	test	<img class = center src='/static/experiments/beast_fmri_test/images/redV.png'></img>	stop	2250.0	2.0	16.0	stop	non-target	V	71,Index Finger	89,Middle Finger	600.0	500.0	2150.0	2250.0	0.0	500.0	n/a	1.0	go_stim
78146.727382927871	2250.0	n/a	-1	-1	2750	835.272617072	stim	stop-signal	40	132375	0.0-7.16-1.16	beast_fmri_test	330	129697,/,130376,/,131057,/,131736,/,132416,/,133095,/	t,t,t,t,t,t	<img class = center src='/static/experiments/beast_fmri_test/images/V.png'></img>	71,89	2750.0	test	<img class = center src='/static/experiments/beast_fmri_test/images/redV.png'></img>	stop	2250.0	2.0	16.0	stop	non-target	V	71,Index Finger	89,Middle Finger	600.0	500.0	2150.0	2250.0	0.0	500.0	n/a	1.0	stop_stim
78646.727382927871	835.272617072	n/a	-1	-1	2750	835.272617072	stim	stop-signal	40	132375	0.0-7.16-1.16	beast_fmri_test	330	129697,/,130376,/,131057,/,131736,/,132416,/,133095,/	t,t,t,t,t,t	<img class = center src='/static/experiments/beast_fmri_test/images/V.png'></img>	71,89	2750.0	test	<img class = center src='/static/experiments/beast_fmri_test/images/redV.png'></img>	stop	2250.0	2.0	16.0	stop	non-target	V	71,Index Finger	89,Middle Finger	600.0	500.0	2150.0	2250.0	0.0	500.0	n/a	1.0	ITI
80827	500.0	n/a	-1	-1	500	0.0	fixation	poldrack-single-stim	41	133720	0.0-7.17-0.17	beast_fmri_test	330	n/a	n/a	<div class = centerbox2><div class = fixation>+</div></div>	none	500.0	test	n/a	n/a	n/a	n/a	n/a	n/a	n/a	n/a	n/a	n/a	n/a	n/a	n/a	n/a	n/a	n/a	n/a	n/a	fixation
80145.032543468347	2750.0	n/a	865	89	2750	681.967456532	stim	stop-signal	42	136470	0.0-7.17-1.17	beast_fmri_test	330	133775,/,134454,/,135134,/,135814,/,136493,/	t,t,t,t,t	<img class = center src='/static/experiments/beast_fmri_test/images/P.png'></img>	71,89	2750.0	test	<img class = center src='/static/experiments/beast_fmri_test/images/redP.png'></img>	go	2200.0	2.0	17.0	go	non-target	P	71,Index Finger	89,Middle Finger	600.0	550.0	2150.0	2200.0	1.0	550.0	1.0	n/a	go_stim
82895.032543468347	681.967456532	n/a	865	89	2750	681.967456532	stim	stop-signal	42	136470	0.0-7.17-1.17	beast_fmri_test	330	133775,/,134454,/,135134,/,135814,/,136493,/	t,t,t,t,t	<img class = center src='/static/experiments/beast_fmri_test/images/P.png'></img>	71,89	2750.0	test	<img class = center src='/static/experiments/beast_fmri_test/images/redP.png'></img>	go	2200.0	2.0	17.0	go	non-target	P	71,Index Finger	89,Middle Finger	600.0	550.0	2150.0	2200.0	1.0	550.0	1.0	n/a	ITI
84769	500.0	n/a	-1	-1	500	0.0	fixation	poldrack-single-stim	43	137662	0.0-7.18-0.18	beast_fmri_test	330	137173,/	t	<div class = centerbox2><div class = fixation>+</div></div>	none	500.0	test	n/a	n/a	n/a	n/a	n/a	n/a	n/a	n/a	n/a	n/a	n/a	n/a	n/a	n/a	n/a	n/a	n/a	n/a	fixation
84139.558597575931	2750.0	n/a	696	89	2750	632.441402424	stim	stop-signal	44	140415	0.0-7.18-1.18	beast_fmri_test	330	137854,/,138531,/,139211,/,139891,/,140572,/	t,t,t,t,t	<img class = center src='/static/experiments/beast_fmri_test/images/P.png'></img>	71,89	2750.0	test	<img class = center src='/static/experiments/beast_fmri_test/images/redP.png'></img>	go	2200.0	2.0	18.0	go	non-target	P	71,Index Finger	89,Middle Finger	600.0	550.0	2150.0	2200.0	1.0	550.0	1.0	n/a	go_stim
86889.558597575931	632.441402424	n/a	696	89	2750	632.441402424	stim	stop-signal	44	140415	0.0-7.18-1.18	beast_fmri_test	330	137854,/,138531,/,139211,/,139891,/,140572,/	t,t,t,t,t	<img class = center src='/static/experiments/beast_fmri_test/images/P.png'></img>	71,89	2750.0	test	<img class = center src='/static/experiments/beast_fmri_test/images/redP.png'></img>	go	2200.0	2.0	18.0	go	non-target	P	71,Index Finger	89,Middle Finger	600.0	550.0	2150.0	2200.0	1.0	550.0	1.0	n/a	ITI
88664	500.0	n/a	-1	-1	500	0.0	fixation	poldrack-single-stim	45	141557	0.0-7.19-0.19	beast_fmri_test	330	141251,/	t	<div class = centerbox2><div class = fixation>+</div></div>	none	500.0	test	n/a	n/a	n/a	n/a	n/a	n/a	n/a	n/a	n/a	n/a	n/a	n/a	n/a	n/a	n/a	n/a	n/a	n/a	fixation
88072.489824171935	550.0	n/a	687	89	2750	592.510175828	stim	stop-signal	46	144308	0.0-7.19-1.19	beast_fmri_test	330	141931,/,142611,/,143290,/,143969,/,144649,/	t,t,t,t,t	<img class = center src='/static/experiments/beast_fmri_test/images/V.png'></img>	71,89	2750.0	test	<img class = center src='/static/experiments/beast_fmri_test/images/redV.png'></img>	stop	2200.0	2.0	19.0	stop	non-target	V	71,Index Finger	89,Middle Finger	600.0	550.0	2150.0	2200.0	0.0	550.0	n/a	0.0	go_stim
90272.489824171935	2200.0	n/a	687	89	2750	592.510175828	stim	stop-signal	46	144308	0.0-7.19-1.19	beast_fmri_test	330	141931,/,142611,/,143290,/,143969,/,144649,/	t,t,t,t,t	<img class = center src='/static/experiments/beast_fmri_test/images/V.png'></img>	71,89	2750.0	test	<img class = center src='/static/experiments/beast_fmri_test/images/redV.png'></img>	stop	2200.0	2.0	19.0	stop	non-target	V	71,Index Finger	89,Middle Finger	600.0	550.0	2150.0	2200.0	0.0	550.0	n/a	0.0	stop_stim
90822.489824171935	592.510175828	n/a	687	89	2750	592.510175828	stim	stop-signal	46	144308	0.0-7.19-1.19	beast_fmri_test	330	141931,/,142611,/,143290,/,143969,/,144649,/	t,t,t,t,t	<img class = center src='/static/experiments/beast_fmri_test/images/V.png'></img>	71,89	2750.0	test	<img class = center src='/static/experiments/beast_fmri_test/images/redV.png'></img>	stop	2200.0	2.0	19.0	stop	non-target	V	71,Index Finger	89,Middle Finger	600.0	550.0	2150.0	2200.0	0.0	550.0	n/a	0.0	ITI
92518	500.0	n/a	-1	-1	500	0.0	fixation	poldrack-single-stim	47	145411	0.0-7.20-0.20	beast_fmri_test	330	145329,/	t	<div class = centerbox2><div class = fixation>+</div></div>	none	500.0	test	n/a	n/a	n/a	n/a	n/a	n/a	n/a	n/a	n/a	n/a	n/a	n/a	n/a	n/a	n/a	n/a	n/a	n/a	fixation
91607.608444191428	2750.0	n/a	2031	89	2750	911.391555809	stim	stop-signal	48	148162	0.0-7.20-1.20	beast_fmri_test	330	146009,/,146689,/,147368,/,148047,/,148728,/	t,t,t,t,t	<img class = center src='/static/experiments/beast_fmri_test/images/P.png'></img>	71,89	2750.0	test	<img class = center src='/static/experiments/beast_fmri_test/images/redP.png'></img>	go	2150.0	2.0	20.0	go	target	P	71,Index Finger	89,Middle Finger	600.0	500.0	2150.0	2200.0	0.0	600.0	0.0	n/a	go_stim
94357.608444191428	911.391555809	n/a	2031	89	2750	911.391555809	stim	stop-signal	48	148162	0.0-7.20-1.20	beast_fmri_test	330	146009,/,146689,/,147368,/,148047,/,148728,/	t,t,t,t,t	<img class = center src='/static/experiments/beast_fmri_test/images/P.png'></img>	71,89	2750.0	test	<img class = center src='/static/experiments/beast_fmri_test/images/redP.png'></img>	go	2150.0	2.0	20.0	go	target	P	71,Index Finger	89,Middle Finger	600.0	500.0	2150.0	2200.0	0.0	600.0	0.0	n/a	ITI
96692	500.0	n/a	-1	-1	500	0.0	fixation	poldrack-single-stim	49	149585	0.0-7.21-0.21	beast_fmri_test	330	149406,/	t	<div class = centerbox2><div class = fixation>+</div></div>	none	500.0	test	n/a	n/a	n/a	n/a	n/a	n/a	n/a	n/a	n/a	n/a	n/a	n/a	n/a	n/a	n/a	n/a	n/a	n/a	fixation
96147.541334625741	2750.0	n/a	1034	71	2750	546.458665374	stim	stop-signal	50	152337	0.0-7.21-1.21	beast_fmri_test	330	150087,/,150767,/,151446,/,152126,/,152805,/	t,t,t,t,t	<img class = center src='/static/experiments/beast_fmri_test/images/D.png'></img>	71,89	2750.0	test	<img class = center src='/static/experiments/beast_fmri_test/images/redD.png'></img>	go	2250.0	2.0	21.0	go	non-target	D	71,Index Finger	89,Middle Finger	600.0	500.0	2150.0	2250.0	0.0	500.0	0.0	n/a	go_stim
98897.541334625741	546.458665374	n/a	1034	71	2750	546.458665374	stim	stop-signal	50	152337	0.0-7.21-1.21	beast_fmri_test	330	150087,/,150767,/,151446,/,152126,/,152805,/	t,t,t,t,t	<img class = center src='/static/experiments/beast_fmri_test/images/D.png'></img>	71,89	2750.0	test	<img class = center src='/static/experiments/beast_fmri_test/images/redD.png'></img>	go	2250.0	2.0	21.0	go	non-target	D	71,Index Finger	89,Middle Finger	600.0	500.0	2150.0	2250.0	0.0	500.0	0.0	n/a	ITI
100501	500.0	n/a	-1	-1	500	0.0	fixation	poldrack-single-stim	51	153394	0.0-7.22-0.22	beast_fmri_test	330	n/a	n/a	<div class = centerbox2><div class = fixation>+</div></div>	none	500.0	test	n/a	n/a	n/a	n/a	n/a	n/a	n/a	n/a	n/a	n/a	n/a	n/a	n/a	n/a	n/a	n/a	n/a	n/a	fixation
99639.61463431624	2750.0	n/a	1372	89	2750	863.385365684	stim	stop-signal	52	156146	0.0-7.22-1.22	beast_fmri_test	330	153484,/,154164,/,154845,/,155524,/,156204,/,156884,/	t,t,t,t,t,t	<img class = center src='/static/experiments/beast_fmri_test/images/P.png'></img>	71,89	2750.0	test	<img class = center src='/static/experiments/beast_fmri_test/images/redP.png'></img>	go	2150.0	2.0	22.0	go	target	P	71,Index Finger	89,Middle Finger	600.0	500.0	2150.0	2250.0	0.0	600.0	0.0	n/a	go_stim
102389.61463431624	863.385365684	n/a	1372	89	2750	863.385365684	stim	stop-signal	52	156146	0.0-7.22-1.22	beast_fmri_test	330	153484,/,154164,/,154845,/,155524,/,156204,/,156884,/	t,t,t,t,t,t	<img class = center src='/static/experiments/beast_fmri_test/images/P.png'></img>	71,89	2750.0	test	<img class = center src='/static/experiments/beast_fmri_test/images/redP.png'></img>	go	2150.0	2.0	22.0	go	target	P	71,Index Finger	89,Middle Finger	600.0	500.0	2150.0	2250.0	0.0	600.0	0.0	n/a	ITI
104627	500.0	n/a	-1	-1	500	0.0	fixation	poldrack-single-stim	53	157520	0.0-7.23-0.23	beast_fmri_test	330	n/a	n/a	<div class = centerbox2><div class = fixation>+</div></div>	none	500.0	test	n/a	n/a	n/a	n/a	n/a	n/a	n/a	n/a	n/a	n/a	n/a	n/a	n/a	n/a	n/a	n/a	n/a	n/a	fixation
103519.2137506413	2750.0	n/a	998	89	2750	1107.78624936	stim	stop-signal	54	160270	0.0-7.23-1.23	beast_fmri_test	330	157563,/,158245,/,158923,/,159604,/,160283,/,160963,/	t,t,t,t,t,t	<img class = center src='/static/experiments/beast_fmri_test/images/T.png'></img>	71,89	2750.0	test	<img class = center src='/static/experiments/beast_fmri_test/images/redT.png'></img>	go	2250.0	2.0	23.0	go	non-target	T	71,Index Finger	89,Middle Finger	600.0	500.0	2150.0	2250.0	1.0	500.0	1.0	n/a	go_stim
106269.2137506413	1107.78624936	n/a	998	89	2750	1107.78624936	stim	stop-signal	54	160270	0.0-7.23-1.23	beast_fmri_test	330	157563,/,158245,/,158923,/,159604,/,160283,/,160963,/	t,t,t,t,t,t	<img class = center src='/static/experiments/beast_fmri_test/images/T.png'></img>	71,89	2750.0	test	<img class = center src='/static/experiments/beast_fmri_test/images/redT.png'></img>	go	2250.0	2.0	23.0	go	non-target	T	71,Index Finger	89,Middle Finger	600.0	500.0	2150.0	2250.0	1.0	500.0	1.0	n/a	ITI
108998	500.0	n/a	-1	-1	500	0.0	fixation	poldrack-single-stim	55	161891	0.0-7.24-0.24	beast_fmri_test	330	161642,/	t	<div class = centerbox2><div class = fixation>+</div></div>	none	500.0	test	n/a	n/a	n/a	n/a	n/a	n/a	n/a	n/a	n/a	n/a	n/a	n/a	n/a	n/a	n/a	n/a	n/a	n/a	fixation
108995.36982249745	2750.0	n/a	1243	71	2750	4.63017750254	stim	stop-signal	56	164643	0.0-7.24-1.24	beast_fmri_test	330	162322,/,163000,/,163681,/,164360,/	t,t,t,t	<img class = center src='/static/experiments/beast_fmri_test/images/V.png'></img>	71,89	2750.0	test	<img class = center src='/static/experiments/beast_fmri_test/images/redV.png'></img>	go	2250.0	2.0	24.0	go	non-target	V	71,Index Finger	89,Middle Finger	600.0	500.0	2150.0	2250.0	0.0	500.0	0.0	n/a	go_stim
111745.36982249745	4.63017750254	n/a	1243	71	2750	4.63017750254	stim	stop-signal	56	164643	0.0-7.24-1.24	beast_fmri_test	330	162322,/,163000,/,163681,/,164360,/	t,t,t,t	<img class = center src='/static/experiments/beast_fmri_test/images/V.png'></img>	71,89	2750.0	test	<img class = center src='/static/experiments/beast_fmri_test/images/redV.png'></img>	go	2250.0	2.0	24.0	go	non-target	V	71,Index Finger	89,Middle Finger	600.0	500.0	2150.0	2250.0	0.0	500.0	0.0	n/a	ITI
112268	500.0	n/a	-1	-1	500	0.0	fixation	poldrack-single-stim	57	165161	0.0-7.25-0.25	beast_fmri_test	330	165040,/	t	<div class = centerbox2><div class = fixation>+</div></div>	none	500.0	test	n/a	n/a	n/a	n/a	n/a	n/a	n/a	n/a	n/a	n/a	n/a	n/a	n/a	n/a	n/a	n/a	n/a	n/a	fixation
110302.12412862026	2750.0	n/a	851	71	2750	1966.87587138	stim	stop-signal	58	167912	0.0-7.25-1.25	beast_fmri_test	330	165720,/,166399,/,167079,/,167760,/,168438,/,169119,/,169798,/	t,t,t,t,t,t,t	<img class = center src='/static/experiments/beast_fmri_test/images/P.png'></img>	71,89	2750.0	test	<img class = center src='/static/experiments/beast_fmri_test/images/redP.png'></img>	go	2250.0	2.0	25.0	go	non-target	P	71,Index Finger	89,Middle Finger	600.0	500.0	2150.0	2250.0	0.0	500.0	0.0	n/a	go_stim
113052.12412862026	1966.87587138	n/a	851	71	2750	1966.87587138	stim	stop-signal	58	167912	0.0-7.25-1.25	beast_fmri_test	330	165720,/,166399,/,167079,/,167760,/,168438,/,169119,/,169798,/	t,t,t,t,t,t,t	<img class = center src='/static/experiments/beast_fmri_test/images/P.png'></img>	71,89	2750.0	test	<img class = center src='/static/experiments/beast_fmri_test/images/redP.png'></img>	go	2250.0	2.0	25.0	go	non-target	P	71,Index Finger	89,Middle Finger	600.0	500.0	2150.0	2250.0	0.0	500.0	0.0	n/a	ITI
117496	500.0	n/a	-1	-1	500	0.0	fixation	poldrack-single-stim	59	170389	0.0-7.26-0.26	beast_fmri_test	330	n/a	n/a	<div class = centerbox2><div class = fixation>+</div></div>	none	500.0	test	n/a	n/a	n/a	n/a	n/a	n/a	n/a	n/a	n/a	n/a	n/a	n/a	n/a	n/a	n/a	n/a	n/a	n/a	fixation
116693.90449480672	2750.0	n/a	848	71	2750	804.095505193	stim	stop-signal	60	173141	0.0-7.26-1.26	beast_fmri_test	330	170477,/,171157,/,171837,/,172516,/,173195,/,173876,/	t,t,t,t,t,t	<img class = center src='/static/experiments/beast_fmri_test/images/V.png'></img>	71,89	2750.0	test	<img class = center src='/static/experiments/beast_fmri_test/images/redV.png'></img>	go	2150.0	2.0	26.0	go	target	V	71,Index Finger	89,Middle Finger	600.0	500.0	2150.0	2250.0	1.0	600.0	1.0	n/a	go_stim
119443.90449480672	804.095505193	n/a	848	71	2750	804.095505193	stim	stop-signal	60	173141	0.0-7.26-1.26	beast_fmri_test	330	170477,/,171157,/,171837,/,172516,/,173195,/,173876,/	t,t,t,t,t,t	<img class = center src='/static/experiments/beast_fmri_test/images/V.png'></img>	71,89	2750.0	test	<img class = center src='/static/experiments/beast_fmri_test/images/redV.png'></img>	go	2150.0	2.0	26.0	go	target	V	71,Index Finger	89,Middle Finger	600.0	500.0	2150.0	2250.0	1.0	600.0	1.0	n/a	ITI
121566	500.0	n/a	-1	-1	500	0.0	fixation	poldrack-single-stim	61	174459	0.0-7.27-0.27	beast_fmri_test	330	n/a	n/a	<div class = centerbox2><div class = fixation>+</div></div>	none	500.0	test	n/a	n/a	n/a	n/a	n/a	n/a	n/a	n/a	n/a	n/a	n/a	n/a	n/a	n/a	n/a	n/a	n/a	n/a	fixation
121140.27198940891	2750.0	n/a	1300	89	2750	427.728010591	stim	stop-signal	62	177211	0.0-7.27-1.27	beast_fmri_test	330	174555,/,175235,/,175915,/,176594,/,177275,/	t,t,t,t,t	<img class = center src='/static/experiments/beast_fmri_test/images/V.png'></img>	71,89	2750.0	test	<img class = center src='/static/experiments/beast_fmri_test/images/redV.png'></img>	go	2250.0	2.0	27.0	go	non-target	V	71,Index Finger	89,Middle Finger	600.0	500.0	2150.0	2250.0	1.0	500.0	1.0	n/a	go_stim
123890.27198940891	427.728010591	n/a	1300	89	2750	427.728010591	stim	stop-signal	62	177211	0.0-7.27-1.27	beast_fmri_test	330	174555,/,175235,/,175915,/,176594,/,177275,/	t,t,t,t,t	<img class = center src='/static/experiments/beast_fmri_test/images/V.png'></img>	71,89	2750.0	test	<img class = center src='/static/experiments/beast_fmri_test/images/redV.png'></img>	go	2250.0	2.0	27.0	go	non-target	V	71,Index Finger	89,Middle Finger	600.0	500.0	2150.0	2250.0	1.0	500.0	1.0	n/a	ITI
125256	500.0	n/a	-1	-1	500	0.0	fixation	poldrack-single-stim	63	178149	0.0-7.28-0.28	beast_fmri_test	330	177954,/	t	<div class = centerbox2><div class = fixation>+</div></div>	none	500.0	test	n/a	n/a	n/a	n/a	n/a	n/a	n/a	n/a	n/a	n/a	n/a	n/a	n/a	n/a	n/a	n/a	n/a	n/a	fixation
124034.84529775925	500.0	n/a	-1	-1	2750	1223.15470224	stim	stop-signal	64	180901	0.0-7.28-1.28	beast_fmri_test	330	178633,/,179314,/,179994,/,180673,/,181353,/,182033,/	t,t,t,t,t,t	<img class = center src='/static/experiments/beast_fmri_test/images/B.png'></img>	71,89	2750.0	test	<img class = center src='/static/experiments/beast_fmri_test/images/redB.png'></img>	stop	2250.0	2.0	28.0	stop	non-target	B	71,Index Finger	89,Middle Finger	600.0	500.0	2150.0	2250.0	0.0	500.0	n/a	1.0	go_stim
126284.84529775925	2250.0	n/a	-1	-1	2750	1223.15470224	stim	stop-signal	64	180901	0.0-7.28-1.28	beast_fmri_test	330	178633,/,179314,/,179994,/,180673,/,181353,/,182033,/	t,t,t,t,t,t	<img class = center src='/static/experiments/beast_fmri_test/images/B.png'></img>	71,89	2750.0	test	<img class = center src='/static/experiments/beast_fmri_test/images/redB.png'></img>	stop	2250.0	2.0	28.0	stop	non-target	B	71,Index Finger	89,Middle Finger	600.0	500.0	2150.0	2250.0	0.0	500.0	n/a	1.0	stop_stim
126784.84529775925	1223.15470224	n/a	-1	-1	2750	1223.15470224	stim	stop-signal	64	180901	0.0-7.28-1.28	beast_fmri_test	330	178633,/,179314,/,179994,/,180673,/,181353,/,182033,/	t,t,t,t,t,t	<img class = center src='/static/experiments/beast_fmri_test/images/B.png'></img>	71,89	2750.0	test	<img class = center src='/static/experiments/beast_fmri_test/images/redB.png'></img>	stop	2250.0	2.0	28.0	stop	non-target	B	71,Index Finger	89,Middle Finger	600.0	500.0	2150.0	2250.0	0.0	500.0	n/a	1.0	ITI
129745	500.0	n/a	-1	-1	500	0.0	fixation	poldrack-single-stim	65	182638	0.0-7.29-0.29	beast_fmri_test	330	n/a	n/a	<div class = centerbox2><div class = fixation>+</div></div>	none	500.0	test	n/a	n/a	n/a	n/a	n/a	n/a	n/a	n/a	n/a	n/a	n/a	n/a	n/a	n/a	n/a	n/a	n/a	n/a	fixation
128191.42637224708	2750.0	n/a	1150	71	2750	1555.57362775	stim	stop-signal	66	185390	0.0-7.29-1.29	beast_fmri_test	330	182711,/,183391,/,184071,/,184751,/,185430,/,186110,/,186789,/	t,t,t,t,t,t,t	<img class = center src='/static/experiments/beast_fmri_test/images/V.png'></img>	71,89	2750.0	test	<img class = center src='/static/experiments/beast_fmri_test/images/redV.png'></img>	go	2150.0	2.0	29.0	go	target	V	71,Index Finger	89,Middle Finger	600.0	550.0	2150.0	2250.0	1.0	600.0	1.0	n/a	go_stim
130941.42637224708	1555.57362775	n/a	1150	71	2750	1555.57362775	stim	stop-signal	66	185390	0.0-7.29-1.29	beast_fmri_test	330	182711,/,183391,/,184071,/,184751,/,185430,/,186110,/,186789,/	t,t,t,t,t,t,t	<img class = center src='/static/experiments/beast_fmri_test/images/V.png'></img>	71,89	2750.0	test	<img class = center src='/static/experiments/beast_fmri_test/images/redV.png'></img>	go	2150.0	2.0	29.0	go	target	V	71,Index Finger	89,Middle Finger	600.0	550.0	2150.0	2250.0	1.0	600.0	1.0	n/a	ITI
134565	500.0	n/a	-1	-1	500	0.0	fixation	poldrack-single-stim	67	187458	0.0-7.30-0.30	beast_fmri_test	330	n/a	n/a	<div class = centerbox2><div class = fixation>+</div></div>	none	500.0	test	n/a	n/a	n/a	n/a	n/a	n/a	n/a	n/a	n/a	n/a	n/a	n/a	n/a	n/a	n/a	n/a	n/a	n/a	fixation
134454.16301318505	550.0	n/a	-1	-1	2750	111.836986815	stim	stop-signal	68	190209	0.0-7.30-1.30	beast_fmri_test	330	187471,/,188151,/,188829,/,189509,/,190189,/	t,t,t,t,t	<img class = center src='/static/experiments/beast_fmri_test/images/P.png'></img>	71,89	2750.0	test	<img class = center src='/static/experiments/beast_fmri_test/images/redP.png'></img>	stop	2200.0	2.0	30.0	stop	non-target	P	71,Index Finger	89,Middle Finger	600.0	550.0	2150.0	2200.0	0.0	550.0	n/a	1.0	go_stim
136654.16301318505	2200.0	n/a	-1	-1	2750	111.836986815	stim	stop-signal	68	190209	0.0-7.30-1.30	beast_fmri_test	330	187471,/,188151,/,188829,/,189509,/,190189,/	t,t,t,t,t	<img class = center src='/static/experiments/beast_fmri_test/images/P.png'></img>	71,89	2750.0	test	<img class = center src='/static/experiments/beast_fmri_test/images/redP.png'></img>	stop	2200.0	2.0	30.0	stop	non-target	P	71,Index Finger	89,Middle Finger	600.0	550.0	2150.0	2200.0	0.0	550.0	n/a	1.0	stop_stim
137204.16301318505	111.836986815	n/a	-1	-1	2750	111.836986815	stim	stop-signal	68	190209	0.0-7.30-1.30	beast_fmri_test	330	187471,/,188151,/,188829,/,189509,/,190189,/	t,t,t,t,t	<img class = center src='/static/experiments/beast_fmri_test/images/P.png'></img>	71,89	2750.0	test	<img class = center src='/static/experiments/beast_fmri_test/images/redP.png'></img>	stop	2200.0	2.0	30.0	stop	non-target	P	71,Index Finger	89,Middle Finger	600.0	550.0	2150.0	2200.0	0.0	550.0	n/a	1.0	ITI
137940	500.0	n/a	-1	-1	500	0.0	fixation	poldrack-single-stim	69	190833	0.0-7.31-0.31	beast_fmri_test	330	n/a	n/a	<div class = centerbox2><div class = fixation>+</div></div>	none	500.0	test	n/a	n/a	n/a	n/a	n/a	n/a	n/a	n/a	n/a	n/a	n/a	n/a	n/a	n/a	n/a	n/a	n/a	n/a	fixation
137774.9857705863	600.0	n/a	615	71	2750	165.014229414	stim	stop-signal	70	193583	0.0-7.31-1.31	beast_fmri_test	330	190871,/,191569,/,192228,/,192908,/,193587,/	t,t,t,t,t	<img class = center src='/static/experiments/beast_fmri_test/images/B.png'></img>	71,89	2750.0	test	<img class = center src='/static/experiments/beast_fmri_test/images/redB.png'></img>	stop	2150.0	2.0	31.0	stop	non-target	B	71,Index Finger	89,Middle Finger	600.0	600.0	2150.0	2150.0	0.0	600.0	n/a	0.0	go_stim
139924.9857705863	2150.0	n/a	615	71	2750	165.014229414	stim	stop-signal	70	193583	0.0-7.31-1.31	beast_fmri_test	330	190871,/,191569,/,192228,/,192908,/,193587,/	t,t,t,t,t	<img class = center src='/static/experiments/beast_fmri_test/images/B.png'></img>	71,89	2750.0	test	<img class = center src='/static/experiments/beast_fmri_test/images/redB.png'></img>	stop	2150.0	2.0	31.0	stop	non-target	B	71,Index Finger	89,Middle Finger	600.0	600.0	2150.0	2150.0	0.0	600.0	n/a	0.0	stop_stim
140524.9857705863	165.014229414	n/a	615	71	2750	165.014229414	stim	stop-signal	70	193583	0.0-7.31-1.31	beast_fmri_test	330	190871,/,191569,/,192228,/,192908,/,193587,/	t,t,t,t,t	<img class = center src='/static/experiments/beast_fmri_test/images/B.png'></img>	71,89	2750.0	test	<img class = center src='/static/experiments/beast_fmri_test/images/redB.png'></img>	stop	2150.0	2.0	31.0	stop	non-target	B	71,Index Finger	89,Middle Finger	600.0	600.0	2150.0	2150.0	0.0	600.0	n/a	0.0	ITI
141368	500.0	n/a	-1	-1	500	0.0	fixation	poldrack-single-stim	71	194261	0.0-7.32-0.32	beast_fmri_test	330	n/a	n/a	<div class = centerbox2><div class = fixation>+</div></div>	none	500.0	test	n/a	n/a	n/a	n/a	n/a	n/a	n/a	n/a	n/a	n/a	n/a	n/a	n/a	n/a	n/a	n/a	n/a	n/a	fixation
140313.74727713547	2750.0	n/a	1063	89	2750	1055.25272286	stim	stop-signal	72	197012	0.0-7.32-1.32	beast_fmri_test	330	194268,/,194947,/,195626,/,196305,/,196986,/,197665,/	t,t,t,t,t,t	<img class = center src='/static/experiments/beast_fmri_test/images/V.png'></img>	71,89	2750.0	test	<img class = center src='/static/experiments/beast_fmri_test/images/redV.png'></img>	go	2200.0	2.0	32.0	go	non-target	V	71,Index Finger	89,Middle Finger	600.0	550.0	2150.0	2200.0	1.0	550.0	1.0	n/a	go_stim
143063.74727713547	1055.25272286	n/a	1063	89	2750	1055.25272286	stim	stop-signal	72	197012	0.0-7.32-1.32	beast_fmri_test	330	194268,/,194947,/,195626,/,196305,/,196986,/,197665,/	t,t,t,t,t,t	<img class = center src='/static/experiments/beast_fmri_test/images/V.png'></img>	71,89	2750.0	test	<img class = center src='/static/experiments/beast_fmri_test/images/redV.png'></img>	go	2200.0	2.0	32.0	go	non-target	V	71,Index Finger	89,Middle Finger	600.0	550.0	2150.0	2200.0	1.0	550.0	1.0	n/a	ITI
145689	500.0	n/a	-1	-1	500	0.0	fixation	poldrack-single-stim	73	198582	0.0-7.33-0.33	beast_fmri_test	330	198344,/	t	<div class = centerbox2><div class = fixation>+</div></div>	none	500.0	test	n/a	n/a	n/a	n/a	n/a	n/a	n/a	n/a	n/a	n/a	n/a	n/a	n/a	n/a	n/a	n/a	n/a	n/a	fixation
144349.89786758041	600.0	n/a	-1	-1	2750	1340.10213242	stim	stop-signal	74	201333	0.0-7.33-1.33	beast_fmri_test	330	199024,/,199703,/,200384,/,201065,/,201743,/,202423,/	t,t,t,t,t,t	<img class = center src='/static/experiments/beast_fmri_test/images/B.png'></img>	71,89	2750.0	test	<img class = center src='/static/experiments/beast_fmri_test/images/redB.png'></img>	stop	2150.0	2.0	33.0	stop	target	B	71,Index Finger	89,Middle Finger	600.0	550.0	2150.0	2200.0	0.0	600.0	n/a	1.0	go_stim
146499.89786758041	2150.0	n/a	-1	-1	2750	1340.10213242	stim	stop-signal	74	201333	0.0-7.33-1.33	beast_fmri_test	330	199024,/,199703,/,200384,/,201065,/,201743,/,202423,/	t,t,t,t,t,t	<img class = center src='/static/experiments/beast_fmri_test/images/B.png'></img>	71,89	2750.0	test	<img class = center src='/static/experiments/beast_fmri_test/images/redB.png'></img>	stop	2150.0	2.0	33.0	stop	target	B	71,Index Finger	89,Middle Finger	600.0	550.0	2150.0	2200.0	0.0	600.0	n/a	1.0	stop_stim
147099.89786758041	1340.10213242	n/a	-1	-1	2750	1340.10213242	stim	stop-signal	74	201333	0.0-7.33-1.33	beast_fmri_test	330	199024,/,199703,/,200384,/,201065,/,201743,/,202423,/	t,t,t,t,t,t	<img class = center src='/static/experiments/beast_fmri_test/images/B.png'></img>	71,89	2750.0	test	<img class = center src='/static/experiments/beast_fmri_test/images/redB.png'></img>	stop	2150.0	2.0	33.0	stop	target	B	71,Index Finger	89,Middle Finger	600.0	550.0	2150.0	2200.0	0.0	600.0	n/a	1.0	ITI
150294	500.0	n/a	-1	-1	500	0.0	fixation	poldrack-single-stim	75	203187	0.0-7.34-0.34	beast_fmri_test	330	203104,/	t	<div class = centerbox2><div class = fixation>+</div></div>	none	500.0	test	n/a	n/a	n/a	n/a	n/a	n/a	n/a	n/a	n/a	n/a	n/a	n/a	n/a	n/a	n/a	n/a	n/a	n/a	fixation
149683.51169526298	2750.0	n/a	1124	71	2750	612.488304737	stim	stop-signal	76	205939	0.0-7.34-1.34	beast_fmri_test	330	203783,/,204461,/,205141,/,205820,/,206501,/	t,t,t,t,t	<img class = center src='/static/experiments/beast_fmri_test/images/D.png'></img>	71,89	2750.0	test	<img class = center src='/static/experiments/beast_fmri_test/images/redD.png'></img>	go	2200.0	2.0	34.0	go	non-target	D	71,Index Finger	89,Middle Finger	650.0	550.0	2150.0	2200.0	0.0	550.0	0.0	n/a	go_stim
152433.51169526298	612.488304737	n/a	1124	71	2750	612.488304737	stim	stop-signal	76	205939	0.0-7.34-1.34	beast_fmri_test	330	203783,/,204461,/,205141,/,205820,/,206501,/	t,t,t,t,t	<img class = center src='/static/experiments/beast_fmri_test/images/D.png'></img>	71,89	2750.0	test	<img class = center src='/static/experiments/beast_fmri_test/images/redD.png'></img>	go	2200.0	2.0	34.0	go	non-target	D	71,Index Finger	89,Middle Finger	650.0	550.0	2150.0	2200.0	0.0	550.0	0.0	n/a	ITI
154171	500.0	n/a	-1	-1	500	0.0	fixation	poldrack-single-stim	77	207064	0.0-7.35-0.35	beast_fmri_test	330	n/a	n/a	<div class = centerbox2><div class = fixation>+</div></div>	none	500.0	test	n/a	n/a	n/a	n/a	n/a	n/a	n/a	n/a	n/a	n/a	n/a	n/a	n/a	n/a	n/a	n/a	n/a	n/a	fixation
153477.34253136709	2750.0	n/a	818	71	2750	694.657468633	stim	stop-signal	78	209815	0.0-7.35-1.35	beast_fmri_test	330	207180,/,207860,/,208539,/,209218,/,209899,/	t,t,t,t,t	<img class = center src='/static/experiments/beast_fmri_test/images/P.png'></img>	71,89	2750.0	test	<img class = center src='/static/experiments/beast_fmri_test/images/redP.png'></img>	go	2200.0	2.0	35.0	go	non-target	P	71,Index Finger	89,Middle Finger	650.0	550.0	2150.0	2200.0	0.0	550.0	0.0	n/a	go_stim
156227.34253136709	694.657468633	n/a	818	71	2750	694.657468633	stim	stop-signal	78	209815	0.0-7.35-1.35	beast_fmri_test	330	207180,/,207860,/,208539,/,209218,/,209899,/	t,t,t,t,t	<img class = center src='/static/experiments/beast_fmri_test/images/P.png'></img>	71,89	2750.0	test	<img class = center src='/static/experiments/beast_fmri_test/images/redP.png'></img>	go	2200.0	2.0	35.0	go	non-target	P	71,Index Finger	89,Middle Finger	650.0	550.0	2150.0	2200.0	0.0	550.0	0.0	n/a	ITI
158129	500.0	n/a	-1	-1	500	0.0	fixation	poldrack-single-stim	79	211022	0.0-7.36-0.36	beast_fmri_test	330	210579,/	t	<div class = centerbox2><div class = fixation>+</div></div>	none	500.0	test	n/a	n/a	n/a	n/a	n/a	n/a	n/a	n/a	n/a	n/a	n/a	n/a	n/a	n/a	n/a	n/a	n/a	n/a	fixation
157842.84471059727	550.0	n/a	755	71	2750	287.155289403	stim	stop-signal	80	213773	0.0-7.36-1.36	beast_fmri_test	330	211258,/,211938,/,212617,/,213297,/,213977,/	t,t,t,t,t	<img class = center src='/static/experiments/beast_fmri_test/images/B.png'></img>	71,89	2750.0	test	<img class = center src='/static/experiments/beast_fmri_test/images/redB.png'></img>	stop	2200.0	2.0	36.0	stop	non-target	B	71,Index Finger	89,Middle Finger	650.0	550.0	2150.0	2200.0	0.0	550.0	n/a	0.0	go_stim
160042.84471059727	2200.0	n/a	755	71	2750	287.155289403	stim	stop-signal	80	213773	0.0-7.36-1.36	beast_fmri_test	330	211258,/,211938,/,212617,/,213297,/,213977,/	t,t,t,t,t	<img class = center src='/static/experiments/beast_fmri_test/images/B.png'></img>	71,89	2750.0	test	<img class = center src='/static/experiments/beast_fmri_test/images/redB.png'></img>	stop	2200.0	2.0	36.0	stop	non-target	B	71,Index Finger	89,Middle Finger	650.0	550.0	2150.0	2200.0	0.0	550.0	n/a	0.0	stop_stim
160592.84471059727	287.155289403	n/a	755	71	2750	287.155289403	stim	stop-signal	80	213773	0.0-7.36-1.36	beast_fmri_test	330	211258,/,211938,/,212617,/,213297,/,213977,/	t,t,t,t,t	<img class = center src='/static/experiments/beast_fmri_test/images/B.png'></img>	71,89	2750.0	test	<img class = center src='/static/experiments/beast_fmri_test/images/redB.png'></img>	stop	2200.0	2.0	36.0	stop	non-target	B	71,Index Finger	89,Middle Finger	650.0	550.0	2150.0	2200.0	0.0	550.0	n/a	0.0	ITI
161684	500.0	n/a	-1	-1	500	0.0	fixation	poldrack-single-stim	81	214577	0.0-7.37-0.37	beast_fmri_test	330	n/a	n/a	<div class = centerbox2><div class = fixation>+</div></div>	none	500.0	test	n/a	n/a	n/a	n/a	n/a	n/a	n/a	n/a	n/a	n/a	n/a	n/a	n/a	n/a	n/a	n/a	n/a	n/a	fixation
160976.27808093317	500.0	n/a	-1	-1	2750	708.721919067	stim	stop-signal	82	217328	0.0-7.37-1.37	beast_fmri_test	330	214659,/,215337,/,216016,/,216697,/,217375,/	t,t,t,t,t	<img class = center src='/static/experiments/beast_fmri_test/images/B.png'></img>	71,89	2750.0	test	<img class = center src='/static/experiments/beast_fmri_test/images/redB.png'></img>	stop	2250.0	2.0	37.0	stop	non-target	B	71,Index Finger	89,Middle Finger	650.0	500.0	2150.0	2250.0	0.0	500.0	n/a	1.0	go_stim
163226.27808093317	2250.0	n/a	-1	-1	2750	708.721919067	stim	stop-signal	82	217328	0.0-7.37-1.37	beast_fmri_test	330	214659,/,215337,/,216016,/,216697,/,217375,/	t,t,t,t,t	<img class = center src='/static/experiments/beast_fmri_test/images/B.png'></img>	71,89	2750.0	test	<img class = center src='/static/experiments/beast_fmri_test/images/redB.png'></img>	stop	2250.0	2.0	37.0	stop	non-target	B	71,Index Finger	89,Middle Finger	650.0	500.0	2150.0	2250.0	0.0	500.0	n/a	1.0	stop_stim
163726.27808093317	708.721919067	n/a	-1	-1	2750	708.721919067	stim	stop-signal	82	217328	0.0-7.37-1.37	beast_fmri_test	330	214659,/,215337,/,216016,/,216697,/,217375,/	t,t,t,t,t	<img class = center src='/static/experiments/beast_fmri_test/images/B.png'></img>	71,89	2750.0	test	<img class = center src='/static/experiments/beast_fmri_test/images/redB.png'></img>	stop	2250.0	2.0	37.0	stop	non-target	B	71,Index Finger	89,Middle Finger	650.0	500.0	2150.0	2250.0	0.0	500.0	n/a	1.0	ITI
165656	500.0	n/a	-1	-1	500	0.0	fixation	poldrack-single-stim	83	218549	0.0-7.38-0.38	beast_fmri_test	330	218056,/	t	<div class = centerbox2><div class = fixation>+</div></div>	none	500.0	test	n/a	n/a	n/a	n/a	n/a	n/a	n/a	n/a	n/a	n/a	n/a	n/a	n/a	n/a	n/a	n/a	n/a	n/a	fixation
165217.25509167768	2750.0	n/a	2405	71	2750	439.744908322	stim	stop-signal	84	221300	0.0-7.38-1.38	beast_fmri_test	330	218735,/,219414,/,220095,/,220776,/,221455,/	t,t,t,t,t	<img class = center src='/static/experiments/beast_fmri_test/images/B.png'></img>	71,89	2750.0	test	<img class = center src='/static/experiments/beast_fmri_test/images/redB.png'></img>	go	2100.0	2.0	38.0	go	target	B	71,Index Finger	89,Middle Finger	650.0	550.0	2100.0	2250.0	1.0	650.0	1.0	n/a	go_stim
167967.25509167768	439.744908322	n/a	2405	71	2750	439.744908322	stim	stop-signal	84	221300	0.0-7.38-1.38	beast_fmri_test	330	218735,/,219414,/,220095,/,220776,/,221455,/	t,t,t,t,t	<img class = center src='/static/experiments/beast_fmri_test/images/B.png'></img>	71,89	2750.0	test	<img class = center src='/static/experiments/beast_fmri_test/images/redB.png'></img>	go	2100.0	2.0	38.0	go	target	B	71,Index Finger	89,Middle Finger	650.0	550.0	2100.0	2250.0	1.0	650.0	1.0	n/a	ITI
169362	500.0	n/a	-1	-1	500	0.0	fixation	poldrack-single-stim	85	222255	0.0-7.39-0.39	beast_fmri_test	330	222134,/	t	<div class = centerbox2><div class = fixation>+</div></div>	none	500.0	test	n/a	n/a	n/a	n/a	n/a	n/a	n/a	n/a	n/a	n/a	n/a	n/a	n/a	n/a	n/a	n/a	n/a	n/a	fixation
167532.45131190389	2750.0	n/a	695	71	2750	1831.5486881	stim	stop-signal	86	225007	0.0-7.39-1.39	beast_fmri_test	330	222813,/,223493,/,224172,/,224853,/,225532,/,226211,/	t,t,t,t,t,t	<img class = center src='/static/experiments/beast_fmri_test/images/T.png'></img>	71,89	2750.0	test	<img class = center src='/static/experiments/beast_fmri_test/images/redT.png'></img>	go	2200.0	2.0	39.0	go	non-target	T	71,Index Finger	89,Middle Finger	650.0	550.0	2100.0	2200.0	0.0	550.0	0.0	n/a	go_stim
170282.45131190389	1831.5486881	n/a	695	71	2750	1831.5486881	stim	stop-signal	86	225007	0.0-7.39-1.39	beast_fmri_test	330	222813,/,223493,/,224172,/,224853,/,225532,/,226211,/	t,t,t,t,t,t	<img class = center src='/static/experiments/beast_fmri_test/images/T.png'></img>	71,89	2750.0	test	<img class = center src='/static/experiments/beast_fmri_test/images/redT.png'></img>	go	2200.0	2.0	39.0	go	non-target	T	71,Index Finger	89,Middle Finger	650.0	550.0	2100.0	2200.0	0.0	550.0	0.0	n/a	ITI
174458	500.0	n/a	-1	-1	500	0.0	fixation	poldrack-single-stim	87	227351	0.0-7.40-0.40	beast_fmri_test	330	226891,/	t	<div class = centerbox2><div class = fixation>+</div></div>	none	500.0	test	n/a	n/a	n/a	n/a	n/a	n/a	n/a	n/a	n/a	n/a	n/a	n/a	n/a	n/a	n/a	n/a	n/a	n/a	fixation
173884.82174054318	2750.0	n/a	517	71	2750	577.178259457	stim	stop-signal	88	230105	0.0-7.40-1.40	beast_fmri_test	330	227570,/,228250,/,228930,/,229609,/,230289,/	t,t,t,t,t	<img class = center src='/static/experiments/beast_fmri_test/images/T.png'></img>	71,89	2750.0	test	<img class = center src='/static/experiments/beast_fmri_test/images/redT.png'></img>	go	2200.0	2.0	40.0	go	non-target	T	71,Index Finger	89,Middle Finger	650.0	550.0	2100.0	2200.0	0.0	550.0	0.0	n/a	go_stim
176634.82174054318	577.178259457	n/a	517	71	2750	577.178259457	stim	stop-signal	88	230105	0.0-7.40-1.40	beast_fmri_test	330	227570,/,228250,/,228930,/,229609,/,230289,/	t,t,t,t,t	<img class = center src='/static/experiments/beast_fmri_test/images/T.png'></img>	71,89	2750.0	test	<img class = center src='/static/experiments/beast_fmri_test/images/redT.png'></img>	go	2200.0	2.0	40.0	go	non-target	T	71,Index Finger	89,Middle Finger	650.0	550.0	2100.0	2200.0	0.0	550.0	0.0	n/a	ITI
178303	500.0	n/a	-1	-1	500	0.0	fixation	poldrack-single-stim	89	231196	0.0-7.41-0.41	beast_fmri_test	330	230970,/	t	<div class = centerbox2><div class = fixation>+</div></div>	none	500.0	test	n/a	n/a	n/a	n/a	n/a	n/a	n/a	n/a	n/a	n/a	n/a	n/a	n/a	n/a	n/a	n/a	n/a	n/a	fixation
175211.72452919715	2750.0	n/a	928	71	2750	3094.2754708	stim	stop-signal	90	233949	0.0-7.41-1.41	beast_fmri_test	330	231649,/,232328,/,233008,/,233687,/,234368,/,235049,/,235727,/,236406,/	t,t,t,t,t,t,t,t	<img class = center src='/static/experiments/beast_fmri_test/images/P.png'></img>	71,89	2750.0	test	<img class = center src='/static/experiments/beast_fmri_test/images/redP.png'></img>	go	2200.0	2.0	41.0	go	non-target	P	71,Index Finger	89,Middle Finger	650.0	550.0	2100.0	2200.0	0.0	550.0	0.0	n/a	go_stim
177961.72452919715	3094.2754708	n/a	928	71	2750	3094.2754708	stim	stop-signal	90	233949	0.0-7.41-1.41	beast_fmri_test	330	231649,/,232328,/,233008,/,233687,/,234368,/,235049,/,235727,/,236406,/	t,t,t,t,t,t,t,t	<img class = center src='/static/experiments/beast_fmri_test/images/P.png'></img>	71,89	2750.0	test	<img class = center src='/static/experiments/beast_fmri_test/images/redP.png'></img>	go	2200.0	2.0	41.0	go	non-target	P	71,Index Finger	89,Middle Finger	650.0	550.0	2100.0	2200.0	0.0	550.0	0.0	n/a	ITI
184661	500.0	n/a	-1	-1	500	0.0	fixation	poldrack-single-stim	91	237554	0.0-7.42-0.42	beast_fmri_test	330	237086,/	t	<div class = centerbox2><div class = fixation>+</div></div>	none	500.0	test	n/a	n/a	n/a	n/a	n/a	n/a	n/a	n/a	n/a	n/a	n/a	n/a	n/a	n/a	n/a	n/a	n/a	n/a	fixation
179848.29987231918	2750.0	n/a	606	89	2750	4813.70012768	stim	stop-signal	92	240305	0.0-7.42-1.42	beast_fmri_test	330	237766,/,238445,/,239124,/,239805,/,240484,/,241165,/,241843,/,242523,/,243205,/,243884,/,244563,/	t,t,t,t,t,t,t,t,t,t,t	<img class = center src='/static/experiments/beast_fmri_test/images/T.png'></img>	71,89	2750.0	test	<img class = center src='/static/experiments/beast_fmri_test/images/redT.png'></img>	go	2100.0	2.0	42.0	go	target	T	71,Index Finger	89,Middle Finger	650.0	550.0	2100.0	2200.0	0.0	650.0	0.0	n/a	go_stim
182598.29987231918	4813.70012768	n/a	606	89	2750	4813.70012768	stim	stop-signal	92	240305	0.0-7.42-1.42	beast_fmri_test	330	237766,/,238445,/,239124,/,239805,/,240484,/,241165,/,241843,/,242523,/,243205,/,243884,/,244563,/	t,t,t,t,t,t,t,t,t,t,t	<img class = center src='/static/experiments/beast_fmri_test/images/T.png'></img>	71,89	2750.0	test	<img class = center src='/static/experiments/beast_fmri_test/images/redT.png'></img>	go	2100.0	2.0	42.0	go	target	T	71,Index Finger	89,Middle Finger	650.0	550.0	2100.0	2200.0	0.0	650.0	0.0	n/a	ITI
192739	500.0	n/a	-1	-1	500	0.0	fixation	poldrack-single-stim	93	245632	0.0-7.43-0.43	beast_fmri_test	330	245244,/	t	<div class = centerbox2><div class = fixation>+</div></div>	none	500.0	test	n/a	n/a	n/a	n/a	n/a	n/a	n/a	n/a	n/a	n/a	n/a	n/a	n/a	n/a	n/a	n/a	n/a	n/a	fixation
190627.91226208568	2750.0	n/a	784	71	2750	2113.08773791	stim	stop-signal	94	248384	0.0-7.43-1.43	beast_fmri_test	330	245922,/,246602,/,247281,/,247963,/,248642,/,249322,/,250001,/	t,t,t,t,t,t,t	<img class = center src='/static/experiments/beast_fmri_test/images/B.png'></img>	71,89	2750.0	test	<img class = center src='/static/experiments/beast_fmri_test/images/redB.png'></img>	go	2200.0	2.0	43.0	go	non-target	B	71,Index Finger	89,Middle Finger	650.0	550.0	2100.0	2200.0	0.0	550.0	0.0	n/a	go_stim
193377.91226208568	2113.08773791	n/a	784	71	2750	2113.08773791	stim	stop-signal	94	248384	0.0-7.43-1.43	beast_fmri_test	330	245922,/,246602,/,247281,/,247963,/,248642,/,249322,/,250001,/	t,t,t,t,t,t,t	<img class = center src='/static/experiments/beast_fmri_test/images/B.png'></img>	71,89	2750.0	test	<img class = center src='/static/experiments/beast_fmri_test/images/redB.png'></img>	go	2200.0	2.0	43.0	go	non-target	B	71,Index Finger	89,Middle Finger	650.0	550.0	2100.0	2200.0	0.0	550.0	0.0	n/a	ITI
198120	500.0	n/a	-1	-1	500	0.0	fixation	poldrack-single-stim	95	251013	0.0-7.44-0.44	beast_fmri_test	330	250680,/	t	<div class = centerbox2><div class = fixation>+</div></div>	none	500.0	test	n/a	n/a	n/a	n/a	n/a	n/a	n/a	n/a	n/a	n/a	n/a	n/a	n/a	n/a	n/a	n/a	n/a	n/a	fixation
197828.76503440412	550.0	n/a	701	71	2750	293.234965596	stim	stop-signal	96	253765	0.0-7.44-1.44	beast_fmri_test	330	251360,/,252040,/,252719,/,253399,/	t,t,t,t	<img class = center src='/static/experiments/beast_fmri_test/images/V.png'></img>	71,89	2750.0	test	<img class = center src='/static/experiments/beast_fmri_test/images/redV.png'></img>	stop	2200.0	2.0	44.0	stop	non-target	V	71,Index Finger	89,Middle Finger	650.0	550.0	2100.0	2200.0	0.0	550.0	n/a	0.0	go_stim
200028.76503440412	2200.0	n/a	701	71	2750	293.234965596	stim	stop-signal	96	253765	0.0-7.44-1.44	beast_fmri_test	330	251360,/,252040,/,252719,/,253399,/	t,t,t,t	<img class = center src='/static/experiments/beast_fmri_test/images/V.png'></img>	71,89	2750.0	test	<img class = center src='/static/experiments/beast_fmri_test/images/redV.png'></img>	stop	2200.0	2.0	44.0	stop	non-target	V	71,Index Finger	89,Middle Finger	650.0	550.0	2100.0	2200.0	0.0	550.0	n/a	0.0	stop_stim
200578.76503440412	293.234965596	n/a	701	71	2750	293.234965596	stim	stop-signal	96	253765	0.0-7.44-1.44	beast_fmri_test	330	251360,/,252040,/,252719,/,253399,/	t,t,t,t	<img class = center src='/static/experiments/beast_fmri_test/images/V.png'></img>	71,89	2750.0	test	<img class = center src='/static/experiments/beast_fmri_test/images/redV.png'></img>	stop	2200.0	2.0	44.0	stop	non-target	V	71,Index Finger	89,Middle Finger	650.0	550.0	2100.0	2200.0	0.0	550.0	n/a	0.0	ITI
201684	500.0	n/a	-1	-1	500	0.0	fixation	poldrack-single-stim	97	254577	0.0-7.45-0.45	beast_fmri_test	330	254079,/	t	<div class = centerbox2><div class = fixation>+</div></div>	none	500.0	test	n/a	n/a	n/a	n/a	n/a	n/a	n/a	n/a	n/a	n/a	n/a	n/a	n/a	n/a	n/a	n/a	n/a	n/a	fixation
198939.83716992964	2750.0	n/a	1175	71	2750	2745.16283007	stim	stop-signal	98	257328	0.0-7.45-1.45	beast_fmri_test	330	254760,/,255437,/,256117,/,256797,/,257478,/,258157,/,258837,/,259517,/	t,t,t,t,t,t,t,t	<img class = center src='/static/experiments/beast_fmri_test/images/P.png'></img>	71,89	2750.0	test	<img class = center src='/static/experiments/beast_fmri_test/images/redP.png'></img>	go	2250.0	2.0	45.0	go	non-target	P	71,Index Finger	89,Middle Finger	650.0	500.0	2100.0	2250.0	0.0	500.0	0.0	n/a	go_stim
201689.83716992964	2745.16283007	n/a	1175	71	2750	2745.16283007	stim	stop-signal	98	257328	0.0-7.45-1.45	beast_fmri_test	330	254760,/,255437,/,256117,/,256797,/,257478,/,258157,/,258837,/,259517,/	t,t,t,t,t,t,t,t	<img class = center src='/static/experiments/beast_fmri_test/images/P.png'></img>	71,89	2750.0	test	<img class = center src='/static/experiments/beast_fmri_test/images/redP.png'></img>	go	2250.0	2.0	45.0	go	non-target	P	71,Index Finger	89,Middle Finger	650.0	500.0	2100.0	2250.0	0.0	500.0	0.0	n/a	ITI
207695	500.0	n/a	-1	-1	500	0.0	fixation	poldrack-single-stim	99	260588	0.0-7.46-0.46	beast_fmri_test	330	260196,/	t	<div class = centerbox2><div class = fixation>+</div></div>	none	500.0	test	n/a	n/a	n/a	n/a	n/a	n/a	n/a	n/a	n/a	n/a	n/a	n/a	n/a	n/a	n/a	n/a	n/a	n/a	fixation
205066.98335020652	2750.0	n/a	994	89	2750	2631.01664979	stim	stop-signal	100	263341	0.0-7.46-1.46	beast_fmri_test	330	260875,/,261555,/,262234,/,262915,/,263594,/,264273,/,264954,/,265632,/	t,t,t,t,t,t,t,t	<img class = center src='/static/experiments/beast_fmri_test/images/B.png'></img>	71,89	2750.0	test	<img class = center src='/static/experiments/beast_fmri_test/images/redB.png'></img>	go	2250.0	2.0	46.0	go	non-target	B	71,Index Finger	89,Middle Finger	650.0	500.0	2100.0	2250.0	1.0	500.0	1.0	n/a	go_stim
207816.98335020652	2631.01664979	n/a	994	89	2750	2631.01664979	stim	stop-signal	100	263341	0.0-7.46-1.46	beast_fmri_test	330	260875,/,261555,/,262234,/,262915,/,263594,/,264273,/,264954,/,265632,/	t,t,t,t,t,t,t,t	<img class = center src='/static/experiments/beast_fmri_test/images/B.png'></img>	71,89	2750.0	test	<img class = center src='/static/experiments/beast_fmri_test/images/redB.png'></img>	go	2250.0	2.0	46.0	go	non-target	B	71,Index Finger	89,Middle Finger	650.0	500.0	2100.0	2250.0	1.0	500.0	1.0	n/a	ITI
228087	15000.0	n/a	-1	-1	15000	0.0	practice-no-stop-feedback	poldrack-single-stim	101	280980	0.0-8.0	beast_fmri_test	330	266312,/,266992,/,267672,/,268351,/,269032,/,269712,/,270390,/,271073,/,271751,/,272431,/,273109,/,273789,/,274469,/,275149,/,275830,/,276509,/,277188,/,277869,/,278548,/,279227,/,279906,/,280588,/	t,t,t,t,t,t,t,t,t,t,t,t,t,t,t,t,t,t,t,t,t,t	"<div class = ""centerbox""><p class = ""block-text"">Your delay is 1 trials.</p><p class = block-text>Please wait for the scanner to start the block</p></div>"	77	15000.0	n/a	n/a	n/a	n/a	n/a	n/a	n/a	n/a	n/a	n/a	n/a	n/a	n/a	n/a	n/a	n/a	n/a	n/a	n/a	practice-no-stop-feedback
228589	500.0	n/a	-1	-1	500	0.0	fixation	poldrack-single-stim	102	281482	0.0-9.0-0.0	beast_fmri_test	330	281266,/	t	<div class = centerbox2><div class = fixation>+</div></div>	none	500.0	test	n/a	n/a	n/a	n/a	n/a	n/a	n/a	n/a	n/a	n/a	n/a	n/a	n/a	n/a	n/a	n/a	n/a	n/a	fixation
228139.38988828158	2750.0	n/a	804	71	2750	451.610111718	stim	stop-signal	103	284234	0.0-9.0-1.0	beast_fmri_test	330	281947,/,282625,/,283305,/,283984,/,284664,/	t,t,t,t,t	<img class = center src='/static/experiments/beast_fmri_test/images/D.png'></img>	71,89	2750.0	test	<img class = center src='/static/experiments/beast_fmri_test/images/redD.png'></img>	go	-1.0	1.0	0.0	go	temp-non-target	D	71,Index Finger	89,Middle Finger	650.0	500.0	2100.0	2250.0	0.0	n/a	n/a	n/a	go_stim
230889.38988828158	451.610111718	n/a	804	71	2750	451.610111718	stim	stop-signal	103	284234	0.0-9.0-1.0	beast_fmri_test	330	281947,/,282625,/,283305,/,283984,/,284664,/	t,t,t,t,t	<img class = center src='/static/experiments/beast_fmri_test/images/D.png'></img>	71,89	2750.0	test	<img class = center src='/static/experiments/beast_fmri_test/images/redD.png'></img>	go	-1.0	1.0	0.0	go	temp-non-target	D	71,Index Finger	89,Middle Finger	650.0	500.0	2100.0	2250.0	0.0	n/a	n/a	n/a	ITI
232306	500.0	n/a	-1	-1	500	0.0	fixation	poldrack-single-stim	104	285199	0.0-9.1-0.1	beast_fmri_test	330	n/a	n/a	<div class = centerbox2><div class = fixation>+</div></div>	none	500.0	test	n/a	n/a	n/a	n/a	n/a	n/a	n/a	n/a	n/a	n/a	n/a	n/a	n/a	n/a	n/a	n/a	n/a	n/a	fixation
229245.73935210798	650.0	n/a	628	89	2750	3063.26064789	stim	stop-signal	105	287952	0.0-9.1-1.1	beast_fmri_test	330	285343,/,286023,/,286705,/,287383,/,288063,/,288741,/,289421,/,290101,/,290782,/	t,t,t,t,t,t,t,t,t	<img class = center src='/static/experiments/beast_fmri_test/images/D.png'></img>	71,89	2750.0	test	<img class = center src='/static/experiments/beast_fmri_test/images/redD.png'></img>	stop	2100.0	1.0	1.0	stop	target	D	71,Index Finger	89,Middle Finger	650.0	500.0	2100.0	2250.0	0.0	650.0	n/a	0.0	go_stim
231345.73935210798	2100.0	n/a	628	89	2750	3063.26064789	stim	stop-signal	105	287952	0.0-9.1-1.1	beast_fmri_test	330	285343,/,286023,/,286705,/,287383,/,288063,/,288741,/,289421,/,290101,/,290782,/	t,t,t,t,t,t,t,t,t	<img class = center src='/static/experiments/beast_fmri_test/images/D.png'></img>	71,89	2750.0	test	<img class = center src='/static/experiments/beast_fmri_test/images/redD.png'></img>	stop	2100.0	1.0	1.0	stop	target	D	71,Index Finger	89,Middle Finger	650.0	500.0	2100.0	2250.0	0.0	650.0	n/a	0.0	stop_stim
231995.73935210798	3063.26064789	n/a	628	89	2750	3063.26064789	stim	stop-signal	105	287952	0.0-9.1-1.1	beast_fmri_test	330	285343,/,286023,/,286705,/,287383,/,288063,/,288741,/,289421,/,290101,/,290782,/	t,t,t,t,t,t,t,t,t	<img class = center src='/static/experiments/beast_fmri_test/images/D.png'></img>	71,89	2750.0	test	<img class = center src='/static/experiments/beast_fmri_test/images/redD.png'></img>	stop	2100.0	1.0	1.0	stop	target	D	71,Index Finger	89,Middle Finger	650.0	500.0	2100.0	2250.0	0.0	650.0	n/a	0.0	ITI
238636	500.0	n/a	-1	-1	500	0.0	fixation	poldrack-single-stim	106	291529	0.0-9.2-0.2	beast_fmri_test	330	291461,/	t	<div class = centerbox2><div class = fixation>+</div></div>	none	500.0	test	n/a	n/a	n/a	n/a	n/a	n/a	n/a	n/a	n/a	n/a	n/a	n/a	n/a	n/a	n/a	n/a	n/a	n/a	fixation
238093.68017566425	2750.0	n/a	561	89	2750	544.319824336	stim	stop-signal	107	294281	0.0-9.2-1.2	beast_fmri_test	330	292141,/,292821,/,293499,/,294179,/	t,t,t,t	<img class = center src='/static/experiments/beast_fmri_test/images/D.png'></img>	71,89	2750.0	test	<img class = center src='/static/experiments/beast_fmri_test/images/redD.png'></img>	go	2150.0	1.0	2.0	go	target	D	71,Index Finger	89,Middle Finger	600.0	500.0	2150.0	2250.0	0.0	600.0	0.0	n/a	go_stim
240843.68017566425	544.319824336	n/a	561	89	2750	544.319824336	stim	stop-signal	107	294281	0.0-9.2-1.2	beast_fmri_test	330	292141,/,292821,/,293499,/,294179,/	t,t,t,t	<img class = center src='/static/experiments/beast_fmri_test/images/D.png'></img>	71,89	2750.0	test	<img class = center src='/static/experiments/beast_fmri_test/images/redD.png'></img>	go	2150.0	1.0	2.0	go	target	D	71,Index Finger	89,Middle Finger	600.0	500.0	2150.0	2250.0	0.0	600.0	0.0	n/a	ITI
242455	500.0	n/a	-1	-1	500	0.0	fixation	poldrack-single-stim	108	295348	0.0-9.3-0.3	beast_fmri_test	330	294863,/	t	<div class = centerbox2><div class = fixation>+</div></div>	none	500.0	test	n/a	n/a	n/a	n/a	n/a	n/a	n/a	n/a	n/a	n/a	n/a	n/a	n/a	n/a	n/a	n/a	n/a	n/a	fixation
240633.10559139948	500.0	n/a	791	71	2750	1823.8944086	stim	stop-signal	109	298100	0.0-9.3-1.3	beast_fmri_test	330	295539,/,296219,/,296898,/,297578,/,298257,/,298937,/,299616,/	t,t,t,t,t,t,t	<img class = center src='/static/experiments/beast_fmri_test/images/P.png'></img>	71,89	2750.0	test	<img class = center src='/static/experiments/beast_fmri_test/images/redP.png'></img>	stop	2250.0	1.0	3.0	stop	non-target	P	71,Index Finger	89,Middle Finger	600.0	500.0	2150.0	2250.0	0.0	500.0	n/a	0.0	go_stim
242883.10559139948	2250.0	n/a	791	71	2750	1823.8944086	stim	stop-signal	109	298100	0.0-9.3-1.3	beast_fmri_test	330	295539,/,296219,/,296898,/,297578,/,298257,/,298937,/,299616,/	t,t,t,t,t,t,t	<img class = center src='/static/experiments/beast_fmri_test/images/P.png'></img>	71,89	2750.0	test	<img class = center src='/static/experiments/beast_fmri_test/images/redP.png'></img>	stop	2250.0	1.0	3.0	stop	non-target	P	71,Index Finger	89,Middle Finger	600.0	500.0	2150.0	2250.0	0.0	500.0	n/a	0.0	stop_stim
243383.10559139948	1823.8944086	n/a	791	71	2750	1823.8944086	stim	stop-signal	109	298100	0.0-9.3-1.3	beast_fmri_test	330	295539,/,296219,/,296898,/,297578,/,298257,/,298937,/,299616,/	t,t,t,t,t,t,t	<img class = center src='/static/experiments/beast_fmri_test/images/P.png'></img>	71,89	2750.0	test	<img class = center src='/static/experiments/beast_fmri_test/images/redP.png'></img>	stop	2250.0	1.0	3.0	stop	non-target	P	71,Index Finger	89,Middle Finger	600.0	500.0	2150.0	2250.0	0.0	500.0	n/a	0.0	ITI
247545	500.0	n/a	-1	-1	500	0.0	fixation	poldrack-single-stim	110	300438	0.0-9.4-0.4	beast_fmri_test	330	300298,/	t	<div class = centerbox2><div class = fixation>+</div></div>	none	500.0	test	n/a	n/a	n/a	n/a	n/a	n/a	n/a	n/a	n/a	n/a	n/a	n/a	n/a	n/a	n/a	n/a	n/a	n/a	fixation
247374.9949096042	450.0	n/a	716	71	2750	170.005090396	stim	stop-signal	111	303188	0.0-9.4-1.4	beast_fmri_test	330	300976,/,301656,/,302336,/,303016,/	t,t,t,t	<img class = center src='/static/experiments/beast_fmri_test/images/V.png'></img>	71,89	2750.0	test	<img class = center src='/static/experiments/beast_fmri_test/images/redV.png'></img>	stop	2300.0	1.0	4.0	stop	non-target	V	71,Index Finger	89,Middle Finger	600.0	450.0	2150.0	2300.0	0.0	450.0	n/a	0.0	go_stim
249674.9949096042	2300.0	n/a	716	71	2750	170.005090396	stim	stop-signal	111	303188	0.0-9.4-1.4	beast_fmri_test	330	300976,/,301656,/,302336,/,303016,/	t,t,t,t	<img class = center src='/static/experiments/beast_fmri_test/images/V.png'></img>	71,89	2750.0	test	<img class = center src='/static/experiments/beast_fmri_test/images/redV.png'></img>	stop	2300.0	1.0	4.0	stop	non-target	V	71,Index Finger	89,Middle Finger	600.0	450.0	2150.0	2300.0	0.0	450.0	n/a	0.0	stop_stim
250124.9949096042	170.005090396	n/a	716	71	2750	170.005090396	stim	stop-signal	111	303188	0.0-9.4-1.4	beast_fmri_test	330	300976,/,301656,/,302336,/,303016,/	t,t,t,t	<img class = center src='/static/experiments/beast_fmri_test/images/V.png'></img>	71,89	2750.0	test	<img class = center src='/static/experiments/beast_fmri_test/images/redV.png'></img>	stop	2300.0	1.0	4.0	stop	non-target	V	71,Index Finger	89,Middle Finger	600.0	450.0	2150.0	2300.0	0.0	450.0	n/a	0.0	ITI
250983	500.0	n/a	-1	-1	500	0.0	fixation	poldrack-single-stim	112	303876	0.0-9.5-0.5	beast_fmri_test	330	303696,/	t	<div class = centerbox2><div class = fixation>+</div></div>	none	500.0	test	n/a	n/a	n/a	n/a	n/a	n/a	n/a	n/a	n/a	n/a	n/a	n/a	n/a	n/a	n/a	n/a	n/a	n/a	fixation
250405.75351794943	2750.0	n/a	1234	71	2750	579.246482051	stim	stop-signal	113	306628	0.0-9.5-1.5	beast_fmri_test	330	304376,/,305056,/,305735,/,306415,/,307094,/	t,t,t,t,t	<img class = center src='/static/experiments/beast_fmri_test/images/B.png'></img>	71,89	2750.0	test	<img class = center src='/static/experiments/beast_fmri_test/images/redB.png'></img>	go	2350.0	1.0	5.0	go	non-target	B	71,Index Finger	89,Middle Finger	600.0	400.0	2150.0	2350.0	0.0	400.0	0.0	n/a	go_stim
253155.75351794943	579.246482051	n/a	1234	71	2750	579.246482051	stim	stop-signal	113	306628	0.0-9.5-1.5	beast_fmri_test	330	304376,/,305056,/,305735,/,306415,/,307094,/	t,t,t,t,t	<img class = center src='/static/experiments/beast_fmri_test/images/B.png'></img>	71,89	2750.0	test	<img class = center src='/static/experiments/beast_fmri_test/images/redB.png'></img>	go	2350.0	1.0	5.0	go	non-target	B	71,Index Finger	89,Middle Finger	600.0	400.0	2150.0	2350.0	0.0	400.0	0.0	n/a	ITI
254832	500.0	n/a	-1	-1	500	0.0	fixation	poldrack-single-stim	114	307725	0.0-9.6-0.6	beast_fmri_test	330	n/a	n/a	<div class = centerbox2><div class = fixation>+</div></div>	none	500.0	test	n/a	n/a	n/a	n/a	n/a	n/a	n/a	n/a	n/a	n/a	n/a	n/a	n/a	n/a	n/a	n/a	n/a	n/a	fixation
254292.41951366531	600.0	n/a	508	71	2750	540.580486335	stim	stop-signal	115	310476	0.0-9.6-1.6	beast_fmri_test	330	307774,/,308453,/,309134,/,309813,/,310492,/	t,t,t,t,t	<img class = center src='/static/experiments/beast_fmri_test/images/B.png'></img>	71,89	2750.0	test	<img class = center src='/static/experiments/beast_fmri_test/images/redB.png'></img>	stop	2150.0	1.0	6.0	stop	target	B	71,Index Finger	89,Middle Finger	600.0	400.0	2150.0	2350.0	0.0	600.0	n/a	0.0	go_stim
256442.41951366531	2150.0	n/a	508	71	2750	540.580486335	stim	stop-signal	115	310476	0.0-9.6-1.6	beast_fmri_test	330	307774,/,308453,/,309134,/,309813,/,310492,/	t,t,t,t,t	<img class = center src='/static/experiments/beast_fmri_test/images/B.png'></img>	71,89	2750.0	test	<img class = center src='/static/experiments/beast_fmri_test/images/redB.png'></img>	stop	2150.0	1.0	6.0	stop	target	B	71,Index Finger	89,Middle Finger	600.0	400.0	2150.0	2350.0	0.0	600.0	n/a	0.0	stop_stim
257042.41951366531	540.580486335	n/a	508	71	2750	540.580486335	stim	stop-signal	115	310476	0.0-9.6-1.6	beast_fmri_test	330	307774,/,308453,/,309134,/,309813,/,310492,/	t,t,t,t,t	<img class = center src='/static/experiments/beast_fmri_test/images/B.png'></img>	71,89	2750.0	test	<img class = center src='/static/experiments/beast_fmri_test/images/redB.png'></img>	stop	2150.0	1.0	6.0	stop	target	B	71,Index Finger	89,Middle Finger	600.0	400.0	2150.0	2350.0	0.0	600.0	n/a	0.0	ITI
258643	500.0	n/a	-1	-1	500	0.0	fixation	poldrack-single-stim	116	311536	0.0-9.7-0.7	beast_fmri_test	330	311172,/	t	<div class = centerbox2><div class = fixation>+</div></div>	none	500.0	test	n/a	n/a	n/a	n/a	n/a	n/a	n/a	n/a	n/a	n/a	n/a	n/a	n/a	n/a	n/a	n/a	n/a	n/a	fixation
258397.02485289698	2750.0	n/a	576	89	2750	247.975147103	stim	stop-signal	117	314288	0.0-9.7-1.7	beast_fmri_test	330	311852,/,312531,/,313210,/,313890,/	t,t,t,t	<img class = center src='/static/experiments/beast_fmri_test/images/B.png'></img>	71,89	2750.0	test	<img class = center src='/static/experiments/beast_fmri_test/images/redB.png'></img>	go	2200.0	1.0	7.0	go	target	B	71,Index Finger	89,Middle Finger	550.0	400.0	2200.0	2350.0	0.0	550.0	0.0	n/a	go_stim
261147.02485289698	247.975147103	n/a	576	89	2750	247.975147103	stim	stop-signal	117	314288	0.0-9.7-1.7	beast_fmri_test	330	311852,/,312531,/,313210,/,313890,/	t,t,t,t	<img class = center src='/static/experiments/beast_fmri_test/images/B.png'></img>	71,89	2750.0	test	<img class = center src='/static/experiments/beast_fmri_test/images/redB.png'></img>	go	2200.0	1.0	7.0	go	target	B	71,Index Finger	89,Middle Finger	550.0	400.0	2200.0	2350.0	0.0	550.0	0.0	n/a	ITI
262160	500.0	n/a	-1	-1	500	0.0	fixation	poldrack-single-stim	118	315053	0.0-9.8-0.8	beast_fmri_test	330	314571,/	t	<div class = centerbox2><div class = fixation>+</div></div>	none	500.0	test	n/a	n/a	n/a	n/a	n/a	n/a	n/a	n/a	n/a	n/a	n/a	n/a	n/a	n/a	n/a	n/a	n/a	n/a	fixation
260206.00399920647	550.0	n/a	675	89	2750	1958.99600079	stim	stop-signal	119	317808	0.0-9.8-1.8	beast_fmri_test	330	315250,/,315930,/,316610,/,317288,/,317968,/,318648,/,319329,/	t,t,t,t,t,t,t	<img class = center src='/static/experiments/beast_fmri_test/images/B.png'></img>	71,89	2750.0	test	<img class = center src='/static/experiments/beast_fmri_test/images/redB.png'></img>	stop	2200.0	1.0	8.0	stop	target	B	71,Index Finger	89,Middle Finger	550.0	400.0	2200.0	2350.0	0.0	550.0	n/a	0.0	go_stim
262406.00399920647	2200.0	n/a	675	89	2750	1958.99600079	stim	stop-signal	119	317808	0.0-9.8-1.8	beast_fmri_test	330	315250,/,315930,/,316610,/,317288,/,317968,/,318648,/,319329,/	t,t,t,t,t,t,t	<img class = center src='/static/experiments/beast_fmri_test/images/B.png'></img>	71,89	2750.0	test	<img class = center src='/static/experiments/beast_fmri_test/images/redB.png'></img>	stop	2200.0	1.0	8.0	stop	target	B	71,Index Finger	89,Middle Finger	550.0	400.0	2200.0	2350.0	0.0	550.0	n/a	0.0	stop_stim
262956.00399920647	1958.99600079	n/a	675	89	2750	1958.99600079	stim	stop-signal	119	317808	0.0-9.8-1.8	beast_fmri_test	330	315250,/,315930,/,316610,/,317288,/,317968,/,318648,/,319329,/	t,t,t,t,t,t,t	<img class = center src='/static/experiments/beast_fmri_test/images/B.png'></img>	71,89	2750.0	test	<img class = center src='/static/experiments/beast_fmri_test/images/redB.png'></img>	stop	2200.0	1.0	8.0	stop	target	B	71,Index Finger	89,Middle Finger	550.0	400.0	2200.0	2350.0	0.0	550.0	n/a	0.0	ITI
267391	500.0	n/a	-1	-1	500	0.0	fixation	poldrack-single-stim	120	320284	0.0-9.9-0.9	beast_fmri_test	330	320008,/	t	<div class = centerbox2><div class = fixation>+</div></div>	none	500.0	test	n/a	n/a	n/a	n/a	n/a	n/a	n/a	n/a	n/a	n/a	n/a	n/a	n/a	n/a	n/a	n/a	n/a	n/a	fixation
266984.67519907159	2750.0	n/a	522	71	2750	409.324800928	stim	stop-signal	121	323037	0.0-9.9-1.9	beast_fmri_test	330	320688,/,321368,/,322046,/,322726,/,323407,/	t,t,t,t,t	<img class = center src='/static/experiments/beast_fmri_test/images/P.png'></img>	71,89	2750.0	test	<img class = center src='/static/experiments/beast_fmri_test/images/redP.png'></img>	go	2350.0	1.0	9.0	go	non-target	P	71,Index Finger	89,Middle Finger	500.0	400.0	2200.0	2350.0	0.0	400.0	0.0	n/a	go_stim
269734.67519907159	409.324800928	n/a	522	71	2750	409.324800928	stim	stop-signal	121	323037	0.0-9.9-1.9	beast_fmri_test	330	320688,/,321368,/,322046,/,322726,/,323407,/	t,t,t,t,t	<img class = center src='/static/experiments/beast_fmri_test/images/P.png'></img>	71,89	2750.0	test	<img class = center src='/static/experiments/beast_fmri_test/images/redP.png'></img>	go	2350.0	1.0	9.0	go	non-target	P	71,Index Finger	89,Middle Finger	500.0	400.0	2200.0	2350.0	0.0	400.0	0.0	n/a	ITI
271072	500.0	n/a	-1	-1	500	0.0	fixation	poldrack-single-stim	122	323965	0.0-9.10-0.10	beast_fmri_test	330	n/a	n/a	<div class = centerbox2><div class = fixation>+</div></div>	none	500.0	test	n/a	n/a	n/a	n/a	n/a	n/a	n/a	n/a	n/a	n/a	n/a	n/a	n/a	n/a	n/a	n/a	n/a	n/a	fixation
270593.52020240534	2750.0	n/a	734	71	2750	479.479797595	stim	stop-signal	123	326716	0.0-9.10-1.10	beast_fmri_test	330	324086,/,324766,/,325446,/,326125,/,326804,/	t,t,t,t,t	<img class = center src='/static/experiments/beast_fmri_test/images/D.png'></img>	71,89	2750.0	test	<img class = center src='/static/experiments/beast_fmri_test/images/redD.png'></img>	go	2350.0	1.0	10.0	go	non-target	D	71,Index Finger	89,Middle Finger	500.0	400.0	2200.0	2350.0	0.0	400.0	0.0	n/a	go_stim
273343.52020240534	479.479797595	n/a	734	71	2750	479.479797595	stim	stop-signal	123	326716	0.0-9.10-1.10	beast_fmri_test	330	324086,/,324766,/,325446,/,326125,/,326804,/	t,t,t,t,t	<img class = center src='/static/experiments/beast_fmri_test/images/D.png'></img>	71,89	2750.0	test	<img class = center src='/static/experiments/beast_fmri_test/images/redD.png'></img>	go	2350.0	1.0	10.0	go	non-target	D	71,Index Finger	89,Middle Finger	500.0	400.0	2200.0	2350.0	0.0	400.0	0.0	n/a	ITI
274820	500.0	n/a	-1	-1	500	0.0	fixation	poldrack-single-stim	124	327713	0.0-9.11-0.11	beast_fmri_test	330	327484,/	t	<div class = centerbox2><div class = fixation>+</div></div>	none	500.0	test	n/a	n/a	n/a	n/a	n/a	n/a	n/a	n/a	n/a	n/a	n/a	n/a	n/a	n/a	n/a	n/a	n/a	n/a	fixation
271532.34544273897	400.0	n/a	549	71	2750	3288.65455726	stim	stop-signal	125	330464	0.0-9.11-1.11	beast_fmri_test	330	328163,/,328845,/,329523,/,330203,/,330882,/,331562,/,332242,/,332924,/,333603,/	t,t,t,t,t,t,t,t,t	<img class = center src='/static/experiments/beast_fmri_test/images/B.png'></img>	71,89	2750.0	test	<img class = center src='/static/experiments/beast_fmri_test/images/redB.png'></img>	stop	2350.0	1.0	11.0	stop	non-target	B	71,Index Finger	89,Middle Finger	500.0	400.0	2200.0	2350.0	0.0	400.0	n/a	0.0	go_stim
273882.34544273897	2350.0	n/a	549	71	2750	3288.65455726	stim	stop-signal	125	330464	0.0-9.11-1.11	beast_fmri_test	330	328163,/,328845,/,329523,/,330203,/,330882,/,331562,/,332242,/,332924,/,333603,/	t,t,t,t,t,t,t,t,t	<img class = center src='/static/experiments/beast_fmri_test/images/B.png'></img>	71,89	2750.0	test	<img class = center src='/static/experiments/beast_fmri_test/images/redB.png'></img>	stop	2350.0	1.0	11.0	stop	non-target	B	71,Index Finger	89,Middle Finger	500.0	400.0	2200.0	2350.0	0.0	400.0	n/a	0.0	stop_stim
274282.34544273897	3288.65455726	n/a	549	71	2750	3288.65455726	stim	stop-signal	125	330464	0.0-9.11-1.11	beast_fmri_test	330	328163,/,328845,/,329523,/,330203,/,330882,/,331562,/,332242,/,332924,/,333603,/	t,t,t,t,t,t,t,t,t	<img class = center src='/static/experiments/beast_fmri_test/images/B.png'></img>	71,89	2750.0	test	<img class = center src='/static/experiments/beast_fmri_test/images/redB.png'></img>	stop	2350.0	1.0	11.0	stop	non-target	B	71,Index Finger	89,Middle Finger	500.0	400.0	2200.0	2350.0	0.0	400.0	n/a	0.0	ITI
281378	500.0	n/a	-1	-1	500	0.0	fixation	poldrack-single-stim	126	334271	0.0-9.12-0.12	beast_fmri_test	330	n/a	n/a	<div class = centerbox2><div class = fixation>+</div></div>	none	500.0	test	n/a	n/a	n/a	n/a	n/a	n/a	n/a	n/a	n/a	n/a	n/a	n/a	n/a	n/a	n/a	n/a	n/a	n/a	fixation
281299.683106507	350.0	n/a	638	71	2750	79.316893493	stim	stop-signal	127	337022	0.0-9.12-1.12	beast_fmri_test	330	334284,/,334961,/,335641,/,336320,/,337002,/	t,t,t,t,t	<img class = center src='/static/experiments/beast_fmri_test/images/D.png'></img>	71,89	2750.0	test	<img class = center src='/static/experiments/beast_fmri_test/images/redD.png'></img>	stop	2400.0	1.0	12.0	stop	non-target	D	71,Index Finger	89,Middle Finger	500.0	350.0	2200.0	2400.0	0.0	350.0	n/a	0.0	go_stim
283699.683106507	2400.0	n/a	638	71	2750	79.316893493	stim	stop-signal	127	337022	0.0-9.12-1.12	beast_fmri_test	330	334284,/,334961,/,335641,/,336320,/,337002,/	t,t,t,t,t	<img class = center src='/static/experiments/beast_fmri_test/images/D.png'></img>	71,89	2750.0	test	<img class = center src='/static/experiments/beast_fmri_test/images/redD.png'></img>	stop	2400.0	1.0	12.0	stop	non-target	D	71,Index Finger	89,Middle Finger	500.0	350.0	2200.0	2400.0	0.0	350.0	n/a	0.0	stop_stim
284049.683106507	79.316893493	n/a	638	71	2750	79.316893493	stim	stop-signal	127	337022	0.0-9.12-1.12	beast_fmri_test	330	334284,/,334961,/,335641,/,336320,/,337002,/	t,t,t,t,t	<img class = center src='/static/experiments/beast_fmri_test/images/D.png'></img>	71,89	2750.0	test	<img class = center src='/static/experiments/beast_fmri_test/images/redD.png'></img>	stop	2400.0	1.0	12.0	stop	non-target	D	71,Index Finger	89,Middle Finger	500.0	350.0	2200.0	2400.0	0.0	350.0	n/a	0.0	ITI
284726	500.0	n/a	-1	-1	500	0.0	fixation	poldrack-single-stim	128	337619	0.0-9.13-0.13	beast_fmri_test	330	n/a	n/a	<div class = centerbox2><div class = fixation>+</div></div>	none	500.0	test	n/a	n/a	n/a	n/a	n/a	n/a	n/a	n/a	n/a	n/a	n/a	n/a	n/a	n/a	n/a	n/a	n/a	n/a	fixation
283111.78972158168	2750.0	n/a	858	71	2750	1615.21027842	stim	stop-signal	129	340370	0.0-9.13-1.13	beast_fmri_test	330	337681,/,338360,/,339040,/,339720,/,340398,/,341078,/,341759,/	t,t,t,t,t,t,t	<img class = center src='/static/experiments/beast_fmri_test/images/V.png'></img>	71,89	2750.0	test	<img class = center src='/static/experiments/beast_fmri_test/images/redV.png'></img>	go	2450.0	1.0	13.0	go	non-target	V	71,Index Finger	89,Middle Finger	500.0	300.0	2200.0	2450.0	0.0	300.0	0.0	n/a	go_stim
285861.78972158168	1615.21027842	n/a	858	71	2750	1615.21027842	stim	stop-signal	129	340370	0.0-9.13-1.13	beast_fmri_test	330	337681,/,338360,/,339040,/,339720,/,340398,/,341078,/,341759,/	t,t,t,t,t,t,t	<img class = center src='/static/experiments/beast_fmri_test/images/V.png'></img>	71,89	2750.0	test	<img class = center src='/static/experiments/beast_fmri_test/images/redV.png'></img>	go	2450.0	1.0	13.0	go	non-target	V	71,Index Finger	89,Middle Finger	500.0	300.0	2200.0	2450.0	0.0	300.0	0.0	n/a	ITI
289610	500.0	n/a	-1	-1	500	0.0	fixation	poldrack-single-stim	130	342503	0.0-9.14-0.14	beast_fmri_test	330	342439,/	t	<div class = centerbox2><div class = fixation>+</div></div>	none	500.0	test	n/a	n/a	n/a	n/a	n/a	n/a	n/a	n/a	n/a	n/a	n/a	n/a	n/a	n/a	n/a	n/a	n/a	n/a	fixation
288725.15966490057	2750.0	n/a	981	71	2750	886.840335099	stim	stop-signal	131	345255	0.0-9.14-1.14	beast_fmri_test	330	343118,/,343798,/,344477,/,345156,/,345837,/	t,t,t,t,t	<img class = center src='/static/experiments/beast_fmri_test/images/B.png'></img>	71,89	2750.0	test	<img class = center src='/static/experiments/beast_fmri_test/images/redB.png'></img>	go	2450.0	1.0	14.0	go	non-target	B	71,Index Finger	89,Middle Finger	500.0	300.0	2200.0	2450.0	0.0	300.0	0.0	n/a	go_stim
291475.15966490057	886.840335099	n/a	981	71	2750	886.840335099	stim	stop-signal	131	345255	0.0-9.14-1.14	beast_fmri_test	330	343118,/,343798,/,344477,/,345156,/,345837,/	t,t,t,t,t	<img class = center src='/static/experiments/beast_fmri_test/images/B.png'></img>	71,89	2750.0	test	<img class = center src='/static/experiments/beast_fmri_test/images/redB.png'></img>	go	2450.0	1.0	14.0	go	non-target	B	71,Index Finger	89,Middle Finger	500.0	300.0	2200.0	2450.0	0.0	300.0	0.0	n/a	ITI
293769	500.0	n/a	-1	-1	500	0.0	fixation	poldrack-single-stim	132	346662	0.0-9.15-0.15	beast_fmri_test	330	346515,/	t	<div class = centerbox2><div class = fixation>+</div></div>	none	500.0	test	n/a	n/a	n/a	n/a	n/a	n/a	n/a	n/a	n/a	n/a	n/a	n/a	n/a	n/a	n/a	n/a	n/a	n/a	fixation
292643.36331633985	2750.0	n/a	715	89	2750	1126.63668366	stim	stop-signal	133	349413	0.0-9.15-1.15	beast_fmri_test	330	347195,/,347875,/,348554,/,349234,/,349914,/	t,t,t,t,t	<img class = center src='/static/experiments/beast_fmri_test/images/B.png'></img>	71,89	2750.0	test	<img class = center src='/static/experiments/beast_fmri_test/images/redB.png'></img>	go	2250.0	1.0	15.0	go	target	B	71,Index Finger	89,Middle Finger	500.0	300.0	2250.0	2450.0	0.0	500.0	0.0	n/a	go_stim
295393.36331633985	1126.63668366	n/a	715	89	2750	1126.63668366	stim	stop-signal	133	349413	0.0-9.15-1.15	beast_fmri_test	330	347195,/,347875,/,348554,/,349234,/,349914,/	t,t,t,t,t	<img class = center src='/static/experiments/beast_fmri_test/images/B.png'></img>	71,89	2750.0	test	<img class = center src='/static/experiments/beast_fmri_test/images/redB.png'></img>	go	2250.0	1.0	15.0	go	target	B	71,Index Finger	89,Middle Finger	500.0	300.0	2250.0	2450.0	0.0	500.0	0.0	n/a	ITI
298163	500.0	n/a	-1	-1	500	0.0	fixation	poldrack-single-stim	134	351056	0.0-9.16-0.16	beast_fmri_test	330	350596,/	t	<div class = centerbox2><div class = fixation>+</div></div>	none	500.0	test	n/a	n/a	n/a	n/a	n/a	n/a	n/a	n/a	n/a	n/a	n/a	n/a	n/a	n/a	n/a	n/a	n/a	n/a	fixation
294845.1932700944	2750.0	n/a	1050	71	2750	3319.80672991	stim	stop-signal	135	353808	0.0-9.16-1.16	beast_fmri_test	330	351274,/,351954,/,352633,/,353313,/,353992,/,354671,/,355351,/,356031,/,356710,/	t,t,t,t,t,t,t,t,t	<img class = center src='/static/experiments/beast_fmri_test/images/T.png'></img>	71,89	2750.0	test	<img class = center src='/static/experiments/beast_fmri_test/images/redT.png'></img>	go	2450.0	1.0	16.0	go	non-target	T	71,Index Finger	89,Middle Finger	500.0	300.0	2250.0	2450.0	0.0	300.0	0.0	n/a	go_stim
297595.1932700944	3319.80672991	n/a	1050	71	2750	3319.80672991	stim	stop-signal	135	353808	0.0-9.16-1.16	beast_fmri_test	330	351274,/,351954,/,352633,/,353313,/,353992,/,354671,/,355351,/,356031,/,356710,/	t,t,t,t,t,t,t,t,t	<img class = center src='/static/experiments/beast_fmri_test/images/T.png'></img>	71,89	2750.0	test	<img class = center src='/static/experiments/beast_fmri_test/images/redT.png'></img>	go	2450.0	1.0	16.0	go	non-target	T	71,Index Finger	89,Middle Finger	500.0	300.0	2250.0	2450.0	0.0	300.0	0.0	n/a	ITI
304753	500.0	n/a	-1	-1	500	0.0	fixation	poldrack-single-stim	136	357646	0.0-9.17-0.17	beast_fmri_test	330	357390,/	t	<div class = centerbox2><div class = fixation>+</div></div>	none	500.0	test	n/a	n/a	n/a	n/a	n/a	n/a	n/a	n/a	n/a	n/a	n/a	n/a	n/a	n/a	n/a	n/a	n/a	n/a	fixation
304380.62679257779	2750.0	n/a	817	71	2750	373.373207422	stim	stop-signal	137	360397	0.0-9.17-1.17	beast_fmri_test	330	358071,/,358750,/,359430,/,360111,/	t,t,t,t	<img class = center src='/static/experiments/beast_fmri_test/images/D.png'></img>	71,89	2750.0	test	<img class = center src='/static/experiments/beast_fmri_test/images/redD.png'></img>	go	2450.0	1.0	17.0	go	non-target	D	71,Index Finger	89,Middle Finger	500.0	300.0	2250.0	2450.0	0.0	300.0	0.0	n/a	go_stim
307130.62679257779	373.373207422	n/a	817	71	2750	373.373207422	stim	stop-signal	137	360397	0.0-9.17-1.17	beast_fmri_test	330	358071,/,358750,/,359430,/,360111,/	t,t,t,t	<img class = center src='/static/experiments/beast_fmri_test/images/D.png'></img>	71,89	2750.0	test	<img class = center src='/static/experiments/beast_fmri_test/images/redD.png'></img>	go	2450.0	1.0	17.0	go	non-target	D	71,Index Finger	89,Middle Finger	500.0	300.0	2250.0	2450.0	0.0	300.0	0.0	n/a	ITI
308399	500.0	n/a	-1	-1	500	0.0	fixation	poldrack-single-stim	138	361292	0.0-9.18-0.18	beast_fmri_test	330	360791,/	t	<div class = centerbox2><div class = fixation>+</div></div>	none	500.0	test	n/a	n/a	n/a	n/a	n/a	n/a	n/a	n/a	n/a	n/a	n/a	n/a	n/a	n/a	n/a	n/a	n/a	n/a	fixation
308278.43501221598	2750.0	n/a	556	71	2750	123.564987784	stim	stop-signal	139	364045	0.0-9.18-1.18	beast_fmri_test	330	361470,/,362150,/,362829,/,363507,/	t,t,t,t	<img class = center src='/static/experiments/beast_fmri_test/images/V.png'></img>	71,89	2750.0	test	<img class = center src='/static/experiments/beast_fmri_test/images/redV.png'></img>	go	2450.0	1.0	18.0	go	non-target	V	71,Index Finger	89,Middle Finger	500.0	300.0	2250.0	2450.0	0.0	300.0	0.0	n/a	go_stim
311028.43501221598	123.564987784	n/a	556	71	2750	123.564987784	stim	stop-signal	139	364045	0.0-9.18-1.18	beast_fmri_test	330	361470,/,362150,/,362829,/,363507,/	t,t,t,t	<img class = center src='/static/experiments/beast_fmri_test/images/V.png'></img>	71,89	2750.0	test	<img class = center src='/static/experiments/beast_fmri_test/images/redV.png'></img>	go	2450.0	1.0	18.0	go	non-target	V	71,Index Finger	89,Middle Finger	500.0	300.0	2250.0	2450.0	0.0	300.0	0.0	n/a	ITI
311799	500.0	n/a	-1	-1	500	0.0	fixation	poldrack-single-stim	140	364692	0.0-9.19-0.19	beast_fmri_test	330	364190,/	t	<div class = centerbox2><div class = fixation>+</div></div>	none	500.0	test	n/a	n/a	n/a	n/a	n/a	n/a	n/a	n/a	n/a	n/a	n/a	n/a	n/a	n/a	n/a	n/a	n/a	n/a	fixation
310200.78981598146	2750.0	n/a	822	89	2750	1601.21018402	stim	stop-signal	141	367445	0.0-9.19-1.19	beast_fmri_test	330	364869,/,365548,/,366227,/,366907,/,367586,/,368265,/,368946,/	t,t,t,t,t,t,t	<img class = center src='/static/experiments/beast_fmri_test/images/V.png'></img>	71,89	2750.0	test	<img class = center src='/static/experiments/beast_fmri_test/images/redV.png'></img>	go	2250.0	1.0	19.0	go	target	V	71,Index Finger	89,Middle Finger	500.0	300.0	2250.0	2450.0	0.0	500.0	0.0	n/a	go_stim
312950.78981598146	1601.21018402	n/a	822	89	2750	1601.21018402	stim	stop-signal	141	367445	0.0-9.19-1.19	beast_fmri_test	330	364869,/,365548,/,366227,/,366907,/,367586,/,368265,/,368946,/	t,t,t,t,t,t,t	<img class = center src='/static/experiments/beast_fmri_test/images/V.png'></img>	71,89	2750.0	test	<img class = center src='/static/experiments/beast_fmri_test/images/redV.png'></img>	go	2250.0	1.0	19.0	go	target	V	71,Index Finger	89,Middle Finger	500.0	300.0	2250.0	2450.0	0.0	500.0	0.0	n/a	ITI
316676	500.0	n/a	-1	-1	500	0.0	fixation	poldrack-single-stim	142	369569	0.0-9.20-0.20	beast_fmri_test	330	n/a	n/a	<div class = centerbox2><div class = fixation>+</div></div>	none	500.0	test	n/a	n/a	n/a	n/a	n/a	n/a	n/a	n/a	n/a	n/a	n/a	n/a	n/a	n/a	n/a	n/a	n/a	n/a	fixation
315984.45645741129	2750.0	n/a	652	71	2750	692.543542589	stim	stop-signal	143	372320	0.0-9.20-1.20	beast_fmri_test	330	369625,/,370306,/,370985,/,371665,/,372347,/	t,t,t,t,t	<img class = center src='/static/experiments/beast_fmri_test/images/T.png'></img>	71,89	2750.0	test	<img class = center src='/static/experiments/beast_fmri_test/images/redT.png'></img>	go	2450.0	1.0	20.0	go	non-target	T	71,Index Finger	89,Middle Finger	500.0	300.0	2250.0	2450.0	0.0	300.0	0.0	n/a	go_stim
318734.45645741129	692.543542589	n/a	652	71	2750	692.543542589	stim	stop-signal	143	372320	0.0-9.20-1.20	beast_fmri_test	330	369625,/,370306,/,370985,/,371665,/,372347,/	t,t,t,t,t	<img class = center src='/static/experiments/beast_fmri_test/images/T.png'></img>	71,89	2750.0	test	<img class = center src='/static/experiments/beast_fmri_test/images/redT.png'></img>	go	2450.0	1.0	20.0	go	non-target	T	71,Index Finger	89,Middle Finger	500.0	300.0	2250.0	2450.0	0.0	300.0	0.0	n/a	ITI
320639	500.0	n/a	-1	-1	500	0.0	fixation	poldrack-single-stim	144	373532	0.0-9.21-0.21	beast_fmri_test	330	373032,/	t	<div class = centerbox2><div class = fixation>+</div></div>	none	500.0	test	n/a	n/a	n/a	n/a	n/a	n/a	n/a	n/a	n/a	n/a	n/a	n/a	n/a	n/a	n/a	n/a	n/a	n/a	fixation
320586.01851638738	2750.0	n/a	691	71	2750	53.9814836126	stim	stop-signal	145	376283	0.0-9.21-1.21	beast_fmri_test	330	373704,/,374382,/,375064,/,375742,/	t,t,t,t	<img class = center src='/static/experiments/beast_fmri_test/images/B.png'></img>	71,89	2750.0	test	<img class = center src='/static/experiments/beast_fmri_test/images/redB.png'></img>	go	2450.0	1.0	21.0	go	non-target	B	71,Index Finger	89,Middle Finger	500.0	300.0	2250.0	2450.0	0.0	300.0	0.0	n/a	go_stim
323336.01851638738	53.9814836126	n/a	691	71	2750	53.9814836126	stim	stop-signal	145	376283	0.0-9.21-1.21	beast_fmri_test	330	373704,/,374382,/,375064,/,375742,/	t,t,t,t	<img class = center src='/static/experiments/beast_fmri_test/images/B.png'></img>	71,89	2750.0	test	<img class = center src='/static/experiments/beast_fmri_test/images/redB.png'></img>	go	2450.0	1.0	21.0	go	non-target	B	71,Index Finger	89,Middle Finger	500.0	300.0	2250.0	2450.0	0.0	300.0	0.0	n/a	ITI
323964	500.0	n/a	-1	-1	500	0.0	fixation	poldrack-single-stim	146	376857	0.0-9.22-0.22	beast_fmri_test	330	376422,/	t	<div class = centerbox2><div class = fixation>+</div></div>	none	500.0	test	n/a	n/a	n/a	n/a	n/a	n/a	n/a	n/a	n/a	n/a	n/a	n/a	n/a	n/a	n/a	n/a	n/a	n/a	fixation
323505.99520312075	2750.0	n/a	906	89	2750	460.004796879	stim	stop-signal	147	379609	0.0-9.22-1.22	beast_fmri_test	330	377103,/,377782,/,378460,/,379140,/,379819,/	t,t,t,t,t	<img class = center src='/static/experiments/beast_fmri_test/images/B.png'></img>	71,89	2750.0	test	<img class = center src='/static/experiments/beast_fmri_test/images/redB.png'></img>	go	2250.0	1.0	22.0	go	target	B	71,Index Finger	89,Middle Finger	500.0	300.0	2250.0	2450.0	0.0	500.0	0.0	n/a	go_stim
326255.99520312075	460.004796879	n/a	906	89	2750	460.004796879	stim	stop-signal	147	379609	0.0-9.22-1.22	beast_fmri_test	330	377103,/,377782,/,378460,/,379140,/,379819,/	t,t,t,t,t	<img class = center src='/static/experiments/beast_fmri_test/images/B.png'></img>	71,89	2750.0	test	<img class = center src='/static/experiments/beast_fmri_test/images/redB.png'></img>	go	2250.0	1.0	22.0	go	target	B	71,Index Finger	89,Middle Finger	500.0	300.0	2250.0	2450.0	0.0	500.0	0.0	n/a	ITI
327696	500.0	n/a	-1	-1	500	0.0	fixation	poldrack-single-stim	148	380589	0.0-9.23-0.23	beast_fmri_test	330	380500,/	t	<div class = centerbox2><div class = fixation>+</div></div>	none	500.0	test	n/a	n/a	n/a	n/a	n/a	n/a	n/a	n/a	n/a	n/a	n/a	n/a	n/a	n/a	n/a	n/a	n/a	n/a	fixation
325211.86664339527	2750.0	n/a	659	89	2750	2485.1333566	stim	stop-signal	149	383340	0.0-9.23-1.23	beast_fmri_test	330	381179,/,381859,/,382539,/,383217,/,383898,/,384577,/,385257,/	t,t,t,t,t,t,t	<img class = center src='/static/experiments/beast_fmri_test/images/B.png'></img>	71,89	2750.0	test	<img class = center src='/static/experiments/beast_fmri_test/images/redB.png'></img>	go	2250.0	1.0	23.0	go	target	B	71,Index Finger	89,Middle Finger	500.0	300.0	2250.0	2450.0	0.0	500.0	0.0	n/a	go_stim
