onset	duration	"“text"""	rt	key_press	block_duration	timing_post_trial	trial_id	trial_type	trial_index	time_elapsed	internal_node_id	exp_id	subject_id	trigger_times	triggers	stimulus	possible_responses	stim_duration	exp_stage	SS_stimulus	SS_trial_type	SS_duration	load	trial_num	stop_trial_type	adaptive_trial_type	stim	yes_response_key	no_response_key	SSD_target	SSD_non_target	SSTarget	SSNonTarget	go_acc	stop_acc	SS_delay	adaptive_acc	new_trial_type
test	10880	n/a	-1	-1	10880	0.0	practice-no-stop-feedback	poldrack-single-stim	200	607889	0.0-12.0	beast_fmri_test	273	597013,/,597691,/,598371,/,599051,/,599729,/,600409,/,601089,/,601770,/,602448,/,603129,/,603809,/,604489,/,605167,/,605847,/,606526,/,607206,/,607886,/	t,t,t,t,t,t,t,t,t,t,t,t,t,t,t,t,t	"<div class = ""centerbox""><p class = ""block-text"">Your delay is 2 trials.</p><p class = block-text>Please wait for the scanner to start the block</p></div>"	77	10880.0	n/a	n/a	n/a	n/a	n/a	n/a	n/a	n/a	n/a	n/a	n/a	n/a	n/a	n/a	n/a	n/a	n/a	n/a	n/a	start_functional_block
11378	500	n/a	-1	-1	500	0.0	fixation	poldrack-single-stim	201	608391	0.0-13.0-0.0	beast_fmri_test	273	n/a	n/a	<div class = centerbox2><div class = fixation>+</div></div>	none	500.0	test	n/a	n/a	n/a	n/a	n/a	n/a	n/a	n/a	n/a	n/a	n/a	n/a	n/a	n/a	n/a	n/a	n/a	n/a	fixation
9637.1359804846579	2750	n/a	-1	-1	2750	1741.86401952	stim	stop-signal	202	611142	0.0-13.0-1.0	beast_fmri_test	273	608566,/,609246,/,609925,/,610605,/,611285,/,611965,/,612643,/	t,t,t,t,t,t,t	<img class = center src='/static/experiments/beast_fmri_test/images/T.png'></img>	89,71	2750.0	test	<img class = center src='/static/experiments/beast_fmri_test/images/redT.png'></img>	go	-1.0	2.0	0.0	go	temp-non-target	T	89,Middle Finger	71,Index Finger	400.0	700.0	2350.0	2100.0	0.0	n/a	n/a	n/a	go_stim
12387.135980484658	1741.8640195154001	n/a	-1	-1	2750	1741.86401952	stim	stop-signal	202	611142	0.0-13.0-1.0	beast_fmri_test	273	608566,/,609246,/,609925,/,610605,/,611285,/,611965,/,612643,/	t,t,t,t,t,t,t	<img class = center src='/static/experiments/beast_fmri_test/images/T.png'></img>	89,71	2750.0	test	<img class = center src='/static/experiments/beast_fmri_test/images/redT.png'></img>	go	-1.0	2.0	0.0	go	temp-non-target	T	89,Middle Finger	71,Index Finger	400.0	700.0	2350.0	2100.0	0.0	n/a	n/a	n/a	ITI
16397	500	n/a	-1	-1	500	0.0	fixation	poldrack-single-stim	203	613410	0.0-13.1-0.1	beast_fmri_test	273	613324,/	t	<div class = centerbox2><div class = fixation>+</div></div>	none	500.0	test	n/a	n/a	n/a	n/a	n/a	n/a	n/a	n/a	n/a	n/a	n/a	n/a	n/a	n/a	n/a	n/a	n/a	n/a	fixation
16327.437077031238	temp_go_duration	n/a	-1	-1	2750	70.5629229688	stim	stop-signal	204	616161	0.0-13.1-1.1	beast_fmri_test	273	614004,/,614682,/,615362,/,616043,/	t,t,t,t	<img class = center src='/static/experiments/beast_fmri_test/images/T.png'></img>	89,71	2750.0	test	<img class = center src='/static/experiments/beast_fmri_test/images/redT.png'></img>	stop	-1.0	2.0	1.0	stop	temp-non-target	T	89,Middle Finger	71,Index Finger	400.0	700.0	2350.0	2100.0	0.0	1.0	n/a	n/a	go_stim
temp-non-target	temp_stop_duration	n/a	-1	-1	2750	70.5629229688	stim	stop-signal	204	616161	0.0-13.1-1.1	beast_fmri_test	273	614004,/,614682,/,615362,/,616043,/	t,t,t,t	<img class = center src='/static/experiments/beast_fmri_test/images/T.png'></img>	89,71	2750.0	test	<img class = center src='/static/experiments/beast_fmri_test/images/redT.png'></img>	stop	-1.0	2.0	1.0	stop	temp-non-target	T	89,Middle Finger	71,Index Finger	400.0	700.0	2350.0	2100.0	0.0	1.0	n/a	n/a	stop_stim
19077.437077031238	70.562922968753625	n/a	-1	-1	2750	70.5629229688	stim	stop-signal	204	616161	0.0-13.1-1.1	beast_fmri_test	273	614004,/,614682,/,615362,/,616043,/	t,t,t,t	<img class = center src='/static/experiments/beast_fmri_test/images/T.png'></img>	89,71	2750.0	test	<img class = center src='/static/experiments/beast_fmri_test/images/redT.png'></img>	stop	-1.0	2.0	1.0	stop	temp-non-target	T	89,Middle Finger	71,Index Finger	400.0	700.0	2350.0	2100.0	0.0	1.0	n/a	n/a	ITI
19746	500	n/a	-1	-1	500	0.0	fixation	poldrack-single-stim	205	616759	0.0-13.2-0.2	beast_fmri_test	273	616724,/	t	<div class = centerbox2><div class = fixation>+</div></div>	none	500.0	test	n/a	n/a	n/a	n/a	n/a	n/a	n/a	n/a	n/a	n/a	n/a	n/a	n/a	n/a	n/a	n/a	n/a	n/a	fixation
19303.957024183357	2750	n/a	811	71	2750	444.042975817	stim	stop-signal	206	619511	0.0-13.2-1.2	beast_fmri_test	273	617402,/,618082,/,618762,/,619441,/	t,t,t,t	<img class = center src='/static/experiments/beast_fmri_test/images/P.png'></img>	89,71	2750.0	test	<img class = center src='/static/experiments/beast_fmri_test/images/redP.png'></img>	go	2050.0	2.0	2.0	go	non-target	P	89,Middle Finger	71,Index Finger	400.0	700.0	2350.0	2050.0	1.0	n/a	700.0	1.0	go_stim
22053.957024183357	444.042975816688	n/a	811	71	2750	444.042975817	stim	stop-signal	206	619511	0.0-13.2-1.2	beast_fmri_test	273	617402,/,618082,/,618762,/,619441,/	t,t,t,t	<img class = center src='/static/experiments/beast_fmri_test/images/P.png'></img>	89,71	2750.0	test	<img class = center src='/static/experiments/beast_fmri_test/images/redP.png'></img>	go	2050.0	2.0	2.0	go	non-target	P	89,Middle Finger	71,Index Finger	400.0	700.0	2350.0	2050.0	1.0	n/a	700.0	1.0	ITI
23470	500	n/a	-1	-1	500	0.0	fixation	poldrack-single-stim	207	620483	0.0-13.3-0.3	beast_fmri_test	273	620120,/	t	<div class = centerbox2><div class = fixation>+</div></div>	none	500.0	test	n/a	n/a	n/a	n/a	n/a	n/a	n/a	n/a	n/a	n/a	n/a	n/a	n/a	n/a	n/a	n/a	n/a	n/a	fixation
21895.101368737291	2750	n/a	797	89	2750	1575.89863126	stim	stop-signal	208	623234	0.0-13.3-1.3	beast_fmri_test	273	620801,/,621481,/,622159,/,622840,/,623519,/,624198,/	t,t,t,t,t,t	<img class = center src='/static/experiments/beast_fmri_test/images/T.png'></img>	89,71	2750.0	test	<img class = center src='/static/experiments/beast_fmri_test/images/redT.png'></img>	go	2350.0	2.0	3.0	go	target	T	89,Middle Finger	71,Index Finger	400.0	700.0	2350.0	2050.0	1.0	n/a	400.0	1.0	go_stim
24645.101368737291	1575.8986312627053	n/a	797	89	2750	1575.89863126	stim	stop-signal	208	623234	0.0-13.3-1.3	beast_fmri_test	273	620801,/,621481,/,622159,/,622840,/,623519,/,624198,/	t,t,t,t,t,t	<img class = center src='/static/experiments/beast_fmri_test/images/T.png'></img>	89,71	2750.0	test	<img class = center src='/static/experiments/beast_fmri_test/images/redT.png'></img>	go	2350.0	2.0	3.0	go	target	T	89,Middle Finger	71,Index Finger	400.0	700.0	2350.0	2050.0	1.0	n/a	400.0	1.0	ITI
28320	500	n/a	-1	-1	500	0.0	fixation	poldrack-single-stim	209	625333	0.0-13.4-0.4	beast_fmri_test	273	624887,/	t	<div class = centerbox2><div class = fixation>+</div></div>	none	500.0	test	n/a	n/a	n/a	n/a	n/a	n/a	n/a	n/a	n/a	n/a	n/a	n/a	n/a	n/a	n/a	n/a	n/a	n/a	fixation
25781.810385241755	2750	n/a	695	71	2750	2540.18961476	stim	stop-signal	210	628085	0.0-13.4-1.4	beast_fmri_test	273	625557,/,626237,/,626918,/,627598,/,628277,/,628957,/,629636,/,630316,/	t,t,t,t,t,t,t,t	<img class = center src='/static/experiments/beast_fmri_test/images/V.png'></img>	89,71	2750.0	test	<img class = center src='/static/experiments/beast_fmri_test/images/redV.png'></img>	go	2050.0	2.0	4.0	go	non-target	V	89,Middle Finger	71,Index Finger	400.0	700.0	2350.0	2050.0	1.0	n/a	700.0	1.0	go_stim
28531.810385241755	2540.189614758302	n/a	695	71	2750	2540.18961476	stim	stop-signal	210	628085	0.0-13.4-1.4	beast_fmri_test	273	625557,/,626237,/,626918,/,627598,/,628277,/,628957,/,629636,/,630316,/	t,t,t,t,t,t,t,t	<img class = center src='/static/experiments/beast_fmri_test/images/V.png'></img>	89,71	2750.0	test	<img class = center src='/static/experiments/beast_fmri_test/images/redV.png'></img>	go	2050.0	2.0	4.0	go	non-target	V	89,Middle Finger	71,Index Finger	400.0	700.0	2350.0	2050.0	1.0	n/a	700.0	1.0	ITI
34142	500	n/a	-1	-1	500	0.0	fixation	poldrack-single-stim	211	631155	0.0-13.5-0.5	beast_fmri_test	273	630995,/	t	<div class = centerbox2><div class = fixation>+</div></div>	none	500.0	test	n/a	n/a	n/a	n/a	n/a	n/a	n/a	n/a	n/a	n/a	n/a	n/a	n/a	n/a	n/a	n/a	n/a	n/a	fixation
33993.460556420963	2750	n/a	816	71	2750	149.539443579	stim	stop-signal	212	633906	0.0-13.5-1.5	beast_fmri_test	273	631675,/,632355,/,633035,/,633713,/	t,t,t,t	<img class = center src='/static/experiments/beast_fmri_test/images/P.png'></img>	89,71	2750.0	test	<img class = center src='/static/experiments/beast_fmri_test/images/redP.png'></img>	go	2050.0	2.0	5.0	go	non-target	P	89,Middle Finger	71,Index Finger	400.0	700.0	2350.0	2050.0	1.0	n/a	700.0	1.0	go_stim
36743.460556420963	149.53944357908335	n/a	816	71	2750	149.539443579	stim	stop-signal	212	633906	0.0-13.5-1.5	beast_fmri_test	273	631675,/,632355,/,633035,/,633713,/	t,t,t,t	<img class = center src='/static/experiments/beast_fmri_test/images/P.png'></img>	89,71	2750.0	test	<img class = center src='/static/experiments/beast_fmri_test/images/redP.png'></img>	go	2050.0	2.0	5.0	go	non-target	P	89,Middle Finger	71,Index Finger	400.0	700.0	2350.0	2050.0	1.0	n/a	700.0	1.0	ITI
37568	500	n/a	-1	-1	500	0.0	fixation	poldrack-single-stim	213	634581	0.0-13.6-0.6	beast_fmri_test	273	634394,/	t	<div class = centerbox2><div class = fixation>+</div></div>	none	500.0	test	n/a	n/a	n/a	n/a	n/a	n/a	n/a	n/a	n/a	n/a	n/a	n/a	n/a	n/a	n/a	n/a	n/a	n/a	fixation
36354.205927988165	2750	n/a	656	71	2750	1215.79407201	stim	stop-signal	214	637333	0.0-13.6-1.6	beast_fmri_test	273	635075,/,635754,/,636433,/,637113,/,637791,/,638471,/	t,t,t,t,t,t	<img class = center src='/static/experiments/beast_fmri_test/images/T.png'></img>	89,71	2750.0	test	<img class = center src='/static/experiments/beast_fmri_test/images/redT.png'></img>	go	2050.0	2.0	6.0	go	non-target	T	89,Middle Finger	71,Index Finger	400.0	700.0	2350.0	2050.0	1.0	n/a	700.0	1.0	go_stim
39104.205927988165	1215.7940720117861	n/a	656	71	2750	1215.79407201	stim	stop-signal	214	637333	0.0-13.6-1.6	beast_fmri_test	273	635075,/,635754,/,636433,/,637113,/,637791,/,638471,/	t,t,t,t,t,t	<img class = center src='/static/experiments/beast_fmri_test/images/T.png'></img>	89,71	2750.0	test	<img class = center src='/static/experiments/beast_fmri_test/images/redT.png'></img>	go	2050.0	2.0	6.0	go	non-target	T	89,Middle Finger	71,Index Finger	400.0	700.0	2350.0	2050.0	1.0	n/a	700.0	1.0	ITI
42063	500	n/a	-1	-1	500	0.0	fixation	poldrack-single-stim	215	639076	0.0-13.7-0.7	beast_fmri_test	273	n/a	n/a	<div class = centerbox2><div class = fixation>+</div></div>	none	500.0	test	n/a	n/a	n/a	n/a	n/a	n/a	n/a	n/a	n/a	n/a	n/a	n/a	n/a	n/a	n/a	n/a	n/a	n/a	fixation
41272.642980953096	2750	n/a	807	71	2750	793.357019047	stim	stop-signal	216	641829	0.0-13.7-1.7	beast_fmri_test	273	639151,/,639830,/,640511,/,641191,/,641870,/,642550,/	t,t,t,t,t,t	<img class = center src='/static/experiments/beast_fmri_test/images/D.png'></img>	89,71	2750.0	test	<img class = center src='/static/experiments/beast_fmri_test/images/redD.png'></img>	go	2050.0	2.0	7.0	go	non-target	D	89,Middle Finger	71,Index Finger	400.0	700.0	2350.0	2050.0	1.0	n/a	700.0	1.0	go_stim
44022.642980953096	793.357019046956	n/a	807	71	2750	793.357019047	stim	stop-signal	216	641829	0.0-13.7-1.7	beast_fmri_test	273	639151,/,639830,/,640511,/,641191,/,641870,/,642550,/	t,t,t,t,t,t	<img class = center src='/static/experiments/beast_fmri_test/images/D.png'></img>	89,71	2750.0	test	<img class = center src='/static/experiments/beast_fmri_test/images/redD.png'></img>	go	2050.0	2.0	7.0	go	non-target	D	89,Middle Finger	71,Index Finger	400.0	700.0	2350.0	2050.0	1.0	n/a	700.0	1.0	ITI
46135	500	n/a	-1	-1	500	0.0	fixation	poldrack-single-stim	217	643148	0.0-13.8-0.8	beast_fmri_test	273	n/a	n/a	<div class = centerbox2><div class = fixation>+</div></div>	none	500.0	test	n/a	n/a	n/a	n/a	n/a	n/a	n/a	n/a	n/a	n/a	n/a	n/a	n/a	n/a	n/a	n/a	n/a	n/a	fixation
45372.687432463164	2750	n/a	954	71	2750	764.312567537	stim	stop-signal	218	645900	0.0-13.8-1.8	beast_fmri_test	273	643229,/,643909,/,644590,/,645269,/,645949,/,646628,/	t,t,t,t,t,t	<img class = center src='/static/experiments/beast_fmri_test/images/D.png'></img>	89,71	2750.0	test	<img class = center src='/static/experiments/beast_fmri_test/images/redD.png'></img>	go	2050.0	2.0	8.0	go	non-target	D	89,Middle Finger	71,Index Finger	400.0	700.0	2350.0	2050.0	1.0	n/a	700.0	1.0	go_stim
48122.687432463164	764.31256753682544	n/a	954	71	2750	764.312567537	stim	stop-signal	218	645900	0.0-13.8-1.8	beast_fmri_test	273	643229,/,643909,/,644590,/,645269,/,645949,/,646628,/	t,t,t,t,t,t	<img class = center src='/static/experiments/beast_fmri_test/images/D.png'></img>	89,71	2750.0	test	<img class = center src='/static/experiments/beast_fmri_test/images/redD.png'></img>	go	2050.0	2.0	8.0	go	non-target	D	89,Middle Finger	71,Index Finger	400.0	700.0	2350.0	2050.0	1.0	n/a	700.0	1.0	ITI
50181	500	n/a	-1	-1	500	0.0	fixation	poldrack-single-stim	219	647194	0.0-13.9-0.9	beast_fmri_test	273	n/a	n/a	<div class = centerbox2><div class = fixation>+</div></div>	none	500.0	test	n/a	n/a	n/a	n/a	n/a	n/a	n/a	n/a	n/a	n/a	n/a	n/a	n/a	n/a	n/a	n/a	n/a	n/a	fixation
47308.57993370085	2750	n/a	830	71	2750	2874.4200663	stim	stop-signal	220	649946	0.0-13.9-1.9	beast_fmri_test	273	647308,/,647990,/,648668,/,649347,/,650028,/,650706,/,651387,/,652065,/,652746,/	t,t,t,t,t,t,t,t,t	<img class = center src='/static/experiments/beast_fmri_test/images/T.png'></img>	89,71	2750.0	test	<img class = center src='/static/experiments/beast_fmri_test/images/redT.png'></img>	go	2050.0	2.0	9.0	go	non-target	T	89,Middle Finger	71,Index Finger	400.0	700.0	2350.0	2050.0	1.0	n/a	700.0	1.0	go_stim
50058.57993370085	2874.4200662991107	n/a	830	71	2750	2874.4200663	stim	stop-signal	220	649946	0.0-13.9-1.9	beast_fmri_test	273	647308,/,647990,/,648668,/,649347,/,650028,/,650706,/,651387,/,652065,/,652746,/	t,t,t,t,t,t,t,t,t	<img class = center src='/static/experiments/beast_fmri_test/images/T.png'></img>	89,71	2750.0	test	<img class = center src='/static/experiments/beast_fmri_test/images/redT.png'></img>	go	2050.0	2.0	9.0	go	non-target	T	89,Middle Finger	71,Index Finger	400.0	700.0	2350.0	2050.0	1.0	n/a	700.0	1.0	ITI
56333	500	n/a	-1	-1	500	0.0	fixation	poldrack-single-stim	221	653346	0.0-13.10-0.10	beast_fmri_test	273	n/a	n/a	<div class = centerbox2><div class = fixation>+</div></div>	none	500.0	test	n/a	n/a	n/a	n/a	n/a	n/a	n/a	n/a	n/a	n/a	n/a	n/a	n/a	n/a	n/a	n/a	n/a	n/a	fixation
53322.22512760025	700.0	n/a	679	71	2750	3012.7748724	stim	stop-signal	222	656098	0.0-13.10-1.10	beast_fmri_test	273	653425,/,654105,/,654785,/,655465,/,656143,/,656823,/,657503,/,658184,/,658864,/	t,t,t,t,t,t,t,t,t	<img class = center src='/static/experiments/beast_fmri_test/images/T.png'></img>	89,71	2750.0	test	<img class = center src='/static/experiments/beast_fmri_test/images/redT.png'></img>	stop	2050.0	2.0	10.0	stop	non-target	T	89,Middle Finger	71,Index Finger	400.0	700.0	2350.0	2050.0	0.0	0.0	700.0	n/a	go_stim
55372.22512760025	2050.0	n/a	679	71	2750	3012.7748724	stim	stop-signal	222	656098	0.0-13.10-1.10	beast_fmri_test	273	653425,/,654105,/,654785,/,655465,/,656143,/,656823,/,657503,/,658184,/,658864,/	t,t,t,t,t,t,t,t,t	<img class = center src='/static/experiments/beast_fmri_test/images/T.png'></img>	89,71	2750.0	test	<img class = center src='/static/experiments/beast_fmri_test/images/redT.png'></img>	stop	2050.0	2.0	10.0	stop	non-target	T	89,Middle Finger	71,Index Finger	400.0	700.0	2350.0	2050.0	0.0	0.0	700.0	n/a	stop_stim
56072.22512760025	3012.7748723997761	n/a	679	71	2750	3012.7748724	stim	stop-signal	222	656098	0.0-13.10-1.10	beast_fmri_test	273	653425,/,654105,/,654785,/,655465,/,656143,/,656823,/,657503,/,658184,/,658864,/	t,t,t,t,t,t,t,t,t	<img class = center src='/static/experiments/beast_fmri_test/images/T.png'></img>	89,71	2750.0	test	<img class = center src='/static/experiments/beast_fmri_test/images/redT.png'></img>	stop	2050.0	2.0	10.0	stop	non-target	T	89,Middle Finger	71,Index Finger	400.0	700.0	2350.0	2050.0	0.0	0.0	700.0	n/a	ITI
62625	500	n/a	-1	-1	500	0.0	fixation	poldrack-single-stim	223	659638	0.0-13.11-0.11	beast_fmri_test	273	659543,/	t	<div class = centerbox2><div class = fixation>+</div></div>	none	500.0	test	n/a	n/a	n/a	n/a	n/a	n/a	n/a	n/a	n/a	n/a	n/a	n/a	n/a	n/a	n/a	n/a	n/a	n/a	fixation
61161.196863452671	2750	n/a	927	71	2750	1464.80313655	stim	stop-signal	224	662389	0.0-13.11-1.11	beast_fmri_test	273	660222,/,660902,/,661580,/,662260,/,662941,/,663621,/	t,t,t,t,t,t	<img class = center src='/static/experiments/beast_fmri_test/images/D.png'></img>	89,71	2750.0	test	<img class = center src='/static/experiments/beast_fmri_test/images/redD.png'></img>	go	2100.0	2.0	11.0	go	non-target	D	89,Middle Finger	71,Index Finger	400.0	650.0	2350.0	2100.0	1.0	n/a	650.0	1.0	go_stim
63911.196863452671	1464.8031365473721	n/a	927	71	2750	1464.80313655	stim	stop-signal	224	662389	0.0-13.11-1.11	beast_fmri_test	273	660222,/,660902,/,661580,/,662260,/,662941,/,663621,/	t,t,t,t,t,t	<img class = center src='/static/experiments/beast_fmri_test/images/D.png'></img>	89,71	2750.0	test	<img class = center src='/static/experiments/beast_fmri_test/images/redD.png'></img>	go	2100.0	2.0	11.0	go	non-target	D	89,Middle Finger	71,Index Finger	400.0	650.0	2350.0	2100.0	1.0	n/a	650.0	1.0	ITI
67367	500	n/a	-1	-1	500	0.0	fixation	poldrack-single-stim	225	664380	0.0-13.12-0.12	beast_fmri_test	273	664299,/	t	<div class = centerbox2><div class = fixation>+</div></div>	none	500.0	test	n/a	n/a	n/a	n/a	n/a	n/a	n/a	n/a	n/a	n/a	n/a	n/a	n/a	n/a	n/a	n/a	n/a	n/a	fixation
67227.461044617346	650.0	n/a	-1	-1	2750	140.538955383	stim	stop-signal	226	667131	0.0-13.12-1.12	beast_fmri_test	273	664980,/,665659,/,666339,/,667019,/	t,t,t,t	<img class = center src='/static/experiments/beast_fmri_test/images/V.png'></img>	89,71	2750.0	test	<img class = center src='/static/experiments/beast_fmri_test/images/redV.png'></img>	stop	2100.0	2.0	12.0	stop	non-target	V	89,Middle Finger	71,Index Finger	400.0	650.0	2350.0	2100.0	0.0	1.0	650.0	n/a	go_stim
69327.461044617346	2100.0	n/a	-1	-1	2750	140.538955383	stim	stop-signal	226	667131	0.0-13.12-1.12	beast_fmri_test	273	664980,/,665659,/,666339,/,667019,/	t,t,t,t	<img class = center src='/static/experiments/beast_fmri_test/images/V.png'></img>	89,71	2750.0	test	<img class = center src='/static/experiments/beast_fmri_test/images/redV.png'></img>	stop	2100.0	2.0	12.0	stop	non-target	V	89,Middle Finger	71,Index Finger	400.0	650.0	2350.0	2100.0	0.0	1.0	650.0	n/a	stop_stim
69977.461044617346	140.53895538266812	n/a	-1	-1	2750	140.538955383	stim	stop-signal	226	667131	0.0-13.12-1.12	beast_fmri_test	273	664980,/,665659,/,666339,/,667019,/	t,t,t,t	<img class = center src='/static/experiments/beast_fmri_test/images/V.png'></img>	89,71	2750.0	test	<img class = center src='/static/experiments/beast_fmri_test/images/redV.png'></img>	stop	2100.0	2.0	12.0	stop	non-target	V	89,Middle Finger	71,Index Finger	400.0	650.0	2350.0	2100.0	0.0	1.0	650.0	n/a	ITI
70784	500	n/a	-1	-1	500	0.0	fixation	poldrack-single-stim	227	667797	0.0-13.13-0.13	beast_fmri_test	273	667699,/	t	<div class = centerbox2><div class = fixation>+</div></div>	none	500.0	test	n/a	n/a	n/a	n/a	n/a	n/a	n/a	n/a	n/a	n/a	n/a	n/a	n/a	n/a	n/a	n/a	n/a	n/a	fixation
70186.228886477416	2750	n/a	1698	71	2750	598.771113523	stim	stop-signal	228	670548	0.0-13.13-1.13	beast_fmri_test	273	668377,/,669057,/,669737,/,670416,/,671096,/	t,t,t,t,t	<img class = center src='/static/experiments/beast_fmri_test/images/T.png'></img>	89,71	2750.0	test	<img class = center src='/static/experiments/beast_fmri_test/images/redT.png'></img>	go	2050.0	2.0	13.0	go	non-target	T	89,Middle Finger	71,Index Finger	400.0	700.0	2350.0	2050.0	1.0	n/a	700.0	1.0	go_stim
72936.228886477416	598.77111352255827	n/a	1698	71	2750	598.771113523	stim	stop-signal	228	670548	0.0-13.13-1.13	beast_fmri_test	273	668377,/,669057,/,669737,/,670416,/,671096,/	t,t,t,t,t	<img class = center src='/static/experiments/beast_fmri_test/images/T.png'></img>	89,71	2750.0	test	<img class = center src='/static/experiments/beast_fmri_test/images/redT.png'></img>	go	2050.0	2.0	13.0	go	non-target	T	89,Middle Finger	71,Index Finger	400.0	700.0	2350.0	2050.0	1.0	n/a	700.0	1.0	ITI
74662	500	n/a	-1	-1	500	0.0	fixation	poldrack-single-stim	229	671675	0.0-13.14-0.14	beast_fmri_test	273	n/a	n/a	<div class = centerbox2><div class = fixation>+</div></div>	none	500.0	test	n/a	n/a	n/a	n/a	n/a	n/a	n/a	n/a	n/a	n/a	n/a	n/a	n/a	n/a	n/a	n/a	n/a	n/a	fixation
71737.17096725048	700.0	n/a	-1	-1	2750	2924.82903275	stim	stop-signal	230	674425	0.0-13.14-1.14	beast_fmri_test	273	671777,/,672457,/,673137,/,673816,/,674496,/,675174,/,675855,/,676534,/,677215,/	t,t,t,t,t,t,t,t,t	<img class = center src='/static/experiments/beast_fmri_test/images/P.png'></img>	89,71	2750.0	test	<img class = center src='/static/experiments/beast_fmri_test/images/redP.png'></img>	stop	2050.0	2.0	14.0	stop	non-target	P	89,Middle Finger	71,Index Finger	400.0	700.0	2350.0	2050.0	0.0	1.0	700.0	n/a	go_stim
73787.17096725048	2050.0	n/a	-1	-1	2750	2924.82903275	stim	stop-signal	230	674425	0.0-13.14-1.14	beast_fmri_test	273	671777,/,672457,/,673137,/,673816,/,674496,/,675174,/,675855,/,676534,/,677215,/	t,t,t,t,t,t,t,t,t	<img class = center src='/static/experiments/beast_fmri_test/images/P.png'></img>	89,71	2750.0	test	<img class = center src='/static/experiments/beast_fmri_test/images/redP.png'></img>	stop	2050.0	2.0	14.0	stop	non-target	P	89,Middle Finger	71,Index Finger	400.0	700.0	2350.0	2050.0	0.0	1.0	700.0	n/a	stop_stim
74487.17096725048	2924.8290327495542	n/a	-1	-1	2750	2924.82903275	stim	stop-signal	230	674425	0.0-13.14-1.14	beast_fmri_test	273	671777,/,672457,/,673137,/,673816,/,674496,/,675174,/,675855,/,676534,/,677215,/	t,t,t,t,t,t,t,t,t	<img class = center src='/static/experiments/beast_fmri_test/images/P.png'></img>	89,71	2750.0	test	<img class = center src='/static/experiments/beast_fmri_test/images/redP.png'></img>	stop	2050.0	2.0	14.0	stop	non-target	P	89,Middle Finger	71,Index Finger	400.0	700.0	2350.0	2050.0	0.0	1.0	700.0	n/a	ITI
80864	500	n/a	-1	-1	500	0.0	fixation	poldrack-single-stim	231	677877	0.0-13.15-0.15	beast_fmri_test	273	n/a	n/a	<div class = centerbox2><div class = fixation>+</div></div>	none	500.0	test	n/a	n/a	n/a	n/a	n/a	n/a	n/a	n/a	n/a	n/a	n/a	n/a	n/a	n/a	n/a	n/a	n/a	n/a	fixation
80357.155779175111	2750	n/a	871	71	2750	508.844220825	stim	stop-signal	232	680629	0.0-13.15-1.15	beast_fmri_test	273	677894,/,678574,/,679253,/,679934,/,680613,/	t,t,t,t,t	<img class = center src='/static/experiments/beast_fmri_test/images/P.png'></img>	89,71	2750.0	test	<img class = center src='/static/experiments/beast_fmri_test/images/redP.png'></img>	go	2000.0	2.0	15.0	go	non-target	P	89,Middle Finger	71,Index Finger	400.0	750.0	2350.0	2000.0	1.0	n/a	750.0	1.0	go_stim
83107.155779175111	508.84422082484087	n/a	871	71	2750	508.844220825	stim	stop-signal	232	680629	0.0-13.15-1.15	beast_fmri_test	273	677894,/,678574,/,679253,/,679934,/,680613,/	t,t,t,t,t	<img class = center src='/static/experiments/beast_fmri_test/images/P.png'></img>	89,71	2750.0	test	<img class = center src='/static/experiments/beast_fmri_test/images/redP.png'></img>	go	2000.0	2.0	15.0	go	non-target	P	89,Middle Finger	71,Index Finger	400.0	750.0	2350.0	2000.0	1.0	n/a	750.0	1.0	ITI
84653	500	n/a	-1	-1	500	0.0	fixation	poldrack-single-stim	233	681666	0.0-13.16-0.16	beast_fmri_test	273	681293,/	t	<div class = centerbox2><div class = fixation>+</div></div>	none	500.0	test	n/a	n/a	n/a	n/a	n/a	n/a	n/a	n/a	n/a	n/a	n/a	n/a	n/a	n/a	n/a	n/a	n/a	n/a	fixation
84636.270426557167	2750	n/a	559	71	2750	18.7295734428	stim	stop-signal	234	684418	0.0-13.16-1.16	beast_fmri_test	273	681973,/,682652,/,683332,/,684010,/	t,t,t,t	<img class = center src='/static/experiments/beast_fmri_test/images/D.png'></img>	89,71	2750.0	test	<img class = center src='/static/experiments/beast_fmri_test/images/redD.png'></img>	go	2000.0	2.0	16.0	go	non-target	D	89,Middle Finger	71,Index Finger	400.0	750.0	2350.0	2000.0	1.0	n/a	750.0	1.0	go_stim
87386.270426557167	18.729573442844238	n/a	559	71	2750	18.7295734428	stim	stop-signal	234	684418	0.0-13.16-1.16	beast_fmri_test	273	681973,/,682652,/,683332,/,684010,/	t,t,t,t	<img class = center src='/static/experiments/beast_fmri_test/images/D.png'></img>	89,71	2750.0	test	<img class = center src='/static/experiments/beast_fmri_test/images/redD.png'></img>	go	2000.0	2.0	16.0	go	non-target	D	89,Middle Finger	71,Index Finger	400.0	750.0	2350.0	2000.0	1.0	n/a	750.0	1.0	ITI
87952	500	n/a	-1	-1	500	0.0	fixation	poldrack-single-stim	235	684965	0.0-13.17-0.17	beast_fmri_test	273	684691,/	t	<div class = centerbox2><div class = fixation>+</div></div>	none	500.0	test	n/a	n/a	n/a	n/a	n/a	n/a	n/a	n/a	n/a	n/a	n/a	n/a	n/a	n/a	n/a	n/a	n/a	n/a	fixation
87383.472063560388	2750	n/a	1192	71	2750	571.52793644	stim	stop-signal	236	687718	0.0-13.17-1.17	beast_fmri_test	273	685371,/,686051,/,686729,/,687409,/,688089,/	t,t,t,t,t	<img class = center src='/static/experiments/beast_fmri_test/images/D.png'></img>	89,71	2750.0	test	<img class = center src='/static/experiments/beast_fmri_test/images/redD.png'></img>	go	2000.0	2.0	17.0	go	non-target	D	89,Middle Finger	71,Index Finger	400.0	750.0	2350.0	2000.0	1.0	n/a	750.0	1.0	go_stim
90133.472063560388	571.52793643959978	n/a	1192	71	2750	571.52793644	stim	stop-signal	236	687718	0.0-13.17-1.17	beast_fmri_test	273	685371,/,686051,/,686729,/,687409,/,688089,/	t,t,t,t,t	<img class = center src='/static/experiments/beast_fmri_test/images/D.png'></img>	89,71	2750.0	test	<img class = center src='/static/experiments/beast_fmri_test/images/redD.png'></img>	go	2000.0	2.0	17.0	go	non-target	D	89,Middle Finger	71,Index Finger	400.0	750.0	2350.0	2000.0	1.0	n/a	750.0	1.0	ITI
91804	500	n/a	-1	-1	500	0.0	fixation	poldrack-single-stim	237	688817	0.0-13.18-0.18	beast_fmri_test	273	688769,/	t	<div class = centerbox2><div class = fixation>+</div></div>	none	500.0	test	n/a	n/a	n/a	n/a	n/a	n/a	n/a	n/a	n/a	n/a	n/a	n/a	n/a	n/a	n/a	n/a	n/a	n/a	fixation
91352.274140496622	750.0	n/a	-1	-1	2750	453.725859503	stim	stop-signal	238	691569	0.0-13.18-1.18	beast_fmri_test	273	689447,/,690129,/,690808,/,691489,/	t,t,t,t	<img class = center src='/static/experiments/beast_fmri_test/images/T.png'></img>	89,71	2750.0	test	<img class = center src='/static/experiments/beast_fmri_test/images/redT.png'></img>	stop	2000.0	2.0	18.0	stop	non-target	T	89,Middle Finger	71,Index Finger	400.0	750.0	2350.0	2000.0	0.0	1.0	750.0	n/a	go_stim
93352.274140496622	2000.0	n/a	-1	-1	2750	453.725859503	stim	stop-signal	238	691569	0.0-13.18-1.18	beast_fmri_test	273	689447,/,690129,/,690808,/,691489,/	t,t,t,t	<img class = center src='/static/experiments/beast_fmri_test/images/T.png'></img>	89,71	2750.0	test	<img class = center src='/static/experiments/beast_fmri_test/images/redT.png'></img>	stop	2000.0	2.0	18.0	stop	non-target	T	89,Middle Finger	71,Index Finger	400.0	750.0	2350.0	2000.0	0.0	1.0	750.0	n/a	stop_stim
94102.274140496622	453.72585950332194	n/a	-1	-1	2750	453.725859503	stim	stop-signal	238	691569	0.0-13.18-1.18	beast_fmri_test	273	689447,/,690129,/,690808,/,691489,/	t,t,t,t	<img class = center src='/static/experiments/beast_fmri_test/images/T.png'></img>	89,71	2750.0	test	<img class = center src='/static/experiments/beast_fmri_test/images/redT.png'></img>	stop	2000.0	2.0	18.0	stop	non-target	T	89,Middle Finger	71,Index Finger	400.0	750.0	2350.0	2000.0	0.0	1.0	750.0	n/a	ITI
95540	500	n/a	-1	-1	500	0.0	fixation	poldrack-single-stim	239	692553	0.0-13.19-0.19	beast_fmri_test	273	692167,/	t	<div class = centerbox2><div class = fixation>+</div></div>	none	500.0	test	n/a	n/a	n/a	n/a	n/a	n/a	n/a	n/a	n/a	n/a	n/a	n/a	n/a	n/a	n/a	n/a	n/a	n/a	fixation
95361.091830069316	2750	n/a	1149	71	2750	179.908169931	stim	stop-signal	240	695304	0.0-13.19-1.19	beast_fmri_test	273	692848,/,693527,/,694206,/,694886,/	t,t,t,t	<img class = center src='/static/experiments/beast_fmri_test/images/D.png'></img>	89,71	2750.0	test	<img class = center src='/static/experiments/beast_fmri_test/images/redD.png'></img>	go	2350.0	2.0	19.0	go	target	D	89,Middle Finger	71,Index Finger	400.0	800.0	2350.0	2000.0	0.0	n/a	400.0	0.0	go_stim
98111.091830069316	179.90816993066795	n/a	1149	71	2750	179.908169931	stim	stop-signal	240	695304	0.0-13.19-1.19	beast_fmri_test	273	692848,/,693527,/,694206,/,694886,/	t,t,t,t	<img class = center src='/static/experiments/beast_fmri_test/images/D.png'></img>	89,71	2750.0	test	<img class = center src='/static/experiments/beast_fmri_test/images/redD.png'></img>	go	2350.0	2.0	19.0	go	target	D	89,Middle Finger	71,Index Finger	400.0	800.0	2350.0	2000.0	0.0	n/a	400.0	0.0	ITI
99000	500	n/a	-1	-1	500	0.0	fixation	poldrack-single-stim	241	696013	0.0-13.20-0.20	beast_fmri_test	273	695566,/	t	<div class = centerbox2><div class = fixation>+</div></div>	none	500.0	test	n/a	n/a	n/a	n/a	n/a	n/a	n/a	n/a	n/a	n/a	n/a	n/a	n/a	n/a	n/a	n/a	n/a	n/a	fixation
98081.621508564334	2750	n/a	1474	89	2750	920.378491436	stim	stop-signal	242	698765	0.0-13.20-1.20	beast_fmri_test	273	696246,/,696926,/,697605,/,698284,/,698971,/,699643,/	t,t,t,t,t,t	<img class = center src='/static/experiments/beast_fmri_test/images/T.png'></img>	89,71	2750.0	test	<img class = center src='/static/experiments/beast_fmri_test/images/redT.png'></img>	go	2350.0	2.0	20.0	go	target	T	89,Middle Finger	71,Index Finger	400.0	800.0	2350.0	2000.0	1.0	n/a	400.0	1.0	go_stim
100831.62150856433	920.37849143562437	n/a	1474	89	2750	920.378491436	stim	stop-signal	242	698765	0.0-13.20-1.20	beast_fmri_test	273	696246,/,696926,/,697605,/,698284,/,698971,/,699643,/	t,t,t,t,t,t	<img class = center src='/static/experiments/beast_fmri_test/images/T.png'></img>	89,71	2750.0	test	<img class = center src='/static/experiments/beast_fmri_test/images/redT.png'></img>	go	2350.0	2.0	20.0	go	target	T	89,Middle Finger	71,Index Finger	400.0	800.0	2350.0	2000.0	1.0	n/a	400.0	1.0	ITI
103201	500	n/a	-1	-1	500	0.0	fixation	poldrack-single-stim	243	700214	0.0-13.21-0.21	beast_fmri_test	273	n/a	n/a	<div class = centerbox2><div class = fixation>+</div></div>	none	500.0	test	n/a	n/a	n/a	n/a	n/a	n/a	n/a	n/a	n/a	n/a	n/a	n/a	n/a	n/a	n/a	n/a	n/a	n/a	fixation
99315.254164110171	2750	n/a	790	71	2750	3886.74583589	stim	stop-signal	244	702965	0.0-13.21-1.21	beast_fmri_test	273	700323,/,701004,/,701684,/,702363,/,703042,/,703723,/,704402,/,705081,/,705761,/,706441,/	t,t,t,t,t,t,t,t,t,t	<img class = center src='/static/experiments/beast_fmri_test/images/B.png'></img>	89,71	2750.0	test	<img class = center src='/static/experiments/beast_fmri_test/images/redB.png'></img>	go	1950.0	2.0	21.0	go	non-target	B	89,Middle Finger	71,Index Finger	400.0	800.0	2350.0	1950.0	1.0	n/a	800.0	1.0	go_stim
102065.25416411017	3886.7458358898457	n/a	790	71	2750	3886.74583589	stim	stop-signal	244	702965	0.0-13.21-1.21	beast_fmri_test	273	700323,/,701004,/,701684,/,702363,/,703042,/,703723,/,704402,/,705081,/,705761,/,706441,/	t,t,t,t,t,t,t,t,t,t	<img class = center src='/static/experiments/beast_fmri_test/images/B.png'></img>	89,71	2750.0	test	<img class = center src='/static/experiments/beast_fmri_test/images/redB.png'></img>	go	1950.0	2.0	21.0	go	non-target	B	89,Middle Finger	71,Index Finger	400.0	800.0	2350.0	1950.0	1.0	n/a	800.0	1.0	ITI
110366	500	n/a	-1	-1	500	0.0	fixation	poldrack-single-stim	245	707379	0.0-13.22-0.22	beast_fmri_test	273	707121,/	t	<div class = centerbox2><div class = fixation>+</div></div>	none	500.0	test	n/a	n/a	n/a	n/a	n/a	n/a	n/a	n/a	n/a	n/a	n/a	n/a	n/a	n/a	n/a	n/a	n/a	n/a	fixation
110309.93541300867	2750	n/a	595	89	2750	58.0645869913	stim	stop-signal	246	710131	0.0-13.22-1.22	beast_fmri_test	273	707800,/,708480,/,709160,/,709840,/	t,t,t,t	<img class = center src='/static/experiments/beast_fmri_test/images/T.png'></img>	89,71	2750.0	test	<img class = center src='/static/experiments/beast_fmri_test/images/redT.png'></img>	go	2350.0	2.0	22.0	go	target	T	89,Middle Finger	71,Index Finger	400.0	800.0	2350.0	1950.0	1.0	n/a	400.0	1.0	go_stim
113059.93541300867	58.06458699132309	n/a	595	89	2750	58.0645869913	stim	stop-signal	246	710131	0.0-13.22-1.22	beast_fmri_test	273	707800,/,708480,/,709160,/,709840,/	t,t,t,t	<img class = center src='/static/experiments/beast_fmri_test/images/T.png'></img>	89,71	2750.0	test	<img class = center src='/static/experiments/beast_fmri_test/images/redT.png'></img>	go	2350.0	2.0	22.0	go	target	T	89,Middle Finger	71,Index Finger	400.0	800.0	2350.0	1950.0	1.0	n/a	400.0	1.0	ITI
113705	500	n/a	-1	-1	500	0.0	fixation	poldrack-single-stim	247	710718	0.0-13.23-0.23	beast_fmri_test	273	710519,/	t	<div class = centerbox2><div class = fixation>+</div></div>	none	500.0	test	n/a	n/a	n/a	n/a	n/a	n/a	n/a	n/a	n/a	n/a	n/a	n/a	n/a	n/a	n/a	n/a	n/a	n/a	fixation
113603.75450956228	400.0	n/a	457	89	2750	103.245490438	stim	stop-signal	248	713470	0.0-13.23-1.23	beast_fmri_test	273	711198,/,711879,/,712558,/,713237,/	t,t,t,t	<img class = center src='/static/experiments/beast_fmri_test/images/B.png'></img>	89,71	2750.0	test	<img class = center src='/static/experiments/beast_fmri_test/images/redB.png'></img>	stop	2350.0	2.0	23.0	stop	target	B	89,Middle Finger	71,Index Finger	400.0	800.0	2350.0	1950.0	0.0	0.0	400.0	n/a	go_stim
115953.75450956228	2350.0	n/a	457	89	2750	103.245490438	stim	stop-signal	248	713470	0.0-13.23-1.23	beast_fmri_test	273	711198,/,711879,/,712558,/,713237,/	t,t,t,t	<img class = center src='/static/experiments/beast_fmri_test/images/B.png'></img>	89,71	2750.0	test	<img class = center src='/static/experiments/beast_fmri_test/images/redB.png'></img>	stop	2350.0	2.0	23.0	stop	target	B	89,Middle Finger	71,Index Finger	400.0	800.0	2350.0	1950.0	0.0	0.0	400.0	n/a	stop_stim
116353.75450956228	103.24549043773322	n/a	457	89	2750	103.245490438	stim	stop-signal	248	713470	0.0-13.23-1.23	beast_fmri_test	273	711198,/,711879,/,712558,/,713237,/	t,t,t,t	<img class = center src='/static/experiments/beast_fmri_test/images/B.png'></img>	89,71	2750.0	test	<img class = center src='/static/experiments/beast_fmri_test/images/redB.png'></img>	stop	2350.0	2.0	23.0	stop	target	B	89,Middle Finger	71,Index Finger	400.0	800.0	2350.0	1950.0	0.0	0.0	400.0	n/a	ITI
117090	500	n/a	-1	-1	500	0.0	fixation	poldrack-single-stim	249	714103	0.0-13.24-0.24	beast_fmri_test	273	713918,/	t	<div class = centerbox2><div class = fixation>+</div></div>	none	500.0	test	n/a	n/a	n/a	n/a	n/a	n/a	n/a	n/a	n/a	n/a	n/a	n/a	n/a	n/a	n/a	n/a	n/a	n/a	fixation
116473.03907389939	350.0	n/a	588	89	2750	617.960926101	stim	stop-signal	250	716854	0.0-13.24-1.24	beast_fmri_test	273	714596,/,715276,/,715958,/,716635,/,717316,/	t,t,t,t,t	<img class = center src='/static/experiments/beast_fmri_test/images/T.png'></img>	89,71	2750.0	test	<img class = center src='/static/experiments/beast_fmri_test/images/redT.png'></img>	stop	2400.0	2.0	24.0	stop	target	T	89,Middle Finger	71,Index Finger	350.0	800.0	2400.0	1950.0	0.0	0.0	350.0	n/a	go_stim
118873.03907389939	2400.0	n/a	588	89	2750	617.960926101	stim	stop-signal	250	716854	0.0-13.24-1.24	beast_fmri_test	273	714596,/,715276,/,715958,/,716635,/,717316,/	t,t,t,t,t	<img class = center src='/static/experiments/beast_fmri_test/images/T.png'></img>	89,71	2750.0	test	<img class = center src='/static/experiments/beast_fmri_test/images/redT.png'></img>	stop	2400.0	2.0	24.0	stop	target	T	89,Middle Finger	71,Index Finger	350.0	800.0	2400.0	1950.0	0.0	0.0	350.0	n/a	stop_stim
119223.03907389939	617.9609261005578	n/a	588	89	2750	617.960926101	stim	stop-signal	250	716854	0.0-13.24-1.24	beast_fmri_test	273	714596,/,715276,/,715958,/,716635,/,717316,/	t,t,t,t,t	<img class = center src='/static/experiments/beast_fmri_test/images/T.png'></img>	89,71	2750.0	test	<img class = center src='/static/experiments/beast_fmri_test/images/redT.png'></img>	stop	2400.0	2.0	24.0	stop	target	T	89,Middle Finger	71,Index Finger	350.0	800.0	2400.0	1950.0	0.0	0.0	350.0	n/a	ITI
120991	500	n/a	-1	-1	500	0.0	fixation	poldrack-single-stim	251	718004	0.0-13.25-0.25	beast_fmri_test	273	717995,/	t	<div class = centerbox2><div class = fixation>+</div></div>	none	500.0	test	n/a	n/a	n/a	n/a	n/a	n/a	n/a	n/a	n/a	n/a	n/a	n/a	n/a	n/a	n/a	n/a	n/a	n/a	fixation
120986.76370079245	300.0	n/a	-1	-1	2750	5.23629920754	stim	stop-signal	252	720755	0.0-13.25-1.25	beast_fmri_test	273	718675,/,719355,/,720035,/,720713,/	t,t,t,t	<img class = center src='/static/experiments/beast_fmri_test/images/B.png'></img>	89,71	2750.0	test	<img class = center src='/static/experiments/beast_fmri_test/images/redB.png'></img>	stop	2450.0	2.0	25.0	stop	target	B	89,Middle Finger	71,Index Finger	300.0	800.0	2450.0	1950.0	0.0	1.0	300.0	n/a	go_stim
123436.76370079245	2450.0	n/a	-1	-1	2750	5.23629920754	stim	stop-signal	252	720755	0.0-13.25-1.25	beast_fmri_test	273	718675,/,719355,/,720035,/,720713,/	t,t,t,t	<img class = center src='/static/experiments/beast_fmri_test/images/B.png'></img>	89,71	2750.0	test	<img class = center src='/static/experiments/beast_fmri_test/images/redB.png'></img>	stop	2450.0	2.0	25.0	stop	target	B	89,Middle Finger	71,Index Finger	300.0	800.0	2450.0	1950.0	0.0	1.0	300.0	n/a	stop_stim
123736.76370079245	5.2362992075425705	n/a	-1	-1	2750	5.23629920754	stim	stop-signal	252	720755	0.0-13.25-1.25	beast_fmri_test	273	718675,/,719355,/,720035,/,720713,/	t,t,t,t	<img class = center src='/static/experiments/beast_fmri_test/images/B.png'></img>	89,71	2750.0	test	<img class = center src='/static/experiments/beast_fmri_test/images/redB.png'></img>	stop	2450.0	2.0	25.0	stop	target	B	89,Middle Finger	71,Index Finger	300.0	800.0	2450.0	1950.0	0.0	1.0	300.0	n/a	ITI
124277	500	n/a	-1	-1	500	0.0	fixation	poldrack-single-stim	253	721290	0.0-13.26-0.26	beast_fmri_test	273	n/a	n/a	<div class = centerbox2><div class = fixation>+</div></div>	none	500.0	test	n/a	n/a	n/a	n/a	n/a	n/a	n/a	n/a	n/a	n/a	n/a	n/a	n/a	n/a	n/a	n/a	n/a	n/a	fixation
124204.63948912208	800.0	n/a	-1	-1	2750	74.3605108779	stim	stop-signal	254	724042	0.0-13.26-1.26	beast_fmri_test	273	721394,/,722074,/,722753,/,723433,/,724112,/	t,t,t,t,t	<img class = center src='/static/experiments/beast_fmri_test/images/B.png'></img>	89,71	2750.0	test	<img class = center src='/static/experiments/beast_fmri_test/images/redB.png'></img>	stop	1950.0	2.0	26.0	stop	non-target	B	89,Middle Finger	71,Index Finger	350.0	800.0	2450.0	1950.0	0.0	1.0	800.0	n/a	go_stim
126154.63948912208	1950.0	n/a	-1	-1	2750	74.3605108779	stim	stop-signal	254	724042	0.0-13.26-1.26	beast_fmri_test	273	721394,/,722074,/,722753,/,723433,/,724112,/	t,t,t,t,t	<img class = center src='/static/experiments/beast_fmri_test/images/B.png'></img>	89,71	2750.0	test	<img class = center src='/static/experiments/beast_fmri_test/images/redB.png'></img>	stop	1950.0	2.0	26.0	stop	non-target	B	89,Middle Finger	71,Index Finger	350.0	800.0	2450.0	1950.0	0.0	1.0	800.0	n/a	stop_stim
126954.63948912208	74.360510877909519	n/a	-1	-1	2750	74.3605108779	stim	stop-signal	254	724042	0.0-13.26-1.26	beast_fmri_test	273	721394,/,722074,/,722753,/,723433,/,724112,/	t,t,t,t,t	<img class = center src='/static/experiments/beast_fmri_test/images/B.png'></img>	89,71	2750.0	test	<img class = center src='/static/experiments/beast_fmri_test/images/redB.png'></img>	stop	1950.0	2.0	26.0	stop	non-target	B	89,Middle Finger	71,Index Finger	350.0	800.0	2450.0	1950.0	0.0	1.0	800.0	n/a	ITI
127635	500	n/a	-1	-1	500	0.0	fixation	poldrack-single-stim	255	724648	0.0-13.27-0.27	beast_fmri_test	273	n/a	n/a	<div class = centerbox2><div class = fixation>+</div></div>	none	500.0	test	n/a	n/a	n/a	n/a	n/a	n/a	n/a	n/a	n/a	n/a	n/a	n/a	n/a	n/a	n/a	n/a	n/a	n/a	fixation
126778.61528970639	850.0	n/a	-1	-1	2750	858.384710294	stim	stop-signal	256	727400	0.0-13.27-1.27	beast_fmri_test	273	724793,/,725471,/,726152,/,726830,/,727511,/,728190,/	t,t,t,t,t,t	<img class = center src='/static/experiments/beast_fmri_test/images/T.png'></img>	89,71	2750.0	test	<img class = center src='/static/experiments/beast_fmri_test/images/redT.png'></img>	stop	1900.0	2.0	27.0	stop	non-target	T	89,Middle Finger	71,Index Finger	350.0	850.0	2450.0	1900.0	0.0	1.0	850.0	n/a	go_stim
128678.61528970639	1900.0	n/a	-1	-1	2750	858.384710294	stim	stop-signal	256	727400	0.0-13.27-1.27	beast_fmri_test	273	724793,/,725471,/,726152,/,726830,/,727511,/,728190,/	t,t,t,t,t,t	<img class = center src='/static/experiments/beast_fmri_test/images/T.png'></img>	89,71	2750.0	test	<img class = center src='/static/experiments/beast_fmri_test/images/redT.png'></img>	stop	1900.0	2.0	27.0	stop	non-target	T	89,Middle Finger	71,Index Finger	350.0	850.0	2450.0	1900.0	0.0	1.0	850.0	n/a	stop_stim
129528.61528970639	858.38471029360721	n/a	-1	-1	2750	858.384710294	stim	stop-signal	256	727400	0.0-13.27-1.27	beast_fmri_test	273	724793,/,725471,/,726152,/,726830,/,727511,/,728190,/	t,t,t,t,t,t	<img class = center src='/static/experiments/beast_fmri_test/images/T.png'></img>	89,71	2750.0	test	<img class = center src='/static/experiments/beast_fmri_test/images/redT.png'></img>	stop	1900.0	2.0	27.0	stop	non-target	T	89,Middle Finger	71,Index Finger	350.0	850.0	2450.0	1900.0	0.0	1.0	850.0	n/a	ITI
131777	500	n/a	-1	-1	500	0.0	fixation	poldrack-single-stim	257	728790	0.0-13.28-0.28	beast_fmri_test	273	n/a	n/a	<div class = centerbox2><div class = fixation>+</div></div>	none	500.0	test	n/a	n/a	n/a	n/a	n/a	n/a	n/a	n/a	n/a	n/a	n/a	n/a	n/a	n/a	n/a	n/a	n/a	n/a	fixation
130008.13895105198	2750	n/a	850	89	2750	1770.86104895	stim	stop-signal	258	731542	0.0-13.28-1.28	beast_fmri_test	273	728870,/,729550,/,730228,/,730910,/,731588,/,732269,/,732948,/	t,t,t,t,t,t,t	<img class = center src='/static/experiments/beast_fmri_test/images/B.png'></img>	89,71	2750.0	test	<img class = center src='/static/experiments/beast_fmri_test/images/redB.png'></img>	go	2400.0	2.0	28.0	go	target	B	89,Middle Finger	71,Index Finger	350.0	900.0	2400.0	1900.0	1.0	n/a	350.0	1.0	go_stim
132758.13895105198	1770.8610489480366	n/a	850	89	2750	1770.86104895	stim	stop-signal	258	731542	0.0-13.28-1.28	beast_fmri_test	273	728870,/,729550,/,730228,/,730910,/,731588,/,732269,/,732948,/	t,t,t,t,t,t,t	<img class = center src='/static/experiments/beast_fmri_test/images/B.png'></img>	89,71	2750.0	test	<img class = center src='/static/experiments/beast_fmri_test/images/redB.png'></img>	go	2400.0	2.0	28.0	go	target	B	89,Middle Finger	71,Index Finger	350.0	900.0	2400.0	1900.0	1.0	n/a	350.0	1.0	ITI
136829	500	n/a	-1	-1	500	0.0	fixation	poldrack-single-stim	259	733842	0.0-13.29-0.29	beast_fmri_test	273	733628,/	t	<div class = centerbox2><div class = fixation>+</div></div>	none	500.0	test	n/a	n/a	n/a	n/a	n/a	n/a	n/a	n/a	n/a	n/a	n/a	n/a	n/a	n/a	n/a	n/a	n/a	n/a	fixation
136107.38411983219	350.0	n/a	-1	-1	2750	723.615880168	stim	stop-signal	260	736594	0.0-13.29-1.29	beast_fmri_test	273	734308,/,734988,/,735668,/,736347,/,737027,/	t,t,t,t,t	<img class = center src='/static/experiments/beast_fmri_test/images/T.png'></img>	89,71	2750.0	test	<img class = center src='/static/experiments/beast_fmri_test/images/redT.png'></img>	stop	2400.0	2.0	29.0	stop	target	T	89,Middle Finger	71,Index Finger	350.0	900.0	2400.0	1900.0	0.0	1.0	350.0	n/a	go_stim
138507.38411983219	2400.0	n/a	-1	-1	2750	723.615880168	stim	stop-signal	260	736594	0.0-13.29-1.29	beast_fmri_test	273	734308,/,734988,/,735668,/,736347,/,737027,/	t,t,t,t,t	<img class = center src='/static/experiments/beast_fmri_test/images/T.png'></img>	89,71	2750.0	test	<img class = center src='/static/experiments/beast_fmri_test/images/redT.png'></img>	stop	2400.0	2.0	29.0	stop	target	T	89,Middle Finger	71,Index Finger	350.0	900.0	2400.0	1900.0	0.0	1.0	350.0	n/a	stop_stim
138857.38411983219	723.61588016778933	n/a	-1	-1	2750	723.615880168	stim	stop-signal	260	736594	0.0-13.29-1.29	beast_fmri_test	273	734308,/,734988,/,735668,/,736347,/,737027,/	t,t,t,t,t	<img class = center src='/static/experiments/beast_fmri_test/images/T.png'></img>	89,71	2750.0	test	<img class = center src='/static/experiments/beast_fmri_test/images/redT.png'></img>	stop	2400.0	2.0	29.0	stop	target	T	89,Middle Finger	71,Index Finger	350.0	900.0	2400.0	1900.0	0.0	1.0	350.0	n/a	ITI
140835	500	n/a	-1	-1	500	0.0	fixation	poldrack-single-stim	261	737848	0.0-13.30-0.30	beast_fmri_test	273	737706,/	t	<div class = centerbox2><div class = fixation>+</div></div>	none	500.0	test	n/a	n/a	n/a	n/a	n/a	n/a	n/a	n/a	n/a	n/a	n/a	n/a	n/a	n/a	n/a	n/a	n/a	n/a	fixation
140564.15838912502	900.0	n/a	949	71	2750	271.841610875	stim	stop-signal	262	740599	0.0-13.30-1.30	beast_fmri_test	273	738386,/,739067,/,739746,/,740425,/	t,t,t,t	<img class = center src='/static/experiments/beast_fmri_test/images/D.png'></img>	89,71	2750.0	test	<img class = center src='/static/experiments/beast_fmri_test/images/redD.png'></img>	stop	1850.0	2.0	30.0	stop	non-target	D	89,Middle Finger	71,Index Finger	400.0	900.0	2400.0	1850.0	0.0	0.0	900.0	n/a	go_stim
142414.15838912502	1850.0	n/a	949	71	2750	271.841610875	stim	stop-signal	262	740599	0.0-13.30-1.30	beast_fmri_test	273	738386,/,739067,/,739746,/,740425,/	t,t,t,t	<img class = center src='/static/experiments/beast_fmri_test/images/D.png'></img>	89,71	2750.0	test	<img class = center src='/static/experiments/beast_fmri_test/images/redD.png'></img>	stop	1850.0	2.0	30.0	stop	non-target	D	89,Middle Finger	71,Index Finger	400.0	900.0	2400.0	1850.0	0.0	0.0	900.0	n/a	stop_stim
143314.15838912502	271.84161087503412	n/a	949	71	2750	271.841610875	stim	stop-signal	262	740599	0.0-13.30-1.30	beast_fmri_test	273	738386,/,739067,/,739746,/,740425,/	t,t,t,t	<img class = center src='/static/experiments/beast_fmri_test/images/D.png'></img>	89,71	2750.0	test	<img class = center src='/static/experiments/beast_fmri_test/images/redD.png'></img>	stop	1850.0	2.0	30.0	stop	non-target	D	89,Middle Finger	71,Index Finger	400.0	900.0	2400.0	1850.0	0.0	0.0	900.0	n/a	ITI
144387	500	n/a	-1	-1	500	0.0	fixation	poldrack-single-stim	263	741400	0.0-13.31-0.31	beast_fmri_test	273	741104,/	t	<div class = centerbox2><div class = fixation>+</div></div>	none	500.0	test	n/a	n/a	n/a	n/a	n/a	n/a	n/a	n/a	n/a	n/a	n/a	n/a	n/a	n/a	n/a	n/a	n/a	n/a	fixation
143887.41180699843	2750	n/a	1104	71	2750	500.588193002	stim	stop-signal	264	744151	0.0-13.31-1.31	beast_fmri_test	273	741785,/,742465,/,743144,/,743823,/,744503,/	t,t,t,t,t	<img class = center src='/static/experiments/beast_fmri_test/images/D.png'></img>	89,71	2750.0	test	<img class = center src='/static/experiments/beast_fmri_test/images/redD.png'></img>	go	1900.0	2.0	31.0	go	non-target	D	89,Middle Finger	71,Index Finger	400.0	850.0	2400.0	1900.0	1.0	n/a	850.0	1.0	go_stim
146637.41180699843	500.58819300155562	n/a	1104	71	2750	500.588193002	stim	stop-signal	264	744151	0.0-13.31-1.31	beast_fmri_test	273	741785,/,742465,/,743144,/,743823,/,744503,/	t,t,t,t,t	<img class = center src='/static/experiments/beast_fmri_test/images/D.png'></img>	89,71	2750.0	test	<img class = center src='/static/experiments/beast_fmri_test/images/redD.png'></img>	go	1900.0	2.0	31.0	go	non-target	D	89,Middle Finger	71,Index Finger	400.0	850.0	2400.0	1900.0	1.0	n/a	850.0	1.0	ITI
148171	500	n/a	-1	-1	500	0.0	fixation	poldrack-single-stim	265	745184	0.0-13.32-0.32	beast_fmri_test	273	n/a	n/a	<div class = centerbox2><div class = fixation>+</div></div>	none	500.0	test	n/a	n/a	n/a	n/a	n/a	n/a	n/a	n/a	n/a	n/a	n/a	n/a	n/a	n/a	n/a	n/a	n/a	n/a	fixation
147076.19447844767	2750	n/a	741	89	2750	1094.80552155	stim	stop-signal	266	747934	0.0-13.32-1.32	beast_fmri_test	273	745185,/,745863,/,746541,/,747222,/,747902,/,748581,/	t,t,t,t,t,t	<img class = center src='/static/experiments/beast_fmri_test/images/D.png'></img>	89,71	2750.0	test	<img class = center src='/static/experiments/beast_fmri_test/images/redD.png'></img>	go	2350.0	2.0	32.0	go	target	D	89,Middle Finger	71,Index Finger	400.0	850.0	2350.0	1900.0	1.0	n/a	400.0	1.0	go_stim
149826.19447844767	1094.8055215523241	n/a	741	89	2750	1094.80552155	stim	stop-signal	266	747934	0.0-13.32-1.32	beast_fmri_test	273	745185,/,745863,/,746541,/,747222,/,747902,/,748581,/	t,t,t,t,t,t	<img class = center src='/static/experiments/beast_fmri_test/images/D.png'></img>	89,71	2750.0	test	<img class = center src='/static/experiments/beast_fmri_test/images/redD.png'></img>	go	2350.0	2.0	32.0	go	target	D	89,Middle Finger	71,Index Finger	400.0	850.0	2350.0	1900.0	1.0	n/a	400.0	1.0	ITI
152544	500	n/a	-1	-1	500	0.0	fixation	poldrack-single-stim	267	749557	0.0-13.33-0.33	beast_fmri_test	273	749261,/	t	<div class = centerbox2><div class = fixation>+</div></div>	none	500.0	test	n/a	n/a	n/a	n/a	n/a	n/a	n/a	n/a	n/a	n/a	n/a	n/a	n/a	n/a	n/a	n/a	n/a	n/a	fixation
152160.26906607358	850.0	n/a	700	71	2750	384.730933926	stim	stop-signal	268	752308	0.0-13.33-1.33	beast_fmri_test	273	749941,/,750619,/,751300,/,751979,/,752659,/	t,t,t,t,t	<img class = center src='/static/experiments/beast_fmri_test/images/T.png'></img>	89,71	2750.0	test	<img class = center src='/static/experiments/beast_fmri_test/images/redT.png'></img>	stop	1900.0	2.0	33.0	stop	non-target	T	89,Middle Finger	71,Index Finger	400.0	850.0	2350.0	1900.0	0.0	0.0	850.0	n/a	go_stim
154060.26906607358	1900.0	n/a	700	71	2750	384.730933926	stim	stop-signal	268	752308	0.0-13.33-1.33	beast_fmri_test	273	749941,/,750619,/,751300,/,751979,/,752659,/	t,t,t,t,t	<img class = center src='/static/experiments/beast_fmri_test/images/T.png'></img>	89,71	2750.0	test	<img class = center src='/static/experiments/beast_fmri_test/images/redT.png'></img>	stop	1900.0	2.0	33.0	stop	non-target	T	89,Middle Finger	71,Index Finger	400.0	850.0	2350.0	1900.0	0.0	0.0	850.0	n/a	stop_stim
154910.26906607358	384.73093392643727	n/a	700	71	2750	384.730933926	stim	stop-signal	268	752308	0.0-13.33-1.33	beast_fmri_test	273	749941,/,750619,/,751300,/,751979,/,752659,/	t,t,t,t,t	<img class = center src='/static/experiments/beast_fmri_test/images/T.png'></img>	89,71	2750.0	test	<img class = center src='/static/experiments/beast_fmri_test/images/redT.png'></img>	stop	1900.0	2.0	33.0	stop	non-target	T	89,Middle Finger	71,Index Finger	400.0	850.0	2350.0	1900.0	0.0	0.0	850.0	n/a	ITI
156209	500	n/a	-1	-1	500	0.0	fixation	poldrack-single-stim	269	753222	0.0-13.34-0.34	beast_fmri_test	273	n/a	n/a	<div class = centerbox2><div class = fixation>+</div></div>	none	500.0	test	n/a	n/a	n/a	n/a	n/a	n/a	n/a	n/a	n/a	n/a	n/a	n/a	n/a	n/a	n/a	n/a	n/a	n/a	fixation
155879.19872671831	800.0	n/a	-1	-1	2750	331.801273282	stim	stop-signal	270	755974	0.0-13.34-1.34	beast_fmri_test	273	753339,/,754018,/,754698,/,755378,/,756059,/	t,t,t,t,t	<img class = center src='/static/experiments/beast_fmri_test/images/V.png'></img>	89,71	2750.0	test	<img class = center src='/static/experiments/beast_fmri_test/images/redV.png'></img>	stop	1950.0	2.0	34.0	stop	non-target	V	89,Middle Finger	71,Index Finger	400.0	800.0	2350.0	1950.0	0.0	1.0	800.0	n/a	go_stim
157829.19872671831	1950.0	n/a	-1	-1	2750	331.801273282	stim	stop-signal	270	755974	0.0-13.34-1.34	beast_fmri_test	273	753339,/,754018,/,754698,/,755378,/,756059,/	t,t,t,t,t	<img class = center src='/static/experiments/beast_fmri_test/images/V.png'></img>	89,71	2750.0	test	<img class = center src='/static/experiments/beast_fmri_test/images/redV.png'></img>	stop	1950.0	2.0	34.0	stop	non-target	V	89,Middle Finger	71,Index Finger	400.0	800.0	2350.0	1950.0	0.0	1.0	800.0	n/a	stop_stim
158629.19872671831	331.80127328171051	n/a	-1	-1	2750	331.801273282	stim	stop-signal	270	755974	0.0-13.34-1.34	beast_fmri_test	273	753339,/,754018,/,754698,/,755378,/,756059,/	t,t,t,t,t	<img class = center src='/static/experiments/beast_fmri_test/images/V.png'></img>	89,71	2750.0	test	<img class = center src='/static/experiments/beast_fmri_test/images/redV.png'></img>	stop	1950.0	2.0	34.0	stop	non-target	V	89,Middle Finger	71,Index Finger	400.0	800.0	2350.0	1950.0	0.0	1.0	800.0	n/a	ITI
159824	500	n/a	-1	-1	500	0.0	fixation	poldrack-single-stim	271	756837	0.0-13.35-0.35	beast_fmri_test	273	756736,/	t	<div class = centerbox2><div class = fixation>+</div></div>	none	500.0	test	n/a	n/a	n/a	n/a	n/a	n/a	n/a	n/a	n/a	n/a	n/a	n/a	n/a	n/a	n/a	n/a	n/a	n/a	fixation
159502.05678099254	400.0	n/a	-1	-1	2750	322.943219007	stim	stop-signal	272	759588	0.0-13.35-1.35	beast_fmri_test	273	757417,/,758098,/,758777,/,759456,/	t,t,t,t	<img class = center src='/static/experiments/beast_fmri_test/images/T.png'></img>	89,71	2750.0	test	<img class = center src='/static/experiments/beast_fmri_test/images/redT.png'></img>	stop	2350.0	2.0	35.0	stop	target	T	89,Middle Finger	71,Index Finger	400.0	850.0	2350.0	1950.0	0.0	1.0	400.0	n/a	go_stim
161852.05678099254	2350.0	n/a	-1	-1	2750	322.943219007	stim	stop-signal	272	759588	0.0-13.35-1.35	beast_fmri_test	273	757417,/,758098,/,758777,/,759456,/	t,t,t,t	<img class = center src='/static/experiments/beast_fmri_test/images/T.png'></img>	89,71	2750.0	test	<img class = center src='/static/experiments/beast_fmri_test/images/redT.png'></img>	stop	2350.0	2.0	35.0	stop	target	T	89,Middle Finger	71,Index Finger	400.0	850.0	2350.0	1950.0	0.0	1.0	400.0	n/a	stop_stim
162252.05678099254	322.94321900747485	n/a	-1	-1	2750	322.943219007	stim	stop-signal	272	759588	0.0-13.35-1.35	beast_fmri_test	273	757417,/,758098,/,758777,/,759456,/	t,t,t,t	<img class = center src='/static/experiments/beast_fmri_test/images/T.png'></img>	89,71	2750.0	test	<img class = center src='/static/experiments/beast_fmri_test/images/redT.png'></img>	stop	2350.0	2.0	35.0	stop	target	T	89,Middle Finger	71,Index Finger	400.0	850.0	2350.0	1950.0	0.0	1.0	400.0	n/a	ITI
163429	500	n/a	-1	-1	500	0.0	fixation	poldrack-single-stim	273	760442	0.0-13.36-0.36	beast_fmri_test	273	760135,/	t	<div class = centerbox2><div class = fixation>+</div></div>	none	500.0	test	n/a	n/a	n/a	n/a	n/a	n/a	n/a	n/a	n/a	n/a	n/a	n/a	n/a	n/a	n/a	n/a	n/a	n/a	fixation
161381.29778533929	2750	n/a	950	71	2750	2050.70221466	stim	stop-signal	274	763195	0.0-13.36-1.36	beast_fmri_test	273	760817,/,761496,/,762175,/,762855,/,763534,/,764214,/,764894,/	t,t,t,t,t,t,t	<img class = center src='/static/experiments/beast_fmri_test/images/D.png'></img>	89,71	2750.0	test	<img class = center src='/static/experiments/beast_fmri_test/images/redD.png'></img>	go	1900.0	2.0	36.0	go	non-target	D	89,Middle Finger	71,Index Finger	450.0	850.0	2350.0	1900.0	1.0	n/a	850.0	1.0	go_stim
164131.29778533929	2050.7022146606587	n/a	950	71	2750	2050.70221466	stim	stop-signal	274	763195	0.0-13.36-1.36	beast_fmri_test	273	760817,/,761496,/,762175,/,762855,/,763534,/,764214,/,764894,/	t,t,t,t,t,t,t	<img class = center src='/static/experiments/beast_fmri_test/images/D.png'></img>	89,71	2750.0	test	<img class = center src='/static/experiments/beast_fmri_test/images/redD.png'></img>	go	1900.0	2.0	36.0	go	non-target	D	89,Middle Finger	71,Index Finger	450.0	850.0	2350.0	1900.0	1.0	n/a	850.0	1.0	ITI
168763	500	n/a	-1	-1	500	0.0	fixation	poldrack-single-stim	275	765776	0.0-13.37-0.37	beast_fmri_test	273	765574,/	t	<div class = centerbox2><div class = fixation>+</div></div>	none	500.0	test	n/a	n/a	n/a	n/a	n/a	n/a	n/a	n/a	n/a	n/a	n/a	n/a	n/a	n/a	n/a	n/a	n/a	n/a	fixation
167799.81407959771	2750	n/a	1481	71	2750	965.185920402	stim	stop-signal	276	768528	0.0-13.37-1.37	beast_fmri_test	273	766252,/,766934,/,767613,/,768292,/,768972,/	t,t,t,t,t	<img class = center src='/static/experiments/beast_fmri_test/images/D.png'></img>	89,71	2750.0	test	<img class = center src='/static/experiments/beast_fmri_test/images/redD.png'></img>	go	1900.0	2.0	37.0	go	non-target	D	89,Middle Finger	71,Index Finger	450.0	850.0	2350.0	1900.0	1.0	n/a	850.0	1.0	go_stim
170549.81407959771	965.18592040234864	n/a	1481	71	2750	965.185920402	stim	stop-signal	276	768528	0.0-13.37-1.37	beast_fmri_test	273	766252,/,766934,/,767613,/,768292,/,768972,/	t,t,t,t,t	<img class = center src='/static/experiments/beast_fmri_test/images/D.png'></img>	89,71	2750.0	test	<img class = center src='/static/experiments/beast_fmri_test/images/redD.png'></img>	go	1900.0	2.0	37.0	go	non-target	D	89,Middle Finger	71,Index Finger	450.0	850.0	2350.0	1900.0	1.0	n/a	850.0	1.0	ITI
173014	500	n/a	-1	-1	500	0.0	fixation	poldrack-single-stim	277	770027	0.0-13.38-0.38	beast_fmri_test	273	769651,/	t	<div class = centerbox2><div class = fixation>+</div></div>	none	500.0	test	n/a	n/a	n/a	n/a	n/a	n/a	n/a	n/a	n/a	n/a	n/a	n/a	n/a	n/a	n/a	n/a	n/a	n/a	fixation
170954.07477377122	2750	n/a	654	71	2750	2060.92522623	stim	stop-signal	278	772778	0.0-13.38-1.38	beast_fmri_test	273	770331,/,771012,/,771691,/,772369,/,773050,/,773730,/,774409,/	t,t,t,t,t,t,t	<img class = center src='/static/experiments/beast_fmri_test/images/T.png'></img>	89,71	2750.0	test	<img class = center src='/static/experiments/beast_fmri_test/images/redT.png'></img>	go	1900.0	2.0	38.0	go	non-target	T	89,Middle Finger	71,Index Finger	450.0	850.0	2350.0	1900.0	1.0	n/a	850.0	1.0	go_stim
173704.07477377122	2060.9252262287923	n/a	654	71	2750	2060.92522623	stim	stop-signal	278	772778	0.0-13.38-1.38	beast_fmri_test	273	770331,/,771012,/,771691,/,772369,/,773050,/,773730,/,774409,/	t,t,t,t,t,t,t	<img class = center src='/static/experiments/beast_fmri_test/images/T.png'></img>	89,71	2750.0	test	<img class = center src='/static/experiments/beast_fmri_test/images/redT.png'></img>	go	1900.0	2.0	38.0	go	non-target	T	89,Middle Finger	71,Index Finger	450.0	850.0	2350.0	1900.0	1.0	n/a	850.0	1.0	ITI
178356	500	n/a	-1	-1	500	0.0	fixation	poldrack-single-stim	279	775369	0.0-13.39-0.39	beast_fmri_test	273	775088,/	t	<div class = centerbox2><div class = fixation>+</div></div>	none	500.0	test	n/a	n/a	n/a	n/a	n/a	n/a	n/a	n/a	n/a	n/a	n/a	n/a	n/a	n/a	n/a	n/a	n/a	n/a	fixation
175571.12292294076	2750	n/a	1239	89	2750	2785.87707706	stim	stop-signal	280	778120	0.0-13.39-1.39	beast_fmri_test	273	775769,/,776449,/,777127,/,777807,/,778488,/,779167,/,779846,/,780526,/	t,t,t,t,t,t,t,t	<img class = center src='/static/experiments/beast_fmri_test/images/D.png'></img>	89,71	2750.0	test	<img class = center src='/static/experiments/beast_fmri_test/images/redD.png'></img>	go	2300.0	2.0	39.0	go	target	D	89,Middle Finger	71,Index Finger	450.0	850.0	2300.0	1900.0	1.0	n/a	450.0	1.0	go_stim
178321.12292294076	2785.8770770592132	n/a	1239	89	2750	2785.87707706	stim	stop-signal	280	778120	0.0-13.39-1.39	beast_fmri_test	273	775769,/,776449,/,777127,/,777807,/,778488,/,779167,/,779846,/,780526,/	t,t,t,t,t,t,t,t	<img class = center src='/static/experiments/beast_fmri_test/images/D.png'></img>	89,71	2750.0	test	<img class = center src='/static/experiments/beast_fmri_test/images/redD.png'></img>	go	2300.0	2.0	39.0	go	target	D	89,Middle Finger	71,Index Finger	450.0	850.0	2300.0	1900.0	1.0	n/a	450.0	1.0	ITI
184424	500	n/a	-1	-1	500	0.0	fixation	poldrack-single-stim	281	781437	0.0-13.40-0.40	beast_fmri_test	273	781205,/	t	<div class = centerbox2><div class = fixation>+</div></div>	none	500.0	test	n/a	n/a	n/a	n/a	n/a	n/a	n/a	n/a	n/a	n/a	n/a	n/a	n/a	n/a	n/a	n/a	n/a	n/a	fixation
182737.20229723526	2750	n/a	665	71	2750	1688.79770276	stim	stop-signal	282	784189	0.0-13.40-1.40	beast_fmri_test	273	781886,/,782565,/,783245,/,783924,/,784604,/,785283,/	t,t,t,t,t,t	<img class = center src='/static/experiments/beast_fmri_test/images/B.png'></img>	89,71	2750.0	test	<img class = center src='/static/experiments/beast_fmri_test/images/redB.png'></img>	go	1900.0	2.0	40.0	go	non-target	B	89,Middle Finger	71,Index Finger	450.0	850.0	2300.0	1900.0	1.0	n/a	850.0	1.0	go_stim
185487.20229723526	1688.7977027647439	n/a	665	71	2750	1688.79770276	stim	stop-signal	282	784189	0.0-13.40-1.40	beast_fmri_test	273	781886,/,782565,/,783245,/,783924,/,784604,/,785283,/	t,t,t,t,t,t	<img class = center src='/static/experiments/beast_fmri_test/images/B.png'></img>	89,71	2750.0	test	<img class = center src='/static/experiments/beast_fmri_test/images/redB.png'></img>	go	1900.0	2.0	40.0	go	non-target	B	89,Middle Finger	71,Index Finger	450.0	850.0	2300.0	1900.0	1.0	n/a	850.0	1.0	ITI
189394	500	n/a	-1	-1	500	0.0	fixation	poldrack-single-stim	283	786407	0.0-13.41-0.41	beast_fmri_test	273	785964,/	t	<div class = centerbox2><div class = fixation>+</div></div>	none	500.0	test	n/a	n/a	n/a	n/a	n/a	n/a	n/a	n/a	n/a	n/a	n/a	n/a	n/a	n/a	n/a	n/a	n/a	n/a	fixation
188607.14073398348	2750	n/a	729	71	2750	788.859266017	stim	stop-signal	284	789159	0.0-13.41-1.41	beast_fmri_test	273	786644,/,787323,/,788003,/,788683,/,789362,/	t,t,t,t,t	<img class = center src='/static/experiments/beast_fmri_test/images/V.png'></img>	89,71	2750.0	test	<img class = center src='/static/experiments/beast_fmri_test/images/redV.png'></img>	go	1900.0	2.0	41.0	go	non-target	V	89,Middle Finger	71,Index Finger	450.0	850.0	2300.0	1900.0	1.0	n/a	850.0	1.0	go_stim
191357.14073398348	788.85926601654592	n/a	729	71	2750	788.859266017	stim	stop-signal	284	789159	0.0-13.41-1.41	beast_fmri_test	273	786644,/,787323,/,788003,/,788683,/,789362,/	t,t,t,t,t	<img class = center src='/static/experiments/beast_fmri_test/images/V.png'></img>	89,71	2750.0	test	<img class = center src='/static/experiments/beast_fmri_test/images/redV.png'></img>	go	1900.0	2.0	41.0	go	non-target	V	89,Middle Finger	71,Index Finger	450.0	850.0	2300.0	1900.0	1.0	n/a	850.0	1.0	ITI
193469	500	n/a	-1	-1	500	0.0	fixation	poldrack-single-stim	285	790482	0.0-13.42-0.42	beast_fmri_test	273	790043,/	t	<div class = centerbox2><div class = fixation>+</div></div>	none	500.0	test	n/a	n/a	n/a	n/a	n/a	n/a	n/a	n/a	n/a	n/a	n/a	n/a	n/a	n/a	n/a	n/a	n/a	n/a	fixation
191505.10147545673	2750	n/a	478	89	2750	1965.89852454	stim	stop-signal	286	793234	0.0-13.42-1.42	beast_fmri_test	273	790722,/,791402,/,792082,/,792761,/,793440,/,794121,/,794800,/	t,t,t,t,t,t,t	<img class = center src='/static/experiments/beast_fmri_test/images/B.png'></img>	89,71	2750.0	test	<img class = center src='/static/experiments/beast_fmri_test/images/redB.png'></img>	go	2300.0	2.0	42.0	go	target	B	89,Middle Finger	71,Index Finger	450.0	850.0	2300.0	1900.0	1.0	n/a	450.0	1.0	go_stim
194255.10147545673	1965.8985245432134	n/a	478	89	2750	1965.89852454	stim	stop-signal	286	793234	0.0-13.42-1.42	beast_fmri_test	273	790722,/,791402,/,792082,/,792761,/,793440,/,794121,/,794800,/	t,t,t,t,t,t,t	<img class = center src='/static/experiments/beast_fmri_test/images/B.png'></img>	89,71	2750.0	test	<img class = center src='/static/experiments/beast_fmri_test/images/redB.png'></img>	go	2300.0	2.0	42.0	go	target	B	89,Middle Finger	71,Index Finger	450.0	850.0	2300.0	1900.0	1.0	n/a	450.0	1.0	ITI
198721	500	n/a	-1	-1	500	0.0	fixation	poldrack-single-stim	287	795734	0.0-13.43-0.43	beast_fmri_test	273	795480,/	t	<div class = centerbox2><div class = fixation>+</div></div>	none	500.0	test	n/a	n/a	n/a	n/a	n/a	n/a	n/a	n/a	n/a	n/a	n/a	n/a	n/a	n/a	n/a	n/a	n/a	n/a	fixation
198576.08535099949	2750	n/a	790	89	2750	145.914649	stim	stop-signal	288	798485	0.0-13.43-1.43	beast_fmri_test	273	796159,/,796838,/,797519,/,798197,/	t,t,t,t	<img class = center src='/static/experiments/beast_fmri_test/images/V.png'></img>	89,71	2750.0	test	<img class = center src='/static/experiments/beast_fmri_test/images/redV.png'></img>	go	2300.0	2.0	43.0	go	target	V	89,Middle Finger	71,Index Finger	450.0	850.0	2300.0	1900.0	1.0	n/a	450.0	1.0	go_stim
201326.08535099949	145.91464900046768	n/a	790	89	2750	145.914649	stim	stop-signal	288	798485	0.0-13.43-1.43	beast_fmri_test	273	796159,/,796838,/,797519,/,798197,/	t,t,t,t	<img class = center src='/static/experiments/beast_fmri_test/images/V.png'></img>	89,71	2750.0	test	<img class = center src='/static/experiments/beast_fmri_test/images/redV.png'></img>	go	2300.0	2.0	43.0	go	target	V	89,Middle Finger	71,Index Finger	450.0	850.0	2300.0	1900.0	1.0	n/a	450.0	1.0	ITI
202152	500	n/a	-1	-1	500	0.0	fixation	poldrack-single-stim	289	799165	0.0-13.44-0.44	beast_fmri_test	273	798877,/	t	<div class = centerbox2><div class = fixation>+</div></div>	none	500.0	test	n/a	n/a	n/a	n/a	n/a	n/a	n/a	n/a	n/a	n/a	n/a	n/a	n/a	n/a	n/a	n/a	n/a	n/a	fixation
201393.22065859975	2750	n/a	762	71	2750	758.7793414	stim	stop-signal	290	801915	0.0-13.44-1.44	beast_fmri_test	273	799558,/,800237,/,800916,/,801598,/,802276,/	t,t,t,t,t	<img class = center src='/static/experiments/beast_fmri_test/images/V.png'></img>	89,71	2750.0	test	<img class = center src='/static/experiments/beast_fmri_test/images/redV.png'></img>	go	1900.0	2.0	44.0	go	non-target	V	89,Middle Finger	71,Index Finger	450.0	850.0	2300.0	1900.0	1.0	n/a	850.0	1.0	go_stim
204143.22065859975	758.77934140028822	n/a	762	71	2750	758.7793414	stim	stop-signal	290	801915	0.0-13.44-1.44	beast_fmri_test	273	799558,/,800237,/,800916,/,801598,/,802276,/	t,t,t,t,t	<img class = center src='/static/experiments/beast_fmri_test/images/V.png'></img>	89,71	2750.0	test	<img class = center src='/static/experiments/beast_fmri_test/images/redV.png'></img>	go	1900.0	2.0	44.0	go	non-target	V	89,Middle Finger	71,Index Finger	450.0	850.0	2300.0	1900.0	1.0	n/a	850.0	1.0	ITI
206195	500	n/a	-1	-1	500	0.0	fixation	poldrack-single-stim	291	803208	0.0-13.45-0.45	beast_fmri_test	273	802956,/	t	<div class = centerbox2><div class = fixation>+</div></div>	none	500.0	test	n/a	n/a	n/a	n/a	n/a	n/a	n/a	n/a	n/a	n/a	n/a	n/a	n/a	n/a	n/a	n/a	n/a	n/a	fixation
205016.94552916102	850.0	n/a	789	71	2750	1180.05447084	stim	stop-signal	292	805960	0.0-13.45-1.45	beast_fmri_test	273	803636,/,804316,/,804995,/,805674,/,806354,/,807034,/	t,t,t,t,t,t	<img class = center src='/static/experiments/beast_fmri_test/images/D.png'></img>	89,71	2750.0	test	<img class = center src='/static/experiments/beast_fmri_test/images/redD.png'></img>	stop	1900.0	2.0	45.0	stop	non-target	D	89,Middle Finger	71,Index Finger	450.0	850.0	2300.0	1900.0	0.0	0.0	850.0	n/a	go_stim
206916.94552916102	1900.0	n/a	789	71	2750	1180.05447084	stim	stop-signal	292	805960	0.0-13.45-1.45	beast_fmri_test	273	803636,/,804316,/,804995,/,805674,/,806354,/,807034,/	t,t,t,t,t,t	<img class = center src='/static/experiments/beast_fmri_test/images/D.png'></img>	89,71	2750.0	test	<img class = center src='/static/experiments/beast_fmri_test/images/redD.png'></img>	stop	1900.0	2.0	45.0	stop	non-target	D	89,Middle Finger	71,Index Finger	450.0	850.0	2300.0	1900.0	0.0	0.0	850.0	n/a	stop_stim
207766.94552916102	1180.0544708389218	n/a	789	71	2750	1180.05447084	stim	stop-signal	292	805960	0.0-13.45-1.45	beast_fmri_test	273	803636,/,804316,/,804995,/,805674,/,806354,/,807034,/	t,t,t,t,t,t	<img class = center src='/static/experiments/beast_fmri_test/images/D.png'></img>	89,71	2750.0	test	<img class = center src='/static/experiments/beast_fmri_test/images/redD.png'></img>	stop	1900.0	2.0	45.0	stop	non-target	D	89,Middle Finger	71,Index Finger	450.0	850.0	2300.0	1900.0	0.0	0.0	850.0	n/a	ITI
210659	500	n/a	-1	-1	500	0.0	fixation	poldrack-single-stim	293	807672	0.0-13.46-0.46	beast_fmri_test	273	n/a	n/a	<div class = centerbox2><div class = fixation>+</div></div>	none	500.0	test	n/a	n/a	n/a	n/a	n/a	n/a	n/a	n/a	n/a	n/a	n/a	n/a	n/a	n/a	n/a	n/a	n/a	n/a	fixation
210432.82494599163	2750	n/a	783	89	2750	227.175054008	stim	stop-signal	294	810423	0.0-13.46-1.46	beast_fmri_test	273	807714,/,808392,/,809074,/,809753,/,810433,/	t,t,t,t,t	<img class = center src='/static/experiments/beast_fmri_test/images/V.png'></img>	89,71	2750.0	test	<img class = center src='/static/experiments/beast_fmri_test/images/redV.png'></img>	go	2300.0	2.0	46.0	go	target	V	89,Middle Finger	71,Index Finger	450.0	800.0	2300.0	1900.0	1.0	n/a	450.0	1.0	go_stim
213182.82494599163	227.17505400833798	n/a	783	89	2750	227.175054008	stim	stop-signal	294	810423	0.0-13.46-1.46	beast_fmri_test	273	807714,/,808392,/,809074,/,809753,/,810433,/	t,t,t,t,t	<img class = center src='/static/experiments/beast_fmri_test/images/V.png'></img>	89,71	2750.0	test	<img class = center src='/static/experiments/beast_fmri_test/images/redV.png'></img>	go	2300.0	2.0	46.0	go	target	V	89,Middle Finger	71,Index Finger	450.0	800.0	2300.0	1900.0	1.0	n/a	450.0	1.0	ITI
228666	15000	n/a	-1	-1	15000	0.0	practice-no-stop-feedback	poldrack-single-stim	295	825679	0.0-14.0	beast_fmri_test	273	811111,/,811791,/,812471,/,813152,/,813831,/,814512,/,815190,/,815870,/,816550,/,817229,/,817910,/,818589,/,819268,/,819949,/,820628,/,821308,/,821987,/,822668,/,823347,/,824028,/,824707,/,825385,/	t,t,t,t,t,t,t,t,t,t,t,t,t,t,t,t,t,t,t,t,t,t	"<div class = ""centerbox""><p class = ""block-text"">Your delay is 3 trials.</p><p class = block-text>Please wait for the scanner to start the block</p></div>"	77	15000.0	n/a	n/a	n/a	n/a	n/a	n/a	n/a	n/a	n/a	n/a	n/a	n/a	n/a	n/a	n/a	n/a	n/a	n/a	n/a	practice-no-stop-feedback
229168	500	n/a	-1	-1	500	0.0	fixation	poldrack-single-stim	296	826181	0.0-15.0-0.0	beast_fmri_test	273	826066,/	t	<div class = centerbox2><div class = fixation>+</div></div>	none	500.0	test	n/a	n/a	n/a	n/a	n/a	n/a	n/a	n/a	n/a	n/a	n/a	n/a	n/a	n/a	n/a	n/a	n/a	n/a	fixation
228909.3177650657	2750	n/a	-1	-1	2750	261.682234934	stim	stop-signal	297	828934	0.0-15.0-1.0	beast_fmri_test	273	826744,/,827425,/,828104,/,828785,/	t,t,t,t	<img class = center src='/static/experiments/beast_fmri_test/images/V.png'></img>	89,71	2750.0	test	<img class = center src='/static/experiments/beast_fmri_test/images/redV.png'></img>	go	-1.0	3.0	0.0	go	temp-non-target	V	89,Middle Finger	71,Index Finger	450.0	800.0	2300.0	1900.0	0.0	n/a	n/a	n/a	go_stim
231659.3177650657	261.68223493425222	n/a	-1	-1	2750	261.682234934	stim	stop-signal	297	828934	0.0-15.0-1.0	beast_fmri_test	273	826744,/,827425,/,828104,/,828785,/	t,t,t,t	<img class = center src='/static/experiments/beast_fmri_test/images/V.png'></img>	89,71	2750.0	test	<img class = center src='/static/experiments/beast_fmri_test/images/redV.png'></img>	go	-1.0	3.0	0.0	go	temp-non-target	V	89,Middle Finger	71,Index Finger	450.0	800.0	2300.0	1900.0	0.0	n/a	n/a	n/a	ITI
232717	500	n/a	-1	-1	500	0.0	fixation	poldrack-single-stim	298	829730	0.0-15.1-0.1	beast_fmri_test	273	829464,/	t	<div class = centerbox2><div class = fixation>+</div></div>	none	500.0	test	n/a	n/a	n/a	n/a	n/a	n/a	n/a	n/a	n/a	n/a	n/a	n/a	n/a	n/a	n/a	n/a	n/a	n/a	fixation
232529.0460097848	2750	n/a	-1	-1	2750	189.953990215	stim	stop-signal	299	832482	0.0-15.1-1.1	beast_fmri_test	273	830144,/,830823,/,831501,/,832181,/	t,t,t,t	<img class = center src='/static/experiments/beast_fmri_test/images/P.png'></img>	89,71	2750.0	test	<img class = center src='/static/experiments/beast_fmri_test/images/redP.png'></img>	go	-1.0	3.0	1.0	go	temp-non-target	P	89,Middle Finger	71,Index Finger	450.0	800.0	2300.0	1900.0	0.0	n/a	n/a	n/a	go_stim
235279.0460097848	189.95399021518875	n/a	-1	-1	2750	189.953990215	stim	stop-signal	299	832482	0.0-15.1-1.1	beast_fmri_test	273	830144,/,830823,/,831501,/,832181,/	t,t,t,t	<img class = center src='/static/experiments/beast_fmri_test/images/P.png'></img>	89,71	2750.0	test	<img class = center src='/static/experiments/beast_fmri_test/images/redP.png'></img>	go	-1.0	3.0	1.0	go	temp-non-target	P	89,Middle Finger	71,Index Finger	450.0	800.0	2300.0	1900.0	0.0	n/a	n/a	n/a	ITI
236192	500	n/a	-1	-1	500	0.0	fixation	poldrack-single-stim	300	833205	0.0-15.2-0.2	beast_fmri_test	273	832863,/	t	<div class = centerbox2><div class = fixation>+</div></div>	none	500.0	test	n/a	n/a	n/a	n/a	n/a	n/a	n/a	n/a	n/a	n/a	n/a	n/a	n/a	n/a	n/a	n/a	n/a	n/a	fixation
235962.81171440484	2750	n/a	-1	-1	2750	230.188285595	stim	stop-signal	301	835956	0.0-15.2-1.2	beast_fmri_test	273	833541,/,834222,/,834900,/,835581,/	t,t,t,t	<img class = center src='/static/experiments/beast_fmri_test/images/T.png'></img>	89,71	2750.0	test	<img class = center src='/static/experiments/beast_fmri_test/images/redT.png'></img>	go	-1.0	3.0	2.0	go	temp-non-target	T	89,Middle Finger	71,Index Finger	450.0	800.0	2300.0	1900.0	0.0	n/a	n/a	n/a	go_stim
238712.81171440484	230.1882855952116	n/a	-1	-1	2750	230.188285595	stim	stop-signal	301	835956	0.0-15.2-1.2	beast_fmri_test	273	833541,/,834222,/,834900,/,835581,/	t,t,t,t	<img class = center src='/static/experiments/beast_fmri_test/images/T.png'></img>	89,71	2750.0	test	<img class = center src='/static/experiments/beast_fmri_test/images/redT.png'></img>	go	-1.0	3.0	2.0	go	temp-non-target	T	89,Middle Finger	71,Index Finger	450.0	800.0	2300.0	1900.0	0.0	n/a	n/a	n/a	ITI
239708	500	n/a	-1	-1	500	0.0	fixation	poldrack-single-stim	302	836721	0.0-15.3-0.3	beast_fmri_test	273	836259,/	t	<div class = centerbox2><div class = fixation>+</div></div>	none	500.0	test	n/a	n/a	n/a	n/a	n/a	n/a	n/a	n/a	n/a	n/a	n/a	n/a	n/a	n/a	n/a	n/a	n/a	n/a	fixation
239675.93699593947	2750	n/a	1012	71	2750	33.0630040605	stim	stop-signal	303	839472	0.0-15.3-1.3	beast_fmri_test	273	836939,/,837620,/,838300,/,838980,/	t,t,t,t	<img class = center src='/static/experiments/beast_fmri_test/images/T.png'></img>	89,71	2750.0	test	<img class = center src='/static/experiments/beast_fmri_test/images/redT.png'></img>	go	1950.0	3.0	3.0	go	non-target	T	89,Middle Finger	71,Index Finger	450.0	800.0	2300.0	1950.0	1.0	n/a	800.0	1.0	go_stim
242425.93699593947	33.063004060533373	n/a	1012	71	2750	33.0630040605	stim	stop-signal	303	839472	0.0-15.3-1.3	beast_fmri_test	273	836939,/,837620,/,838300,/,838980,/	t,t,t,t	<img class = center src='/static/experiments/beast_fmri_test/images/T.png'></img>	89,71	2750.0	test	<img class = center src='/static/experiments/beast_fmri_test/images/redT.png'></img>	go	1950.0	3.0	3.0	go	non-target	T	89,Middle Finger	71,Index Finger	450.0	800.0	2300.0	1950.0	1.0	n/a	800.0	1.0	ITI
243026	500	n/a	-1	-1	500	0.0	fixation	poldrack-single-stim	304	840039	0.0-15.4-0.4	beast_fmri_test	273	839658,/	t	<div class = centerbox2><div class = fixation>+</div></div>	none	500.0	test	n/a	n/a	n/a	n/a	n/a	n/a	n/a	n/a	n/a	n/a	n/a	n/a	n/a	n/a	n/a	n/a	n/a	n/a	fixation
242687.05786542431	2750	n/a	1024	71	2750	339.942134576	stim	stop-signal	305	842790	0.0-15.4-1.4	beast_fmri_test	273	840338,/,841018,/,841698,/,842376,/,843058,/	t,t,t,t,t	<img class = center src='/static/experiments/beast_fmri_test/images/B.png'></img>	89,71	2750.0	test	<img class = center src='/static/experiments/beast_fmri_test/images/redB.png'></img>	go	1950.0	3.0	4.0	go	non-target	B	89,Middle Finger	71,Index Finger	450.0	800.0	2300.0	1950.0	1.0	n/a	800.0	1.0	go_stim
245437.05786542431	339.94213457569043	n/a	1024	71	2750	339.942134576	stim	stop-signal	305	842790	0.0-15.4-1.4	beast_fmri_test	273	840338,/,841018,/,841698,/,842376,/,843058,/	t,t,t,t,t	<img class = center src='/static/experiments/beast_fmri_test/images/B.png'></img>	89,71	2750.0	test	<img class = center src='/static/experiments/beast_fmri_test/images/redB.png'></img>	go	1950.0	3.0	4.0	go	non-target	B	89,Middle Finger	71,Index Finger	450.0	800.0	2300.0	1950.0	1.0	n/a	800.0	1.0	ITI
246650	500	n/a	-1	-1	500	0.0	fixation	poldrack-single-stim	306	843663	0.0-15.5-0.5	beast_fmri_test	273	n/a	n/a	<div class = centerbox2><div class = fixation>+</div></div>	none	500.0	test	n/a	n/a	n/a	n/a	n/a	n/a	n/a	n/a	n/a	n/a	n/a	n/a	n/a	n/a	n/a	n/a	n/a	n/a	fixation
243968.93811128219	2750	n/a	1107	89	2750	2684.06188872	stim	stop-signal	307	846416	0.0-15.5-1.5	beast_fmri_test	273	843736,/,844417,/,845097,/,845777,/,846455,/,847136,/,847815,/,848496,/	t,t,t,t,t,t,t,t	<img class = center src='/static/experiments/beast_fmri_test/images/T.png'></img>	89,71	2750.0	test	<img class = center src='/static/experiments/beast_fmri_test/images/redT.png'></img>	go	2300.0	3.0	5.0	go	target	T	89,Middle Finger	71,Index Finger	450.0	800.0	2300.0	1950.0	1.0	n/a	450.0	1.0	go_stim
246718.93811128219	2684.061888717757	n/a	1107	89	2750	2684.06188872	stim	stop-signal	307	846416	0.0-15.5-1.5	beast_fmri_test	273	843736,/,844417,/,845097,/,845777,/,846455,/,847136,/,847815,/,848496,/	t,t,t,t,t,t,t,t	<img class = center src='/static/experiments/beast_fmri_test/images/T.png'></img>	89,71	2750.0	test	<img class = center src='/static/experiments/beast_fmri_test/images/redT.png'></img>	go	2300.0	3.0	5.0	go	target	T	89,Middle Finger	71,Index Finger	450.0	800.0	2300.0	1950.0	1.0	n/a	450.0	1.0	ITI
252622	500	n/a	-1	-1	500	0.0	fixation	poldrack-single-stim	308	849635	0.0-15.6-0.6	beast_fmri_test	273	849173,/	t	<div class = centerbox2><div class = fixation>+</div></div>	none	500.0	test	n/a	n/a	n/a	n/a	n/a	n/a	n/a	n/a	n/a	n/a	n/a	n/a	n/a	n/a	n/a	n/a	n/a	n/a	fixation
251423.83852067287	2750	n/a	1492	71	2750	1200.16147933	stim	stop-signal	309	852387	0.0-15.6-1.6	beast_fmri_test	273	849855,/,850534,/,851214,/,851894,/,852574,/,853252,/	t,t,t,t,t,t	<img class = center src='/static/experiments/beast_fmri_test/images/D.png'></img>	89,71	2750.0	test	<img class = center src='/static/experiments/beast_fmri_test/images/redD.png'></img>	go	1950.0	3.0	6.0	go	non-target	D	89,Middle Finger	71,Index Finger	450.0	800.0	2300.0	1950.0	1.0	n/a	800.0	1.0	go_stim
254173.83852067287	1200.1614793270751	n/a	1492	71	2750	1200.16147933	stim	stop-signal	309	852387	0.0-15.6-1.6	beast_fmri_test	273	849855,/,850534,/,851214,/,851894,/,852574,/,853252,/	t,t,t,t,t,t	<img class = center src='/static/experiments/beast_fmri_test/images/D.png'></img>	89,71	2750.0	test	<img class = center src='/static/experiments/beast_fmri_test/images/redD.png'></img>	go	1950.0	3.0	6.0	go	non-target	D	89,Middle Finger	71,Index Finger	450.0	800.0	2300.0	1950.0	1.0	n/a	800.0	1.0	ITI
257111	500	n/a	-1	-1	500	0.0	fixation	poldrack-single-stim	310	854124	0.0-15.7-0.7	beast_fmri_test	273	853933,/	t	<div class = centerbox2><div class = fixation>+</div></div>	none	500.0	test	n/a	n/a	n/a	n/a	n/a	n/a	n/a	n/a	n/a	n/a	n/a	n/a	n/a	n/a	n/a	n/a	n/a	n/a	fixation
256434.92667148937	2750	n/a	1221	71	2750	679.073328511	stim	stop-signal	311	856877	0.0-15.7-1.7	beast_fmri_test	273	854612,/,855292,/,855972,/,856652,/,857331,/	t,t,t,t,t	<img class = center src='/static/experiments/beast_fmri_test/images/B.png'></img>	89,71	2750.0	test	<img class = center src='/static/experiments/beast_fmri_test/images/redB.png'></img>	go	2300.0	3.0	7.0	go	target	B	89,Middle Finger	71,Index Finger	450.0	800.0	2300.0	1950.0	0.0	n/a	450.0	0.0	go_stim
259184.92667148937	679.0733285105739	n/a	1221	71	2750	679.073328511	stim	stop-signal	311	856877	0.0-15.7-1.7	beast_fmri_test	273	854612,/,855292,/,855972,/,856652,/,857331,/	t,t,t,t,t	<img class = center src='/static/experiments/beast_fmri_test/images/B.png'></img>	89,71	2750.0	test	<img class = center src='/static/experiments/beast_fmri_test/images/redB.png'></img>	go	2300.0	3.0	7.0	go	target	B	89,Middle Finger	71,Index Finger	450.0	800.0	2300.0	1950.0	0.0	n/a	450.0	0.0	ITI
261082	500	n/a	-1	-1	500	0.0	fixation	poldrack-single-stim	312	858095	0.0-15.8-0.8	beast_fmri_test	273	858012,/	t	<div class = centerbox2><div class = fixation>+</div></div>	none	500.0	test	n/a	n/a	n/a	n/a	n/a	n/a	n/a	n/a	n/a	n/a	n/a	n/a	n/a	n/a	n/a	n/a	n/a	n/a	fixation
260777.36406742467	2750	n/a	1201	89	2750	305.635932575	stim	stop-signal	313	860846	0.0-15.8-1.8	beast_fmri_test	273	858690,/,859369,/,860050,/,860730,/	t,t,t,t	<img class = center src='/static/experiments/beast_fmri_test/images/T.png'></img>	89,71	2750.0	test	<img class = center src='/static/experiments/beast_fmri_test/images/redT.png'></img>	go	2300.0	3.0	8.0	go	target	T	89,Middle Finger	71,Index Finger	450.0	800.0	2300.0	1950.0	1.0	n/a	450.0	1.0	go_stim
263527.36406742467	305.6359325753632	n/a	1201	89	2750	305.635932575	stim	stop-signal	313	860846	0.0-15.8-1.8	beast_fmri_test	273	858690,/,859369,/,860050,/,860730,/	t,t,t,t	<img class = center src='/static/experiments/beast_fmri_test/images/T.png'></img>	89,71	2750.0	test	<img class = center src='/static/experiments/beast_fmri_test/images/redT.png'></img>	go	2300.0	3.0	8.0	go	target	T	89,Middle Finger	71,Index Finger	450.0	800.0	2300.0	1950.0	1.0	n/a	450.0	1.0	ITI
264669	500	n/a	-1	-1	500	0.0	fixation	poldrack-single-stim	314	861682	0.0-15.9-0.9	beast_fmri_test	273	861410,/	t	<div class = centerbox2><div class = fixation>+</div></div>	none	500.0	test	n/a	n/a	n/a	n/a	n/a	n/a	n/a	n/a	n/a	n/a	n/a	n/a	n/a	n/a	n/a	n/a	n/a	n/a	fixation
261492.64460664033	800.0	n/a	1187	71	2750	3178.35539336	stim	stop-signal	315	864434	0.0-15.9-1.9	beast_fmri_test	273	862089,/,862769,/,863448,/,864128,/,864808,/,865487,/,866167,/,866846,/,867526,/	t,t,t,t,t,t,t,t,t	<img class = center src='/static/experiments/beast_fmri_test/images/T.png'></img>	89,71	2750.0	test	<img class = center src='/static/experiments/beast_fmri_test/images/redT.png'></img>	stop	1950.0	3.0	9.0	stop	non-target	T	89,Middle Finger	71,Index Finger	450.0	800.0	2300.0	1950.0	0.0	0.0	800.0	n/a	go_stim
263442.64460664033	1950.0	n/a	1187	71	2750	3178.35539336	stim	stop-signal	315	864434	0.0-15.9-1.9	beast_fmri_test	273	862089,/,862769,/,863448,/,864128,/,864808,/,865487,/,866167,/,866846,/,867526,/	t,t,t,t,t,t,t,t,t	<img class = center src='/static/experiments/beast_fmri_test/images/T.png'></img>	89,71	2750.0	test	<img class = center src='/static/experiments/beast_fmri_test/images/redT.png'></img>	stop	1950.0	3.0	9.0	stop	non-target	T	89,Middle Finger	71,Index Finger	450.0	800.0	2300.0	1950.0	0.0	0.0	800.0	n/a	stop_stim
264242.64460664033	3178.3553933596772	n/a	1187	71	2750	3178.35539336	stim	stop-signal	315	864434	0.0-15.9-1.9	beast_fmri_test	273	862089,/,862769,/,863448,/,864128,/,864808,/,865487,/,866167,/,866846,/,867526,/	t,t,t,t,t,t,t,t,t	<img class = center src='/static/experiments/beast_fmri_test/images/T.png'></img>	89,71	2750.0	test	<img class = center src='/static/experiments/beast_fmri_test/images/redT.png'></img>	stop	1950.0	3.0	9.0	stop	non-target	T	89,Middle Finger	71,Index Finger	450.0	800.0	2300.0	1950.0	0.0	0.0	800.0	n/a	ITI
271134	500	n/a	-1	-1	500	0.0	fixation	poldrack-single-stim	316	868147	0.0-15.10-0.10	beast_fmri_test	273	n/a	n/a	<div class = centerbox2><div class = fixation>+</div></div>	none	500.0	test	n/a	n/a	n/a	n/a	n/a	n/a	n/a	n/a	n/a	n/a	n/a	n/a	n/a	n/a	n/a	n/a	n/a	n/a	fixation
269690.85955762293	2750	n/a	1480	71	2750	1445.14044238	stim	stop-signal	317	870899	0.0-15.10-1.10	beast_fmri_test	273	868204,/,868885,/,869564,/,870245,/,870924,/,871604,/,872283,/	t,t,t,t,t,t,t	<img class = center src='/static/experiments/beast_fmri_test/images/V.png'></img>	89,71	2750.0	test	<img class = center src='/static/experiments/beast_fmri_test/images/redV.png'></img>	go	2000.0	3.0	10.0	go	non-target	V	89,Middle Finger	71,Index Finger	450.0	750.0	2300.0	2000.0	1.0	n/a	750.0	1.0	go_stim
272440.85955762293	1445.1404423770355	n/a	1480	71	2750	1445.14044238	stim	stop-signal	317	870899	0.0-15.10-1.10	beast_fmri_test	273	868204,/,868885,/,869564,/,870245,/,870924,/,871604,/,872283,/	t,t,t,t,t,t,t	<img class = center src='/static/experiments/beast_fmri_test/images/V.png'></img>	89,71	2750.0	test	<img class = center src='/static/experiments/beast_fmri_test/images/redV.png'></img>	go	2000.0	3.0	10.0	go	non-target	V	89,Middle Finger	71,Index Finger	450.0	750.0	2300.0	2000.0	1.0	n/a	750.0	1.0	ITI
275867	500	n/a	-1	-1	500	0.0	fixation	poldrack-single-stim	318	872880	0.0-15.11-0.11	beast_fmri_test	273	n/a	n/a	<div class = centerbox2><div class = fixation>+</div></div>	none	500.0	test	n/a	n/a	n/a	n/a	n/a	n/a	n/a	n/a	n/a	n/a	n/a	n/a	n/a	n/a	n/a	n/a	n/a	n/a	fixation
274367.27134003956	2750	n/a	680	71	2750	1499.72865996	stim	stop-signal	319	875630	0.0-15.11-1.11	beast_fmri_test	273	872963,/,873643,/,874324,/,875004,/,875682,/,876362,/,877043,/	t,t,t,t,t,t,t	<img class = center src='/static/experiments/beast_fmri_test/images/P.png'></img>	89,71	2750.0	test	<img class = center src='/static/experiments/beast_fmri_test/images/redP.png'></img>	go	2000.0	3.0	11.0	go	non-target	P	89,Middle Finger	71,Index Finger	450.0	750.0	2300.0	2000.0	1.0	n/a	750.0	1.0	go_stim
277117.27134003956	1499.7286599604545	n/a	680	71	2750	1499.72865996	stim	stop-signal	319	875630	0.0-15.11-1.11	beast_fmri_test	273	872963,/,873643,/,874324,/,875004,/,875682,/,876362,/,877043,/	t,t,t,t,t,t,t	<img class = center src='/static/experiments/beast_fmri_test/images/P.png'></img>	89,71	2750.0	test	<img class = center src='/static/experiments/beast_fmri_test/images/redP.png'></img>	go	2000.0	3.0	11.0	go	non-target	P	89,Middle Finger	71,Index Finger	450.0	750.0	2300.0	2000.0	1.0	n/a	750.0	1.0	ITI
280654	500	n/a	-1	-1	500	0.0	fixation	poldrack-single-stim	320	877667	0.0-15.12-0.12	beast_fmri_test	273	n/a	n/a	<div class = centerbox2><div class = fixation>+</div></div>	none	500.0	test	n/a	n/a	n/a	n/a	n/a	n/a	n/a	n/a	n/a	n/a	n/a	n/a	n/a	n/a	n/a	n/a	n/a	n/a	fixation
280111.58663075068	2750	n/a	1248	71	2750	544.413369249	stim	stop-signal	321	880419	0.0-15.12-1.12	beast_fmri_test	273	877721,/,878402,/,879082,/,879762,/,880439,/	t,t,t,t,t	<img class = center src='/static/experiments/beast_fmri_test/images/D.png'></img>	89,71	2750.0	test	<img class = center src='/static/experiments/beast_fmri_test/images/redD.png'></img>	go	2000.0	3.0	12.0	go	non-target	D	89,Middle Finger	71,Index Finger	450.0	750.0	2300.0	2000.0	1.0	n/a	750.0	1.0	go_stim
282861.58663075068	544.41336924931431	n/a	1248	71	2750	544.413369249	stim	stop-signal	321	880419	0.0-15.12-1.12	beast_fmri_test	273	877721,/,878402,/,879082,/,879762,/,880439,/	t,t,t,t,t	<img class = center src='/static/experiments/beast_fmri_test/images/D.png'></img>	89,71	2750.0	test	<img class = center src='/static/experiments/beast_fmri_test/images/redD.png'></img>	go	2000.0	3.0	12.0	go	non-target	D	89,Middle Finger	71,Index Finger	450.0	750.0	2300.0	2000.0	1.0	n/a	750.0	1.0	ITI
284490	500	n/a	-1	-1	500	0.0	fixation	poldrack-single-stim	322	881503	0.0-15.13-0.13	beast_fmri_test	273	881119,/	t	<div class = centerbox2><div class = fixation>+</div></div>	none	500.0	test	n/a	n/a	n/a	n/a	n/a	n/a	n/a	n/a	n/a	n/a	n/a	n/a	n/a	n/a	n/a	n/a	n/a	n/a	fixation
284488.47295790329	2750	n/a	1307	89	2750	2.52704209674	stim	stop-signal	323	884254	0.0-15.13-1.13	beast_fmri_test	273	881800,/,882480,/,883159,/,883838,/	t,t,t,t	<img class = center src='/static/experiments/beast_fmri_test/images/B.png'></img>	89,71	2750.0	test	<img class = center src='/static/experiments/beast_fmri_test/images/redB.png'></img>	go	2000.0	3.0	13.0	go	non-target	B	89,Middle Finger	71,Index Finger	450.0	750.0	2300.0	2000.0	0.0	n/a	750.0	0.0	go_stim
287238.47295790329	2.527042096735526	n/a	1307	89	2750	2.52704209674	stim	stop-signal	323	884254	0.0-15.13-1.13	beast_fmri_test	273	881800,/,882480,/,883159,/,883838,/	t,t,t,t	<img class = center src='/static/experiments/beast_fmri_test/images/B.png'></img>	89,71	2750.0	test	<img class = center src='/static/experiments/beast_fmri_test/images/redB.png'></img>	go	2000.0	3.0	13.0	go	non-target	B	89,Middle Finger	71,Index Finger	450.0	750.0	2300.0	2000.0	0.0	n/a	750.0	0.0	ITI
287784	500	n/a	-1	-1	500	0.0	fixation	poldrack-single-stim	324	884797	0.0-15.14-0.14	beast_fmri_test	273	884519,/	t	<div class = centerbox2><div class = fixation>+</div></div>	none	500.0	test	n/a	n/a	n/a	n/a	n/a	n/a	n/a	n/a	n/a	n/a	n/a	n/a	n/a	n/a	n/a	n/a	n/a	n/a	fixation
287004.74751127872	2750	n/a	982	71	2750	780.252488721	stim	stop-signal	325	887548	0.0-15.14-1.14	beast_fmri_test	273	885198,/,885877,/,886557,/,887237,/,887917,/	t,t,t,t,t	<img class = center src='/static/experiments/beast_fmri_test/images/D.png'></img>	89,71	2750.0	test	<img class = center src='/static/experiments/beast_fmri_test/images/redD.png'></img>	go	2000.0	3.0	14.0	go	non-target	D	89,Middle Finger	71,Index Finger	450.0	750.0	2300.0	2000.0	1.0	n/a	750.0	1.0	go_stim
289754.74751127872	780.2524887212528	n/a	982	71	2750	780.252488721	stim	stop-signal	325	887548	0.0-15.14-1.14	beast_fmri_test	273	885198,/,885877,/,886557,/,887237,/,887917,/	t,t,t,t,t	<img class = center src='/static/experiments/beast_fmri_test/images/D.png'></img>	89,71	2750.0	test	<img class = center src='/static/experiments/beast_fmri_test/images/redD.png'></img>	go	2000.0	3.0	14.0	go	non-target	D	89,Middle Finger	71,Index Finger	450.0	750.0	2300.0	2000.0	1.0	n/a	750.0	1.0	ITI
291852	500	n/a	-1	-1	500	0.0	fixation	poldrack-single-stim	326	888865	0.0-15.15-0.15	beast_fmri_test	273	888597,/	t	<div class = centerbox2><div class = fixation>+</div></div>	none	500.0	test	n/a	n/a	n/a	n/a	n/a	n/a	n/a	n/a	n/a	n/a	n/a	n/a	n/a	n/a	n/a	n/a	n/a	n/a	fixation
291817.78170236794	2750	n/a	973	71	2750	35.218297632	stim	stop-signal	327	891616	0.0-15.15-1.15	beast_fmri_test	273	889275,/,889956,/,890635,/,891315,/	t,t,t,t	<img class = center src='/static/experiments/beast_fmri_test/images/D.png'></img>	89,71	2750.0	test	<img class = center src='/static/experiments/beast_fmri_test/images/redD.png'></img>	go	2300.0	3.0	15.0	go	target	D	89,Middle Finger	71,Index Finger	450.0	750.0	2300.0	2000.0	0.0	n/a	450.0	0.0	go_stim
294567.78170236794	35.218297632031408	n/a	973	71	2750	35.218297632	stim	stop-signal	327	891616	0.0-15.15-1.15	beast_fmri_test	273	889275,/,889956,/,890635,/,891315,/	t,t,t,t	<img class = center src='/static/experiments/beast_fmri_test/images/D.png'></img>	89,71	2750.0	test	<img class = center src='/static/experiments/beast_fmri_test/images/redD.png'></img>	go	2300.0	3.0	15.0	go	target	D	89,Middle Finger	71,Index Finger	450.0	750.0	2300.0	2000.0	0.0	n/a	450.0	0.0	ITI
295175	500	n/a	-1	-1	500	0.0	fixation	poldrack-single-stim	328	892188	0.0-15.16-0.16	beast_fmri_test	273	891994,/	t	<div class = centerbox2><div class = fixation>+</div></div>	none	500.0	test	n/a	n/a	n/a	n/a	n/a	n/a	n/a	n/a	n/a	n/a	n/a	n/a	n/a	n/a	n/a	n/a	n/a	n/a	fixation
293363.40483221144	450.0	n/a	-1	-1	2750	1813.59516779	stim	stop-signal	329	894940	0.0-15.16-1.16	beast_fmri_test	273	892675,/,893354,/,894034,/,894714,/,895393,/,896073,/,896752,/	t,t,t,t,t,t,t	<img class = center src='/static/experiments/beast_fmri_test/images/B.png'></img>	89,71	2750.0	test	<img class = center src='/static/experiments/beast_fmri_test/images/redB.png'></img>	stop	2300.0	3.0	16.0	stop	target	B	89,Middle Finger	71,Index Finger	450.0	750.0	2300.0	2000.0	0.0	1.0	450.0	n/a	go_stim
295663.40483221144	2300.0	n/a	-1	-1	2750	1813.59516779	stim	stop-signal	329	894940	0.0-15.16-1.16	beast_fmri_test	273	892675,/,893354,/,894034,/,894714,/,895393,/,896073,/,896752,/	t,t,t,t,t,t,t	<img class = center src='/static/experiments/beast_fmri_test/images/B.png'></img>	89,71	2750.0	test	<img class = center src='/static/experiments/beast_fmri_test/images/redB.png'></img>	stop	2300.0	3.0	16.0	stop	target	B	89,Middle Finger	71,Index Finger	450.0	750.0	2300.0	2000.0	0.0	1.0	450.0	n/a	stop_stim
296113.40483221144	1813.5951677886126	n/a	-1	-1	2750	1813.59516779	stim	stop-signal	329	894940	0.0-15.16-1.16	beast_fmri_test	273	892675,/,893354,/,894034,/,894714,/,895393,/,896073,/,896752,/	t,t,t,t,t,t,t	<img class = center src='/static/experiments/beast_fmri_test/images/B.png'></img>	89,71	2750.0	test	<img class = center src='/static/experiments/beast_fmri_test/images/redB.png'></img>	stop	2300.0	3.0	16.0	stop	target	B	89,Middle Finger	71,Index Finger	450.0	750.0	2300.0	2000.0	0.0	1.0	450.0	n/a	ITI
300275	500	n/a	-1	-1	500	0.0	fixation	poldrack-single-stim	330	897288	0.0-15.17-0.17	beast_fmri_test	273	n/a	n/a	<div class = centerbox2><div class = fixation>+</div></div>	none	500.0	test	n/a	n/a	n/a	n/a	n/a	n/a	n/a	n/a	n/a	n/a	n/a	n/a	n/a	n/a	n/a	n/a	n/a	n/a	fixation
299286.68923245464	2750	n/a	971	71	2750	990.310767545	stim	stop-signal	331	900040	0.0-15.17-1.17	beast_fmri_test	273	897432,/,898112,/,898792,/,899471,/,900152,/,900831,/	t,t,t,t,t,t	<img class = center src='/static/experiments/beast_fmri_test/images/V.png'></img>	89,71	2750.0	test	<img class = center src='/static/experiments/beast_fmri_test/images/redV.png'></img>	go	2000.0	3.0	17.0	go	non-target	V	89,Middle Finger	71,Index Finger	500.0	750.0	2300.0	2000.0	1.0	n/a	750.0	1.0	go_stim
302036.68923245464	990.31076754537401	n/a	971	71	2750	990.310767545	stim	stop-signal	331	900040	0.0-15.17-1.17	beast_fmri_test	273	897432,/,898112,/,898792,/,899471,/,900152,/,900831,/	t,t,t,t,t,t	<img class = center src='/static/experiments/beast_fmri_test/images/V.png'></img>	89,71	2750.0	test	<img class = center src='/static/experiments/beast_fmri_test/images/redV.png'></img>	go	2000.0	3.0	17.0	go	non-target	V	89,Middle Finger	71,Index Finger	500.0	750.0	2300.0	2000.0	1.0	n/a	750.0	1.0	ITI
304554	500	n/a	-1	-1	500	0.0	fixation	poldrack-single-stim	332	901567	0.0-15.18-0.18	beast_fmri_test	273	901511,/	t	<div class = centerbox2><div class = fixation>+</div></div>	none	500.0	test	n/a	n/a	n/a	n/a	n/a	n/a	n/a	n/a	n/a	n/a	n/a	n/a	n/a	n/a	n/a	n/a	n/a	n/a	fixation
303551.95298525435	750.0	n/a	1008	71	2750	1004.04701475	stim	stop-signal	333	904319	0.0-15.18-1.18	beast_fmri_test	273	902191,/,902870,/,903550,/,904229,/,904909,/	t,t,t,t,t	<img class = center src='/static/experiments/beast_fmri_test/images/P.png'></img>	89,71	2750.0	test	<img class = center src='/static/experiments/beast_fmri_test/images/redP.png'></img>	stop	2000.0	3.0	18.0	stop	non-target	P	89,Middle Finger	71,Index Finger	500.0	750.0	2300.0	2000.0	0.0	0.0	750.0	n/a	go_stim
305551.95298525435	2000.0	n/a	1008	71	2750	1004.04701475	stim	stop-signal	333	904319	0.0-15.18-1.18	beast_fmri_test	273	902191,/,902870,/,903550,/,904229,/,904909,/	t,t,t,t,t	<img class = center src='/static/experiments/beast_fmri_test/images/P.png'></img>	89,71	2750.0	test	<img class = center src='/static/experiments/beast_fmri_test/images/redP.png'></img>	stop	2000.0	3.0	18.0	stop	non-target	P	89,Middle Finger	71,Index Finger	500.0	750.0	2300.0	2000.0	0.0	0.0	750.0	n/a	stop_stim
306301.95298525435	1004.0470147456157	n/a	1008	71	2750	1004.04701475	stim	stop-signal	333	904319	0.0-15.18-1.18	beast_fmri_test	273	902191,/,902870,/,903550,/,904229,/,904909,/	t,t,t,t,t	<img class = center src='/static/experiments/beast_fmri_test/images/P.png'></img>	89,71	2750.0	test	<img class = center src='/static/experiments/beast_fmri_test/images/redP.png'></img>	stop	2000.0	3.0	18.0	stop	non-target	P	89,Middle Finger	71,Index Finger	500.0	750.0	2300.0	2000.0	0.0	0.0	750.0	n/a	ITI
308846	500	n/a	-1	-1	500	0.0	fixation	poldrack-single-stim	334	905859	0.0-15.19-0.19	beast_fmri_test	273	905588,/	t	<div class = centerbox2><div class = fixation>+</div></div>	none	500.0	test	n/a	n/a	n/a	n/a	n/a	n/a	n/a	n/a	n/a	n/a	n/a	n/a	n/a	n/a	n/a	n/a	n/a	n/a	fixation
308716.17363609618	2750	n/a	972	71	2750	131.826363904	stim	stop-signal	335	908611	0.0-15.19-1.19	beast_fmri_test	273	906269,/,906949,/,907628,/,908308,/	t,t,t,t	<img class = center src='/static/experiments/beast_fmri_test/images/T.png'></img>	89,71	2750.0	test	<img class = center src='/static/experiments/beast_fmri_test/images/redT.png'></img>	go	2050.0	3.0	19.0	go	non-target	T	89,Middle Finger	71,Index Finger	500.0	700.0	2300.0	2050.0	1.0	n/a	700.0	1.0	go_stim
311466.17363609618	131.82636390380873	n/a	972	71	2750	131.826363904	stim	stop-signal	335	908611	0.0-15.19-1.19	beast_fmri_test	273	906269,/,906949,/,907628,/,908308,/	t,t,t,t	<img class = center src='/static/experiments/beast_fmri_test/images/T.png'></img>	89,71	2750.0	test	<img class = center src='/static/experiments/beast_fmri_test/images/redT.png'></img>	go	2050.0	3.0	19.0	go	non-target	T	89,Middle Finger	71,Index Finger	500.0	700.0	2300.0	2050.0	1.0	n/a	700.0	1.0	ITI
312263	500	n/a	-1	-1	500	0.0	fixation	poldrack-single-stim	336	909276	0.0-15.20-0.20	beast_fmri_test	273	908988,/	t	<div class = centerbox2><div class = fixation>+</div></div>	none	500.0	test	n/a	n/a	n/a	n/a	n/a	n/a	n/a	n/a	n/a	n/a	n/a	n/a	n/a	n/a	n/a	n/a	n/a	n/a	fixation
311263.42492714431	2750	n/a	1124	89	2750	1002.57507286	stim	stop-signal	337	912029	0.0-15.20-1.20	beast_fmri_test	273	909666,/,910348,/,911026,/,911706,/,912386,/	t,t,t,t,t	<img class = center src='/static/experiments/beast_fmri_test/images/D.png'></img>	89,71	2750.0	test	<img class = center src='/static/experiments/beast_fmri_test/images/redD.png'></img>	go	2050.0	3.0	20.0	go	non-target	D	89,Middle Finger	71,Index Finger	500.0	700.0	2300.0	2050.0	0.0	n/a	700.0	0.0	go_stim
314013.42492714431	1002.575072855694	n/a	1124	89	2750	1002.57507286	stim	stop-signal	337	912029	0.0-15.20-1.20	beast_fmri_test	273	909666,/,910348,/,911026,/,911706,/,912386,/	t,t,t,t,t	<img class = center src='/static/experiments/beast_fmri_test/images/D.png'></img>	89,71	2750.0	test	<img class = center src='/static/experiments/beast_fmri_test/images/redD.png'></img>	go	2050.0	3.0	20.0	go	non-target	D	89,Middle Finger	71,Index Finger	500.0	700.0	2300.0	2050.0	0.0	n/a	700.0	0.0	ITI
316557	500	n/a	-1	-1	500	0.0	fixation	poldrack-single-stim	338	913570	0.0-15.21-0.21	beast_fmri_test	273	913068,/	t	<div class = centerbox2><div class = fixation>+</div></div>	none	500.0	test	n/a	n/a	n/a	n/a	n/a	n/a	n/a	n/a	n/a	n/a	n/a	n/a	n/a	n/a	n/a	n/a	n/a	n/a	fixation
315771.10723912914	2750	n/a	1249	71	2750	785.892760871	stim	stop-signal	339	916320	0.0-15.21-1.21	beast_fmri_test	273	913746,/,914425,/,915103,/,915783,/,916464,/	t,t,t,t,t	<img class = center src='/static/experiments/beast_fmri_test/images/T.png'></img>	89,71	2750.0	test	<img class = center src='/static/experiments/beast_fmri_test/images/redT.png'></img>	go	2050.0	3.0	21.0	go	non-target	T	89,Middle Finger	71,Index Finger	500.0	700.0	2300.0	2050.0	1.0	n/a	700.0	1.0	go_stim
318521.10723912914	785.89276087085057	n/a	1249	71	2750	785.892760871	stim	stop-signal	339	916320	0.0-15.21-1.21	beast_fmri_test	273	913746,/,914425,/,915103,/,915783,/,916464,/	t,t,t,t,t	<img class = center src='/static/experiments/beast_fmri_test/images/T.png'></img>	89,71	2750.0	test	<img class = center src='/static/experiments/beast_fmri_test/images/redT.png'></img>	go	2050.0	3.0	21.0	go	non-target	T	89,Middle Finger	71,Index Finger	500.0	700.0	2300.0	2050.0	1.0	n/a	700.0	1.0	ITI
320629	500	n/a	-1	-1	500	0.0	fixation	poldrack-single-stim	340	917642	0.0-15.22-0.22	beast_fmri_test	273	917143,/	t	<div class = centerbox2><div class = fixation>+</div></div>	none	500.0	test	n/a	n/a	n/a	n/a	n/a	n/a	n/a	n/a	n/a	n/a	n/a	n/a	n/a	n/a	n/a	n/a	n/a	n/a	fixation
320031.05456349207	500.0	n/a	-1	-1	2750	598.945436508	stim	stop-signal	341	920393	0.0-15.22-1.22	beast_fmri_test	273	917823,/,918503,/,919183,/,919861,/,920540,/	t,t,t,t,t	<img class = center src='/static/experiments/beast_fmri_test/images/T.png'></img>	89,71	2750.0	test	<img class = center src='/static/experiments/beast_fmri_test/images/redT.png'></img>	stop	2250.0	3.0	22.0	stop	target	T	89,Middle Finger	71,Index Finger	500.0	700.0	2250.0	2050.0	0.0	1.0	500.0	n/a	go_stim
322281.05456349207	2250.0	n/a	-1	-1	2750	598.945436508	stim	stop-signal	341	920393	0.0-15.22-1.22	beast_fmri_test	273	917823,/,918503,/,919183,/,919861,/,920540,/	t,t,t,t,t	<img class = center src='/static/experiments/beast_fmri_test/images/T.png'></img>	89,71	2750.0	test	<img class = center src='/static/experiments/beast_fmri_test/images/redT.png'></img>	stop	2250.0	3.0	22.0	stop	target	T	89,Middle Finger	71,Index Finger	500.0	700.0	2250.0	2050.0	0.0	1.0	500.0	n/a	stop_stim
322781.05456349207	598.94543650796527	n/a	-1	-1	2750	598.945436508	stim	stop-signal	341	920393	0.0-15.22-1.22	beast_fmri_test	273	917823,/,918503,/,919183,/,919861,/,920540,/	t,t,t,t,t	<img class = center src='/static/experiments/beast_fmri_test/images/T.png'></img>	89,71	2750.0	test	<img class = center src='/static/experiments/beast_fmri_test/images/redT.png'></img>	stop	2250.0	3.0	22.0	stop	target	T	89,Middle Finger	71,Index Finger	500.0	700.0	2250.0	2050.0	0.0	1.0	500.0	n/a	ITI
324514	500	n/a	-1	-1	500	0.0	fixation	poldrack-single-stim	342	921527	0.0-15.23-0.23	beast_fmri_test	273	921220,/	t	<div class = centerbox2><div class = fixation>+</div></div>	none	500.0	test	n/a	n/a	n/a	n/a	n/a	n/a	n/a	n/a	n/a	n/a	n/a	n/a	n/a	n/a	n/a	n/a	n/a	n/a	fixation
323602.31838529732	2750	n/a	778	89	2750	914.681614703	stim	stop-signal	343	924280	0.0-15.23-1.23	beast_fmri_test	273	921901,/,922581,/,923260,/,923939,/,924619,/	t,t,t,t,t	<img class = center src='/static/experiments/beast_fmri_test/images/D.png'></img>	89,71	2750.0	test	<img class = center src='/static/experiments/beast_fmri_test/images/redD.png'></img>	go	2200.0	3.0	23.0	go	target	D	89,Middle Finger	71,Index Finger	550.0	700.0	2200.0	2050.0	1.0	n/a	550.0	1.0	go_stim
326352.31838529732	914.68161470266284	n/a	778	89	2750	914.681614703	stim	stop-signal	343	924280	0.0-15.23-1.23	beast_fmri_test	273	921901,/,922581,/,923260,/,923939,/,924619,/	t,t,t,t,t	<img class = center src='/static/experiments/beast_fmri_test/images/D.png'></img>	89,71	2750.0	test	<img class = center src='/static/experiments/beast_fmri_test/images/redD.png'></img>	go	2200.0	3.0	23.0	go	target	D	89,Middle Finger	71,Index Finger	550.0	700.0	2200.0	2050.0	1.0	n/a	550.0	1.0	ITI
