onset	duration	"“text"""	rt	key_press	block_duration	timing_post_trial	trial_id	trial_type	trial_index	time_elapsed	internal_node_id	exp_id	subject_id	trigger_times	triggers	stimulus	possible_responses	stim_duration	exp_stage	SS_stimulus	SS_trial_type	SS_duration	load	trial_num	stop_trial_type	adaptive_trial_type	stim	yes_response_key	no_response_key	SSD_target	SSD_non_target	SSTarget	SSNonTarget	go_acc	stop_acc	SS_delay	adaptive_acc	new_trial_type
test	10880	n/a	-1	-1	10880	0.0	practice-no-stop-feedback	poldrack-single-stim	6	92772	0.0-6.0	beast_fmri_test	273	81896,/,82572,/,83254,/,83933,/,84613,/,85292,/,85972,/,86650,/,87331,/,88011,/,88691,/,89371,/,90049,/,90729,/,91409,/,92089,/,92767,/	t,t,t,t,t,t,t,t,t,t,t,t,t,t,t,t,t	"<div class = ""centerbox""><p class = ""block-text"">Your delay is 2 trials.</p><p class = block-text>Please wait for the scanner to start the block</p></div>"	77	10880.0	n/a	n/a	n/a	n/a	n/a	n/a	n/a	n/a	n/a	n/a	n/a	n/a	n/a	n/a	n/a	n/a	n/a	n/a	n/a	start_functional_block
11378	500	n/a	-1	-1	500	0.0	fixation	poldrack-single-stim	7	93274	0.0-7.0-0.0	beast_fmri_test	273	n/a	n/a	<div class = centerbox2><div class = fixation>+</div></div>	none	500.0	test	n/a	n/a	n/a	n/a	n/a	n/a	n/a	n/a	n/a	n/a	n/a	n/a	n/a	n/a	n/a	n/a	n/a	n/a	fixation
10238.102221318462	temp_go_duration	n/a	-1	-1	2750	1144.89777868	stim	stop-signal	8	96029	0.0-7.0-1.0	beast_fmri_test	273	93449,/,94128,/,94807,/,95486,/,96166,/,96846,/	t,t,t,t,t,t	<img class = center src='/static/experiments/beast_fmri_test/images/P.png'></img>	89,71	2750.0	test	<img class = center src='/static/experiments/beast_fmri_test/images/redP.png'></img>	stop	-1.0	2.0	0.0	stop	temp-non-target	P	89,Middle Finger	71,Index Finger	500.0	500.0	0.0	0.0	0.0	1.0	n/a	n/a	go_stim
temp-non-target	temp_stop_duration	n/a	-1	-1	2750	1144.89777868	stim	stop-signal	8	96029	0.0-7.0-1.0	beast_fmri_test	273	93449,/,94128,/,94807,/,95486,/,96166,/,96846,/	t,t,t,t,t,t	<img class = center src='/static/experiments/beast_fmri_test/images/P.png'></img>	89,71	2750.0	test	<img class = center src='/static/experiments/beast_fmri_test/images/redP.png'></img>	stop	-1.0	2.0	0.0	stop	temp-non-target	P	89,Middle Finger	71,Index Finger	500.0	500.0	0.0	0.0	0.0	1.0	n/a	n/a	stop_stim
12988.102221318462	1144.8977786815306	n/a	-1	-1	2750	1144.89777868	stim	stop-signal	8	96029	0.0-7.0-1.0	beast_fmri_test	273	93449,/,94128,/,94807,/,95486,/,96166,/,96846,/	t,t,t,t,t,t	<img class = center src='/static/experiments/beast_fmri_test/images/P.png'></img>	89,71	2750.0	test	<img class = center src='/static/experiments/beast_fmri_test/images/redP.png'></img>	stop	-1.0	2.0	0.0	stop	temp-non-target	P	89,Middle Finger	71,Index Finger	500.0	500.0	0.0	0.0	0.0	1.0	n/a	n/a	ITI
15788	500	n/a	-1	-1	500	0.0	fixation	poldrack-single-stim	9	97684	0.0-7.1-0.1	beast_fmri_test	273	97527,/	t	<div class = centerbox2><div class = fixation>+</div></div>	none	500.0	test	n/a	n/a	n/a	n/a	n/a	n/a	n/a	n/a	n/a	n/a	n/a	n/a	n/a	n/a	n/a	n/a	n/a	n/a	fixation
14739.466695207288	temp_go_duration	n/a	-1	-1	2750	1051.53330479	stim	stop-signal	10	100437	0.0-7.1-1.1	beast_fmri_test	273	98206,/,98886,/,99564,/,100244,/,100924,/	t,t,t,t,t	<img class = center src='/static/experiments/beast_fmri_test/images/D.png'></img>	89,71	2750.0	test	<img class = center src='/static/experiments/beast_fmri_test/images/redD.png'></img>	stop	-1.0	2.0	1.0	stop	temp-non-target	D	89,Middle Finger	71,Index Finger	500.0	500.0	0.0	0.0	0.0	1.0	n/a	n/a	go_stim
temp-non-target	temp_stop_duration	n/a	-1	-1	2750	1051.53330479	stim	stop-signal	10	100437	0.0-7.1-1.1	beast_fmri_test	273	98206,/,98886,/,99564,/,100244,/,100924,/	t,t,t,t,t	<img class = center src='/static/experiments/beast_fmri_test/images/D.png'></img>	89,71	2750.0	test	<img class = center src='/static/experiments/beast_fmri_test/images/redD.png'></img>	stop	-1.0	2.0	1.0	stop	temp-non-target	D	89,Middle Finger	71,Index Finger	500.0	500.0	0.0	0.0	0.0	1.0	n/a	n/a	stop_stim
17489.466695207288	1051.5333047927131	n/a	-1	-1	2750	1051.53330479	stim	stop-signal	10	100437	0.0-7.1-1.1	beast_fmri_test	273	98206,/,98886,/,99564,/,100244,/,100924,/	t,t,t,t,t	<img class = center src='/static/experiments/beast_fmri_test/images/D.png'></img>	89,71	2750.0	test	<img class = center src='/static/experiments/beast_fmri_test/images/redD.png'></img>	stop	-1.0	2.0	1.0	stop	temp-non-target	D	89,Middle Finger	71,Index Finger	500.0	500.0	0.0	0.0	0.0	1.0	n/a	n/a	ITI
20097	500	n/a	-1	-1	500	0.0	fixation	poldrack-single-stim	11	101993	0.0-7.2-0.2	beast_fmri_test	273	101604,/	t	<div class = centerbox2><div class = fixation>+</div></div>	none	500.0	test	n/a	n/a	n/a	n/a	n/a	n/a	n/a	n/a	n/a	n/a	n/a	n/a	n/a	n/a	n/a	n/a	n/a	n/a	fixation
19687.437357171875	500.0	n/a	527	89	2750	412.562642828	stim	stop-signal	12	104746	0.0-7.2-1.2	beast_fmri_test	273	102284,/,102962,/,103643,/,104323,/,105002,/	t,t,t,t,t	<img class = center src='/static/experiments/beast_fmri_test/images/P.png'></img>	89,71	2750.0	test	<img class = center src='/static/experiments/beast_fmri_test/images/redP.png'></img>	stop	2250.0	2.0	2.0	stop	target	P	89,Middle Finger	71,Index Finger	500.0	500.0	2250.0	0.0	0.0	0.0	500.0	n/a	go_stim
21937.437357171875	2250.0	n/a	527	89	2750	412.562642828	stim	stop-signal	12	104746	0.0-7.2-1.2	beast_fmri_test	273	102284,/,102962,/,103643,/,104323,/,105002,/	t,t,t,t,t	<img class = center src='/static/experiments/beast_fmri_test/images/P.png'></img>	89,71	2750.0	test	<img class = center src='/static/experiments/beast_fmri_test/images/redP.png'></img>	stop	2250.0	2.0	2.0	stop	target	P	89,Middle Finger	71,Index Finger	500.0	500.0	2250.0	0.0	0.0	0.0	500.0	n/a	stop_stim
22437.437357171875	412.56264282811998	n/a	527	89	2750	412.562642828	stim	stop-signal	12	104746	0.0-7.2-1.2	beast_fmri_test	273	102284,/,102962,/,103643,/,104323,/,105002,/	t,t,t,t,t	<img class = center src='/static/experiments/beast_fmri_test/images/P.png'></img>	89,71	2750.0	test	<img class = center src='/static/experiments/beast_fmri_test/images/redP.png'></img>	stop	2250.0	2.0	2.0	stop	target	P	89,Middle Finger	71,Index Finger	500.0	500.0	2250.0	0.0	0.0	0.0	500.0	n/a	ITI
23771	500	n/a	-1	-1	500	0.0	fixation	poldrack-single-stim	13	105667	0.0-7.3-0.3	beast_fmri_test	273	n/a	n/a	<div class = centerbox2><div class = fixation>+</div></div>	none	500.0	test	n/a	n/a	n/a	n/a	n/a	n/a	n/a	n/a	n/a	n/a	n/a	n/a	n/a	n/a	n/a	n/a	n/a	n/a	fixation
23680.135460514401	2750	n/a	1406	71	2750	92.8645394856	stim	stop-signal	14	108419	0.0-7.3-1.3	beast_fmri_test	273	105682,/,106363,/,107042,/,107722,/,108402,/	t,t,t,t,t	<img class = center src='/static/experiments/beast_fmri_test/images/T.png'></img>	89,71	2750.0	test	<img class = center src='/static/experiments/beast_fmri_test/images/redT.png'></img>	go	2250.0	2.0	3.0	go	non-target	T	89,Middle Finger	71,Index Finger	450.0	500.0	2250.0	2250.0	1.0	n/a	500.0	1.0	go_stim
26430.135460514401	92.864539485597987	n/a	1406	71	2750	92.8645394856	stim	stop-signal	14	108419	0.0-7.3-1.3	beast_fmri_test	273	105682,/,106363,/,107042,/,107722,/,108402,/	t,t,t,t,t	<img class = center src='/static/experiments/beast_fmri_test/images/T.png'></img>	89,71	2750.0	test	<img class = center src='/static/experiments/beast_fmri_test/images/redT.png'></img>	go	2250.0	2.0	3.0	go	non-target	T	89,Middle Finger	71,Index Finger	450.0	500.0	2250.0	2250.0	1.0	n/a	500.0	1.0	ITI
27122	500	n/a	-1	-1	500	0.0	fixation	poldrack-single-stim	15	109018	0.0-7.4-0.4	beast_fmri_test	273	n/a	n/a	<div class = centerbox2><div class = fixation>+</div></div>	none	500.0	test	n/a	n/a	n/a	n/a	n/a	n/a	n/a	n/a	n/a	n/a	n/a	n/a	n/a	n/a	n/a	n/a	n/a	n/a	fixation
25830.813043746166	2750	n/a	931	89	2750	1294.18695625	stim	stop-signal	16	111771	0.0-7.4-1.4	beast_fmri_test	273	109082,/,109760,/,110439,/,111119,/,111800,/,112479,/	t,t,t,t,t,t	<img class = center src='/static/experiments/beast_fmri_test/images/P.png'></img>	89,71	2750.0	test	<img class = center src='/static/experiments/beast_fmri_test/images/redP.png'></img>	go	2300.0	2.0	4.0	go	target	P	89,Middle Finger	71,Index Finger	450.0	500.0	2300.0	2250.0	1.0	n/a	450.0	1.0	go_stim
28580.813043746166	1294.1869562538366	n/a	931	89	2750	1294.18695625	stim	stop-signal	16	111771	0.0-7.4-1.4	beast_fmri_test	273	109082,/,109760,/,110439,/,111119,/,111800,/,112479,/	t,t,t,t,t,t	<img class = center src='/static/experiments/beast_fmri_test/images/P.png'></img>	89,71	2750.0	test	<img class = center src='/static/experiments/beast_fmri_test/images/redP.png'></img>	go	2300.0	2.0	4.0	go	target	P	89,Middle Finger	71,Index Finger	450.0	500.0	2300.0	2250.0	1.0	n/a	450.0	1.0	ITI
31674	500	n/a	-1	-1	500	0.0	fixation	poldrack-single-stim	17	113570	0.0-7.5-0.5	beast_fmri_test	273	113159,/	t	<div class = centerbox2><div class = fixation>+</div></div>	none	500.0	test	n/a	n/a	n/a	n/a	n/a	n/a	n/a	n/a	n/a	n/a	n/a	n/a	n/a	n/a	n/a	n/a	n/a	n/a	fixation
29358.249670108009	500.0	n/a	879	71	2750	2318.75032989	stim	stop-signal	18	116323	0.0-7.5-1.5	beast_fmri_test	273	113838,/,114518,/,115198,/,115878,/,116556,/,117237,/,117917,/,118595,/	t,t,t,t,t,t,t,t	<img class = center src='/static/experiments/beast_fmri_test/images/D.png'></img>	89,71	2750.0	test	<img class = center src='/static/experiments/beast_fmri_test/images/redD.png'></img>	stop	2250.0	2.0	5.0	stop	non-target	D	89,Middle Finger	71,Index Finger	450.0	500.0	2300.0	2250.0	0.0	0.0	500.0	n/a	go_stim
31608.249670108009	2250.0	n/a	879	71	2750	2318.75032989	stim	stop-signal	18	116323	0.0-7.5-1.5	beast_fmri_test	273	113838,/,114518,/,115198,/,115878,/,116556,/,117237,/,117917,/,118595,/	t,t,t,t,t,t,t,t	<img class = center src='/static/experiments/beast_fmri_test/images/D.png'></img>	89,71	2750.0	test	<img class = center src='/static/experiments/beast_fmri_test/images/redD.png'></img>	stop	2250.0	2.0	5.0	stop	non-target	D	89,Middle Finger	71,Index Finger	450.0	500.0	2300.0	2250.0	0.0	0.0	500.0	n/a	stop_stim
32108.249670108009	2318.7503298919851	n/a	879	71	2750	2318.75032989	stim	stop-signal	18	116323	0.0-7.5-1.5	beast_fmri_test	273	113838,/,114518,/,115198,/,115878,/,116556,/,117237,/,117917,/,118595,/	t,t,t,t,t,t,t,t	<img class = center src='/static/experiments/beast_fmri_test/images/D.png'></img>	89,71	2750.0	test	<img class = center src='/static/experiments/beast_fmri_test/images/redD.png'></img>	stop	2250.0	2.0	5.0	stop	non-target	D	89,Middle Finger	71,Index Finger	450.0	500.0	2300.0	2250.0	0.0	0.0	500.0	n/a	ITI
37251	500	n/a	-1	-1	500	0.0	fixation	poldrack-single-stim	19	119147	0.0-7.6-0.6	beast_fmri_test	273	n/a	n/a	<div class = centerbox2><div class = fixation>+</div></div>	none	500.0	test	n/a	n/a	n/a	n/a	n/a	n/a	n/a	n/a	n/a	n/a	n/a	n/a	n/a	n/a	n/a	n/a	n/a	n/a	fixation
36631.868330331563	2750	n/a	807	71	2750	621.131669668	stim	stop-signal	20	121899	0.0-7.6-1.6	beast_fmri_test	273	119275,/,119958,/,120636,/,121315,/,121995,/	t,t,t,t,t	<img class = center src='/static/experiments/beast_fmri_test/images/V.png'></img>	89,71	2750.0	test	<img class = center src='/static/experiments/beast_fmri_test/images/redV.png'></img>	go	2300.0	2.0	6.0	go	non-target	V	89,Middle Finger	71,Index Finger	450.0	450.0	2300.0	2300.0	1.0	n/a	450.0	1.0	go_stim
39381.868330331563	621.13166966844278	n/a	807	71	2750	621.131669668	stim	stop-signal	20	121899	0.0-7.6-1.6	beast_fmri_test	273	119275,/,119958,/,120636,/,121315,/,121995,/	t,t,t,t,t	<img class = center src='/static/experiments/beast_fmri_test/images/V.png'></img>	89,71	2750.0	test	<img class = center src='/static/experiments/beast_fmri_test/images/redV.png'></img>	go	2300.0	2.0	6.0	go	non-target	V	89,Middle Finger	71,Index Finger	450.0	450.0	2300.0	2300.0	1.0	n/a	450.0	1.0	ITI
41131	500	n/a	-1	-1	500	0.0	fixation	poldrack-single-stim	21	123027	0.0-7.7-0.7	beast_fmri_test	273	122675,/	t	<div class = centerbox2><div class = fixation>+</div></div>	none	500.0	test	n/a	n/a	n/a	n/a	n/a	n/a	n/a	n/a	n/a	n/a	n/a	n/a	n/a	n/a	n/a	n/a	n/a	n/a	fixation
40950.380214173492	2750	n/a	1207	71	2750	181.619785827	stim	stop-signal	22	125778	0.0-7.7-1.7	beast_fmri_test	273	123355,/,124033,/,124713,/,125394,/	t,t,t,t	<img class = center src='/static/experiments/beast_fmri_test/images/T.png'></img>	89,71	2750.0	test	<img class = center src='/static/experiments/beast_fmri_test/images/redT.png'></img>	go	2300.0	2.0	7.0	go	non-target	T	89,Middle Finger	71,Index Finger	450.0	450.0	2300.0	2300.0	1.0	n/a	450.0	1.0	go_stim
43700.380214173492	181.61978582650849	n/a	1207	71	2750	181.619785827	stim	stop-signal	22	125778	0.0-7.7-1.7	beast_fmri_test	273	123355,/,124033,/,124713,/,125394,/	t,t,t,t	<img class = center src='/static/experiments/beast_fmri_test/images/T.png'></img>	89,71	2750.0	test	<img class = center src='/static/experiments/beast_fmri_test/images/redT.png'></img>	go	2300.0	2.0	7.0	go	non-target	T	89,Middle Finger	71,Index Finger	450.0	450.0	2300.0	2300.0	1.0	n/a	450.0	1.0	ITI
44570	500	n/a	-1	-1	500	0.0	fixation	poldrack-single-stim	23	126466	0.0-7.8-0.8	beast_fmri_test	273	126074,/	t	<div class = centerbox2><div class = fixation>+</div></div>	none	500.0	test	n/a	n/a	n/a	n/a	n/a	n/a	n/a	n/a	n/a	n/a	n/a	n/a	n/a	n/a	n/a	n/a	n/a	n/a	fixation
44102.419441134785	2750	n/a	663	89	2750	470.580558865	stim	stop-signal	24	129219	0.0-7.8-1.8	beast_fmri_test	273	126752,/,127432,/,128112,/,128791,/,129470,/	t,t,t,t,t	<img class = center src='/static/experiments/beast_fmri_test/images/V.png'></img>	89,71	2750.0	test	<img class = center src='/static/experiments/beast_fmri_test/images/redV.png'></img>	go	2300.0	2.0	8.0	go	target	V	89,Middle Finger	71,Index Finger	450.0	450.0	2300.0	2300.0	1.0	n/a	450.0	1.0	go_stim
46852.419441134785	470.58055886521009	n/a	663	89	2750	470.580558865	stim	stop-signal	24	129219	0.0-7.8-1.8	beast_fmri_test	273	126752,/,127432,/,128112,/,128791,/,129470,/	t,t,t,t,t	<img class = center src='/static/experiments/beast_fmri_test/images/V.png'></img>	89,71	2750.0	test	<img class = center src='/static/experiments/beast_fmri_test/images/redV.png'></img>	go	2300.0	2.0	8.0	go	target	V	89,Middle Finger	71,Index Finger	450.0	450.0	2300.0	2300.0	1.0	n/a	450.0	1.0	ITI
48301	500	n/a	-1	-1	500	0.0	fixation	poldrack-single-stim	25	130197	0.0-7.9-0.9	beast_fmri_test	273	130151,/	t	<div class = centerbox2><div class = fixation>+</div></div>	none	500.0	test	n/a	n/a	n/a	n/a	n/a	n/a	n/a	n/a	n/a	n/a	n/a	n/a	n/a	n/a	n/a	n/a	n/a	n/a	fixation
48151.308384768694	2750	n/a	1250	71	2750	151.691615231	stim	stop-signal	26	132949	0.0-7.9-1.9	beast_fmri_test	273	130830,/,131509,/,132189,/,132869,/	t,t,t,t	<img class = center src='/static/experiments/beast_fmri_test/images/D.png'></img>	89,71	2750.0	test	<img class = center src='/static/experiments/beast_fmri_test/images/redD.png'></img>	go	2300.0	2.0	9.0	go	non-target	D	89,Middle Finger	71,Index Finger	450.0	450.0	2300.0	2300.0	1.0	n/a	450.0	1.0	go_stim
50901.308384768694	151.69161523131663	n/a	1250	71	2750	151.691615231	stim	stop-signal	26	132949	0.0-7.9-1.9	beast_fmri_test	273	130830,/,131509,/,132189,/,132869,/	t,t,t,t	<img class = center src='/static/experiments/beast_fmri_test/images/D.png'></img>	89,71	2750.0	test	<img class = center src='/static/experiments/beast_fmri_test/images/redD.png'></img>	go	2300.0	2.0	9.0	go	non-target	D	89,Middle Finger	71,Index Finger	450.0	450.0	2300.0	2300.0	1.0	n/a	450.0	1.0	ITI
51711	500	n/a	-1	-1	500	0.0	fixation	poldrack-single-stim	27	133607	0.0-7.10-0.10	beast_fmri_test	273	133549,/	t	<div class = centerbox2><div class = fixation>+</div></div>	none	500.0	test	n/a	n/a	n/a	n/a	n/a	n/a	n/a	n/a	n/a	n/a	n/a	n/a	n/a	n/a	n/a	n/a	n/a	n/a	fixation
51698.142557744024	2750	n/a	677	71	2750	15.857442256	stim	stop-signal	28	136360	0.0-7.10-1.10	beast_fmri_test	273	134230,/,134908,/,135588,/,136268,/	t,t,t,t	<img class = center src='/static/experiments/beast_fmri_test/images/P.png'></img>	89,71	2750.0	test	<img class = center src='/static/experiments/beast_fmri_test/images/redP.png'></img>	go	2300.0	2.0	10.0	go	non-target	P	89,Middle Finger	71,Index Finger	450.0	450.0	2300.0	2300.0	1.0	n/a	450.0	1.0	go_stim
54448.142557744024	15.857442255978224	n/a	677	71	2750	15.857442256	stim	stop-signal	28	136360	0.0-7.10-1.10	beast_fmri_test	273	134230,/,134908,/,135588,/,136268,/	t,t,t,t	<img class = center src='/static/experiments/beast_fmri_test/images/P.png'></img>	89,71	2750.0	test	<img class = center src='/static/experiments/beast_fmri_test/images/redP.png'></img>	go	2300.0	2.0	10.0	go	non-target	P	89,Middle Finger	71,Index Finger	450.0	450.0	2300.0	2300.0	1.0	n/a	450.0	1.0	ITI
54987	500	n/a	-1	-1	500	0.0	fixation	poldrack-single-stim	29	136883	0.0-7.11-0.11	beast_fmri_test	273	n/a	n/a	<div class = centerbox2><div class = fixation>+</div></div>	none	500.0	test	n/a	n/a	n/a	n/a	n/a	n/a	n/a	n/a	n/a	n/a	n/a	n/a	n/a	n/a	n/a	n/a	n/a	n/a	fixation
53378.047064943239	2750	n/a	875	89	2750	1610.95293506	stim	stop-signal	30	139635	0.0-7.11-1.11	beast_fmri_test	273	136948,/,137627,/,138308,/,138987,/,139677,/,140348,/,141027,/	t,t,t,t,t,t,t	<img class = center src='/static/experiments/beast_fmri_test/images/D.png'></img>	89,71	2750.0	test	<img class = center src='/static/experiments/beast_fmri_test/images/redD.png'></img>	go	2300.0	2.0	11.0	go	target	D	89,Middle Finger	71,Index Finger	450.0	450.0	2300.0	2300.0	1.0	n/a	450.0	1.0	go_stim
56128.047064943239	1610.9529350567702	n/a	875	89	2750	1610.95293506	stim	stop-signal	30	139635	0.0-7.11-1.11	beast_fmri_test	273	136948,/,137627,/,138308,/,138987,/,139677,/,140348,/,141027,/	t,t,t,t,t,t,t	<img class = center src='/static/experiments/beast_fmri_test/images/D.png'></img>	89,71	2750.0	test	<img class = center src='/static/experiments/beast_fmri_test/images/redD.png'></img>	go	2300.0	2.0	11.0	go	target	D	89,Middle Finger	71,Index Finger	450.0	450.0	2300.0	2300.0	1.0	n/a	450.0	1.0	ITI
59855	500	n/a	-1	-1	500	0.0	fixation	poldrack-single-stim	31	141751	0.0-7.12-0.12	beast_fmri_test	273	141706,/	t	<div class = centerbox2><div class = fixation>+</div></div>	none	500.0	test	n/a	n/a	n/a	n/a	n/a	n/a	n/a	n/a	n/a	n/a	n/a	n/a	n/a	n/a	n/a	n/a	n/a	n/a	fixation
58881.701976418582	2750	n/a	634	71	2750	975.298023581	stim	stop-signal	32	144503	0.0-7.12-1.12	beast_fmri_test	273	142385,/,143065,/,143745,/,144424,/,145104,/	t,t,t,t,t	<img class = center src='/static/experiments/beast_fmri_test/images/B.png'></img>	89,71	2750.0	test	<img class = center src='/static/experiments/beast_fmri_test/images/redB.png'></img>	go	2300.0	2.0	12.0	go	non-target	B	89,Middle Finger	71,Index Finger	450.0	450.0	2300.0	2300.0	1.0	n/a	450.0	1.0	go_stim
61631.701976418582	975.29802358141694	n/a	634	71	2750	975.298023581	stim	stop-signal	32	144503	0.0-7.12-1.12	beast_fmri_test	273	142385,/,143065,/,143745,/,144424,/,145104,/	t,t,t,t,t	<img class = center src='/static/experiments/beast_fmri_test/images/B.png'></img>	89,71	2750.0	test	<img class = center src='/static/experiments/beast_fmri_test/images/redB.png'></img>	go	2300.0	2.0	12.0	go	non-target	B	89,Middle Finger	71,Index Finger	450.0	450.0	2300.0	2300.0	1.0	n/a	450.0	1.0	ITI
64091	500	n/a	-1	-1	500	0.0	fixation	poldrack-single-stim	33	145987	0.0-7.13-0.13	beast_fmri_test	273	145784,/	t	<div class = centerbox2><div class = fixation>+</div></div>	none	500.0	test	n/a	n/a	n/a	n/a	n/a	n/a	n/a	n/a	n/a	n/a	n/a	n/a	n/a	n/a	n/a	n/a	n/a	n/a	fixation
63943.564248672774	2750	n/a	683	89	2750	148.435751327	stim	stop-signal	34	148738	0.0-7.13-1.13	beast_fmri_test	273	146463,/,147143,/,147822,/,148503,/	t,t,t,t	<img class = center src='/static/experiments/beast_fmri_test/images/D.png'></img>	89,71	2750.0	test	<img class = center src='/static/experiments/beast_fmri_test/images/redD.png'></img>	go	2300.0	2.0	13.0	go	target	D	89,Middle Finger	71,Index Finger	450.0	450.0	2300.0	2300.0	1.0	n/a	450.0	1.0	go_stim
66693.564248672774	148.43575132721742	n/a	683	89	2750	148.435751327	stim	stop-signal	34	148738	0.0-7.13-1.13	beast_fmri_test	273	146463,/,147143,/,147822,/,148503,/	t,t,t,t	<img class = center src='/static/experiments/beast_fmri_test/images/D.png'></img>	89,71	2750.0	test	<img class = center src='/static/experiments/beast_fmri_test/images/redD.png'></img>	go	2300.0	2.0	13.0	go	target	D	89,Middle Finger	71,Index Finger	450.0	450.0	2300.0	2300.0	1.0	n/a	450.0	1.0	ITI
67497	500	n/a	-1	-1	500	0.0	fixation	poldrack-single-stim	35	149393	0.0-7.14-0.14	beast_fmri_test	273	149181,/	t	<div class = centerbox2><div class = fixation>+</div></div>	none	500.0	test	n/a	n/a	n/a	n/a	n/a	n/a	n/a	n/a	n/a	n/a	n/a	n/a	n/a	n/a	n/a	n/a	n/a	n/a	fixation
66932.026056882169	450.0	n/a	730	71	2750	566.973943118	stim	stop-signal	36	152145	0.0-7.14-1.14	beast_fmri_test	273	149861,/,150541,/,151221,/,151901,/,152580,/	t,t,t,t,t	<img class = center src='/static/experiments/beast_fmri_test/images/T.png'></img>	89,71	2750.0	test	<img class = center src='/static/experiments/beast_fmri_test/images/redT.png'></img>	stop	2300.0	2.0	14.0	stop	non-target	T	89,Middle Finger	71,Index Finger	450.0	450.0	2300.0	2300.0	0.0	0.0	450.0	n/a	go_stim
69232.026056882169	2300.0	n/a	730	71	2750	566.973943118	stim	stop-signal	36	152145	0.0-7.14-1.14	beast_fmri_test	273	149861,/,150541,/,151221,/,151901,/,152580,/	t,t,t,t,t	<img class = center src='/static/experiments/beast_fmri_test/images/T.png'></img>	89,71	2750.0	test	<img class = center src='/static/experiments/beast_fmri_test/images/redT.png'></img>	stop	2300.0	2.0	14.0	stop	non-target	T	89,Middle Finger	71,Index Finger	450.0	450.0	2300.0	2300.0	0.0	0.0	450.0	n/a	stop_stim
69682.026056882169	566.97394311781738	n/a	730	71	2750	566.973943118	stim	stop-signal	36	152145	0.0-7.14-1.14	beast_fmri_test	273	149861,/,150541,/,151221,/,151901,/,152580,/	t,t,t,t,t	<img class = center src='/static/experiments/beast_fmri_test/images/T.png'></img>	89,71	2750.0	test	<img class = center src='/static/experiments/beast_fmri_test/images/redT.png'></img>	stop	2300.0	2.0	14.0	stop	non-target	T	89,Middle Finger	71,Index Finger	450.0	450.0	2300.0	2300.0	0.0	0.0	450.0	n/a	ITI
71322	500	n/a	-1	-1	500	0.0	fixation	poldrack-single-stim	37	153218	0.0-7.15-0.15	beast_fmri_test	273	n/a	n/a	<div class = centerbox2><div class = fixation>+</div></div>	none	500.0	test	n/a	n/a	n/a	n/a	n/a	n/a	n/a	n/a	n/a	n/a	n/a	n/a	n/a	n/a	n/a	n/a	n/a	n/a	fixation
70435.095220824878	400.0	n/a	-1	-1	2750	889.904779175	stim	stop-signal	38	155971	0.0-7.15-1.15	beast_fmri_test	273	153259,/,153940,/,154620,/,155300,/,155979,/,156657,/	t,t,t,t,t,t	<img class = center src='/static/experiments/beast_fmri_test/images/P.png'></img>	89,71	2750.0	test	<img class = center src='/static/experiments/beast_fmri_test/images/redP.png'></img>	stop	2350.0	2.0	15.0	stop	non-target	P	89,Middle Finger	71,Index Finger	450.0	400.0	2300.0	2350.0	0.0	1.0	400.0	n/a	go_stim
72785.095220824878	2350.0	n/a	-1	-1	2750	889.904779175	stim	stop-signal	38	155971	0.0-7.15-1.15	beast_fmri_test	273	153259,/,153940,/,154620,/,155300,/,155979,/,156657,/	t,t,t,t,t,t	<img class = center src='/static/experiments/beast_fmri_test/images/P.png'></img>	89,71	2750.0	test	<img class = center src='/static/experiments/beast_fmri_test/images/redP.png'></img>	stop	2350.0	2.0	15.0	stop	non-target	P	89,Middle Finger	71,Index Finger	450.0	400.0	2300.0	2350.0	0.0	1.0	400.0	n/a	stop_stim
73185.095220824878	889.9047791751359	n/a	-1	-1	2750	889.904779175	stim	stop-signal	38	155971	0.0-7.15-1.15	beast_fmri_test	273	153259,/,153940,/,154620,/,155300,/,155979,/,156657,/	t,t,t,t,t,t	<img class = center src='/static/experiments/beast_fmri_test/images/P.png'></img>	89,71	2750.0	test	<img class = center src='/static/experiments/beast_fmri_test/images/redP.png'></img>	stop	2350.0	2.0	15.0	stop	non-target	P	89,Middle Finger	71,Index Finger	450.0	400.0	2300.0	2350.0	0.0	1.0	400.0	n/a	ITI
75475	500	n/a	-1	-1	500	0.0	fixation	poldrack-single-stim	39	157371	0.0-7.16-0.16	beast_fmri_test	273	157338,/	t	<div class = centerbox2><div class = fixation>+</div></div>	none	500.0	test	n/a	n/a	n/a	n/a	n/a	n/a	n/a	n/a	n/a	n/a	n/a	n/a	n/a	n/a	n/a	n/a	n/a	n/a	fixation
71553.347207512561	450.0	n/a	-1	-1	2750	3922.65279249	stim	stop-signal	40	160122	0.0-7.16-1.16	beast_fmri_test	273	158017,/,158696,/,159378,/,160057,/,160736,/,161417,/,162096,/,162777,/,163454,/	t,t,t,t,t,t,t,t,t	<img class = center src='/static/experiments/beast_fmri_test/images/B.png'></img>	89,71	2750.0	test	<img class = center src='/static/experiments/beast_fmri_test/images/redB.png'></img>	stop	2300.0	2.0	16.0	stop	non-target	B	89,Middle Finger	71,Index Finger	450.0	450.0	2300.0	2300.0	0.0	1.0	450.0	n/a	go_stim
73853.347207512561	2300.0	n/a	-1	-1	2750	3922.65279249	stim	stop-signal	40	160122	0.0-7.16-1.16	beast_fmri_test	273	158017,/,158696,/,159378,/,160057,/,160736,/,161417,/,162096,/,162777,/,163454,/	t,t,t,t,t,t,t,t,t	<img class = center src='/static/experiments/beast_fmri_test/images/B.png'></img>	89,71	2750.0	test	<img class = center src='/static/experiments/beast_fmri_test/images/redB.png'></img>	stop	2300.0	2.0	16.0	stop	non-target	B	89,Middle Finger	71,Index Finger	450.0	450.0	2300.0	2300.0	0.0	1.0	450.0	n/a	stop_stim
74303.347207512561	3922.6527924874408	n/a	-1	-1	2750	3922.65279249	stim	stop-signal	40	160122	0.0-7.16-1.16	beast_fmri_test	273	158017,/,158696,/,159378,/,160057,/,160736,/,161417,/,162096,/,162777,/,163454,/	t,t,t,t,t,t,t,t,t	<img class = center src='/static/experiments/beast_fmri_test/images/B.png'></img>	89,71	2750.0	test	<img class = center src='/static/experiments/beast_fmri_test/images/redB.png'></img>	stop	2300.0	2.0	16.0	stop	non-target	B	89,Middle Finger	71,Index Finger	450.0	450.0	2300.0	2300.0	0.0	1.0	450.0	n/a	ITI
82657	500	n/a	-1	-1	500	0.0	fixation	poldrack-single-stim	41	164553	0.0-7.17-0.17	beast_fmri_test	273	164135,/	t	<div class = centerbox2><div class = fixation>+</div></div>	none	500.0	test	n/a	n/a	n/a	n/a	n/a	n/a	n/a	n/a	n/a	n/a	n/a	n/a	n/a	n/a	n/a	n/a	n/a	n/a	fixation
78394.073187823378	2750	n/a	969	71	2750	4264.92681218	stim	stop-signal	42	167305	0.0-7.17-1.17	beast_fmri_test	273	164816,/,165495,/,166175,/,166854,/,167534,/,168214,/,168894,/,169573,/,170253,/,170932,/	t,t,t,t,t,t,t,t,t,t	<img class = center src='/static/experiments/beast_fmri_test/images/T.png'></img>	89,71	2750.0	test	<img class = center src='/static/experiments/beast_fmri_test/images/redT.png'></img>	go	2250.0	2.0	17.0	go	non-target	T	89,Middle Finger	71,Index Finger	450.0	500.0	2300.0	2250.0	1.0	n/a	500.0	1.0	go_stim
81144.073187823378	4264.9268121766245	n/a	969	71	2750	4264.92681218	stim	stop-signal	42	167305	0.0-7.17-1.17	beast_fmri_test	273	164816,/,165495,/,166175,/,166854,/,167534,/,168214,/,168894,/,169573,/,170253,/,170932,/	t,t,t,t,t,t,t,t,t,t	<img class = center src='/static/experiments/beast_fmri_test/images/T.png'></img>	89,71	2750.0	test	<img class = center src='/static/experiments/beast_fmri_test/images/redT.png'></img>	go	2250.0	2.0	17.0	go	non-target	T	89,Middle Finger	71,Index Finger	450.0	500.0	2300.0	2250.0	1.0	n/a	500.0	1.0	ITI
90182	500	n/a	-1	-1	500	0.0	fixation	poldrack-single-stim	43	172078	0.0-7.18-0.18	beast_fmri_test	273	171611,/	t	<div class = centerbox2><div class = fixation>+</div></div>	none	500.0	test	n/a	n/a	n/a	n/a	n/a	n/a	n/a	n/a	n/a	n/a	n/a	n/a	n/a	n/a	n/a	n/a	n/a	n/a	fixation
89758.364777120965	2750	n/a	1017	71	2750	424.635222879	stim	stop-signal	44	174829	0.0-7.18-1.18	beast_fmri_test	273	172292,/,172972,/,173650,/,174331,/,175011,/	t,t,t,t,t	<img class = center src='/static/experiments/beast_fmri_test/images/D.png'></img>	89,71	2750.0	test	<img class = center src='/static/experiments/beast_fmri_test/images/redD.png'></img>	go	2250.0	2.0	18.0	go	non-target	D	89,Middle Finger	71,Index Finger	450.0	500.0	2300.0	2250.0	1.0	n/a	500.0	1.0	go_stim
92508.364777120965	424.63522287902657	n/a	1017	71	2750	424.635222879	stim	stop-signal	44	174829	0.0-7.18-1.18	beast_fmri_test	273	172292,/,172972,/,173650,/,174331,/,175011,/	t,t,t,t,t	<img class = center src='/static/experiments/beast_fmri_test/images/D.png'></img>	89,71	2750.0	test	<img class = center src='/static/experiments/beast_fmri_test/images/redD.png'></img>	go	2250.0	2.0	18.0	go	non-target	D	89,Middle Finger	71,Index Finger	450.0	500.0	2300.0	2250.0	1.0	n/a	500.0	1.0	ITI
93866	500	n/a	-1	-1	500	0.0	fixation	poldrack-single-stim	45	175762	0.0-7.19-0.19	beast_fmri_test	273	175690,/	t	<div class = centerbox2><div class = fixation>+</div></div>	none	500.0	test	n/a	n/a	n/a	n/a	n/a	n/a	n/a	n/a	n/a	n/a	n/a	n/a	n/a	n/a	n/a	n/a	n/a	n/a	fixation
93686.650164318533	2750	n/a	936	89	2750	181.349835681	stim	stop-signal	46	178514	0.0-7.19-1.19	beast_fmri_test	273	176369,/,177048,/,177729,/,178408,/	t,t,t,t	<img class = center src='/static/experiments/beast_fmri_test/images/T.png'></img>	89,71	2750.0	test	<img class = center src='/static/experiments/beast_fmri_test/images/redT.png'></img>	go	2300.0	2.0	19.0	go	target	T	89,Middle Finger	71,Index Finger	450.0	500.0	2300.0	2250.0	1.0	n/a	450.0	1.0	go_stim
96436.650164318533	181.34983568146961	n/a	936	89	2750	181.349835681	stim	stop-signal	46	178514	0.0-7.19-1.19	beast_fmri_test	273	176369,/,177048,/,177729,/,178408,/	t,t,t,t	<img class = center src='/static/experiments/beast_fmri_test/images/T.png'></img>	89,71	2750.0	test	<img class = center src='/static/experiments/beast_fmri_test/images/redT.png'></img>	go	2300.0	2.0	19.0	go	target	T	89,Middle Finger	71,Index Finger	450.0	500.0	2300.0	2250.0	1.0	n/a	450.0	1.0	ITI
97309	500	n/a	-1	-1	500	0.0	fixation	poldrack-single-stim	47	179205	0.0-7.20-0.20	beast_fmri_test	273	179088,/	t	<div class = centerbox2><div class = fixation>+</div></div>	none	500.0	test	n/a	n/a	n/a	n/a	n/a	n/a	n/a	n/a	n/a	n/a	n/a	n/a	n/a	n/a	n/a	n/a	n/a	n/a	fixation
97012.054314342764	2750	n/a	597	71	2750	298.945685657	stim	stop-signal	48	181957	0.0-7.20-1.20	beast_fmri_test	273	179769,/,180448,/,181127,/,181807,/	t,t,t,t	<img class = center src='/static/experiments/beast_fmri_test/images/B.png'></img>	89,71	2750.0	test	<img class = center src='/static/experiments/beast_fmri_test/images/redB.png'></img>	go	2250.0	2.0	20.0	go	non-target	B	89,Middle Finger	71,Index Finger	450.0	500.0	2300.0	2250.0	1.0	n/a	500.0	1.0	go_stim
99762.054314342764	298.94568565723938	n/a	597	71	2750	298.945685657	stim	stop-signal	48	181957	0.0-7.20-1.20	beast_fmri_test	273	179769,/,180448,/,181127,/,181807,/	t,t,t,t	<img class = center src='/static/experiments/beast_fmri_test/images/B.png'></img>	89,71	2750.0	test	<img class = center src='/static/experiments/beast_fmri_test/images/redB.png'></img>	go	2250.0	2.0	20.0	go	non-target	B	89,Middle Finger	71,Index Finger	450.0	500.0	2300.0	2250.0	1.0	n/a	500.0	1.0	ITI
100869	500	n/a	-1	-1	500	0.0	fixation	poldrack-single-stim	49	182765	0.0-7.21-0.21	beast_fmri_test	273	182487,/	t	<div class = centerbox2><div class = fixation>+</div></div>	none	500.0	test	n/a	n/a	n/a	n/a	n/a	n/a	n/a	n/a	n/a	n/a	n/a	n/a	n/a	n/a	n/a	n/a	n/a	n/a	fixation
98518.85014918205	2750	n/a	769	89	2750	2351.14985082	stim	stop-signal	50	185516	0.0-7.21-1.21	beast_fmri_test	273	183167,/,183846,/,184526,/,185205,/,185885,/,186563,/,187245,/	t,t,t,t,t,t,t	<img class = center src='/static/experiments/beast_fmri_test/images/T.png'></img>	89,71	2750.0	test	<img class = center src='/static/experiments/beast_fmri_test/images/redT.png'></img>	go	2300.0	2.0	21.0	go	target	T	89,Middle Finger	71,Index Finger	450.0	500.0	2300.0	2250.0	1.0	n/a	450.0	1.0	go_stim
101268.85014918205	2351.149850817937	n/a	769	89	2750	2351.14985082	stim	stop-signal	50	185516	0.0-7.21-1.21	beast_fmri_test	273	183167,/,183846,/,184526,/,185205,/,185885,/,186563,/,187245,/	t,t,t,t,t,t,t	<img class = center src='/static/experiments/beast_fmri_test/images/T.png'></img>	89,71	2750.0	test	<img class = center src='/static/experiments/beast_fmri_test/images/redT.png'></img>	go	2300.0	2.0	21.0	go	target	T	89,Middle Finger	71,Index Finger	450.0	500.0	2300.0	2250.0	1.0	n/a	450.0	1.0	ITI
106481	500	n/a	-1	-1	500	0.0	fixation	poldrack-single-stim	51	188377	0.0-7.22-0.22	beast_fmri_test	273	187924,/	t	<div class = centerbox2><div class = fixation>+</div></div>	none	500.0	test	n/a	n/a	n/a	n/a	n/a	n/a	n/a	n/a	n/a	n/a	n/a	n/a	n/a	n/a	n/a	n/a	n/a	n/a	fixation
105523.73877640479	2750	n/a	658	71	2750	959.261223595	stim	stop-signal	52	191129	0.0-7.22-1.22	beast_fmri_test	273	188604,/,189283,/,189962,/,190643,/,191322,/,192002,/	t,t,t,t,t,t	<img class = center src='/static/experiments/beast_fmri_test/images/D.png'></img>	89,71	2750.0	test	<img class = center src='/static/experiments/beast_fmri_test/images/redD.png'></img>	go	2250.0	2.0	22.0	go	non-target	D	89,Middle Finger	71,Index Finger	450.0	500.0	2300.0	2250.0	1.0	n/a	500.0	1.0	go_stim
108273.73877640479	959.26122359520207	n/a	658	71	2750	959.261223595	stim	stop-signal	52	191129	0.0-7.22-1.22	beast_fmri_test	273	188604,/,189283,/,189962,/,190643,/,191322,/,192002,/	t,t,t,t,t,t	<img class = center src='/static/experiments/beast_fmri_test/images/D.png'></img>	89,71	2750.0	test	<img class = center src='/static/experiments/beast_fmri_test/images/redD.png'></img>	go	2250.0	2.0	22.0	go	non-target	D	89,Middle Finger	71,Index Finger	450.0	500.0	2300.0	2250.0	1.0	n/a	500.0	1.0	ITI
110704	500	n/a	-1	-1	500	0.0	fixation	poldrack-single-stim	53	192600	0.0-7.23-0.23	beast_fmri_test	273	n/a	n/a	<div class = centerbox2><div class = fixation>+</div></div>	none	500.0	test	n/a	n/a	n/a	n/a	n/a	n/a	n/a	n/a	n/a	n/a	n/a	n/a	n/a	n/a	n/a	n/a	n/a	n/a	fixation
109727.13373361283	2750	n/a	1066	71	2750	977.866266387	stim	stop-signal	54	195351	0.0-7.23-1.23	beast_fmri_test	273	192681,/,193362,/,194042,/,194721,/,195400,/,196081,/	t,t,t,t,t,t	<img class = center src='/static/experiments/beast_fmri_test/images/P.png'></img>	89,71	2750.0	test	<img class = center src='/static/experiments/beast_fmri_test/images/redP.png'></img>	go	2250.0	2.0	23.0	go	non-target	P	89,Middle Finger	71,Index Finger	450.0	500.0	2300.0	2250.0	1.0	n/a	500.0	1.0	go_stim
112477.13373361283	977.86626638717325	n/a	1066	71	2750	977.866266387	stim	stop-signal	54	195351	0.0-7.23-1.23	beast_fmri_test	273	192681,/,193362,/,194042,/,194721,/,195400,/,196081,/	t,t,t,t,t,t	<img class = center src='/static/experiments/beast_fmri_test/images/P.png'></img>	89,71	2750.0	test	<img class = center src='/static/experiments/beast_fmri_test/images/redP.png'></img>	go	2250.0	2.0	23.0	go	non-target	P	89,Middle Finger	71,Index Finger	450.0	500.0	2300.0	2250.0	1.0	n/a	500.0	1.0	ITI
114944	500	n/a	-1	-1	500	0.0	fixation	poldrack-single-stim	55	196840	0.0-7.24-0.24	beast_fmri_test	273	196761,/	t	<div class = centerbox2><div class = fixation>+</div></div>	none	500.0	test	n/a	n/a	n/a	n/a	n/a	n/a	n/a	n/a	n/a	n/a	n/a	n/a	n/a	n/a	n/a	n/a	n/a	n/a	fixation
112486.82252491367	2750	n/a	621	71	2750	2458.17747509	stim	stop-signal	56	199591	0.0-7.24-1.24	beast_fmri_test	273	197441,/,198120,/,198800,/,199478,/,200159,/,200839,/,201519,/	t,t,t,t,t,t,t	<img class = center src='/static/experiments/beast_fmri_test/images/V.png'></img>	89,71	2750.0	test	<img class = center src='/static/experiments/beast_fmri_test/images/redV.png'></img>	go	2250.0	2.0	24.0	go	non-target	V	89,Middle Finger	71,Index Finger	450.0	500.0	2300.0	2250.0	1.0	n/a	500.0	1.0	go_stim
115236.82252491367	2458.1774750863178	n/a	621	71	2750	2458.17747509	stim	stop-signal	56	199591	0.0-7.24-1.24	beast_fmri_test	273	197441,/,198120,/,198800,/,199478,/,200159,/,200839,/,201519,/	t,t,t,t,t,t,t	<img class = center src='/static/experiments/beast_fmri_test/images/V.png'></img>	89,71	2750.0	test	<img class = center src='/static/experiments/beast_fmri_test/images/redV.png'></img>	go	2250.0	2.0	24.0	go	non-target	V	89,Middle Finger	71,Index Finger	450.0	500.0	2300.0	2250.0	1.0	n/a	500.0	1.0	ITI
120664	500	n/a	-1	-1	500	0.0	fixation	poldrack-single-stim	57	202560	0.0-7.25-0.25	beast_fmri_test	273	202199,/	t	<div class = centerbox2><div class = fixation>+</div></div>	none	500.0	test	n/a	n/a	n/a	n/a	n/a	n/a	n/a	n/a	n/a	n/a	n/a	n/a	n/a	n/a	n/a	n/a	n/a	n/a	fixation
119379.84909738225	2750	n/a	814	89	2750	1287.15090262	stim	stop-signal	58	205313	0.0-7.25-1.25	beast_fmri_test	273	202878,/,203556,/,204237,/,204916,/,205596,/,206276,/	t,t,t,t,t,t	<img class = center src='/static/experiments/beast_fmri_test/images/V.png'></img>	89,71	2750.0	test	<img class = center src='/static/experiments/beast_fmri_test/images/redV.png'></img>	go	2250.0	2.0	25.0	go	non-target	V	89,Middle Finger	71,Index Finger	450.0	500.0	2300.0	2250.0	0.0	n/a	500.0	0.0	go_stim
122129.84909738225	1287.1509026177505	n/a	814	89	2750	1287.15090262	stim	stop-signal	58	205313	0.0-7.25-1.25	beast_fmri_test	273	202878,/,203556,/,204237,/,204916,/,205596,/,206276,/	t,t,t,t,t,t	<img class = center src='/static/experiments/beast_fmri_test/images/V.png'></img>	89,71	2750.0	test	<img class = center src='/static/experiments/beast_fmri_test/images/redV.png'></img>	go	2250.0	2.0	25.0	go	non-target	V	89,Middle Finger	71,Index Finger	450.0	500.0	2300.0	2250.0	0.0	n/a	500.0	0.0	ITI
125214	500	n/a	-1	-1	500	0.0	fixation	poldrack-single-stim	59	207110	0.0-7.26-0.26	beast_fmri_test	273	206956,/	t	<div class = centerbox2><div class = fixation>+</div></div>	none	500.0	test	n/a	n/a	n/a	n/a	n/a	n/a	n/a	n/a	n/a	n/a	n/a	n/a	n/a	n/a	n/a	n/a	n/a	n/a	fixation
123464.78376535396	2750	n/a	527	89	2750	1750.21623465	stim	stop-signal	60	209861	0.0-7.26-1.26	beast_fmri_test	273	207636,/,208315,/,208995,/,209673,/,210355,/,211034,/	t,t,t,t,t,t	<img class = center src='/static/experiments/beast_fmri_test/images/V.png'></img>	89,71	2750.0	test	<img class = center src='/static/experiments/beast_fmri_test/images/redV.png'></img>	go	2300.0	2.0	26.0	go	target	V	89,Middle Finger	71,Index Finger	450.0	500.0	2300.0	2250.0	1.0	n/a	450.0	1.0	go_stim
126214.78376535396	1750.21623464604	n/a	527	89	2750	1750.21623465	stim	stop-signal	60	209861	0.0-7.26-1.26	beast_fmri_test	273	207636,/,208315,/,208995,/,209673,/,210355,/,211034,/	t,t,t,t,t,t	<img class = center src='/static/experiments/beast_fmri_test/images/V.png'></img>	89,71	2750.0	test	<img class = center src='/static/experiments/beast_fmri_test/images/redV.png'></img>	go	2300.0	2.0	26.0	go	target	V	89,Middle Finger	71,Index Finger	450.0	500.0	2300.0	2250.0	1.0	n/a	450.0	1.0	ITI
130228	500	n/a	-1	-1	500	0.0	fixation	poldrack-single-stim	61	212124	0.0-7.27-0.27	beast_fmri_test	273	211714,/	t	<div class = centerbox2><div class = fixation>+</div></div>	none	500.0	test	n/a	n/a	n/a	n/a	n/a	n/a	n/a	n/a	n/a	n/a	n/a	n/a	n/a	n/a	n/a	n/a	n/a	n/a	fixation
128778.05909650403	2750	n/a	819	71	2750	1451.9409035	stim	stop-signal	62	214876	0.0-7.27-1.27	beast_fmri_test	273	212394,/,213073,/,213752,/,214432,/,215111,/,215791,/	t,t,t,t,t,t	<img class = center src='/static/experiments/beast_fmri_test/images/P.png'></img>	89,71	2750.0	test	<img class = center src='/static/experiments/beast_fmri_test/images/redP.png'></img>	go	2250.0	2.0	27.0	go	non-target	P	89,Middle Finger	71,Index Finger	450.0	500.0	2300.0	2250.0	1.0	n/a	500.0	1.0	go_stim
131528.05909650403	1451.9409034959574	n/a	819	71	2750	1451.9409035	stim	stop-signal	62	214876	0.0-7.27-1.27	beast_fmri_test	273	212394,/,213073,/,213752,/,214432,/,215111,/,215791,/	t,t,t,t,t,t	<img class = center src='/static/experiments/beast_fmri_test/images/P.png'></img>	89,71	2750.0	test	<img class = center src='/static/experiments/beast_fmri_test/images/redP.png'></img>	go	2250.0	2.0	27.0	go	non-target	P	89,Middle Finger	71,Index Finger	450.0	500.0	2300.0	2250.0	1.0	n/a	500.0	1.0	ITI
134943	500	n/a	-1	-1	500	0.0	fixation	poldrack-single-stim	63	216839	0.0-7.28-0.28	beast_fmri_test	273	216472,/	t	<div class = centerbox2><div class = fixation>+</div></div>	none	500.0	test	n/a	n/a	n/a	n/a	n/a	n/a	n/a	n/a	n/a	n/a	n/a	n/a	n/a	n/a	n/a	n/a	n/a	n/a	fixation
133247.3590086246	500.0	n/a	719	71	2750	1697.64099138	stim	stop-signal	64	219591	0.0-7.28-1.28	beast_fmri_test	273	217151,/,217830,/,218510,/,219190,/,219870,/,220548,/,221229,/	t,t,t,t,t,t,t	<img class = center src='/static/experiments/beast_fmri_test/images/T.png'></img>	89,71	2750.0	test	<img class = center src='/static/experiments/beast_fmri_test/images/redT.png'></img>	stop	2250.0	2.0	28.0	stop	non-target	T	89,Middle Finger	71,Index Finger	450.0	500.0	2300.0	2250.0	0.0	0.0	500.0	n/a	go_stim
135497.3590086246	2250.0	n/a	719	71	2750	1697.64099138	stim	stop-signal	64	219591	0.0-7.28-1.28	beast_fmri_test	273	217151,/,217830,/,218510,/,219190,/,219870,/,220548,/,221229,/	t,t,t,t,t,t,t	<img class = center src='/static/experiments/beast_fmri_test/images/T.png'></img>	89,71	2750.0	test	<img class = center src='/static/experiments/beast_fmri_test/images/redT.png'></img>	stop	2250.0	2.0	28.0	stop	non-target	T	89,Middle Finger	71,Index Finger	450.0	500.0	2300.0	2250.0	0.0	0.0	500.0	n/a	stop_stim
135997.3590086246	1697.6409913754087	n/a	719	71	2750	1697.64099138	stim	stop-signal	64	219591	0.0-7.28-1.28	beast_fmri_test	273	217151,/,217830,/,218510,/,219190,/,219870,/,220548,/,221229,/	t,t,t,t,t,t,t	<img class = center src='/static/experiments/beast_fmri_test/images/T.png'></img>	89,71	2750.0	test	<img class = center src='/static/experiments/beast_fmri_test/images/redT.png'></img>	stop	2250.0	2.0	28.0	stop	non-target	T	89,Middle Finger	71,Index Finger	450.0	500.0	2300.0	2250.0	0.0	0.0	500.0	n/a	ITI
139904	500	n/a	-1	-1	500	0.0	fixation	poldrack-single-stim	65	221800	0.0-7.29-0.29	beast_fmri_test	273	n/a	n/a	<div class = centerbox2><div class = fixation>+</div></div>	none	500.0	test	n/a	n/a	n/a	n/a	n/a	n/a	n/a	n/a	n/a	n/a	n/a	n/a	n/a	n/a	n/a	n/a	n/a	n/a	fixation
139460.10956667399	2750	n/a	489	89	2750	445.890433326	stim	stop-signal	66	224552	0.0-7.29-1.29	beast_fmri_test	273	221909,/,222589,/,223268,/,223949,/,224628,/	t,t,t,t,t	<img class = center src='/static/experiments/beast_fmri_test/images/P.png'></img>	89,71	2750.0	test	<img class = center src='/static/experiments/beast_fmri_test/images/redP.png'></img>	go	2300.0	2.0	29.0	go	target	P	89,Middle Finger	71,Index Finger	450.0	450.0	2300.0	2250.0	1.0	n/a	450.0	1.0	go_stim
142210.10956667399	445.89043332600312	n/a	489	89	2750	445.890433326	stim	stop-signal	66	224552	0.0-7.29-1.29	beast_fmri_test	273	221909,/,222589,/,223268,/,223949,/,224628,/	t,t,t,t,t	<img class = center src='/static/experiments/beast_fmri_test/images/P.png'></img>	89,71	2750.0	test	<img class = center src='/static/experiments/beast_fmri_test/images/redP.png'></img>	go	2300.0	2.0	29.0	go	target	P	89,Middle Finger	71,Index Finger	450.0	450.0	2300.0	2250.0	1.0	n/a	450.0	1.0	ITI
143615	500	n/a	-1	-1	500	0.0	fixation	poldrack-single-stim	67	225511	0.0-7.30-0.30	beast_fmri_test	273	225309,/	t	<div class = centerbox2><div class = fixation>+</div></div>	none	500.0	test	n/a	n/a	n/a	n/a	n/a	n/a	n/a	n/a	n/a	n/a	n/a	n/a	n/a	n/a	n/a	n/a	n/a	n/a	fixation
142634.583110982	2750	n/a	796	71	2750	982.416889018	stim	stop-signal	68	228263	0.0-7.30-1.30	beast_fmri_test	273	225988,/,226667,/,227347,/,228026,/,228706,/	t,t,t,t,t	<img class = center src='/static/experiments/beast_fmri_test/images/P.png'></img>	89,71	2750.0	test	<img class = center src='/static/experiments/beast_fmri_test/images/redP.png'></img>	go	2300.0	2.0	30.0	go	non-target	P	89,Middle Finger	71,Index Finger	450.0	450.0	2300.0	2300.0	1.0	n/a	450.0	1.0	go_stim
145384.583110982	982.41688901800603	n/a	796	71	2750	982.416889018	stim	stop-signal	68	228263	0.0-7.30-1.30	beast_fmri_test	273	225988,/,226667,/,227347,/,228026,/,228706,/	t,t,t,t,t	<img class = center src='/static/experiments/beast_fmri_test/images/P.png'></img>	89,71	2750.0	test	<img class = center src='/static/experiments/beast_fmri_test/images/redP.png'></img>	go	2300.0	2.0	30.0	go	non-target	P	89,Middle Finger	71,Index Finger	450.0	450.0	2300.0	2300.0	1.0	n/a	450.0	1.0	ITI
147861	500	n/a	-1	-1	500	0.0	fixation	poldrack-single-stim	69	229757	0.0-7.31-0.31	beast_fmri_test	273	229386,/	t	<div class = centerbox2><div class = fixation>+</div></div>	none	500.0	test	n/a	n/a	n/a	n/a	n/a	n/a	n/a	n/a	n/a	n/a	n/a	n/a	n/a	n/a	n/a	n/a	n/a	n/a	fixation
147783.30065374804	2750	n/a	705	71	2750	78.699346252	stim	stop-signal	70	232508	0.0-7.31-1.31	beast_fmri_test	273	230065,/,230744,/,231425,/,232104,/	t,t,t,t	<img class = center src='/static/experiments/beast_fmri_test/images/B.png'></img>	89,71	2750.0	test	<img class = center src='/static/experiments/beast_fmri_test/images/redB.png'></img>	go	2300.0	2.0	31.0	go	non-target	B	89,Middle Finger	71,Index Finger	450.0	450.0	2300.0	2300.0	1.0	n/a	450.0	1.0	go_stim
150533.30065374804	78.699346251973438	n/a	705	71	2750	78.699346252	stim	stop-signal	70	232508	0.0-7.31-1.31	beast_fmri_test	273	230065,/,230744,/,231425,/,232104,/	t,t,t,t	<img class = center src='/static/experiments/beast_fmri_test/images/B.png'></img>	89,71	2750.0	test	<img class = center src='/static/experiments/beast_fmri_test/images/redB.png'></img>	go	2300.0	2.0	31.0	go	non-target	B	89,Middle Finger	71,Index Finger	450.0	450.0	2300.0	2300.0	1.0	n/a	450.0	1.0	ITI
151204	500	n/a	-1	-1	500	0.0	fixation	poldrack-single-stim	71	233100	0.0-7.32-0.32	beast_fmri_test	273	232784,/	t	<div class = centerbox2><div class = fixation>+</div></div>	none	500.0	test	n/a	n/a	n/a	n/a	n/a	n/a	n/a	n/a	n/a	n/a	n/a	n/a	n/a	n/a	n/a	n/a	n/a	n/a	fixation
150722.33611296388	450.0	n/a	580	89	2750	483.663887036	stim	stop-signal	72	235852	0.0-7.32-1.32	beast_fmri_test	273	233463,/,234143,/,234822,/,235502,/,236182,/	t,t,t,t,t	<img class = center src='/static/experiments/beast_fmri_test/images/P.png'></img>	89,71	2750.0	test	<img class = center src='/static/experiments/beast_fmri_test/images/redP.png'></img>	stop	2300.0	2.0	32.0	stop	target	P	89,Middle Finger	71,Index Finger	450.0	450.0	2300.0	2300.0	0.0	0.0	450.0	n/a	go_stim
153022.33611296388	2300.0	n/a	580	89	2750	483.663887036	stim	stop-signal	72	235852	0.0-7.32-1.32	beast_fmri_test	273	233463,/,234143,/,234822,/,235502,/,236182,/	t,t,t,t,t	<img class = center src='/static/experiments/beast_fmri_test/images/P.png'></img>	89,71	2750.0	test	<img class = center src='/static/experiments/beast_fmri_test/images/redP.png'></img>	stop	2300.0	2.0	32.0	stop	target	P	89,Middle Finger	71,Index Finger	450.0	450.0	2300.0	2300.0	0.0	0.0	450.0	n/a	stop_stim
153472.33611296388	483.6638870361225	n/a	580	89	2750	483.663887036	stim	stop-signal	72	235852	0.0-7.32-1.32	beast_fmri_test	273	233463,/,234143,/,234822,/,235502,/,236182,/	t,t,t,t,t	<img class = center src='/static/experiments/beast_fmri_test/images/P.png'></img>	89,71	2750.0	test	<img class = center src='/static/experiments/beast_fmri_test/images/redP.png'></img>	stop	2300.0	2.0	32.0	stop	target	P	89,Middle Finger	71,Index Finger	450.0	450.0	2300.0	2300.0	0.0	0.0	450.0	n/a	ITI
154952	500	n/a	-1	-1	500	0.0	fixation	poldrack-single-stim	73	236848	0.0-7.33-0.33	beast_fmri_test	273	n/a	n/a	<div class = centerbox2><div class = fixation>+</div></div>	none	500.0	test	n/a	n/a	n/a	n/a	n/a	n/a	n/a	n/a	n/a	n/a	n/a	n/a	n/a	n/a	n/a	n/a	n/a	n/a	fixation
154898.74302896418	2750	n/a	1132	71	2750	54.2569710358	stim	stop-signal	74	239599	0.0-7.33-1.33	beast_fmri_test	273	236862,/,237545,/,238220,/,238901,/,239580,/	t,t,t,t,t	<img class = center src='/static/experiments/beast_fmri_test/images/V.png'></img>	89,71	2750.0	test	<img class = center src='/static/experiments/beast_fmri_test/images/redV.png'></img>	go	2300.0	2.0	33.0	go	non-target	V	89,Middle Finger	71,Index Finger	400.0	450.0	2300.0	2300.0	1.0	n/a	450.0	1.0	go_stim
157648.74302896418	54.256971035817138	n/a	1132	71	2750	54.2569710358	stim	stop-signal	74	239599	0.0-7.33-1.33	beast_fmri_test	273	236862,/,237545,/,238220,/,238901,/,239580,/	t,t,t,t,t	<img class = center src='/static/experiments/beast_fmri_test/images/V.png'></img>	89,71	2750.0	test	<img class = center src='/static/experiments/beast_fmri_test/images/redV.png'></img>	go	2300.0	2.0	33.0	go	non-target	V	89,Middle Finger	71,Index Finger	400.0	450.0	2300.0	2300.0	1.0	n/a	450.0	1.0	ITI
158271	500	n/a	-1	-1	500	0.0	fixation	poldrack-single-stim	75	240167	0.0-7.34-0.34	beast_fmri_test	273	n/a	n/a	<div class = centerbox2><div class = fixation>+</div></div>	none	500.0	test	n/a	n/a	n/a	n/a	n/a	n/a	n/a	n/a	n/a	n/a	n/a	n/a	n/a	n/a	n/a	n/a	n/a	n/a	fixation
157324.97960934837	2750	n/a	1216	71	2750	948.020390652	stim	stop-signal	76	242919	0.0-7.34-1.34	beast_fmri_test	273	240261,/,240940,/,241619,/,242299,/,242979,/,243657,/	t,t,t,t,t,t	<img class = center src='/static/experiments/beast_fmri_test/images/B.png'></img>	89,71	2750.0	test	<img class = center src='/static/experiments/beast_fmri_test/images/redB.png'></img>	go	2300.0	2.0	34.0	go	non-target	B	89,Middle Finger	71,Index Finger	400.0	450.0	2300.0	2300.0	1.0	n/a	450.0	1.0	go_stim
160074.97960934837	948.02039065161443	n/a	1216	71	2750	948.020390652	stim	stop-signal	76	242919	0.0-7.34-1.34	beast_fmri_test	273	240261,/,240940,/,241619,/,242299,/,242979,/,243657,/	t,t,t,t,t,t	<img class = center src='/static/experiments/beast_fmri_test/images/B.png'></img>	89,71	2750.0	test	<img class = center src='/static/experiments/beast_fmri_test/images/redB.png'></img>	go	2300.0	2.0	34.0	go	non-target	B	89,Middle Finger	71,Index Finger	400.0	450.0	2300.0	2300.0	1.0	n/a	450.0	1.0	ITI
162483	500	n/a	-1	-1	500	0.0	fixation	poldrack-single-stim	77	244379	0.0-7.35-0.35	beast_fmri_test	273	244339,/	t	<div class = centerbox2><div class = fixation>+</div></div>	none	500.0	test	n/a	n/a	n/a	n/a	n/a	n/a	n/a	n/a	n/a	n/a	n/a	n/a	n/a	n/a	n/a	n/a	n/a	n/a	fixation
162360.7864042212	2750	n/a	802	71	2750	124.213595779	stim	stop-signal	78	247131	0.0-7.35-1.35	beast_fmri_test	273	245018,/,245698,/,246377,/,247057,/	t,t,t,t	<img class = center src='/static/experiments/beast_fmri_test/images/B.png'></img>	89,71	2750.0	test	<img class = center src='/static/experiments/beast_fmri_test/images/redB.png'></img>	go	2300.0	2.0	35.0	go	non-target	B	89,Middle Finger	71,Index Finger	400.0	450.0	2300.0	2300.0	1.0	n/a	450.0	1.0	go_stim
165110.7864042212	124.21359577879886	n/a	802	71	2750	124.213595779	stim	stop-signal	78	247131	0.0-7.35-1.35	beast_fmri_test	273	245018,/,245698,/,246377,/,247057,/	t,t,t,t	<img class = center src='/static/experiments/beast_fmri_test/images/B.png'></img>	89,71	2750.0	test	<img class = center src='/static/experiments/beast_fmri_test/images/redB.png'></img>	go	2300.0	2.0	35.0	go	non-target	B	89,Middle Finger	71,Index Finger	400.0	450.0	2300.0	2300.0	1.0	n/a	450.0	1.0	ITI
165871	500	n/a	-1	-1	500	0.0	fixation	poldrack-single-stim	79	247767	0.0-7.36-0.36	beast_fmri_test	273	247737,/	t	<div class = centerbox2><div class = fixation>+</div></div>	none	500.0	test	n/a	n/a	n/a	n/a	n/a	n/a	n/a	n/a	n/a	n/a	n/a	n/a	n/a	n/a	n/a	n/a	n/a	n/a	fixation
165866.84249029172	450.0	n/a	661	71	2750	6.15750970828	stim	stop-signal	80	250519	0.0-7.36-1.36	beast_fmri_test	273	248418,/,249095,/,249774,/,250455,/	t,t,t,t	<img class = center src='/static/experiments/beast_fmri_test/images/T.png'></img>	89,71	2750.0	test	<img class = center src='/static/experiments/beast_fmri_test/images/redT.png'></img>	stop	2300.0	2.0	36.0	stop	non-target	T	89,Middle Finger	71,Index Finger	400.0	450.0	2300.0	2300.0	0.0	0.0	450.0	n/a	go_stim
168166.84249029172	2300.0	n/a	661	71	2750	6.15750970828	stim	stop-signal	80	250519	0.0-7.36-1.36	beast_fmri_test	273	248418,/,249095,/,249774,/,250455,/	t,t,t,t	<img class = center src='/static/experiments/beast_fmri_test/images/T.png'></img>	89,71	2750.0	test	<img class = center src='/static/experiments/beast_fmri_test/images/redT.png'></img>	stop	2300.0	2.0	36.0	stop	non-target	T	89,Middle Finger	71,Index Finger	400.0	450.0	2300.0	2300.0	0.0	0.0	450.0	n/a	stop_stim
168616.84249029172	6.1575097082788623	n/a	661	71	2750	6.15750970828	stim	stop-signal	80	250519	0.0-7.36-1.36	beast_fmri_test	273	248418,/,249095,/,249774,/,250455,/	t,t,t,t	<img class = center src='/static/experiments/beast_fmri_test/images/T.png'></img>	89,71	2750.0	test	<img class = center src='/static/experiments/beast_fmri_test/images/redT.png'></img>	stop	2300.0	2.0	36.0	stop	non-target	T	89,Middle Finger	71,Index Finger	400.0	450.0	2300.0	2300.0	0.0	0.0	450.0	n/a	ITI
169143	500	n/a	-1	-1	500	0.0	fixation	poldrack-single-stim	81	251039	0.0-7.37-0.37	beast_fmri_test	273	n/a	n/a	<div class = centerbox2><div class = fixation>+</div></div>	none	500.0	test	n/a	n/a	n/a	n/a	n/a	n/a	n/a	n/a	n/a	n/a	n/a	n/a	n/a	n/a	n/a	n/a	n/a	n/a	fixation
166219.40310869229	400.0	n/a	-1	-1	2750	2926.59689131	stim	stop-signal	82	253792	0.0-7.37-1.37	beast_fmri_test	273	251135,/,251815,/,252495,/,253176,/,253856,/,254533,/,255213,/,255894,/,256574,/	t,t,t,t,t,t,t,t,t	<img class = center src='/static/experiments/beast_fmri_test/images/D.png'></img>	89,71	2750.0	test	<img class = center src='/static/experiments/beast_fmri_test/images/redD.png'></img>	stop	2350.0	2.0	37.0	stop	non-target	D	89,Middle Finger	71,Index Finger	400.0	400.0	2300.0	2350.0	0.0	1.0	400.0	n/a	go_stim
168569.40310869229	2350.0	n/a	-1	-1	2750	2926.59689131	stim	stop-signal	82	253792	0.0-7.37-1.37	beast_fmri_test	273	251135,/,251815,/,252495,/,253176,/,253856,/,254533,/,255213,/,255894,/,256574,/	t,t,t,t,t,t,t,t,t	<img class = center src='/static/experiments/beast_fmri_test/images/D.png'></img>	89,71	2750.0	test	<img class = center src='/static/experiments/beast_fmri_test/images/redD.png'></img>	stop	2350.0	2.0	37.0	stop	non-target	D	89,Middle Finger	71,Index Finger	400.0	400.0	2300.0	2350.0	0.0	1.0	400.0	n/a	stop_stim
168969.40310869229	2926.5968913077049	n/a	-1	-1	2750	2926.59689131	stim	stop-signal	82	253792	0.0-7.37-1.37	beast_fmri_test	273	251135,/,251815,/,252495,/,253176,/,253856,/,254533,/,255213,/,255894,/,256574,/	t,t,t,t,t,t,t,t,t	<img class = center src='/static/experiments/beast_fmri_test/images/D.png'></img>	89,71	2750.0	test	<img class = center src='/static/experiments/beast_fmri_test/images/redD.png'></img>	stop	2350.0	2.0	37.0	stop	non-target	D	89,Middle Finger	71,Index Finger	400.0	400.0	2300.0	2350.0	0.0	1.0	400.0	n/a	ITI
175334	500	n/a	-1	-1	500	0.0	fixation	poldrack-single-stim	83	257230	0.0-7.38-0.38	beast_fmri_test	273	n/a	n/a	<div class = centerbox2><div class = fixation>+</div></div>	none	500.0	test	n/a	n/a	n/a	n/a	n/a	n/a	n/a	n/a	n/a	n/a	n/a	n/a	n/a	n/a	n/a	n/a	n/a	n/a	fixation
172021.51636787193	400.0	n/a	424	89	2750	3312.48363213	stim	stop-signal	84	259980	0.0-7.38-1.38	beast_fmri_test	273	257256,/,257932,/,258613,/,259291,/,259970,/,260650,/,261331,/,262011,/,262690,/	t,t,t,t,t,t,t,t,t	<img class = center src='/static/experiments/beast_fmri_test/images/T.png'></img>	89,71	2750.0	test	<img class = center src='/static/experiments/beast_fmri_test/images/redT.png'></img>	stop	2350.0	2.0	38.0	stop	target	T	89,Middle Finger	71,Index Finger	400.0	450.0	2350.0	2350.0	0.0	0.0	400.0	n/a	go_stim
174371.51636787193	2350.0	n/a	424	89	2750	3312.48363213	stim	stop-signal	84	259980	0.0-7.38-1.38	beast_fmri_test	273	257256,/,257932,/,258613,/,259291,/,259970,/,260650,/,261331,/,262011,/,262690,/	t,t,t,t,t,t,t,t,t	<img class = center src='/static/experiments/beast_fmri_test/images/T.png'></img>	89,71	2750.0	test	<img class = center src='/static/experiments/beast_fmri_test/images/redT.png'></img>	stop	2350.0	2.0	38.0	stop	target	T	89,Middle Finger	71,Index Finger	400.0	450.0	2350.0	2350.0	0.0	0.0	400.0	n/a	stop_stim
174771.51636787193	3312.4836321280682	n/a	424	89	2750	3312.48363213	stim	stop-signal	84	259980	0.0-7.38-1.38	beast_fmri_test	273	257256,/,257932,/,258613,/,259291,/,259970,/,260650,/,261331,/,262011,/,262690,/	t,t,t,t,t,t,t,t,t	<img class = center src='/static/experiments/beast_fmri_test/images/T.png'></img>	89,71	2750.0	test	<img class = center src='/static/experiments/beast_fmri_test/images/redT.png'></img>	stop	2350.0	2.0	38.0	stop	target	T	89,Middle Finger	71,Index Finger	400.0	450.0	2350.0	2350.0	0.0	0.0	400.0	n/a	ITI
181912	500	n/a	-1	-1	500	0.0	fixation	poldrack-single-stim	85	263808	0.0-7.39-0.39	beast_fmri_test	273	263370,/	t	<div class = centerbox2><div class = fixation>+</div></div>	none	500.0	test	n/a	n/a	n/a	n/a	n/a	n/a	n/a	n/a	n/a	n/a	n/a	n/a	n/a	n/a	n/a	n/a	n/a	n/a	fixation
181580.70130368456	350.0	n/a	621	71	2750	333.298696315	stim	stop-signal	86	266560	0.0-7.39-1.39	beast_fmri_test	273	264050,/,264728,/,265409,/,266088,/,266767,/	t,t,t,t,t	<img class = center src='/static/experiments/beast_fmri_test/images/D.png'></img>	89,71	2750.0	test	<img class = center src='/static/experiments/beast_fmri_test/images/redD.png'></img>	stop	2400.0	2.0	39.0	stop	target	D	89,Middle Finger	71,Index Finger	350.0	450.0	2400.0	2350.0	0.0	0.0	350.0	n/a	go_stim
183980.70130368456	2400.0	n/a	621	71	2750	333.298696315	stim	stop-signal	86	266560	0.0-7.39-1.39	beast_fmri_test	273	264050,/,264728,/,265409,/,266088,/,266767,/	t,t,t,t,t	<img class = center src='/static/experiments/beast_fmri_test/images/D.png'></img>	89,71	2750.0	test	<img class = center src='/static/experiments/beast_fmri_test/images/redD.png'></img>	stop	2400.0	2.0	39.0	stop	target	D	89,Middle Finger	71,Index Finger	350.0	450.0	2400.0	2350.0	0.0	0.0	350.0	n/a	stop_stim
184330.70130368456	333.29869631543085	n/a	621	71	2750	333.298696315	stim	stop-signal	86	266560	0.0-7.39-1.39	beast_fmri_test	273	264050,/,264728,/,265409,/,266088,/,266767,/	t,t,t,t,t	<img class = center src='/static/experiments/beast_fmri_test/images/D.png'></img>	89,71	2750.0	test	<img class = center src='/static/experiments/beast_fmri_test/images/redD.png'></img>	stop	2400.0	2.0	39.0	stop	target	D	89,Middle Finger	71,Index Finger	350.0	450.0	2400.0	2350.0	0.0	0.0	350.0	n/a	ITI
185512	500	n/a	-1	-1	500	0.0	fixation	poldrack-single-stim	87	267408	0.0-7.40-0.40	beast_fmri_test	273	n/a	n/a	<div class = centerbox2><div class = fixation>+</div></div>	none	500.0	test	n/a	n/a	n/a	n/a	n/a	n/a	n/a	n/a	n/a	n/a	n/a	n/a	n/a	n/a	n/a	n/a	n/a	n/a	fixation
184727.35022244847	2750	n/a	849	89	2750	785.649777552	stim	stop-signal	88	270159	0.0-7.40-1.40	beast_fmri_test	273	267449,/,268128,/,268807,/,269485,/,270167,/,270847,/	t,t,t,t,t,t	<img class = center src='/static/experiments/beast_fmri_test/images/T.png'></img>	89,71	2750.0	test	<img class = center src='/static/experiments/beast_fmri_test/images/redT.png'></img>	go	2450.0	2.0	40.0	go	target	T	89,Middle Finger	71,Index Finger	300.0	450.0	2450.0	2350.0	1.0	n/a	300.0	1.0	go_stim
187477.35022244847	785.64977755153291	n/a	849	89	2750	785.649777552	stim	stop-signal	88	270159	0.0-7.40-1.40	beast_fmri_test	273	267449,/,268128,/,268807,/,269485,/,270167,/,270847,/	t,t,t,t,t,t	<img class = center src='/static/experiments/beast_fmri_test/images/T.png'></img>	89,71	2750.0	test	<img class = center src='/static/experiments/beast_fmri_test/images/redT.png'></img>	go	2450.0	2.0	40.0	go	target	T	89,Middle Finger	71,Index Finger	300.0	450.0	2450.0	2350.0	1.0	n/a	300.0	1.0	ITI
189561	500	n/a	-1	-1	500	0.0	fixation	poldrack-single-stim	89	271457	0.0-7.41-0.41	beast_fmri_test	273	n/a	n/a	<div class = centerbox2><div class = fixation>+</div></div>	none	500.0	test	n/a	n/a	n/a	n/a	n/a	n/a	n/a	n/a	n/a	n/a	n/a	n/a	n/a	n/a	n/a	n/a	n/a	n/a	fixation
188789.27765096363	300.0	n/a	622	89	2750	773.722349036	stim	stop-signal	90	274209	0.0-7.41-1.41	beast_fmri_test	273	271526,/,272205,/,272885,/,273565,/,274245,/,274923,/	t,t,t,t,t,t	<img class = center src='/static/experiments/beast_fmri_test/images/D.png'></img>	89,71	2750.0	test	<img class = center src='/static/experiments/beast_fmri_test/images/redD.png'></img>	stop	2450.0	2.0	41.0	stop	target	D	89,Middle Finger	71,Index Finger	300.0	450.0	2450.0	2350.0	0.0	0.0	300.0	n/a	go_stim
191239.27765096363	2450.0	n/a	622	89	2750	773.722349036	stim	stop-signal	90	274209	0.0-7.41-1.41	beast_fmri_test	273	271526,/,272205,/,272885,/,273565,/,274245,/,274923,/	t,t,t,t,t,t	<img class = center src='/static/experiments/beast_fmri_test/images/D.png'></img>	89,71	2750.0	test	<img class = center src='/static/experiments/beast_fmri_test/images/redD.png'></img>	stop	2450.0	2.0	41.0	stop	target	D	89,Middle Finger	71,Index Finger	300.0	450.0	2450.0	2350.0	0.0	0.0	300.0	n/a	stop_stim
191539.27765096363	773.72234903634978	n/a	622	89	2750	773.722349036	stim	stop-signal	90	274209	0.0-7.41-1.41	beast_fmri_test	273	271526,/,272205,/,272885,/,273565,/,274245,/,274923,/	t,t,t,t,t,t	<img class = center src='/static/experiments/beast_fmri_test/images/D.png'></img>	89,71	2750.0	test	<img class = center src='/static/experiments/beast_fmri_test/images/redD.png'></img>	stop	2450.0	2.0	41.0	stop	target	D	89,Middle Finger	71,Index Finger	300.0	450.0	2450.0	2350.0	0.0	0.0	300.0	n/a	ITI
193600	500	n/a	-1	-1	500	0.0	fixation	poldrack-single-stim	91	275496	0.0-7.42-0.42	beast_fmri_test	273	n/a	n/a	<div class = centerbox2><div class = fixation>+</div></div>	none	500.0	test	n/a	n/a	n/a	n/a	n/a	n/a	n/a	n/a	n/a	n/a	n/a	n/a	n/a	n/a	n/a	n/a	n/a	n/a	fixation
192058.98837959417	450.0	n/a	-1	-1	2750	1542.01162041	stim	stop-signal	92	278247	0.0-7.42-1.42	beast_fmri_test	273	275604,/,276284,/,276964,/,277643,/,278323,/,279002,/,279681,/	t,t,t,t,t,t,t	<img class = center src='/static/experiments/beast_fmri_test/images/V.png'></img>	89,71	2750.0	test	<img class = center src='/static/experiments/beast_fmri_test/images/redV.png'></img>	stop	2300.0	2.0	42.0	stop	non-target	V	89,Middle Finger	71,Index Finger	250.0	450.0	2450.0	2300.0	0.0	1.0	450.0	n/a	go_stim
194358.98837959417	2300.0	n/a	-1	-1	2750	1542.01162041	stim	stop-signal	92	278247	0.0-7.42-1.42	beast_fmri_test	273	275604,/,276284,/,276964,/,277643,/,278323,/,279002,/,279681,/	t,t,t,t,t,t,t	<img class = center src='/static/experiments/beast_fmri_test/images/V.png'></img>	89,71	2750.0	test	<img class = center src='/static/experiments/beast_fmri_test/images/redV.png'></img>	stop	2300.0	2.0	42.0	stop	non-target	V	89,Middle Finger	71,Index Finger	250.0	450.0	2450.0	2300.0	0.0	1.0	450.0	n/a	stop_stim
194808.98837959417	1542.0116204057995	n/a	-1	-1	2750	1542.01162041	stim	stop-signal	92	278247	0.0-7.42-1.42	beast_fmri_test	273	275604,/,276284,/,276964,/,277643,/,278323,/,279002,/,279681,/	t,t,t,t,t,t,t	<img class = center src='/static/experiments/beast_fmri_test/images/V.png'></img>	89,71	2750.0	test	<img class = center src='/static/experiments/beast_fmri_test/images/redV.png'></img>	stop	2300.0	2.0	42.0	stop	non-target	V	89,Middle Finger	71,Index Finger	250.0	450.0	2450.0	2300.0	0.0	1.0	450.0	n/a	ITI
198410	500	n/a	-1	-1	500	0.0	fixation	poldrack-single-stim	93	280306	0.0-7.43-0.43	beast_fmri_test	273	n/a	n/a	<div class = centerbox2><div class = fixation>+</div></div>	none	500.0	test	n/a	n/a	n/a	n/a	n/a	n/a	n/a	n/a	n/a	n/a	n/a	n/a	n/a	n/a	n/a	n/a	n/a	n/a	fixation
197147.97705071251	2750	n/a	740	71	2750	1263.02294929	stim	stop-signal	94	283057	0.0-7.43-1.43	beast_fmri_test	273	280361,/,281043,/,281722,/,282400,/,283080,/,283761,/	t,t,t,t,t,t	<img class = center src='/static/experiments/beast_fmri_test/images/P.png'></img>	89,71	2750.0	test	<img class = center src='/static/experiments/beast_fmri_test/images/redP.png'></img>	go	2250.0	2.0	43.0	go	non-target	P	89,Middle Finger	71,Index Finger	250.0	500.0	2450.0	2250.0	1.0	n/a	500.0	1.0	go_stim
199897.97705071251	1263.022949287511	n/a	740	71	2750	1263.02294929	stim	stop-signal	94	283057	0.0-7.43-1.43	beast_fmri_test	273	280361,/,281043,/,281722,/,282400,/,283080,/,283761,/	t,t,t,t,t,t	<img class = center src='/static/experiments/beast_fmri_test/images/P.png'></img>	89,71	2750.0	test	<img class = center src='/static/experiments/beast_fmri_test/images/redP.png'></img>	go	2250.0	2.0	43.0	go	non-target	P	89,Middle Finger	71,Index Finger	250.0	500.0	2450.0	2250.0	1.0	n/a	500.0	1.0	ITI
202938	500	n/a	-1	-1	500	0.0	fixation	poldrack-single-stim	95	284834	0.0-7.44-0.44	beast_fmri_test	273	284440,/	t	<div class = centerbox2><div class = fixation>+</div></div>	none	500.0	test	n/a	n/a	n/a	n/a	n/a	n/a	n/a	n/a	n/a	n/a	n/a	n/a	n/a	n/a	n/a	n/a	n/a	n/a	fixation
202524.49243860866	500.0	n/a	736	71	2750	415.507561391	stim	stop-signal	96	287586	0.0-7.44-1.44	beast_fmri_test	273	285121,/,285800,/,286480,/,287159,/,287839,/	t,t,t,t,t	<img class = center src='/static/experiments/beast_fmri_test/images/T.png'></img>	89,71	2750.0	test	<img class = center src='/static/experiments/beast_fmri_test/images/redT.png'></img>	stop	2250.0	2.0	44.0	stop	non-target	T	89,Middle Finger	71,Index Finger	250.0	500.0	2450.0	2250.0	0.0	0.0	500.0	n/a	go_stim
204774.49243860866	2250.0	n/a	736	71	2750	415.507561391	stim	stop-signal	96	287586	0.0-7.44-1.44	beast_fmri_test	273	285121,/,285800,/,286480,/,287159,/,287839,/	t,t,t,t,t	<img class = center src='/static/experiments/beast_fmri_test/images/T.png'></img>	89,71	2750.0	test	<img class = center src='/static/experiments/beast_fmri_test/images/redT.png'></img>	stop	2250.0	2.0	44.0	stop	non-target	T	89,Middle Finger	71,Index Finger	250.0	500.0	2450.0	2250.0	0.0	0.0	500.0	n/a	stop_stim
205274.49243860866	415.50756139134938	n/a	736	71	2750	415.507561391	stim	stop-signal	96	287586	0.0-7.44-1.44	beast_fmri_test	273	285121,/,285800,/,286480,/,287159,/,287839,/	t,t,t,t,t	<img class = center src='/static/experiments/beast_fmri_test/images/T.png'></img>	89,71	2750.0	test	<img class = center src='/static/experiments/beast_fmri_test/images/redT.png'></img>	stop	2250.0	2.0	44.0	stop	non-target	T	89,Middle Finger	71,Index Finger	250.0	500.0	2450.0	2250.0	0.0	0.0	500.0	n/a	ITI
206619	500	n/a	-1	-1	500	0.0	fixation	poldrack-single-stim	97	288515	0.0-7.45-0.45	beast_fmri_test	273	n/a	n/a	<div class = centerbox2><div class = fixation>+</div></div>	none	500.0	test	n/a	n/a	n/a	n/a	n/a	n/a	n/a	n/a	n/a	n/a	n/a	n/a	n/a	n/a	n/a	n/a	n/a	n/a	fixation
206202.35086649167	450.0	n/a	-1	-1	2750	418.649133508	stim	stop-signal	98	291267	0.0-7.45-1.45	beast_fmri_test	273	288518,/,289198,/,289877,/,290558,/,291238,/	t,t,t,t,t	<img class = center src='/static/experiments/beast_fmri_test/images/V.png'></img>	89,71	2750.0	test	<img class = center src='/static/experiments/beast_fmri_test/images/redV.png'></img>	stop	2300.0	2.0	45.0	stop	non-target	V	89,Middle Finger	71,Index Finger	250.0	450.0	2450.0	2300.0	0.0	1.0	450.0	n/a	go_stim
208502.35086649167	2300.0	n/a	-1	-1	2750	418.649133508	stim	stop-signal	98	291267	0.0-7.45-1.45	beast_fmri_test	273	288518,/,289198,/,289877,/,290558,/,291238,/	t,t,t,t,t	<img class = center src='/static/experiments/beast_fmri_test/images/V.png'></img>	89,71	2750.0	test	<img class = center src='/static/experiments/beast_fmri_test/images/redV.png'></img>	stop	2300.0	2.0	45.0	stop	non-target	V	89,Middle Finger	71,Index Finger	250.0	450.0	2450.0	2300.0	0.0	1.0	450.0	n/a	stop_stim
208952.35086649167	418.64913350830398	n/a	-1	-1	2750	418.649133508	stim	stop-signal	98	291267	0.0-7.45-1.45	beast_fmri_test	273	288518,/,289198,/,289877,/,290558,/,291238,/	t,t,t,t,t	<img class = center src='/static/experiments/beast_fmri_test/images/V.png'></img>	89,71	2750.0	test	<img class = center src='/static/experiments/beast_fmri_test/images/redV.png'></img>	stop	2300.0	2.0	45.0	stop	non-target	V	89,Middle Finger	71,Index Finger	250.0	450.0	2450.0	2300.0	0.0	1.0	450.0	n/a	ITI
210305	500	n/a	-1	-1	500	0.0	fixation	poldrack-single-stim	99	292201	0.0-7.46-0.46	beast_fmri_test	273	291917,/	t	<div class = centerbox2><div class = fixation>+</div></div>	none	500.0	test	n/a	n/a	n/a	n/a	n/a	n/a	n/a	n/a	n/a	n/a	n/a	n/a	n/a	n/a	n/a	n/a	n/a	n/a	fixation
209565.70136550453	2750	n/a	794	89	2750	739.298634495	stim	stop-signal	100	294951	0.0-7.46-1.46	beast_fmri_test	273	292597,/,293276,/,293956,/,294649,/,295315,/	t,t,t,t,t	<img class = center src='/static/experiments/beast_fmri_test/images/T.png'></img>	89,71	2750.0	test	<img class = center src='/static/experiments/beast_fmri_test/images/redT.png'></img>	go	2500.0	2.0	46.0	go	target	T	89,Middle Finger	71,Index Finger	250.0	500.0	2500.0	2300.0	1.0	n/a	250.0	1.0	go_stim
212315.70136550453	739.29863449547122	n/a	794	89	2750	739.298634495	stim	stop-signal	100	294951	0.0-7.46-1.46	beast_fmri_test	273	292597,/,293276,/,293956,/,294649,/,295315,/	t,t,t,t,t	<img class = center src='/static/experiments/beast_fmri_test/images/T.png'></img>	89,71	2750.0	test	<img class = center src='/static/experiments/beast_fmri_test/images/redT.png'></img>	go	2500.0	2.0	46.0	go	target	T	89,Middle Finger	71,Index Finger	250.0	500.0	2500.0	2300.0	1.0	n/a	250.0	1.0	ITI
228805	15000	n/a	-1	-1	15000	0.0	practice-no-stop-feedback	poldrack-single-stim	101	310701	0.0-8.0	beast_fmri_test	273	295994,/,296674,/,297355,/,298033,/,298713,/,299393,/,300073,/,300753,/,301432,/,302112,/,302791,/,303470,/,304151,/,304830,/,305510,/,306190,/,306870,/,307548,/,308230,/,308910,/,309590,/,310268,/	t,t,t,t,t,t,t,t,t,t,t,t,t,t,t,t,t,t,t,t,t,t	"<div class = ""centerbox""><p class = ""block-text"">Your delay is 3 trials.</p><p class = block-text>Please wait for the scanner to start the block</p></div>"	77	15000.0	n/a	n/a	n/a	n/a	n/a	n/a	n/a	n/a	n/a	n/a	n/a	n/a	n/a	n/a	n/a	n/a	n/a	n/a	n/a	practice-no-stop-feedback
229308	500	n/a	-1	-1	500	0.0	fixation	poldrack-single-stim	102	311204	0.0-9.0-0.0	beast_fmri_test	273	310949,/	t	<div class = centerbox2><div class = fixation>+</div></div>	none	500.0	test	n/a	n/a	n/a	n/a	n/a	n/a	n/a	n/a	n/a	n/a	n/a	n/a	n/a	n/a	n/a	n/a	n/a	n/a	fixation
229188.03868531837	2750	n/a	-1	-1	2750	121.961314682	stim	stop-signal	103	313956	0.0-9.0-1.0	beast_fmri_test	273	311628,/,312308,/,312988,/,313667,/	t,t,t,t	<img class = center src='/static/experiments/beast_fmri_test/images/D.png'></img>	89,71	2750.0	test	<img class = center src='/static/experiments/beast_fmri_test/images/redD.png'></img>	go	-1.0	3.0	0.0	go	temp-non-target	D	89,Middle Finger	71,Index Finger	250.0	500.0	2500.0	2300.0	0.0	n/a	n/a	n/a	go_stim
231938.03868531837	121.96131468160128	n/a	-1	-1	2750	121.961314682	stim	stop-signal	103	313956	0.0-9.0-1.0	beast_fmri_test	273	311628,/,312308,/,312988,/,313667,/	t,t,t,t	<img class = center src='/static/experiments/beast_fmri_test/images/D.png'></img>	89,71	2750.0	test	<img class = center src='/static/experiments/beast_fmri_test/images/redD.png'></img>	go	-1.0	3.0	0.0	go	temp-non-target	D	89,Middle Finger	71,Index Finger	250.0	500.0	2500.0	2300.0	0.0	n/a	n/a	n/a	ITI
232696	500	n/a	-1	-1	500	0.0	fixation	poldrack-single-stim	104	314592	0.0-9.1-0.1	beast_fmri_test	273	314347,/	t	<div class = centerbox2><div class = fixation>+</div></div>	none	500.0	test	n/a	n/a	n/a	n/a	n/a	n/a	n/a	n/a	n/a	n/a	n/a	n/a	n/a	n/a	n/a	n/a	n/a	n/a	fixation
231902.2205050225	temp_go_duration	n/a	-1	-1	2750	794.779494977	stim	stop-signal	105	317343	0.0-9.1-1.1	beast_fmri_test	273	315027,/,315706,/,316386,/,317065,/,317745,/	t,t,t,t,t	<img class = center src='/static/experiments/beast_fmri_test/images/T.png'></img>	89,71	2750.0	test	<img class = center src='/static/experiments/beast_fmri_test/images/redT.png'></img>	stop	-1.0	3.0	1.0	stop	temp-non-target	T	89,Middle Finger	71,Index Finger	250.0	500.0	2500.0	2300.0	0.0	1.0	n/a	n/a	go_stim
temp-non-target	temp_stop_duration	n/a	-1	-1	2750	794.779494977	stim	stop-signal	105	317343	0.0-9.1-1.1	beast_fmri_test	273	315027,/,315706,/,316386,/,317065,/,317745,/	t,t,t,t,t	<img class = center src='/static/experiments/beast_fmri_test/images/T.png'></img>	89,71	2750.0	test	<img class = center src='/static/experiments/beast_fmri_test/images/redT.png'></img>	stop	-1.0	3.0	1.0	stop	temp-non-target	T	89,Middle Finger	71,Index Finger	250.0	500.0	2500.0	2300.0	0.0	1.0	n/a	n/a	stop_stim
234652.2205050225	794.77949497748523	n/a	-1	-1	2750	794.779494977	stim	stop-signal	105	317343	0.0-9.1-1.1	beast_fmri_test	273	315027,/,315706,/,316386,/,317065,/,317745,/	t,t,t,t,t	<img class = center src='/static/experiments/beast_fmri_test/images/T.png'></img>	89,71	2750.0	test	<img class = center src='/static/experiments/beast_fmri_test/images/redT.png'></img>	stop	-1.0	3.0	1.0	stop	temp-non-target	T	89,Middle Finger	71,Index Finger	250.0	500.0	2500.0	2300.0	0.0	1.0	n/a	n/a	ITI
236756	500	n/a	-1	-1	500	0.0	fixation	poldrack-single-stim	106	318652	0.0-9.2-0.2	beast_fmri_test	273	318423,/	t	<div class = centerbox2><div class = fixation>+</div></div>	none	500.0	test	n/a	n/a	n/a	n/a	n/a	n/a	n/a	n/a	n/a	n/a	n/a	n/a	n/a	n/a	n/a	n/a	n/a	n/a	fixation
236302.48425904464	2750	n/a	-1	-1	2750	455.515740955	stim	stop-signal	107	321404	0.0-9.2-1.2	beast_fmri_test	273	319105,/,319784,/,320464,/,321143,/,321822,/	t,t,t,t,t	<img class = center src='/static/experiments/beast_fmri_test/images/T.png'></img>	89,71	2750.0	test	<img class = center src='/static/experiments/beast_fmri_test/images/redT.png'></img>	go	-1.0	3.0	2.0	go	temp-non-target	T	89,Middle Finger	71,Index Finger	250.0	500.0	2500.0	2300.0	0.0	n/a	n/a	n/a	go_stim
239052.48425904464	455.51574095539183	n/a	-1	-1	2750	455.515740955	stim	stop-signal	107	321404	0.0-9.2-1.2	beast_fmri_test	273	319105,/,319784,/,320464,/,321143,/,321822,/	t,t,t,t,t	<img class = center src='/static/experiments/beast_fmri_test/images/T.png'></img>	89,71	2750.0	test	<img class = center src='/static/experiments/beast_fmri_test/images/redT.png'></img>	go	-1.0	3.0	2.0	go	temp-non-target	T	89,Middle Finger	71,Index Finger	250.0	500.0	2500.0	2300.0	0.0	n/a	n/a	n/a	ITI
240481	500	n/a	-1	-1	500	0.0	fixation	poldrack-single-stim	108	322377	0.0-9.3-0.3	beast_fmri_test	273	n/a	n/a	<div class = centerbox2><div class = fixation>+</div></div>	none	500.0	test	n/a	n/a	n/a	n/a	n/a	n/a	n/a	n/a	n/a	n/a	n/a	n/a	n/a	n/a	n/a	n/a	n/a	n/a	fixation
240252.66412353382	2750	n/a	954	71	2750	231.335876466	stim	stop-signal	109	325130	0.0-9.3-1.3	beast_fmri_test	273	322503,/,323182,/,323862,/,324542,/,325222,/	t,t,t,t,t	<img class = center src='/static/experiments/beast_fmri_test/images/P.png'></img>	89,71	2750.0	test	<img class = center src='/static/experiments/beast_fmri_test/images/redP.png'></img>	go	2250.0	3.0	3.0	go	non-target	P	89,Middle Finger	71,Index Finger	250.0	500.0	2500.0	2250.0	1.0	n/a	500.0	1.0	go_stim
243002.66412353382	231.33587646618437	n/a	954	71	2750	231.335876466	stim	stop-signal	109	325130	0.0-9.3-1.3	beast_fmri_test	273	322503,/,323182,/,323862,/,324542,/,325222,/	t,t,t,t,t	<img class = center src='/static/experiments/beast_fmri_test/images/P.png'></img>	89,71	2750.0	test	<img class = center src='/static/experiments/beast_fmri_test/images/redP.png'></img>	go	2250.0	3.0	3.0	go	non-target	P	89,Middle Finger	71,Index Finger	250.0	500.0	2500.0	2250.0	1.0	n/a	500.0	1.0	ITI
243982	500	n/a	-1	-1	500	0.0	fixation	poldrack-single-stim	110	325878	0.0-9.4-0.4	beast_fmri_test	273	n/a	n/a	<div class = centerbox2><div class = fixation>+</div></div>	none	500.0	test	n/a	n/a	n/a	n/a	n/a	n/a	n/a	n/a	n/a	n/a	n/a	n/a	n/a	n/a	n/a	n/a	n/a	n/a	fixation
243650.52214333497	2750	n/a	1292	71	2750	332.477856665	stim	stop-signal	111	328629	0.0-9.4-1.4	beast_fmri_test	273	325901,/,326579,/,327260,/,327940,/,328619,/	t,t,t,t,t	<img class = center src='/static/experiments/beast_fmri_test/images/D.png'></img>	89,71	2750.0	test	<img class = center src='/static/experiments/beast_fmri_test/images/redD.png'></img>	go	2250.0	3.0	4.0	go	non-target	D	89,Middle Finger	71,Index Finger	250.0	500.0	2500.0	2250.0	1.0	n/a	500.0	1.0	go_stim
246400.52214333497	332.47785666501306	n/a	1292	71	2750	332.477856665	stim	stop-signal	111	328629	0.0-9.4-1.4	beast_fmri_test	273	325901,/,326579,/,327260,/,327940,/,328619,/	t,t,t,t,t	<img class = center src='/static/experiments/beast_fmri_test/images/D.png'></img>	89,71	2750.0	test	<img class = center src='/static/experiments/beast_fmri_test/images/redD.png'></img>	go	2250.0	3.0	4.0	go	non-target	D	89,Middle Finger	71,Index Finger	250.0	500.0	2500.0	2250.0	1.0	n/a	500.0	1.0	ITI
247583	500	n/a	-1	-1	500	0.0	fixation	poldrack-single-stim	112	329479	0.0-9.5-0.5	beast_fmri_test	273	329300,/	t	<div class = centerbox2><div class = fixation>+</div></div>	none	500.0	test	n/a	n/a	n/a	n/a	n/a	n/a	n/a	n/a	n/a	n/a	n/a	n/a	n/a	n/a	n/a	n/a	n/a	n/a	fixation
245828.14489964751	2750	n/a	594	71	2750	1756.85510035	stim	stop-signal	113	332231	0.0-9.5-1.5	beast_fmri_test	273	329979,/,330658,/,331337,/,332018,/,332698,/,333378,/	t,t,t,t,t,t	<img class = center src='/static/experiments/beast_fmri_test/images/V.png'></img>	89,71	2750.0	test	<img class = center src='/static/experiments/beast_fmri_test/images/redV.png'></img>	go	2250.0	3.0	5.0	go	non-target	V	89,Middle Finger	71,Index Finger	250.0	500.0	2500.0	2250.0	1.0	n/a	500.0	1.0	go_stim
248578.14489964751	1756.8551003524703	n/a	594	71	2750	1756.85510035	stim	stop-signal	113	332231	0.0-9.5-1.5	beast_fmri_test	273	329979,/,330658,/,331337,/,332018,/,332698,/,333378,/	t,t,t,t,t,t	<img class = center src='/static/experiments/beast_fmri_test/images/V.png'></img>	89,71	2750.0	test	<img class = center src='/static/experiments/beast_fmri_test/images/redV.png'></img>	go	2250.0	3.0	5.0	go	non-target	V	89,Middle Finger	71,Index Finger	250.0	500.0	2500.0	2250.0	1.0	n/a	500.0	1.0	ITI
252607	500	n/a	-1	-1	500	0.0	fixation	poldrack-single-stim	114	334503	0.0-9.6-0.6	beast_fmri_test	273	334056,/	t	<div class = centerbox2><div class = fixation>+</div></div>	none	500.0	test	n/a	n/a	n/a	n/a	n/a	n/a	n/a	n/a	n/a	n/a	n/a	n/a	n/a	n/a	n/a	n/a	n/a	n/a	fixation
252034.6435684872	2750	n/a	575	89	2750	575.356431513	stim	stop-signal	115	337256	0.0-9.6-1.6	beast_fmri_test	273	334736,/,335416,/,336098,/,336775,/,337456,/	t,t,t,t,t	<img class = center src='/static/experiments/beast_fmri_test/images/P.png'></img>	89,71	2750.0	test	<img class = center src='/static/experiments/beast_fmri_test/images/redP.png'></img>	go	2500.0	3.0	6.0	go	target	P	89,Middle Finger	71,Index Finger	250.0	500.0	2500.0	2250.0	1.0	n/a	250.0	1.0	go_stim
254784.6435684872	575.35643151278668	n/a	575	89	2750	575.356431513	stim	stop-signal	115	337256	0.0-9.6-1.6	beast_fmri_test	273	334736,/,335416,/,336098,/,336775,/,337456,/	t,t,t,t,t	<img class = center src='/static/experiments/beast_fmri_test/images/P.png'></img>	89,71	2750.0	test	<img class = center src='/static/experiments/beast_fmri_test/images/redP.png'></img>	go	2500.0	3.0	6.0	go	target	P	89,Middle Finger	71,Index Finger	250.0	500.0	2500.0	2250.0	1.0	n/a	250.0	1.0	ITI
256452	500	n/a	-1	-1	500	0.0	fixation	poldrack-single-stim	116	338348	0.0-9.7-0.7	beast_fmri_test	273	338136,/	t	<div class = centerbox2><div class = fixation>+</div></div>	none	500.0	test	n/a	n/a	n/a	n/a	n/a	n/a	n/a	n/a	n/a	n/a	n/a	n/a	n/a	n/a	n/a	n/a	n/a	n/a	fixation
256373.30644294206	250.0	n/a	-1	-1	2750	80.6935570579	stim	stop-signal	117	341100	0.0-9.7-1.7	beast_fmri_test	273	338815,/,339495,/,340175,/,340854,/	t,t,t,t	<img class = center src='/static/experiments/beast_fmri_test/images/D.png'></img>	89,71	2750.0	test	<img class = center src='/static/experiments/beast_fmri_test/images/redD.png'></img>	stop	2500.0	3.0	7.0	stop	target	D	89,Middle Finger	71,Index Finger	250.0	500.0	2500.0	2250.0	0.0	1.0	250.0	n/a	go_stim
258873.30644294206	2500.0	n/a	-1	-1	2750	80.6935570579	stim	stop-signal	117	341100	0.0-9.7-1.7	beast_fmri_test	273	338815,/,339495,/,340175,/,340854,/	t,t,t,t	<img class = center src='/static/experiments/beast_fmri_test/images/D.png'></img>	89,71	2750.0	test	<img class = center src='/static/experiments/beast_fmri_test/images/redD.png'></img>	stop	2500.0	3.0	7.0	stop	target	D	89,Middle Finger	71,Index Finger	250.0	500.0	2500.0	2250.0	0.0	1.0	250.0	n/a	stop_stim
259123.30644294206	80.693557057943707	n/a	-1	-1	2750	80.6935570579	stim	stop-signal	117	341100	0.0-9.7-1.7	beast_fmri_test	273	338815,/,339495,/,340175,/,340854,/	t,t,t,t	<img class = center src='/static/experiments/beast_fmri_test/images/D.png'></img>	89,71	2750.0	test	<img class = center src='/static/experiments/beast_fmri_test/images/redD.png'></img>	stop	2500.0	3.0	7.0	stop	target	D	89,Middle Finger	71,Index Finger	250.0	500.0	2500.0	2250.0	0.0	1.0	250.0	n/a	ITI
259804	500	n/a	-1	-1	500	0.0	fixation	poldrack-single-stim	118	341700	0.0-9.8-0.8	beast_fmri_test	273	341533,/	t	<div class = centerbox2><div class = fixation>+</div></div>	none	500.0	test	n/a	n/a	n/a	n/a	n/a	n/a	n/a	n/a	n/a	n/a	n/a	n/a	n/a	n/a	n/a	n/a	n/a	n/a	fixation
258570.92201215046	300.0	n/a	-1	-1	2750	1236.07798785	stim	stop-signal	119	344453	0.0-9.8-1.8	beast_fmri_test	273	342214,/,342893,/,343573,/,344252,/,344932,/,345612,/	t,t,t,t,t,t	<img class = center src='/static/experiments/beast_fmri_test/images/V.png'></img>	89,71	2750.0	test	<img class = center src='/static/experiments/beast_fmri_test/images/redV.png'></img>	stop	2450.0	3.0	8.0	stop	target	V	89,Middle Finger	71,Index Finger	300.0	500.0	2450.0	2250.0	0.0	1.0	300.0	n/a	go_stim
261020.92201215046	2450.0	n/a	-1	-1	2750	1236.07798785	stim	stop-signal	119	344453	0.0-9.8-1.8	beast_fmri_test	273	342214,/,342893,/,343573,/,344252,/,344932,/,345612,/	t,t,t,t,t,t	<img class = center src='/static/experiments/beast_fmri_test/images/V.png'></img>	89,71	2750.0	test	<img class = center src='/static/experiments/beast_fmri_test/images/redV.png'></img>	stop	2450.0	3.0	8.0	stop	target	V	89,Middle Finger	71,Index Finger	300.0	500.0	2450.0	2250.0	0.0	1.0	300.0	n/a	stop_stim
261320.92201215046	1236.0779878495521	n/a	-1	-1	2750	1236.07798785	stim	stop-signal	119	344453	0.0-9.8-1.8	beast_fmri_test	273	342214,/,342893,/,343573,/,344252,/,344932,/,345612,/	t,t,t,t,t,t	<img class = center src='/static/experiments/beast_fmri_test/images/V.png'></img>	89,71	2750.0	test	<img class = center src='/static/experiments/beast_fmri_test/images/redV.png'></img>	stop	2450.0	3.0	8.0	stop	target	V	89,Middle Finger	71,Index Finger	300.0	500.0	2450.0	2250.0	0.0	1.0	300.0	n/a	ITI
264310	500	n/a	-1	-1	500	0.0	fixation	poldrack-single-stim	120	346206	0.0-9.9-0.9	beast_fmri_test	273	n/a	n/a	<div class = centerbox2><div class = fixation>+</div></div>	none	500.0	test	n/a	n/a	n/a	n/a	n/a	n/a	n/a	n/a	n/a	n/a	n/a	n/a	n/a	n/a	n/a	n/a	n/a	n/a	fixation
264147.92411550414	2750	n/a	636	89	2750	164.075884496	stim	stop-signal	121	348958	0.0-9.9-1.9	beast_fmri_test	273	346292,/,346971,/,347651,/,348331,/,349011,/	t,t,t,t,t	<img class = center src='/static/experiments/beast_fmri_test/images/V.png'></img>	89,71	2750.0	test	<img class = center src='/static/experiments/beast_fmri_test/images/redV.png'></img>	go	2250.0	3.0	9.0	go	non-target	V	89,Middle Finger	71,Index Finger	350.0	500.0	2450.0	2250.0	0.0	n/a	500.0	0.0	go_stim
266897.92411550414	164.07588449588118	n/a	636	89	2750	164.075884496	stim	stop-signal	121	348958	0.0-9.9-1.9	beast_fmri_test	273	346292,/,346971,/,347651,/,348331,/,349011,/	t,t,t,t,t	<img class = center src='/static/experiments/beast_fmri_test/images/V.png'></img>	89,71	2750.0	test	<img class = center src='/static/experiments/beast_fmri_test/images/redV.png'></img>	go	2250.0	3.0	9.0	go	non-target	V	89,Middle Finger	71,Index Finger	350.0	500.0	2450.0	2250.0	0.0	n/a	500.0	0.0	ITI
267743	500	n/a	-1	-1	500	0.0	fixation	poldrack-single-stim	122	349639	0.0-9.10-0.10	beast_fmri_test	273	n/a	n/a	<div class = centerbox2><div class = fixation>+</div></div>	none	500.0	test	n/a	n/a	n/a	n/a	n/a	n/a	n/a	n/a	n/a	n/a	n/a	n/a	n/a	n/a	n/a	n/a	n/a	n/a	fixation
265760.93288681959	2750	n/a	820	71	2750	1984.06711318	stim	stop-signal	123	352391	0.0-9.10-1.10	beast_fmri_test	273	349689,/,350370,/,351050,/,351729,/,352408,/,353088,/,353768,/	t,t,t,t,t,t,t	<img class = center src='/static/experiments/beast_fmri_test/images/P.png'></img>	89,71	2750.0	test	<img class = center src='/static/experiments/beast_fmri_test/images/redP.png'></img>	go	2250.0	3.0	10.0	go	non-target	P	89,Middle Finger	71,Index Finger	350.0	500.0	2450.0	2250.0	1.0	n/a	500.0	1.0	go_stim
268510.93288681959	1984.0671131803995	n/a	820	71	2750	1984.06711318	stim	stop-signal	123	352391	0.0-9.10-1.10	beast_fmri_test	273	349689,/,350370,/,351050,/,351729,/,352408,/,353088,/,353768,/	t,t,t,t,t,t,t	<img class = center src='/static/experiments/beast_fmri_test/images/P.png'></img>	89,71	2750.0	test	<img class = center src='/static/experiments/beast_fmri_test/images/redP.png'></img>	go	2250.0	3.0	10.0	go	non-target	P	89,Middle Finger	71,Index Finger	350.0	500.0	2450.0	2250.0	1.0	n/a	500.0	1.0	ITI
272996	500	n/a	-1	-1	500	0.0	fixation	poldrack-single-stim	124	354892	0.0-9.11-0.11	beast_fmri_test	273	354448,/	t	<div class = centerbox2><div class = fixation>+</div></div>	none	500.0	test	n/a	n/a	n/a	n/a	n/a	n/a	n/a	n/a	n/a	n/a	n/a	n/a	n/a	n/a	n/a	n/a	n/a	n/a	fixation
272759.81216179149	2750	n/a	730	89	2750	238.187838209	stim	stop-signal	125	357644	0.0-9.11-1.11	beast_fmri_test	273	355127,/,355806,/,356487,/,357165,/,357846,/	t,t,t,t,t	<img class = center src='/static/experiments/beast_fmri_test/images/D.png'></img>	89,71	2750.0	test	<img class = center src='/static/experiments/beast_fmri_test/images/redD.png'></img>	go	2250.0	3.0	11.0	go	non-target	D	89,Middle Finger	71,Index Finger	350.0	500.0	2450.0	2250.0	0.0	n/a	500.0	0.0	go_stim
275509.81216179149	238.18783820853284	n/a	730	89	2750	238.187838209	stim	stop-signal	125	357644	0.0-9.11-1.11	beast_fmri_test	273	355127,/,355806,/,356487,/,357165,/,357846,/	t,t,t,t,t	<img class = center src='/static/experiments/beast_fmri_test/images/D.png'></img>	89,71	2750.0	test	<img class = center src='/static/experiments/beast_fmri_test/images/redD.png'></img>	go	2250.0	3.0	11.0	go	non-target	D	89,Middle Finger	71,Index Finger	350.0	500.0	2450.0	2250.0	0.0	n/a	500.0	0.0	ITI
276505	500	n/a	-1	-1	500	0.0	fixation	poldrack-single-stim	126	358401	0.0-9.12-0.12	beast_fmri_test	273	n/a	n/a	<div class = centerbox2><div class = fixation>+</div></div>	none	500.0	test	n/a	n/a	n/a	n/a	n/a	n/a	n/a	n/a	n/a	n/a	n/a	n/a	n/a	n/a	n/a	n/a	n/a	n/a	fixation
276098.68812484108	2750	n/a	1092	71	2750	408.311875159	stim	stop-signal	127	361153	0.0-9.12-1.12	beast_fmri_test	273	358526,/,359204,/,359884,/,360565,/,361244,/	t,t,t,t,t	<img class = center src='/static/experiments/beast_fmri_test/images/P.png'></img>	89,71	2750.0	test	<img class = center src='/static/experiments/beast_fmri_test/images/redP.png'></img>	go	2250.0	3.0	12.0	go	non-target	P	89,Middle Finger	71,Index Finger	350.0	500.0	2450.0	2250.0	1.0	n/a	500.0	1.0	go_stim
278848.68812484108	408.31187515889997	n/a	1092	71	2750	408.311875159	stim	stop-signal	127	361153	0.0-9.12-1.12	beast_fmri_test	273	358526,/,359204,/,359884,/,360565,/,361244,/	t,t,t,t,t	<img class = center src='/static/experiments/beast_fmri_test/images/P.png'></img>	89,71	2750.0	test	<img class = center src='/static/experiments/beast_fmri_test/images/redP.png'></img>	go	2250.0	3.0	12.0	go	non-target	P	89,Middle Finger	71,Index Finger	350.0	500.0	2450.0	2250.0	1.0	n/a	500.0	1.0	ITI
280184	500	n/a	-1	-1	500	0.0	fixation	poldrack-single-stim	128	362080	0.0-9.13-0.13	beast_fmri_test	273	361924,/	t	<div class = centerbox2><div class = fixation>+</div></div>	none	500.0	test	n/a	n/a	n/a	n/a	n/a	n/a	n/a	n/a	n/a	n/a	n/a	n/a	n/a	n/a	n/a	n/a	n/a	n/a	fixation
279983.56337236922	500.0	n/a	-1	-1	2750	201.436627631	stim	stop-signal	129	364831	0.0-9.13-1.13	beast_fmri_test	273	362603,/,363283,/,363963,/,364644,/	t,t,t,t	<img class = center src='/static/experiments/beast_fmri_test/images/T.png'></img>	89,71	2750.0	test	<img class = center src='/static/experiments/beast_fmri_test/images/redT.png'></img>	stop	2250.0	3.0	13.0	stop	non-target	T	89,Middle Finger	71,Index Finger	350.0	500.0	2450.0	2250.0	0.0	1.0	500.0	n/a	go_stim
282233.56337236922	2250.0	n/a	-1	-1	2750	201.436627631	stim	stop-signal	129	364831	0.0-9.13-1.13	beast_fmri_test	273	362603,/,363283,/,363963,/,364644,/	t,t,t,t	<img class = center src='/static/experiments/beast_fmri_test/images/T.png'></img>	89,71	2750.0	test	<img class = center src='/static/experiments/beast_fmri_test/images/redT.png'></img>	stop	2250.0	3.0	13.0	stop	non-target	T	89,Middle Finger	71,Index Finger	350.0	500.0	2450.0	2250.0	0.0	1.0	500.0	n/a	stop_stim
282733.56337236922	201.43662763079732	n/a	-1	-1	2750	201.436627631	stim	stop-signal	129	364831	0.0-9.13-1.13	beast_fmri_test	273	362603,/,363283,/,363963,/,364644,/	t,t,t,t	<img class = center src='/static/experiments/beast_fmri_test/images/T.png'></img>	89,71	2750.0	test	<img class = center src='/static/experiments/beast_fmri_test/images/redT.png'></img>	stop	2250.0	3.0	13.0	stop	non-target	T	89,Middle Finger	71,Index Finger	350.0	500.0	2450.0	2250.0	0.0	1.0	500.0	n/a	ITI
283656	500	n/a	-1	-1	500	0.0	fixation	poldrack-single-stim	130	365552	0.0-9.14-0.14	beast_fmri_test	273	365323,/	t	<div class = centerbox2><div class = fixation>+</div></div>	none	500.0	test	n/a	n/a	n/a	n/a	n/a	n/a	n/a	n/a	n/a	n/a	n/a	n/a	n/a	n/a	n/a	n/a	n/a	n/a	fixation
283251.26591729675	2750	n/a	1238	89	2750	410.734082703	stim	stop-signal	131	368308	0.0-9.14-1.14	beast_fmri_test	273	366003,/,366683,/,367363,/,368042,/,368722,/	t,t,t,t,t	<img class = center src='/static/experiments/beast_fmri_test/images/D.png'></img>	89,71	2750.0	test	<img class = center src='/static/experiments/beast_fmri_test/images/redD.png'></img>	go	2400.0	3.0	14.0	go	target	D	89,Middle Finger	71,Index Finger	350.0	550.0	2400.0	2250.0	1.0	n/a	350.0	1.0	go_stim
286001.26591729675	410.73408270327201	n/a	1238	89	2750	410.734082703	stim	stop-signal	131	368308	0.0-9.14-1.14	beast_fmri_test	273	366003,/,366683,/,367363,/,368042,/,368722,/	t,t,t,t,t	<img class = center src='/static/experiments/beast_fmri_test/images/D.png'></img>	89,71	2750.0	test	<img class = center src='/static/experiments/beast_fmri_test/images/redD.png'></img>	go	2400.0	3.0	14.0	go	target	D	89,Middle Finger	71,Index Finger	350.0	550.0	2400.0	2250.0	1.0	n/a	350.0	1.0	ITI
287342	500	n/a	-1	-1	500	0.0	fixation	poldrack-single-stim	132	369238	0.0-9.15-0.15	beast_fmri_test	273	n/a	n/a	<div class = centerbox2><div class = fixation>+</div></div>	none	500.0	test	n/a	n/a	n/a	n/a	n/a	n/a	n/a	n/a	n/a	n/a	n/a	n/a	n/a	n/a	n/a	n/a	n/a	n/a	fixation
286514.01790591236	550.0	n/a	901	71	2750	829.982094088	stim	stop-signal	133	371990	0.0-9.15-1.15	beast_fmri_test	273	369401,/,370081,/,370760,/,371440,/,372120,/,372799,/	t,t,t,t,t,t	<img class = center src='/static/experiments/beast_fmri_test/images/V.png'></img>	89,71	2750.0	test	<img class = center src='/static/experiments/beast_fmri_test/images/redV.png'></img>	stop	2200.0	3.0	15.0	stop	non-target	V	89,Middle Finger	71,Index Finger	350.0	550.0	2400.0	2200.0	0.0	0.0	550.0	n/a	go_stim
288714.01790591236	2200.0	n/a	901	71	2750	829.982094088	stim	stop-signal	133	371990	0.0-9.15-1.15	beast_fmri_test	273	369401,/,370081,/,370760,/,371440,/,372120,/,372799,/	t,t,t,t,t,t	<img class = center src='/static/experiments/beast_fmri_test/images/V.png'></img>	89,71	2750.0	test	<img class = center src='/static/experiments/beast_fmri_test/images/redV.png'></img>	stop	2200.0	3.0	15.0	stop	non-target	V	89,Middle Finger	71,Index Finger	350.0	550.0	2400.0	2200.0	0.0	0.0	550.0	n/a	stop_stim
289264.01790591236	829.9820940876582	n/a	901	71	2750	829.982094088	stim	stop-signal	133	371990	0.0-9.15-1.15	beast_fmri_test	273	369401,/,370081,/,370760,/,371440,/,372120,/,372799,/	t,t,t,t,t,t	<img class = center src='/static/experiments/beast_fmri_test/images/V.png'></img>	89,71	2750.0	test	<img class = center src='/static/experiments/beast_fmri_test/images/redV.png'></img>	stop	2200.0	3.0	15.0	stop	non-target	V	89,Middle Finger	71,Index Finger	350.0	550.0	2400.0	2200.0	0.0	0.0	550.0	n/a	ITI
291440	500	n/a	-1	-1	500	0.0	fixation	poldrack-single-stim	134	373336	0.0-9.16-0.16	beast_fmri_test	273	n/a	n/a	<div class = centerbox2><div class = fixation>+</div></div>	none	500.0	test	n/a	n/a	n/a	n/a	n/a	n/a	n/a	n/a	n/a	n/a	n/a	n/a	n/a	n/a	n/a	n/a	n/a	n/a	fixation
291440.97904665238	2750	n/a	1114	71	2750	0.0209533476342	stim	stop-signal	135	376087	0.0-9.16-1.16	beast_fmri_test	273	373479,/,374159,/,374839,/,375517,/	t,t,t,t	<img class = center src='/static/experiments/beast_fmri_test/images/T.png'></img>	89,71	2750.0	test	<img class = center src='/static/experiments/beast_fmri_test/images/redT.png'></img>	go	2400.0	3.0	16.0	go	target	T	89,Middle Finger	71,Index Finger	350.0	500.0	2400.0	2200.0	0.0	n/a	350.0	0.0	go_stim
294190.97904665238	0.020953347634198004	n/a	1114	71	2750	0.0209533476342	stim	stop-signal	135	376087	0.0-9.16-1.16	beast_fmri_test	273	373479,/,374159,/,374839,/,375517,/	t,t,t,t	<img class = center src='/static/experiments/beast_fmri_test/images/T.png'></img>	89,71	2750.0	test	<img class = center src='/static/experiments/beast_fmri_test/images/redT.png'></img>	go	2400.0	3.0	16.0	go	target	T	89,Middle Finger	71,Index Finger	350.0	500.0	2400.0	2200.0	0.0	n/a	350.0	0.0	ITI
294715	500	n/a	-1	-1	500	0.0	fixation	poldrack-single-stim	136	376611	0.0-9.17-0.17	beast_fmri_test	273	376198,/	t	<div class = centerbox2><div class = fixation>+</div></div>	none	500.0	test	n/a	n/a	n/a	n/a	n/a	n/a	n/a	n/a	n/a	n/a	n/a	n/a	n/a	n/a	n/a	n/a	n/a	n/a	fixation
294154.38518415642	2750	n/a	1554	71	2750	562.614815844	stim	stop-signal	137	379363	0.0-9.17-1.17	beast_fmri_test	273	376878,/,377556,/,378236,/,378917,/,379595,/	t,t,t,t,t	<img class = center src='/static/experiments/beast_fmri_test/images/D.png'></img>	89,71	2750.0	test	<img class = center src='/static/experiments/beast_fmri_test/images/redD.png'></img>	go	2400.0	3.0	17.0	go	target	D	89,Middle Finger	71,Index Finger	350.0	500.0	2400.0	2200.0	0.0	n/a	350.0	0.0	go_stim
296904.38518415642	562.61481584360888	n/a	1554	71	2750	562.614815844	stim	stop-signal	137	379363	0.0-9.17-1.17	beast_fmri_test	273	376878,/,377556,/,378236,/,378917,/,379595,/	t,t,t,t,t	<img class = center src='/static/experiments/beast_fmri_test/images/D.png'></img>	89,71	2750.0	test	<img class = center src='/static/experiments/beast_fmri_test/images/redD.png'></img>	go	2400.0	3.0	17.0	go	target	D	89,Middle Finger	71,Index Finger	350.0	500.0	2400.0	2200.0	0.0	n/a	350.0	0.0	ITI
298549	500	n/a	-1	-1	500	0.0	fixation	poldrack-single-stim	138	380445	0.0-9.18-0.18	beast_fmri_test	273	380276,/	t	<div class = centerbox2><div class = fixation>+</div></div>	none	500.0	test	n/a	n/a	n/a	n/a	n/a	n/a	n/a	n/a	n/a	n/a	n/a	n/a	n/a	n/a	n/a	n/a	n/a	n/a	fixation
298206.64635526395	2750	n/a	905	89	2750	343.353644736	stim	stop-signal	139	383196	0.0-9.18-1.18	beast_fmri_test	273	380955,/,381635,/,382315,/,382994,/	t,t,t,t	<img class = center src='/static/experiments/beast_fmri_test/images/P.png'></img>	89,71	2750.0	test	<img class = center src='/static/experiments/beast_fmri_test/images/redP.png'></img>	go	2250.0	3.0	18.0	go	non-target	P	89,Middle Finger	71,Index Finger	350.0	500.0	2400.0	2250.0	0.0	n/a	500.0	0.0	go_stim
300956.64635526395	343.35364473607103	n/a	905	89	2750	343.353644736	stim	stop-signal	139	383196	0.0-9.18-1.18	beast_fmri_test	273	380955,/,381635,/,382315,/,382994,/	t,t,t,t	<img class = center src='/static/experiments/beast_fmri_test/images/P.png'></img>	89,71	2750.0	test	<img class = center src='/static/experiments/beast_fmri_test/images/redP.png'></img>	go	2250.0	3.0	18.0	go	non-target	P	89,Middle Finger	71,Index Finger	350.0	500.0	2400.0	2250.0	0.0	n/a	500.0	0.0	ITI
302163	500	n/a	-1	-1	500	0.0	fixation	poldrack-single-stim	140	384059	0.0-9.19-0.19	beast_fmri_test	273	383674,/	t	<div class = centerbox2><div class = fixation>+</div></div>	none	500.0	test	n/a	n/a	n/a	n/a	n/a	n/a	n/a	n/a	n/a	n/a	n/a	n/a	n/a	n/a	n/a	n/a	n/a	n/a	fixation
300888.56259620865	500.0	n/a	-1	-1	2750	1275.43740379	stim	stop-signal	141	386810	0.0-9.19-1.19	beast_fmri_test	273	384354,/,385034,/,385712,/,386393,/,387072,/,387751,/	t,t,t,t,t,t	<img class = center src='/static/experiments/beast_fmri_test/images/V.png'></img>	89,71	2750.0	test	<img class = center src='/static/experiments/beast_fmri_test/images/redV.png'></img>	stop	2250.0	3.0	19.0	stop	non-target	V	89,Middle Finger	71,Index Finger	350.0	500.0	2400.0	2250.0	0.0	1.0	500.0	n/a	go_stim
303138.56259620865	2250.0	n/a	-1	-1	2750	1275.43740379	stim	stop-signal	141	386810	0.0-9.19-1.19	beast_fmri_test	273	384354,/,385034,/,385712,/,386393,/,387072,/,387751,/	t,t,t,t,t,t	<img class = center src='/static/experiments/beast_fmri_test/images/V.png'></img>	89,71	2750.0	test	<img class = center src='/static/experiments/beast_fmri_test/images/redV.png'></img>	stop	2250.0	3.0	19.0	stop	non-target	V	89,Middle Finger	71,Index Finger	350.0	500.0	2400.0	2250.0	0.0	1.0	500.0	n/a	stop_stim
303638.56259620865	1275.4374037913526	n/a	-1	-1	2750	1275.43740379	stim	stop-signal	141	386810	0.0-9.19-1.19	beast_fmri_test	273	384354,/,385034,/,385712,/,386393,/,387072,/,387751,/	t,t,t,t,t,t	<img class = center src='/static/experiments/beast_fmri_test/images/V.png'></img>	89,71	2750.0	test	<img class = center src='/static/experiments/beast_fmri_test/images/redV.png'></img>	stop	2250.0	3.0	19.0	stop	non-target	V	89,Middle Finger	71,Index Finger	350.0	500.0	2400.0	2250.0	0.0	1.0	500.0	n/a	ITI
306709	500	n/a	-1	-1	500	0.0	fixation	poldrack-single-stim	142	388605	0.0-9.20-0.20	beast_fmri_test	273	388430,/	t	<div class = centerbox2><div class = fixation>+</div></div>	none	500.0	test	n/a	n/a	n/a	n/a	n/a	n/a	n/a	n/a	n/a	n/a	n/a	n/a	n/a	n/a	n/a	n/a	n/a	n/a	fixation
306467.02103497594	2750	n/a	925	71	2750	244.978965024	stim	stop-signal	143	391358	0.0-9.20-1.20	beast_fmri_test	273	389112,/,389790,/,390471,/,391149,/	t,t,t,t	<img class = center src='/static/experiments/beast_fmri_test/images/D.png'></img>	89,71	2750.0	test	<img class = center src='/static/experiments/beast_fmri_test/images/redD.png'></img>	go	2400.0	3.0	20.0	go	target	D	89,Middle Finger	71,Index Finger	350.0	550.0	2400.0	2250.0	0.0	n/a	350.0	0.0	go_stim
309217.02103497594	244.97896502402835	n/a	925	71	2750	244.978965024	stim	stop-signal	143	391358	0.0-9.20-1.20	beast_fmri_test	273	389112,/,389790,/,390471,/,391149,/	t,t,t,t	<img class = center src='/static/experiments/beast_fmri_test/images/D.png'></img>	89,71	2750.0	test	<img class = center src='/static/experiments/beast_fmri_test/images/redD.png'></img>	go	2400.0	3.0	20.0	go	target	D	89,Middle Finger	71,Index Finger	350.0	550.0	2400.0	2250.0	0.0	n/a	350.0	0.0	ITI
310227	500	n/a	-1	-1	500	0.0	fixation	poldrack-single-stim	144	392123	0.0-9.21-0.21	beast_fmri_test	273	391830,/	t	<div class = centerbox2><div class = fixation>+</div></div>	none	500.0	test	n/a	n/a	n/a	n/a	n/a	n/a	n/a	n/a	n/a	n/a	n/a	n/a	n/a	n/a	n/a	n/a	n/a	n/a	fixation
309373.42010076344	350.0	n/a	-1	-1	2750	854.579899237	stim	stop-signal	145	394874	0.0-9.21-1.21	beast_fmri_test	273	392509,/,393189,/,393869,/,394549,/,395230,/	t,t,t,t,t	<img class = center src='/static/experiments/beast_fmri_test/images/P.png'></img>	89,71	2750.0	test	<img class = center src='/static/experiments/beast_fmri_test/images/redP.png'></img>	stop	2400.0	3.0	21.0	stop	target	P	89,Middle Finger	71,Index Finger	350.0	550.0	2400.0	2250.0	0.0	1.0	350.0	n/a	go_stim
311773.42010076344	2400.0	n/a	-1	-1	2750	854.579899237	stim	stop-signal	145	394874	0.0-9.21-1.21	beast_fmri_test	273	392509,/,393189,/,393869,/,394549,/,395230,/	t,t,t,t,t	<img class = center src='/static/experiments/beast_fmri_test/images/P.png'></img>	89,71	2750.0	test	<img class = center src='/static/experiments/beast_fmri_test/images/redP.png'></img>	stop	2400.0	3.0	21.0	stop	target	P	89,Middle Finger	71,Index Finger	350.0	550.0	2400.0	2250.0	0.0	1.0	350.0	n/a	stop_stim
312123.42010076344	854.57989923653736	n/a	-1	-1	2750	854.579899237	stim	stop-signal	145	394874	0.0-9.21-1.21	beast_fmri_test	273	392509,/,393189,/,393869,/,394549,/,395230,/	t,t,t,t,t	<img class = center src='/static/experiments/beast_fmri_test/images/P.png'></img>	89,71	2750.0	test	<img class = center src='/static/experiments/beast_fmri_test/images/redP.png'></img>	stop	2400.0	3.0	21.0	stop	target	P	89,Middle Finger	71,Index Finger	350.0	550.0	2400.0	2250.0	0.0	1.0	350.0	n/a	ITI
314353	500	n/a	-1	-1	500	0.0	fixation	poldrack-single-stim	146	396249	0.0-9.22-0.22	beast_fmri_test	273	395908,/	t	<div class = centerbox2><div class = fixation>+</div></div>	none	500.0	test	n/a	n/a	n/a	n/a	n/a	n/a	n/a	n/a	n/a	n/a	n/a	n/a	n/a	n/a	n/a	n/a	n/a	n/a	fixation
313059.80594328651	2750	n/a	632	89	2750	1295.19405671	stim	stop-signal	147	399001	0.0-9.22-1.22	beast_fmri_test	273	396588,/,397268,/,397948,/,398628,/,399307,/,399987,/	t,t,t,t,t,t	<img class = center src='/static/experiments/beast_fmri_test/images/V.png'></img>	89,71	2750.0	test	<img class = center src='/static/experiments/beast_fmri_test/images/redV.png'></img>	go	2350.0	3.0	22.0	go	target	V	89,Middle Finger	71,Index Finger	400.0	550.0	2350.0	2250.0	1.0	n/a	400.0	1.0	go_stim
