onset	duration	"“text"""	rt	key_press	block_duration	timing_post_trial	trial_id	trial_type	trial_index	time_elapsed	internal_node_id	exp_id	subject_id	trigger_times	triggers	stimulus	possible_responses	stim_duration	exp_stage	SS_stimulus	SS_trial_type	SS_duration	load	trial_num	stop_trial_type	adaptive_trial_type	stim	yes_response_key	no_response_key	SSD_target	SSD_non_target	SSTarget	SSNonTarget	go_acc	stop_acc	SS_delay	adaptive_acc	new_trial_type
test	10880	n/a	-1	-1	10880	0.0	practice-no-stop-feedback	poldrack-single-stim	590	1620367	0.0-24.0	beast_fmri_test	273	1609491,/,1610171,/,1610850,/,1611530,/,1612210,/,1612890,/,1613569,/,1614249,/,1614927,/,1615608,/,1616288,/,1616966,/,1617646,/,1618327,/,1619006,/,1619686,/,1620366,/	t,t,t,t,t,t,t,t,t,t,t,t,t,t,t,t,t	"<div class = ""centerbox""><p class = ""block-text"">Your delay is 3 trials.</p><p class = block-text>Please wait for the scanner to start the block</p></div>"	77	10880.0	n/a	n/a	n/a	n/a	n/a	n/a	n/a	n/a	n/a	n/a	n/a	n/a	n/a	n/a	n/a	n/a	n/a	n/a	n/a	start_functional_block
11378	500	n/a	-1	-1	500	0.0	fixation	poldrack-single-stim	591	1620869	0.0-25.0-0.0	beast_fmri_test	273	n/a	n/a	<div class = centerbox2><div class = fixation>+</div></div>	none	500.0	test	n/a	n/a	n/a	n/a	n/a	n/a	n/a	n/a	n/a	n/a	n/a	n/a	n/a	n/a	n/a	n/a	n/a	n/a	fixation
10134.256980891572	temp_go_duration	n/a	-1	-1	2750	1246.74301911	stim	stop-signal	592	1623622	0.0-25.0-1.0	beast_fmri_test	273	1621046,/,1621725,/,1622405,/,1623084,/,1623765,/,1624445,/	t,t,t,t,t,t	<img class = center src='/static/experiments/beast_fmri_test/images/P.png'></img>	89,71	2750.0	test	<img class = center src='/static/experiments/beast_fmri_test/images/redP.png'></img>	stop	-1.0	3.0	0.0	stop	temp-non-target	P	89,Middle Finger	71,Index Finger	600.0	700.0	2200.0	2050.0	0.0	1.0	n/a	n/a	go_stim
temp-non-target	temp_stop_duration	n/a	-1	-1	2750	1246.74301911	stim	stop-signal	592	1623622	0.0-25.0-1.0	beast_fmri_test	273	1621046,/,1621725,/,1622405,/,1623084,/,1623765,/,1624445,/	t,t,t,t,t,t	<img class = center src='/static/experiments/beast_fmri_test/images/P.png'></img>	89,71	2750.0	test	<img class = center src='/static/experiments/beast_fmri_test/images/redP.png'></img>	stop	-1.0	3.0	0.0	stop	temp-non-target	P	89,Middle Finger	71,Index Finger	600.0	700.0	2200.0	2050.0	0.0	1.0	n/a	n/a	stop_stim
12884.256980891572	1246.7430191083802	n/a	-1	-1	2750	1246.74301911	stim	stop-signal	592	1623622	0.0-25.0-1.0	beast_fmri_test	273	1621046,/,1621725,/,1622405,/,1623084,/,1623765,/,1624445,/	t,t,t,t,t,t	<img class = center src='/static/experiments/beast_fmri_test/images/P.png'></img>	89,71	2750.0	test	<img class = center src='/static/experiments/beast_fmri_test/images/redP.png'></img>	stop	-1.0	3.0	0.0	stop	temp-non-target	P	89,Middle Finger	71,Index Finger	600.0	700.0	2200.0	2050.0	0.0	1.0	n/a	n/a	ITI
15941	500	n/a	-1	-1	500	0.0	fixation	poldrack-single-stim	593	1625432	0.0-25.1-0.1	beast_fmri_test	273	1625124,/	t	<div class = centerbox2><div class = fixation>+</div></div>	none	500.0	test	n/a	n/a	n/a	n/a	n/a	n/a	n/a	n/a	n/a	n/a	n/a	n/a	n/a	n/a	n/a	n/a	n/a	n/a	fixation
15363.377425765386	temp_go_duration	n/a	-1	-1	2750	577.622574235	stim	stop-signal	594	1628182	0.0-25.1-1.1	beast_fmri_test	273	1625804,/,1626484,/,1627164,/,1627843,/,1628521,/	t,t,t,t,t	<img class = center src='/static/experiments/beast_fmri_test/images/P.png'></img>	89,71	2750.0	test	<img class = center src='/static/experiments/beast_fmri_test/images/redP.png'></img>	stop	-1.0	3.0	1.0	stop	temp-non-target	P	89,Middle Finger	71,Index Finger	600.0	700.0	2200.0	2050.0	0.0	1.0	n/a	n/a	go_stim
temp-non-target	temp_stop_duration	n/a	-1	-1	2750	577.622574235	stim	stop-signal	594	1628182	0.0-25.1-1.1	beast_fmri_test	273	1625804,/,1626484,/,1627164,/,1627843,/,1628521,/	t,t,t,t,t	<img class = center src='/static/experiments/beast_fmri_test/images/P.png'></img>	89,71	2750.0	test	<img class = center src='/static/experiments/beast_fmri_test/images/redP.png'></img>	stop	-1.0	3.0	1.0	stop	temp-non-target	P	89,Middle Finger	71,Index Finger	600.0	700.0	2200.0	2050.0	0.0	1.0	n/a	n/a	stop_stim
18113.377425765386	577.62257423455321	n/a	-1	-1	2750	577.622574235	stim	stop-signal	594	1628182	0.0-25.1-1.1	beast_fmri_test	273	1625804,/,1626484,/,1627164,/,1627843,/,1628521,/	t,t,t,t,t	<img class = center src='/static/experiments/beast_fmri_test/images/P.png'></img>	89,71	2750.0	test	<img class = center src='/static/experiments/beast_fmri_test/images/redP.png'></img>	stop	-1.0	3.0	1.0	stop	temp-non-target	P	89,Middle Finger	71,Index Finger	600.0	700.0	2200.0	2050.0	0.0	1.0	n/a	n/a	ITI
19834	500	n/a	-1	-1	500	0.0	fixation	poldrack-single-stim	595	1629325	0.0-25.2-0.2	beast_fmri_test	273	1629203,/	t	<div class = centerbox2><div class = fixation>+</div></div>	none	500.0	test	n/a	n/a	n/a	n/a	n/a	n/a	n/a	n/a	n/a	n/a	n/a	n/a	n/a	n/a	n/a	n/a	n/a	n/a	fixation
19770.672572507057	2750	n/a	-1	-1	2750	64.3274274929	stim	stop-signal	596	1632076	0.0-25.2-1.2	beast_fmri_test	273	1629882,/,1630561,/,1631240,/,1631920,/	t,t,t,t	<img class = center src='/static/experiments/beast_fmri_test/images/T.png'></img>	89,71	2750.0	test	<img class = center src='/static/experiments/beast_fmri_test/images/redT.png'></img>	go	-1.0	3.0	2.0	go	temp-non-target	T	89,Middle Finger	71,Index Finger	600.0	700.0	2200.0	2050.0	0.0	n/a	n/a	n/a	go_stim
22520.672572507057	64.327427492898281	n/a	-1	-1	2750	64.3274274929	stim	stop-signal	596	1632076	0.0-25.2-1.2	beast_fmri_test	273	1629882,/,1630561,/,1631240,/,1631920,/	t,t,t,t	<img class = center src='/static/experiments/beast_fmri_test/images/T.png'></img>	89,71	2750.0	test	<img class = center src='/static/experiments/beast_fmri_test/images/redT.png'></img>	go	-1.0	3.0	2.0	go	temp-non-target	T	89,Middle Finger	71,Index Finger	600.0	700.0	2200.0	2050.0	0.0	n/a	n/a	n/a	ITI
23213	500	n/a	-1	-1	500	0.0	fixation	poldrack-single-stim	597	1632704	0.0-25.3-0.3	beast_fmri_test	273	1632600,/	t	<div class = centerbox2><div class = fixation>+</div></div>	none	500.0	test	n/a	n/a	n/a	n/a	n/a	n/a	n/a	n/a	n/a	n/a	n/a	n/a	n/a	n/a	n/a	n/a	n/a	n/a	fixation
22514.889806609601	2750	n/a	866	71	2750	700.11019339	stim	stop-signal	598	1635456	0.0-25.3-1.3	beast_fmri_test	273	1633279,/,1633958,/,1634640,/,1635320,/,1635999,/	t,t,t,t,t	<img class = center src='/static/experiments/beast_fmri_test/images/B.png'></img>	89,71	2750.0	test	<img class = center src='/static/experiments/beast_fmri_test/images/redB.png'></img>	go	2050.0	3.0	3.0	go	non-target	B	89,Middle Finger	71,Index Finger	600.0	700.0	2200.0	2050.0	1.0	n/a	700.0	1.0	go_stim
25264.889806609601	700.11019339040661	n/a	866	71	2750	700.11019339	stim	stop-signal	598	1635456	0.0-25.3-1.3	beast_fmri_test	273	1633279,/,1633958,/,1634640,/,1635320,/,1635999,/	t,t,t,t,t	<img class = center src='/static/experiments/beast_fmri_test/images/B.png'></img>	89,71	2750.0	test	<img class = center src='/static/experiments/beast_fmri_test/images/redB.png'></img>	go	2050.0	3.0	3.0	go	non-target	B	89,Middle Finger	71,Index Finger	600.0	700.0	2200.0	2050.0	1.0	n/a	700.0	1.0	ITI
27243	500	n/a	-1	-1	500	0.0	fixation	poldrack-single-stim	599	1636734	0.0-25.4-0.4	beast_fmri_test	273	1636678,/	t	<div class = centerbox2><div class = fixation>+</div></div>	none	500.0	test	n/a	n/a	n/a	n/a	n/a	n/a	n/a	n/a	n/a	n/a	n/a	n/a	n/a	n/a	n/a	n/a	n/a	n/a	fixation
26465.59069822426	600.0	n/a	793	89	2750	779.409301776	stim	stop-signal	600	1639486	0.0-25.4-1.4	beast_fmri_test	273	1637358,/,1638038,/,1638718,/,1639398,/,1640078,/	t,t,t,t,t	<img class = center src='/static/experiments/beast_fmri_test/images/P.png'></img>	89,71	2750.0	test	<img class = center src='/static/experiments/beast_fmri_test/images/redP.png'></img>	stop	2150.0	3.0	4.0	stop	target	P	89,Middle Finger	71,Index Finger	600.0	700.0	2150.0	2050.0	0.0	0.0	600.0	n/a	go_stim
28615.59069822426	2150.0	n/a	793	89	2750	779.409301776	stim	stop-signal	600	1639486	0.0-25.4-1.4	beast_fmri_test	273	1637358,/,1638038,/,1638718,/,1639398,/,1640078,/	t,t,t,t,t	<img class = center src='/static/experiments/beast_fmri_test/images/P.png'></img>	89,71	2750.0	test	<img class = center src='/static/experiments/beast_fmri_test/images/redP.png'></img>	stop	2150.0	3.0	4.0	stop	target	P	89,Middle Finger	71,Index Finger	600.0	700.0	2150.0	2050.0	0.0	0.0	600.0	n/a	stop_stim
29215.59069822426	779.40930177584232	n/a	793	89	2750	779.409301776	stim	stop-signal	600	1639486	0.0-25.4-1.4	beast_fmri_test	273	1637358,/,1638038,/,1638718,/,1639398,/,1640078,/	t,t,t,t,t	<img class = center src='/static/experiments/beast_fmri_test/images/P.png'></img>	89,71	2750.0	test	<img class = center src='/static/experiments/beast_fmri_test/images/redP.png'></img>	stop	2150.0	3.0	4.0	stop	target	P	89,Middle Finger	71,Index Finger	600.0	700.0	2150.0	2050.0	0.0	0.0	600.0	n/a	ITI
31353	500	n/a	-1	-1	500	0.0	fixation	poldrack-single-stim	601	1640844	0.0-25.5-0.5	beast_fmri_test	273	1640757,/	t	<div class = centerbox2><div class = fixation>+</div></div>	none	500.0	test	n/a	n/a	n/a	n/a	n/a	n/a	n/a	n/a	n/a	n/a	n/a	n/a	n/a	n/a	n/a	n/a	n/a	n/a	fixation
30695.785686213523	700.0	n/a	914	71	2750	660.214313786	stim	stop-signal	602	1643597	0.0-25.5-1.5	beast_fmri_test	273	1641437,/,1642116,/,1642796,/,1643476,/,1644155,/	t,t,t,t,t	<img class = center src='/static/experiments/beast_fmri_test/images/B.png'></img>	89,71	2750.0	test	<img class = center src='/static/experiments/beast_fmri_test/images/redB.png'></img>	stop	2050.0	3.0	5.0	stop	non-target	B	89,Middle Finger	71,Index Finger	550.0	700.0	2150.0	2050.0	0.0	0.0	700.0	n/a	go_stim
32745.785686213523	2050.0	n/a	914	71	2750	660.214313786	stim	stop-signal	602	1643597	0.0-25.5-1.5	beast_fmri_test	273	1641437,/,1642116,/,1642796,/,1643476,/,1644155,/	t,t,t,t,t	<img class = center src='/static/experiments/beast_fmri_test/images/B.png'></img>	89,71	2750.0	test	<img class = center src='/static/experiments/beast_fmri_test/images/redB.png'></img>	stop	2050.0	3.0	5.0	stop	non-target	B	89,Middle Finger	71,Index Finger	550.0	700.0	2150.0	2050.0	0.0	0.0	700.0	n/a	stop_stim
33445.785686213523	660.21431378645832	n/a	914	71	2750	660.214313786	stim	stop-signal	602	1643597	0.0-25.5-1.5	beast_fmri_test	273	1641437,/,1642116,/,1642796,/,1643476,/,1644155,/	t,t,t,t,t	<img class = center src='/static/experiments/beast_fmri_test/images/B.png'></img>	89,71	2750.0	test	<img class = center src='/static/experiments/beast_fmri_test/images/redB.png'></img>	stop	2050.0	3.0	5.0	stop	non-target	B	89,Middle Finger	71,Index Finger	550.0	700.0	2150.0	2050.0	0.0	0.0	700.0	n/a	ITI
35330	500	n/a	-1	-1	500	0.0	fixation	poldrack-single-stim	603	1644821	0.0-25.6-0.6	beast_fmri_test	273	n/a	n/a	<div class = centerbox2><div class = fixation>+</div></div>	none	500.0	test	n/a	n/a	n/a	n/a	n/a	n/a	n/a	n/a	n/a	n/a	n/a	n/a	n/a	n/a	n/a	n/a	n/a	n/a	fixation
34798.34396170266	650.0	n/a	-1	-1	2750	534.656038297	stim	stop-signal	604	1647574	0.0-25.6-1.6	beast_fmri_test	273	1644835,/,1645513,/,1646196,/,1646874,/,1647553,/	t,t,t,t,t	<img class = center src='/static/experiments/beast_fmri_test/images/V.png'></img>	89,71	2750.0	test	<img class = center src='/static/experiments/beast_fmri_test/images/redV.png'></img>	stop	2100.0	3.0	6.0	stop	non-target	V	89,Middle Finger	71,Index Finger	550.0	650.0	2150.0	2100.0	0.0	1.0	650.0	n/a	go_stim
36898.34396170266	2100.0	n/a	-1	-1	2750	534.656038297	stim	stop-signal	604	1647574	0.0-25.6-1.6	beast_fmri_test	273	1644835,/,1645513,/,1646196,/,1646874,/,1647553,/	t,t,t,t,t	<img class = center src='/static/experiments/beast_fmri_test/images/V.png'></img>	89,71	2750.0	test	<img class = center src='/static/experiments/beast_fmri_test/images/redV.png'></img>	stop	2100.0	3.0	6.0	stop	non-target	V	89,Middle Finger	71,Index Finger	550.0	650.0	2150.0	2100.0	0.0	1.0	650.0	n/a	stop_stim
37548.34396170266	534.65603829732549	n/a	-1	-1	2750	534.656038297	stim	stop-signal	604	1647574	0.0-25.6-1.6	beast_fmri_test	273	1644835,/,1645513,/,1646196,/,1646874,/,1647553,/	t,t,t,t,t	<img class = center src='/static/experiments/beast_fmri_test/images/V.png'></img>	89,71	2750.0	test	<img class = center src='/static/experiments/beast_fmri_test/images/redV.png'></img>	stop	2100.0	3.0	6.0	stop	non-target	V	89,Middle Finger	71,Index Finger	550.0	650.0	2150.0	2100.0	0.0	1.0	650.0	n/a	ITI
39187	500	n/a	-1	-1	500	0.0	fixation	poldrack-single-stim	605	1648678	0.0-25.7-0.7	beast_fmri_test	273	1648234,/	t	<div class = centerbox2><div class = fixation>+</div></div>	none	500.0	test	n/a	n/a	n/a	n/a	n/a	n/a	n/a	n/a	n/a	n/a	n/a	n/a	n/a	n/a	n/a	n/a	n/a	n/a	fixation
36751.261281676823	550.0	n/a	-1	-1	2750	2438.73871832	stim	stop-signal	606	1651431	0.0-25.7-1.7	beast_fmri_test	273	1648912,/,1649593,/,1650271,/,1650952,/,1651631,/,1652312,/,1652992,/,1653671,/	t,t,t,t,t,t,t,t	<img class = center src='/static/experiments/beast_fmri_test/images/P.png'></img>	89,71	2750.0	test	<img class = center src='/static/experiments/beast_fmri_test/images/redP.png'></img>	stop	2200.0	3.0	7.0	stop	target	P	89,Middle Finger	71,Index Finger	550.0	700.0	2200.0	2100.0	0.0	1.0	550.0	n/a	go_stim
38951.261281676823	2200.0	n/a	-1	-1	2750	2438.73871832	stim	stop-signal	606	1651431	0.0-25.7-1.7	beast_fmri_test	273	1648912,/,1649593,/,1650271,/,1650952,/,1651631,/,1652312,/,1652992,/,1653671,/	t,t,t,t,t,t,t,t	<img class = center src='/static/experiments/beast_fmri_test/images/P.png'></img>	89,71	2750.0	test	<img class = center src='/static/experiments/beast_fmri_test/images/redP.png'></img>	stop	2200.0	3.0	7.0	stop	target	P	89,Middle Finger	71,Index Finger	550.0	700.0	2200.0	2100.0	0.0	1.0	550.0	n/a	stop_stim
39501.261281676823	2438.7387183232081	n/a	-1	-1	2750	2438.73871832	stim	stop-signal	606	1651431	0.0-25.7-1.7	beast_fmri_test	273	1648912,/,1649593,/,1650271,/,1650952,/,1651631,/,1652312,/,1652992,/,1653671,/	t,t,t,t,t,t,t,t	<img class = center src='/static/experiments/beast_fmri_test/images/P.png'></img>	89,71	2750.0	test	<img class = center src='/static/experiments/beast_fmri_test/images/redP.png'></img>	stop	2200.0	3.0	7.0	stop	target	P	89,Middle Finger	71,Index Finger	550.0	700.0	2200.0	2100.0	0.0	1.0	550.0	n/a	ITI
44946	500	n/a	-1	-1	500	0.0	fixation	poldrack-single-stim	607	1654437	0.0-25.8-0.8	beast_fmri_test	273	1654351,/	t	<div class = centerbox2><div class = fixation>+</div></div>	none	500.0	test	n/a	n/a	n/a	n/a	n/a	n/a	n/a	n/a	n/a	n/a	n/a	n/a	n/a	n/a	n/a	n/a	n/a	n/a	fixation
44392.563454732765	2750	n/a	651	71	2750	554.436545267	stim	stop-signal	608	1657188	0.0-25.8-1.8	beast_fmri_test	273	1655031,/,1655710,/,1656390,/,1657070,/	t,t,t,t	<img class = center src='/static/experiments/beast_fmri_test/images/P.png'></img>	89,71	2750.0	test	<img class = center src='/static/experiments/beast_fmri_test/images/redP.png'></img>	go	2050.0	3.0	8.0	go	non-target	P	89,Middle Finger	71,Index Finger	600.0	700.0	2200.0	2050.0	1.0	n/a	700.0	1.0	go_stim
47142.563454732765	554.43654526719229	n/a	651	71	2750	554.436545267	stim	stop-signal	608	1657188	0.0-25.8-1.8	beast_fmri_test	273	1655031,/,1655710,/,1656390,/,1657070,/	t,t,t,t	<img class = center src='/static/experiments/beast_fmri_test/images/P.png'></img>	89,71	2750.0	test	<img class = center src='/static/experiments/beast_fmri_test/images/redP.png'></img>	go	2050.0	3.0	8.0	go	non-target	P	89,Middle Finger	71,Index Finger	600.0	700.0	2200.0	2050.0	1.0	n/a	700.0	1.0	ITI
48822	500	n/a	-1	-1	500	0.0	fixation	poldrack-single-stim	609	1658313	0.0-25.9-0.9	beast_fmri_test	273	1657811,/	t	<div class = centerbox2><div class = fixation>+</div></div>	none	500.0	test	n/a	n/a	n/a	n/a	n/a	n/a	n/a	n/a	n/a	n/a	n/a	n/a	n/a	n/a	n/a	n/a	n/a	n/a	fixation
48802.007169497898	700.0	n/a	-1	-1	2750	21.9928305021	stim	stop-signal	610	1661065	0.0-25.9-1.9	beast_fmri_test	273	1658429,/,1659108,/,1659789,/,1660467,/	t,t,t,t	<img class = center src='/static/experiments/beast_fmri_test/images/P.png'></img>	89,71	2750.0	test	<img class = center src='/static/experiments/beast_fmri_test/images/redP.png'></img>	stop	2050.0	3.0	9.0	stop	non-target	P	89,Middle Finger	71,Index Finger	600.0	700.0	2200.0	2050.0	0.0	1.0	700.0	n/a	go_stim
50852.007169497898	2050.0	n/a	-1	-1	2750	21.9928305021	stim	stop-signal	610	1661065	0.0-25.9-1.9	beast_fmri_test	273	1658429,/,1659108,/,1659789,/,1660467,/	t,t,t,t	<img class = center src='/static/experiments/beast_fmri_test/images/P.png'></img>	89,71	2750.0	test	<img class = center src='/static/experiments/beast_fmri_test/images/redP.png'></img>	stop	2050.0	3.0	9.0	stop	non-target	P	89,Middle Finger	71,Index Finger	600.0	700.0	2200.0	2050.0	0.0	1.0	700.0	n/a	stop_stim
51552.007169497898	21.992830502122306	n/a	-1	-1	2750	21.9928305021	stim	stop-signal	610	1661065	0.0-25.9-1.9	beast_fmri_test	273	1658429,/,1659108,/,1659789,/,1660467,/	t,t,t,t	<img class = center src='/static/experiments/beast_fmri_test/images/P.png'></img>	89,71	2750.0	test	<img class = center src='/static/experiments/beast_fmri_test/images/redP.png'></img>	stop	2050.0	3.0	9.0	stop	non-target	P	89,Middle Finger	71,Index Finger	600.0	700.0	2200.0	2050.0	0.0	1.0	700.0	n/a	ITI
52158	500	n/a	-1	-1	500	0.0	fixation	poldrack-single-stim	611	1661649	0.0-25.10-0.10	beast_fmri_test	273	1661147,/	t	<div class = centerbox2><div class = fixation>+</div></div>	none	500.0	test	n/a	n/a	n/a	n/a	n/a	n/a	n/a	n/a	n/a	n/a	n/a	n/a	n/a	n/a	n/a	n/a	n/a	n/a	fixation
51919.479682296747	2750	n/a	1134	71	2750	240.520317703	stim	stop-signal	612	1664401	0.0-25.10-1.10	beast_fmri_test	273	1661826,/,1662507,/,1663187,/,1663866,/,1664546,/	t,t,t,t,t	<img class = center src='/static/experiments/beast_fmri_test/images/T.png'></img>	89,71	2750.0	test	<img class = center src='/static/experiments/beast_fmri_test/images/redT.png'></img>	go	2000.0	3.0	10.0	go	non-target	T	89,Middle Finger	71,Index Finger	600.0	750.0	2200.0	2000.0	1.0	n/a	750.0	1.0	go_stim
54669.479682296747	240.52031770329216	n/a	1134	71	2750	240.520317703	stim	stop-signal	612	1664401	0.0-25.10-1.10	beast_fmri_test	273	1661826,/,1662507,/,1663187,/,1663866,/,1664546,/	t,t,t,t,t	<img class = center src='/static/experiments/beast_fmri_test/images/T.png'></img>	89,71	2750.0	test	<img class = center src='/static/experiments/beast_fmri_test/images/redT.png'></img>	go	2000.0	3.0	10.0	go	non-target	T	89,Middle Finger	71,Index Finger	600.0	750.0	2200.0	2000.0	1.0	n/a	750.0	1.0	ITI
55720	500	n/a	-1	-1	500	0.0	fixation	poldrack-single-stim	613	1665211	0.0-25.11-0.11	beast_fmri_test	273	n/a	n/a	<div class = centerbox2><div class = fixation>+</div></div>	none	500.0	test	n/a	n/a	n/a	n/a	n/a	n/a	n/a	n/a	n/a	n/a	n/a	n/a	n/a	n/a	n/a	n/a	n/a	n/a	fixation
55649.035523960367	2750	n/a	1353	71	2750	71.9644760397	stim	stop-signal	614	1667962	0.0-25.11-1.11	beast_fmri_test	273	1665231,/,1665905,/,1666584,/,1667265,/,1667945,/	t,t,t,t,t	<img class = center src='/static/experiments/beast_fmri_test/images/B.png'></img>	89,71	2750.0	test	<img class = center src='/static/experiments/beast_fmri_test/images/redB.png'></img>	go	2000.0	3.0	11.0	go	non-target	B	89,Middle Finger	71,Index Finger	600.0	750.0	2200.0	2000.0	1.0	n/a	750.0	1.0	go_stim
58399.035523960367	71.964476039675461	n/a	1353	71	2750	71.9644760397	stim	stop-signal	614	1667962	0.0-25.11-1.11	beast_fmri_test	273	1665231,/,1665905,/,1666584,/,1667265,/,1667945,/	t,t,t,t,t	<img class = center src='/static/experiments/beast_fmri_test/images/B.png'></img>	89,71	2750.0	test	<img class = center src='/static/experiments/beast_fmri_test/images/redB.png'></img>	go	2000.0	3.0	11.0	go	non-target	B	89,Middle Finger	71,Index Finger	600.0	750.0	2200.0	2000.0	1.0	n/a	750.0	1.0	ITI
59107	500	n/a	-1	-1	500	0.0	fixation	poldrack-single-stim	615	1668598	0.0-25.12-0.12	beast_fmri_test	273	n/a	n/a	<div class = centerbox2><div class = fixation>+</div></div>	none	500.0	test	n/a	n/a	n/a	n/a	n/a	n/a	n/a	n/a	n/a	n/a	n/a	n/a	n/a	n/a	n/a	n/a	n/a	n/a	fixation
56829.179867477622	2750	n/a	1560	89	2750	2277.82013252	stim	stop-signal	616	1671348	0.0-25.12-1.12	beast_fmri_test	273	1668625,/,1669304,/,1669983,/,1670663,/,1671343,/,1672022,/,1672702,/,1673382,/	t,t,t,t,t,t,t,t	<img class = center src='/static/experiments/beast_fmri_test/images/P.png'></img>	89,71	2750.0	test	<img class = center src='/static/experiments/beast_fmri_test/images/redP.png'></img>	go	2150.0	3.0	12.0	go	target	P	89,Middle Finger	71,Index Finger	600.0	750.0	2150.0	2000.0	1.0	n/a	600.0	1.0	go_stim
59579.179867477622	2277.820132522465	n/a	1560	89	2750	2277.82013252	stim	stop-signal	616	1671348	0.0-25.12-1.12	beast_fmri_test	273	1668625,/,1669304,/,1669983,/,1670663,/,1671343,/,1672022,/,1672702,/,1673382,/	t,t,t,t,t,t,t,t	<img class = center src='/static/experiments/beast_fmri_test/images/P.png'></img>	89,71	2750.0	test	<img class = center src='/static/experiments/beast_fmri_test/images/redP.png'></img>	go	2150.0	3.0	12.0	go	target	P	89,Middle Finger	71,Index Finger	600.0	750.0	2150.0	2000.0	1.0	n/a	600.0	1.0	ITI
64702	500	n/a	-1	-1	500	0.0	fixation	poldrack-single-stim	617	1674193	0.0-25.13-0.13	beast_fmri_test	273	1674061,/	t	<div class = centerbox2><div class = fixation>+</div></div>	none	500.0	test	n/a	n/a	n/a	n/a	n/a	n/a	n/a	n/a	n/a	n/a	n/a	n/a	n/a	n/a	n/a	n/a	n/a	n/a	fixation
64232.24733074801	750.0	n/a	685	71	2750	471.752669252	stim	stop-signal	618	1676945	0.0-25.13-1.13	beast_fmri_test	273	1674740,/,1675421,/,1676099,/,1676779,/	t,t,t,t	<img class = center src='/static/experiments/beast_fmri_test/images/V.png'></img>	89,71	2750.0	test	<img class = center src='/static/experiments/beast_fmri_test/images/redV.png'></img>	stop	2000.0	3.0	13.0	stop	non-target	V	89,Middle Finger	71,Index Finger	600.0	750.0	2150.0	2000.0	0.0	0.0	750.0	n/a	go_stim
66232.24733074801	2000.0	n/a	685	71	2750	471.752669252	stim	stop-signal	618	1676945	0.0-25.13-1.13	beast_fmri_test	273	1674740,/,1675421,/,1676099,/,1676779,/	t,t,t,t	<img class = center src='/static/experiments/beast_fmri_test/images/V.png'></img>	89,71	2750.0	test	<img class = center src='/static/experiments/beast_fmri_test/images/redV.png'></img>	stop	2000.0	3.0	13.0	stop	non-target	V	89,Middle Finger	71,Index Finger	600.0	750.0	2150.0	2000.0	0.0	0.0	750.0	n/a	stop_stim
66982.24733074801	471.75266925210406	n/a	685	71	2750	471.752669252	stim	stop-signal	618	1676945	0.0-25.13-1.13	beast_fmri_test	273	1674740,/,1675421,/,1676099,/,1676779,/	t,t,t,t	<img class = center src='/static/experiments/beast_fmri_test/images/V.png'></img>	89,71	2750.0	test	<img class = center src='/static/experiments/beast_fmri_test/images/redV.png'></img>	stop	2000.0	3.0	13.0	stop	non-target	V	89,Middle Finger	71,Index Finger	600.0	750.0	2150.0	2000.0	0.0	0.0	750.0	n/a	ITI
68502	500	n/a	-1	-1	500	0.0	fixation	poldrack-single-stim	619	1677993	0.0-25.14-0.14	beast_fmri_test	273	1677492,/	t	<div class = centerbox2><div class = fixation>+</div></div>	none	500.0	test	n/a	n/a	n/a	n/a	n/a	n/a	n/a	n/a	n/a	n/a	n/a	n/a	n/a	n/a	n/a	n/a	n/a	n/a	fixation
68503.405801513698	2750	n/a	1161	89	2750	0.594198486267	stim	stop-signal	620	1680745	0.0-25.14-1.14	beast_fmri_test	273	1678140,/,1678819,/,1679499,/,1680178,/	t,t,t,t	<img class = center src='/static/experiments/beast_fmri_test/images/B.png'></img>	89,71	2750.0	test	<img class = center src='/static/experiments/beast_fmri_test/images/redB.png'></img>	go	2150.0	3.0	14.0	go	target	B	89,Middle Finger	71,Index Finger	600.0	700.0	2150.0	2000.0	1.0	n/a	600.0	1.0	go_stim
71253.405801513698	0.59419848626727823	n/a	1161	89	2750	0.594198486267	stim	stop-signal	620	1680745	0.0-25.14-1.14	beast_fmri_test	273	1678140,/,1678819,/,1679499,/,1680178,/	t,t,t,t	<img class = center src='/static/experiments/beast_fmri_test/images/B.png'></img>	89,71	2750.0	test	<img class = center src='/static/experiments/beast_fmri_test/images/redB.png'></img>	go	2150.0	3.0	14.0	go	target	B	89,Middle Finger	71,Index Finger	600.0	700.0	2150.0	2000.0	1.0	n/a	600.0	1.0	ITI
71838	500	n/a	-1	-1	500	0.0	fixation	poldrack-single-stim	621	1681329	0.0-25.15-0.15	beast_fmri_test	273	1680857,/	t	<div class = centerbox2><div class = fixation>+</div></div>	none	500.0	test	n/a	n/a	n/a	n/a	n/a	n/a	n/a	n/a	n/a	n/a	n/a	n/a	n/a	n/a	n/a	n/a	n/a	n/a	fixation
71115.332752224989	2750	n/a	1059	71	2750	723.667247775	stim	stop-signal	622	1684080	0.0-25.15-1.15	beast_fmri_test	273	1681539,/,1682218,/,1682898,/,1683578,/,1684256,/	t,t,t,t,t	<img class = center src='/static/experiments/beast_fmri_test/images/D.png'></img>	89,71	2750.0	test	<img class = center src='/static/experiments/beast_fmri_test/images/redD.png'></img>	go	2050.0	3.0	15.0	go	non-target	D	89,Middle Finger	71,Index Finger	600.0	700.0	2150.0	2050.0	1.0	n/a	700.0	1.0	go_stim
73865.332752224989	723.66724777508739	n/a	1059	71	2750	723.667247775	stim	stop-signal	622	1684080	0.0-25.15-1.15	beast_fmri_test	273	1681539,/,1682218,/,1682898,/,1683578,/,1684256,/	t,t,t,t,t	<img class = center src='/static/experiments/beast_fmri_test/images/D.png'></img>	89,71	2750.0	test	<img class = center src='/static/experiments/beast_fmri_test/images/redD.png'></img>	go	2050.0	3.0	15.0	go	non-target	D	89,Middle Finger	71,Index Finger	600.0	700.0	2150.0	2050.0	1.0	n/a	700.0	1.0	ITI
75874	500	n/a	-1	-1	500	0.0	fixation	poldrack-single-stim	623	1685365	0.0-25.16-0.16	beast_fmri_test	273	1684936,/	t	<div class = centerbox2><div class = fixation>+</div></div>	none	500.0	test	n/a	n/a	n/a	n/a	n/a	n/a	n/a	n/a	n/a	n/a	n/a	n/a	n/a	n/a	n/a	n/a	n/a	n/a	fixation
74719.788157086587	700.0	n/a	-1	-1	2750	1156.21184291	stim	stop-signal	624	1688117	0.0-25.16-1.16	beast_fmri_test	273	1685617,/,1686296,/,1686976,/,1687656,/,1688334,/,1689015,/	t,t,t,t,t,t	<img class = center src='/static/experiments/beast_fmri_test/images/D.png'></img>	89,71	2750.0	test	<img class = center src='/static/experiments/beast_fmri_test/images/redD.png'></img>	stop	2050.0	3.0	16.0	stop	non-target	D	89,Middle Finger	71,Index Finger	600.0	700.0	2150.0	2050.0	0.0	1.0	700.0	n/a	go_stim
76769.788157086587	2050.0	n/a	-1	-1	2750	1156.21184291	stim	stop-signal	624	1688117	0.0-25.16-1.16	beast_fmri_test	273	1685617,/,1686296,/,1686976,/,1687656,/,1688334,/,1689015,/	t,t,t,t,t,t	<img class = center src='/static/experiments/beast_fmri_test/images/D.png'></img>	89,71	2750.0	test	<img class = center src='/static/experiments/beast_fmri_test/images/redD.png'></img>	stop	2050.0	3.0	16.0	stop	non-target	D	89,Middle Finger	71,Index Finger	600.0	700.0	2150.0	2050.0	0.0	1.0	700.0	n/a	stop_stim
77469.788157086587	1156.2118429134284	n/a	-1	-1	2750	1156.21184291	stim	stop-signal	624	1688117	0.0-25.16-1.16	beast_fmri_test	273	1685617,/,1686296,/,1686976,/,1687656,/,1688334,/,1689015,/	t,t,t,t,t,t	<img class = center src='/static/experiments/beast_fmri_test/images/D.png'></img>	89,71	2750.0	test	<img class = center src='/static/experiments/beast_fmri_test/images/redD.png'></img>	stop	2050.0	3.0	16.0	stop	non-target	D	89,Middle Finger	71,Index Finger	600.0	700.0	2150.0	2050.0	0.0	1.0	700.0	n/a	ITI
80350	500	n/a	-1	-1	500	0.0	fixation	poldrack-single-stim	625	1689841	0.0-25.17-0.17	beast_fmri_test	273	1689695,/	t	<div class = centerbox2><div class = fixation>+</div></div>	none	500.0	test	n/a	n/a	n/a	n/a	n/a	n/a	n/a	n/a	n/a	n/a	n/a	n/a	n/a	n/a	n/a	n/a	n/a	n/a	fixation
79612.639546275139	2750	n/a	1210	71	2750	738.360453725	stim	stop-signal	626	1692592	0.0-25.17-1.17	beast_fmri_test	273	1690375,/,1691055,/,1691733,/,1692414,/,1693092,/	t,t,t,t,t	<img class = center src='/static/experiments/beast_fmri_test/images/B.png'></img>	89,71	2750.0	test	<img class = center src='/static/experiments/beast_fmri_test/images/redB.png'></img>	go	2150.0	3.0	17.0	go	target	B	89,Middle Finger	71,Index Finger	600.0	750.0	2150.0	2050.0	0.0	n/a	600.0	0.0	go_stim
82362.639546275139	738.36045372486569	n/a	1210	71	2750	738.360453725	stim	stop-signal	626	1692592	0.0-25.17-1.17	beast_fmri_test	273	1690375,/,1691055,/,1691733,/,1692414,/,1693092,/	t,t,t,t,t	<img class = center src='/static/experiments/beast_fmri_test/images/B.png'></img>	89,71	2750.0	test	<img class = center src='/static/experiments/beast_fmri_test/images/redB.png'></img>	go	2150.0	3.0	17.0	go	target	B	89,Middle Finger	71,Index Finger	600.0	750.0	2150.0	2050.0	0.0	n/a	600.0	0.0	ITI
84408	500	n/a	-1	-1	500	0.0	fixation	poldrack-single-stim	627	1693899	0.0-25.18-0.18	beast_fmri_test	273	1693772,/	t	<div class = centerbox2><div class = fixation>+</div></div>	none	500.0	test	n/a	n/a	n/a	n/a	n/a	n/a	n/a	n/a	n/a	n/a	n/a	n/a	n/a	n/a	n/a	n/a	n/a	n/a	fixation
84335.49822783377	2750	n/a	748	71	2750	75.5017721663	stim	stop-signal	628	1696652	0.0-25.18-1.18	beast_fmri_test	273	1694451,/,1695132,/,1695811,/,1696491,/	t,t,t,t	<img class = center src='/static/experiments/beast_fmri_test/images/P.png'></img>	89,71	2750.0	test	<img class = center src='/static/experiments/beast_fmri_test/images/redP.png'></img>	go	2000.0	3.0	18.0	go	non-target	P	89,Middle Finger	71,Index Finger	600.0	750.0	2150.0	2000.0	1.0	n/a	750.0	1.0	go_stim
87085.49822783377	75.501772166289953	n/a	748	71	2750	75.5017721663	stim	stop-signal	628	1696652	0.0-25.18-1.18	beast_fmri_test	273	1694451,/,1695132,/,1695811,/,1696491,/	t,t,t,t	<img class = center src='/static/experiments/beast_fmri_test/images/P.png'></img>	89,71	2750.0	test	<img class = center src='/static/experiments/beast_fmri_test/images/redP.png'></img>	go	2000.0	3.0	18.0	go	non-target	P	89,Middle Finger	71,Index Finger	600.0	750.0	2150.0	2000.0	1.0	n/a	750.0	1.0	ITI
87799	500	n/a	-1	-1	500	0.0	fixation	poldrack-single-stim	629	1697290	0.0-25.19-0.19	beast_fmri_test	273	1697171,/	t	<div class = centerbox2><div class = fixation>+</div></div>	none	500.0	test	n/a	n/a	n/a	n/a	n/a	n/a	n/a	n/a	n/a	n/a	n/a	n/a	n/a	n/a	n/a	n/a	n/a	n/a	fixation
86984.259531096322	2750	n/a	820	71	2750	816.740468904	stim	stop-signal	630	1700042	0.0-25.19-1.19	beast_fmri_test	273	1697850,/,1698530,/,1699210,/,1699890,/,1700570,/	t,t,t,t,t	<img class = center src='/static/experiments/beast_fmri_test/images/T.png'></img>	89,71	2750.0	test	<img class = center src='/static/experiments/beast_fmri_test/images/redT.png'></img>	go	2000.0	3.0	19.0	go	non-target	T	89,Middle Finger	71,Index Finger	600.0	750.0	2150.0	2000.0	1.0	n/a	750.0	1.0	go_stim
89734.259531096322	816.74046890364821	n/a	820	71	2750	816.740468904	stim	stop-signal	630	1700042	0.0-25.19-1.19	beast_fmri_test	273	1697850,/,1698530,/,1699210,/,1699890,/,1700570,/	t,t,t,t,t	<img class = center src='/static/experiments/beast_fmri_test/images/T.png'></img>	89,71	2750.0	test	<img class = center src='/static/experiments/beast_fmri_test/images/redT.png'></img>	go	2000.0	3.0	19.0	go	non-target	T	89,Middle Finger	71,Index Finger	600.0	750.0	2150.0	2000.0	1.0	n/a	750.0	1.0	ITI
91932	500	n/a	-1	-1	500	0.0	fixation	poldrack-single-stim	631	1701423	0.0-25.20-0.20	beast_fmri_test	273	1701250,/	t	<div class = centerbox2><div class = fixation>+</div></div>	none	500.0	test	n/a	n/a	n/a	n/a	n/a	n/a	n/a	n/a	n/a	n/a	n/a	n/a	n/a	n/a	n/a	n/a	n/a	n/a	fixation
91045.317774622468	750.0	n/a	-1	-1	2750	889.682225378	stim	stop-signal	632	1704176	0.0-25.20-1.20	beast_fmri_test	273	1701929,/,1702609,/,1703287,/,1703967,/,1704647,/	t,t,t,t,t	<img class = center src='/static/experiments/beast_fmri_test/images/V.png'></img>	89,71	2750.0	test	<img class = center src='/static/experiments/beast_fmri_test/images/redV.png'></img>	stop	2000.0	3.0	20.0	stop	non-target	V	89,Middle Finger	71,Index Finger	600.0	750.0	2150.0	2000.0	0.0	1.0	750.0	n/a	go_stim
93045.317774622468	2000.0	n/a	-1	-1	2750	889.682225378	stim	stop-signal	632	1704176	0.0-25.20-1.20	beast_fmri_test	273	1701929,/,1702609,/,1703287,/,1703967,/,1704647,/	t,t,t,t,t	<img class = center src='/static/experiments/beast_fmri_test/images/V.png'></img>	89,71	2750.0	test	<img class = center src='/static/experiments/beast_fmri_test/images/redV.png'></img>	stop	2000.0	3.0	20.0	stop	non-target	V	89,Middle Finger	71,Index Finger	600.0	750.0	2150.0	2000.0	0.0	1.0	750.0	n/a	stop_stim
93795.317774622468	889.68222537760653	n/a	-1	-1	2750	889.682225378	stim	stop-signal	632	1704176	0.0-25.20-1.20	beast_fmri_test	273	1701929,/,1702609,/,1703287,/,1703967,/,1704647,/	t,t,t,t,t	<img class = center src='/static/experiments/beast_fmri_test/images/V.png'></img>	89,71	2750.0	test	<img class = center src='/static/experiments/beast_fmri_test/images/redV.png'></img>	stop	2000.0	3.0	20.0	stop	non-target	V	89,Middle Finger	71,Index Finger	600.0	750.0	2150.0	2000.0	0.0	1.0	750.0	n/a	ITI
96141	500	n/a	-1	-1	500	0.0	fixation	poldrack-single-stim	633	1705632	0.0-25.21-0.21	beast_fmri_test	273	1705328,/	t	<div class = centerbox2><div class = fixation>+</div></div>	none	500.0	test	n/a	n/a	n/a	n/a	n/a	n/a	n/a	n/a	n/a	n/a	n/a	n/a	n/a	n/a	n/a	n/a	n/a	n/a	fixation
95259.518577728188	2750	n/a	849	71	2750	882.481422272	stim	stop-signal	634	1708383	0.0-25.21-1.21	beast_fmri_test	273	1706007,/,1706687,/,1707367,/,1708047,/,1708727,/	t,t,t,t,t	<img class = center src='/static/experiments/beast_fmri_test/images/P.png'></img>	89,71	2750.0	test	<img class = center src='/static/experiments/beast_fmri_test/images/redP.png'></img>	go	2150.0	3.0	21.0	go	target	P	89,Middle Finger	71,Index Finger	600.0	800.0	2150.0	2000.0	0.0	n/a	600.0	0.0	go_stim
98009.518577728188	882.48142227178437	n/a	849	71	2750	882.481422272	stim	stop-signal	634	1708383	0.0-25.21-1.21	beast_fmri_test	273	1706007,/,1706687,/,1707367,/,1708047,/,1708727,/	t,t,t,t,t	<img class = center src='/static/experiments/beast_fmri_test/images/P.png'></img>	89,71	2750.0	test	<img class = center src='/static/experiments/beast_fmri_test/images/redP.png'></img>	go	2150.0	3.0	21.0	go	target	P	89,Middle Finger	71,Index Finger	600.0	800.0	2150.0	2000.0	0.0	n/a	600.0	0.0	ITI
100340	500	n/a	-1	-1	500	0.0	fixation	poldrack-single-stim	635	1709831	0.0-25.22-0.22	beast_fmri_test	273	1709406,/	t	<div class = centerbox2><div class = fixation>+</div></div>	none	500.0	test	n/a	n/a	n/a	n/a	n/a	n/a	n/a	n/a	n/a	n/a	n/a	n/a	n/a	n/a	n/a	n/a	n/a	n/a	fixation
99865.634723418625	2750	n/a	916	89	2750	477.365276581	stim	stop-signal	636	1712584	0.0-25.22-1.22	beast_fmri_test	273	1710085,/,1710765,/,1711444,/,1712125,/,1712804,/	t,t,t,t,t	<img class = center src='/static/experiments/beast_fmri_test/images/B.png'></img>	89,71	2750.0	test	<img class = center src='/static/experiments/beast_fmri_test/images/redB.png'></img>	go	1950.0	3.0	22.0	go	non-target	B	89,Middle Finger	71,Index Finger	600.0	800.0	2150.0	1950.0	0.0	n/a	800.0	0.0	go_stim
102615.63472341863	477.36527658128671	n/a	916	89	2750	477.365276581	stim	stop-signal	636	1712584	0.0-25.22-1.22	beast_fmri_test	273	1710085,/,1710765,/,1711444,/,1712125,/,1712804,/	t,t,t,t,t	<img class = center src='/static/experiments/beast_fmri_test/images/B.png'></img>	89,71	2750.0	test	<img class = center src='/static/experiments/beast_fmri_test/images/redB.png'></img>	go	1950.0	3.0	22.0	go	non-target	B	89,Middle Finger	71,Index Finger	600.0	800.0	2150.0	1950.0	0.0	n/a	800.0	0.0	ITI
104143	500	n/a	-1	-1	500	0.0	fixation	poldrack-single-stim	637	1713634	0.0-25.23-0.23	beast_fmri_test	273	1713485,/	t	<div class = centerbox2><div class = fixation>+</div></div>	none	500.0	test	n/a	n/a	n/a	n/a	n/a	n/a	n/a	n/a	n/a	n/a	n/a	n/a	n/a	n/a	n/a	n/a	n/a	n/a	fixation
102314.15626950026	800.0	n/a	-1	-1	2750	1829.8437305	stim	stop-signal	638	1716385	0.0-25.23-1.23	beast_fmri_test	273	1714163,/,1714844,/,1715524,/,1716203,/,1716881,/,1717562,/	t,t,t,t,t,t	<img class = center src='/static/experiments/beast_fmri_test/images/D.png'></img>	89,71	2750.0	test	<img class = center src='/static/experiments/beast_fmri_test/images/redD.png'></img>	stop	1950.0	3.0	23.0	stop	non-target	D	89,Middle Finger	71,Index Finger	600.0	800.0	2150.0	1950.0	0.0	1.0	800.0	n/a	go_stim
104264.15626950026	1950.0	n/a	-1	-1	2750	1829.8437305	stim	stop-signal	638	1716385	0.0-25.23-1.23	beast_fmri_test	273	1714163,/,1714844,/,1715524,/,1716203,/,1716881,/,1717562,/	t,t,t,t,t,t	<img class = center src='/static/experiments/beast_fmri_test/images/D.png'></img>	89,71	2750.0	test	<img class = center src='/static/experiments/beast_fmri_test/images/redD.png'></img>	stop	1950.0	3.0	23.0	stop	non-target	D	89,Middle Finger	71,Index Finger	600.0	800.0	2150.0	1950.0	0.0	1.0	800.0	n/a	stop_stim
105064.15626950026	1829.843730499776	n/a	-1	-1	2750	1829.8437305	stim	stop-signal	638	1716385	0.0-25.23-1.23	beast_fmri_test	273	1714163,/,1714844,/,1715524,/,1716203,/,1716881,/,1717562,/	t,t,t,t,t,t	<img class = center src='/static/experiments/beast_fmri_test/images/D.png'></img>	89,71	2750.0	test	<img class = center src='/static/experiments/beast_fmri_test/images/redD.png'></img>	stop	1950.0	3.0	23.0	stop	non-target	D	89,Middle Finger	71,Index Finger	600.0	800.0	2150.0	1950.0	0.0	1.0	800.0	n/a	ITI
109292	500	n/a	-1	-1	500	0.0	fixation	poldrack-single-stim	639	1718783	0.0-25.24-0.24	beast_fmri_test	273	1718281,/	t	<div class = centerbox2><div class = fixation>+</div></div>	none	500.0	test	n/a	n/a	n/a	n/a	n/a	n/a	n/a	n/a	n/a	n/a	n/a	n/a	n/a	n/a	n/a	n/a	n/a	n/a	fixation
108816.31605798472	2750	n/a	2142	71	2750	478.683942015	stim	stop-signal	640	1721536	0.0-25.24-1.24	beast_fmri_test	273	1718921,/,1719601,/,1720281,/,1720961,/,1721639,/	t,t,t,t,t	<img class = center src='/static/experiments/beast_fmri_test/images/P.png'></img>	89,71	2750.0	test	<img class = center src='/static/experiments/beast_fmri_test/images/redP.png'></img>	go	2150.0	3.0	24.0	go	target	P	89,Middle Finger	71,Index Finger	600.0	850.0	2150.0	1950.0	0.0	n/a	600.0	0.0	go_stim
111566.31605798472	478.68394201535568	n/a	2142	71	2750	478.683942015	stim	stop-signal	640	1721536	0.0-25.24-1.24	beast_fmri_test	273	1718921,/,1719601,/,1720281,/,1720961,/,1721639,/	t,t,t,t,t	<img class = center src='/static/experiments/beast_fmri_test/images/P.png'></img>	89,71	2750.0	test	<img class = center src='/static/experiments/beast_fmri_test/images/redP.png'></img>	go	2150.0	3.0	24.0	go	target	P	89,Middle Finger	71,Index Finger	600.0	850.0	2150.0	1950.0	0.0	n/a	600.0	0.0	ITI
113093	500	n/a	-1	-1	500	0.0	fixation	poldrack-single-stim	641	1722584	0.0-25.25-0.25	beast_fmri_test	273	1722320,/	t	<div class = centerbox2><div class = fixation>+</div></div>	none	500.0	test	n/a	n/a	n/a	n/a	n/a	n/a	n/a	n/a	n/a	n/a	n/a	n/a	n/a	n/a	n/a	n/a	n/a	n/a	fixation
111867.28559902892	2750	n/a	1367	71	2750	1227.71440097	stim	stop-signal	642	1725336	0.0-25.25-1.25	beast_fmri_test	273	1723000,/,1723679,/,1724359,/,1725039,/,1725718,/,1726398,/	t,t,t,t,t,t	<img class = center src='/static/experiments/beast_fmri_test/images/V.png'></img>	89,71	2750.0	test	<img class = center src='/static/experiments/beast_fmri_test/images/redV.png'></img>	go	1900.0	3.0	25.0	go	non-target	V	89,Middle Finger	71,Index Finger	600.0	850.0	2150.0	1900.0	1.0	n/a	850.0	1.0	go_stim
114617.28559902892	1227.7144009710951	n/a	1367	71	2750	1227.71440097	stim	stop-signal	642	1725336	0.0-25.25-1.25	beast_fmri_test	273	1723000,/,1723679,/,1724359,/,1725039,/,1725718,/,1726398,/	t,t,t,t,t,t	<img class = center src='/static/experiments/beast_fmri_test/images/V.png'></img>	89,71	2750.0	test	<img class = center src='/static/experiments/beast_fmri_test/images/redV.png'></img>	go	1900.0	3.0	25.0	go	non-target	V	89,Middle Finger	71,Index Finger	600.0	850.0	2150.0	1900.0	1.0	n/a	850.0	1.0	ITI
117637	500	n/a	-1	-1	500	0.0	fixation	poldrack-single-stim	643	1727128	0.0-25.26-0.26	beast_fmri_test	273	1727076,/	t	<div class = centerbox2><div class = fixation>+</div></div>	none	500.0	test	n/a	n/a	n/a	n/a	n/a	n/a	n/a	n/a	n/a	n/a	n/a	n/a	n/a	n/a	n/a	n/a	n/a	n/a	fixation
117626.57016902114	2750	n/a	1297	89	2750	13.4298309789	stim	stop-signal	644	1729881	0.0-25.26-1.26	beast_fmri_test	273	1727757,/,1728453,/,1729116,/,1729795,/	t,t,t,t	<img class = center src='/static/experiments/beast_fmri_test/images/D.png'></img>	89,71	2750.0	test	<img class = center src='/static/experiments/beast_fmri_test/images/redD.png'></img>	go	2150.0	3.0	26.0	go	target	D	89,Middle Finger	71,Index Finger	600.0	850.0	2150.0	1900.0	1.0	n/a	600.0	1.0	go_stim
120376.57016902114	13.429830978881409	n/a	1297	89	2750	13.4298309789	stim	stop-signal	644	1729881	0.0-25.26-1.26	beast_fmri_test	273	1727757,/,1728453,/,1729116,/,1729795,/	t,t,t,t	<img class = center src='/static/experiments/beast_fmri_test/images/D.png'></img>	89,71	2750.0	test	<img class = center src='/static/experiments/beast_fmri_test/images/redD.png'></img>	go	2150.0	3.0	26.0	go	target	D	89,Middle Finger	71,Index Finger	600.0	850.0	2150.0	1900.0	1.0	n/a	600.0	1.0	ITI
120973	500	n/a	-1	-1	500	0.0	fixation	poldrack-single-stim	645	1730464	0.0-25.27-0.27	beast_fmri_test	273	n/a	n/a	<div class = centerbox2><div class = fixation>+</div></div>	none	500.0	test	n/a	n/a	n/a	n/a	n/a	n/a	n/a	n/a	n/a	n/a	n/a	n/a	n/a	n/a	n/a	n/a	n/a	n/a	fixation
119936.87165410048	600.0	n/a	-1	-1	2750	1038.1283459	stim	stop-signal	646	1733216	0.0-25.27-1.27	beast_fmri_test	273	1730475,/,1731155,/,1731835,/,1732514,/,1733194,/,1733873,/	t,t,t,t,t,t	<img class = center src='/static/experiments/beast_fmri_test/images/P.png'></img>	89,71	2750.0	test	<img class = center src='/static/experiments/beast_fmri_test/images/redP.png'></img>	stop	2150.0	3.0	27.0	stop	target	P	89,Middle Finger	71,Index Finger	600.0	850.0	2150.0	1900.0	0.0	1.0	600.0	n/a	go_stim
122086.87165410048	2150.0	n/a	-1	-1	2750	1038.1283459	stim	stop-signal	646	1733216	0.0-25.27-1.27	beast_fmri_test	273	1730475,/,1731155,/,1731835,/,1732514,/,1733194,/,1733873,/	t,t,t,t,t,t	<img class = center src='/static/experiments/beast_fmri_test/images/P.png'></img>	89,71	2750.0	test	<img class = center src='/static/experiments/beast_fmri_test/images/redP.png'></img>	stop	2150.0	3.0	27.0	stop	target	P	89,Middle Finger	71,Index Finger	600.0	850.0	2150.0	1900.0	0.0	1.0	600.0	n/a	stop_stim
122686.87165410048	1038.1283458995254	n/a	-1	-1	2750	1038.1283459	stim	stop-signal	646	1733216	0.0-25.27-1.27	beast_fmri_test	273	1730475,/,1731155,/,1731835,/,1732514,/,1733194,/,1733873,/	t,t,t,t,t,t	<img class = center src='/static/experiments/beast_fmri_test/images/P.png'></img>	89,71	2750.0	test	<img class = center src='/static/experiments/beast_fmri_test/images/redP.png'></img>	stop	2150.0	3.0	27.0	stop	target	P	89,Middle Finger	71,Index Finger	600.0	850.0	2150.0	1900.0	0.0	1.0	600.0	n/a	ITI
125337	500	n/a	-1	-1	500	0.0	fixation	poldrack-single-stim	647	1734828	0.0-25.28-0.28	beast_fmri_test	273	1734554,/	t	<div class = centerbox2><div class = fixation>+</div></div>	none	500.0	test	n/a	n/a	n/a	n/a	n/a	n/a	n/a	n/a	n/a	n/a	n/a	n/a	n/a	n/a	n/a	n/a	n/a	n/a	fixation
125308.29213940655	2750	n/a	1104	71	2750	31.7078605935	stim	stop-signal	648	1737581	0.0-25.28-1.28	beast_fmri_test	273	1735233,/,1735913,/,1736593,/,1737272,/	t,t,t,t	<img class = center src='/static/experiments/beast_fmri_test/images/T.png'></img>	89,71	2750.0	test	<img class = center src='/static/experiments/beast_fmri_test/images/redT.png'></img>	go	1900.0	3.0	28.0	go	non-target	T	89,Middle Finger	71,Index Finger	650.0	850.0	2150.0	1900.0	1.0	n/a	850.0	1.0	go_stim
128058.29213940655	31.707860593469171	n/a	1104	71	2750	31.7078605935	stim	stop-signal	648	1737581	0.0-25.28-1.28	beast_fmri_test	273	1735233,/,1735913,/,1736593,/,1737272,/	t,t,t,t	<img class = center src='/static/experiments/beast_fmri_test/images/T.png'></img>	89,71	2750.0	test	<img class = center src='/static/experiments/beast_fmri_test/images/redT.png'></img>	go	1900.0	3.0	28.0	go	non-target	T	89,Middle Finger	71,Index Finger	650.0	850.0	2150.0	1900.0	1.0	n/a	850.0	1.0	ITI
128700	500	n/a	-1	-1	500	0.0	fixation	poldrack-single-stim	649	1738191	0.0-25.29-0.29	beast_fmri_test	273	1737952,/	t	<div class = centerbox2><div class = fixation>+</div></div>	none	500.0	test	n/a	n/a	n/a	n/a	n/a	n/a	n/a	n/a	n/a	n/a	n/a	n/a	n/a	n/a	n/a	n/a	n/a	n/a	fixation
128452.54338417132	2750	n/a	1339	71	2750	249.456615829	stim	stop-signal	650	1740943	0.0-25.29-1.29	beast_fmri_test	273	1738632,/,1739313,/,1739991,/,1740671,/	t,t,t,t	<img class = center src='/static/experiments/beast_fmri_test/images/P.png'></img>	89,71	2750.0	test	<img class = center src='/static/experiments/beast_fmri_test/images/redP.png'></img>	go	1900.0	3.0	29.0	go	non-target	P	89,Middle Finger	71,Index Finger	650.0	850.0	2150.0	1900.0	1.0	n/a	850.0	1.0	go_stim
131202.54338417132	249.45661582868519	n/a	1339	71	2750	249.456615829	stim	stop-signal	650	1740943	0.0-25.29-1.29	beast_fmri_test	273	1738632,/,1739313,/,1739991,/,1740671,/	t,t,t,t	<img class = center src='/static/experiments/beast_fmri_test/images/P.png'></img>	89,71	2750.0	test	<img class = center src='/static/experiments/beast_fmri_test/images/redP.png'></img>	go	1900.0	3.0	29.0	go	non-target	P	89,Middle Finger	71,Index Finger	650.0	850.0	2150.0	1900.0	1.0	n/a	850.0	1.0	ITI
132276	500	n/a	-1	-1	500	0.0	fixation	poldrack-single-stim	651	1741767	0.0-25.30-0.30	beast_fmri_test	273	1741352,/	t	<div class = centerbox2><div class = fixation>+</div></div>	none	500.0	test	n/a	n/a	n/a	n/a	n/a	n/a	n/a	n/a	n/a	n/a	n/a	n/a	n/a	n/a	n/a	n/a	n/a	n/a	fixation
131292.91010263469	2750	n/a	1419	89	2750	985.089897365	stim	stop-signal	652	1744519	0.0-25.30-1.30	beast_fmri_test	273	1742030,/,1742710,/,1743391,/,1744070,/,1744749,/,1745428,/	t,t,t,t,t,t	<img class = center src='/static/experiments/beast_fmri_test/images/D.png'></img>	89,71	2750.0	test	<img class = center src='/static/experiments/beast_fmri_test/images/redD.png'></img>	go	1900.0	3.0	30.0	go	non-target	D	89,Middle Finger	71,Index Finger	650.0	850.0	2150.0	1900.0	0.0	n/a	850.0	0.0	go_stim
134042.91010263469	985.0898973653326	n/a	1419	89	2750	985.089897365	stim	stop-signal	652	1744519	0.0-25.30-1.30	beast_fmri_test	273	1742030,/,1742710,/,1743391,/,1744070,/,1744749,/,1745428,/	t,t,t,t,t,t	<img class = center src='/static/experiments/beast_fmri_test/images/D.png'></img>	89,71	2750.0	test	<img class = center src='/static/experiments/beast_fmri_test/images/redD.png'></img>	go	1900.0	3.0	30.0	go	non-target	D	89,Middle Finger	71,Index Finger	650.0	850.0	2150.0	1900.0	0.0	n/a	850.0	0.0	ITI
136589	500	n/a	-1	-1	500	0.0	fixation	poldrack-single-stim	653	1746080	0.0-25.31-0.31	beast_fmri_test	273	n/a	n/a	<div class = centerbox2><div class = fixation>+</div></div>	none	500.0	test	n/a	n/a	n/a	n/a	n/a	n/a	n/a	n/a	n/a	n/a	n/a	n/a	n/a	n/a	n/a	n/a	n/a	n/a	fixation
135771.66201045224	2750	n/a	1545	71	2750	818.337989548	stim	stop-signal	654	1748831	0.0-25.31-1.31	beast_fmri_test	273	1746108,/,1746789,/,1747468,/,1748147,/,1748827,/,1749507,/	t,t,t,t,t,t	<img class = center src='/static/experiments/beast_fmri_test/images/D.png'></img>	89,71	2750.0	test	<img class = center src='/static/experiments/beast_fmri_test/images/redD.png'></img>	go	1900.0	3.0	31.0	go	non-target	D	89,Middle Finger	71,Index Finger	650.0	850.0	2150.0	1900.0	1.0	n/a	850.0	1.0	go_stim
138521.66201045224	818.33798954774522	n/a	1545	71	2750	818.337989548	stim	stop-signal	654	1748831	0.0-25.31-1.31	beast_fmri_test	273	1746108,/,1746789,/,1747468,/,1748147,/,1748827,/,1749507,/	t,t,t,t,t,t	<img class = center src='/static/experiments/beast_fmri_test/images/D.png'></img>	89,71	2750.0	test	<img class = center src='/static/experiments/beast_fmri_test/images/redD.png'></img>	go	1900.0	3.0	31.0	go	non-target	D	89,Middle Finger	71,Index Finger	650.0	850.0	2150.0	1900.0	1.0	n/a	850.0	1.0	ITI
140739	500	n/a	-1	-1	500	0.0	fixation	poldrack-single-stim	655	1750230	0.0-25.32-0.32	beast_fmri_test	273	1750187,/	t	<div class = centerbox2><div class = fixation>+</div></div>	none	500.0	test	n/a	n/a	n/a	n/a	n/a	n/a	n/a	n/a	n/a	n/a	n/a	n/a	n/a	n/a	n/a	n/a	n/a	n/a	fixation
140686.1871092713	2750	n/a	1411	71	2750	53.8128907288	stim	stop-signal	656	1752981	0.0-25.32-1.32	beast_fmri_test	273	1750866,/,1751545,/,1752226,/,1752906,/	t,t,t,t	<img class = center src='/static/experiments/beast_fmri_test/images/D.png'></img>	89,71	2750.0	test	<img class = center src='/static/experiments/beast_fmri_test/images/redD.png'></img>	go	1900.0	3.0	32.0	go	non-target	D	89,Middle Finger	71,Index Finger	650.0	850.0	2150.0	1900.0	1.0	n/a	850.0	1.0	go_stim
143436.1871092713	53.812890728775812	n/a	1411	71	2750	53.8128907288	stim	stop-signal	656	1752981	0.0-25.32-1.32	beast_fmri_test	273	1750866,/,1751545,/,1752226,/,1752906,/	t,t,t,t	<img class = center src='/static/experiments/beast_fmri_test/images/D.png'></img>	89,71	2750.0	test	<img class = center src='/static/experiments/beast_fmri_test/images/redD.png'></img>	go	1900.0	3.0	32.0	go	non-target	D	89,Middle Finger	71,Index Finger	650.0	850.0	2150.0	1900.0	1.0	n/a	850.0	1.0	ITI
144116	500	n/a	-1	-1	500	0.0	fixation	poldrack-single-stim	657	1753607	0.0-25.33-0.33	beast_fmri_test	273	1753586,/	t	<div class = centerbox2><div class = fixation>+</div></div>	none	500.0	test	n/a	n/a	n/a	n/a	n/a	n/a	n/a	n/a	n/a	n/a	n/a	n/a	n/a	n/a	n/a	n/a	n/a	n/a	fixation
143009.99620927172	2750	n/a	682	89	2750	1107.00379073	stim	stop-signal	658	1756358	0.0-25.33-1.33	beast_fmri_test	273	1754265,/,1754945,/,1755623,/,1756305,/,1756984,/	t,t,t,t,t	<img class = center src='/static/experiments/beast_fmri_test/images/D.png'></img>	89,71	2750.0	test	<img class = center src='/static/experiments/beast_fmri_test/images/redD.png'></img>	go	2100.0	3.0	33.0	go	target	D	89,Middle Finger	71,Index Finger	650.0	850.0	2100.0	1900.0	1.0	n/a	650.0	1.0	go_stim
145759.99620927172	1107.0037907283729	n/a	682	89	2750	1107.00379073	stim	stop-signal	658	1756358	0.0-25.33-1.33	beast_fmri_test	273	1754265,/,1754945,/,1755623,/,1756305,/,1756984,/	t,t,t,t,t	<img class = center src='/static/experiments/beast_fmri_test/images/D.png'></img>	89,71	2750.0	test	<img class = center src='/static/experiments/beast_fmri_test/images/redD.png'></img>	go	2100.0	3.0	33.0	go	target	D	89,Middle Finger	71,Index Finger	650.0	850.0	2100.0	1900.0	1.0	n/a	650.0	1.0	ITI
148552	500	n/a	-1	-1	500	0.0	fixation	poldrack-single-stim	659	1758043	0.0-25.34-0.34	beast_fmri_test	273	1757663,/	t	<div class = centerbox2><div class = fixation>+</div></div>	none	500.0	test	n/a	n/a	n/a	n/a	n/a	n/a	n/a	n/a	n/a	n/a	n/a	n/a	n/a	n/a	n/a	n/a	n/a	n/a	fixation
148073.30915714824	2750	n/a	790	71	2750	479.690842852	stim	stop-signal	660	1760794	0.0-25.34-1.34	beast_fmri_test	273	1758344,/,1759023,/,1759702,/,1760381,/,1761061,/	t,t,t,t,t	<img class = center src='/static/experiments/beast_fmri_test/images/T.png'></img>	89,71	2750.0	test	<img class = center src='/static/experiments/beast_fmri_test/images/redT.png'></img>	go	1900.0	3.0	34.0	go	non-target	T	89,Middle Finger	71,Index Finger	650.0	850.0	2100.0	1900.0	1.0	n/a	850.0	1.0	go_stim
150823.30915714824	479.69084285183015	n/a	790	71	2750	479.690842852	stim	stop-signal	660	1760794	0.0-25.34-1.34	beast_fmri_test	273	1758344,/,1759023,/,1759702,/,1760381,/,1761061,/	t,t,t,t,t	<img class = center src='/static/experiments/beast_fmri_test/images/T.png'></img>	89,71	2750.0	test	<img class = center src='/static/experiments/beast_fmri_test/images/redT.png'></img>	go	1900.0	3.0	34.0	go	non-target	T	89,Middle Finger	71,Index Finger	650.0	850.0	2100.0	1900.0	1.0	n/a	850.0	1.0	ITI
152348	500	n/a	-1	-1	500	0.0	fixation	poldrack-single-stim	661	1761839	0.0-25.35-0.35	beast_fmri_test	273	1761741,/	t	<div class = centerbox2><div class = fixation>+</div></div>	none	500.0	test	n/a	n/a	n/a	n/a	n/a	n/a	n/a	n/a	n/a	n/a	n/a	n/a	n/a	n/a	n/a	n/a	n/a	n/a	fixation
149968.54649597732	850.0	n/a	-1	-1	2750	2381.45350402	stim	stop-signal	662	1764591	0.0-25.35-1.35	beast_fmri_test	273	1762421,/,1763101,/,1763781,/,1764461,/,1765140,/,1765820,/,1766500,/	t,t,t,t,t,t,t	<img class = center src='/static/experiments/beast_fmri_test/images/P.png'></img>	89,71	2750.0	test	<img class = center src='/static/experiments/beast_fmri_test/images/redP.png'></img>	stop	1900.0	3.0	35.0	stop	non-target	P	89,Middle Finger	71,Index Finger	650.0	850.0	2100.0	1900.0	0.0	1.0	850.0	n/a	go_stim
151868.54649597732	1900.0	n/a	-1	-1	2750	2381.45350402	stim	stop-signal	662	1764591	0.0-25.35-1.35	beast_fmri_test	273	1762421,/,1763101,/,1763781,/,1764461,/,1765140,/,1765820,/,1766500,/	t,t,t,t,t,t,t	<img class = center src='/static/experiments/beast_fmri_test/images/P.png'></img>	89,71	2750.0	test	<img class = center src='/static/experiments/beast_fmri_test/images/redP.png'></img>	stop	1900.0	3.0	35.0	stop	non-target	P	89,Middle Finger	71,Index Finger	650.0	850.0	2100.0	1900.0	0.0	1.0	850.0	n/a	stop_stim
152718.54649597732	2381.4535040225915	n/a	-1	-1	2750	2381.45350402	stim	stop-signal	662	1764591	0.0-25.35-1.35	beast_fmri_test	273	1762421,/,1763101,/,1763781,/,1764461,/,1765140,/,1765820,/,1766500,/	t,t,t,t,t,t,t	<img class = center src='/static/experiments/beast_fmri_test/images/P.png'></img>	89,71	2750.0	test	<img class = center src='/static/experiments/beast_fmri_test/images/redP.png'></img>	stop	1900.0	3.0	35.0	stop	non-target	P	89,Middle Finger	71,Index Finger	650.0	850.0	2100.0	1900.0	0.0	1.0	850.0	n/a	ITI
158056	500	n/a	-1	-1	500	0.0	fixation	poldrack-single-stim	663	1767547	0.0-25.36-0.36	beast_fmri_test	273	1767180,/	t	<div class = centerbox2><div class = fixation>+</div></div>	none	500.0	test	n/a	n/a	n/a	n/a	n/a	n/a	n/a	n/a	n/a	n/a	n/a	n/a	n/a	n/a	n/a	n/a	n/a	n/a	fixation
156378.9457904934	2750	n/a	836	89	2750	1680.05420951	stim	stop-signal	664	1770300	0.0-25.36-1.36	beast_fmri_test	273	1767859,/,1768539,/,1769219,/,1769899,/,1770579,/,1771257,/,1771937,/	t,t,t,t,t,t,t	<img class = center src='/static/experiments/beast_fmri_test/images/D.png'></img>	89,71	2750.0	test	<img class = center src='/static/experiments/beast_fmri_test/images/redD.png'></img>	go	2100.0	3.0	36.0	go	target	D	89,Middle Finger	71,Index Finger	650.0	900.0	2100.0	1900.0	1.0	n/a	650.0	1.0	go_stim
159128.9457904934	1680.05420950659	n/a	836	89	2750	1680.05420951	stim	stop-signal	664	1770300	0.0-25.36-1.36	beast_fmri_test	273	1767859,/,1768539,/,1769219,/,1769899,/,1770579,/,1771257,/,1771937,/	t,t,t,t,t,t,t	<img class = center src='/static/experiments/beast_fmri_test/images/D.png'></img>	89,71	2750.0	test	<img class = center src='/static/experiments/beast_fmri_test/images/redD.png'></img>	go	2100.0	3.0	36.0	go	target	D	89,Middle Finger	71,Index Finger	650.0	900.0	2100.0	1900.0	1.0	n/a	650.0	1.0	ITI
163067	500	n/a	-1	-1	500	0.0	fixation	poldrack-single-stim	665	1772558	0.0-25.37-0.37	beast_fmri_test	273	n/a	n/a	<div class = centerbox2><div class = fixation>+</div></div>	none	500.0	test	n/a	n/a	n/a	n/a	n/a	n/a	n/a	n/a	n/a	n/a	n/a	n/a	n/a	n/a	n/a	n/a	n/a	n/a	fixation
158978.58977725962	650.0	n/a	532	89	2750	4090.41022274	stim	stop-signal	666	1775310	0.0-25.37-1.37	beast_fmri_test	273	1772617,/,1773296,/,1773975,/,1774655,/,1775336,/,1776015,/,1776695,/,1777375,/,1778054,/,1778734,/	t,t,t,t,t,t,t,t,t,t	<img class = center src='/static/experiments/beast_fmri_test/images/T.png'></img>	89,71	2750.0	test	<img class = center src='/static/experiments/beast_fmri_test/images/redT.png'></img>	stop	2100.0	3.0	37.0	stop	target	T	89,Middle Finger	71,Index Finger	650.0	900.0	2100.0	1900.0	0.0	0.0	650.0	n/a	go_stim
161078.58977725962	2100.0	n/a	532	89	2750	4090.41022274	stim	stop-signal	666	1775310	0.0-25.37-1.37	beast_fmri_test	273	1772617,/,1773296,/,1773975,/,1774655,/,1775336,/,1776015,/,1776695,/,1777375,/,1778054,/,1778734,/	t,t,t,t,t,t,t,t,t,t	<img class = center src='/static/experiments/beast_fmri_test/images/T.png'></img>	89,71	2750.0	test	<img class = center src='/static/experiments/beast_fmri_test/images/redT.png'></img>	stop	2100.0	3.0	37.0	stop	target	T	89,Middle Finger	71,Index Finger	650.0	900.0	2100.0	1900.0	0.0	0.0	650.0	n/a	stop_stim
161728.58977725962	4090.4102227403132	n/a	532	89	2750	4090.41022274	stim	stop-signal	666	1775310	0.0-25.37-1.37	beast_fmri_test	273	1772617,/,1773296,/,1773975,/,1774655,/,1775336,/,1776015,/,1776695,/,1777375,/,1778054,/,1778734,/	t,t,t,t,t,t,t,t,t,t	<img class = center src='/static/experiments/beast_fmri_test/images/T.png'></img>	89,71	2750.0	test	<img class = center src='/static/experiments/beast_fmri_test/images/redT.png'></img>	stop	2100.0	3.0	37.0	stop	target	T	89,Middle Finger	71,Index Finger	650.0	900.0	2100.0	1900.0	0.0	0.0	650.0	n/a	ITI
170487	500	n/a	-1	-1	500	0.0	fixation	poldrack-single-stim	667	1779978	0.0-25.38-0.38	beast_fmri_test	273	1779477,/	t	<div class = centerbox2><div class = fixation>+</div></div>	none	500.0	test	n/a	n/a	n/a	n/a	n/a	n/a	n/a	n/a	n/a	n/a	n/a	n/a	n/a	n/a	n/a	n/a	n/a	n/a	fixation
169940.46472799405	600.0	n/a	564	89	2750	547.535272006	stim	stop-signal	668	1782729	0.0-25.38-1.38	beast_fmri_test	273	1780094,/,1780774,/,1781453,/,1782133,/,1782812,/	t,t,t,t,t	<img class = center src='/static/experiments/beast_fmri_test/images/P.png'></img>	89,71	2750.0	test	<img class = center src='/static/experiments/beast_fmri_test/images/redP.png'></img>	stop	2150.0	3.0	38.0	stop	target	P	89,Middle Finger	71,Index Finger	600.0	900.0	2150.0	1900.0	0.0	0.0	600.0	n/a	go_stim
172090.46472799405	2150.0	n/a	564	89	2750	547.535272006	stim	stop-signal	668	1782729	0.0-25.38-1.38	beast_fmri_test	273	1780094,/,1780774,/,1781453,/,1782133,/,1782812,/	t,t,t,t,t	<img class = center src='/static/experiments/beast_fmri_test/images/P.png'></img>	89,71	2750.0	test	<img class = center src='/static/experiments/beast_fmri_test/images/redP.png'></img>	stop	2150.0	3.0	38.0	stop	target	P	89,Middle Finger	71,Index Finger	600.0	900.0	2150.0	1900.0	0.0	0.0	600.0	n/a	stop_stim
172690.46472799405	547.53527200585859	n/a	564	89	2750	547.535272006	stim	stop-signal	668	1782729	0.0-25.38-1.38	beast_fmri_test	273	1780094,/,1780774,/,1781453,/,1782133,/,1782812,/	t,t,t,t,t	<img class = center src='/static/experiments/beast_fmri_test/images/P.png'></img>	89,71	2750.0	test	<img class = center src='/static/experiments/beast_fmri_test/images/redP.png'></img>	stop	2150.0	3.0	38.0	stop	target	P	89,Middle Finger	71,Index Finger	600.0	900.0	2150.0	1900.0	0.0	0.0	600.0	n/a	ITI
174363	500	n/a	-1	-1	500	0.0	fixation	poldrack-single-stim	669	1783854	0.0-25.39-0.39	beast_fmri_test	273	1783492,/	t	<div class = centerbox2><div class = fixation>+</div></div>	none	500.0	test	n/a	n/a	n/a	n/a	n/a	n/a	n/a	n/a	n/a	n/a	n/a	n/a	n/a	n/a	n/a	n/a	n/a	n/a	fixation
174057.98041116656	900.0	n/a	753	71	2750	307.019588833	stim	stop-signal	670	1786606	0.0-25.39-1.39	beast_fmri_test	273	1784170,/,1784851,/,1785531,/,1786211,/,1786889,/	t,t,t,t,t	<img class = center src='/static/experiments/beast_fmri_test/images/V.png'></img>	89,71	2750.0	test	<img class = center src='/static/experiments/beast_fmri_test/images/redV.png'></img>	stop	1850.0	3.0	39.0	stop	non-target	V	89,Middle Finger	71,Index Finger	550.0	900.0	2150.0	1850.0	0.0	0.0	900.0	n/a	go_stim
175907.98041116656	1850.0	n/a	753	71	2750	307.019588833	stim	stop-signal	670	1786606	0.0-25.39-1.39	beast_fmri_test	273	1784170,/,1784851,/,1785531,/,1786211,/,1786889,/	t,t,t,t,t	<img class = center src='/static/experiments/beast_fmri_test/images/V.png'></img>	89,71	2750.0	test	<img class = center src='/static/experiments/beast_fmri_test/images/redV.png'></img>	stop	1850.0	3.0	39.0	stop	non-target	V	89,Middle Finger	71,Index Finger	550.0	900.0	2150.0	1850.0	0.0	0.0	900.0	n/a	stop_stim
176807.98041116656	307.01958883346407	n/a	753	71	2750	307.019588833	stim	stop-signal	670	1786606	0.0-25.39-1.39	beast_fmri_test	273	1784170,/,1784851,/,1785531,/,1786211,/,1786889,/	t,t,t,t,t	<img class = center src='/static/experiments/beast_fmri_test/images/V.png'></img>	89,71	2750.0	test	<img class = center src='/static/experiments/beast_fmri_test/images/redV.png'></img>	stop	1850.0	3.0	39.0	stop	non-target	V	89,Middle Finger	71,Index Finger	550.0	900.0	2150.0	1850.0	0.0	0.0	900.0	n/a	ITI
178000	500	n/a	-1	-1	500	0.0	fixation	poldrack-single-stim	671	1787491	0.0-25.40-0.40	beast_fmri_test	273	n/a	n/a	<div class = centerbox2><div class = fixation>+</div></div>	none	500.0	test	n/a	n/a	n/a	n/a	n/a	n/a	n/a	n/a	n/a	n/a	n/a	n/a	n/a	n/a	n/a	n/a	n/a	n/a	fixation
177914.89733264712	850.0	n/a	-1	-1	2750	86.1026673529	stim	stop-signal	672	1790242	0.0-25.40-1.40	beast_fmri_test	273	1787569,/,1788249,/,1788929,/,1789608,/,1790289,/	t,t,t,t,t	<img class = center src='/static/experiments/beast_fmri_test/images/D.png'></img>	89,71	2750.0	test	<img class = center src='/static/experiments/beast_fmri_test/images/redD.png'></img>	stop	1900.0	3.0	40.0	stop	non-target	D	89,Middle Finger	71,Index Finger	550.0	850.0	2150.0	1900.0	0.0	1.0	850.0	n/a	go_stim
179814.89733264712	1900.0	n/a	-1	-1	2750	86.1026673529	stim	stop-signal	672	1790242	0.0-25.40-1.40	beast_fmri_test	273	1787569,/,1788249,/,1788929,/,1789608,/,1790289,/	t,t,t,t,t	<img class = center src='/static/experiments/beast_fmri_test/images/D.png'></img>	89,71	2750.0	test	<img class = center src='/static/experiments/beast_fmri_test/images/redD.png'></img>	stop	1900.0	3.0	40.0	stop	non-target	D	89,Middle Finger	71,Index Finger	550.0	850.0	2150.0	1900.0	0.0	1.0	850.0	n/a	stop_stim
180664.89733264712	86.102667352917365	n/a	-1	-1	2750	86.1026673529	stim	stop-signal	672	1790242	0.0-25.40-1.40	beast_fmri_test	273	1787569,/,1788249,/,1788929,/,1789608,/,1790289,/	t,t,t,t,t	<img class = center src='/static/experiments/beast_fmri_test/images/D.png'></img>	89,71	2750.0	test	<img class = center src='/static/experiments/beast_fmri_test/images/redD.png'></img>	stop	1900.0	3.0	40.0	stop	non-target	D	89,Middle Finger	71,Index Finger	550.0	850.0	2150.0	1900.0	0.0	1.0	850.0	n/a	ITI
181418	500	n/a	-1	-1	500	0.0	fixation	poldrack-single-stim	673	1790909	0.0-25.41-0.41	beast_fmri_test	273	n/a	n/a	<div class = centerbox2><div class = fixation>+</div></div>	none	500.0	test	n/a	n/a	n/a	n/a	n/a	n/a	n/a	n/a	n/a	n/a	n/a	n/a	n/a	n/a	n/a	n/a	n/a	n/a	fixation
180805.9894813986	2750	n/a	1496	71	2750	613.010518601	stim	stop-signal	674	1793660	0.0-25.41-1.41	beast_fmri_test	273	1790968,/,1791647,/,1792326,/,1793006,/,1793685,/	t,t,t,t,t	<img class = center src='/static/experiments/beast_fmri_test/images/P.png'></img>	89,71	2750.0	test	<img class = center src='/static/experiments/beast_fmri_test/images/redP.png'></img>	go	2200.0	3.0	41.0	go	target	P	89,Middle Finger	71,Index Finger	550.0	900.0	2200.0	1900.0	0.0	n/a	550.0	0.0	go_stim
183555.9894813986	613.01051860146481	n/a	1496	71	2750	613.010518601	stim	stop-signal	674	1793660	0.0-25.41-1.41	beast_fmri_test	273	1790968,/,1791647,/,1792326,/,1793006,/,1793685,/	t,t,t,t,t	<img class = center src='/static/experiments/beast_fmri_test/images/P.png'></img>	89,71	2750.0	test	<img class = center src='/static/experiments/beast_fmri_test/images/redP.png'></img>	go	2200.0	3.0	41.0	go	target	P	89,Middle Finger	71,Index Finger	550.0	900.0	2200.0	1900.0	0.0	n/a	550.0	0.0	ITI
185364	500	n/a	-1	-1	500	0.0	fixation	poldrack-single-stim	675	1794855	0.0-25.42-0.42	beast_fmri_test	273	1794369,/	t	<div class = centerbox2><div class = fixation>+</div></div>	none	500.0	test	n/a	n/a	n/a	n/a	n/a	n/a	n/a	n/a	n/a	n/a	n/a	n/a	n/a	n/a	n/a	n/a	n/a	n/a	fixation
182921.85832508351	2750	n/a	1778	71	2750	2442.14167492	stim	stop-signal	676	1797605	0.0-25.42-1.42	beast_fmri_test	273	1795046,/,1795726,/,1796406,/,1797085,/,1797766,/,1798444,/,1799126,/,1799805,/	t,t,t,t,t,t,t,t	<img class = center src='/static/experiments/beast_fmri_test/images/P.png'></img>	89,71	2750.0	test	<img class = center src='/static/experiments/beast_fmri_test/images/redP.png'></img>	go	1850.0	3.0	42.0	go	non-target	P	89,Middle Finger	71,Index Finger	550.0	900.0	2200.0	1850.0	1.0	n/a	900.0	1.0	go_stim
185671.85832508351	2442.1416749165242	n/a	1778	71	2750	2442.14167492	stim	stop-signal	676	1797605	0.0-25.42-1.42	beast_fmri_test	273	1795046,/,1795726,/,1796406,/,1797085,/,1797766,/,1798444,/,1799126,/,1799805,/	t,t,t,t,t,t,t,t	<img class = center src='/static/experiments/beast_fmri_test/images/P.png'></img>	89,71	2750.0	test	<img class = center src='/static/experiments/beast_fmri_test/images/redP.png'></img>	go	1850.0	3.0	42.0	go	non-target	P	89,Middle Finger	71,Index Finger	550.0	900.0	2200.0	1850.0	1.0	n/a	900.0	1.0	ITI
191138	500	n/a	-1	-1	500	0.0	fixation	poldrack-single-stim	677	1800629	0.0-25.43-0.43	beast_fmri_test	273	1800485,/	t	<div class = centerbox2><div class = fixation>+</div></div>	none	500.0	test	n/a	n/a	n/a	n/a	n/a	n/a	n/a	n/a	n/a	n/a	n/a	n/a	n/a	n/a	n/a	n/a	n/a	n/a	fixation
190246.43077602377	2750	n/a	1076	71	2750	894.569223976	stim	stop-signal	678	1803382	0.0-25.43-1.43	beast_fmri_test	273	1801163,/,1801842,/,1802522,/,1803203,/,1803883,/	t,t,t,t,t	<img class = center src='/static/experiments/beast_fmri_test/images/V.png'></img>	89,71	2750.0	test	<img class = center src='/static/experiments/beast_fmri_test/images/redV.png'></img>	go	1850.0	3.0	43.0	go	non-target	V	89,Middle Finger	71,Index Finger	550.0	900.0	2200.0	1850.0	1.0	n/a	900.0	1.0	go_stim
192996.43077602377	894.56922397621213	n/a	1076	71	2750	894.569223976	stim	stop-signal	678	1803382	0.0-25.43-1.43	beast_fmri_test	273	1801163,/,1801842,/,1802522,/,1803203,/,1803883,/	t,t,t,t,t	<img class = center src='/static/experiments/beast_fmri_test/images/V.png'></img>	89,71	2750.0	test	<img class = center src='/static/experiments/beast_fmri_test/images/redV.png'></img>	go	1850.0	3.0	43.0	go	non-target	V	89,Middle Finger	71,Index Finger	550.0	900.0	2200.0	1850.0	1.0	n/a	900.0	1.0	ITI
195358	500	n/a	-1	-1	500	0.0	fixation	poldrack-single-stim	679	1804849	0.0-25.44-0.44	beast_fmri_test	273	1804563,/	t	<div class = centerbox2><div class = fixation>+</div></div>	none	500.0	test	n/a	n/a	n/a	n/a	n/a	n/a	n/a	n/a	n/a	n/a	n/a	n/a	n/a	n/a	n/a	n/a	n/a	n/a	fixation
194932.43403855525	2750	n/a	1269	71	2750	428.565961445	stim	stop-signal	680	1807602	0.0-25.44-1.44	beast_fmri_test	273	1805243,/,1805922,/,1806601,/,1807281,/,1807959,/	t,t,t,t,t	<img class = center src='/static/experiments/beast_fmri_test/images/D.png'></img>	89,71	2750.0	test	<img class = center src='/static/experiments/beast_fmri_test/images/redD.png'></img>	go	1850.0	3.0	44.0	go	non-target	D	89,Middle Finger	71,Index Finger	550.0	900.0	2200.0	1850.0	1.0	n/a	900.0	1.0	go_stim
197682.43403855525	428.5659614448017	n/a	1269	71	2750	428.565961445	stim	stop-signal	680	1807602	0.0-25.44-1.44	beast_fmri_test	273	1805243,/,1805922,/,1806601,/,1807281,/,1807959,/	t,t,t,t,t	<img class = center src='/static/experiments/beast_fmri_test/images/D.png'></img>	89,71	2750.0	test	<img class = center src='/static/experiments/beast_fmri_test/images/redD.png'></img>	go	1850.0	3.0	44.0	go	non-target	D	89,Middle Finger	71,Index Finger	550.0	900.0	2200.0	1850.0	1.0	n/a	900.0	1.0	ITI
199117	500	n/a	-1	-1	500	0.0	fixation	poldrack-single-stim	681	1808608	0.0-25.45-0.45	beast_fmri_test	273	n/a	n/a	<div class = centerbox2><div class = fixation>+</div></div>	none	500.0	test	n/a	n/a	n/a	n/a	n/a	n/a	n/a	n/a	n/a	n/a	n/a	n/a	n/a	n/a	n/a	n/a	n/a	n/a	fixation
198066.6059769569	2750	n/a	794	89	2750	1052.39402304	stim	stop-signal	682	1811360	0.0-25.45-1.45	beast_fmri_test	273	1808639,/,1809320,/,1809999,/,1810679,/,1811359,/,1812038,/	t,t,t,t,t,t	<img class = center src='/static/experiments/beast_fmri_test/images/P.png'></img>	89,71	2750.0	test	<img class = center src='/static/experiments/beast_fmri_test/images/redP.png'></img>	go	2200.0	3.0	45.0	go	target	P	89,Middle Finger	71,Index Finger	550.0	900.0	2200.0	1850.0	1.0	n/a	550.0	1.0	go_stim
200816.6059769569	1052.3940230431897	n/a	794	89	2750	1052.39402304	stim	stop-signal	682	1811360	0.0-25.45-1.45	beast_fmri_test	273	1808639,/,1809320,/,1809999,/,1810679,/,1811359,/,1812038,/	t,t,t,t,t,t	<img class = center src='/static/experiments/beast_fmri_test/images/P.png'></img>	89,71	2750.0	test	<img class = center src='/static/experiments/beast_fmri_test/images/redP.png'></img>	go	2200.0	3.0	45.0	go	target	P	89,Middle Finger	71,Index Finger	550.0	900.0	2200.0	1850.0	1.0	n/a	550.0	1.0	ITI
203499	500	n/a	-1	-1	500	0.0	fixation	poldrack-single-stim	683	1812990	0.0-25.46-0.46	beast_fmri_test	273	1812717,/	t	<div class = centerbox2><div class = fixation>+</div></div>	none	500.0	test	n/a	n/a	n/a	n/a	n/a	n/a	n/a	n/a	n/a	n/a	n/a	n/a	n/a	n/a	n/a	n/a	n/a	n/a	fixation
199399.5740731745	2750	n/a	855	71	2750	4101.42592683	stim	stop-signal	684	1815742	0.0-25.46-1.46	beast_fmri_test	273	1813398,/,1814077,/,1814757,/,1815437,/,1816117,/,1816795,/,1817477,/,1818156,/,1818836,/,1819516,/	t,t,t,t,t,t,t,t,t,t	<img class = center src='/static/experiments/beast_fmri_test/images/P.png'></img>	89,71	2750.0	test	<img class = center src='/static/experiments/beast_fmri_test/images/redP.png'></img>	go	1850.0	3.0	46.0	go	non-target	P	89,Middle Finger	71,Index Finger	550.0	900.0	2200.0	1850.0	1.0	n/a	900.0	1.0	go_stim
202149.5740731745	4101.4259268254564	n/a	855	71	2750	4101.42592683	stim	stop-signal	684	1815742	0.0-25.46-1.46	beast_fmri_test	273	1813398,/,1814077,/,1814757,/,1815437,/,1816117,/,1816795,/,1817477,/,1818156,/,1818836,/,1819516,/	t,t,t,t,t,t,t,t,t,t	<img class = center src='/static/experiments/beast_fmri_test/images/P.png'></img>	89,71	2750.0	test	<img class = center src='/static/experiments/beast_fmri_test/images/redP.png'></img>	go	1850.0	3.0	46.0	go	non-target	P	89,Middle Finger	71,Index Finger	550.0	900.0	2200.0	1850.0	1.0	n/a	900.0	1.0	ITI
210924	500	n/a	-1	-1	500	0.0	fixation	poldrack-single-stim	685	1820415	0.0-25.47-0.47	beast_fmri_test	273	1820194,/	t	<div class = centerbox2><div class = fixation>+</div></div>	none	500.0	test	n/a	n/a	n/a	n/a	n/a	n/a	n/a	n/a	n/a	n/a	n/a	n/a	n/a	n/a	n/a	n/a	n/a	n/a	fixation
210775.41721766768	2750	n/a	847	71	2750	150.582782332	stim	stop-signal	686	1823167	0.0-25.47-1.47	beast_fmri_test	273	1820875,/,1821554,/,1822234,/,1822913,/	t,t,t,t	<img class = center src='/static/experiments/beast_fmri_test/images/P.png'></img>	89,71	2750.0	test	<img class = center src='/static/experiments/beast_fmri_test/images/redP.png'></img>	go	1850.0	3.0	47.0	go	non-target	P	89,Middle Finger	71,Index Finger	550.0	900.0	2200.0	1850.0	1.0	n/a	900.0	1.0	go_stim
213525.41721766768	150.58278233235202	n/a	847	71	2750	150.582782332	stim	stop-signal	686	1823167	0.0-25.47-1.47	beast_fmri_test	273	1820875,/,1821554,/,1822234,/,1822913,/	t,t,t,t	<img class = center src='/static/experiments/beast_fmri_test/images/P.png'></img>	89,71	2750.0	test	<img class = center src='/static/experiments/beast_fmri_test/images/redP.png'></img>	go	1850.0	3.0	47.0	go	non-target	P	89,Middle Finger	71,Index Finger	550.0	900.0	2200.0	1850.0	1.0	n/a	900.0	1.0	ITI
228893	15000	n/a	-1	-1	15000	0.0	practice-no-stop-feedback	poldrack-single-stim	687	1838384	0.0-26.0	beast_fmri_test	273	1823594,/,1824273,/,1824952,/,1825633,/,1826313,/,1826992,/,1827672,/,1828352,/,1829032,/,1829711,/,1830391,/,1831069,/,1831751,/,1832431,/,1833109,/,1833788,/,1834469,/,1835149,/,1835828,/,1836508,/,1837188,/,1837868,/	t,t,t,t,t,t,t,t,t,t,t,t,t,t,t,t,t,t,t,t,t,t	"<div class = ""centerbox""><p class = ""block-text"">Your delay is 2 trials.</p><p class = block-text>Please wait for the scanner to start the block</p></div>"	77	15000.0	n/a	n/a	n/a	n/a	n/a	n/a	n/a	n/a	n/a	n/a	n/a	n/a	n/a	n/a	n/a	n/a	n/a	n/a	n/a	practice-no-stop-feedback
229395	500	n/a	-1	-1	500	0.0	fixation	poldrack-single-stim	688	1838886	0.0-27.0-0.0	beast_fmri_test	273	1838547,/	t	<div class = centerbox2><div class = fixation>+</div></div>	none	500.0	test	n/a	n/a	n/a	n/a	n/a	n/a	n/a	n/a	n/a	n/a	n/a	n/a	n/a	n/a	n/a	n/a	n/a	n/a	fixation
228817.21565802442	2750	n/a	-1	-1	2750	579.784341976	stim	stop-signal	689	1841638	0.0-27.0-1.0	beast_fmri_test	273	1839227,/,1839905,/,1840585,/,1841266,/,1841945,/	t,t,t,t,t	<img class = center src='/static/experiments/beast_fmri_test/images/D.png'></img>	89,71	2750.0	test	<img class = center src='/static/experiments/beast_fmri_test/images/redD.png'></img>	go	-1.0	2.0	0.0	go	temp-non-target	D	89,Middle Finger	71,Index Finger	550.0	900.0	2200.0	1850.0	0.0	n/a	n/a	n/a	go_stim
231567.21565802442	579.78434197557738	n/a	-1	-1	2750	579.784341976	stim	stop-signal	689	1841638	0.0-27.0-1.0	beast_fmri_test	273	1839227,/,1839905,/,1840585,/,1841266,/,1841945,/	t,t,t,t,t	<img class = center src='/static/experiments/beast_fmri_test/images/D.png'></img>	89,71	2750.0	test	<img class = center src='/static/experiments/beast_fmri_test/images/redD.png'></img>	go	-1.0	2.0	0.0	go	temp-non-target	D	89,Middle Finger	71,Index Finger	550.0	900.0	2200.0	1850.0	0.0	n/a	n/a	n/a	ITI
233300	500	n/a	-1	-1	500	0.0	fixation	poldrack-single-stim	690	1842791	0.0-27.1-0.1	beast_fmri_test	273	1842625,/	t	<div class = centerbox2><div class = fixation>+</div></div>	none	500.0	test	n/a	n/a	n/a	n/a	n/a	n/a	n/a	n/a	n/a	n/a	n/a	n/a	n/a	n/a	n/a	n/a	n/a	n/a	fixation
230939.29497879627	2750	n/a	-1	-1	2750	2362.7050212	stim	stop-signal	691	1845543	0.0-27.1-1.1	beast_fmri_test	273	1843305,/,1843984,/,1844664,/,1845343,/,1846022,/,1846702,/,1847381,/	t,t,t,t,t,t,t	<img class = center src='/static/experiments/beast_fmri_test/images/V.png'></img>	89,71	2750.0	test	<img class = center src='/static/experiments/beast_fmri_test/images/redV.png'></img>	go	-1.0	2.0	1.0	go	temp-non-target	V	89,Middle Finger	71,Index Finger	550.0	900.0	2200.0	1850.0	0.0	n/a	n/a	n/a	go_stim
233689.29497879627	2362.7050212037752	n/a	-1	-1	2750	2362.7050212	stim	stop-signal	691	1845543	0.0-27.1-1.1	beast_fmri_test	273	1843305,/,1843984,/,1844664,/,1845343,/,1846022,/,1846702,/,1847381,/	t,t,t,t,t,t,t	<img class = center src='/static/experiments/beast_fmri_test/images/V.png'></img>	89,71	2750.0	test	<img class = center src='/static/experiments/beast_fmri_test/images/redV.png'></img>	go	-1.0	2.0	1.0	go	temp-non-target	V	89,Middle Finger	71,Index Finger	550.0	900.0	2200.0	1850.0	0.0	n/a	n/a	n/a	ITI
238992	500	n/a	-1	-1	500	0.0	fixation	poldrack-single-stim	692	1848483	0.0-27.2-0.2	beast_fmri_test	273	1848063,/	t	<div class = centerbox2><div class = fixation>+</div></div>	none	500.0	test	n/a	n/a	n/a	n/a	n/a	n/a	n/a	n/a	n/a	n/a	n/a	n/a	n/a	n/a	n/a	n/a	n/a	n/a	fixation
238866.83454686916	2750	n/a	901	71	2750	126.165453131	stim	stop-signal	693	1851234	0.0-27.2-1.2	beast_fmri_test	273	1848741,/,1849420,/,1850101,/,1850779,/	t,t,t,t	<img class = center src='/static/experiments/beast_fmri_test/images/T.png'></img>	89,71	2750.0	test	<img class = center src='/static/experiments/beast_fmri_test/images/redT.png'></img>	go	1850.0	2.0	2.0	go	non-target	T	89,Middle Finger	71,Index Finger	550.0	900.0	2200.0	1850.0	1.0	n/a	900.0	1.0	go_stim
241616.83454686916	126.16545313084148	n/a	901	71	2750	126.165453131	stim	stop-signal	693	1851234	0.0-27.2-1.2	beast_fmri_test	273	1848741,/,1849420,/,1850101,/,1850779,/	t,t,t,t	<img class = center src='/static/experiments/beast_fmri_test/images/T.png'></img>	89,71	2750.0	test	<img class = center src='/static/experiments/beast_fmri_test/images/redT.png'></img>	go	1850.0	2.0	2.0	go	non-target	T	89,Middle Finger	71,Index Finger	550.0	900.0	2200.0	1850.0	1.0	n/a	900.0	1.0	ITI
242447	500	n/a	-1	-1	500	0.0	fixation	poldrack-single-stim	694	1851938	0.0-27.3-0.3	beast_fmri_test	273	1851460,/	t	<div class = centerbox2><div class = fixation>+</div></div>	none	500.0	test	n/a	n/a	n/a	n/a	n/a	n/a	n/a	n/a	n/a	n/a	n/a	n/a	n/a	n/a	n/a	n/a	n/a	n/a	fixation
242228.65072143055	2750	n/a	924	71	2750	219.349278569	stim	stop-signal	695	1854689	0.0-27.3-1.3	beast_fmri_test	273	1852140,/,1852820,/,1853500,/,1854179,/,1854857,/	t,t,t,t,t	<img class = center src='/static/experiments/beast_fmri_test/images/T.png'></img>	89,71	2750.0	test	<img class = center src='/static/experiments/beast_fmri_test/images/redT.png'></img>	go	1850.0	2.0	3.0	go	non-target	T	89,Middle Finger	71,Index Finger	550.0	900.0	2200.0	1850.0	1.0	n/a	900.0	1.0	go_stim
244978.65072143055	219.3492785694587	n/a	924	71	2750	219.349278569	stim	stop-signal	695	1854689	0.0-27.3-1.3	beast_fmri_test	273	1852140,/,1852820,/,1853500,/,1854179,/,1854857,/	t,t,t,t,t	<img class = center src='/static/experiments/beast_fmri_test/images/T.png'></img>	89,71	2750.0	test	<img class = center src='/static/experiments/beast_fmri_test/images/redT.png'></img>	go	1850.0	2.0	3.0	go	non-target	T	89,Middle Finger	71,Index Finger	550.0	900.0	2200.0	1850.0	1.0	n/a	900.0	1.0	ITI
245994	500	n/a	-1	-1	500	0.0	fixation	poldrack-single-stim	696	1855485	0.0-27.4-0.4	beast_fmri_test	273	n/a	n/a	<div class = centerbox2><div class = fixation>+</div></div>	none	500.0	test	n/a	n/a	n/a	n/a	n/a	n/a	n/a	n/a	n/a	n/a	n/a	n/a	n/a	n/a	n/a	n/a	n/a	n/a	fixation
244944.25369210029	2750	n/a	884	71	2750	1051.7463079	stim	stop-signal	697	1858237	0.0-27.4-1.4	beast_fmri_test	273	1855539,/,1856219,/,1856899,/,1857577,/,1858257,/,1858938,/	t,t,t,t,t,t	<img class = center src='/static/experiments/beast_fmri_test/images/V.png'></img>	89,71	2750.0	test	<img class = center src='/static/experiments/beast_fmri_test/images/redV.png'></img>	go	1850.0	2.0	4.0	go	non-target	V	89,Middle Finger	71,Index Finger	550.0	900.0	2200.0	1850.0	1.0	n/a	900.0	1.0	go_stim
247694.25369210029	1051.7463078996993	n/a	884	71	2750	1051.7463079	stim	stop-signal	697	1858237	0.0-27.4-1.4	beast_fmri_test	273	1855539,/,1856219,/,1856899,/,1857577,/,1858257,/,1858938,/	t,t,t,t,t,t	<img class = center src='/static/experiments/beast_fmri_test/images/V.png'></img>	89,71	2750.0	test	<img class = center src='/static/experiments/beast_fmri_test/images/redV.png'></img>	go	1850.0	2.0	4.0	go	non-target	V	89,Middle Finger	71,Index Finger	550.0	900.0	2200.0	1850.0	1.0	n/a	900.0	1.0	ITI
250380	500	n/a	-1	-1	500	0.0	fixation	poldrack-single-stim	698	1859871	0.0-27.5-0.5	beast_fmri_test	273	1859618,/	t	<div class = centerbox2><div class = fixation>+</div></div>	none	500.0	test	n/a	n/a	n/a	n/a	n/a	n/a	n/a	n/a	n/a	n/a	n/a	n/a	n/a	n/a	n/a	n/a	n/a	n/a	fixation
248944.3739342473	2750	n/a	678	71	2750	1437.62606575	stim	stop-signal	699	1862623	0.0-27.5-1.5	beast_fmri_test	273	1860298,/,1860977,/,1861657,/,1862336,/,1863015,/,1863695,/	t,t,t,t,t,t	<img class = center src='/static/experiments/beast_fmri_test/images/V.png'></img>	89,71	2750.0	test	<img class = center src='/static/experiments/beast_fmri_test/images/redV.png'></img>	go	1850.0	2.0	5.0	go	non-target	V	89,Middle Finger	71,Index Finger	550.0	900.0	2200.0	1850.0	1.0	n/a	900.0	1.0	go_stim
251694.3739342473	1437.6260657526934	n/a	678	71	2750	1437.62606575	stim	stop-signal	699	1862623	0.0-27.5-1.5	beast_fmri_test	273	1860298,/,1860977,/,1861657,/,1862336,/,1863015,/,1863695,/	t,t,t,t,t,t	<img class = center src='/static/experiments/beast_fmri_test/images/V.png'></img>	89,71	2750.0	test	<img class = center src='/static/experiments/beast_fmri_test/images/redV.png'></img>	go	1850.0	2.0	5.0	go	non-target	V	89,Middle Finger	71,Index Finger	550.0	900.0	2200.0	1850.0	1.0	n/a	900.0	1.0	ITI
255149	500	n/a	-1	-1	500	0.0	fixation	poldrack-single-stim	700	1864640	0.0-27.6-0.6	beast_fmri_test	273	1864375,/	t	<div class = centerbox2><div class = fixation>+</div></div>	none	500.0	test	n/a	n/a	n/a	n/a	n/a	n/a	n/a	n/a	n/a	n/a	n/a	n/a	n/a	n/a	n/a	n/a	n/a	n/a	fixation
251096.42862915108	2750	n/a	688	71	2750	4055.57137085	stim	stop-signal	701	1867393	0.0-27.6-1.6	beast_fmri_test	273	1865055,/,1865735,/,1866414,/,1867092,/,1867772,/,1868453,/,1869131,/,1869812,/,1870492,/,1871172,/	t,t,t,t,t,t,t,t,t,t	<img class = center src='/static/experiments/beast_fmri_test/images/T.png'></img>	89,71	2750.0	test	<img class = center src='/static/experiments/beast_fmri_test/images/redT.png'></img>	go	1850.0	2.0	6.0	go	non-target	T	89,Middle Finger	71,Index Finger	550.0	900.0	2200.0	1850.0	1.0	n/a	900.0	1.0	go_stim
253846.42862915108	4055.5713708488202	n/a	688	71	2750	4055.57137085	stim	stop-signal	701	1867393	0.0-27.6-1.6	beast_fmri_test	273	1865055,/,1865735,/,1866414,/,1867092,/,1867772,/,1868453,/,1869131,/,1869812,/,1870492,/,1871172,/	t,t,t,t,t,t,t,t,t,t	<img class = center src='/static/experiments/beast_fmri_test/images/T.png'></img>	89,71	2750.0	test	<img class = center src='/static/experiments/beast_fmri_test/images/redT.png'></img>	go	1850.0	2.0	6.0	go	non-target	T	89,Middle Finger	71,Index Finger	550.0	900.0	2200.0	1850.0	1.0	n/a	900.0	1.0	ITI
262533	500	n/a	-1	-1	500	0.0	fixation	poldrack-single-stim	702	1872024	0.0-27.7-0.7	beast_fmri_test	273	1871851,/	t	<div class = centerbox2><div class = fixation>+</div></div>	none	500.0	test	n/a	n/a	n/a	n/a	n/a	n/a	n/a	n/a	n/a	n/a	n/a	n/a	n/a	n/a	n/a	n/a	n/a	n/a	fixation
261887.11751437164	2750	n/a	489	89	2750	646.882485628	stim	stop-signal	703	1874775	0.0-27.7-1.7	beast_fmri_test	273	1872531,/,1873209,/,1873890,/,1874570,/,1875250,/	t,t,t,t,t	<img class = center src='/static/experiments/beast_fmri_test/images/V.png'></img>	89,71	2750.0	test	<img class = center src='/static/experiments/beast_fmri_test/images/redV.png'></img>	go	2200.0	2.0	7.0	go	target	V	89,Middle Finger	71,Index Finger	550.0	900.0	2200.0	1850.0	1.0	n/a	550.0	1.0	go_stim
264637.11751437164	646.8824856283328	n/a	489	89	2750	646.882485628	stim	stop-signal	703	1874775	0.0-27.7-1.7	beast_fmri_test	273	1872531,/,1873209,/,1873890,/,1874570,/,1875250,/	t,t,t,t,t	<img class = center src='/static/experiments/beast_fmri_test/images/V.png'></img>	89,71	2750.0	test	<img class = center src='/static/experiments/beast_fmri_test/images/redV.png'></img>	go	2200.0	2.0	7.0	go	target	V	89,Middle Finger	71,Index Finger	550.0	900.0	2200.0	1850.0	1.0	n/a	550.0	1.0	ITI
266512	500	n/a	-1	-1	500	0.0	fixation	poldrack-single-stim	704	1876003	0.0-27.8-0.8	beast_fmri_test	273	1875929,/	t	<div class = centerbox2><div class = fixation>+</div></div>	none	500.0	test	n/a	n/a	n/a	n/a	n/a	n/a	n/a	n/a	n/a	n/a	n/a	n/a	n/a	n/a	n/a	n/a	n/a	n/a	fixation
266138.90039010835	2750	n/a	607	71	2750	375.099609892	stim	stop-signal	705	1878755	0.0-27.8-1.8	beast_fmri_test	273	1876609,/,1877288,/,1877968,/,1878648,/	t,t,t,t	<img class = center src='/static/experiments/beast_fmri_test/images/P.png'></img>	89,71	2750.0	test	<img class = center src='/static/experiments/beast_fmri_test/images/redP.png'></img>	go	1850.0	2.0	8.0	go	non-target	P	89,Middle Finger	71,Index Finger	550.0	900.0	2200.0	1850.0	1.0	n/a	900.0	1.0	go_stim
268888.90039010835	375.09960989168633	n/a	607	71	2750	375.099609892	stim	stop-signal	705	1878755	0.0-27.8-1.8	beast_fmri_test	273	1876609,/,1877288,/,1877968,/,1878648,/	t,t,t,t	<img class = center src='/static/experiments/beast_fmri_test/images/P.png'></img>	89,71	2750.0	test	<img class = center src='/static/experiments/beast_fmri_test/images/redP.png'></img>	go	1850.0	2.0	8.0	go	non-target	P	89,Middle Finger	71,Index Finger	550.0	900.0	2200.0	1850.0	1.0	n/a	900.0	1.0	ITI
270226	500	n/a	-1	-1	500	0.0	fixation	poldrack-single-stim	706	1879717	0.0-27.9-0.9	beast_fmri_test	273	1879328,/	t	<div class = centerbox2><div class = fixation>+</div></div>	none	500.0	test	n/a	n/a	n/a	n/a	n/a	n/a	n/a	n/a	n/a	n/a	n/a	n/a	n/a	n/a	n/a	n/a	n/a	n/a	fixation
269010.57624029601	2750	n/a	727	71	2750	1217.4237597	stim	stop-signal	707	1882469	0.0-27.9-1.9	beast_fmri_test	273	1880006,/,1880687,/,1881367,/,1882046,/,1882725,/,1883404,/	t,t,t,t,t,t	<img class = center src='/static/experiments/beast_fmri_test/images/B.png'></img>	89,71	2750.0	test	<img class = center src='/static/experiments/beast_fmri_test/images/redB.png'></img>	go	1850.0	2.0	9.0	go	non-target	B	89,Middle Finger	71,Index Finger	550.0	900.0	2200.0	1850.0	1.0	n/a	900.0	1.0	go_stim
271760.57624029601	1217.4237597039046	n/a	727	71	2750	1217.4237597	stim	stop-signal	707	1882469	0.0-27.9-1.9	beast_fmri_test	273	1880006,/,1880687,/,1881367,/,1882046,/,1882725,/,1883404,/	t,t,t,t,t,t	<img class = center src='/static/experiments/beast_fmri_test/images/B.png'></img>	89,71	2750.0	test	<img class = center src='/static/experiments/beast_fmri_test/images/redB.png'></img>	go	1850.0	2.0	9.0	go	non-target	B	89,Middle Finger	71,Index Finger	550.0	900.0	2200.0	1850.0	1.0	n/a	900.0	1.0	ITI
274779	500	n/a	-1	-1	500	0.0	fixation	poldrack-single-stim	708	1884270	0.0-27.10-0.10	beast_fmri_test	273	1884085,/	t	<div class = centerbox2><div class = fixation>+</div></div>	none	500.0	test	n/a	n/a	n/a	n/a	n/a	n/a	n/a	n/a	n/a	n/a	n/a	n/a	n/a	n/a	n/a	n/a	n/a	n/a	fixation
271503.50194311701	2750	n/a	573	71	2750	3277.49805688	stim	stop-signal	709	1887022	0.0-27.10-1.10	beast_fmri_test	273	1884766,/,1885444,/,1886125,/,1886804,/,1887485,/,1888165,/,1888844,/,1889524,/,1890203,/	t,t,t,t,t,t,t,t,t	<img class = center src='/static/experiments/beast_fmri_test/images/T.png'></img>	89,71	2750.0	test	<img class = center src='/static/experiments/beast_fmri_test/images/redT.png'></img>	go	1850.0	2.0	10.0	go	non-target	T	89,Middle Finger	71,Index Finger	550.0	900.0	2200.0	1850.0	1.0	n/a	900.0	1.0	go_stim
274253.50194311701	3277.4980568828882	n/a	573	71	2750	3277.49805688	stim	stop-signal	709	1887022	0.0-27.10-1.10	beast_fmri_test	273	1884766,/,1885444,/,1886125,/,1886804,/,1887485,/,1888165,/,1888844,/,1889524,/,1890203,/	t,t,t,t,t,t,t,t,t	<img class = center src='/static/experiments/beast_fmri_test/images/T.png'></img>	89,71	2750.0	test	<img class = center src='/static/experiments/beast_fmri_test/images/redT.png'></img>	go	1850.0	2.0	10.0	go	non-target	T	89,Middle Finger	71,Index Finger	550.0	900.0	2200.0	1850.0	1.0	n/a	900.0	1.0	ITI
281386	500	n/a	-1	-1	500	0.0	fixation	poldrack-single-stim	710	1890877	0.0-27.11-0.11	beast_fmri_test	273	n/a	n/a	<div class = centerbox2><div class = fixation>+</div></div>	none	500.0	test	n/a	n/a	n/a	n/a	n/a	n/a	n/a	n/a	n/a	n/a	n/a	n/a	n/a	n/a	n/a	n/a	n/a	n/a	fixation
281192.99109448818	900.0	n/a	593	71	2750	195.008905512	stim	stop-signal	711	1893629	0.0-27.11-1.11	beast_fmri_test	273	1890882,/,1891562,/,1892241,/,1892922,/,1893602,/	t,t,t,t,t	<img class = center src='/static/experiments/beast_fmri_test/images/D.png'></img>	89,71	2750.0	test	<img class = center src='/static/experiments/beast_fmri_test/images/redD.png'></img>	stop	1850.0	2.0	11.0	stop	non-target	D	89,Middle Finger	71,Index Finger	550.0	900.0	2200.0	1850.0	0.0	0.0	900.0	n/a	go_stim
283042.99109448818	1850.0	n/a	593	71	2750	195.008905512	stim	stop-signal	711	1893629	0.0-27.11-1.11	beast_fmri_test	273	1890882,/,1891562,/,1892241,/,1892922,/,1893602,/	t,t,t,t,t	<img class = center src='/static/experiments/beast_fmri_test/images/D.png'></img>	89,71	2750.0	test	<img class = center src='/static/experiments/beast_fmri_test/images/redD.png'></img>	stop	1850.0	2.0	11.0	stop	non-target	D	89,Middle Finger	71,Index Finger	550.0	900.0	2200.0	1850.0	0.0	0.0	900.0	n/a	stop_stim
283942.99109448818	195.00890551191117	n/a	593	71	2750	195.008905512	stim	stop-signal	711	1893629	0.0-27.11-1.11	beast_fmri_test	273	1890882,/,1891562,/,1892241,/,1892922,/,1893602,/	t,t,t,t,t	<img class = center src='/static/experiments/beast_fmri_test/images/D.png'></img>	89,71	2750.0	test	<img class = center src='/static/experiments/beast_fmri_test/images/redD.png'></img>	stop	1850.0	2.0	11.0	stop	non-target	D	89,Middle Finger	71,Index Finger	550.0	900.0	2200.0	1850.0	0.0	0.0	900.0	n/a	ITI
284915	500	n/a	-1	-1	500	0.0	fixation	poldrack-single-stim	712	1894406	0.0-27.12-0.12	beast_fmri_test	273	1894281,/	t	<div class = centerbox2><div class = fixation>+</div></div>	none	500.0	test	n/a	n/a	n/a	n/a	n/a	n/a	n/a	n/a	n/a	n/a	n/a	n/a	n/a	n/a	n/a	n/a	n/a	n/a	fixation
284771.43303451547	2750	n/a	1204	71	2750	145.566965484	stim	stop-signal	713	1897158	0.0-27.12-1.12	beast_fmri_test	273	1894961,/,1895639,/,1896319,/,1897000,/	t,t,t,t	<img class = center src='/static/experiments/beast_fmri_test/images/D.png'></img>	89,71	2750.0	test	<img class = center src='/static/experiments/beast_fmri_test/images/redD.png'></img>	go	1900.0	2.0	12.0	go	non-target	D	89,Middle Finger	71,Index Finger	550.0	850.0	2200.0	1900.0	1.0	n/a	850.0	1.0	go_stim
287521.43303451547	145.5669654844684	n/a	1204	71	2750	145.566965484	stim	stop-signal	713	1897158	0.0-27.12-1.12	beast_fmri_test	273	1894961,/,1895639,/,1896319,/,1897000,/	t,t,t,t	<img class = center src='/static/experiments/beast_fmri_test/images/D.png'></img>	89,71	2750.0	test	<img class = center src='/static/experiments/beast_fmri_test/images/redD.png'></img>	go	1900.0	2.0	12.0	go	non-target	D	89,Middle Finger	71,Index Finger	550.0	850.0	2200.0	1900.0	1.0	n/a	850.0	1.0	ITI
288407	500	n/a	-1	-1	500	0.0	fixation	poldrack-single-stim	714	1897898	0.0-27.13-0.13	beast_fmri_test	273	1897680,/	t	<div class = centerbox2><div class = fixation>+</div></div>	none	500.0	test	n/a	n/a	n/a	n/a	n/a	n/a	n/a	n/a	n/a	n/a	n/a	n/a	n/a	n/a	n/a	n/a	n/a	n/a	fixation
287407.82191509707	550.0	n/a	714	89	2750	1002.1780849	stim	stop-signal	715	1900651	0.0-27.13-1.13	beast_fmri_test	273	1898358,/,1899038,/,1899717,/,1900398,/,1901076,/	t,t,t,t,t	<img class = center src='/static/experiments/beast_fmri_test/images/D.png'></img>	89,71	2750.0	test	<img class = center src='/static/experiments/beast_fmri_test/images/redD.png'></img>	stop	2200.0	2.0	13.0	stop	target	D	89,Middle Finger	71,Index Finger	550.0	850.0	2200.0	1900.0	0.0	0.0	550.0	n/a	go_stim
289607.82191509707	2200.0	n/a	714	89	2750	1002.1780849	stim	stop-signal	715	1900651	0.0-27.13-1.13	beast_fmri_test	273	1898358,/,1899038,/,1899717,/,1900398,/,1901076,/	t,t,t,t,t	<img class = center src='/static/experiments/beast_fmri_test/images/D.png'></img>	89,71	2750.0	test	<img class = center src='/static/experiments/beast_fmri_test/images/redD.png'></img>	stop	2200.0	2.0	13.0	stop	target	D	89,Middle Finger	71,Index Finger	550.0	850.0	2200.0	1900.0	0.0	0.0	550.0	n/a	stop_stim
290157.82191509707	1002.1780849029255	n/a	714	89	2750	1002.1780849	stim	stop-signal	715	1900651	0.0-27.13-1.13	beast_fmri_test	273	1898358,/,1899038,/,1899717,/,1900398,/,1901076,/	t,t,t,t,t	<img class = center src='/static/experiments/beast_fmri_test/images/D.png'></img>	89,71	2750.0	test	<img class = center src='/static/experiments/beast_fmri_test/images/redD.png'></img>	stop	2200.0	2.0	13.0	stop	target	D	89,Middle Finger	71,Index Finger	550.0	850.0	2200.0	1900.0	0.0	0.0	550.0	n/a	ITI
292738	500	n/a	-1	-1	500	0.0	fixation	poldrack-single-stim	716	1902229	0.0-27.14-0.14	beast_fmri_test	273	1901756,/	t	<div class = centerbox2><div class = fixation>+</div></div>	none	500.0	test	n/a	n/a	n/a	n/a	n/a	n/a	n/a	n/a	n/a	n/a	n/a	n/a	n/a	n/a	n/a	n/a	n/a	n/a	fixation
291890.31291017239	500.0	n/a	459	89	2750	849.687089828	stim	stop-signal	717	1904981	0.0-27.14-1.14	beast_fmri_test	273	1902437,/,1903117,/,1903796,/,1904477,/,1905156,/	t,t,t,t,t	<img class = center src='/static/experiments/beast_fmri_test/images/D.png'></img>	89,71	2750.0	test	<img class = center src='/static/experiments/beast_fmri_test/images/redD.png'></img>	stop	2250.0	2.0	14.0	stop	target	D	89,Middle Finger	71,Index Finger	500.0	850.0	2250.0	1900.0	0.0	0.0	500.0	n/a	go_stim
294140.31291017239	2250.0	n/a	459	89	2750	849.687089828	stim	stop-signal	717	1904981	0.0-27.14-1.14	beast_fmri_test	273	1902437,/,1903117,/,1903796,/,1904477,/,1905156,/	t,t,t,t,t	<img class = center src='/static/experiments/beast_fmri_test/images/D.png'></img>	89,71	2750.0	test	<img class = center src='/static/experiments/beast_fmri_test/images/redD.png'></img>	stop	2250.0	2.0	14.0	stop	target	D	89,Middle Finger	71,Index Finger	500.0	850.0	2250.0	1900.0	0.0	0.0	500.0	n/a	stop_stim
294640.31291017239	849.68708982757494	n/a	459	89	2750	849.687089828	stim	stop-signal	717	1904981	0.0-27.14-1.14	beast_fmri_test	273	1902437,/,1903117,/,1903796,/,1904477,/,1905156,/	t,t,t,t,t	<img class = center src='/static/experiments/beast_fmri_test/images/D.png'></img>	89,71	2750.0	test	<img class = center src='/static/experiments/beast_fmri_test/images/redD.png'></img>	stop	2250.0	2.0	14.0	stop	target	D	89,Middle Finger	71,Index Finger	500.0	850.0	2250.0	1900.0	0.0	0.0	500.0	n/a	ITI
296916	500	n/a	-1	-1	500	0.0	fixation	poldrack-single-stim	718	1906407	0.0-27.15-0.15	beast_fmri_test	273	1905905,/	t	<div class = centerbox2><div class = fixation>+</div></div>	none	500.0	test	n/a	n/a	n/a	n/a	n/a	n/a	n/a	n/a	n/a	n/a	n/a	n/a	n/a	n/a	n/a	n/a	n/a	n/a	fixation
296365.08142724913	2750	n/a	486	89	2750	552.918572751	stim	stop-signal	719	1909159	0.0-27.15-1.15	beast_fmri_test	273	1906516,/,1907195,/,1907874,/,1908553,/,1909234,/	t,t,t,t,t	<img class = center src='/static/experiments/beast_fmri_test/images/D.png'></img>	89,71	2750.0	test	<img class = center src='/static/experiments/beast_fmri_test/images/redD.png'></img>	go	2300.0	2.0	15.0	go	target	D	89,Middle Finger	71,Index Finger	450.0	850.0	2300.0	1900.0	1.0	n/a	450.0	1.0	go_stim
299115.08142724913	552.91857275077916	n/a	486	89	2750	552.918572751	stim	stop-signal	719	1909159	0.0-27.15-1.15	beast_fmri_test	273	1906516,/,1907195,/,1907874,/,1908553,/,1909234,/	t,t,t,t,t	<img class = center src='/static/experiments/beast_fmri_test/images/D.png'></img>	89,71	2750.0	test	<img class = center src='/static/experiments/beast_fmri_test/images/redD.png'></img>	go	2300.0	2.0	15.0	go	target	D	89,Middle Finger	71,Index Finger	450.0	850.0	2300.0	1900.0	1.0	n/a	450.0	1.0	ITI
300797	500	n/a	-1	-1	500	0.0	fixation	poldrack-single-stim	720	1910288	0.0-27.16-0.16	beast_fmri_test	273	1909914,/	t	<div class = centerbox2><div class = fixation>+</div></div>	none	500.0	test	n/a	n/a	n/a	n/a	n/a	n/a	n/a	n/a	n/a	n/a	n/a	n/a	n/a	n/a	n/a	n/a	n/a	n/a	fixation
300787.51387321064	2750	n/a	529	89	2750	10.4861267895	stim	stop-signal	721	1913039	0.0-27.16-1.16	beast_fmri_test	273	1910593,/,1911273,/,1911952,/,1912632,/	t,t,t,t	<img class = center src='/static/experiments/beast_fmri_test/images/D.png'></img>	89,71	2750.0	test	<img class = center src='/static/experiments/beast_fmri_test/images/redD.png'></img>	go	2300.0	2.0	16.0	go	target	D	89,Middle Finger	71,Index Finger	450.0	850.0	2300.0	1900.0	1.0	n/a	450.0	1.0	go_stim
303537.51387321064	10.486126789455877	n/a	529	89	2750	10.4861267895	stim	stop-signal	721	1913039	0.0-27.16-1.16	beast_fmri_test	273	1910593,/,1911273,/,1911952,/,1912632,/	t,t,t,t	<img class = center src='/static/experiments/beast_fmri_test/images/D.png'></img>	89,71	2750.0	test	<img class = center src='/static/experiments/beast_fmri_test/images/redD.png'></img>	go	2300.0	2.0	16.0	go	target	D	89,Middle Finger	71,Index Finger	450.0	850.0	2300.0	1900.0	1.0	n/a	450.0	1.0	ITI
304124	500	n/a	-1	-1	500	0.0	fixation	poldrack-single-stim	722	1913615	0.0-27.17-0.17	beast_fmri_test	273	1913311,/	t	<div class = centerbox2><div class = fixation>+</div></div>	none	500.0	test	n/a	n/a	n/a	n/a	n/a	n/a	n/a	n/a	n/a	n/a	n/a	n/a	n/a	n/a	n/a	n/a	n/a	n/a	fixation
303039.61588197155	850.0	n/a	989	71	2750	1087.38411803	stim	stop-signal	723	1916368	0.0-27.17-1.17	beast_fmri_test	273	1913991,/,1914671,/,1915352,/,1916033,/,1916710,/,1917390,/	t,t,t,t,t,t	<img class = center src='/static/experiments/beast_fmri_test/images/T.png'></img>	89,71	2750.0	test	<img class = center src='/static/experiments/beast_fmri_test/images/redT.png'></img>	stop	1900.0	2.0	17.0	stop	non-target	T	89,Middle Finger	71,Index Finger	450.0	850.0	2300.0	1900.0	0.0	0.0	850.0	n/a	go_stim
304939.61588197155	1900.0	n/a	989	71	2750	1087.38411803	stim	stop-signal	723	1916368	0.0-27.17-1.17	beast_fmri_test	273	1913991,/,1914671,/,1915352,/,1916033,/,1916710,/,1917390,/	t,t,t,t,t,t	<img class = center src='/static/experiments/beast_fmri_test/images/T.png'></img>	89,71	2750.0	test	<img class = center src='/static/experiments/beast_fmri_test/images/redT.png'></img>	stop	1900.0	2.0	17.0	stop	non-target	T	89,Middle Finger	71,Index Finger	450.0	850.0	2300.0	1900.0	0.0	0.0	850.0	n/a	stop_stim
305789.61588197155	1087.3841180283368	n/a	989	71	2750	1087.38411803	stim	stop-signal	723	1916368	0.0-27.17-1.17	beast_fmri_test	273	1913991,/,1914671,/,1915352,/,1916033,/,1916710,/,1917390,/	t,t,t,t,t,t	<img class = center src='/static/experiments/beast_fmri_test/images/T.png'></img>	89,71	2750.0	test	<img class = center src='/static/experiments/beast_fmri_test/images/redT.png'></img>	stop	1900.0	2.0	17.0	stop	non-target	T	89,Middle Finger	71,Index Finger	450.0	850.0	2300.0	1900.0	0.0	0.0	850.0	n/a	ITI
308534	500	n/a	-1	-1	500	0.0	fixation	poldrack-single-stim	724	1918025	0.0-27.18-0.18	beast_fmri_test	273	n/a	n/a	<div class = centerbox2><div class = fixation>+</div></div>	none	500.0	test	n/a	n/a	n/a	n/a	n/a	n/a	n/a	n/a	n/a	n/a	n/a	n/a	n/a	n/a	n/a	n/a	n/a	n/a	fixation
308380.67974399915	2750	n/a	589	89	2750	155.320256001	stim	stop-signal	725	1920777	0.0-27.18-1.18	beast_fmri_test	273	1918071,/,1918750,/,1919429,/,1920109,/,1920787,/	t,t,t,t,t	<img class = center src='/static/experiments/beast_fmri_test/images/D.png'></img>	89,71	2750.0	test	<img class = center src='/static/experiments/beast_fmri_test/images/redD.png'></img>	go	2300.0	2.0	18.0	go	target	D	89,Middle Finger	71,Index Finger	450.0	800.0	2300.0	1900.0	1.0	n/a	450.0	1.0	go_stim
311130.67974399915	155.32025600092467	n/a	589	89	2750	155.320256001	stim	stop-signal	725	1920777	0.0-27.18-1.18	beast_fmri_test	273	1918071,/,1918750,/,1919429,/,1920109,/,1920787,/	t,t,t,t,t	<img class = center src='/static/experiments/beast_fmri_test/images/D.png'></img>	89,71	2750.0	test	<img class = center src='/static/experiments/beast_fmri_test/images/redD.png'></img>	go	2300.0	2.0	18.0	go	target	D	89,Middle Finger	71,Index Finger	450.0	800.0	2300.0	1900.0	1.0	n/a	450.0	1.0	ITI
312018	500	n/a	-1	-1	500	0.0	fixation	poldrack-single-stim	726	1921509	0.0-27.19-0.19	beast_fmri_test	273	1921469,/	t	<div class = centerbox2><div class = fixation>+</div></div>	none	500.0	test	n/a	n/a	n/a	n/a	n/a	n/a	n/a	n/a	n/a	n/a	n/a	n/a	n/a	n/a	n/a	n/a	n/a	n/a	fixation
310814.01507841074	450.0	n/a	-1	-1	2750	1205.98492159	stim	stop-signal	727	1924261	0.0-27.19-1.19	beast_fmri_test	273	1922149,/,1922828,/,1923508,/,1924186,/,1924867,/	t,t,t,t,t	<img class = center src='/static/experiments/beast_fmri_test/images/T.png'></img>	89,71	2750.0	test	<img class = center src='/static/experiments/beast_fmri_test/images/redT.png'></img>	stop	2300.0	2.0	19.0	stop	target	T	89,Middle Finger	71,Index Finger	450.0	800.0	2300.0	1900.0	0.0	1.0	450.0	n/a	go_stim
313114.01507841074	2300.0	n/a	-1	-1	2750	1205.98492159	stim	stop-signal	727	1924261	0.0-27.19-1.19	beast_fmri_test	273	1922149,/,1922828,/,1923508,/,1924186,/,1924867,/	t,t,t,t,t	<img class = center src='/static/experiments/beast_fmri_test/images/T.png'></img>	89,71	2750.0	test	<img class = center src='/static/experiments/beast_fmri_test/images/redT.png'></img>	stop	2300.0	2.0	19.0	stop	target	T	89,Middle Finger	71,Index Finger	450.0	800.0	2300.0	1900.0	0.0	1.0	450.0	n/a	stop_stim
313564.01507841074	1205.9849215891745	n/a	-1	-1	2750	1205.98492159	stim	stop-signal	727	1924261	0.0-27.19-1.19	beast_fmri_test	273	1922149,/,1922828,/,1923508,/,1924186,/,1924867,/	t,t,t,t,t	<img class = center src='/static/experiments/beast_fmri_test/images/T.png'></img>	89,71	2750.0	test	<img class = center src='/static/experiments/beast_fmri_test/images/redT.png'></img>	stop	2300.0	2.0	19.0	stop	target	T	89,Middle Finger	71,Index Finger	450.0	800.0	2300.0	1900.0	0.0	1.0	450.0	n/a	ITI
316554	500	n/a	-1	-1	500	0.0	fixation	poldrack-single-stim	728	1926045	0.0-27.20-0.20	beast_fmri_test	273	1925546,/	t	<div class = centerbox2><div class = fixation>+</div></div>	none	500.0	test	n/a	n/a	n/a	n/a	n/a	n/a	n/a	n/a	n/a	n/a	n/a	n/a	n/a	n/a	n/a	n/a	n/a	n/a	fixation
314973.00671350746	800.0	n/a	753	71	2750	1582.99328649	stim	stop-signal	729	1928797	0.0-27.20-1.20	beast_fmri_test	273	1926227,/,1926905,/,1927585,/,1928265,/,1928945,/,1929623,/,1930305,/	t,t,t,t,t,t,t	<img class = center src='/static/experiments/beast_fmri_test/images/P.png'></img>	89,71	2750.0	test	<img class = center src='/static/experiments/beast_fmri_test/images/redP.png'></img>	stop	1950.0	2.0	20.0	stop	non-target	P	89,Middle Finger	71,Index Finger	500.0	800.0	2300.0	1950.0	0.0	0.0	800.0	n/a	go_stim
316923.00671350746	1950.0	n/a	753	71	2750	1582.99328649	stim	stop-signal	729	1928797	0.0-27.20-1.20	beast_fmri_test	273	1926227,/,1926905,/,1927585,/,1928265,/,1928945,/,1929623,/,1930305,/	t,t,t,t,t,t,t	<img class = center src='/static/experiments/beast_fmri_test/images/P.png'></img>	89,71	2750.0	test	<img class = center src='/static/experiments/beast_fmri_test/images/redP.png'></img>	stop	1950.0	2.0	20.0	stop	non-target	P	89,Middle Finger	71,Index Finger	500.0	800.0	2300.0	1950.0	0.0	0.0	800.0	n/a	stop_stim
