onset	duration	text	rt	key_press	block_duration	timing_post_trial	trial_id	trial_type	trial_index	time_elapsed	internal_node_id	exp_id	subject_id	trigger_times	triggers	stimulus	possible_responses	stim_duration	exp_stage	SS_stimulus	SS_trial_type	SS_duration	load	trial_num	stop_trial_type	adaptive_trial_type	stim	yes_response_key	no_response_key	SSD_target	SSD_non_target	SSTarget	SSNonTarget	go_acc	stop_acc	SS_delay	adaptive_acc	new_trial_type
test	10880.0	n/a	-1	-1	10880	0.0	practice-no-stop-feedback	poldrack-single-stim	200	542155	0.0-12.0	beast_fmri_test	336	531279,/,531956,/,532637,/,533316,/,533996,/,534676,/,535355,/,536035,/,536715,/,537394,/,538073,/,538753,/,539433,/,540112,/,540791,/,541472,/,542152,/	t,t,t,t,t,t,t,t,t,t,t,t,t,t,t,t,t	"<div class = ""centerbox""><p class = ""block-text"">Your delay is 2 trials.</p><p class = block-text>Please wait for the scanner to start the block</p></div>"	77	10880.0	n/a	n/a	n/a	n/a	n/a	n/a	n/a	n/a	n/a	n/a	n/a	n/a	n/a	n/a	n/a	n/a	n/a	n/a	n/a	start_functional_block
11378	500.0	n/a	-1	-1	500	0.0	fixation	poldrack-single-stim	201	542657	0.0-13.0-0.0	beast_fmri_test	336	n/a	n/a	<div class = centerbox2><div class = fixation>+</div></div>	none	500.0	test	n/a	n/a	n/a	n/a	n/a	n/a	n/a	n/a	n/a	n/a	n/a	n/a	n/a	n/a	n/a	n/a	n/a	n/a	fixation
11190.305680199992	2750.0	n/a	701	89	2750	188.6943198	stim	stop-signal	202	545408	0.0-13.0-1.0	beast_fmri_test	336	542832,/,543511,/,544191,/,544870,/,545550,/	t,t,t,t,t	<img class = center src='/static/experiments/beast_fmri_test/images/D.png'></img>	71,89	2750.0	test	<img class = center src='/static/experiments/beast_fmri_test/images/redD.png'></img>	go	-1.0	2.0	0.0	go	temp-non-target	D	71,Index Finger	89,Middle Finger	500.0	700.0	2250.0	2050.0	0.0	n/a	n/a	n/a	go_stim
13940.305680199992	188.6943198	n/a	701	89	2750	188.6943198	stim	stop-signal	202	545408	0.0-13.0-1.0	beast_fmri_test	336	542832,/,543511,/,544191,/,544870,/,545550,/	t,t,t,t,t	<img class = center src='/static/experiments/beast_fmri_test/images/D.png'></img>	71,89	2750.0	test	<img class = center src='/static/experiments/beast_fmri_test/images/redD.png'></img>	go	-1.0	2.0	0.0	go	temp-non-target	D	71,Index Finger	89,Middle Finger	500.0	700.0	2250.0	2050.0	0.0	n/a	n/a	n/a	ITI
14844	500.0	n/a	-1	-1	500	0.0	fixation	poldrack-single-stim	203	546123	0.0-13.1-0.1	beast_fmri_test	336	n/a	n/a	<div class = centerbox2><div class = fixation>+</div></div>	none	500.0	test	n/a	n/a	n/a	n/a	n/a	n/a	n/a	n/a	n/a	n/a	n/a	n/a	n/a	n/a	n/a	n/a	n/a	n/a	fixation
14235.505166999996	2750.0	n/a	603	89	2750	609.494833	stim	stop-signal	204	548874	0.0-13.1-1.1	beast_fmri_test	336	546230,/,546910,/,547589,/,548269,/,548949,/	t,t,t,t,t	<img class = center src='/static/experiments/beast_fmri_test/images/T.png'></img>	71,89	2750.0	test	<img class = center src='/static/experiments/beast_fmri_test/images/redT.png'></img>	go	-1.0	2.0	1.0	go	temp-non-target	T	71,Index Finger	89,Middle Finger	500.0	700.0	2250.0	2050.0	0.0	n/a	n/a	n/a	go_stim
16985.505166999996	609.494833	n/a	603	89	2750	609.494833	stim	stop-signal	204	548874	0.0-13.1-1.1	beast_fmri_test	336	546230,/,546910,/,547589,/,548269,/,548949,/	t,t,t,t,t	<img class = center src='/static/experiments/beast_fmri_test/images/T.png'></img>	71,89	2750.0	test	<img class = center src='/static/experiments/beast_fmri_test/images/redT.png'></img>	go	-1.0	2.0	1.0	go	temp-non-target	T	71,Index Finger	89,Middle Finger	500.0	700.0	2250.0	2050.0	0.0	n/a	n/a	n/a	ITI
18732	500.0	n/a	-1	-1	500	0.0	fixation	poldrack-single-stim	205	550011	0.0-13.2-0.2	beast_fmri_test	336	549628,/	t	<div class = centerbox2><div class = fixation>+</div></div>	none	500.0	test	n/a	n/a	n/a	n/a	n/a	n/a	n/a	n/a	n/a	n/a	n/a	n/a	n/a	n/a	n/a	n/a	n/a	n/a	fixation
17546.111514999997	2750.0	n/a	802	89	2750	1187.888485	stim	stop-signal	206	552763	0.0-13.2-1.2	beast_fmri_test	336	550307,/,550986,/,551667,/,552347,/,553027,/,553705,/	t,t,t,t,t,t	<img class = center src='/static/experiments/beast_fmri_test/images/P.png'></img>	71,89	2750.0	test	<img class = center src='/static/experiments/beast_fmri_test/images/redP.png'></img>	go	2050.0	2.0	2.0	go	non-target	P	71,Index Finger	89,Middle Finger	500.0	700.0	2250.0	2050.0	1.0	n/a	700.0	1.0	go_stim
20296.111514999997	1187.888485	n/a	802	89	2750	1187.888485	stim	stop-signal	206	552763	0.0-13.2-1.2	beast_fmri_test	336	550307,/,550986,/,551667,/,552347,/,553027,/,553705,/	t,t,t,t,t,t	<img class = center src='/static/experiments/beast_fmri_test/images/P.png'></img>	71,89	2750.0	test	<img class = center src='/static/experiments/beast_fmri_test/images/redP.png'></img>	go	2050.0	2.0	2.0	go	non-target	P	71,Index Finger	89,Middle Finger	500.0	700.0	2250.0	2050.0	1.0	n/a	700.0	1.0	ITI
23199	500.0	n/a	-1	-1	500	0.0	fixation	poldrack-single-stim	207	554478	0.0-13.3-0.3	beast_fmri_test	336	554385,/	t	<div class = centerbox2><div class = fixation>+</div></div>	none	500.0	test	n/a	n/a	n/a	n/a	n/a	n/a	n/a	n/a	n/a	n/a	n/a	n/a	n/a	n/a	n/a	n/a	n/a	n/a	fixation
22906.602197899949	2750.0	n/a	699	71	2750	293.3978021	stim	stop-signal	208	557229	0.0-13.3-1.3	beast_fmri_test	336	555064,/,555745,/,556424,/,557104,/	t,t,t,t	<img class = center src='/static/experiments/beast_fmri_test/images/T.png'></img>	71,89	2750.0	test	<img class = center src='/static/experiments/beast_fmri_test/images/redT.png'></img>	go	2250.0	2.0	3.0	go	target	T	71,Index Finger	89,Middle Finger	500.0	700.0	2250.0	2050.0	1.0	n/a	500.0	1.0	go_stim
25656.602197899949	293.3978021	n/a	699	71	2750	293.3978021	stim	stop-signal	208	557229	0.0-13.3-1.3	beast_fmri_test	336	555064,/,555745,/,556424,/,557104,/	t,t,t,t	<img class = center src='/static/experiments/beast_fmri_test/images/T.png'></img>	71,89	2750.0	test	<img class = center src='/static/experiments/beast_fmri_test/images/redT.png'></img>	go	2250.0	2.0	3.0	go	target	T	71,Index Finger	89,Middle Finger	500.0	700.0	2250.0	2050.0	1.0	n/a	500.0	1.0	ITI
26771	500.0	n/a	-1	-1	500	0.0	fixation	poldrack-single-stim	209	558050	0.0-13.4-0.4	beast_fmri_test	336	557784,/	t	<div class = centerbox2><div class = fixation>+</div></div>	none	500.0	test	n/a	n/a	n/a	n/a	n/a	n/a	n/a	n/a	n/a	n/a	n/a	n/a	n/a	n/a	n/a	n/a	n/a	n/a	fixation
25485.689169000019	500.0	n/a	-1	-1	2750	1286.310831	stim	stop-signal	210	560801	0.0-13.4-1.4	beast_fmri_test	336	558463,/,559144,/,559824,/,560504,/,561183,/,561863,/	t,t,t,t,t,t	<img class = center src='/static/experiments/beast_fmri_test/images/P.png'></img>	71,89	2750.0	test	<img class = center src='/static/experiments/beast_fmri_test/images/redP.png'></img>	stop	2250.0	2.0	4.0	stop	target	P	71,Index Finger	89,Middle Finger	500.0	700.0	2250.0	2050.0	0.0	1.0	500.0	n/a	go_stim
27735.689169000019	2250.0	n/a	-1	-1	2750	1286.310831	stim	stop-signal	210	560801	0.0-13.4-1.4	beast_fmri_test	336	558463,/,559144,/,559824,/,560504,/,561183,/,561863,/	t,t,t,t,t,t	<img class = center src='/static/experiments/beast_fmri_test/images/P.png'></img>	71,89	2750.0	test	<img class = center src='/static/experiments/beast_fmri_test/images/redP.png'></img>	stop	2250.0	2.0	4.0	stop	target	P	71,Index Finger	89,Middle Finger	500.0	700.0	2250.0	2050.0	0.0	1.0	500.0	n/a	stop_stim
28235.689169000019	1286.310831	n/a	-1	-1	2750	1286.310831	stim	stop-signal	210	560801	0.0-13.4-1.4	beast_fmri_test	336	558463,/,559144,/,559824,/,560504,/,561183,/,561863,/	t,t,t,t,t,t	<img class = center src='/static/experiments/beast_fmri_test/images/P.png'></img>	71,89	2750.0	test	<img class = center src='/static/experiments/beast_fmri_test/images/redP.png'></img>	stop	2250.0	2.0	4.0	stop	target	P	71,Index Finger	89,Middle Finger	500.0	700.0	2250.0	2050.0	0.0	1.0	500.0	n/a	ITI
31336	500.0	n/a	-1	-1	500	0.0	fixation	poldrack-single-stim	211	562615	0.0-13.5-0.5	beast_fmri_test	336	562543,/	t	<div class = centerbox2><div class = fixation>+</div></div>	none	500.0	test	n/a	n/a	n/a	n/a	n/a	n/a	n/a	n/a	n/a	n/a	n/a	n/a	n/a	n/a	n/a	n/a	n/a	n/a	fixation
26490.83527000004	2750.0	n/a	791	89	2750	4846.16473	stim	stop-signal	212	565366	0.0-13.5-1.5	beast_fmri_test	336	563222,/,563902,/,564582,/,565261,/,565941,/,566621,/,567300,/,567979,/,568659,/,569339,/,570019,/	t,t,t,t,t,t,t,t,t,t,t	<img class = center src='/static/experiments/beast_fmri_test/images/V.png'></img>	71,89	2750.0	test	<img class = center src='/static/experiments/beast_fmri_test/images/redV.png'></img>	go	2050.0	2.0	5.0	go	non-target	V	71,Index Finger	89,Middle Finger	550.0	700.0	2250.0	2050.0	1.0	n/a	700.0	1.0	go_stim
29240.83527000004	4846.16473	n/a	791	89	2750	4846.16473	stim	stop-signal	212	565366	0.0-13.5-1.5	beast_fmri_test	336	563222,/,563902,/,564582,/,565261,/,565941,/,566621,/,567300,/,567979,/,568659,/,569339,/,570019,/	t,t,t,t,t,t,t,t,t,t,t	<img class = center src='/static/experiments/beast_fmri_test/images/V.png'></img>	71,89	2750.0	test	<img class = center src='/static/experiments/beast_fmri_test/images/redV.png'></img>	go	2050.0	2.0	5.0	go	non-target	V	71,Index Finger	89,Middle Finger	550.0	700.0	2250.0	2050.0	1.0	n/a	700.0	1.0	ITI
39462	500.0	n/a	-1	-1	500	0.0	fixation	poldrack-single-stim	213	570741	0.0-13.6-0.6	beast_fmri_test	336	570699,/	t	<div class = centerbox2><div class = fixation>+</div></div>	none	500.0	test	n/a	n/a	n/a	n/a	n/a	n/a	n/a	n/a	n/a	n/a	n/a	n/a	n/a	n/a	n/a	n/a	n/a	n/a	fixation
39218.22161560005	700.0	n/a	608	89	2750	245.7783844	stim	stop-signal	214	573493	0.0-13.6-1.6	beast_fmri_test	336	571378,/,572057,/,572737,/,573417,/	t,t,t,t	<img class = center src='/static/experiments/beast_fmri_test/images/D.png'></img>	71,89	2750.0	test	<img class = center src='/static/experiments/beast_fmri_test/images/redD.png'></img>	stop	2050.0	2.0	6.0	stop	non-target	D	71,Index Finger	89,Middle Finger	550.0	700.0	2250.0	2050.0	0.0	0.0	700.0	n/a	go_stim
41268.22161560005	2050.0	n/a	608	89	2750	245.7783844	stim	stop-signal	214	573493	0.0-13.6-1.6	beast_fmri_test	336	571378,/,572057,/,572737,/,573417,/	t,t,t,t	<img class = center src='/static/experiments/beast_fmri_test/images/D.png'></img>	71,89	2750.0	test	<img class = center src='/static/experiments/beast_fmri_test/images/redD.png'></img>	stop	2050.0	2.0	6.0	stop	non-target	D	71,Index Finger	89,Middle Finger	550.0	700.0	2250.0	2050.0	0.0	0.0	700.0	n/a	stop_stim
41968.22161560005	245.7783844	n/a	608	89	2750	245.7783844	stim	stop-signal	214	573493	0.0-13.6-1.6	beast_fmri_test	336	571378,/,572057,/,572737,/,573417,/	t,t,t,t	<img class = center src='/static/experiments/beast_fmri_test/images/D.png'></img>	71,89	2750.0	test	<img class = center src='/static/experiments/beast_fmri_test/images/redD.png'></img>	stop	2050.0	2.0	6.0	stop	non-target	D	71,Index Finger	89,Middle Finger	550.0	700.0	2250.0	2050.0	0.0	0.0	700.0	n/a	ITI
42988	500.0	n/a	-1	-1	500	0.0	fixation	poldrack-single-stim	215	574267	0.0-13.7-0.7	beast_fmri_test	336	574098,/	t	<div class = centerbox2><div class = fixation>+</div></div>	none	500.0	test	n/a	n/a	n/a	n/a	n/a	n/a	n/a	n/a	n/a	n/a	n/a	n/a	n/a	n/a	n/a	n/a	n/a	n/a	fixation
40123.236796000041	2750.0	n/a	759	89	2750	2866.763204	stim	stop-signal	216	577019	0.0-13.7-1.7	beast_fmri_test	336	574776,/,575455,/,576136,/,576816,/,577494,/,578175,/,578853,/,579534,/	t,t,t,t,t,t,t,t	<img class = center src='/static/experiments/beast_fmri_test/images/P.png'></img>	71,89	2750.0	test	<img class = center src='/static/experiments/beast_fmri_test/images/redP.png'></img>	go	2100.0	2.0	7.0	go	non-target	P	71,Index Finger	89,Middle Finger	550.0	650.0	2250.0	2100.0	1.0	n/a	650.0	1.0	go_stim
42873.236796000041	2866.763204	n/a	759	89	2750	2866.763204	stim	stop-signal	216	577019	0.0-13.7-1.7	beast_fmri_test	336	574776,/,575455,/,576136,/,576816,/,577494,/,578175,/,578853,/,579534,/	t,t,t,t,t,t,t,t	<img class = center src='/static/experiments/beast_fmri_test/images/P.png'></img>	71,89	2750.0	test	<img class = center src='/static/experiments/beast_fmri_test/images/redP.png'></img>	go	2100.0	2.0	7.0	go	non-target	P	71,Index Finger	89,Middle Finger	550.0	650.0	2250.0	2100.0	1.0	n/a	650.0	1.0	ITI
49135	500.0	n/a	-1	-1	500	0.0	fixation	poldrack-single-stim	217	580414	0.0-13.8-0.8	beast_fmri_test	336	580214,/	t	<div class = centerbox2><div class = fixation>+</div></div>	none	500.0	test	n/a	n/a	n/a	n/a	n/a	n/a	n/a	n/a	n/a	n/a	n/a	n/a	n/a	n/a	n/a	n/a	n/a	n/a	fixation
48310.244859599974	550.0	n/a	759	71	2750	826.7551404	stim	stop-signal	218	583166	0.0-13.8-1.8	beast_fmri_test	336	580893,/,581573,/,582252,/,582931,/,583612,/	t,t,t,t,t	<img class = center src='/static/experiments/beast_fmri_test/images/D.png'></img>	71,89	2750.0	test	<img class = center src='/static/experiments/beast_fmri_test/images/redD.png'></img>	stop	2200.0	2.0	8.0	stop	target	D	71,Index Finger	89,Middle Finger	550.0	650.0	2200.0	2100.0	0.0	0.0	550.0	n/a	go_stim
50510.244859599974	2200.0	n/a	759	71	2750	826.7551404	stim	stop-signal	218	583166	0.0-13.8-1.8	beast_fmri_test	336	580893,/,581573,/,582252,/,582931,/,583612,/	t,t,t,t,t	<img class = center src='/static/experiments/beast_fmri_test/images/D.png'></img>	71,89	2750.0	test	<img class = center src='/static/experiments/beast_fmri_test/images/redD.png'></img>	stop	2200.0	2.0	8.0	stop	target	D	71,Index Finger	89,Middle Finger	550.0	650.0	2200.0	2100.0	0.0	0.0	550.0	n/a	stop_stim
51060.244859599974	826.7551404	n/a	759	71	2750	826.7551404	stim	stop-signal	218	583166	0.0-13.8-1.8	beast_fmri_test	336	580893,/,581573,/,582252,/,582931,/,583612,/	t,t,t,t,t	<img class = center src='/static/experiments/beast_fmri_test/images/D.png'></img>	71,89	2750.0	test	<img class = center src='/static/experiments/beast_fmri_test/images/redD.png'></img>	stop	2200.0	2.0	8.0	stop	target	D	71,Index Finger	89,Middle Finger	550.0	650.0	2200.0	2100.0	0.0	0.0	550.0	n/a	ITI
53240	500.0	n/a	-1	-1	500	0.0	fixation	poldrack-single-stim	219	584519	0.0-13.9-0.9	beast_fmri_test	336	584292,/	t	<div class = centerbox2><div class = fixation>+</div></div>	none	500.0	test	n/a	n/a	n/a	n/a	n/a	n/a	n/a	n/a	n/a	n/a	n/a	n/a	n/a	n/a	n/a	n/a	n/a	n/a	fixation
53068.51174820005	2750.0	n/a	1204	89	2750	172.4882518	stim	stop-signal	220	587270	0.0-13.9-1.9	beast_fmri_test	336	584971,/,585651,/,586331,/,587010,/	t,t,t,t	<img class = center src='/static/experiments/beast_fmri_test/images/V.png'></img>	71,89	2750.0	test	<img class = center src='/static/experiments/beast_fmri_test/images/redV.png'></img>	go	2100.0	2.0	9.0	go	non-target	V	71,Index Finger	89,Middle Finger	500.0	650.0	2200.0	2100.0	1.0	n/a	650.0	1.0	go_stim
55818.51174820005	172.4882518	n/a	1204	89	2750	172.4882518	stim	stop-signal	220	587270	0.0-13.9-1.9	beast_fmri_test	336	584971,/,585651,/,586331,/,587010,/	t,t,t,t	<img class = center src='/static/experiments/beast_fmri_test/images/V.png'></img>	71,89	2750.0	test	<img class = center src='/static/experiments/beast_fmri_test/images/redV.png'></img>	go	2100.0	2.0	9.0	go	non-target	V	71,Index Finger	89,Middle Finger	500.0	650.0	2200.0	2100.0	1.0	n/a	650.0	1.0	ITI
56691	500.0	n/a	-1	-1	500	0.0	fixation	poldrack-single-stim	221	587970	0.0-13.10-0.10	beast_fmri_test	336	587692,/	t	<div class = centerbox2><div class = fixation>+</div></div>	none	500.0	test	n/a	n/a	n/a	n/a	n/a	n/a	n/a	n/a	n/a	n/a	n/a	n/a	n/a	n/a	n/a	n/a	n/a	n/a	fixation
56213.403917500051	2750.0	n/a	1099	89	2750	478.5960825	stim	stop-signal	222	590721	0.0-13.10-1.10	beast_fmri_test	336	588371,/,589050,/,589729,/,590410,/,591089,/	t,t,t,t,t	<img class = center src='/static/experiments/beast_fmri_test/images/P.png'></img>	71,89	2750.0	test	<img class = center src='/static/experiments/beast_fmri_test/images/redP.png'></img>	go	2100.0	2.0	10.0	go	non-target	P	71,Index Finger	89,Middle Finger	500.0	650.0	2200.0	2100.0	1.0	n/a	650.0	1.0	go_stim
58963.403917500051	478.5960825	n/a	1099	89	2750	478.5960825	stim	stop-signal	222	590721	0.0-13.10-1.10	beast_fmri_test	336	588371,/,589050,/,589729,/,590410,/,591089,/	t,t,t,t,t	<img class = center src='/static/experiments/beast_fmri_test/images/P.png'></img>	71,89	2750.0	test	<img class = center src='/static/experiments/beast_fmri_test/images/redP.png'></img>	go	2100.0	2.0	10.0	go	non-target	P	71,Index Finger	89,Middle Finger	500.0	650.0	2200.0	2100.0	1.0	n/a	650.0	1.0	ITI
60449	500.0	n/a	-1	-1	500	0.0	fixation	poldrack-single-stim	223	591728	0.0-13.11-0.11	beast_fmri_test	336	n/a	n/a	<div class = centerbox2><div class = fixation>+</div></div>	none	500.0	test	n/a	n/a	n/a	n/a	n/a	n/a	n/a	n/a	n/a	n/a	n/a	n/a	n/a	n/a	n/a	n/a	n/a	n/a	fixation
57155.484552999958	2750.0	n/a	905	89	2750	3295.515447	stim	stop-signal	224	594480	0.0-13.11-1.11	beast_fmri_test	336	591769,/,592449,/,593129,/,593807,/,594488,/,595167,/,595847,/,596526,/,597206,/	t,t,t,t,t,t,t,t,t	<img class = center src='/static/experiments/beast_fmri_test/images/P.png'></img>	71,89	2750.0	test	<img class = center src='/static/experiments/beast_fmri_test/images/redP.png'></img>	go	2100.0	2.0	11.0	go	non-target	P	71,Index Finger	89,Middle Finger	500.0	650.0	2200.0	2100.0	1.0	n/a	650.0	1.0	go_stim
59905.484552999958	3295.515447	n/a	905	89	2750	3295.515447	stim	stop-signal	224	594480	0.0-13.11-1.11	beast_fmri_test	336	591769,/,592449,/,593129,/,593807,/,594488,/,595167,/,595847,/,596526,/,597206,/	t,t,t,t,t,t,t,t,t	<img class = center src='/static/experiments/beast_fmri_test/images/P.png'></img>	71,89	2750.0	test	<img class = center src='/static/experiments/beast_fmri_test/images/redP.png'></img>	go	2100.0	2.0	11.0	go	non-target	P	71,Index Finger	89,Middle Finger	500.0	650.0	2200.0	2100.0	1.0	n/a	650.0	1.0	ITI
67022	500.0	n/a	-1	-1	500	0.0	fixation	poldrack-single-stim	225	598301	0.0-13.12-0.12	beast_fmri_test	336	597885,/	t	<div class = centerbox2><div class = fixation>+</div></div>	none	500.0	test	n/a	n/a	n/a	n/a	n/a	n/a	n/a	n/a	n/a	n/a	n/a	n/a	n/a	n/a	n/a	n/a	n/a	n/a	fixation
64427.873757999972	2750.0	n/a	897	71	2750	2597.126242	stim	stop-signal	226	601054	0.0-13.12-1.12	beast_fmri_test	336	598566,/,599244,/,599925,/,600604,/,601283,/,601963,/,602642,/,603323,/	t,t,t,t,t,t,t,t	<img class = center src='/static/experiments/beast_fmri_test/images/P.png'></img>	71,89	2750.0	test	<img class = center src='/static/experiments/beast_fmri_test/images/redP.png'></img>	go	2250.0	2.0	12.0	go	target	P	71,Index Finger	89,Middle Finger	500.0	650.0	2250.0	2100.0	1.0	n/a	500.0	1.0	go_stim
67177.873757999972	2597.126242	n/a	897	71	2750	2597.126242	stim	stop-signal	226	601054	0.0-13.12-1.12	beast_fmri_test	336	598566,/,599244,/,599925,/,600604,/,601283,/,601963,/,602642,/,603323,/	t,t,t,t,t,t,t,t	<img class = center src='/static/experiments/beast_fmri_test/images/P.png'></img>	71,89	2750.0	test	<img class = center src='/static/experiments/beast_fmri_test/images/redP.png'></img>	go	2250.0	2.0	12.0	go	target	P	71,Index Finger	89,Middle Finger	500.0	650.0	2250.0	2100.0	1.0	n/a	500.0	1.0	ITI
72900	500.0	n/a	-1	-1	500	0.0	fixation	poldrack-single-stim	227	604179	0.0-13.13-0.13	beast_fmri_test	336	604003,/	t	<div class = centerbox2><div class = fixation>+</div></div>	none	500.0	test	n/a	n/a	n/a	n/a	n/a	n/a	n/a	n/a	n/a	n/a	n/a	n/a	n/a	n/a	n/a	n/a	n/a	n/a	fixation
72740.931269000052	2750.0	n/a	1042	71	2750	161.068731	stim	stop-signal	228	606931	0.0-13.13-1.13	beast_fmri_test	336	604682,/,605361,/,606042,/,606721,/	t,t,t,t	<img class = center src='/static/experiments/beast_fmri_test/images/P.png'></img>	71,89	2750.0	test	<img class = center src='/static/experiments/beast_fmri_test/images/redP.png'></img>	go	2250.0	2.0	13.0	go	target	P	71,Index Finger	89,Middle Finger	500.0	650.0	2250.0	2100.0	1.0	n/a	500.0	1.0	go_stim
75490.931269000052	161.068731	n/a	1042	71	2750	161.068731	stim	stop-signal	228	606931	0.0-13.13-1.13	beast_fmri_test	336	604682,/,605361,/,606042,/,606721,/	t,t,t,t	<img class = center src='/static/experiments/beast_fmri_test/images/P.png'></img>	71,89	2750.0	test	<img class = center src='/static/experiments/beast_fmri_test/images/redP.png'></img>	go	2250.0	2.0	13.0	go	target	P	71,Index Finger	89,Middle Finger	500.0	650.0	2250.0	2100.0	1.0	n/a	500.0	1.0	ITI
76344	500.0	n/a	-1	-1	500	0.0	fixation	poldrack-single-stim	229	607623	0.0-13.14-0.14	beast_fmri_test	336	607402,/	t	<div class = centerbox2><div class = fixation>+</div></div>	none	500.0	test	n/a	n/a	n/a	n/a	n/a	n/a	n/a	n/a	n/a	n/a	n/a	n/a	n/a	n/a	n/a	n/a	n/a	n/a	fixation
75900.412831700058	500.0	n/a	-1	-1	2750	446.5871683	stim	stop-signal	230	610376	0.0-13.14-1.14	beast_fmri_test	336	608081,/,608761,/,609439,/,610121,/,610799,/	t,t,t,t,t	<img class = center src='/static/experiments/beast_fmri_test/images/P.png'></img>	71,89	2750.0	test	<img class = center src='/static/experiments/beast_fmri_test/images/redP.png'></img>	stop	2250.0	2.0	14.0	stop	target	P	71,Index Finger	89,Middle Finger	500.0	650.0	2250.0	2100.0	0.0	1.0	500.0	n/a	go_stim
78150.412831700058	2250.0	n/a	-1	-1	2750	446.5871683	stim	stop-signal	230	610376	0.0-13.14-1.14	beast_fmri_test	336	608081,/,608761,/,609439,/,610121,/,610799,/	t,t,t,t,t	<img class = center src='/static/experiments/beast_fmri_test/images/P.png'></img>	71,89	2750.0	test	<img class = center src='/static/experiments/beast_fmri_test/images/redP.png'></img>	stop	2250.0	2.0	14.0	stop	target	P	71,Index Finger	89,Middle Finger	500.0	650.0	2250.0	2100.0	0.0	1.0	500.0	n/a	stop_stim
78650.412831700058	446.5871683	n/a	-1	-1	2750	446.5871683	stim	stop-signal	230	610376	0.0-13.14-1.14	beast_fmri_test	336	608081,/,608761,/,609439,/,610121,/,610799,/	t,t,t,t,t	<img class = center src='/static/experiments/beast_fmri_test/images/P.png'></img>	71,89	2750.0	test	<img class = center src='/static/experiments/beast_fmri_test/images/redP.png'></img>	stop	2250.0	2.0	14.0	stop	target	P	71,Index Finger	89,Middle Finger	500.0	650.0	2250.0	2100.0	0.0	1.0	500.0	n/a	ITI
80071	500.0	n/a	-1	-1	500	0.0	fixation	poldrack-single-stim	231	611350	0.0-13.15-0.15	beast_fmri_test	336	n/a	n/a	<div class = centerbox2><div class = fixation>+</div></div>	none	500.0	test	n/a	n/a	n/a	n/a	n/a	n/a	n/a	n/a	n/a	n/a	n/a	n/a	n/a	n/a	n/a	n/a	n/a	n/a	fixation
79448.751773099997	650.0	n/a	734	89	2750	624.2482269	stim	stop-signal	232	614102	0.0-13.15-1.15	beast_fmri_test	336	611479,/,612159,/,612839,/,613519,/,614197,/	t,t,t,t,t	<img class = center src='/static/experiments/beast_fmri_test/images/D.png'></img>	71,89	2750.0	test	<img class = center src='/static/experiments/beast_fmri_test/images/redD.png'></img>	stop	2100.0	2.0	15.0	stop	non-target	D	71,Index Finger	89,Middle Finger	550.0	650.0	2250.0	2100.0	0.0	0.0	650.0	n/a	go_stim
81548.751773099997	2100.0	n/a	734	89	2750	624.2482269	stim	stop-signal	232	614102	0.0-13.15-1.15	beast_fmri_test	336	611479,/,612159,/,612839,/,613519,/,614197,/	t,t,t,t,t	<img class = center src='/static/experiments/beast_fmri_test/images/D.png'></img>	71,89	2750.0	test	<img class = center src='/static/experiments/beast_fmri_test/images/redD.png'></img>	stop	2100.0	2.0	15.0	stop	non-target	D	71,Index Finger	89,Middle Finger	550.0	650.0	2250.0	2100.0	0.0	0.0	650.0	n/a	stop_stim
82198.751773099997	624.2482269	n/a	734	89	2750	624.2482269	stim	stop-signal	232	614102	0.0-13.15-1.15	beast_fmri_test	336	611479,/,612159,/,612839,/,613519,/,614197,/	t,t,t,t,t	<img class = center src='/static/experiments/beast_fmri_test/images/D.png'></img>	71,89	2750.0	test	<img class = center src='/static/experiments/beast_fmri_test/images/redD.png'></img>	stop	2100.0	2.0	15.0	stop	non-target	D	71,Index Finger	89,Middle Finger	550.0	650.0	2250.0	2100.0	0.0	0.0	650.0	n/a	ITI
83974	500.0	n/a	-1	-1	500	0.0	fixation	poldrack-single-stim	233	615253	0.0-13.16-0.16	beast_fmri_test	336	614878,/	t	<div class = centerbox2><div class = fixation>+</div></div>	none	500.0	test	n/a	n/a	n/a	n/a	n/a	n/a	n/a	n/a	n/a	n/a	n/a	n/a	n/a	n/a	n/a	n/a	n/a	n/a	fixation
83137.405573599972	2750.0	n/a	1338	89	2750	838.5944264	stim	stop-signal	234	618005	0.0-13.16-1.16	beast_fmri_test	336	615557,/,616237,/,616916,/,617597,/,618276,/	t,t,t,t,t	<img class = center src='/static/experiments/beast_fmri_test/images/B.png'></img>	71,89	2750.0	test	<img class = center src='/static/experiments/beast_fmri_test/images/redB.png'></img>	go	2150.0	2.0	16.0	go	non-target	B	71,Index Finger	89,Middle Finger	550.0	600.0	2250.0	2150.0	1.0	n/a	600.0	1.0	go_stim
85887.405573599972	838.5944264	n/a	1338	89	2750	838.5944264	stim	stop-signal	234	618005	0.0-13.16-1.16	beast_fmri_test	336	615557,/,616237,/,616916,/,617597,/,618276,/	t,t,t,t,t	<img class = center src='/static/experiments/beast_fmri_test/images/B.png'></img>	71,89	2750.0	test	<img class = center src='/static/experiments/beast_fmri_test/images/redB.png'></img>	go	2150.0	2.0	16.0	go	non-target	B	71,Index Finger	89,Middle Finger	550.0	600.0	2250.0	2150.0	1.0	n/a	600.0	1.0	ITI
88091	500.0	n/a	-1	-1	500	0.0	fixation	poldrack-single-stim	235	619370	0.0-13.17-0.17	beast_fmri_test	336	618957,/	t	<div class = centerbox2><div class = fixation>+</div></div>	none	500.0	test	n/a	n/a	n/a	n/a	n/a	n/a	n/a	n/a	n/a	n/a	n/a	n/a	n/a	n/a	n/a	n/a	n/a	n/a	fixation
87639.556426699972	2750.0	n/a	815	71	2750	454.4435733	stim	stop-signal	236	622123	0.0-13.17-1.17	beast_fmri_test	336	619637,/,620314,/,620996,/,621675,/,622355,/	t,t,t,t,t	<img class = center src='/static/experiments/beast_fmri_test/images/D.png'></img>	71,89	2750.0	test	<img class = center src='/static/experiments/beast_fmri_test/images/redD.png'></img>	go	2200.0	2.0	17.0	go	target	D	71,Index Finger	89,Middle Finger	550.0	600.0	2200.0	2150.0	1.0	n/a	550.0	1.0	go_stim
90389.556426699972	454.4435733	n/a	815	71	2750	454.4435733	stim	stop-signal	236	622123	0.0-13.17-1.17	beast_fmri_test	336	619637,/,620314,/,620996,/,621675,/,622355,/	t,t,t,t,t	<img class = center src='/static/experiments/beast_fmri_test/images/D.png'></img>	71,89	2750.0	test	<img class = center src='/static/experiments/beast_fmri_test/images/redD.png'></img>	go	2200.0	2.0	17.0	go	target	D	71,Index Finger	89,Middle Finger	550.0	600.0	2200.0	2150.0	1.0	n/a	550.0	1.0	ITI
91830	500.0	n/a	-1	-1	500	0.0	fixation	poldrack-single-stim	237	623109	0.0-13.18-0.18	beast_fmri_test	336	623035,/	t	<div class = centerbox2><div class = fixation>+</div></div>	none	500.0	test	n/a	n/a	n/a	n/a	n/a	n/a	n/a	n/a	n/a	n/a	n/a	n/a	n/a	n/a	n/a	n/a	n/a	n/a	fixation
91575.229808600037	2750.0	n/a	804	89	2750	255.7701914	stim	stop-signal	238	625860	0.0-13.18-1.18	beast_fmri_test	336	623714,/,624393,/,625074,/,625754,/	t,t,t,t	<img class = center src='/static/experiments/beast_fmri_test/images/P.png'></img>	71,89	2750.0	test	<img class = center src='/static/experiments/beast_fmri_test/images/redP.png'></img>	go	2150.0	2.0	18.0	go	non-target	P	71,Index Finger	89,Middle Finger	550.0	600.0	2200.0	2150.0	1.0	n/a	600.0	1.0	go_stim
94325.229808600037	255.7701914	n/a	804	89	2750	255.7701914	stim	stop-signal	238	625860	0.0-13.18-1.18	beast_fmri_test	336	623714,/,624393,/,625074,/,625754,/	t,t,t,t	<img class = center src='/static/experiments/beast_fmri_test/images/P.png'></img>	71,89	2750.0	test	<img class = center src='/static/experiments/beast_fmri_test/images/redP.png'></img>	go	2150.0	2.0	18.0	go	non-target	P	71,Index Finger	89,Middle Finger	550.0	600.0	2200.0	2150.0	1.0	n/a	600.0	1.0	ITI
95364	500.0	n/a	-1	-1	500	0.0	fixation	poldrack-single-stim	239	626643	0.0-13.19-0.19	beast_fmri_test	336	626433,/	t	<div class = centerbox2><div class = fixation>+</div></div>	none	500.0	test	n/a	n/a	n/a	n/a	n/a	n/a	n/a	n/a	n/a	n/a	n/a	n/a	n/a	n/a	n/a	n/a	n/a	n/a	fixation
94432.393193299999	2750.0	n/a	600	89	2750	932.6068067	stim	stop-signal	240	629394	0.0-13.19-1.19	beast_fmri_test	336	627113,/,627792,/,628472,/,629151,/,629831,/	t,t,t,t,t	<img class = center src='/static/experiments/beast_fmri_test/images/T.png'></img>	71,89	2750.0	test	<img class = center src='/static/experiments/beast_fmri_test/images/redT.png'></img>	go	2150.0	2.0	19.0	go	non-target	T	71,Index Finger	89,Middle Finger	550.0	600.0	2200.0	2150.0	1.0	n/a	600.0	1.0	go_stim
97182.393193299999	932.6068067	n/a	600	89	2750	932.6068067	stim	stop-signal	240	629394	0.0-13.19-1.19	beast_fmri_test	336	627113,/,627792,/,628472,/,629151,/,629831,/	t,t,t,t,t	<img class = center src='/static/experiments/beast_fmri_test/images/T.png'></img>	71,89	2750.0	test	<img class = center src='/static/experiments/beast_fmri_test/images/redT.png'></img>	go	2150.0	2.0	19.0	go	non-target	T	71,Index Finger	89,Middle Finger	550.0	600.0	2200.0	2150.0	1.0	n/a	600.0	1.0	ITI
99579	500.0	n/a	-1	-1	500	0.0	fixation	poldrack-single-stim	241	630858	0.0-13.20-0.20	beast_fmri_test	336	630511,/	t	<div class = centerbox2><div class = fixation>+</div></div>	none	500.0	test	n/a	n/a	n/a	n/a	n/a	n/a	n/a	n/a	n/a	n/a	n/a	n/a	n/a	n/a	n/a	n/a	n/a	n/a	fixation
97895.342458000057	600.0	n/a	-1	-1	2750	1684.657542	stim	stop-signal	242	633609	0.0-13.20-1.20	beast_fmri_test	336	631191,/,631871,/,632550,/,633230,/,633908,/,634588,/,635267,/	t,t,t,t,t,t,t	<img class = center src='/static/experiments/beast_fmri_test/images/V.png'></img>	71,89	2750.0	test	<img class = center src='/static/experiments/beast_fmri_test/images/redV.png'></img>	stop	2150.0	2.0	20.0	stop	non-target	V	71,Index Finger	89,Middle Finger	550.0	600.0	2200.0	2150.0	0.0	1.0	600.0	n/a	go_stim
100045.34245800006	2150.0	n/a	-1	-1	2750	1684.657542	stim	stop-signal	242	633609	0.0-13.20-1.20	beast_fmri_test	336	631191,/,631871,/,632550,/,633230,/,633908,/,634588,/,635267,/	t,t,t,t,t,t,t	<img class = center src='/static/experiments/beast_fmri_test/images/V.png'></img>	71,89	2750.0	test	<img class = center src='/static/experiments/beast_fmri_test/images/redV.png'></img>	stop	2150.0	2.0	20.0	stop	non-target	V	71,Index Finger	89,Middle Finger	550.0	600.0	2200.0	2150.0	0.0	1.0	600.0	n/a	stop_stim
100645.34245800006	1684.657542	n/a	-1	-1	2750	1684.657542	stim	stop-signal	242	633609	0.0-13.20-1.20	beast_fmri_test	336	631191,/,631871,/,632550,/,633230,/,633908,/,634588,/,635267,/	t,t,t,t,t,t,t	<img class = center src='/static/experiments/beast_fmri_test/images/V.png'></img>	71,89	2750.0	test	<img class = center src='/static/experiments/beast_fmri_test/images/redV.png'></img>	stop	2150.0	2.0	20.0	stop	non-target	V	71,Index Finger	89,Middle Finger	550.0	600.0	2200.0	2150.0	0.0	1.0	600.0	n/a	ITI
104543	500.0	n/a	-1	-1	500	0.0	fixation	poldrack-single-stim	243	635822	0.0-13.21-0.21	beast_fmri_test	336	n/a	n/a	<div class = centerbox2><div class = fixation>+</div></div>	none	500.0	test	n/a	n/a	n/a	n/a	n/a	n/a	n/a	n/a	n/a	n/a	n/a	n/a	n/a	n/a	n/a	n/a	n/a	n/a	fixation
104212.86880689999	2750.0	n/a	697	71	2750	330.1311931	stim	stop-signal	244	638572	0.0-13.21-1.21	beast_fmri_test	336	635947,/,636628,/,637307,/,637987,/,638667,/	t,t,t,t,t	<img class = center src='/static/experiments/beast_fmri_test/images/T.png'></img>	71,89	2750.0	test	<img class = center src='/static/experiments/beast_fmri_test/images/redT.png'></img>	go	2200.0	2.0	21.0	go	target	T	71,Index Finger	89,Middle Finger	550.0	650.0	2200.0	2150.0	1.0	n/a	550.0	1.0	go_stim
106962.86880689999	330.1311931	n/a	697	71	2750	330.1311931	stim	stop-signal	244	638572	0.0-13.21-1.21	beast_fmri_test	336	635947,/,636628,/,637307,/,637987,/,638667,/	t,t,t,t,t	<img class = center src='/static/experiments/beast_fmri_test/images/T.png'></img>	71,89	2750.0	test	<img class = center src='/static/experiments/beast_fmri_test/images/redT.png'></img>	go	2200.0	2.0	21.0	go	target	T	71,Index Finger	89,Middle Finger	550.0	650.0	2200.0	2150.0	1.0	n/a	550.0	1.0	ITI
108155	500.0	n/a	-1	-1	500	0.0	fixation	poldrack-single-stim	245	639434	0.0-13.22-0.22	beast_fmri_test	336	639346,/	t	<div class = centerbox2><div class = fixation>+</div></div>	none	500.0	test	n/a	n/a	n/a	n/a	n/a	n/a	n/a	n/a	n/a	n/a	n/a	n/a	n/a	n/a	n/a	n/a	n/a	n/a	fixation
107889.07736170001	2750.0	n/a	1088	89	2750	267.9226383	stim	stop-signal	246	642186	0.0-13.22-1.22	beast_fmri_test	336	640027,/,640705,/,641385,/,642065,/	t,t,t,t	<img class = center src='/static/experiments/beast_fmri_test/images/P.png'></img>	71,89	2750.0	test	<img class = center src='/static/experiments/beast_fmri_test/images/redP.png'></img>	go	2100.0	2.0	22.0	go	non-target	P	71,Index Finger	89,Middle Finger	550.0	650.0	2200.0	2100.0	1.0	n/a	650.0	1.0	go_stim
110639.07736170001	267.9226383	n/a	1088	89	2750	267.9226383	stim	stop-signal	246	642186	0.0-13.22-1.22	beast_fmri_test	336	640027,/,640705,/,641385,/,642065,/	t,t,t,t	<img class = center src='/static/experiments/beast_fmri_test/images/P.png'></img>	71,89	2750.0	test	<img class = center src='/static/experiments/beast_fmri_test/images/redP.png'></img>	go	2100.0	2.0	22.0	go	non-target	P	71,Index Finger	89,Middle Finger	550.0	650.0	2200.0	2100.0	1.0	n/a	650.0	1.0	ITI
111703	500.0	n/a	-1	-1	500	0.0	fixation	poldrack-single-stim	247	642982	0.0-13.23-0.23	beast_fmri_test	336	642745,/	t	<div class = centerbox2><div class = fixation>+</div></div>	none	500.0	test	n/a	n/a	n/a	n/a	n/a	n/a	n/a	n/a	n/a	n/a	n/a	n/a	n/a	n/a	n/a	n/a	n/a	n/a	fixation
110303.69204300002	2750.0	n/a	886	89	2750	1399.307957	stim	stop-signal	248	645732	0.0-13.23-1.23	beast_fmri_test	336	643424,/,644106,/,644783,/,645464,/,646144,/,646824,/	t,t,t,t,t,t	<img class = center src='/static/experiments/beast_fmri_test/images/B.png'></img>	71,89	2750.0	test	<img class = center src='/static/experiments/beast_fmri_test/images/redB.png'></img>	go	2100.0	2.0	23.0	go	non-target	B	71,Index Finger	89,Middle Finger	550.0	650.0	2200.0	2100.0	1.0	n/a	650.0	1.0	go_stim
113053.69204300002	1399.307957	n/a	886	89	2750	1399.307957	stim	stop-signal	248	645732	0.0-13.23-1.23	beast_fmri_test	336	643424,/,644106,/,644783,/,645464,/,646144,/,646824,/	t,t,t,t,t,t	<img class = center src='/static/experiments/beast_fmri_test/images/B.png'></img>	71,89	2750.0	test	<img class = center src='/static/experiments/beast_fmri_test/images/redB.png'></img>	go	2100.0	2.0	23.0	go	non-target	B	71,Index Finger	89,Middle Finger	550.0	650.0	2200.0	2100.0	1.0	n/a	650.0	1.0	ITI
116383	500.0	n/a	-1	-1	500	0.0	fixation	poldrack-single-stim	249	647662	0.0-13.24-0.24	beast_fmri_test	336	647503,/	t	<div class = centerbox2><div class = fixation>+</div></div>	none	500.0	test	n/a	n/a	n/a	n/a	n/a	n/a	n/a	n/a	n/a	n/a	n/a	n/a	n/a	n/a	n/a	n/a	n/a	n/a	fixation
116328.43217349995	650.0	n/a	-1	-1	2750	56.5678265	stim	stop-signal	250	650414	0.0-13.24-1.24	beast_fmri_test	336	648183,/,648862,/,649541,/,650221,/	t,t,t,t	<img class = center src='/static/experiments/beast_fmri_test/images/B.png'></img>	71,89	2750.0	test	<img class = center src='/static/experiments/beast_fmri_test/images/redB.png'></img>	stop	2100.0	2.0	24.0	stop	non-target	B	71,Index Finger	89,Middle Finger	550.0	650.0	2200.0	2100.0	0.0	1.0	650.0	n/a	go_stim
118428.43217349995	2100.0	n/a	-1	-1	2750	56.5678265	stim	stop-signal	250	650414	0.0-13.24-1.24	beast_fmri_test	336	648183,/,648862,/,649541,/,650221,/	t,t,t,t	<img class = center src='/static/experiments/beast_fmri_test/images/B.png'></img>	71,89	2750.0	test	<img class = center src='/static/experiments/beast_fmri_test/images/redB.png'></img>	stop	2100.0	2.0	24.0	stop	non-target	B	71,Index Finger	89,Middle Finger	550.0	650.0	2200.0	2100.0	0.0	1.0	650.0	n/a	stop_stim
119078.43217349995	56.5678265	n/a	-1	-1	2750	56.5678265	stim	stop-signal	250	650414	0.0-13.24-1.24	beast_fmri_test	336	648183,/,648862,/,649541,/,650221,/	t,t,t,t	<img class = center src='/static/experiments/beast_fmri_test/images/B.png'></img>	71,89	2750.0	test	<img class = center src='/static/experiments/beast_fmri_test/images/redB.png'></img>	stop	2100.0	2.0	24.0	stop	non-target	B	71,Index Finger	89,Middle Finger	550.0	650.0	2200.0	2100.0	0.0	1.0	650.0	n/a	ITI
119721	500.0	n/a	-1	-1	500	0.0	fixation	poldrack-single-stim	251	651000	0.0-13.25-0.25	beast_fmri_test	336	650901,/	t	<div class = centerbox2><div class = fixation>+</div></div>	none	500.0	test	n/a	n/a	n/a	n/a	n/a	n/a	n/a	n/a	n/a	n/a	n/a	n/a	n/a	n/a	n/a	n/a	n/a	n/a	fixation
119688.62308418006	2750.0	n/a	1042	89	2750	33.37691582	stim	stop-signal	252	653751	0.0-13.25-1.25	beast_fmri_test	336	651580,/,652260,/,652940,/,653620,/	t,t,t,t	<img class = center src='/static/experiments/beast_fmri_test/images/P.png'></img>	71,89	2750.0	test	<img class = center src='/static/experiments/beast_fmri_test/images/redP.png'></img>	go	2050.0	2.0	25.0	go	non-target	P	71,Index Finger	89,Middle Finger	550.0	700.0	2200.0	2050.0	1.0	n/a	700.0	1.0	go_stim
122438.62308418006	33.37691582	n/a	1042	89	2750	33.37691582	stim	stop-signal	252	653751	0.0-13.25-1.25	beast_fmri_test	336	651580,/,652260,/,652940,/,653620,/	t,t,t,t	<img class = center src='/static/experiments/beast_fmri_test/images/P.png'></img>	71,89	2750.0	test	<img class = center src='/static/experiments/beast_fmri_test/images/redP.png'></img>	go	2050.0	2.0	25.0	go	non-target	P	71,Index Finger	89,Middle Finger	550.0	700.0	2200.0	2050.0	1.0	n/a	700.0	1.0	ITI
123031	500.0	n/a	-1	-1	500	0.0	fixation	poldrack-single-stim	253	654310	0.0-13.26-0.26	beast_fmri_test	336	654300,/	t	<div class = centerbox2><div class = fixation>+</div></div>	none	500.0	test	n/a	n/a	n/a	n/a	n/a	n/a	n/a	n/a	n/a	n/a	n/a	n/a	n/a	n/a	n/a	n/a	n/a	n/a	fixation
122312.895533	2750.0	n/a	875	89	2750	719.104467	stim	stop-signal	254	657061	0.0-13.26-1.26	beast_fmri_test	336	654980,/,655660,/,656339,/,657018,/,657697,/	t,t,t,t,t	<img class = center src='/static/experiments/beast_fmri_test/images/V.png'></img>	71,89	2750.0	test	<img class = center src='/static/experiments/beast_fmri_test/images/redV.png'></img>	go	2050.0	2.0	26.0	go	non-target	V	71,Index Finger	89,Middle Finger	550.0	700.0	2200.0	2050.0	1.0	n/a	700.0	1.0	go_stim
125062.895533	719.104467	n/a	875	89	2750	719.104467	stim	stop-signal	254	657061	0.0-13.26-1.26	beast_fmri_test	336	654980,/,655660,/,656339,/,657018,/,657697,/	t,t,t,t,t	<img class = center src='/static/experiments/beast_fmri_test/images/V.png'></img>	71,89	2750.0	test	<img class = center src='/static/experiments/beast_fmri_test/images/redV.png'></img>	go	2050.0	2.0	26.0	go	non-target	V	71,Index Finger	89,Middle Finger	550.0	700.0	2200.0	2050.0	1.0	n/a	700.0	1.0	ITI
127034	500.0	n/a	-1	-1	500	0.0	fixation	poldrack-single-stim	255	658313	0.0-13.27-0.27	beast_fmri_test	336	n/a	n/a	<div class = centerbox2><div class = fixation>+</div></div>	none	500.0	test	n/a	n/a	n/a	n/a	n/a	n/a	n/a	n/a	n/a	n/a	n/a	n/a	n/a	n/a	n/a	n/a	n/a	n/a	fixation
126712.12845900003	2750.0	n/a	1264	89	2750	324.871541	stim	stop-signal	256	661066	0.0-13.27-1.27	beast_fmri_test	336	658376,/,659058,/,659737,/,660417,/,661096,/	t,t,t,t,t	<img class = center src='/static/experiments/beast_fmri_test/images/D.png'></img>	71,89	2750.0	test	<img class = center src='/static/experiments/beast_fmri_test/images/redD.png'></img>	go	2050.0	2.0	27.0	go	non-target	D	71,Index Finger	89,Middle Finger	550.0	700.0	2200.0	2050.0	1.0	n/a	700.0	1.0	go_stim
129462.12845900003	324.871541	n/a	1264	89	2750	324.871541	stim	stop-signal	256	661066	0.0-13.27-1.27	beast_fmri_test	336	658376,/,659058,/,659737,/,660417,/,661096,/	t,t,t,t,t	<img class = center src='/static/experiments/beast_fmri_test/images/D.png'></img>	71,89	2750.0	test	<img class = center src='/static/experiments/beast_fmri_test/images/redD.png'></img>	go	2050.0	2.0	27.0	go	non-target	D	71,Index Finger	89,Middle Finger	550.0	700.0	2200.0	2050.0	1.0	n/a	700.0	1.0	ITI
130642	500.0	n/a	-1	-1	500	0.0	fixation	poldrack-single-stim	257	661921	0.0-13.28-0.28	beast_fmri_test	336	661777,/	t	<div class = centerbox2><div class = fixation>+</div></div>	none	500.0	test	n/a	n/a	n/a	n/a	n/a	n/a	n/a	n/a	n/a	n/a	n/a	n/a	n/a	n/a	n/a	n/a	n/a	n/a	fixation
129938.281357	700.0	n/a	802	89	2750	705.718643	stim	stop-signal	258	664673	0.0-13.28-1.28	beast_fmri_test	336	662456,/,663135,/,663816,/,664495,/,665175,/	t,t,t,t,t	<img class = center src='/static/experiments/beast_fmri_test/images/D.png'></img>	71,89	2750.0	test	<img class = center src='/static/experiments/beast_fmri_test/images/redD.png'></img>	stop	2050.0	2.0	28.0	stop	non-target	D	71,Index Finger	89,Middle Finger	550.0	700.0	2200.0	2050.0	0.0	0.0	700.0	n/a	go_stim
131988.281357	2050.0	n/a	802	89	2750	705.718643	stim	stop-signal	258	664673	0.0-13.28-1.28	beast_fmri_test	336	662456,/,663135,/,663816,/,664495,/,665175,/	t,t,t,t,t	<img class = center src='/static/experiments/beast_fmri_test/images/D.png'></img>	71,89	2750.0	test	<img class = center src='/static/experiments/beast_fmri_test/images/redD.png'></img>	stop	2050.0	2.0	28.0	stop	non-target	D	71,Index Finger	89,Middle Finger	550.0	700.0	2200.0	2050.0	0.0	0.0	700.0	n/a	stop_stim
132688.281357	705.718643	n/a	802	89	2750	705.718643	stim	stop-signal	258	664673	0.0-13.28-1.28	beast_fmri_test	336	662456,/,663135,/,663816,/,664495,/,665175,/	t,t,t,t,t	<img class = center src='/static/experiments/beast_fmri_test/images/D.png'></img>	71,89	2750.0	test	<img class = center src='/static/experiments/beast_fmri_test/images/redD.png'></img>	stop	2050.0	2.0	28.0	stop	non-target	D	71,Index Finger	89,Middle Finger	550.0	700.0	2200.0	2050.0	0.0	0.0	700.0	n/a	ITI
134631	500.0	n/a	-1	-1	500	0.0	fixation	poldrack-single-stim	259	665910	0.0-13.29-0.29	beast_fmri_test	336	665854,/	t	<div class = centerbox2><div class = fixation>+</div></div>	none	500.0	test	n/a	n/a	n/a	n/a	n/a	n/a	n/a	n/a	n/a	n/a	n/a	n/a	n/a	n/a	n/a	n/a	n/a	n/a	fixation
133758.34879389999	2750.0	n/a	1140	71	2750	874.6512061	stim	stop-signal	260	668662	0.0-13.29-1.29	beast_fmri_test	336	666534,/,667213,/,667892,/,668573,/,669252,/	t,t,t,t,t	<img class = center src='/static/experiments/beast_fmri_test/images/V.png'></img>	71,89	2750.0	test	<img class = center src='/static/experiments/beast_fmri_test/images/redV.png'></img>	go	2100.0	2.0	29.0	go	non-target	V	71,Index Finger	89,Middle Finger	550.0	650.0	2200.0	2100.0	0.0	n/a	650.0	0.0	go_stim
136508.34879389999	874.6512061	n/a	1140	71	2750	874.6512061	stim	stop-signal	260	668662	0.0-13.29-1.29	beast_fmri_test	336	666534,/,667213,/,667892,/,668573,/,669252,/	t,t,t,t,t	<img class = center src='/static/experiments/beast_fmri_test/images/V.png'></img>	71,89	2750.0	test	<img class = center src='/static/experiments/beast_fmri_test/images/redV.png'></img>	go	2100.0	2.0	29.0	go	non-target	V	71,Index Finger	89,Middle Finger	550.0	650.0	2200.0	2100.0	0.0	n/a	650.0	0.0	ITI
138790	500.0	n/a	-1	-1	500	0.0	fixation	poldrack-single-stim	261	670069	0.0-13.30-0.30	beast_fmri_test	336	669932,/	t	<div class = centerbox2><div class = fixation>+</div></div>	none	500.0	test	n/a	n/a	n/a	n/a	n/a	n/a	n/a	n/a	n/a	n/a	n/a	n/a	n/a	n/a	n/a	n/a	n/a	n/a	fixation
137865.68525640003	650.0	n/a	-1	-1	2750	926.3147436	stim	stop-signal	262	672821	0.0-13.30-1.30	beast_fmri_test	336	670612,/,671292,/,671971,/,672650,/,673331,/	t,t,t,t,t	<img class = center src='/static/experiments/beast_fmri_test/images/V.png'></img>	71,89	2750.0	test	<img class = center src='/static/experiments/beast_fmri_test/images/redV.png'></img>	stop	2100.0	2.0	30.0	stop	non-target	V	71,Index Finger	89,Middle Finger	550.0	650.0	2200.0	2100.0	0.0	1.0	650.0	n/a	go_stim
139965.68525640003	2100.0	n/a	-1	-1	2750	926.3147436	stim	stop-signal	262	672821	0.0-13.30-1.30	beast_fmri_test	336	670612,/,671292,/,671971,/,672650,/,673331,/	t,t,t,t,t	<img class = center src='/static/experiments/beast_fmri_test/images/V.png'></img>	71,89	2750.0	test	<img class = center src='/static/experiments/beast_fmri_test/images/redV.png'></img>	stop	2100.0	2.0	30.0	stop	non-target	V	71,Index Finger	89,Middle Finger	550.0	650.0	2200.0	2100.0	0.0	1.0	650.0	n/a	stop_stim
140615.68525640003	926.3147436	n/a	-1	-1	2750	926.3147436	stim	stop-signal	262	672821	0.0-13.30-1.30	beast_fmri_test	336	670612,/,671292,/,671971,/,672650,/,673331,/	t,t,t,t,t	<img class = center src='/static/experiments/beast_fmri_test/images/V.png'></img>	71,89	2750.0	test	<img class = center src='/static/experiments/beast_fmri_test/images/redV.png'></img>	stop	2100.0	2.0	30.0	stop	non-target	V	71,Index Finger	89,Middle Finger	550.0	650.0	2200.0	2100.0	0.0	1.0	650.0	n/a	ITI
142999	500.0	n/a	-1	-1	500	0.0	fixation	poldrack-single-stim	263	674278	0.0-13.31-0.31	beast_fmri_test	336	674011,/	t	<div class = centerbox2><div class = fixation>+</div></div>	none	500.0	test	n/a	n/a	n/a	n/a	n/a	n/a	n/a	n/a	n/a	n/a	n/a	n/a	n/a	n/a	n/a	n/a	n/a	n/a	fixation
141486.11069799995	700.0	n/a	809	89	2750	1513.889302	stim	stop-signal	264	677029	0.0-13.31-1.31	beast_fmri_test	336	674690,/,675369,/,676050,/,676730,/,677410,/,678089,/	t,t,t,t,t,t	<img class = center src='/static/experiments/beast_fmri_test/images/D.png'></img>	71,89	2750.0	test	<img class = center src='/static/experiments/beast_fmri_test/images/redD.png'></img>	stop	2050.0	2.0	31.0	stop	non-target	D	71,Index Finger	89,Middle Finger	550.0	700.0	2200.0	2050.0	0.0	0.0	700.0	n/a	go_stim
143536.11069799995	2050.0	n/a	809	89	2750	1513.889302	stim	stop-signal	264	677029	0.0-13.31-1.31	beast_fmri_test	336	674690,/,675369,/,676050,/,676730,/,677410,/,678089,/	t,t,t,t,t,t	<img class = center src='/static/experiments/beast_fmri_test/images/D.png'></img>	71,89	2750.0	test	<img class = center src='/static/experiments/beast_fmri_test/images/redD.png'></img>	stop	2050.0	2.0	31.0	stop	non-target	D	71,Index Finger	89,Middle Finger	550.0	700.0	2200.0	2050.0	0.0	0.0	700.0	n/a	stop_stim
144236.11069799995	1513.889302	n/a	809	89	2750	1513.889302	stim	stop-signal	264	677029	0.0-13.31-1.31	beast_fmri_test	336	674690,/,675369,/,676050,/,676730,/,677410,/,678089,/	t,t,t,t,t,t	<img class = center src='/static/experiments/beast_fmri_test/images/D.png'></img>	71,89	2750.0	test	<img class = center src='/static/experiments/beast_fmri_test/images/redD.png'></img>	stop	2050.0	2.0	31.0	stop	non-target	D	71,Index Finger	89,Middle Finger	550.0	700.0	2200.0	2050.0	0.0	0.0	700.0	n/a	ITI
147794	500.0	n/a	-1	-1	500	0.0	fixation	poldrack-single-stim	265	679073	0.0-13.32-0.32	beast_fmri_test	336	678769,/	t	<div class = centerbox2><div class = fixation>+</div></div>	none	500.0	test	n/a	n/a	n/a	n/a	n/a	n/a	n/a	n/a	n/a	n/a	n/a	n/a	n/a	n/a	n/a	n/a	n/a	n/a	fixation
147448.97067469999	2750.0	n/a	868	71	2750	346.0293253	stim	stop-signal	266	681824	0.0-13.32-1.32	beast_fmri_test	336	679448,/,680128,/,680807,/,681486,/,682166,/	t,t,t,t,t	<img class = center src='/static/experiments/beast_fmri_test/images/V.png'></img>	71,89	2750.0	test	<img class = center src='/static/experiments/beast_fmri_test/images/redV.png'></img>	go	2200.0	2.0	32.0	go	target	V	71,Index Finger	89,Middle Finger	550.0	650.0	2200.0	2050.0	1.0	n/a	550.0	1.0	go_stim
150198.97067469999	346.0293253	n/a	868	71	2750	346.0293253	stim	stop-signal	266	681824	0.0-13.32-1.32	beast_fmri_test	336	679448,/,680128,/,680807,/,681486,/,682166,/	t,t,t,t,t	<img class = center src='/static/experiments/beast_fmri_test/images/V.png'></img>	71,89	2750.0	test	<img class = center src='/static/experiments/beast_fmri_test/images/redV.png'></img>	go	2200.0	2.0	32.0	go	target	V	71,Index Finger	89,Middle Finger	550.0	650.0	2200.0	2050.0	1.0	n/a	550.0	1.0	ITI
151421	500.0	n/a	-1	-1	500	0.0	fixation	poldrack-single-stim	267	682700	0.0-13.33-0.33	beast_fmri_test	336	n/a	n/a	<div class = centerbox2><div class = fixation>+</div></div>	none	500.0	test	n/a	n/a	n/a	n/a	n/a	n/a	n/a	n/a	n/a	n/a	n/a	n/a	n/a	n/a	n/a	n/a	n/a	n/a	fixation
148986.31592399999	550.0	n/a	-1	-1	2750	2436.684076	stim	stop-signal	268	685452	0.0-13.33-1.33	beast_fmri_test	336	682846,/,683526,/,684206,/,684886,/,685565,/,686244,/,686924,/,687605,/	t,t,t,t,t,t,t,t	<img class = center src='/static/experiments/beast_fmri_test/images/D.png'></img>	71,89	2750.0	test	<img class = center src='/static/experiments/beast_fmri_test/images/redD.png'></img>	stop	2200.0	2.0	33.0	stop	target	D	71,Index Finger	89,Middle Finger	550.0	650.0	2200.0	2050.0	0.0	1.0	550.0	n/a	go_stim
151186.31592399999	2200.0	n/a	-1	-1	2750	2436.684076	stim	stop-signal	268	685452	0.0-13.33-1.33	beast_fmri_test	336	682846,/,683526,/,684206,/,684886,/,685565,/,686244,/,686924,/,687605,/	t,t,t,t,t,t,t,t	<img class = center src='/static/experiments/beast_fmri_test/images/D.png'></img>	71,89	2750.0	test	<img class = center src='/static/experiments/beast_fmri_test/images/redD.png'></img>	stop	2200.0	2.0	33.0	stop	target	D	71,Index Finger	89,Middle Finger	550.0	650.0	2200.0	2050.0	0.0	1.0	550.0	n/a	stop_stim
151736.31592399999	2436.684076	n/a	-1	-1	2750	2436.684076	stim	stop-signal	268	685452	0.0-13.33-1.33	beast_fmri_test	336	682846,/,683526,/,684206,/,684886,/,685565,/,686244,/,686924,/,687605,/	t,t,t,t,t,t,t,t	<img class = center src='/static/experiments/beast_fmri_test/images/D.png'></img>	71,89	2750.0	test	<img class = center src='/static/experiments/beast_fmri_test/images/redD.png'></img>	stop	2200.0	2.0	33.0	stop	target	D	71,Index Finger	89,Middle Finger	550.0	650.0	2200.0	2050.0	0.0	1.0	550.0	n/a	ITI
157139	500.0	n/a	-1	-1	500	0.0	fixation	poldrack-single-stim	269	688418	0.0-13.34-0.34	beast_fmri_test	336	688285,/	t	<div class = centerbox2><div class = fixation>+</div></div>	none	500.0	test	n/a	n/a	n/a	n/a	n/a	n/a	n/a	n/a	n/a	n/a	n/a	n/a	n/a	n/a	n/a	n/a	n/a	n/a	fixation
157135.31767464499	2750.0	n/a	800	89	2750	5.682325355	stim	stop-signal	270	691170	0.0-13.34-1.34	beast_fmri_test	336	688964,/,689644,/,690323,/,691003,/	t,t,t,t	<img class = center src='/static/experiments/beast_fmri_test/images/D.png'></img>	71,89	2750.0	test	<img class = center src='/static/experiments/beast_fmri_test/images/redD.png'></img>	go	2100.0	2.0	34.0	go	non-target	D	71,Index Finger	89,Middle Finger	600.0	650.0	2200.0	2100.0	1.0	n/a	650.0	1.0	go_stim
159885.31767464499	5.682325355	n/a	800	89	2750	5.682325355	stim	stop-signal	270	691170	0.0-13.34-1.34	beast_fmri_test	336	688964,/,689644,/,690323,/,691003,/	t,t,t,t	<img class = center src='/static/experiments/beast_fmri_test/images/D.png'></img>	71,89	2750.0	test	<img class = center src='/static/experiments/beast_fmri_test/images/redD.png'></img>	go	2100.0	2.0	34.0	go	non-target	D	71,Index Finger	89,Middle Finger	600.0	650.0	2200.0	2100.0	1.0	n/a	650.0	1.0	ITI
160424	500.0	n/a	-1	-1	500	0.0	fixation	poldrack-single-stim	271	691703	0.0-13.35-0.35	beast_fmri_test	336	691683,/	t	<div class = centerbox2><div class = fixation>+</div></div>	none	500.0	test	n/a	n/a	n/a	n/a	n/a	n/a	n/a	n/a	n/a	n/a	n/a	n/a	n/a	n/a	n/a	n/a	n/a	n/a	fixation
159416.57327399997	650.0	n/a	-1	-1	2750	1009.426726	stim	stop-signal	272	694455	0.0-13.35-1.35	beast_fmri_test	336	692362,/,693042,/,693721,/,694402,/,695081,/	t,t,t,t,t	<img class = center src='/static/experiments/beast_fmri_test/images/T.png'></img>	71,89	2750.0	test	<img class = center src='/static/experiments/beast_fmri_test/images/redT.png'></img>	stop	2100.0	2.0	35.0	stop	non-target	T	71,Index Finger	89,Middle Finger	600.0	650.0	2200.0	2100.0	0.0	1.0	650.0	n/a	go_stim
161516.57327399997	2100.0	n/a	-1	-1	2750	1009.426726	stim	stop-signal	272	694455	0.0-13.35-1.35	beast_fmri_test	336	692362,/,693042,/,693721,/,694402,/,695081,/	t,t,t,t,t	<img class = center src='/static/experiments/beast_fmri_test/images/T.png'></img>	71,89	2750.0	test	<img class = center src='/static/experiments/beast_fmri_test/images/redT.png'></img>	stop	2100.0	2.0	35.0	stop	non-target	T	71,Index Finger	89,Middle Finger	600.0	650.0	2200.0	2100.0	0.0	1.0	650.0	n/a	stop_stim
162166.57327399997	1009.426726	n/a	-1	-1	2750	1009.426726	stim	stop-signal	272	694455	0.0-13.35-1.35	beast_fmri_test	336	692362,/,693042,/,693721,/,694402,/,695081,/	t,t,t,t,t	<img class = center src='/static/experiments/beast_fmri_test/images/T.png'></img>	71,89	2750.0	test	<img class = center src='/static/experiments/beast_fmri_test/images/redT.png'></img>	stop	2100.0	2.0	35.0	stop	non-target	T	71,Index Finger	89,Middle Finger	600.0	650.0	2200.0	2100.0	0.0	1.0	650.0	n/a	ITI
164719	500.0	n/a	-1	-1	500	0.0	fixation	poldrack-single-stim	273	695998	0.0-13.36-0.36	beast_fmri_test	336	695760,/	t	<div class = centerbox2><div class = fixation>+</div></div>	none	500.0	test	n/a	n/a	n/a	n/a	n/a	n/a	n/a	n/a	n/a	n/a	n/a	n/a	n/a	n/a	n/a	n/a	n/a	n/a	fixation
163237.01535600005	2750.0	n/a	815	89	2750	1484.984644	stim	stop-signal	274	698751	0.0-13.36-1.36	beast_fmri_test	336	696441,/,697118,/,697800,/,698479,/,699158,/,699838,/	t,t,t,t,t,t	<img class = center src='/static/experiments/beast_fmri_test/images/T.png'></img>	71,89	2750.0	test	<img class = center src='/static/experiments/beast_fmri_test/images/redT.png'></img>	go	2050.0	2.0	36.0	go	non-target	T	71,Index Finger	89,Middle Finger	600.0	700.0	2200.0	2050.0	1.0	n/a	700.0	1.0	go_stim
165987.01535600005	1484.984644	n/a	815	89	2750	1484.984644	stim	stop-signal	274	698751	0.0-13.36-1.36	beast_fmri_test	336	696441,/,697118,/,697800,/,698479,/,699158,/,699838,/	t,t,t,t,t,t	<img class = center src='/static/experiments/beast_fmri_test/images/T.png'></img>	71,89	2750.0	test	<img class = center src='/static/experiments/beast_fmri_test/images/redT.png'></img>	go	2050.0	2.0	36.0	go	non-target	T	71,Index Finger	89,Middle Finger	600.0	700.0	2200.0	2050.0	1.0	n/a	700.0	1.0	ITI
169491	500.0	n/a	-1	-1	500	0.0	fixation	poldrack-single-stim	275	700770	0.0-13.37-0.37	beast_fmri_test	336	700517,/	t	<div class = centerbox2><div class = fixation>+</div></div>	none	500.0	test	n/a	n/a	n/a	n/a	n/a	n/a	n/a	n/a	n/a	n/a	n/a	n/a	n/a	n/a	n/a	n/a	n/a	n/a	fixation
165365.55754199997	2750.0	n/a	731	89	2750	4127.442458	stim	stop-signal	276	703522	0.0-13.37-1.37	beast_fmri_test	336	701198,/,701878,/,702556,/,703238,/,703917,/,704595,/,705276,/,705957,/,706636,/,707316,/	t,t,t,t,t,t,t,t,t,t	<img class = center src='/static/experiments/beast_fmri_test/images/B.png'></img>	71,89	2750.0	test	<img class = center src='/static/experiments/beast_fmri_test/images/redB.png'></img>	go	2050.0	2.0	37.0	go	non-target	B	71,Index Finger	89,Middle Finger	600.0	700.0	2200.0	2050.0	1.0	n/a	700.0	1.0	go_stim
168115.55754199997	4127.442458	n/a	731	89	2750	4127.442458	stim	stop-signal	276	703522	0.0-13.37-1.37	beast_fmri_test	336	701198,/,701878,/,702556,/,703238,/,703917,/,704595,/,705276,/,705957,/,706636,/,707316,/	t,t,t,t,t,t,t,t,t,t	<img class = center src='/static/experiments/beast_fmri_test/images/B.png'></img>	71,89	2750.0	test	<img class = center src='/static/experiments/beast_fmri_test/images/redB.png'></img>	go	2050.0	2.0	37.0	go	non-target	B	71,Index Finger	89,Middle Finger	600.0	700.0	2200.0	2050.0	1.0	n/a	700.0	1.0	ITI
176906	500.0	n/a	-1	-1	500	0.0	fixation	poldrack-single-stim	277	708185	0.0-13.38-0.38	beast_fmri_test	336	707996,/	t	<div class = centerbox2><div class = fixation>+</div></div>	none	500.0	test	n/a	n/a	n/a	n/a	n/a	n/a	n/a	n/a	n/a	n/a	n/a	n/a	n/a	n/a	n/a	n/a	n/a	n/a	fixation
176285.39261720004	2750.0	n/a	713	71	2750	621.6073828	stim	stop-signal	278	710936	0.0-13.38-1.38	beast_fmri_test	336	708675,/,709354,/,710034,/,710714,/,711394,/	t,t,t,t,t	<img class = center src='/static/experiments/beast_fmri_test/images/T.png'></img>	71,89	2750.0	test	<img class = center src='/static/experiments/beast_fmri_test/images/redT.png'></img>	go	2150.0	2.0	38.0	go	target	T	71,Index Finger	89,Middle Finger	600.0	700.0	2150.0	2050.0	1.0	n/a	600.0	1.0	go_stim
179035.39261720004	621.6073828	n/a	713	71	2750	621.6073828	stim	stop-signal	278	710936	0.0-13.38-1.38	beast_fmri_test	336	708675,/,709354,/,710034,/,710714,/,711394,/	t,t,t,t,t	<img class = center src='/static/experiments/beast_fmri_test/images/T.png'></img>	71,89	2750.0	test	<img class = center src='/static/experiments/beast_fmri_test/images/redT.png'></img>	go	2150.0	2.0	38.0	go	target	T	71,Index Finger	89,Middle Finger	600.0	700.0	2150.0	2050.0	1.0	n/a	600.0	1.0	ITI
180807	500.0	n/a	-1	-1	500	0.0	fixation	poldrack-single-stim	279	712086	0.0-13.39-0.39	beast_fmri_test	336	712074,/	t	<div class = centerbox2><div class = fixation>+</div></div>	none	500.0	test	n/a	n/a	n/a	n/a	n/a	n/a	n/a	n/a	n/a	n/a	n/a	n/a	n/a	n/a	n/a	n/a	n/a	n/a	fixation
179510.93973900005	2750.0	n/a	1033	89	2750	1298.060261	stim	stop-signal	280	714838	0.0-13.39-1.39	beast_fmri_test	336	712753,/,713432,/,714111,/,714791,/,715472,/	t,t,t,t,t	<img class = center src='/static/experiments/beast_fmri_test/images/T.png'></img>	71,89	2750.0	test	<img class = center src='/static/experiments/beast_fmri_test/images/redT.png'></img>	go	2050.0	2.0	39.0	go	non-target	T	71,Index Finger	89,Middle Finger	600.0	700.0	2150.0	2050.0	1.0	n/a	700.0	1.0	go_stim
182260.93973900005	1298.060261	n/a	1033	89	2750	1298.060261	stim	stop-signal	280	714838	0.0-13.39-1.39	beast_fmri_test	336	712753,/,713432,/,714111,/,714791,/,715472,/	t,t,t,t,t	<img class = center src='/static/experiments/beast_fmri_test/images/T.png'></img>	71,89	2750.0	test	<img class = center src='/static/experiments/beast_fmri_test/images/redT.png'></img>	go	2050.0	2.0	39.0	go	non-target	T	71,Index Finger	89,Middle Finger	600.0	700.0	2150.0	2050.0	1.0	n/a	700.0	1.0	ITI
185389	500.0	n/a	-1	-1	500	0.0	fixation	poldrack-single-stim	281	716668	0.0-13.40-0.40	beast_fmri_test	336	716167,/	t	<div class = centerbox2><div class = fixation>+</div></div>	none	500.0	test	n/a	n/a	n/a	n/a	n/a	n/a	n/a	n/a	n/a	n/a	n/a	n/a	n/a	n/a	n/a	n/a	n/a	n/a	fixation
185358.49096406996	700.0	n/a	868	89	2750	32.50903593	stim	stop-signal	282	719420	0.0-13.40-1.40	beast_fmri_test	336	716830,/,717511,/,718190,/,718870,/	t,t,t,t	<img class = center src='/static/experiments/beast_fmri_test/images/V.png'></img>	71,89	2750.0	test	<img class = center src='/static/experiments/beast_fmri_test/images/redV.png'></img>	stop	2050.0	2.0	40.0	stop	non-target	V	71,Index Finger	89,Middle Finger	600.0	700.0	2150.0	2050.0	0.0	0.0	700.0	n/a	go_stim
187408.49096406996	2050.0	n/a	868	89	2750	32.50903593	stim	stop-signal	282	719420	0.0-13.40-1.40	beast_fmri_test	336	716830,/,717511,/,718190,/,718870,/	t,t,t,t	<img class = center src='/static/experiments/beast_fmri_test/images/V.png'></img>	71,89	2750.0	test	<img class = center src='/static/experiments/beast_fmri_test/images/redV.png'></img>	stop	2050.0	2.0	40.0	stop	non-target	V	71,Index Finger	89,Middle Finger	600.0	700.0	2150.0	2050.0	0.0	0.0	700.0	n/a	stop_stim
188108.49096406996	32.50903593	n/a	868	89	2750	32.50903593	stim	stop-signal	282	719420	0.0-13.40-1.40	beast_fmri_test	336	716830,/,717511,/,718190,/,718870,/	t,t,t,t	<img class = center src='/static/experiments/beast_fmri_test/images/V.png'></img>	71,89	2750.0	test	<img class = center src='/static/experiments/beast_fmri_test/images/redV.png'></img>	stop	2050.0	2.0	40.0	stop	non-target	V	71,Index Finger	89,Middle Finger	600.0	700.0	2150.0	2050.0	0.0	0.0	700.0	n/a	ITI
188703	500.0	n/a	-1	-1	500	0.0	fixation	poldrack-single-stim	283	719982	0.0-13.41-0.41	beast_fmri_test	336	719548,/	t	<div class = centerbox2><div class = fixation>+</div></div>	none	500.0	test	n/a	n/a	n/a	n/a	n/a	n/a	n/a	n/a	n/a	n/a	n/a	n/a	n/a	n/a	n/a	n/a	n/a	n/a	fixation
186975.129663	2750.0	n/a	1033	71	2750	1728.870337	stim	stop-signal	284	722733	0.0-13.41-1.41	beast_fmri_test	336	720229,/,720909,/,721589,/,722268,/,722948,/,723627,/,724307,/	t,t,t,t,t,t,t	<img class = center src='/static/experiments/beast_fmri_test/images/T.png'></img>	71,89	2750.0	test	<img class = center src='/static/experiments/beast_fmri_test/images/redT.png'></img>	go	2150.0	2.0	41.0	go	target	T	71,Index Finger	89,Middle Finger	600.0	650.0	2150.0	2050.0	1.0	n/a	600.0	1.0	go_stim
189725.129663	1728.870337	n/a	1033	71	2750	1728.870337	stim	stop-signal	284	722733	0.0-13.41-1.41	beast_fmri_test	336	720229,/,720909,/,721589,/,722268,/,722948,/,723627,/,724307,/	t,t,t,t,t,t,t	<img class = center src='/static/experiments/beast_fmri_test/images/T.png'></img>	71,89	2750.0	test	<img class = center src='/static/experiments/beast_fmri_test/images/redT.png'></img>	go	2150.0	2.0	41.0	go	target	T	71,Index Finger	89,Middle Finger	600.0	650.0	2150.0	2050.0	1.0	n/a	600.0	1.0	ITI
193716	500.0	n/a	-1	-1	500	0.0	fixation	poldrack-single-stim	285	724995	0.0-13.42-0.42	beast_fmri_test	336	724987,/	t	<div class = centerbox2><div class = fixation>+</div></div>	none	500.0	test	n/a	n/a	n/a	n/a	n/a	n/a	n/a	n/a	n/a	n/a	n/a	n/a	n/a	n/a	n/a	n/a	n/a	n/a	fixation
192895.19855059998	650.0	n/a	872	89	2750	823.8014494	stim	stop-signal	286	727748	0.0-13.42-1.42	beast_fmri_test	336	725666,/,726346,/,727027,/,727706,/,728385,/	t,t,t,t,t	<img class = center src='/static/experiments/beast_fmri_test/images/B.png'></img>	71,89	2750.0	test	<img class = center src='/static/experiments/beast_fmri_test/images/redB.png'></img>	stop	2100.0	2.0	42.0	stop	non-target	B	71,Index Finger	89,Middle Finger	600.0	650.0	2150.0	2100.0	0.0	0.0	650.0	n/a	go_stim
194995.19855059998	2100.0	n/a	872	89	2750	823.8014494	stim	stop-signal	286	727748	0.0-13.42-1.42	beast_fmri_test	336	725666,/,726346,/,727027,/,727706,/,728385,/	t,t,t,t,t	<img class = center src='/static/experiments/beast_fmri_test/images/B.png'></img>	71,89	2750.0	test	<img class = center src='/static/experiments/beast_fmri_test/images/redB.png'></img>	stop	2100.0	2.0	42.0	stop	non-target	B	71,Index Finger	89,Middle Finger	600.0	650.0	2150.0	2100.0	0.0	0.0	650.0	n/a	stop_stim
195645.19855059998	823.8014494	n/a	872	89	2750	823.8014494	stim	stop-signal	286	727748	0.0-13.42-1.42	beast_fmri_test	336	725666,/,726346,/,727027,/,727706,/,728385,/	t,t,t,t,t	<img class = center src='/static/experiments/beast_fmri_test/images/B.png'></img>	71,89	2750.0	test	<img class = center src='/static/experiments/beast_fmri_test/images/redB.png'></img>	stop	2100.0	2.0	42.0	stop	non-target	B	71,Index Finger	89,Middle Finger	600.0	650.0	2150.0	2100.0	0.0	0.0	650.0	n/a	ITI
197826	500.0	n/a	-1	-1	500	0.0	fixation	poldrack-single-stim	287	729105	0.0-13.43-0.43	beast_fmri_test	336	729065,/	t	<div class = centerbox2><div class = fixation>+</div></div>	none	500.0	test	n/a	n/a	n/a	n/a	n/a	n/a	n/a	n/a	n/a	n/a	n/a	n/a	n/a	n/a	n/a	n/a	n/a	n/a	fixation
197561.29799370002	2750.0	n/a	673	89	2750	266.7020063	stim	stop-signal	288	731857	0.0-13.43-1.43	beast_fmri_test	336	729745,/,730423,/,731103,/,731784,/	t,t,t,t	<img class = center src='/static/experiments/beast_fmri_test/images/P.png'></img>	71,89	2750.0	test	<img class = center src='/static/experiments/beast_fmri_test/images/redP.png'></img>	go	2150.0	2.0	43.0	go	non-target	P	71,Index Finger	89,Middle Finger	600.0	600.0	2150.0	2150.0	1.0	n/a	600.0	1.0	go_stim
200311.29799370002	266.7020063	n/a	673	89	2750	266.7020063	stim	stop-signal	288	731857	0.0-13.43-1.43	beast_fmri_test	336	729745,/,730423,/,731103,/,731784,/	t,t,t,t	<img class = center src='/static/experiments/beast_fmri_test/images/P.png'></img>	71,89	2750.0	test	<img class = center src='/static/experiments/beast_fmri_test/images/redP.png'></img>	go	2150.0	2.0	43.0	go	non-target	P	71,Index Finger	89,Middle Finger	600.0	600.0	2150.0	2150.0	1.0	n/a	600.0	1.0	ITI
201376	500.0	n/a	-1	-1	500	0.0	fixation	poldrack-single-stim	289	732655	0.0-13.44-0.44	beast_fmri_test	336	732463,/	t	<div class = centerbox2><div class = fixation>+</div></div>	none	500.0	test	n/a	n/a	n/a	n/a	n/a	n/a	n/a	n/a	n/a	n/a	n/a	n/a	n/a	n/a	n/a	n/a	n/a	n/a	fixation
200382.08636049996	2750.0	n/a	740	71	2750	994.9136395	stim	stop-signal	290	735406	0.0-13.44-1.44	beast_fmri_test	336	733144,/,733824,/,734503,/,735183,/,735863,/	t,t,t,t,t	<img class = center src='/static/experiments/beast_fmri_test/images/B.png'></img>	71,89	2750.0	test	<img class = center src='/static/experiments/beast_fmri_test/images/redB.png'></img>	go	2150.0	2.0	44.0	go	target	B	71,Index Finger	89,Middle Finger	600.0	600.0	2150.0	2150.0	1.0	n/a	600.0	1.0	go_stim
203132.08636049996	994.9136395	n/a	740	71	2750	994.9136395	stim	stop-signal	290	735406	0.0-13.44-1.44	beast_fmri_test	336	733144,/,733824,/,734503,/,735183,/,735863,/	t,t,t,t,t	<img class = center src='/static/experiments/beast_fmri_test/images/B.png'></img>	71,89	2750.0	test	<img class = center src='/static/experiments/beast_fmri_test/images/redB.png'></img>	go	2150.0	2.0	44.0	go	target	B	71,Index Finger	89,Middle Finger	600.0	600.0	2150.0	2150.0	1.0	n/a	600.0	1.0	ITI
205655	500.0	n/a	-1	-1	500	0.0	fixation	poldrack-single-stim	291	736934	0.0-13.45-0.45	beast_fmri_test	336	736542,/	t	<div class = centerbox2><div class = fixation>+</div></div>	none	500.0	test	n/a	n/a	n/a	n/a	n/a	n/a	n/a	n/a	n/a	n/a	n/a	n/a	n/a	n/a	n/a	n/a	n/a	n/a	fixation
205458.55567150004	600.0	n/a	-1	-1	2750	197.4443285	stim	stop-signal	292	739685	0.0-13.45-1.45	beast_fmri_test	336	737222,/,737901,/,738582,/,739261,/	t,t,t,t	<img class = center src='/static/experiments/beast_fmri_test/images/P.png'></img>	71,89	2750.0	test	<img class = center src='/static/experiments/beast_fmri_test/images/redP.png'></img>	stop	2150.0	2.0	45.0	stop	target	P	71,Index Finger	89,Middle Finger	600.0	600.0	2150.0	2150.0	0.0	1.0	600.0	n/a	go_stim
207608.55567150004	2150.0	n/a	-1	-1	2750	197.4443285	stim	stop-signal	292	739685	0.0-13.45-1.45	beast_fmri_test	336	737222,/,737901,/,738582,/,739261,/	t,t,t,t	<img class = center src='/static/experiments/beast_fmri_test/images/P.png'></img>	71,89	2750.0	test	<img class = center src='/static/experiments/beast_fmri_test/images/redP.png'></img>	stop	2150.0	2.0	45.0	stop	target	P	71,Index Finger	89,Middle Finger	600.0	600.0	2150.0	2150.0	0.0	1.0	600.0	n/a	stop_stim
208208.55567150004	197.4443285	n/a	-1	-1	2750	197.4443285	stim	stop-signal	292	739685	0.0-13.45-1.45	beast_fmri_test	336	737222,/,737901,/,738582,/,739261,/	t,t,t,t	<img class = center src='/static/experiments/beast_fmri_test/images/P.png'></img>	71,89	2750.0	test	<img class = center src='/static/experiments/beast_fmri_test/images/redP.png'></img>	stop	2150.0	2.0	45.0	stop	target	P	71,Index Finger	89,Middle Finger	600.0	600.0	2150.0	2150.0	0.0	1.0	600.0	n/a	ITI
209137	500.0	n/a	-1	-1	500	0.0	fixation	poldrack-single-stim	293	740416	0.0-13.46-0.46	beast_fmri_test	336	739939,/	t	<div class = centerbox2><div class = fixation>+</div></div>	none	500.0	test	n/a	n/a	n/a	n/a	n/a	n/a	n/a	n/a	n/a	n/a	n/a	n/a	n/a	n/a	n/a	n/a	n/a	n/a	fixation
208258.34649320005	2750.0	n/a	808	71	2750	879.6535068	stim	stop-signal	294	743167	0.0-13.46-1.46	beast_fmri_test	336	740620,/,741300,/,741979,/,742659,/,743339,/,744019,/	t,t,t,t,t,t	<img class = center src='/static/experiments/beast_fmri_test/images/B.png'></img>	71,89	2750.0	test	<img class = center src='/static/experiments/beast_fmri_test/images/redB.png'></img>	go	2100.0	2.0	46.0	go	target	B	71,Index Finger	89,Middle Finger	650.0	600.0	2100.0	2150.0	1.0	n/a	650.0	1.0	go_stim
211008.34649320005	879.6535068	n/a	808	71	2750	879.6535068	stim	stop-signal	294	743167	0.0-13.46-1.46	beast_fmri_test	336	740620,/,741300,/,741979,/,742659,/,743339,/,744019,/	t,t,t,t,t,t	<img class = center src='/static/experiments/beast_fmri_test/images/B.png'></img>	71,89	2750.0	test	<img class = center src='/static/experiments/beast_fmri_test/images/redB.png'></img>	go	2100.0	2.0	46.0	go	target	B	71,Index Finger	89,Middle Finger	650.0	600.0	2100.0	2150.0	1.0	n/a	650.0	1.0	ITI
227793	15000.0	n/a	-1	-1	15000	0.0	practice-no-stop-feedback	poldrack-single-stim	295	759072	0.0-14.0	beast_fmri_test	336	744699,/,745378,/,746057,/,746737,/,747415,/,748097,/,748775,/,749455,/,750135,/,750815,/,751494,/,752174,/,752856,/,753534,/,754214,/,754893,/,755573,/,756252,/,756932,/,757612,/,758290,/,758972,/	t,t,t,t,t,t,t,t,t,t,t,t,t,t,t,t,t,t,t,t,t,t	"<div class = ""centerbox""><p class = ""block-text"">Your delay is 3 trials.</p><p class = block-text>Please wait for the scanner to start the block</p></div>"	77	15000.0	n/a	n/a	n/a	n/a	n/a	n/a	n/a	n/a	n/a	n/a	n/a	n/a	n/a	n/a	n/a	n/a	n/a	n/a	n/a	practice-no-stop-feedback
228296	500.0	n/a	-1	-1	500	0.0	fixation	poldrack-single-stim	296	759575	0.0-15.0-0.0	beast_fmri_test	336	n/a	n/a	<div class = centerbox2><div class = fixation>+</div></div>	none	500.0	test	n/a	n/a	n/a	n/a	n/a	n/a	n/a	n/a	n/a	n/a	n/a	n/a	n/a	n/a	n/a	n/a	n/a	n/a	fixation
224009.581076	2750.0	n/a	937	89	2750	4287.418924	stim	stop-signal	297	762326	0.0-15.0-1.0	beast_fmri_test	336	759651,/,760331,/,761009,/,761690,/,762370,/,763049,/,763729,/,764408,/,765088,/,765768,/,766447,/	t,t,t,t,t,t,t,t,t,t,t	<img class = center src='/static/experiments/beast_fmri_test/images/T.png'></img>	71,89	2750.0	test	<img class = center src='/static/experiments/beast_fmri_test/images/redT.png'></img>	go	-1.0	3.0	0.0	go	temp-non-target	T	71,Index Finger	89,Middle Finger	650.0	600.0	2100.0	2150.0	0.0	n/a	n/a	n/a	go_stim
226759.581076	4287.418924	n/a	937	89	2750	4287.418924	stim	stop-signal	297	762326	0.0-15.0-1.0	beast_fmri_test	336	759651,/,760331,/,761009,/,761690,/,762370,/,763049,/,763729,/,764408,/,765088,/,765768,/,766447,/	t,t,t,t,t,t,t,t,t,t,t	<img class = center src='/static/experiments/beast_fmri_test/images/T.png'></img>	71,89	2750.0	test	<img class = center src='/static/experiments/beast_fmri_test/images/redT.png'></img>	go	-1.0	3.0	0.0	go	temp-non-target	T	71,Index Finger	89,Middle Finger	650.0	600.0	2100.0	2150.0	0.0	n/a	n/a	n/a	ITI
235867	500.0	n/a	-1	-1	500	0.0	fixation	poldrack-single-stim	298	767146	0.0-15.1-0.1	beast_fmri_test	336	767128,/	t	<div class = centerbox2><div class = fixation>+</div></div>	none	500.0	test	n/a	n/a	n/a	n/a	n/a	n/a	n/a	n/a	n/a	n/a	n/a	n/a	n/a	n/a	n/a	n/a	n/a	n/a	fixation
230869.0	2750.0	n/a	759	89	2750	5000.0	stim	stop-signal	299	769898	0.0-15.1-1.1	beast_fmri_test	336	767808,/,768487,/,769166,/,769846,/,770526,/,771206,/,771886,/,772565,/,773243,/,773925,/,774604,/	t,t,t,t,t,t,t,t,t,t,t	<img class = center src='/static/experiments/beast_fmri_test/images/T.png'></img>	71,89	2750.0	test	<img class = center src='/static/experiments/beast_fmri_test/images/redT.png'></img>	go	-1.0	3.0	1.0	go	temp-non-target	T	71,Index Finger	89,Middle Finger	650.0	600.0	2100.0	2150.0	0.0	n/a	n/a	n/a	go_stim
233619.0	5000.0	n/a	759	89	2750	5000.0	stim	stop-signal	299	769898	0.0-15.1-1.1	beast_fmri_test	336	767808,/,768487,/,769166,/,769846,/,770526,/,771206,/,771886,/,772565,/,773243,/,773925,/,774604,/	t,t,t,t,t,t,t,t,t,t,t	<img class = center src='/static/experiments/beast_fmri_test/images/T.png'></img>	71,89	2750.0	test	<img class = center src='/static/experiments/beast_fmri_test/images/redT.png'></img>	go	-1.0	3.0	1.0	go	temp-non-target	T	71,Index Finger	89,Middle Finger	650.0	600.0	2100.0	2150.0	0.0	n/a	n/a	n/a	ITI
244149	500.0	n/a	-1	-1	500	0.0	fixation	poldrack-single-stim	300	775428	0.0-15.2-0.2	beast_fmri_test	336	775284,/	t	<div class = centerbox2><div class = fixation>+</div></div>	none	500.0	test	n/a	n/a	n/a	n/a	n/a	n/a	n/a	n/a	n/a	n/a	n/a	n/a	n/a	n/a	n/a	n/a	n/a	n/a	fixation
243699.60975399998	2750.0	n/a	688	89	2750	451.390246	stim	stop-signal	301	778180	0.0-15.2-1.2	beast_fmri_test	336	775964,/,776644,/,777323,/,778003,/	t,t,t,t	<img class = center src='/static/experiments/beast_fmri_test/images/P.png'></img>	71,89	2750.0	test	<img class = center src='/static/experiments/beast_fmri_test/images/redP.png'></img>	go	-1.0	3.0	2.0	go	temp-non-target	P	71,Index Finger	89,Middle Finger	650.0	600.0	2100.0	2150.0	0.0	n/a	n/a	n/a	go_stim
246449.60975399998	451.390246	n/a	688	89	2750	451.390246	stim	stop-signal	301	778180	0.0-15.2-1.2	beast_fmri_test	336	775964,/,776644,/,777323,/,778003,/	t,t,t,t	<img class = center src='/static/experiments/beast_fmri_test/images/P.png'></img>	71,89	2750.0	test	<img class = center src='/static/experiments/beast_fmri_test/images/redP.png'></img>	go	-1.0	3.0	2.0	go	temp-non-target	P	71,Index Finger	89,Middle Finger	650.0	600.0	2100.0	2150.0	0.0	n/a	n/a	n/a	ITI
247887	500.0	n/a	-1	-1	500	0.0	fixation	poldrack-single-stim	302	779166	0.0-15.3-0.3	beast_fmri_test	336	778682,/	t	<div class = centerbox2><div class = fixation>+</div></div>	none	500.0	test	n/a	n/a	n/a	n/a	n/a	n/a	n/a	n/a	n/a	n/a	n/a	n/a	n/a	n/a	n/a	n/a	n/a	n/a	fixation
247399.78935209999	2750.0	n/a	675	89	2750	490.2106479	stim	stop-signal	303	781919	0.0-15.3-1.3	beast_fmri_test	336	779362,/,780040,/,780721,/,781399,/,782080,/	t,t,t,t,t	<img class = center src='/static/experiments/beast_fmri_test/images/V.png'></img>	71,89	2750.0	test	<img class = center src='/static/experiments/beast_fmri_test/images/redV.png'></img>	go	2150.0	3.0	3.0	go	non-target	V	71,Index Finger	89,Middle Finger	650.0	600.0	2100.0	2150.0	1.0	n/a	600.0	1.0	go_stim
250149.78935209999	490.2106479	n/a	675	89	2750	490.2106479	stim	stop-signal	303	781919	0.0-15.3-1.3	beast_fmri_test	336	779362,/,780040,/,780721,/,781399,/,782080,/	t,t,t,t,t	<img class = center src='/static/experiments/beast_fmri_test/images/V.png'></img>	71,89	2750.0	test	<img class = center src='/static/experiments/beast_fmri_test/images/redV.png'></img>	go	2150.0	3.0	3.0	go	non-target	V	71,Index Finger	89,Middle Finger	650.0	600.0	2100.0	2150.0	1.0	n/a	600.0	1.0	ITI
251663	500.0	n/a	-1	-1	500	0.0	fixation	poldrack-single-stim	304	782942	0.0-15.4-0.4	beast_fmri_test	336	782761,/	t	<div class = centerbox2><div class = fixation>+</div></div>	none	500.0	test	n/a	n/a	n/a	n/a	n/a	n/a	n/a	n/a	n/a	n/a	n/a	n/a	n/a	n/a	n/a	n/a	n/a	n/a	fixation
250407.91955999995	2750.0	n/a	1274	71	2750	1256.08044	stim	stop-signal	305	785693	0.0-15.4-1.4	beast_fmri_test	336	783439,/,784120,/,784799,/,785478,/,786158,/,786838,/	t,t,t,t,t,t	<img class = center src='/static/experiments/beast_fmri_test/images/T.png'></img>	71,89	2750.0	test	<img class = center src='/static/experiments/beast_fmri_test/images/redT.png'></img>	go	2100.0	3.0	4.0	go	target	T	71,Index Finger	89,Middle Finger	650.0	600.0	2100.0	2150.0	1.0	n/a	650.0	1.0	go_stim
253157.91955999995	1256.08044	n/a	1274	71	2750	1256.08044	stim	stop-signal	305	785693	0.0-15.4-1.4	beast_fmri_test	336	783439,/,784120,/,784799,/,785478,/,786158,/,786838,/	t,t,t,t,t,t	<img class = center src='/static/experiments/beast_fmri_test/images/T.png'></img>	71,89	2750.0	test	<img class = center src='/static/experiments/beast_fmri_test/images/redT.png'></img>	go	2100.0	3.0	4.0	go	target	T	71,Index Finger	89,Middle Finger	650.0	600.0	2100.0	2150.0	1.0	n/a	650.0	1.0	ITI
256208	500.0	n/a	-1	-1	500	0.0	fixation	poldrack-single-stim	306	787487	0.0-15.5-0.5	beast_fmri_test	336	n/a	n/a	<div class = centerbox2><div class = fixation>+</div></div>	none	500.0	test	n/a	n/a	n/a	n/a	n/a	n/a	n/a	n/a	n/a	n/a	n/a	n/a	n/a	n/a	n/a	n/a	n/a	n/a	fixation
255248.45601179998	2750.0	n/a	1066	89	2750	960.5439882	stim	stop-signal	307	790238	0.0-15.5-1.5	beast_fmri_test	336	787517,/,788197,/,788877,/,789557,/,790236,/,790917,/	t,t,t,t,t,t	<img class = center src='/static/experiments/beast_fmri_test/images/P.png'></img>	71,89	2750.0	test	<img class = center src='/static/experiments/beast_fmri_test/images/redP.png'></img>	go	2100.0	3.0	5.0	go	target	P	71,Index Finger	89,Middle Finger	650.0	600.0	2100.0	2150.0	0.0	n/a	650.0	0.0	go_stim
257998.45601179998	960.5439882	n/a	1066	89	2750	960.5439882	stim	stop-signal	307	790238	0.0-15.5-1.5	beast_fmri_test	336	787517,/,788197,/,788877,/,789557,/,790236,/,790917,/	t,t,t,t,t,t	<img class = center src='/static/experiments/beast_fmri_test/images/P.png'></img>	71,89	2750.0	test	<img class = center src='/static/experiments/beast_fmri_test/images/redP.png'></img>	go	2100.0	3.0	5.0	go	target	P	71,Index Finger	89,Middle Finger	650.0	600.0	2100.0	2150.0	0.0	n/a	650.0	0.0	ITI
260455	500.0	n/a	-1	-1	500	0.0	fixation	poldrack-single-stim	308	791734	0.0-15.6-0.6	beast_fmri_test	336	791597,/	t	<div class = centerbox2><div class = fixation>+</div></div>	none	500.0	test	n/a	n/a	n/a	n/a	n/a	n/a	n/a	n/a	n/a	n/a	n/a	n/a	n/a	n/a	n/a	n/a	n/a	n/a	fixation
259791.3945388	600.0	n/a	895	89	2750	665.6054612	stim	stop-signal	309	794486	0.0-15.6-1.6	beast_fmri_test	336	792276,/,792957,/,793634,/,794315,/,794994,/	t,t,t,t,t	<img class = center src='/static/experiments/beast_fmri_test/images/T.png'></img>	71,89	2750.0	test	<img class = center src='/static/experiments/beast_fmri_test/images/redT.png'></img>	stop	2150.0	3.0	6.0	stop	non-target	T	71,Index Finger	89,Middle Finger	650.0	600.0	2100.0	2150.0	0.0	0.0	600.0	n/a	go_stim
261941.3945388	2150.0	n/a	895	89	2750	665.6054612	stim	stop-signal	309	794486	0.0-15.6-1.6	beast_fmri_test	336	792276,/,792957,/,793634,/,794315,/,794994,/	t,t,t,t,t	<img class = center src='/static/experiments/beast_fmri_test/images/T.png'></img>	71,89	2750.0	test	<img class = center src='/static/experiments/beast_fmri_test/images/redT.png'></img>	stop	2150.0	3.0	6.0	stop	non-target	T	71,Index Finger	89,Middle Finger	650.0	600.0	2100.0	2150.0	0.0	0.0	600.0	n/a	stop_stim
262541.3945388	665.6054612	n/a	895	89	2750	665.6054612	stim	stop-signal	309	794486	0.0-15.6-1.6	beast_fmri_test	336	792276,/,792957,/,793634,/,794315,/,794994,/	t,t,t,t,t	<img class = center src='/static/experiments/beast_fmri_test/images/T.png'></img>	71,89	2750.0	test	<img class = center src='/static/experiments/beast_fmri_test/images/redT.png'></img>	stop	2150.0	3.0	6.0	stop	non-target	T	71,Index Finger	89,Middle Finger	650.0	600.0	2100.0	2150.0	0.0	0.0	600.0	n/a	ITI
264408	500.0	n/a	-1	-1	500	0.0	fixation	poldrack-single-stim	310	795687	0.0-15.7-0.7	beast_fmri_test	336	795675,/	t	<div class = centerbox2><div class = fixation>+</div></div>	none	500.0	test	n/a	n/a	n/a	n/a	n/a	n/a	n/a	n/a	n/a	n/a	n/a	n/a	n/a	n/a	n/a	n/a	n/a	n/a	fixation
264335.08813344	650.0	n/a	-1	-1	2750	75.91186656	stim	stop-signal	311	798440	0.0-15.7-1.7	beast_fmri_test	336	796353,/,797034,/,797714,/,798393,/	t,t,t,t	<img class = center src='/static/experiments/beast_fmri_test/images/T.png'></img>	71,89	2750.0	test	<img class = center src='/static/experiments/beast_fmri_test/images/redT.png'></img>	stop	2100.0	3.0	7.0	stop	target	T	71,Index Finger	89,Middle Finger	650.0	550.0	2100.0	2150.0	0.0	1.0	650.0	n/a	go_stim
266435.08813344	2100.0	n/a	-1	-1	2750	75.91186656	stim	stop-signal	311	798440	0.0-15.7-1.7	beast_fmri_test	336	796353,/,797034,/,797714,/,798393,/	t,t,t,t	<img class = center src='/static/experiments/beast_fmri_test/images/T.png'></img>	71,89	2750.0	test	<img class = center src='/static/experiments/beast_fmri_test/images/redT.png'></img>	stop	2100.0	3.0	7.0	stop	target	T	71,Index Finger	89,Middle Finger	650.0	550.0	2100.0	2150.0	0.0	1.0	650.0	n/a	stop_stim
267085.08813344	75.91186656	n/a	-1	-1	2750	75.91186656	stim	stop-signal	311	798440	0.0-15.7-1.7	beast_fmri_test	336	796353,/,797034,/,797714,/,798393,/	t,t,t,t	<img class = center src='/static/experiments/beast_fmri_test/images/T.png'></img>	71,89	2750.0	test	<img class = center src='/static/experiments/beast_fmri_test/images/redT.png'></img>	stop	2100.0	3.0	7.0	stop	target	T	71,Index Finger	89,Middle Finger	650.0	550.0	2100.0	2150.0	0.0	1.0	650.0	n/a	ITI
267773	500.0	n/a	-1	-1	500	0.0	fixation	poldrack-single-stim	312	799052	0.0-15.8-0.8	beast_fmri_test	336	n/a	n/a	<div class = centerbox2><div class = fixation>+</div></div>	none	500.0	test	n/a	n/a	n/a	n/a	n/a	n/a	n/a	n/a	n/a	n/a	n/a	n/a	n/a	n/a	n/a	n/a	n/a	n/a	fixation
266625.20289099996	2750.0	n/a	1189	89	2750	1148.797109	stim	stop-signal	313	801803	0.0-15.8-1.8	beast_fmri_test	336	799072,/,799753,/,800432,/,801112,/,801791,/,802471,/	t,t,t,t,t,t	<img class = center src='/static/experiments/beast_fmri_test/images/B.png'></img>	71,89	2750.0	test	<img class = center src='/static/experiments/beast_fmri_test/images/redB.png'></img>	go	2200.0	3.0	8.0	go	non-target	B	71,Index Finger	89,Middle Finger	700.0	550.0	2100.0	2200.0	1.0	n/a	550.0	1.0	go_stim
269375.20289099996	1148.797109	n/a	1189	89	2750	1148.797109	stim	stop-signal	313	801803	0.0-15.8-1.8	beast_fmri_test	336	799072,/,799753,/,800432,/,801112,/,801791,/,802471,/	t,t,t,t,t,t	<img class = center src='/static/experiments/beast_fmri_test/images/B.png'></img>	71,89	2750.0	test	<img class = center src='/static/experiments/beast_fmri_test/images/redB.png'></img>	go	2200.0	3.0	8.0	go	non-target	B	71,Index Finger	89,Middle Finger	700.0	550.0	2100.0	2200.0	1.0	n/a	550.0	1.0	ITI
272211	500.0	n/a	-1	-1	500	0.0	fixation	poldrack-single-stim	314	803490	0.0-15.9-0.9	beast_fmri_test	336	803151,/	t	<div class = centerbox2><div class = fixation>+</div></div>	none	500.0	test	n/a	n/a	n/a	n/a	n/a	n/a	n/a	n/a	n/a	n/a	n/a	n/a	n/a	n/a	n/a	n/a	n/a	n/a	fixation
272020.90661760001	2750.0	n/a	894	71	2750	191.0933824	stim	stop-signal	315	806241	0.0-15.9-1.9	beast_fmri_test	336	803831,/,804511,/,805189,/,805870,/	t,t,t,t	<img class = center src='/static/experiments/beast_fmri_test/images/T.png'></img>	71,89	2750.0	test	<img class = center src='/static/experiments/beast_fmri_test/images/redT.png'></img>	go	2050.0	3.0	9.0	go	target	T	71,Index Finger	89,Middle Finger	700.0	550.0	2050.0	2200.0	1.0	n/a	700.0	1.0	go_stim
274770.90661760001	191.0933824	n/a	894	71	2750	191.0933824	stim	stop-signal	315	806241	0.0-15.9-1.9	beast_fmri_test	336	803831,/,804511,/,805189,/,805870,/	t,t,t,t	<img class = center src='/static/experiments/beast_fmri_test/images/T.png'></img>	71,89	2750.0	test	<img class = center src='/static/experiments/beast_fmri_test/images/redT.png'></img>	go	2050.0	3.0	9.0	go	target	T	71,Index Finger	89,Middle Finger	700.0	550.0	2050.0	2200.0	1.0	n/a	700.0	1.0	ITI
275688	500.0	n/a	-1	-1	500	0.0	fixation	poldrack-single-stim	316	806967	0.0-15.10-0.10	beast_fmri_test	336	806550,/	t	<div class = centerbox2><div class = fixation>+</div></div>	none	500.0	test	n/a	n/a	n/a	n/a	n/a	n/a	n/a	n/a	n/a	n/a	n/a	n/a	n/a	n/a	n/a	n/a	n/a	n/a	fixation
274929.93565530004	2750.0	n/a	971	89	2750	760.0643447	stim	stop-signal	317	809719	0.0-15.10-1.10	beast_fmri_test	336	807228,/,807908,/,808588,/,809268,/,809948,/	t,t,t,t,t	<img class = center src='/static/experiments/beast_fmri_test/images/D.png'></img>	71,89	2750.0	test	<img class = center src='/static/experiments/beast_fmri_test/images/redD.png'></img>	go	2200.0	3.0	10.0	go	non-target	D	71,Index Finger	89,Middle Finger	700.0	550.0	2050.0	2200.0	1.0	n/a	550.0	1.0	go_stim
277679.93565530004	760.0643447	n/a	971	89	2750	760.0643447	stim	stop-signal	317	809719	0.0-15.10-1.10	beast_fmri_test	336	807228,/,807908,/,808588,/,809268,/,809948,/	t,t,t,t,t	<img class = center src='/static/experiments/beast_fmri_test/images/D.png'></img>	71,89	2750.0	test	<img class = center src='/static/experiments/beast_fmri_test/images/redD.png'></img>	go	2200.0	3.0	10.0	go	non-target	D	71,Index Finger	89,Middle Finger	700.0	550.0	2050.0	2200.0	1.0	n/a	550.0	1.0	ITI
279737	500.0	n/a	-1	-1	500	0.0	fixation	poldrack-single-stim	318	811016	0.0-15.11-0.11	beast_fmri_test	336	810628,/	t	<div class = centerbox2><div class = fixation>+</div></div>	none	500.0	test	n/a	n/a	n/a	n/a	n/a	n/a	n/a	n/a	n/a	n/a	n/a	n/a	n/a	n/a	n/a	n/a	n/a	n/a	fixation
279259.67466669995	550.0	n/a	847	89	2750	479.3253333	stim	stop-signal	319	813768	0.0-15.11-1.11	beast_fmri_test	336	811307,/,811986,/,812666,/,813345,/,814026,/	t,t,t,t,t	<img class = center src='/static/experiments/beast_fmri_test/images/T.png'></img>	71,89	2750.0	test	<img class = center src='/static/experiments/beast_fmri_test/images/redT.png'></img>	stop	2200.0	3.0	11.0	stop	non-target	T	71,Index Finger	89,Middle Finger	700.0	550.0	2050.0	2200.0	0.0	0.0	550.0	n/a	go_stim
281459.67466669995	2200.0	n/a	847	89	2750	479.3253333	stim	stop-signal	319	813768	0.0-15.11-1.11	beast_fmri_test	336	811307,/,811986,/,812666,/,813345,/,814026,/	t,t,t,t,t	<img class = center src='/static/experiments/beast_fmri_test/images/T.png'></img>	71,89	2750.0	test	<img class = center src='/static/experiments/beast_fmri_test/images/redT.png'></img>	stop	2200.0	3.0	11.0	stop	non-target	T	71,Index Finger	89,Middle Finger	700.0	550.0	2050.0	2200.0	0.0	0.0	550.0	n/a	stop_stim
282009.67466669995	479.3253333	n/a	847	89	2750	479.3253333	stim	stop-signal	319	813768	0.0-15.11-1.11	beast_fmri_test	336	811307,/,811986,/,812666,/,813345,/,814026,/	t,t,t,t,t	<img class = center src='/static/experiments/beast_fmri_test/images/T.png'></img>	71,89	2750.0	test	<img class = center src='/static/experiments/beast_fmri_test/images/redT.png'></img>	stop	2200.0	3.0	11.0	stop	non-target	T	71,Index Finger	89,Middle Finger	700.0	550.0	2050.0	2200.0	0.0	0.0	550.0	n/a	ITI
283503	500.0	n/a	-1	-1	500	0.0	fixation	poldrack-single-stim	320	814782	0.0-15.12-0.12	beast_fmri_test	336	814706,/	t	<div class = centerbox2><div class = fixation>+</div></div>	none	500.0	test	n/a	n/a	n/a	n/a	n/a	n/a	n/a	n/a	n/a	n/a	n/a	n/a	n/a	n/a	n/a	n/a	n/a	n/a	fixation
280186.82821900002	500.0	n/a	-1	-1	2750	3317.171781	stim	stop-signal	321	817533	0.0-15.12-1.12	beast_fmri_test	336	815386,/,816065,/,816745,/,817424,/,818103,/,818783,/,819464,/,820143,/,820824,/	t,t,t,t,t,t,t,t,t	<img class = center src='/static/experiments/beast_fmri_test/images/B.png'></img>	71,89	2750.0	test	<img class = center src='/static/experiments/beast_fmri_test/images/redB.png'></img>	stop	2250.0	3.0	12.0	stop	non-target	B	71,Index Finger	89,Middle Finger	700.0	500.0	2050.0	2250.0	0.0	1.0	500.0	n/a	go_stim
282436.82821900002	2250.0	n/a	-1	-1	2750	3317.171781	stim	stop-signal	321	817533	0.0-15.12-1.12	beast_fmri_test	336	815386,/,816065,/,816745,/,817424,/,818103,/,818783,/,819464,/,820143,/,820824,/	t,t,t,t,t,t,t,t,t	<img class = center src='/static/experiments/beast_fmri_test/images/B.png'></img>	71,89	2750.0	test	<img class = center src='/static/experiments/beast_fmri_test/images/redB.png'></img>	stop	2250.0	3.0	12.0	stop	non-target	B	71,Index Finger	89,Middle Finger	700.0	500.0	2050.0	2250.0	0.0	1.0	500.0	n/a	stop_stim
282936.82821900002	3317.171781	n/a	-1	-1	2750	3317.171781	stim	stop-signal	321	817533	0.0-15.12-1.12	beast_fmri_test	336	815386,/,816065,/,816745,/,817424,/,818103,/,818783,/,819464,/,820143,/,820824,/	t,t,t,t,t,t,t,t,t	<img class = center src='/static/experiments/beast_fmri_test/images/B.png'></img>	71,89	2750.0	test	<img class = center src='/static/experiments/beast_fmri_test/images/redB.png'></img>	stop	2250.0	3.0	12.0	stop	non-target	B	71,Index Finger	89,Middle Finger	700.0	500.0	2050.0	2250.0	0.0	1.0	500.0	n/a	ITI
290106	500.0	n/a	-1	-1	500	0.0	fixation	poldrack-single-stim	322	821385	0.0-15.13-0.13	beast_fmri_test	336	n/a	n/a	<div class = centerbox2><div class = fixation>+</div></div>	none	500.0	test	n/a	n/a	n/a	n/a	n/a	n/a	n/a	n/a	n/a	n/a	n/a	n/a	n/a	n/a	n/a	n/a	n/a	n/a	fixation
289762.67361319996	2750.0	n/a	743	71	2750	344.3263868	stim	stop-signal	323	824136	0.0-15.13-1.13	beast_fmri_test	336	821503,/,822182,/,822862,/,823541,/,824221,/	t,t,t,t,t	<img class = center src='/static/experiments/beast_fmri_test/images/D.png'></img>	71,89	2750.0	test	<img class = center src='/static/experiments/beast_fmri_test/images/redD.png'></img>	go	2050.0	3.0	13.0	go	target	D	71,Index Finger	89,Middle Finger	700.0	550.0	2050.0	2250.0	1.0	n/a	700.0	1.0	go_stim
292512.67361319996	344.3263868	n/a	743	71	2750	344.3263868	stim	stop-signal	323	824136	0.0-15.13-1.13	beast_fmri_test	336	821503,/,822182,/,822862,/,823541,/,824221,/	t,t,t,t,t	<img class = center src='/static/experiments/beast_fmri_test/images/D.png'></img>	71,89	2750.0	test	<img class = center src='/static/experiments/beast_fmri_test/images/redD.png'></img>	go	2050.0	3.0	13.0	go	target	D	71,Index Finger	89,Middle Finger	700.0	550.0	2050.0	2250.0	1.0	n/a	700.0	1.0	ITI
293738	500.0	n/a	-1	-1	500	0.0	fixation	poldrack-single-stim	324	825017	0.0-15.14-0.14	beast_fmri_test	336	824902,/	t	<div class = centerbox2><div class = fixation>+</div></div>	none	500.0	test	n/a	n/a	n/a	n/a	n/a	n/a	n/a	n/a	n/a	n/a	n/a	n/a	n/a	n/a	n/a	n/a	n/a	n/a	fixation
291212.95212100004	2750.0	n/a	853	89	2750	2527.047879	stim	stop-signal	325	827769	0.0-15.14-1.14	beast_fmri_test	336	825581,/,826259,/,826940,/,827619,/,828298,/,828980,/,829659,/	t,t,t,t,t,t,t	<img class = center src='/static/experiments/beast_fmri_test/images/D.png'></img>	71,89	2750.0	test	<img class = center src='/static/experiments/beast_fmri_test/images/redD.png'></img>	go	2200.0	3.0	14.0	go	non-target	D	71,Index Finger	89,Middle Finger	700.0	550.0	2050.0	2200.0	1.0	n/a	550.0	1.0	go_stim
293962.95212100004	2527.047879	n/a	853	89	2750	2527.047879	stim	stop-signal	325	827769	0.0-15.14-1.14	beast_fmri_test	336	825581,/,826259,/,826940,/,827619,/,828298,/,828980,/,829659,/	t,t,t,t,t,t,t	<img class = center src='/static/experiments/beast_fmri_test/images/D.png'></img>	71,89	2750.0	test	<img class = center src='/static/experiments/beast_fmri_test/images/redD.png'></img>	go	2200.0	3.0	14.0	go	non-target	D	71,Index Finger	89,Middle Finger	700.0	550.0	2050.0	2200.0	1.0	n/a	550.0	1.0	ITI
299552	500.0	n/a	-1	-1	500	0.0	fixation	poldrack-single-stim	326	830831	0.0-15.15-0.15	beast_fmri_test	336	830337,/	t	<div class = centerbox2><div class = fixation>+</div></div>	none	500.0	test	n/a	n/a	n/a	n/a	n/a	n/a	n/a	n/a	n/a	n/a	n/a	n/a	n/a	n/a	n/a	n/a	n/a	n/a	fixation
297934.55310899997	2750.0	n/a	1249	71	2750	1619.446891	stim	stop-signal	327	833583	0.0-15.15-1.15	beast_fmri_test	336	831019,/,831697,/,832378,/,833058,/,833736,/,834417,/,835096,/	t,t,t,t,t,t,t	<img class = center src='/static/experiments/beast_fmri_test/images/P.png'></img>	71,89	2750.0	test	<img class = center src='/static/experiments/beast_fmri_test/images/redP.png'></img>	go	2200.0	3.0	15.0	go	non-target	P	71,Index Finger	89,Middle Finger	700.0	550.0	2050.0	2200.0	0.0	n/a	550.0	0.0	go_stim
300684.55310899997	1619.446891	n/a	1249	71	2750	1619.446891	stim	stop-signal	327	833583	0.0-15.15-1.15	beast_fmri_test	336	831019,/,831697,/,832378,/,833058,/,833736,/,834417,/,835096,/	t,t,t,t,t,t,t	<img class = center src='/static/experiments/beast_fmri_test/images/P.png'></img>	71,89	2750.0	test	<img class = center src='/static/experiments/beast_fmri_test/images/redP.png'></img>	go	2200.0	3.0	15.0	go	non-target	P	71,Index Finger	89,Middle Finger	700.0	550.0	2050.0	2200.0	0.0	n/a	550.0	0.0	ITI
304460	500.0	n/a	-1	-1	500	0.0	fixation	poldrack-single-stim	328	835739	0.0-15.16-0.16	beast_fmri_test	336	n/a	n/a	<div class = centerbox2><div class = fixation>+</div></div>	none	500.0	test	n/a	n/a	n/a	n/a	n/a	n/a	n/a	n/a	n/a	n/a	n/a	n/a	n/a	n/a	n/a	n/a	n/a	n/a	fixation
300849.09805799997	2750.0	n/a	546	71	2750	3611.901942	stim	stop-signal	329	838490	0.0-15.16-1.16	beast_fmri_test	336	835775,/,836456,/,837134,/,837816,/,838494,/,839175,/,839855,/,840534,/,841213,/,841893,/	t,t,t,t,t,t,t,t,t,t	<img class = center src='/static/experiments/beast_fmri_test/images/D.png'></img>	71,89	2750.0	test	<img class = center src='/static/experiments/beast_fmri_test/images/redD.png'></img>	go	2050.0	3.0	16.0	go	target	D	71,Index Finger	89,Middle Finger	700.0	550.0	2050.0	2200.0	1.0	n/a	700.0	1.0	go_stim
303599.09805799997	3611.901942	n/a	546	71	2750	3611.901942	stim	stop-signal	329	838490	0.0-15.16-1.16	beast_fmri_test	336	835775,/,836456,/,837134,/,837816,/,838494,/,839175,/,839855,/,840534,/,841213,/,841893,/	t,t,t,t,t,t,t,t,t,t	<img class = center src='/static/experiments/beast_fmri_test/images/D.png'></img>	71,89	2750.0	test	<img class = center src='/static/experiments/beast_fmri_test/images/redD.png'></img>	go	2050.0	3.0	16.0	go	target	D	71,Index Finger	89,Middle Finger	700.0	550.0	2050.0	2200.0	1.0	n/a	700.0	1.0	ITI
311359	500.0	n/a	-1	-1	500	0.0	fixation	poldrack-single-stim	330	842638	0.0-15.17-0.17	beast_fmri_test	336	842572,/	t	<div class = centerbox2><div class = fixation>+</div></div>	none	500.0	test	n/a	n/a	n/a	n/a	n/a	n/a	n/a	n/a	n/a	n/a	n/a	n/a	n/a	n/a	n/a	n/a	n/a	n/a	fixation
309703.07995599997	2750.0	n/a	1533	71	2750	1657.920044	stim	stop-signal	331	845390	0.0-15.17-1.17	beast_fmri_test	336	843252,/,843932,/,844611,/,845291,/,845971,/,846651,/	t,t,t,t,t,t	<img class = center src='/static/experiments/beast_fmri_test/images/P.png'></img>	71,89	2750.0	test	<img class = center src='/static/experiments/beast_fmri_test/images/redP.png'></img>	go	2200.0	3.0	17.0	go	non-target	P	71,Index Finger	89,Middle Finger	700.0	550.0	2050.0	2200.0	0.0	n/a	550.0	0.0	go_stim
312453.07995599997	1657.920044	n/a	1533	71	2750	1657.920044	stim	stop-signal	331	845390	0.0-15.17-1.17	beast_fmri_test	336	843252,/,843932,/,844611,/,845291,/,845971,/,846651,/	t,t,t,t,t,t	<img class = center src='/static/experiments/beast_fmri_test/images/P.png'></img>	71,89	2750.0	test	<img class = center src='/static/experiments/beast_fmri_test/images/redP.png'></img>	go	2200.0	3.0	17.0	go	non-target	P	71,Index Finger	89,Middle Finger	700.0	550.0	2050.0	2200.0	0.0	n/a	550.0	0.0	ITI
316305	500.0	n/a	-1	-1	500	0.0	fixation	poldrack-single-stim	332	847584	0.0-15.18-0.18	beast_fmri_test	336	847329,/	t	<div class = centerbox2><div class = fixation>+</div></div>	none	500.0	test	n/a	n/a	n/a	n/a	n/a	n/a	n/a	n/a	n/a	n/a	n/a	n/a	n/a	n/a	n/a	n/a	n/a	n/a	fixation
314736.35823599994	2750.0	n/a	829	89	2750	1570.641764	stim	stop-signal	333	850336	0.0-15.18-1.18	beast_fmri_test	336	848011,/,848690,/,849370,/,850048,/,850729,/,851410,/	t,t,t,t,t,t	<img class = center src='/static/experiments/beast_fmri_test/images/V.png'></img>	71,89	2750.0	test	<img class = center src='/static/experiments/beast_fmri_test/images/redV.png'></img>	go	2200.0	3.0	18.0	go	non-target	V	71,Index Finger	89,Middle Finger	700.0	550.0	2050.0	2200.0	1.0	n/a	550.0	1.0	go_stim
317486.35823599994	1570.641764	n/a	829	89	2750	1570.641764	stim	stop-signal	333	850336	0.0-15.18-1.18	beast_fmri_test	336	848011,/,848690,/,849370,/,850048,/,850729,/,851410,/	t,t,t,t,t,t	<img class = center src='/static/experiments/beast_fmri_test/images/V.png'></img>	71,89	2750.0	test	<img class = center src='/static/experiments/beast_fmri_test/images/redV.png'></img>	go	2200.0	3.0	18.0	go	non-target	V	71,Index Finger	89,Middle Finger	700.0	550.0	2050.0	2200.0	1.0	n/a	550.0	1.0	ITI
321165	500.0	n/a	-1	-1	500	0.0	fixation	poldrack-single-stim	334	852444	0.0-15.19-0.19	beast_fmri_test	336	852090,/	t	<div class = centerbox2><div class = fixation>+</div></div>	none	500.0	test	n/a	n/a	n/a	n/a	n/a	n/a	n/a	n/a	n/a	n/a	n/a	n/a	n/a	n/a	n/a	n/a	n/a	n/a	fixation
321108.24611904996	2750.0	n/a	1135	89	2750	58.75388095	stim	stop-signal	335	855196	0.0-15.19-1.19	beast_fmri_test	336	852770,/,853449,/,854128,/,854808,/	t,t,t,t	<img class = center src='/static/experiments/beast_fmri_test/images/P.png'></img>	71,89	2750.0	test	<img class = center src='/static/experiments/beast_fmri_test/images/redP.png'></img>	go	2200.0	3.0	19.0	go	non-target	P	71,Index Finger	89,Middle Finger	700.0	550.0	2050.0	2200.0	1.0	n/a	550.0	1.0	go_stim
323858.24611904996	58.75388095	n/a	1135	89	2750	58.75388095	stim	stop-signal	335	855196	0.0-15.19-1.19	beast_fmri_test	336	852770,/,853449,/,854128,/,854808,/	t,t,t,t	<img class = center src='/static/experiments/beast_fmri_test/images/P.png'></img>	71,89	2750.0	test	<img class = center src='/static/experiments/beast_fmri_test/images/redP.png'></img>	go	2200.0	3.0	19.0	go	non-target	P	71,Index Finger	89,Middle Finger	700.0	550.0	2050.0	2200.0	1.0	n/a	550.0	1.0	ITI
324518	500.0	n/a	-1	-1	500	0.0	fixation	poldrack-single-stim	336	855797	0.0-15.20-0.20	beast_fmri_test	336	855487,/	t	<div class = centerbox2><div class = fixation>+</div></div>	none	500.0	test	n/a	n/a	n/a	n/a	n/a	n/a	n/a	n/a	n/a	n/a	n/a	n/a	n/a	n/a	n/a	n/a	n/a	n/a	fixation
324280.64098070003	2750.0	n/a	745	89	2750	239.3590193	stim	stop-signal	337	858549	0.0-15.20-1.20	beast_fmri_test	336	856167,/,856847,/,857527,/,858206,/	t,t,t,t	<img class = center src='/static/experiments/beast_fmri_test/images/B.png'></img>	71,89	2750.0	test	<img class = center src='/static/experiments/beast_fmri_test/images/redB.png'></img>	go	2200.0	3.0	20.0	go	non-target	B	71,Index Finger	89,Middle Finger	700.0	550.0	2050.0	2200.0	1.0	n/a	550.0	1.0	go_stim
327030.64098070003	239.3590193	n/a	745	89	2750	239.3590193	stim	stop-signal	337	858549	0.0-15.20-1.20	beast_fmri_test	336	856167,/,856847,/,857527,/,858206,/	t,t,t,t	<img class = center src='/static/experiments/beast_fmri_test/images/B.png'></img>	71,89	2750.0	test	<img class = center src='/static/experiments/beast_fmri_test/images/redB.png'></img>	go	2200.0	3.0	20.0	go	non-target	B	71,Index Finger	89,Middle Finger	700.0	550.0	2050.0	2200.0	1.0	n/a	550.0	1.0	ITI
328046	500.0	n/a	-1	-1	500	0.0	fixation	poldrack-single-stim	338	859325	0.0-15.21-0.21	beast_fmri_test	336	858886,/	t	<div class = centerbox2><div class = fixation>+</div></div>	none	500.0	test	n/a	n/a	n/a	n/a	n/a	n/a	n/a	n/a	n/a	n/a	n/a	n/a	n/a	n/a	n/a	n/a	n/a	n/a	fixation
327829.36723430001	2750.0	n/a	689	89	2750	218.6327657	stim	stop-signal	339	862077	0.0-15.21-1.21	beast_fmri_test	336	859564,/,860244,/,860924,/,861604,/,862284,/	t,t,t,t,t	<img class = center src='/static/experiments/beast_fmri_test/images/D.png'></img>	71,89	2750.0	test	<img class = center src='/static/experiments/beast_fmri_test/images/redD.png'></img>	go	2200.0	3.0	21.0	go	non-target	D	71,Index Finger	89,Middle Finger	700.0	550.0	2050.0	2200.0	1.0	n/a	550.0	1.0	go_stim
330579.36723430001	218.6327657	n/a	689	89	2750	218.6327657	stim	stop-signal	339	862077	0.0-15.21-1.21	beast_fmri_test	336	859564,/,860244,/,860924,/,861604,/,862284,/	t,t,t,t,t	<img class = center src='/static/experiments/beast_fmri_test/images/D.png'></img>	71,89	2750.0	test	<img class = center src='/static/experiments/beast_fmri_test/images/redD.png'></img>	go	2200.0	3.0	21.0	go	non-target	D	71,Index Finger	89,Middle Finger	700.0	550.0	2050.0	2200.0	1.0	n/a	550.0	1.0	ITI
331556	500.0	n/a	-1	-1	500	0.0	fixation	poldrack-single-stim	340	862835	0.0-15.22-0.22	beast_fmri_test	336	n/a	n/a	<div class = centerbox2><div class = fixation>+</div></div>	none	500.0	test	n/a	n/a	n/a	n/a	n/a	n/a	n/a	n/a	n/a	n/a	n/a	n/a	n/a	n/a	n/a	n/a	n/a	n/a	fixation
330964.82396559999	550.0	n/a	-1	-1	2750	593.1760344	stim	stop-signal	341	865587	0.0-15.22-1.22	beast_fmri_test	336	862964,/,863643,/,864323,/,865003,/,865683,/	t,t,t,t,t	<img class = center src='/static/experiments/beast_fmri_test/images/B.png'></img>	71,89	2750.0	test	<img class = center src='/static/experiments/beast_fmri_test/images/redB.png'></img>	stop	2200.0	3.0	22.0	stop	non-target	B	71,Index Finger	89,Middle Finger	700.0	550.0	2050.0	2200.0	0.0	1.0	550.0	n/a	go_stim
333164.82396559999	2200.0	n/a	-1	-1	2750	593.1760344	stim	stop-signal	341	865587	0.0-15.22-1.22	beast_fmri_test	336	862964,/,863643,/,864323,/,865003,/,865683,/	t,t,t,t,t	<img class = center src='/static/experiments/beast_fmri_test/images/B.png'></img>	71,89	2750.0	test	<img class = center src='/static/experiments/beast_fmri_test/images/redB.png'></img>	stop	2200.0	3.0	22.0	stop	non-target	B	71,Index Finger	89,Middle Finger	700.0	550.0	2050.0	2200.0	0.0	1.0	550.0	n/a	stop_stim
333714.82396559999	593.1760344	n/a	-1	-1	2750	593.1760344	stim	stop-signal	341	865587	0.0-15.22-1.22	beast_fmri_test	336	862964,/,863643,/,864323,/,865003,/,865683,/	t,t,t,t,t	<img class = center src='/static/experiments/beast_fmri_test/images/B.png'></img>	71,89	2750.0	test	<img class = center src='/static/experiments/beast_fmri_test/images/redB.png'></img>	stop	2200.0	3.0	22.0	stop	non-target	B	71,Index Finger	89,Middle Finger	700.0	550.0	2050.0	2200.0	0.0	1.0	550.0	n/a	ITI
335443	500.0	n/a	-1	-1	500	0.0	fixation	poldrack-single-stim	342	866722	0.0-15.23-0.23	beast_fmri_test	336	866362,/	t	<div class = centerbox2><div class = fixation>+</div></div>	none	500.0	test	n/a	n/a	n/a	n/a	n/a	n/a	n/a	n/a	n/a	n/a	n/a	n/a	n/a	n/a	n/a	n/a	n/a	n/a	fixation
333391.82387399999	2750.0	n/a	1204	71	2750	2053.176126	stim	stop-signal	343	869474	0.0-15.23-1.23	beast_fmri_test	336	867041,/,867722,/,868401,/,869080,/,869760,/,870440,/,871120,/	t,t,t,t,t,t,t	<img class = center src='/static/experiments/beast_fmri_test/images/D.png'></img>	71,89	2750.0	test	<img class = center src='/static/experiments/beast_fmri_test/images/redD.png'></img>	go	2150.0	3.0	23.0	go	non-target	D	71,Index Finger	89,Middle Finger	700.0	600.0	2050.0	2150.0	0.0	n/a	600.0	0.0	go_stim
336141.82387399999	2053.176126	n/a	1204	71	2750	2053.176126	stim	stop-signal	343	869474	0.0-15.23-1.23	beast_fmri_test	336	867041,/,867722,/,868401,/,869080,/,869760,/,870440,/,871120,/	t,t,t,t,t,t,t	<img class = center src='/static/experiments/beast_fmri_test/images/D.png'></img>	71,89	2750.0	test	<img class = center src='/static/experiments/beast_fmri_test/images/redD.png'></img>	go	2150.0	3.0	23.0	go	non-target	D	71,Index Finger	89,Middle Finger	700.0	600.0	2050.0	2150.0	0.0	n/a	600.0	0.0	ITI
340787	500.0	n/a	-1	-1	500	0.0	fixation	poldrack-single-stim	344	872066	0.0-15.24-0.24	beast_fmri_test	336	871800,/	t	<div class = centerbox2><div class = fixation>+</div></div>	none	500.0	test	n/a	n/a	n/a	n/a	n/a	n/a	n/a	n/a	n/a	n/a	n/a	n/a	n/a	n/a	n/a	n/a	n/a	n/a	fixation
