onset	duration	text	rt	key_press	block_duration	timing_post_trial	trial_id	trial_type	trial_index	time_elapsed	internal_node_id	exp_id	subject_id	trigger_times	triggers	stimulus	possible_responses	stim_duration	exp_stage	SS_stimulus	SS_trial_type	SS_duration	load	trial_num	stop_trial_type	adaptive_trial_type	stim	yes_response_key	no_response_key	SSD_target	SSD_non_target	SSTarget	SSNonTarget	go_acc	stop_acc	SS_delay	adaptive_acc	new_trial_type
test	10880	n/a	-1	-1	10880	0.0	practice-no-stop-feedback	poldrack-single-stim	6	102209	0.0-6.0	beast_fmri_test	336	91331,/,92010,/,92690,/,93369,/,94050,/,94729,/,95410,/,96088,/,96767,/,97448,/,98127,/,98807,/,99487,/,100168,/,100847,/,101527,/,102207,/	t,t,t,t,t,t,t,t,t,t,t,t,t,t,t,t,t	"<div class = ""centerbox""><p class = ""block-text"">Your delay is 2 trials.</p><p class = block-text>Please wait for the scanner to start the block</p></div>"	77	10880.0	n/a	n/a	n/a	n/a	n/a	n/a	n/a	n/a	n/a	n/a	n/a	n/a	n/a	n/a	n/a	n/a	n/a	n/a	n/a	start_functional_block
11381	500	n/a	-1	-1	500	0.0	fixation	poldrack-single-stim	7	102712	0.0-7.0-0.0	beast_fmri_test	336	n/a	n/a	<div class = centerbox2><div class = fixation>+</div></div>	none	500.0	test	n/a	n/a	n/a	n/a	n/a	n/a	n/a	n/a	n/a	n/a	n/a	n/a	n/a	n/a	n/a	n/a	n/a	n/a	fixation
11080.705758900003	temp_go_duration	n/a	1148	89	2750	307.2942411	stim	stop-signal	8	105469	0.0-7.0-1.0	beast_fmri_test	336	102886,/,103566,/,104245,/,104925,/,105603,/	t,t,t,t,t	<img class = center src='/static/experiments/beast_fmri_test/images/B.png'></img>	71,89	2750.0	test	<img class = center src='/static/experiments/beast_fmri_test/images/redB.png'></img>	stop	-1.0	2.0	0.0	stop	temp-non-target	B	71,Index Finger	89,Middle Finger	500.0	500.0	0.0	0.0	0.0	0.0	n/a	n/a	go_stim
temp-non-target	temp_stop_duration	n/a	1148	89	2750	307.2942411	stim	stop-signal	8	105469	0.0-7.0-1.0	beast_fmri_test	336	102886,/,103566,/,104245,/,104925,/,105603,/	t,t,t,t,t	<img class = center src='/static/experiments/beast_fmri_test/images/B.png'></img>	71,89	2750.0	test	<img class = center src='/static/experiments/beast_fmri_test/images/redB.png'></img>	stop	-1.0	2.0	0.0	stop	temp-non-target	B	71,Index Finger	89,Middle Finger	500.0	500.0	0.0	0.0	0.0	0.0	n/a	n/a	stop_stim
13830.705758900003	307.29424110000002	n/a	1148	89	2750	307.2942411	stim	stop-signal	8	105469	0.0-7.0-1.0	beast_fmri_test	336	102886,/,103566,/,104245,/,104925,/,105603,/	t,t,t,t,t	<img class = center src='/static/experiments/beast_fmri_test/images/B.png'></img>	71,89	2750.0	test	<img class = center src='/static/experiments/beast_fmri_test/images/redB.png'></img>	stop	-1.0	2.0	0.0	stop	temp-non-target	B	71,Index Finger	89,Middle Finger	500.0	500.0	0.0	0.0	0.0	0.0	n/a	n/a	ITI
14954	500	n/a	-1	-1	500	0.0	fixation	poldrack-single-stim	9	106285	0.0-7.1-0.1	beast_fmri_test	336	106284,/	t	<div class = centerbox2><div class = fixation>+</div></div>	none	500.0	test	n/a	n/a	n/a	n/a	n/a	n/a	n/a	n/a	n/a	n/a	n/a	n/a	n/a	n/a	n/a	n/a	n/a	n/a	fixation
11555.312105000005	temp_go_duration	n/a	719	89	2750	3400.687895	stim	stop-signal	10	109037	0.0-7.1-1.1	beast_fmri_test	336	106964,/,107643,/,108322,/,109003,/,109682,/,110362,/,111040,/,111720,/,112399,/	t,t,t,t,t,t,t,t,t	<img class = center src='/static/experiments/beast_fmri_test/images/V.png'></img>	71,89	2750.0	test	<img class = center src='/static/experiments/beast_fmri_test/images/redV.png'></img>	stop	-1.0	2.0	1.0	stop	temp-non-target	V	71,Index Finger	89,Middle Finger	500.0	500.0	0.0	0.0	0.0	0.0	n/a	n/a	go_stim
temp-non-target	temp_stop_duration	n/a	719	89	2750	3400.687895	stim	stop-signal	10	109037	0.0-7.1-1.1	beast_fmri_test	336	106964,/,107643,/,108322,/,109003,/,109682,/,110362,/,111040,/,111720,/,112399,/	t,t,t,t,t,t,t,t,t	<img class = center src='/static/experiments/beast_fmri_test/images/V.png'></img>	71,89	2750.0	test	<img class = center src='/static/experiments/beast_fmri_test/images/redV.png'></img>	stop	-1.0	2.0	1.0	stop	temp-non-target	V	71,Index Finger	89,Middle Finger	500.0	500.0	0.0	0.0	0.0	0.0	n/a	n/a	stop_stim
14305.312105000005	3400.6878950000005	n/a	719	89	2750	3400.687895	stim	stop-signal	10	109037	0.0-7.1-1.1	beast_fmri_test	336	106964,/,107643,/,108322,/,109003,/,109682,/,110362,/,111040,/,111720,/,112399,/	t,t,t,t,t,t,t,t,t	<img class = center src='/static/experiments/beast_fmri_test/images/V.png'></img>	71,89	2750.0	test	<img class = center src='/static/experiments/beast_fmri_test/images/redV.png'></img>	stop	-1.0	2.0	1.0	stop	temp-non-target	V	71,Index Finger	89,Middle Finger	500.0	500.0	0.0	0.0	0.0	0.0	n/a	n/a	ITI
21613	500	n/a	-1	-1	500	0.0	fixation	poldrack-single-stim	11	112944	0.0-7.2-0.2	beast_fmri_test	336	n/a	n/a	<div class = centerbox2><div class = fixation>+</div></div>	none	500.0	test	n/a	n/a	n/a	n/a	n/a	n/a	n/a	n/a	n/a	n/a	n/a	n/a	n/a	n/a	n/a	n/a	n/a	n/a	fixation
20590.141040999995	2750	n/a	693	71	2750	1025.858959	stim	stop-signal	12	115697	0.0-7.2-1.2	beast_fmri_test	336	113080,/,113759,/,114440,/,115118,/,115800,/,116480,/	t,t,t,t,t,t	<img class = center src='/static/experiments/beast_fmri_test/images/B.png'></img>	71,89	2750.0	test	<img class = center src='/static/experiments/beast_fmri_test/images/redB.png'></img>	go	2250.0	2.0	2.0	go	target	B	71,Index Finger	89,Middle Finger	500.0	500.0	2250.0	0.0	1.0	n/a	500.0	1.0	go_stim
23340.141040999995	1025.8589589999999	n/a	693	71	2750	1025.858959	stim	stop-signal	12	115697	0.0-7.2-1.2	beast_fmri_test	336	113080,/,113759,/,114440,/,115118,/,115800,/,116480,/	t,t,t,t,t,t	<img class = center src='/static/experiments/beast_fmri_test/images/B.png'></img>	71,89	2750.0	test	<img class = center src='/static/experiments/beast_fmri_test/images/redB.png'></img>	go	2250.0	2.0	2.0	go	target	B	71,Index Finger	89,Middle Finger	500.0	500.0	2250.0	0.0	1.0	n/a	500.0	1.0	ITI
25899	500	n/a	-1	-1	500	0.0	fixation	poldrack-single-stim	13	117230	0.0-7.3-0.3	beast_fmri_test	336	117160,/	t	<div class = centerbox2><div class = fixation>+</div></div>	none	500.0	test	n/a	n/a	n/a	n/a	n/a	n/a	n/a	n/a	n/a	n/a	n/a	n/a	n/a	n/a	n/a	n/a	n/a	n/a	fixation
25638.113208499999	2750	n/a	913	89	2750	262.8867915	stim	stop-signal	14	119982	0.0-7.3-1.3	beast_fmri_test	336	117839,/,118519,/,119198,/,119878,/	t,t,t,t	<img class = center src='/static/experiments/beast_fmri_test/images/B.png'></img>	71,89	2750.0	test	<img class = center src='/static/experiments/beast_fmri_test/images/redB.png'></img>	go	2250.0	2.0	3.0	go	non-target	B	71,Index Finger	89,Middle Finger	500.0	500.0	2250.0	2250.0	1.0	n/a	500.0	1.0	go_stim
28388.113208499999	262.88679150000002	n/a	913	89	2750	262.8867915	stim	stop-signal	14	119982	0.0-7.3-1.3	beast_fmri_test	336	117839,/,118519,/,119198,/,119878,/	t,t,t,t	<img class = center src='/static/experiments/beast_fmri_test/images/B.png'></img>	71,89	2750.0	test	<img class = center src='/static/experiments/beast_fmri_test/images/redB.png'></img>	go	2250.0	2.0	3.0	go	non-target	B	71,Index Finger	89,Middle Finger	500.0	500.0	2250.0	2250.0	1.0	n/a	500.0	1.0	ITI
29419	500	n/a	-1	-1	500	0.0	fixation	poldrack-single-stim	15	120750	0.0-7.4-0.4	beast_fmri_test	336	120558,/	t	<div class = centerbox2><div class = fixation>+</div></div>	none	500.0	test	n/a	n/a	n/a	n/a	n/a	n/a	n/a	n/a	n/a	n/a	n/a	n/a	n/a	n/a	n/a	n/a	n/a	n/a	fixation
29409.270761339998	2750	n/a	621	89	2750	11.72923866	stim	stop-signal	16	123502	0.0-7.4-1.4	beast_fmri_test	336	121238,/,121918,/,122597,/,123277,/	t,t,t,t	<img class = center src='/static/experiments/beast_fmri_test/images/V.png'></img>	71,89	2750.0	test	<img class = center src='/static/experiments/beast_fmri_test/images/redV.png'></img>	go	2250.0	2.0	4.0	go	non-target	V	71,Index Finger	89,Middle Finger	500.0	500.0	2250.0	2250.0	1.0	n/a	500.0	1.0	go_stim
32159.270761339998	11.72923866	n/a	621	89	2750	11.72923866	stim	stop-signal	16	123502	0.0-7.4-1.4	beast_fmri_test	336	121238,/,121918,/,122597,/,123277,/	t,t,t,t	<img class = center src='/static/experiments/beast_fmri_test/images/V.png'></img>	71,89	2750.0	test	<img class = center src='/static/experiments/beast_fmri_test/images/redV.png'></img>	go	2250.0	2.0	4.0	go	non-target	V	71,Index Finger	89,Middle Finger	500.0	500.0	2250.0	2250.0	1.0	n/a	500.0	1.0	ITI
32687	500	n/a	-1	-1	500	0.0	fixation	poldrack-single-stim	17	124018	0.0-7.5-0.5	beast_fmri_test	336	123955,/	t	<div class = centerbox2><div class = fixation>+</div></div>	none	500.0	test	n/a	n/a	n/a	n/a	n/a	n/a	n/a	n/a	n/a	n/a	n/a	n/a	n/a	n/a	n/a	n/a	n/a	n/a	fixation
32467.463978500004	2750	n/a	730	89	2750	221.5360215	stim	stop-signal	18	126770	0.0-7.5-1.5	beast_fmri_test	336	124636,/,125314,/,125996,/,126676,/	t,t,t,t	<img class = center src='/static/experiments/beast_fmri_test/images/V.png'></img>	71,89	2750.0	test	<img class = center src='/static/experiments/beast_fmri_test/images/redV.png'></img>	go	2250.0	2.0	5.0	go	non-target	V	71,Index Finger	89,Middle Finger	500.0	500.0	2250.0	2250.0	1.0	n/a	500.0	1.0	go_stim
35217.463978500004	221.53602149999998	n/a	730	89	2750	221.5360215	stim	stop-signal	18	126770	0.0-7.5-1.5	beast_fmri_test	336	124636,/,125314,/,125996,/,126676,/	t,t,t,t	<img class = center src='/static/experiments/beast_fmri_test/images/V.png'></img>	71,89	2750.0	test	<img class = center src='/static/experiments/beast_fmri_test/images/redV.png'></img>	go	2250.0	2.0	5.0	go	non-target	V	71,Index Finger	89,Middle Finger	500.0	500.0	2250.0	2250.0	1.0	n/a	500.0	1.0	ITI
36166	500	n/a	-1	-1	500	0.0	fixation	poldrack-single-stim	19	127497	0.0-7.6-0.6	beast_fmri_test	336	127354,/	t	<div class = centerbox2><div class = fixation>+</div></div>	none	500.0	test	n/a	n/a	n/a	n/a	n/a	n/a	n/a	n/a	n/a	n/a	n/a	n/a	n/a	n/a	n/a	n/a	n/a	n/a	fixation
35182.006497399998	2750	n/a	815	71	2750	985.9935026	stim	stop-signal	20	130249	0.0-7.6-1.6	beast_fmri_test	336	128033,/,128714,/,129393,/,130073,/,130753,/	t,t,t,t,t	<img class = center src='/static/experiments/beast_fmri_test/images/V.png'></img>	71,89	2750.0	test	<img class = center src='/static/experiments/beast_fmri_test/images/redV.png'></img>	go	2250.0	2.0	6.0	go	target	V	71,Index Finger	89,Middle Finger	500.0	500.0	2250.0	2250.0	1.0	n/a	500.0	1.0	go_stim
37932.006497399998	985.99350260000006	n/a	815	71	2750	985.9935026	stim	stop-signal	20	130249	0.0-7.6-1.6	beast_fmri_test	336	128033,/,128714,/,129393,/,130073,/,130753,/	t,t,t,t,t	<img class = center src='/static/experiments/beast_fmri_test/images/V.png'></img>	71,89	2750.0	test	<img class = center src='/static/experiments/beast_fmri_test/images/redV.png'></img>	go	2250.0	2.0	6.0	go	target	V	71,Index Finger	89,Middle Finger	500.0	500.0	2250.0	2250.0	1.0	n/a	500.0	1.0	ITI
40412	500	n/a	-1	-1	500	0.0	fixation	poldrack-single-stim	21	131743	0.0-7.7-0.7	beast_fmri_test	336	131432,/	t	<div class = centerbox2><div class = fixation>+</div></div>	none	500.0	test	n/a	n/a	n/a	n/a	n/a	n/a	n/a	n/a	n/a	n/a	n/a	n/a	n/a	n/a	n/a	n/a	n/a	n/a	fixation
40321.875944689993	2750	n/a	1011	89	2750	93.12405531	stim	stop-signal	22	134496	0.0-7.7-1.7	beast_fmri_test	336	132113,/,132791,/,133471,/,134150,/	t,t,t,t	<img class = center src='/static/experiments/beast_fmri_test/images/P.png'></img>	71,89	2750.0	test	<img class = center src='/static/experiments/beast_fmri_test/images/redP.png'></img>	go	2250.0	2.0	7.0	go	non-target	P	71,Index Finger	89,Middle Finger	500.0	500.0	2250.0	2250.0	1.0	n/a	500.0	1.0	go_stim
43071.875944689993	93.124055310000003	n/a	1011	89	2750	93.12405531	stim	stop-signal	22	134496	0.0-7.7-1.7	beast_fmri_test	336	132113,/,132791,/,133471,/,134150,/	t,t,t,t	<img class = center src='/static/experiments/beast_fmri_test/images/P.png'></img>	71,89	2750.0	test	<img class = center src='/static/experiments/beast_fmri_test/images/redP.png'></img>	go	2250.0	2.0	7.0	go	non-target	P	71,Index Finger	89,Middle Finger	500.0	500.0	2250.0	2250.0	1.0	n/a	500.0	1.0	ITI
43767	500	n/a	-1	-1	500	0.0	fixation	poldrack-single-stim	23	135098	0.0-7.8-0.8	beast_fmri_test	336	134830,/	t	<div class = centerbox2><div class = fixation>+</div></div>	none	500.0	test	n/a	n/a	n/a	n/a	n/a	n/a	n/a	n/a	n/a	n/a	n/a	n/a	n/a	n/a	n/a	n/a	n/a	n/a	fixation
43667.768010700005	500.0	n/a	725	89	2750	101.2319893	stim	stop-signal	24	137850	0.0-7.8-1.8	beast_fmri_test	336	135511,/,136190,/,136870,/,137549,/	t,t,t,t	<img class = center src='/static/experiments/beast_fmri_test/images/T.png'></img>	71,89	2750.0	test	<img class = center src='/static/experiments/beast_fmri_test/images/redT.png'></img>	stop	2250.0	2.0	8.0	stop	non-target	T	71,Index Finger	89,Middle Finger	500.0	500.0	2250.0	2250.0	0.0	0.0	500.0	n/a	go_stim
45917.768010700005	2250.0	n/a	725	89	2750	101.2319893	stim	stop-signal	24	137850	0.0-7.8-1.8	beast_fmri_test	336	135511,/,136190,/,136870,/,137549,/	t,t,t,t	<img class = center src='/static/experiments/beast_fmri_test/images/T.png'></img>	71,89	2750.0	test	<img class = center src='/static/experiments/beast_fmri_test/images/redT.png'></img>	stop	2250.0	2.0	8.0	stop	non-target	T	71,Index Finger	89,Middle Finger	500.0	500.0	2250.0	2250.0	0.0	0.0	500.0	n/a	stop_stim
46417.768010700005	101.2319893	n/a	725	89	2750	101.2319893	stim	stop-signal	24	137850	0.0-7.8-1.8	beast_fmri_test	336	135511,/,136190,/,136870,/,137549,/	t,t,t,t	<img class = center src='/static/experiments/beast_fmri_test/images/T.png'></img>	71,89	2750.0	test	<img class = center src='/static/experiments/beast_fmri_test/images/redT.png'></img>	stop	2250.0	2.0	8.0	stop	non-target	T	71,Index Finger	89,Middle Finger	500.0	500.0	2250.0	2250.0	0.0	0.0	500.0	n/a	ITI
47131	500	n/a	-1	-1	500	0.0	fixation	poldrack-single-stim	25	138462	0.0-7.9-0.9	beast_fmri_test	336	138228,/	t	<div class = centerbox2><div class = fixation>+</div></div>	none	500.0	test	n/a	n/a	n/a	n/a	n/a	n/a	n/a	n/a	n/a	n/a	n/a	n/a	n/a	n/a	n/a	n/a	n/a	n/a	fixation
45832.980741000007	2750	n/a	824	89	2750	1300.019259	stim	stop-signal	26	141214	0.0-7.9-1.9	beast_fmri_test	336	138909,/,139587,/,140269,/,140947,/,141627,/,142307,/	t,t,t,t,t,t	<img class = center src='/static/experiments/beast_fmri_test/images/D.png'></img>	71,89	2750.0	test	<img class = center src='/static/experiments/beast_fmri_test/images/redD.png'></img>	go	2300.0	2.0	9.0	go	non-target	D	71,Index Finger	89,Middle Finger	500.0	450.0	2250.0	2300.0	1.0	n/a	450.0	1.0	go_stim
48582.980741000007	1300.0192589999999	n/a	824	89	2750	1300.019259	stim	stop-signal	26	141214	0.0-7.9-1.9	beast_fmri_test	336	138909,/,139587,/,140269,/,140947,/,141627,/,142307,/	t,t,t,t,t,t	<img class = center src='/static/experiments/beast_fmri_test/images/D.png'></img>	71,89	2750.0	test	<img class = center src='/static/experiments/beast_fmri_test/images/redD.png'></img>	go	2300.0	2.0	9.0	go	non-target	D	71,Index Finger	89,Middle Finger	500.0	450.0	2250.0	2300.0	1.0	n/a	450.0	1.0	ITI
51688	500	n/a	-1	-1	500	0.0	fixation	poldrack-single-stim	27	143019	0.0-7.10-0.10	beast_fmri_test	336	142987,/	t	<div class = centerbox2><div class = fixation>+</div></div>	none	500.0	test	n/a	n/a	n/a	n/a	n/a	n/a	n/a	n/a	n/a	n/a	n/a	n/a	n/a	n/a	n/a	n/a	n/a	n/a	fixation
51291.485104299994	450.0	n/a	-1	-1	2750	397.5148957	stim	stop-signal	28	145770	0.0-7.10-1.10	beast_fmri_test	336	143667,/,144348,/,145027,/,145706,/	t,t,t,t	<img class = center src='/static/experiments/beast_fmri_test/images/P.png'></img>	71,89	2750.0	test	<img class = center src='/static/experiments/beast_fmri_test/images/redP.png'></img>	stop	2300.0	2.0	10.0	stop	non-target	P	71,Index Finger	89,Middle Finger	500.0	450.0	2250.0	2300.0	0.0	1.0	450.0	n/a	go_stim
53591.485104299994	2300.0	n/a	-1	-1	2750	397.5148957	stim	stop-signal	28	145770	0.0-7.10-1.10	beast_fmri_test	336	143667,/,144348,/,145027,/,145706,/	t,t,t,t	<img class = center src='/static/experiments/beast_fmri_test/images/P.png'></img>	71,89	2750.0	test	<img class = center src='/static/experiments/beast_fmri_test/images/redP.png'></img>	stop	2300.0	2.0	10.0	stop	non-target	P	71,Index Finger	89,Middle Finger	500.0	450.0	2250.0	2300.0	0.0	1.0	450.0	n/a	stop_stim
54041.485104299994	397.51489570000001	n/a	-1	-1	2750	397.5148957	stim	stop-signal	28	145770	0.0-7.10-1.10	beast_fmri_test	336	143667,/,144348,/,145027,/,145706,/	t,t,t,t	<img class = center src='/static/experiments/beast_fmri_test/images/P.png'></img>	71,89	2750.0	test	<img class = center src='/static/experiments/beast_fmri_test/images/redP.png'></img>	stop	2300.0	2.0	10.0	stop	non-target	P	71,Index Finger	89,Middle Finger	500.0	450.0	2250.0	2300.0	0.0	1.0	450.0	n/a	ITI
55344	500	n/a	-1	-1	500	0.0	fixation	poldrack-single-stim	29	146675	0.0-7.11-0.11	beast_fmri_test	336	146385,/	t	<div class = centerbox2><div class = fixation>+</div></div>	none	500.0	test	n/a	n/a	n/a	n/a	n/a	n/a	n/a	n/a	n/a	n/a	n/a	n/a	n/a	n/a	n/a	n/a	n/a	n/a	fixation
54175.129014000006	2750	n/a	673	89	2750	1170.870986	stim	stop-signal	30	149427	0.0-7.11-1.11	beast_fmri_test	336	147065,/,147745,/,148424,/,149105,/,149784,/,150464,/	t,t,t,t,t,t	<img class = center src='/static/experiments/beast_fmri_test/images/B.png'></img>	71,89	2750.0	test	<img class = center src='/static/experiments/beast_fmri_test/images/redB.png'></img>	go	2250.0	2.0	11.0	go	non-target	B	71,Index Finger	89,Middle Finger	500.0	500.0	2250.0	2250.0	1.0	n/a	500.0	1.0	go_stim
56925.129014000006	1170.8709859999999	n/a	673	89	2750	1170.870986	stim	stop-signal	30	149427	0.0-7.11-1.11	beast_fmri_test	336	147065,/,147745,/,148424,/,149105,/,149784,/,150464,/	t,t,t,t,t,t	<img class = center src='/static/experiments/beast_fmri_test/images/B.png'></img>	71,89	2750.0	test	<img class = center src='/static/experiments/beast_fmri_test/images/redB.png'></img>	go	2250.0	2.0	11.0	go	non-target	B	71,Index Finger	89,Middle Finger	500.0	500.0	2250.0	2250.0	1.0	n/a	500.0	1.0	ITI
59776	500	n/a	-1	-1	500	0.0	fixation	poldrack-single-stim	31	151107	0.0-7.12-0.12	beast_fmri_test	336	n/a	n/a	<div class = centerbox2><div class = fixation>+</div></div>	none	500.0	test	n/a	n/a	n/a	n/a	n/a	n/a	n/a	n/a	n/a	n/a	n/a	n/a	n/a	n/a	n/a	n/a	n/a	n/a	fixation
59681.044896050007	500.0	n/a	994	71	2750	95.95510395	stim	stop-signal	32	153858	0.0-7.12-1.12	beast_fmri_test	336	151143,/,151824,/,152503,/,153183,/,153861,/	t,t,t,t,t	<img class = center src='/static/experiments/beast_fmri_test/images/P.png'></img>	71,89	2750.0	test	<img class = center src='/static/experiments/beast_fmri_test/images/redP.png'></img>	stop	2250.0	2.0	12.0	stop	target	P	71,Index Finger	89,Middle Finger	500.0	500.0	2250.0	2250.0	0.0	0.0	500.0	n/a	go_stim
61931.044896050007	2250.0	n/a	994	71	2750	95.95510395	stim	stop-signal	32	153858	0.0-7.12-1.12	beast_fmri_test	336	151143,/,151824,/,152503,/,153183,/,153861,/	t,t,t,t,t	<img class = center src='/static/experiments/beast_fmri_test/images/P.png'></img>	71,89	2750.0	test	<img class = center src='/static/experiments/beast_fmri_test/images/redP.png'></img>	stop	2250.0	2.0	12.0	stop	target	P	71,Index Finger	89,Middle Finger	500.0	500.0	2250.0	2250.0	0.0	0.0	500.0	n/a	stop_stim
62431.044896050007	95.955103949999994	n/a	994	71	2750	95.95510395	stim	stop-signal	32	153858	0.0-7.12-1.12	beast_fmri_test	336	151143,/,151824,/,152503,/,153183,/,153861,/	t,t,t,t,t	<img class = center src='/static/experiments/beast_fmri_test/images/P.png'></img>	71,89	2750.0	test	<img class = center src='/static/experiments/beast_fmri_test/images/redP.png'></img>	stop	2250.0	2.0	12.0	stop	target	P	71,Index Finger	89,Middle Finger	500.0	500.0	2250.0	2250.0	0.0	0.0	500.0	n/a	ITI
63131	500	n/a	-1	-1	500	0.0	fixation	poldrack-single-stim	33	154462	0.0-7.13-0.13	beast_fmri_test	336	n/a	n/a	<div class = centerbox2><div class = fixation>+</div></div>	none	500.0	test	n/a	n/a	n/a	n/a	n/a	n/a	n/a	n/a	n/a	n/a	n/a	n/a	n/a	n/a	n/a	n/a	n/a	n/a	fixation
61595.21987500001	2750	n/a	1063	89	2750	1537.780125	stim	stop-signal	34	157214	0.0-7.13-1.13	beast_fmri_test	336	154542,/,155222,/,155901,/,156581,/,157260,/,157941,/,158621,/	t,t,t,t,t,t,t	<img class = center src='/static/experiments/beast_fmri_test/images/B.png'></img>	71,89	2750.0	test	<img class = center src='/static/experiments/beast_fmri_test/images/redB.png'></img>	go	2300.0	2.0	13.0	go	target	B	71,Index Finger	89,Middle Finger	450.0	500.0	2300.0	2250.0	0.0	n/a	450.0	0.0	go_stim
64345.21987500001	1537.780125	n/a	1063	89	2750	1537.780125	stim	stop-signal	34	157214	0.0-7.13-1.13	beast_fmri_test	336	154542,/,155222,/,155901,/,156581,/,157260,/,157941,/,158621,/	t,t,t,t,t,t,t	<img class = center src='/static/experiments/beast_fmri_test/images/B.png'></img>	71,89	2750.0	test	<img class = center src='/static/experiments/beast_fmri_test/images/redB.png'></img>	go	2300.0	2.0	13.0	go	target	B	71,Index Finger	89,Middle Finger	450.0	500.0	2300.0	2250.0	0.0	n/a	450.0	0.0	ITI
67929	500	n/a	-1	-1	500	0.0	fixation	poldrack-single-stim	35	159260	0.0-7.14-0.14	beast_fmri_test	336	n/a	n/a	<div class = centerbox2><div class = fixation>+</div></div>	none	500.0	test	n/a	n/a	n/a	n/a	n/a	n/a	n/a	n/a	n/a	n/a	n/a	n/a	n/a	n/a	n/a	n/a	n/a	n/a	fixation
65242.972570000013	2750	n/a	716	89	2750	2688.02743	stim	stop-signal	36	162012	0.0-7.14-1.14	beast_fmri_test	336	159299,/,159978,/,160659,/,161340,/,162018,/,162698,/,163378,/,164058,/	t,t,t,t,t,t,t,t	<img class = center src='/static/experiments/beast_fmri_test/images/V.png'></img>	71,89	2750.0	test	<img class = center src='/static/experiments/beast_fmri_test/images/redV.png'></img>	go	2250.0	2.0	14.0	go	non-target	V	71,Index Finger	89,Middle Finger	450.0	500.0	2300.0	2250.0	1.0	n/a	500.0	1.0	go_stim
67992.972570000013	2688.0274300000001	n/a	716	89	2750	2688.02743	stim	stop-signal	36	162012	0.0-7.14-1.14	beast_fmri_test	336	159299,/,159978,/,160659,/,161340,/,162018,/,162698,/,163378,/,164058,/	t,t,t,t,t,t,t,t	<img class = center src='/static/experiments/beast_fmri_test/images/V.png'></img>	71,89	2750.0	test	<img class = center src='/static/experiments/beast_fmri_test/images/redV.png'></img>	go	2250.0	2.0	14.0	go	non-target	V	71,Index Finger	89,Middle Finger	450.0	500.0	2300.0	2250.0	1.0	n/a	500.0	1.0	ITI
73877	500	n/a	-1	-1	500	0.0	fixation	poldrack-single-stim	37	165208	0.0-7.15-0.15	beast_fmri_test	336	164736,/	t	<div class = centerbox2><div class = fixation>+</div></div>	none	500.0	test	n/a	n/a	n/a	n/a	n/a	n/a	n/a	n/a	n/a	n/a	n/a	n/a	n/a	n/a	n/a	n/a	n/a	n/a	fixation
71254.26784700001	2750	n/a	1080	71	2750	2622.732153	stim	stop-signal	38	167958	0.0-7.15-1.15	beast_fmri_test	336	165418,/,166096,/,166776,/,167456,/,168136,/,168815,/,169496,/,170175,/	t,t,t,t,t,t,t,t	<img class = center src='/static/experiments/beast_fmri_test/images/P.png'></img>	71,89	2750.0	test	<img class = center src='/static/experiments/beast_fmri_test/images/redP.png'></img>	go	2250.0	2.0	15.0	go	non-target	P	71,Index Finger	89,Middle Finger	450.0	500.0	2300.0	2250.0	0.0	n/a	500.0	0.0	go_stim
74004.26784700001	2622.7321529999999	n/a	1080	71	2750	2622.732153	stim	stop-signal	38	167958	0.0-7.15-1.15	beast_fmri_test	336	165418,/,166096,/,166776,/,167456,/,168136,/,168815,/,169496,/,170175,/	t,t,t,t,t,t,t,t	<img class = center src='/static/experiments/beast_fmri_test/images/P.png'></img>	71,89	2750.0	test	<img class = center src='/static/experiments/beast_fmri_test/images/redP.png'></img>	go	2250.0	2.0	15.0	go	non-target	P	71,Index Finger	89,Middle Finger	450.0	500.0	2300.0	2250.0	0.0	n/a	500.0	0.0	ITI
79757	500	n/a	-1	-1	500	0.0	fixation	poldrack-single-stim	39	171088	0.0-7.16-0.16	beast_fmri_test	336	170854,/	t	<div class = centerbox2><div class = fixation>+</div></div>	none	500.0	test	n/a	n/a	n/a	n/a	n/a	n/a	n/a	n/a	n/a	n/a	n/a	n/a	n/a	n/a	n/a	n/a	n/a	n/a	fixation
78530.292396000004	500.0	n/a	718	89	2750	1229.707604	stim	stop-signal	40	173841	0.0-7.16-1.16	beast_fmri_test	336	171534,/,172214,/,172894,/,173573,/,174253,/,174933,/	t,t,t,t,t,t	<img class = center src='/static/experiments/beast_fmri_test/images/D.png'></img>	71,89	2750.0	test	<img class = center src='/static/experiments/beast_fmri_test/images/redD.png'></img>	stop	2250.0	2.0	16.0	stop	non-target	D	71,Index Finger	89,Middle Finger	450.0	500.0	2300.0	2250.0	0.0	0.0	500.0	n/a	go_stim
80780.292396000004	2250.0	n/a	718	89	2750	1229.707604	stim	stop-signal	40	173841	0.0-7.16-1.16	beast_fmri_test	336	171534,/,172214,/,172894,/,173573,/,174253,/,174933,/	t,t,t,t,t,t	<img class = center src='/static/experiments/beast_fmri_test/images/D.png'></img>	71,89	2750.0	test	<img class = center src='/static/experiments/beast_fmri_test/images/redD.png'></img>	stop	2250.0	2.0	16.0	stop	non-target	D	71,Index Finger	89,Middle Finger	450.0	500.0	2300.0	2250.0	0.0	0.0	500.0	n/a	stop_stim
81280.292396000004	1229.7076039999999	n/a	718	89	2750	1229.707604	stim	stop-signal	40	173841	0.0-7.16-1.16	beast_fmri_test	336	171534,/,172214,/,172894,/,173573,/,174253,/,174933,/	t,t,t,t,t,t	<img class = center src='/static/experiments/beast_fmri_test/images/D.png'></img>	71,89	2750.0	test	<img class = center src='/static/experiments/beast_fmri_test/images/redD.png'></img>	stop	2250.0	2.0	16.0	stop	non-target	D	71,Index Finger	89,Middle Finger	450.0	500.0	2300.0	2250.0	0.0	0.0	500.0	n/a	ITI
84249	500	n/a	-1	-1	500	0.0	fixation	poldrack-single-stim	41	175580	0.0-7.17-0.17	beast_fmri_test	336	n/a	n/a	<div class = centerbox2><div class = fixation>+</div></div>	none	500.0	test	n/a	n/a	n/a	n/a	n/a	n/a	n/a	n/a	n/a	n/a	n/a	n/a	n/a	n/a	n/a	n/a	n/a	n/a	fixation
83838.015752600011	2750	n/a	1270	89	2750	412.9842474	stim	stop-signal	42	178332	0.0-7.17-1.17	beast_fmri_test	336	175613,/,176292,/,176973,/,177653,/,178333,/	t,t,t,t,t	<img class = center src='/static/experiments/beast_fmri_test/images/T.png'></img>	71,89	2750.0	test	<img class = center src='/static/experiments/beast_fmri_test/images/redT.png'></img>	go	2300.0	2.0	17.0	go	non-target	T	71,Index Finger	89,Middle Finger	450.0	450.0	2300.0	2300.0	1.0	n/a	450.0	1.0	go_stim
86588.015752600011	412.98424740000002	n/a	1270	89	2750	412.9842474	stim	stop-signal	42	178332	0.0-7.17-1.17	beast_fmri_test	336	175613,/,176292,/,176973,/,177653,/,178333,/	t,t,t,t,t	<img class = center src='/static/experiments/beast_fmri_test/images/T.png'></img>	71,89	2750.0	test	<img class = center src='/static/experiments/beast_fmri_test/images/redT.png'></img>	go	2300.0	2.0	17.0	go	non-target	T	71,Index Finger	89,Middle Finger	450.0	450.0	2300.0	2300.0	1.0	n/a	450.0	1.0	ITI
87923	500	n/a	-1	-1	500	0.0	fixation	poldrack-single-stim	43	179254	0.0-7.18-0.18	beast_fmri_test	336	179011,/	t	<div class = centerbox2><div class = fixation>+</div></div>	none	500.0	test	n/a	n/a	n/a	n/a	n/a	n/a	n/a	n/a	n/a	n/a	n/a	n/a	n/a	n/a	n/a	n/a	n/a	n/a	fixation
87923.601622165006	2750	n/a	532	71	2750	0.398377835	stim	stop-signal	44	182005	0.0-7.18-1.18	beast_fmri_test	336	179691,/,180371,/,181050,/,181730,/	t,t,t,t	<img class = center src='/static/experiments/beast_fmri_test/images/D.png'></img>	71,89	2750.0	test	<img class = center src='/static/experiments/beast_fmri_test/images/redD.png'></img>	go	2300.0	2.0	18.0	go	target	D	71,Index Finger	89,Middle Finger	450.0	450.0	2300.0	2300.0	1.0	n/a	450.0	1.0	go_stim
90673.601622165006	0.39837783500000001	n/a	532	71	2750	0.398377835	stim	stop-signal	44	182005	0.0-7.18-1.18	beast_fmri_test	336	179691,/,180371,/,181050,/,181730,/	t,t,t,t	<img class = center src='/static/experiments/beast_fmri_test/images/D.png'></img>	71,89	2750.0	test	<img class = center src='/static/experiments/beast_fmri_test/images/redD.png'></img>	go	2300.0	2.0	18.0	go	target	D	71,Index Finger	89,Middle Finger	450.0	450.0	2300.0	2300.0	1.0	n/a	450.0	1.0	ITI
91188	500	n/a	-1	-1	500	0.0	fixation	poldrack-single-stim	45	182519	0.0-7.19-0.19	beast_fmri_test	336	182410,/	t	<div class = centerbox2><div class = fixation>+</div></div>	none	500.0	test	n/a	n/a	n/a	n/a	n/a	n/a	n/a	n/a	n/a	n/a	n/a	n/a	n/a	n/a	n/a	n/a	n/a	n/a	fixation
90907.502114100003	2750	n/a	876	89	2750	282.4978859	stim	stop-signal	46	185271	0.0-7.19-1.19	beast_fmri_test	336	183090,/,183769,/,184449,/,185128,/	t,t,t,t	<img class = center src='/static/experiments/beast_fmri_test/images/T.png'></img>	71,89	2750.0	test	<img class = center src='/static/experiments/beast_fmri_test/images/redT.png'></img>	go	2300.0	2.0	19.0	go	target	T	71,Index Finger	89,Middle Finger	450.0	450.0	2300.0	2300.0	0.0	n/a	450.0	0.0	go_stim
93657.502114100003	282.49788589999997	n/a	876	89	2750	282.4978859	stim	stop-signal	46	185271	0.0-7.19-1.19	beast_fmri_test	336	183090,/,183769,/,184449,/,185128,/	t,t,t,t	<img class = center src='/static/experiments/beast_fmri_test/images/T.png'></img>	71,89	2750.0	test	<img class = center src='/static/experiments/beast_fmri_test/images/redT.png'></img>	go	2300.0	2.0	19.0	go	target	T	71,Index Finger	89,Middle Finger	450.0	450.0	2300.0	2300.0	0.0	n/a	450.0	0.0	ITI
94734	500	n/a	-1	-1	500	0.0	fixation	poldrack-single-stim	47	186065	0.0-7.20-0.20	beast_fmri_test	336	185807,/	t	<div class = centerbox2><div class = fixation>+</div></div>	none	500.0	test	n/a	n/a	n/a	n/a	n/a	n/a	n/a	n/a	n/a	n/a	n/a	n/a	n/a	n/a	n/a	n/a	n/a	n/a	fixation
93433.423600000009	2750	n/a	685	89	2750	1301.5764	stim	stop-signal	48	188816	0.0-7.20-1.20	beast_fmri_test	336	186486,/,187167,/,187847,/,188526,/,189207,/,189886,/	t,t,t,t,t,t	<img class = center src='/static/experiments/beast_fmri_test/images/V.png'></img>	71,89	2750.0	test	<img class = center src='/static/experiments/beast_fmri_test/images/redV.png'></img>	go	2300.0	2.0	20.0	go	non-target	V	71,Index Finger	89,Middle Finger	450.0	450.0	2300.0	2300.0	1.0	n/a	450.0	1.0	go_stim
96183.423600000009	1301.5763999999999	n/a	685	89	2750	1301.5764	stim	stop-signal	48	188816	0.0-7.20-1.20	beast_fmri_test	336	186486,/,187167,/,187847,/,188526,/,189207,/,189886,/	t,t,t,t,t,t	<img class = center src='/static/experiments/beast_fmri_test/images/V.png'></img>	71,89	2750.0	test	<img class = center src='/static/experiments/beast_fmri_test/images/redV.png'></img>	go	2300.0	2.0	20.0	go	non-target	V	71,Index Finger	89,Middle Finger	450.0	450.0	2300.0	2300.0	1.0	n/a	450.0	1.0	ITI
99295	500	n/a	-1	-1	500	0.0	fixation	poldrack-single-stim	49	190626	0.0-7.21-0.21	beast_fmri_test	336	190565,/	t	<div class = centerbox2><div class = fixation>+</div></div>	none	500.0	test	n/a	n/a	n/a	n/a	n/a	n/a	n/a	n/a	n/a	n/a	n/a	n/a	n/a	n/a	n/a	n/a	n/a	n/a	fixation
97206.867255999998	450.0	n/a	750	71	2750	2090.132744	stim	stop-signal	50	193378	0.0-7.21-1.21	beast_fmri_test	336	191244,/,191925,/,192605,/,193285,/,193964,/,194643,/,195323,/	t,t,t,t,t,t,t	<img class = center src='/static/experiments/beast_fmri_test/images/T.png'></img>	71,89	2750.0	test	<img class = center src='/static/experiments/beast_fmri_test/images/redT.png'></img>	stop	2300.0	2.0	21.0	stop	target	T	71,Index Finger	89,Middle Finger	450.0	450.0	2300.0	2300.0	0.0	0.0	450.0	n/a	go_stim
99506.867255999998	2300.0	n/a	750	71	2750	2090.132744	stim	stop-signal	50	193378	0.0-7.21-1.21	beast_fmri_test	336	191244,/,191925,/,192605,/,193285,/,193964,/,194643,/,195323,/	t,t,t,t,t,t,t	<img class = center src='/static/experiments/beast_fmri_test/images/T.png'></img>	71,89	2750.0	test	<img class = center src='/static/experiments/beast_fmri_test/images/redT.png'></img>	stop	2300.0	2.0	21.0	stop	target	T	71,Index Finger	89,Middle Finger	450.0	450.0	2300.0	2300.0	0.0	0.0	450.0	n/a	stop_stim
99956.867255999998	2090.132744	n/a	750	71	2750	2090.132744	stim	stop-signal	50	193378	0.0-7.21-1.21	beast_fmri_test	336	191244,/,191925,/,192605,/,193285,/,193964,/,194643,/,195323,/	t,t,t,t,t,t,t	<img class = center src='/static/experiments/beast_fmri_test/images/T.png'></img>	71,89	2750.0	test	<img class = center src='/static/experiments/beast_fmri_test/images/redT.png'></img>	stop	2300.0	2.0	21.0	stop	target	T	71,Index Finger	89,Middle Finger	450.0	450.0	2300.0	2300.0	0.0	0.0	450.0	n/a	ITI
104648	500	n/a	-1	-1	500	0.0	fixation	poldrack-single-stim	51	195979	0.0-7.22-0.22	beast_fmri_test	336	n/a	n/a	<div class = centerbox2><div class = fixation>+</div></div>	none	500.0	test	n/a	n/a	n/a	n/a	n/a	n/a	n/a	n/a	n/a	n/a	n/a	n/a	n/a	n/a	n/a	n/a	n/a	n/a	fixation
103285.055471	2750	n/a	757	89	2750	1364.944529	stim	stop-signal	52	198731	0.0-7.22-1.22	beast_fmri_test	336	196005,/,196683,/,197362,/,198042,/,198721,/,199401,/,200082,/	t,t,t,t,t,t,t	<img class = center src='/static/experiments/beast_fmri_test/images/P.png'></img>	71,89	2750.0	test	<img class = center src='/static/experiments/beast_fmri_test/images/redP.png'></img>	go	2300.0	2.0	22.0	go	non-target	P	71,Index Finger	89,Middle Finger	400.0	450.0	2300.0	2300.0	1.0	n/a	450.0	1.0	go_stim
106035.055471	1364.9445289999999	n/a	757	89	2750	1364.944529	stim	stop-signal	52	198731	0.0-7.22-1.22	beast_fmri_test	336	196005,/,196683,/,197362,/,198042,/,198721,/,199401,/,200082,/	t,t,t,t,t,t,t	<img class = center src='/static/experiments/beast_fmri_test/images/P.png'></img>	71,89	2750.0	test	<img class = center src='/static/experiments/beast_fmri_test/images/redP.png'></img>	go	2300.0	2.0	22.0	go	non-target	P	71,Index Finger	89,Middle Finger	400.0	450.0	2300.0	2300.0	1.0	n/a	450.0	1.0	ITI
109275	500	n/a	-1	-1	500	0.0	fixation	poldrack-single-stim	53	200606	0.0-7.23-0.23	beast_fmri_test	336	n/a	n/a	<div class = centerbox2><div class = fixation>+</div></div>	none	500.0	test	n/a	n/a	n/a	n/a	n/a	n/a	n/a	n/a	n/a	n/a	n/a	n/a	n/a	n/a	n/a	n/a	n/a	n/a	fixation
109034.988423	2750	n/a	629	71	2750	242.011577	stim	stop-signal	54	203358	0.0-7.23-1.23	beast_fmri_test	336	200760,/,201441,/,202121,/,202800,/,203479,/	t,t,t,t,t	<img class = center src='/static/experiments/beast_fmri_test/images/T.png'></img>	71,89	2750.0	test	<img class = center src='/static/experiments/beast_fmri_test/images/redT.png'></img>	go	2350.0	2.0	23.0	go	target	T	71,Index Finger	89,Middle Finger	400.0	450.0	2350.0	2300.0	1.0	n/a	400.0	1.0	go_stim
111784.988423	242.01157699999999	n/a	629	71	2750	242.011577	stim	stop-signal	54	203358	0.0-7.23-1.23	beast_fmri_test	336	200760,/,201441,/,202121,/,202800,/,203479,/	t,t,t,t,t	<img class = center src='/static/experiments/beast_fmri_test/images/T.png'></img>	71,89	2750.0	test	<img class = center src='/static/experiments/beast_fmri_test/images/redT.png'></img>	go	2350.0	2.0	23.0	go	target	T	71,Index Finger	89,Middle Finger	400.0	450.0	2350.0	2300.0	1.0	n/a	400.0	1.0	ITI
112781	500	n/a	-1	-1	500	0.0	fixation	poldrack-single-stim	55	204112	0.0-7.24-0.24	beast_fmri_test	336	n/a	n/a	<div class = centerbox2><div class = fixation>+</div></div>	none	500.0	test	n/a	n/a	n/a	n/a	n/a	n/a	n/a	n/a	n/a	n/a	n/a	n/a	n/a	n/a	n/a	n/a	n/a	n/a	fixation
111341.302272	400.0	n/a	-1	-1	2750	1441.697728	stim	stop-signal	56	206864	0.0-7.24-1.24	beast_fmri_test	336	204159,/,204839,/,205519,/,206199,/,206878,/,207558,/,208238,/	t,t,t,t,t,t,t	<img class = center src='/static/experiments/beast_fmri_test/images/P.png'></img>	71,89	2750.0	test	<img class = center src='/static/experiments/beast_fmri_test/images/redP.png'></img>	stop	2350.0	2.0	24.0	stop	target	P	71,Index Finger	89,Middle Finger	400.0	450.0	2350.0	2300.0	0.0	1.0	400.0	n/a	go_stim
113691.302272	2350.0	n/a	-1	-1	2750	1441.697728	stim	stop-signal	56	206864	0.0-7.24-1.24	beast_fmri_test	336	204159,/,204839,/,205519,/,206199,/,206878,/,207558,/,208238,/	t,t,t,t,t,t,t	<img class = center src='/static/experiments/beast_fmri_test/images/P.png'></img>	71,89	2750.0	test	<img class = center src='/static/experiments/beast_fmri_test/images/redP.png'></img>	stop	2350.0	2.0	24.0	stop	target	P	71,Index Finger	89,Middle Finger	400.0	450.0	2350.0	2300.0	0.0	1.0	400.0	n/a	stop_stim
114091.302272	1441.6977279999999	n/a	-1	-1	2750	1441.697728	stim	stop-signal	56	206864	0.0-7.24-1.24	beast_fmri_test	336	204159,/,204839,/,205519,/,206199,/,206878,/,207558,/,208238,/	t,t,t,t,t,t,t	<img class = center src='/static/experiments/beast_fmri_test/images/P.png'></img>	71,89	2750.0	test	<img class = center src='/static/experiments/beast_fmri_test/images/redP.png'></img>	stop	2350.0	2.0	24.0	stop	target	P	71,Index Finger	89,Middle Finger	400.0	450.0	2350.0	2300.0	0.0	1.0	400.0	n/a	ITI
117489	500	n/a	-1	-1	500	0.0	fixation	poldrack-single-stim	57	208820	0.0-7.25-0.25	beast_fmri_test	336	n/a	n/a	<div class = centerbox2><div class = fixation>+</div></div>	none	500.0	test	n/a	n/a	n/a	n/a	n/a	n/a	n/a	n/a	n/a	n/a	n/a	n/a	n/a	n/a	n/a	n/a	n/a	n/a	fixation
117158.8090404	2750	n/a	577	89	2750	332.1909596	stim	stop-signal	58	211572	0.0-7.25-1.25	beast_fmri_test	336	208918,/,209596,/,210277,/,210956,/,211635,/	t,t,t,t,t	<img class = center src='/static/experiments/beast_fmri_test/images/P.png'></img>	71,89	2750.0	test	<img class = center src='/static/experiments/beast_fmri_test/images/redP.png'></img>	go	2300.0	2.0	25.0	go	non-target	P	71,Index Finger	89,Middle Finger	450.0	450.0	2350.0	2300.0	1.0	n/a	450.0	1.0	go_stim
119908.8090404	332.19095960000004	n/a	577	89	2750	332.1909596	stim	stop-signal	58	211572	0.0-7.25-1.25	beast_fmri_test	336	208918,/,209596,/,210277,/,210956,/,211635,/	t,t,t,t,t	<img class = center src='/static/experiments/beast_fmri_test/images/P.png'></img>	71,89	2750.0	test	<img class = center src='/static/experiments/beast_fmri_test/images/redP.png'></img>	go	2300.0	2.0	25.0	go	non-target	P	71,Index Finger	89,Middle Finger	450.0	450.0	2350.0	2300.0	1.0	n/a	450.0	1.0	ITI
121087	500	n/a	-1	-1	500	0.0	fixation	poldrack-single-stim	59	212418	0.0-7.26-0.26	beast_fmri_test	336	212317,/	t	<div class = centerbox2><div class = fixation>+</div></div>	none	500.0	test	n/a	n/a	n/a	n/a	n/a	n/a	n/a	n/a	n/a	n/a	n/a	n/a	n/a	n/a	n/a	n/a	n/a	n/a	fixation
120311.98229489999	2750	n/a	698	89	2750	777.0177051	stim	stop-signal	60	215170	0.0-7.26-1.26	beast_fmri_test	336	212995,/,213675,/,214355,/,215035,/,215714,/	t,t,t,t,t	<img class = center src='/static/experiments/beast_fmri_test/images/V.png'></img>	71,89	2750.0	test	<img class = center src='/static/experiments/beast_fmri_test/images/redV.png'></img>	go	2300.0	2.0	26.0	go	non-target	V	71,Index Finger	89,Middle Finger	450.0	450.0	2350.0	2300.0	1.0	n/a	450.0	1.0	go_stim
123061.98229489999	777.01770509999994	n/a	698	89	2750	777.0177051	stim	stop-signal	60	215170	0.0-7.26-1.26	beast_fmri_test	336	212995,/,213675,/,214355,/,215035,/,215714,/	t,t,t,t,t	<img class = center src='/static/experiments/beast_fmri_test/images/V.png'></img>	71,89	2750.0	test	<img class = center src='/static/experiments/beast_fmri_test/images/redV.png'></img>	go	2300.0	2.0	26.0	go	non-target	V	71,Index Finger	89,Middle Finger	450.0	450.0	2350.0	2300.0	1.0	n/a	450.0	1.0	ITI
125126	500	n/a	-1	-1	500	0.0	fixation	poldrack-single-stim	61	216457	0.0-7.27-0.27	beast_fmri_test	336	216395,/	t	<div class = centerbox2><div class = fixation>+</div></div>	none	500.0	test	n/a	n/a	n/a	n/a	n/a	n/a	n/a	n/a	n/a	n/a	n/a	n/a	n/a	n/a	n/a	n/a	n/a	n/a	fixation
123160.55646299999	2750	n/a	843	89	2750	1968.443537	stim	stop-signal	62	219210	0.0-7.27-1.27	beast_fmri_test	336	217073,/,217754,/,218433,/,219112,/,219793,/,220472,/,221152,/	t,t,t,t,t,t,t	<img class = center src='/static/experiments/beast_fmri_test/images/V.png'></img>	71,89	2750.0	test	<img class = center src='/static/experiments/beast_fmri_test/images/redV.png'></img>	go	2300.0	2.0	27.0	go	non-target	V	71,Index Finger	89,Middle Finger	450.0	450.0	2350.0	2300.0	1.0	n/a	450.0	1.0	go_stim
125910.55646299999	1968.4435370000001	n/a	843	89	2750	1968.443537	stim	stop-signal	62	219210	0.0-7.27-1.27	beast_fmri_test	336	217073,/,217754,/,218433,/,219112,/,219793,/,220472,/,221152,/	t,t,t,t,t,t,t	<img class = center src='/static/experiments/beast_fmri_test/images/V.png'></img>	71,89	2750.0	test	<img class = center src='/static/experiments/beast_fmri_test/images/redV.png'></img>	go	2300.0	2.0	27.0	go	non-target	V	71,Index Finger	89,Middle Finger	450.0	450.0	2350.0	2300.0	1.0	n/a	450.0	1.0	ITI
130357	500	n/a	-1	-1	500	0.0	fixation	poldrack-single-stim	63	221688	0.0-7.28-0.28	beast_fmri_test	336	n/a	n/a	<div class = centerbox2><div class = fixation>+</div></div>	none	500.0	test	n/a	n/a	n/a	n/a	n/a	n/a	n/a	n/a	n/a	n/a	n/a	n/a	n/a	n/a	n/a	n/a	n/a	n/a	fixation
128972.49599900001	2750	n/a	584	89	2750	1387.504001	stim	stop-signal	64	224441	0.0-7.28-1.28	beast_fmri_test	336	221832,/,222510,/,223191,/,223870,/,224550,/,225229,/	t,t,t,t,t,t	<img class = center src='/static/experiments/beast_fmri_test/images/B.png'></img>	71,89	2750.0	test	<img class = center src='/static/experiments/beast_fmri_test/images/redB.png'></img>	go	2300.0	2.0	28.0	go	non-target	B	71,Index Finger	89,Middle Finger	450.0	450.0	2350.0	2300.0	1.0	n/a	450.0	1.0	go_stim
131722.49599900001	1387.504001	n/a	584	89	2750	1387.504001	stim	stop-signal	64	224441	0.0-7.28-1.28	beast_fmri_test	336	221832,/,222510,/,223191,/,223870,/,224550,/,225229,/	t,t,t,t,t,t	<img class = center src='/static/experiments/beast_fmri_test/images/B.png'></img>	71,89	2750.0	test	<img class = center src='/static/experiments/beast_fmri_test/images/redB.png'></img>	go	2300.0	2.0	28.0	go	non-target	B	71,Index Finger	89,Middle Finger	450.0	450.0	2350.0	2300.0	1.0	n/a	450.0	1.0	ITI
135007	500	n/a	-1	-1	500	0.0	fixation	poldrack-single-stim	65	226338	0.0-7.29-0.29	beast_fmri_test	336	225909,/	t	<div class = centerbox2><div class = fixation>+</div></div>	none	500.0	test	n/a	n/a	n/a	n/a	n/a	n/a	n/a	n/a	n/a	n/a	n/a	n/a	n/a	n/a	n/a	n/a	n/a	n/a	fixation
134819.2441672	450.0	n/a	681	89	2750	190.7558328	stim	stop-signal	66	229091	0.0-7.29-1.29	beast_fmri_test	336	226589,/,227269,/,227949,/,228629,/	t,t,t,t	<img class = center src='/static/experiments/beast_fmri_test/images/D.png'></img>	71,89	2750.0	test	<img class = center src='/static/experiments/beast_fmri_test/images/redD.png'></img>	stop	2300.0	2.0	29.0	stop	non-target	D	71,Index Finger	89,Middle Finger	450.0	450.0	2350.0	2300.0	0.0	0.0	450.0	n/a	go_stim
137119.2441672	2300.0	n/a	681	89	2750	190.7558328	stim	stop-signal	66	229091	0.0-7.29-1.29	beast_fmri_test	336	226589,/,227269,/,227949,/,228629,/	t,t,t,t	<img class = center src='/static/experiments/beast_fmri_test/images/D.png'></img>	71,89	2750.0	test	<img class = center src='/static/experiments/beast_fmri_test/images/redD.png'></img>	stop	2300.0	2.0	29.0	stop	non-target	D	71,Index Finger	89,Middle Finger	450.0	450.0	2350.0	2300.0	0.0	0.0	450.0	n/a	stop_stim
137569.2441672	190.75583280000001	n/a	681	89	2750	190.7558328	stim	stop-signal	66	229091	0.0-7.29-1.29	beast_fmri_test	336	226589,/,227269,/,227949,/,228629,/	t,t,t,t	<img class = center src='/static/experiments/beast_fmri_test/images/D.png'></img>	71,89	2750.0	test	<img class = center src='/static/experiments/beast_fmri_test/images/redD.png'></img>	stop	2300.0	2.0	29.0	stop	non-target	D	71,Index Finger	89,Middle Finger	450.0	450.0	2350.0	2300.0	0.0	0.0	450.0	n/a	ITI
138461	500	n/a	-1	-1	500	0.0	fixation	poldrack-single-stim	67	229792	0.0-7.30-0.30	beast_fmri_test	336	229309,/	t	<div class = centerbox2><div class = fixation>+</div></div>	none	500.0	test	n/a	n/a	n/a	n/a	n/a	n/a	n/a	n/a	n/a	n/a	n/a	n/a	n/a	n/a	n/a	n/a	n/a	n/a	fixation
138421.62297215001	2750	n/a	657	89	2750	40.37702785	stim	stop-signal	68	232543	0.0-7.30-1.30	beast_fmri_test	336	229989,/,230668,/,231348,/,232027,/	t,t,t,t	<img class = center src='/static/experiments/beast_fmri_test/images/T.png'></img>	71,89	2750.0	test	<img class = center src='/static/experiments/beast_fmri_test/images/redT.png'></img>	go	2350.0	2.0	30.0	go	non-target	T	71,Index Finger	89,Middle Finger	450.0	400.0	2350.0	2350.0	1.0	n/a	400.0	1.0	go_stim
141171.62297215001	40.377027849999997	n/a	657	89	2750	40.37702785	stim	stop-signal	68	232543	0.0-7.30-1.30	beast_fmri_test	336	229989,/,230668,/,231348,/,232027,/	t,t,t,t	<img class = center src='/static/experiments/beast_fmri_test/images/T.png'></img>	71,89	2750.0	test	<img class = center src='/static/experiments/beast_fmri_test/images/redT.png'></img>	go	2350.0	2.0	30.0	go	non-target	T	71,Index Finger	89,Middle Finger	450.0	400.0	2350.0	2350.0	1.0	n/a	400.0	1.0	ITI
141767	500	n/a	-1	-1	500	0.0	fixation	poldrack-single-stim	69	233098	0.0-7.31-0.31	beast_fmri_test	336	232707,/	t	<div class = centerbox2><div class = fixation>+</div></div>	none	500.0	test	n/a	n/a	n/a	n/a	n/a	n/a	n/a	n/a	n/a	n/a	n/a	n/a	n/a	n/a	n/a	n/a	n/a	n/a	fixation
141132.3106764	2750	n/a	756	89	2750	635.6893236	stim	stop-signal	70	235849	0.0-7.31-1.31	beast_fmri_test	336	233387,/,234067,/,234746,/,235426,/,236105,/	t,t,t,t,t	<img class = center src='/static/experiments/beast_fmri_test/images/D.png'></img>	71,89	2750.0	test	<img class = center src='/static/experiments/beast_fmri_test/images/redD.png'></img>	go	2300.0	2.0	31.0	go	target	D	71,Index Finger	89,Middle Finger	450.0	400.0	2300.0	2350.0	0.0	n/a	450.0	0.0	go_stim
143882.3106764	635.68932360000008	n/a	756	89	2750	635.6893236	stim	stop-signal	70	235849	0.0-7.31-1.31	beast_fmri_test	336	233387,/,234067,/,234746,/,235426,/,236105,/	t,t,t,t,t	<img class = center src='/static/experiments/beast_fmri_test/images/D.png'></img>	71,89	2750.0	test	<img class = center src='/static/experiments/beast_fmri_test/images/redD.png'></img>	go	2300.0	2.0	31.0	go	target	D	71,Index Finger	89,Middle Finger	450.0	400.0	2300.0	2350.0	0.0	n/a	450.0	0.0	ITI
145665	500	n/a	-1	-1	500	0.0	fixation	poldrack-single-stim	71	236996	0.0-7.32-0.32	beast_fmri_test	336	236785,/	t	<div class = centerbox2><div class = fixation>+</div></div>	none	500.0	test	n/a	n/a	n/a	n/a	n/a	n/a	n/a	n/a	n/a	n/a	n/a	n/a	n/a	n/a	n/a	n/a	n/a	n/a	fixation
144589.965375	400.0	n/a	772	71	2750	1076.034625	stim	stop-signal	72	239747	0.0-7.32-1.32	beast_fmri_test	336	237465,/,238145,/,238824,/,239504,/,240184,/	t,t,t,t,t	<img class = center src='/static/experiments/beast_fmri_test/images/D.png'></img>	71,89	2750.0	test	<img class = center src='/static/experiments/beast_fmri_test/images/redD.png'></img>	stop	2350.0	2.0	32.0	stop	non-target	D	71,Index Finger	89,Middle Finger	450.0	400.0	2300.0	2350.0	0.0	0.0	400.0	n/a	go_stim
146939.965375	2350.0	n/a	772	71	2750	1076.034625	stim	stop-signal	72	239747	0.0-7.32-1.32	beast_fmri_test	336	237465,/,238145,/,238824,/,239504,/,240184,/	t,t,t,t,t	<img class = center src='/static/experiments/beast_fmri_test/images/D.png'></img>	71,89	2750.0	test	<img class = center src='/static/experiments/beast_fmri_test/images/redD.png'></img>	stop	2350.0	2.0	32.0	stop	non-target	D	71,Index Finger	89,Middle Finger	450.0	400.0	2300.0	2350.0	0.0	0.0	400.0	n/a	stop_stim
147339.965375	1076.034625	n/a	772	71	2750	1076.034625	stim	stop-signal	72	239747	0.0-7.32-1.32	beast_fmri_test	336	237465,/,238145,/,238824,/,239504,/,240184,/	t,t,t,t,t	<img class = center src='/static/experiments/beast_fmri_test/images/D.png'></img>	71,89	2750.0	test	<img class = center src='/static/experiments/beast_fmri_test/images/redD.png'></img>	stop	2350.0	2.0	32.0	stop	non-target	D	71,Index Finger	89,Middle Finger	450.0	400.0	2300.0	2350.0	0.0	0.0	400.0	n/a	ITI
150006	500	n/a	-1	-1	500	0.0	fixation	poldrack-single-stim	73	241337	0.0-7.33-0.33	beast_fmri_test	336	240862,/	t	<div class = centerbox2><div class = fixation>+</div></div>	none	500.0	test	n/a	n/a	n/a	n/a	n/a	n/a	n/a	n/a	n/a	n/a	n/a	n/a	n/a	n/a	n/a	n/a	n/a	n/a	fixation
149184.2060679	2750	n/a	884	89	2750	822.7939321	stim	stop-signal	74	244088	0.0-7.33-1.33	beast_fmri_test	336	241541,/,242225,/,242902,/,243582,/,244261,/	t,t,t,t,t	<img class = center src='/static/experiments/beast_fmri_test/images/B.png'></img>	71,89	2750.0	test	<img class = center src='/static/experiments/beast_fmri_test/images/redB.png'></img>	go	2400.0	2.0	33.0	go	non-target	B	71,Index Finger	89,Middle Finger	450.0	350.0	2300.0	2400.0	1.0	n/a	350.0	1.0	go_stim
151934.2060679	822.79393210000001	n/a	884	89	2750	822.7939321	stim	stop-signal	74	244088	0.0-7.33-1.33	beast_fmri_test	336	241541,/,242225,/,242902,/,243582,/,244261,/	t,t,t,t,t	<img class = center src='/static/experiments/beast_fmri_test/images/B.png'></img>	71,89	2750.0	test	<img class = center src='/static/experiments/beast_fmri_test/images/redB.png'></img>	go	2400.0	2.0	33.0	go	non-target	B	71,Index Finger	89,Middle Finger	450.0	350.0	2300.0	2400.0	1.0	n/a	350.0	1.0	ITI
154091	500	n/a	-1	-1	500	0.0	fixation	poldrack-single-stim	75	245422	0.0-7.34-0.34	beast_fmri_test	336	244942,/	t	<div class = centerbox2><div class = fixation>+</div></div>	none	500.0	test	n/a	n/a	n/a	n/a	n/a	n/a	n/a	n/a	n/a	n/a	n/a	n/a	n/a	n/a	n/a	n/a	n/a	n/a	fixation
153243.334317	2750	n/a	702	89	2750	849.665683	stim	stop-signal	76	248174	0.0-7.34-1.34	beast_fmri_test	336	245620,/,246300,/,246980,/,247659,/,248338,/,249019,/	t,t,t,t,t,t	<img class = center src='/static/experiments/beast_fmri_test/images/T.png'></img>	71,89	2750.0	test	<img class = center src='/static/experiments/beast_fmri_test/images/redT.png'></img>	go	2400.0	2.0	34.0	go	non-target	T	71,Index Finger	89,Middle Finger	450.0	350.0	2300.0	2400.0	1.0	n/a	350.0	1.0	go_stim
155993.334317	849.66568300000006	n/a	702	89	2750	849.665683	stim	stop-signal	76	248174	0.0-7.34-1.34	beast_fmri_test	336	245620,/,246300,/,246980,/,247659,/,248338,/,249019,/	t,t,t,t,t,t	<img class = center src='/static/experiments/beast_fmri_test/images/T.png'></img>	71,89	2750.0	test	<img class = center src='/static/experiments/beast_fmri_test/images/redT.png'></img>	go	2400.0	2.0	34.0	go	non-target	T	71,Index Finger	89,Middle Finger	450.0	350.0	2300.0	2400.0	1.0	n/a	350.0	1.0	ITI
158204	500	n/a	-1	-1	500	0.0	fixation	poldrack-single-stim	77	249535	0.0-7.35-0.35	beast_fmri_test	336	n/a	n/a	<div class = centerbox2><div class = fixation>+</div></div>	none	500.0	test	n/a	n/a	n/a	n/a	n/a	n/a	n/a	n/a	n/a	n/a	n/a	n/a	n/a	n/a	n/a	n/a	n/a	n/a	fixation
158163.98045338001	2750	n/a	659	89	2750	41.01954662	stim	stop-signal	78	252286	0.0-7.35-1.35	beast_fmri_test	336	249699,/,250378,/,251058,/,251737,/	t,t,t,t	<img class = center src='/static/experiments/beast_fmri_test/images/V.png'></img>	71,89	2750.0	test	<img class = center src='/static/experiments/beast_fmri_test/images/redV.png'></img>	go	2400.0	2.0	35.0	go	non-target	V	71,Index Finger	89,Middle Finger	450.0	350.0	2300.0	2400.0	1.0	n/a	350.0	1.0	go_stim
160913.98045338001	41.01954662	n/a	659	89	2750	41.01954662	stim	stop-signal	78	252286	0.0-7.35-1.35	beast_fmri_test	336	249699,/,250378,/,251058,/,251737,/	t,t,t,t	<img class = center src='/static/experiments/beast_fmri_test/images/V.png'></img>	71,89	2750.0	test	<img class = center src='/static/experiments/beast_fmri_test/images/redV.png'></img>	go	2400.0	2.0	35.0	go	non-target	V	71,Index Finger	89,Middle Finger	450.0	350.0	2300.0	2400.0	1.0	n/a	350.0	1.0	ITI
161512	500	n/a	-1	-1	500	0.0	fixation	poldrack-single-stim	79	252843	0.0-7.36-0.36	beast_fmri_test	336	252416,/	t	<div class = centerbox2><div class = fixation>+</div></div>	none	500.0	test	n/a	n/a	n/a	n/a	n/a	n/a	n/a	n/a	n/a	n/a	n/a	n/a	n/a	n/a	n/a	n/a	n/a	n/a	fixation
161071.48409700001	350.0	n/a	699	89	2750	441.515903	stim	stop-signal	80	255594	0.0-7.36-1.36	beast_fmri_test	336	253097,/,253777,/,254456,/,255136,/,255816,/	t,t,t,t,t	<img class = center src='/static/experiments/beast_fmri_test/images/P.png'></img>	71,89	2750.0	test	<img class = center src='/static/experiments/beast_fmri_test/images/redP.png'></img>	stop	2400.0	2.0	36.0	stop	non-target	P	71,Index Finger	89,Middle Finger	450.0	350.0	2300.0	2400.0	0.0	0.0	350.0	n/a	go_stim
163471.48409700001	2400.0	n/a	699	89	2750	441.515903	stim	stop-signal	80	255594	0.0-7.36-1.36	beast_fmri_test	336	253097,/,253777,/,254456,/,255136,/,255816,/	t,t,t,t,t	<img class = center src='/static/experiments/beast_fmri_test/images/P.png'></img>	71,89	2750.0	test	<img class = center src='/static/experiments/beast_fmri_test/images/redP.png'></img>	stop	2400.0	2.0	36.0	stop	non-target	P	71,Index Finger	89,Middle Finger	450.0	350.0	2300.0	2400.0	0.0	0.0	350.0	n/a	stop_stim
163821.48409700001	441.51590300000004	n/a	699	89	2750	441.515903	stim	stop-signal	80	255594	0.0-7.36-1.36	beast_fmri_test	336	253097,/,253777,/,254456,/,255136,/,255816,/	t,t,t,t,t	<img class = center src='/static/experiments/beast_fmri_test/images/P.png'></img>	71,89	2750.0	test	<img class = center src='/static/experiments/beast_fmri_test/images/redP.png'></img>	stop	2400.0	2.0	36.0	stop	non-target	P	71,Index Finger	89,Middle Finger	450.0	350.0	2300.0	2400.0	0.0	0.0	350.0	n/a	ITI
165218	500	n/a	-1	-1	500	0.0	fixation	poldrack-single-stim	81	256549	0.0-7.37-0.37	beast_fmri_test	336	256497,/	t	<div class = centerbox2><div class = fixation>+</div></div>	none	500.0	test	n/a	n/a	n/a	n/a	n/a	n/a	n/a	n/a	n/a	n/a	n/a	n/a	n/a	n/a	n/a	n/a	n/a	n/a	fixation
164940.4689903	300.0	n/a	-1	-1	2750	279.5310097	stim	stop-signal	82	259301	0.0-7.37-1.37	beast_fmri_test	336	257175,/,257856,/,258536,/,259216,/	t,t,t,t	<img class = center src='/static/experiments/beast_fmri_test/images/B.png'></img>	71,89	2750.0	test	<img class = center src='/static/experiments/beast_fmri_test/images/redB.png'></img>	stop	2450.0	2.0	37.0	stop	non-target	B	71,Index Finger	89,Middle Finger	450.0	300.0	2300.0	2450.0	0.0	1.0	300.0	n/a	go_stim
167390.4689903	2450.0	n/a	-1	-1	2750	279.5310097	stim	stop-signal	82	259301	0.0-7.37-1.37	beast_fmri_test	336	257175,/,257856,/,258536,/,259216,/	t,t,t,t	<img class = center src='/static/experiments/beast_fmri_test/images/B.png'></img>	71,89	2750.0	test	<img class = center src='/static/experiments/beast_fmri_test/images/redB.png'></img>	stop	2450.0	2.0	37.0	stop	non-target	B	71,Index Finger	89,Middle Finger	450.0	300.0	2300.0	2450.0	0.0	1.0	300.0	n/a	stop_stim
167690.4689903	279.53100970000003	n/a	-1	-1	2750	279.5310097	stim	stop-signal	82	259301	0.0-7.37-1.37	beast_fmri_test	336	257175,/,257856,/,258536,/,259216,/	t,t,t,t	<img class = center src='/static/experiments/beast_fmri_test/images/B.png'></img>	71,89	2750.0	test	<img class = center src='/static/experiments/beast_fmri_test/images/redB.png'></img>	stop	2450.0	2.0	37.0	stop	non-target	B	71,Index Finger	89,Middle Finger	450.0	300.0	2300.0	2450.0	0.0	1.0	300.0	n/a	ITI
168764	500	n/a	-1	-1	500	0.0	fixation	poldrack-single-stim	83	260095	0.0-7.38-0.38	beast_fmri_test	336	259894,/	t	<div class = centerbox2><div class = fixation>+</div></div>	none	500.0	test	n/a	n/a	n/a	n/a	n/a	n/a	n/a	n/a	n/a	n/a	n/a	n/a	n/a	n/a	n/a	n/a	n/a	n/a	fixation
167508.58140200001	350.0	n/a	-1	-1	2750	1257.418598	stim	stop-signal	84	262847	0.0-7.38-1.38	beast_fmri_test	336	260574,/,261253,/,261934,/,262613,/,263292,/,263972,/	t,t,t,t,t,t	<img class = center src='/static/experiments/beast_fmri_test/images/D.png'></img>	71,89	2750.0	test	<img class = center src='/static/experiments/beast_fmri_test/images/redD.png'></img>	stop	2400.0	2.0	38.0	stop	non-target	D	71,Index Finger	89,Middle Finger	450.0	350.0	2300.0	2400.0	0.0	1.0	350.0	n/a	go_stim
169908.58140200001	2400.0	n/a	-1	-1	2750	1257.418598	stim	stop-signal	84	262847	0.0-7.38-1.38	beast_fmri_test	336	260574,/,261253,/,261934,/,262613,/,263292,/,263972,/	t,t,t,t,t,t	<img class = center src='/static/experiments/beast_fmri_test/images/D.png'></img>	71,89	2750.0	test	<img class = center src='/static/experiments/beast_fmri_test/images/redD.png'></img>	stop	2400.0	2.0	38.0	stop	non-target	D	71,Index Finger	89,Middle Finger	450.0	350.0	2300.0	2400.0	0.0	1.0	350.0	n/a	stop_stim
170258.58140200001	1257.418598	n/a	-1	-1	2750	1257.418598	stim	stop-signal	84	262847	0.0-7.38-1.38	beast_fmri_test	336	260574,/,261253,/,261934,/,262613,/,263292,/,263972,/	t,t,t,t,t,t	<img class = center src='/static/experiments/beast_fmri_test/images/D.png'></img>	71,89	2750.0	test	<img class = center src='/static/experiments/beast_fmri_test/images/redD.png'></img>	stop	2400.0	2.0	38.0	stop	non-target	D	71,Index Finger	89,Middle Finger	450.0	350.0	2300.0	2400.0	0.0	1.0	350.0	n/a	ITI
173289	500	n/a	-1	-1	500	0.0	fixation	poldrack-single-stim	85	264620	0.0-7.39-0.39	beast_fmri_test	336	n/a	n/a	<div class = centerbox2><div class = fixation>+</div></div>	none	500.0	test	n/a	n/a	n/a	n/a	n/a	n/a	n/a	n/a	n/a	n/a	n/a	n/a	n/a	n/a	n/a	n/a	n/a	n/a	fixation
172352.30860340002	450.0	n/a	492	71	2750	937.6913966	stim	stop-signal	86	267371	0.0-7.39-1.39	beast_fmri_test	336	264651,/,265332,/,266011,/,266691,/,267372,/,268051,/	t,t,t,t,t,t	<img class = center src='/static/experiments/beast_fmri_test/images/B.png'></img>	71,89	2750.0	test	<img class = center src='/static/experiments/beast_fmri_test/images/redB.png'></img>	stop	2300.0	2.0	39.0	stop	target	B	71,Index Finger	89,Middle Finger	450.0	400.0	2300.0	2400.0	0.0	0.0	450.0	n/a	go_stim
174652.30860340002	2300.0	n/a	492	71	2750	937.6913966	stim	stop-signal	86	267371	0.0-7.39-1.39	beast_fmri_test	336	264651,/,265332,/,266011,/,266691,/,267372,/,268051,/	t,t,t,t,t,t	<img class = center src='/static/experiments/beast_fmri_test/images/B.png'></img>	71,89	2750.0	test	<img class = center src='/static/experiments/beast_fmri_test/images/redB.png'></img>	stop	2300.0	2.0	39.0	stop	target	B	71,Index Finger	89,Middle Finger	450.0	400.0	2300.0	2400.0	0.0	0.0	450.0	n/a	stop_stim
175102.30860340002	937.69139659999996	n/a	492	71	2750	937.6913966	stim	stop-signal	86	267371	0.0-7.39-1.39	beast_fmri_test	336	264651,/,265332,/,266011,/,266691,/,267372,/,268051,/	t,t,t,t,t,t	<img class = center src='/static/experiments/beast_fmri_test/images/B.png'></img>	71,89	2750.0	test	<img class = center src='/static/experiments/beast_fmri_test/images/redB.png'></img>	stop	2300.0	2.0	39.0	stop	target	B	71,Index Finger	89,Middle Finger	450.0	400.0	2300.0	2400.0	0.0	0.0	450.0	n/a	ITI
177491	500	n/a	-1	-1	500	0.0	fixation	poldrack-single-stim	87	268822	0.0-7.40-0.40	beast_fmri_test	336	268730,/	t	<div class = centerbox2><div class = fixation>+</div></div>	none	500.0	test	n/a	n/a	n/a	n/a	n/a	n/a	n/a	n/a	n/a	n/a	n/a	n/a	n/a	n/a	n/a	n/a	n/a	n/a	fixation
176293.926637	400.0	n/a	-1	-1	2750	1198.073363	stim	stop-signal	88	271573	0.0-7.40-1.40	beast_fmri_test	336	269410,/,270089,/,270769,/,271450,/,272129,/	t,t,t,t,t	<img class = center src='/static/experiments/beast_fmri_test/images/P.png'></img>	71,89	2750.0	test	<img class = center src='/static/experiments/beast_fmri_test/images/redP.png'></img>	stop	2350.0	2.0	40.0	stop	non-target	P	71,Index Finger	89,Middle Finger	400.0	400.0	2300.0	2350.0	0.0	1.0	400.0	n/a	go_stim
178643.926637	2350.0	n/a	-1	-1	2750	1198.073363	stim	stop-signal	88	271573	0.0-7.40-1.40	beast_fmri_test	336	269410,/,270089,/,270769,/,271450,/,272129,/	t,t,t,t,t	<img class = center src='/static/experiments/beast_fmri_test/images/P.png'></img>	71,89	2750.0	test	<img class = center src='/static/experiments/beast_fmri_test/images/redP.png'></img>	stop	2350.0	2.0	40.0	stop	non-target	P	71,Index Finger	89,Middle Finger	400.0	400.0	2300.0	2350.0	0.0	1.0	400.0	n/a	stop_stim
179043.926637	1198.073363	n/a	-1	-1	2750	1198.073363	stim	stop-signal	88	271573	0.0-7.40-1.40	beast_fmri_test	336	269410,/,270089,/,270769,/,271450,/,272129,/	t,t,t,t,t	<img class = center src='/static/experiments/beast_fmri_test/images/P.png'></img>	71,89	2750.0	test	<img class = center src='/static/experiments/beast_fmri_test/images/redP.png'></img>	stop	2350.0	2.0	40.0	stop	non-target	P	71,Index Finger	89,Middle Finger	400.0	400.0	2300.0	2350.0	0.0	1.0	400.0	n/a	ITI
181956	500	n/a	-1	-1	500	0.0	fixation	poldrack-single-stim	89	273287	0.0-7.41-0.41	beast_fmri_test	336	272807,/	t	<div class = centerbox2><div class = fixation>+</div></div>	none	500.0	test	n/a	n/a	n/a	n/a	n/a	n/a	n/a	n/a	n/a	n/a	n/a	n/a	n/a	n/a	n/a	n/a	n/a	n/a	fixation
181603.34119290003	2750	n/a	751	89	2750	354.6588071	stim	stop-signal	90	276039	0.0-7.41-1.41	beast_fmri_test	336	273488,/,274168,/,274847,/,275526,/,276206,/	t,t,t,t,t	<img class = center src='/static/experiments/beast_fmri_test/images/D.png'></img>	71,89	2750.0	test	<img class = center src='/static/experiments/beast_fmri_test/images/redD.png'></img>	go	2300.0	2.0	41.0	go	non-target	D	71,Index Finger	89,Middle Finger	400.0	450.0	2300.0	2300.0	1.0	n/a	450.0	1.0	go_stim
184353.34119290003	354.65880710000005	n/a	751	89	2750	354.6588071	stim	stop-signal	90	276039	0.0-7.41-1.41	beast_fmri_test	336	273488,/,274168,/,274847,/,275526,/,276206,/	t,t,t,t,t	<img class = center src='/static/experiments/beast_fmri_test/images/D.png'></img>	71,89	2750.0	test	<img class = center src='/static/experiments/beast_fmri_test/images/redD.png'></img>	go	2300.0	2.0	41.0	go	non-target	D	71,Index Finger	89,Middle Finger	400.0	450.0	2300.0	2300.0	1.0	n/a	450.0	1.0	ITI
185574	500	n/a	-1	-1	500	0.0	fixation	poldrack-single-stim	91	276905	0.0-7.42-0.42	beast_fmri_test	336	276886,/	t	<div class = centerbox2><div class = fixation>+</div></div>	none	500.0	test	n/a	n/a	n/a	n/a	n/a	n/a	n/a	n/a	n/a	n/a	n/a	n/a	n/a	n/a	n/a	n/a	n/a	n/a	fixation
184258.48929499998	2750	n/a	766	71	2750	1316.510705	stim	stop-signal	92	279656	0.0-7.42-1.42	beast_fmri_test	336	277566,/,278246,/,278925,/,279604,/,280284,/,280963,/	t,t,t,t,t,t	<img class = center src='/static/experiments/beast_fmri_test/images/P.png'></img>	71,89	2750.0	test	<img class = center src='/static/experiments/beast_fmri_test/images/redP.png'></img>	go	2350.0	2.0	42.0	go	target	P	71,Index Finger	89,Middle Finger	400.0	450.0	2350.0	2300.0	1.0	n/a	400.0	1.0	go_stim
187008.48929499998	1316.5107050000001	n/a	766	71	2750	1316.510705	stim	stop-signal	92	279656	0.0-7.42-1.42	beast_fmri_test	336	277566,/,278246,/,278925,/,279604,/,280284,/,280963,/	t,t,t,t,t,t	<img class = center src='/static/experiments/beast_fmri_test/images/P.png'></img>	71,89	2750.0	test	<img class = center src='/static/experiments/beast_fmri_test/images/redP.png'></img>	go	2350.0	2.0	42.0	go	target	P	71,Index Finger	89,Middle Finger	400.0	450.0	2350.0	2300.0	1.0	n/a	400.0	1.0	ITI
190156	500	n/a	-1	-1	500	0.0	fixation	poldrack-single-stim	93	281487	0.0-7.43-0.43	beast_fmri_test	336	n/a	n/a	<div class = centerbox2><div class = fixation>+</div></div>	none	500.0	test	n/a	n/a	n/a	n/a	n/a	n/a	n/a	n/a	n/a	n/a	n/a	n/a	n/a	n/a	n/a	n/a	n/a	n/a	fixation
189928.05657160003	450.0	n/a	924	89	2750	230.9434284	stim	stop-signal	94	284240	0.0-7.43-1.43	beast_fmri_test	336	281644,/,282325,/,283004,/,283683,/,284363,/	t,t,t,t,t	<img class = center src='/static/experiments/beast_fmri_test/images/P.png'></img>	71,89	2750.0	test	<img class = center src='/static/experiments/beast_fmri_test/images/redP.png'></img>	stop	2300.0	2.0	43.0	stop	non-target	P	71,Index Finger	89,Middle Finger	400.0	450.0	2350.0	2300.0	0.0	0.0	450.0	n/a	go_stim
192228.05657160003	2300.0	n/a	924	89	2750	230.9434284	stim	stop-signal	94	284240	0.0-7.43-1.43	beast_fmri_test	336	281644,/,282325,/,283004,/,283683,/,284363,/	t,t,t,t,t	<img class = center src='/static/experiments/beast_fmri_test/images/P.png'></img>	71,89	2750.0	test	<img class = center src='/static/experiments/beast_fmri_test/images/redP.png'></img>	stop	2300.0	2.0	43.0	stop	non-target	P	71,Index Finger	89,Middle Finger	400.0	450.0	2350.0	2300.0	0.0	0.0	450.0	n/a	stop_stim
192678.05657160003	230.94342839999999	n/a	924	89	2750	230.9434284	stim	stop-signal	94	284240	0.0-7.43-1.43	beast_fmri_test	336	281644,/,282325,/,283004,/,283683,/,284363,/	t,t,t,t,t	<img class = center src='/static/experiments/beast_fmri_test/images/P.png'></img>	71,89	2750.0	test	<img class = center src='/static/experiments/beast_fmri_test/images/redP.png'></img>	stop	2300.0	2.0	43.0	stop	non-target	P	71,Index Finger	89,Middle Finger	400.0	450.0	2350.0	2300.0	0.0	0.0	450.0	n/a	ITI
193654	500	n/a	-1	-1	500	0.0	fixation	poldrack-single-stim	95	284985	0.0-7.44-0.44	beast_fmri_test	336	n/a	n/a	<div class = centerbox2><div class = fixation>+</div></div>	none	500.0	test	n/a	n/a	n/a	n/a	n/a	n/a	n/a	n/a	n/a	n/a	n/a	n/a	n/a	n/a	n/a	n/a	n/a	n/a	fixation
193579.20466808998	400.0	n/a	-1	-1	2750	76.79533191	stim	stop-signal	96	287737	0.0-7.44-1.44	beast_fmri_test	336	285043,/,285722,/,286402,/,287083,/,287761,/	t,t,t,t,t	<img class = center src='/static/experiments/beast_fmri_test/images/P.png'></img>	71,89	2750.0	test	<img class = center src='/static/experiments/beast_fmri_test/images/redP.png'></img>	stop	2350.0	2.0	44.0	stop	target	P	71,Index Finger	89,Middle Finger	400.0	400.0	2350.0	2300.0	0.0	1.0	400.0	n/a	go_stim
195929.20466808998	2350.0	n/a	-1	-1	2750	76.79533191	stim	stop-signal	96	287737	0.0-7.44-1.44	beast_fmri_test	336	285043,/,285722,/,286402,/,287083,/,287761,/	t,t,t,t,t	<img class = center src='/static/experiments/beast_fmri_test/images/P.png'></img>	71,89	2750.0	test	<img class = center src='/static/experiments/beast_fmri_test/images/redP.png'></img>	stop	2350.0	2.0	44.0	stop	target	P	71,Index Finger	89,Middle Finger	400.0	400.0	2350.0	2300.0	0.0	1.0	400.0	n/a	stop_stim
196329.20466808998	76.795331910000002	n/a	-1	-1	2750	76.79533191	stim	stop-signal	96	287737	0.0-7.44-1.44	beast_fmri_test	336	285043,/,285722,/,286402,/,287083,/,287761,/	t,t,t,t,t	<img class = center src='/static/experiments/beast_fmri_test/images/P.png'></img>	71,89	2750.0	test	<img class = center src='/static/experiments/beast_fmri_test/images/redP.png'></img>	stop	2350.0	2.0	44.0	stop	target	P	71,Index Finger	89,Middle Finger	400.0	400.0	2350.0	2300.0	0.0	1.0	400.0	n/a	ITI
196999	500	n/a	-1	-1	500	0.0	fixation	poldrack-single-stim	97	288330	0.0-7.45-0.45	beast_fmri_test	336	n/a	n/a	<div class = centerbox2><div class = fixation>+</div></div>	none	500.0	test	n/a	n/a	n/a	n/a	n/a	n/a	n/a	n/a	n/a	n/a	n/a	n/a	n/a	n/a	n/a	n/a	n/a	n/a	fixation
195733.41252800002	2750	n/a	1029	71	2750	1267.587472	stim	stop-signal	98	291082	0.0-7.45-1.45	beast_fmri_test	336	288441,/,289122,/,289801,/,290481,/,291161,/,291840,/	t,t,t,t,t,t	<img class = center src='/static/experiments/beast_fmri_test/images/P.png'></img>	71,89	2750.0	test	<img class = center src='/static/experiments/beast_fmri_test/images/redP.png'></img>	go	2300.0	2.0	45.0	go	target	P	71,Index Finger	89,Middle Finger	450.0	400.0	2300.0	2300.0	1.0	n/a	450.0	1.0	go_stim
198483.41252800002	1267.5874720000002	n/a	1029	71	2750	1267.587472	stim	stop-signal	98	291082	0.0-7.45-1.45	beast_fmri_test	336	288441,/,289122,/,289801,/,290481,/,291161,/,291840,/	t,t,t,t,t,t	<img class = center src='/static/experiments/beast_fmri_test/images/P.png'></img>	71,89	2750.0	test	<img class = center src='/static/experiments/beast_fmri_test/images/redP.png'></img>	go	2300.0	2.0	45.0	go	target	P	71,Index Finger	89,Middle Finger	450.0	400.0	2300.0	2300.0	1.0	n/a	450.0	1.0	ITI
201531	500	n/a	-1	-1	500	0.0	fixation	poldrack-single-stim	99	292862	0.0-7.46-0.46	beast_fmri_test	336	292520,/	t	<div class = centerbox2><div class = fixation>+</div></div>	none	500.0	test	n/a	n/a	n/a	n/a	n/a	n/a	n/a	n/a	n/a	n/a	n/a	n/a	n/a	n/a	n/a	n/a	n/a	n/a	fixation
201392.88010240003	2750	n/a	1034	71	2750	140.1198976	stim	stop-signal	100	295614	0.0-7.46-1.46	beast_fmri_test	336	293199,/,293878,/,294558,/,295237,/	t,t,t,t	<img class = center src='/static/experiments/beast_fmri_test/images/P.png'></img>	71,89	2750.0	test	<img class = center src='/static/experiments/beast_fmri_test/images/redP.png'></img>	go	2300.0	2.0	46.0	go	target	P	71,Index Finger	89,Middle Finger	450.0	400.0	2300.0	2300.0	1.0	n/a	450.0	1.0	go_stim
204142.88010240003	140.1198976	n/a	1034	71	2750	140.1198976	stim	stop-signal	100	295614	0.0-7.46-1.46	beast_fmri_test	336	293199,/,293878,/,294558,/,295237,/	t,t,t,t	<img class = center src='/static/experiments/beast_fmri_test/images/P.png'></img>	71,89	2750.0	test	<img class = center src='/static/experiments/beast_fmri_test/images/redP.png'></img>	go	2300.0	2.0	46.0	go	target	P	71,Index Finger	89,Middle Finger	450.0	400.0	2300.0	2300.0	1.0	n/a	450.0	1.0	ITI
219430	15000	n/a	-1	-1	15000	0.0	practice-no-stop-feedback	poldrack-single-stim	101	310761	0.0-8.0	beast_fmri_test	336	295918,/,296598,/,297278,/,297957,/,298636,/,299317,/,299997,/,300676,/,301356,/,302036,/,302715,/,303394,/,304075,/,304754,/,305434,/,306113,/,306793,/,307472,/,308152,/,308832,/,309510,/,310191,/	t,t,t,t,t,t,t,t,t,t,t,t,t,t,t,t,t,t,t,t,t,t	"<div class = ""centerbox""><p class = ""block-text"">Your delay is 2 trials.</p><p class = block-text>Please wait for the scanner to start the block</p></div>"	77	15000.0	n/a	n/a	n/a	n/a	n/a	n/a	n/a	n/a	n/a	n/a	n/a	n/a	n/a	n/a	n/a	n/a	n/a	n/a	n/a	practice-no-stop-feedback
219934	500	n/a	-1	-1	500	0.0	fixation	poldrack-single-stim	102	311265	0.0-9.0-0.0	beast_fmri_test	336	310870,/	t	<div class = centerbox2><div class = fixation>+</div></div>	none	500.0	test	n/a	n/a	n/a	n/a	n/a	n/a	n/a	n/a	n/a	n/a	n/a	n/a	n/a	n/a	n/a	n/a	n/a	n/a	fixation
219934.11923235998	2750	n/a	553	89	2750	1.88076764	stim	stop-signal	103	314017	0.0-9.0-1.0	beast_fmri_test	336	311551,/,312229,/,312909,/,313589,/	t,t,t,t	<img class = center src='/static/experiments/beast_fmri_test/images/V.png'></img>	71,89	2750.0	test	<img class = center src='/static/experiments/beast_fmri_test/images/redV.png'></img>	go	-1.0	2.0	0.0	go	temp-non-target	V	71,Index Finger	89,Middle Finger	450.0	400.0	2300.0	2300.0	0.0	n/a	n/a	n/a	go_stim
222684.11923235998	1.88076764	n/a	553	89	2750	1.88076764	stim	stop-signal	103	314017	0.0-9.0-1.0	beast_fmri_test	336	311551,/,312229,/,312909,/,313589,/	t,t,t,t	<img class = center src='/static/experiments/beast_fmri_test/images/V.png'></img>	71,89	2750.0	test	<img class = center src='/static/experiments/beast_fmri_test/images/redV.png'></img>	go	-1.0	2.0	0.0	go	temp-non-target	V	71,Index Finger	89,Middle Finger	450.0	400.0	2300.0	2300.0	0.0	n/a	n/a	n/a	ITI
223206	500	n/a	-1	-1	500	0.0	fixation	poldrack-single-stim	104	314537	0.0-9.1-0.1	beast_fmri_test	336	314271,/	t	<div class = centerbox2><div class = fixation>+</div></div>	none	500.0	test	n/a	n/a	n/a	n/a	n/a	n/a	n/a	n/a	n/a	n/a	n/a	n/a	n/a	n/a	n/a	n/a	n/a	n/a	fixation
222795.97029119998	2750	n/a	453	89	2750	411.0297088	stim	stop-signal	105	317288	0.0-9.1-1.1	beast_fmri_test	336	314949,/,315630,/,316309,/,316989,/,317668,/	t,t,t,t,t	<img class = center src='/static/experiments/beast_fmri_test/images/D.png'></img>	71,89	2750.0	test	<img class = center src='/static/experiments/beast_fmri_test/images/redD.png'></img>	go	-1.0	2.0	1.0	go	temp-non-target	D	71,Index Finger	89,Middle Finger	450.0	400.0	2300.0	2300.0	0.0	n/a	n/a	n/a	go_stim
225545.97029119998	411.02970879999998	n/a	453	89	2750	411.0297088	stim	stop-signal	105	317288	0.0-9.1-1.1	beast_fmri_test	336	314949,/,315630,/,316309,/,316989,/,317668,/	t,t,t,t,t	<img class = center src='/static/experiments/beast_fmri_test/images/D.png'></img>	71,89	2750.0	test	<img class = center src='/static/experiments/beast_fmri_test/images/redD.png'></img>	go	-1.0	2.0	1.0	go	temp-non-target	D	71,Index Finger	89,Middle Finger	450.0	400.0	2300.0	2300.0	0.0	n/a	n/a	n/a	ITI
226885	500	n/a	-1	-1	500	0.0	fixation	poldrack-single-stim	106	318216	0.0-9.2-0.2	beast_fmri_test	336	n/a	n/a	<div class = centerbox2><div class = fixation>+</div></div>	none	500.0	test	n/a	n/a	n/a	n/a	n/a	n/a	n/a	n/a	n/a	n/a	n/a	n/a	n/a	n/a	n/a	n/a	n/a	n/a	fixation
225985.16064479999	2750	n/a	677	89	2750	901.8393552	stim	stop-signal	107	320968	0.0-9.2-1.2	beast_fmri_test	336	318349,/,319028,/,319708,/,320387,/,321066,/,321746,/	t,t,t,t,t,t	<img class = center src='/static/experiments/beast_fmri_test/images/B.png'></img>	71,89	2750.0	test	<img class = center src='/static/experiments/beast_fmri_test/images/redB.png'></img>	go	2350.0	2.0	2.0	go	non-target	B	71,Index Finger	89,Middle Finger	450.0	400.0	2300.0	2350.0	1.0	n/a	400.0	1.0	go_stim
228735.16064479999	901.83935520000011	n/a	677	89	2750	901.8393552	stim	stop-signal	107	320968	0.0-9.2-1.2	beast_fmri_test	336	318349,/,319028,/,319708,/,320387,/,321066,/,321746,/	t,t,t,t,t,t	<img class = center src='/static/experiments/beast_fmri_test/images/B.png'></img>	71,89	2750.0	test	<img class = center src='/static/experiments/beast_fmri_test/images/redB.png'></img>	go	2350.0	2.0	2.0	go	non-target	B	71,Index Finger	89,Middle Finger	450.0	400.0	2300.0	2350.0	1.0	n/a	400.0	1.0	ITI
231053	500	n/a	-1	-1	500	0.0	fixation	poldrack-single-stim	108	322384	0.0-9.3-0.3	beast_fmri_test	336	n/a	n/a	<div class = centerbox2><div class = fixation>+</div></div>	none	500.0	test	n/a	n/a	n/a	n/a	n/a	n/a	n/a	n/a	n/a	n/a	n/a	n/a	n/a	n/a	n/a	n/a	n/a	n/a	fixation
230084.08947389998	2750	n/a	730	89	2750	971.9105261	stim	stop-signal	109	325137	0.0-9.3-1.3	beast_fmri_test	336	322424,/,323106,/,323785,/,324464,/,325145,/,325823,/	t,t,t,t,t,t	<img class = center src='/static/experiments/beast_fmri_test/images/V.png'></img>	71,89	2750.0	test	<img class = center src='/static/experiments/beast_fmri_test/images/redV.png'></img>	go	2350.0	2.0	3.0	go	non-target	V	71,Index Finger	89,Middle Finger	450.0	400.0	2300.0	2350.0	1.0	n/a	400.0	1.0	go_stim
232834.08947389998	971.91052609999997	n/a	730	89	2750	971.9105261	stim	stop-signal	109	325137	0.0-9.3-1.3	beast_fmri_test	336	322424,/,323106,/,323785,/,324464,/,325145,/,325823,/	t,t,t,t,t,t	<img class = center src='/static/experiments/beast_fmri_test/images/V.png'></img>	71,89	2750.0	test	<img class = center src='/static/experiments/beast_fmri_test/images/redV.png'></img>	go	2350.0	2.0	3.0	go	non-target	V	71,Index Finger	89,Middle Finger	450.0	400.0	2300.0	2350.0	1.0	n/a	400.0	1.0	ITI
235291	500	n/a	-1	-1	500	0.0	fixation	poldrack-single-stim	110	326622	0.0-9.4-0.4	beast_fmri_test	336	326504,/	t	<div class = centerbox2><div class = fixation>+</div></div>	none	500.0	test	n/a	n/a	n/a	n/a	n/a	n/a	n/a	n/a	n/a	n/a	n/a	n/a	n/a	n/a	n/a	n/a	n/a	n/a	fixation
235146.38453500002	2750	n/a	830	89	2750	145.615465	stim	stop-signal	111	329373	0.0-9.4-1.4	beast_fmri_test	336	327183,/,327864,/,328543,/,329223,/	t,t,t,t	<img class = center src='/static/experiments/beast_fmri_test/images/V.png'></img>	71,89	2750.0	test	<img class = center src='/static/experiments/beast_fmri_test/images/redV.png'></img>	go	2350.0	2.0	4.0	go	non-target	V	71,Index Finger	89,Middle Finger	450.0	400.0	2300.0	2350.0	1.0	n/a	400.0	1.0	go_stim
237896.38453500002	145.615465	n/a	830	89	2750	145.615465	stim	stop-signal	111	329373	0.0-9.4-1.4	beast_fmri_test	336	327183,/,327864,/,328543,/,329223,/	t,t,t,t	<img class = center src='/static/experiments/beast_fmri_test/images/V.png'></img>	71,89	2750.0	test	<img class = center src='/static/experiments/beast_fmri_test/images/redV.png'></img>	go	2350.0	2.0	4.0	go	non-target	V	71,Index Finger	89,Middle Finger	450.0	400.0	2300.0	2350.0	1.0	n/a	400.0	1.0	ITI
238706	500	n/a	-1	-1	500	0.0	fixation	poldrack-single-stim	112	330037	0.0-9.5-0.5	beast_fmri_test	336	329903,/	t	<div class = centerbox2><div class = fixation>+</div></div>	none	500.0	test	n/a	n/a	n/a	n/a	n/a	n/a	n/a	n/a	n/a	n/a	n/a	n/a	n/a	n/a	n/a	n/a	n/a	n/a	fixation
238537.92894429999	400.0	n/a	994	89	2750	170.0710557	stim	stop-signal	113	332789	0.0-9.5-1.5	beast_fmri_test	336	330582,/,331262,/,331941,/,332620,/	t,t,t,t	<img class = center src='/static/experiments/beast_fmri_test/images/T.png'></img>	71,89	2750.0	test	<img class = center src='/static/experiments/beast_fmri_test/images/redT.png'></img>	stop	2350.0	2.0	5.0	stop	non-target	T	71,Index Finger	89,Middle Finger	450.0	400.0	2300.0	2350.0	0.0	0.0	400.0	n/a	go_stim
240887.92894429999	2350.0	n/a	994	89	2750	170.0710557	stim	stop-signal	113	332789	0.0-9.5-1.5	beast_fmri_test	336	330582,/,331262,/,331941,/,332620,/	t,t,t,t	<img class = center src='/static/experiments/beast_fmri_test/images/T.png'></img>	71,89	2750.0	test	<img class = center src='/static/experiments/beast_fmri_test/images/redT.png'></img>	stop	2350.0	2.0	5.0	stop	non-target	T	71,Index Finger	89,Middle Finger	450.0	400.0	2300.0	2350.0	0.0	0.0	400.0	n/a	stop_stim
241287.92894429999	170.07105569999999	n/a	994	89	2750	170.0710557	stim	stop-signal	113	332789	0.0-9.5-1.5	beast_fmri_test	336	330582,/,331262,/,331941,/,332620,/	t,t,t,t	<img class = center src='/static/experiments/beast_fmri_test/images/T.png'></img>	71,89	2750.0	test	<img class = center src='/static/experiments/beast_fmri_test/images/redT.png'></img>	stop	2350.0	2.0	5.0	stop	non-target	T	71,Index Finger	89,Middle Finger	450.0	400.0	2300.0	2350.0	0.0	0.0	400.0	n/a	ITI
242146	500	n/a	-1	-1	500	0.0	fixation	poldrack-single-stim	114	333477	0.0-9.6-0.6	beast_fmri_test	336	333301,/	t	<div class = centerbox2><div class = fixation>+</div></div>	none	500.0	test	n/a	n/a	n/a	n/a	n/a	n/a	n/a	n/a	n/a	n/a	n/a	n/a	n/a	n/a	n/a	n/a	n/a	n/a	fixation
242119.49864737003	350.0	n/a	-1	-1	2750	28.50135263	stim	stop-signal	115	336229	0.0-9.6-1.6	beast_fmri_test	336	333981,/,334660,/,335340,/,336019,/	t,t,t,t	<img class = center src='/static/experiments/beast_fmri_test/images/B.png'></img>	71,89	2750.0	test	<img class = center src='/static/experiments/beast_fmri_test/images/redB.png'></img>	stop	2400.0	2.0	6.0	stop	non-target	B	71,Index Finger	89,Middle Finger	450.0	350.0	2300.0	2400.0	0.0	1.0	350.0	n/a	go_stim
244519.49864737003	2400.0	n/a	-1	-1	2750	28.50135263	stim	stop-signal	115	336229	0.0-9.6-1.6	beast_fmri_test	336	333981,/,334660,/,335340,/,336019,/	t,t,t,t	<img class = center src='/static/experiments/beast_fmri_test/images/B.png'></img>	71,89	2750.0	test	<img class = center src='/static/experiments/beast_fmri_test/images/redB.png'></img>	stop	2400.0	2.0	6.0	stop	non-target	B	71,Index Finger	89,Middle Finger	450.0	350.0	2300.0	2400.0	0.0	1.0	350.0	n/a	stop_stim
244869.49864737003	28.50135263	n/a	-1	-1	2750	28.50135263	stim	stop-signal	115	336229	0.0-9.6-1.6	beast_fmri_test	336	333981,/,334660,/,335340,/,336019,/	t,t,t,t	<img class = center src='/static/experiments/beast_fmri_test/images/B.png'></img>	71,89	2750.0	test	<img class = center src='/static/experiments/beast_fmri_test/images/redB.png'></img>	stop	2400.0	2.0	6.0	stop	non-target	B	71,Index Finger	89,Middle Finger	450.0	350.0	2300.0	2400.0	0.0	1.0	350.0	n/a	ITI
245443	500	n/a	-1	-1	500	0.0	fixation	poldrack-single-stim	116	336774	0.0-9.7-0.7	beast_fmri_test	336	336699,/	t	<div class = centerbox2><div class = fixation>+</div></div>	none	500.0	test	n/a	n/a	n/a	n/a	n/a	n/a	n/a	n/a	n/a	n/a	n/a	n/a	n/a	n/a	n/a	n/a	n/a	n/a	fixation
244325.720478	2750	n/a	773	71	2750	1119.279522	stim	stop-signal	117	339526	0.0-9.7-1.7	beast_fmri_test	336	337380,/,338059,/,338739,/,339418,/,340097,/	t,t,t,t,t	<img class = center src='/static/experiments/beast_fmri_test/images/T.png'></img>	71,89	2750.0	test	<img class = center src='/static/experiments/beast_fmri_test/images/redT.png'></img>	go	2300.0	2.0	7.0	go	target	T	71,Index Finger	89,Middle Finger	450.0	400.0	2300.0	2400.0	1.0	n/a	450.0	1.0	go_stim
247075.720478	1119.279522	n/a	773	71	2750	1119.279522	stim	stop-signal	117	339526	0.0-9.7-1.7	beast_fmri_test	336	337380,/,338059,/,338739,/,339418,/,340097,/	t,t,t,t,t	<img class = center src='/static/experiments/beast_fmri_test/images/T.png'></img>	71,89	2750.0	test	<img class = center src='/static/experiments/beast_fmri_test/images/redT.png'></img>	go	2300.0	2.0	7.0	go	target	T	71,Index Finger	89,Middle Finger	450.0	400.0	2300.0	2400.0	1.0	n/a	450.0	1.0	ITI
249830	500	n/a	-1	-1	500	0.0	fixation	poldrack-single-stim	118	341161	0.0-9.8-0.8	beast_fmri_test	336	340776,/	t	<div class = centerbox2><div class = fixation>+</div></div>	none	500.0	test	n/a	n/a	n/a	n/a	n/a	n/a	n/a	n/a	n/a	n/a	n/a	n/a	n/a	n/a	n/a	n/a	n/a	n/a	fixation
248216.80348499998	2750	n/a	965	71	2750	1615.196515	stim	stop-signal	119	343913	0.0-9.8-1.8	beast_fmri_test	336	341455,/,342135,/,342816,/,343497,/,344177,/,344856,/	t,t,t,t,t,t	<img class = center src='/static/experiments/beast_fmri_test/images/B.png'></img>	71,89	2750.0	test	<img class = center src='/static/experiments/beast_fmri_test/images/redB.png'></img>	go	2300.0	2.0	8.0	go	target	B	71,Index Finger	89,Middle Finger	450.0	400.0	2300.0	2400.0	1.0	n/a	450.0	1.0	go_stim
250966.80348499998	1615.1965150000001	n/a	965	71	2750	1615.196515	stim	stop-signal	119	343913	0.0-9.8-1.8	beast_fmri_test	336	341455,/,342135,/,342816,/,343497,/,344177,/,344856,/	t,t,t,t,t,t	<img class = center src='/static/experiments/beast_fmri_test/images/B.png'></img>	71,89	2750.0	test	<img class = center src='/static/experiments/beast_fmri_test/images/redB.png'></img>	go	2300.0	2.0	8.0	go	target	B	71,Index Finger	89,Middle Finger	450.0	400.0	2300.0	2400.0	1.0	n/a	450.0	1.0	ITI
254715	500	n/a	-1	-1	500	0.0	fixation	poldrack-single-stim	120	346046	0.0-9.9-0.9	beast_fmri_test	336	345544,/	t	<div class = centerbox2><div class = fixation>+</div></div>	none	500.0	test	n/a	n/a	n/a	n/a	n/a	n/a	n/a	n/a	n/a	n/a	n/a	n/a	n/a	n/a	n/a	n/a	n/a	n/a	fixation
254341.94871540001	400.0	n/a	-1	-1	2750	375.0512846	stim	stop-signal	121	348798	0.0-9.9-1.9	beast_fmri_test	336	346216,/,346896,/,347575,/,348255,/,348934,/	t,t,t,t,t	<img class = center src='/static/experiments/beast_fmri_test/images/D.png'></img>	71,89	2750.0	test	<img class = center src='/static/experiments/beast_fmri_test/images/redD.png'></img>	stop	2350.0	2.0	9.0	stop	non-target	D	71,Index Finger	89,Middle Finger	450.0	400.0	2300.0	2350.0	0.0	1.0	400.0	n/a	go_stim
256691.94871540001	2350.0	n/a	-1	-1	2750	375.0512846	stim	stop-signal	121	348798	0.0-9.9-1.9	beast_fmri_test	336	346216,/,346896,/,347575,/,348255,/,348934,/	t,t,t,t,t	<img class = center src='/static/experiments/beast_fmri_test/images/D.png'></img>	71,89	2750.0	test	<img class = center src='/static/experiments/beast_fmri_test/images/redD.png'></img>	stop	2350.0	2.0	9.0	stop	non-target	D	71,Index Finger	89,Middle Finger	450.0	400.0	2300.0	2350.0	0.0	1.0	400.0	n/a	stop_stim
257091.94871540001	375.05128460000003	n/a	-1	-1	2750	375.0512846	stim	stop-signal	121	348798	0.0-9.9-1.9	beast_fmri_test	336	346216,/,346896,/,347575,/,348255,/,348934,/	t,t,t,t,t	<img class = center src='/static/experiments/beast_fmri_test/images/D.png'></img>	71,89	2750.0	test	<img class = center src='/static/experiments/beast_fmri_test/images/redD.png'></img>	stop	2350.0	2.0	9.0	stop	non-target	D	71,Index Finger	89,Middle Finger	450.0	400.0	2300.0	2350.0	0.0	1.0	400.0	n/a	ITI
258357	500	n/a	-1	-1	500	0.0	fixation	poldrack-single-stim	122	349688	0.0-9.10-0.10	beast_fmri_test	336	349613,/	t	<div class = centerbox2><div class = fixation>+</div></div>	none	500.0	test	n/a	n/a	n/a	n/a	n/a	n/a	n/a	n/a	n/a	n/a	n/a	n/a	n/a	n/a	n/a	n/a	n/a	n/a	fixation
258340.53979428002	450.0	n/a	-1	-1	2750	17.46020572	stim	stop-signal	123	352439	0.0-9.10-1.10	beast_fmri_test	336	350294,/,350974,/,351653,/,352333,/	t,t,t,t	<img class = center src='/static/experiments/beast_fmri_test/images/B.png'></img>	71,89	2750.0	test	<img class = center src='/static/experiments/beast_fmri_test/images/redB.png'></img>	stop	2300.0	2.0	10.0	stop	target	B	71,Index Finger	89,Middle Finger	450.0	450.0	2300.0	2350.0	0.0	1.0	450.0	n/a	go_stim
260640.53979428002	2300.0	n/a	-1	-1	2750	17.46020572	stim	stop-signal	123	352439	0.0-9.10-1.10	beast_fmri_test	336	350294,/,350974,/,351653,/,352333,/	t,t,t,t	<img class = center src='/static/experiments/beast_fmri_test/images/B.png'></img>	71,89	2750.0	test	<img class = center src='/static/experiments/beast_fmri_test/images/redB.png'></img>	stop	2300.0	2.0	10.0	stop	target	B	71,Index Finger	89,Middle Finger	450.0	450.0	2300.0	2350.0	0.0	1.0	450.0	n/a	stop_stim
261090.53979428002	17.460205720000001	n/a	-1	-1	2750	17.46020572	stim	stop-signal	123	352439	0.0-9.10-1.10	beast_fmri_test	336	350294,/,350974,/,351653,/,352333,/	t,t,t,t	<img class = center src='/static/experiments/beast_fmri_test/images/B.png'></img>	71,89	2750.0	test	<img class = center src='/static/experiments/beast_fmri_test/images/redB.png'></img>	stop	2300.0	2.0	10.0	stop	target	B	71,Index Finger	89,Middle Finger	450.0	450.0	2300.0	2350.0	0.0	1.0	450.0	n/a	ITI
261640	500	n/a	-1	-1	500	0.0	fixation	poldrack-single-stim	124	352971	0.0-9.11-0.11	beast_fmri_test	336	n/a	n/a	<div class = centerbox2><div class = fixation>+</div></div>	none	500.0	test	n/a	n/a	n/a	n/a	n/a	n/a	n/a	n/a	n/a	n/a	n/a	n/a	n/a	n/a	n/a	n/a	n/a	n/a	fixation
261571.04851190001	2750	n/a	563	71	2750	69.9514881	stim	stop-signal	125	355722	0.0-9.11-1.11	beast_fmri_test	336	353011,/,353691,/,354371,/,355050,/,355730,/	t,t,t,t,t	<img class = center src='/static/experiments/beast_fmri_test/images/D.png'></img>	71,89	2750.0	test	<img class = center src='/static/experiments/beast_fmri_test/images/redD.png'></img>	go	2250.0	2.0	11.0	go	target	D	71,Index Finger	89,Middle Finger	500.0	450.0	2250.0	2350.0	1.0	n/a	500.0	1.0	go_stim
264321.04851190001	69.951488099999992	n/a	563	71	2750	69.9514881	stim	stop-signal	125	355722	0.0-9.11-1.11	beast_fmri_test	336	353011,/,353691,/,354371,/,355050,/,355730,/	t,t,t,t,t	<img class = center src='/static/experiments/beast_fmri_test/images/D.png'></img>	71,89	2750.0	test	<img class = center src='/static/experiments/beast_fmri_test/images/redD.png'></img>	go	2250.0	2.0	11.0	go	target	D	71,Index Finger	89,Middle Finger	500.0	450.0	2250.0	2350.0	1.0	n/a	500.0	1.0	ITI
264973	500	n/a	-1	-1	500	0.0	fixation	poldrack-single-stim	126	356304	0.0-9.12-0.12	beast_fmri_test	336	n/a	n/a	<div class = centerbox2><div class = fixation>+</div></div>	none	500.0	test	n/a	n/a	n/a	n/a	n/a	n/a	n/a	n/a	n/a	n/a	n/a	n/a	n/a	n/a	n/a	n/a	n/a	n/a	fixation
262218.44940500002	450.0	n/a	-1	-1	2750	2756.550595	stim	stop-signal	127	359056	0.0-9.12-1.12	beast_fmri_test	336	356411,/,357090,/,357770,/,358450,/,359128,/,359809,/,360489,/,361170,/	t,t,t,t,t,t,t,t	<img class = center src='/static/experiments/beast_fmri_test/images/D.png'></img>	71,89	2750.0	test	<img class = center src='/static/experiments/beast_fmri_test/images/redD.png'></img>	stop	2300.0	2.0	12.0	stop	non-target	D	71,Index Finger	89,Middle Finger	500.0	450.0	2250.0	2300.0	0.0	1.0	450.0	n/a	go_stim
264518.44940500002	2300.0	n/a	-1	-1	2750	2756.550595	stim	stop-signal	127	359056	0.0-9.12-1.12	beast_fmri_test	336	356411,/,357090,/,357770,/,358450,/,359128,/,359809,/,360489,/,361170,/	t,t,t,t,t,t,t,t	<img class = center src='/static/experiments/beast_fmri_test/images/D.png'></img>	71,89	2750.0	test	<img class = center src='/static/experiments/beast_fmri_test/images/redD.png'></img>	stop	2300.0	2.0	12.0	stop	non-target	D	71,Index Finger	89,Middle Finger	500.0	450.0	2250.0	2300.0	0.0	1.0	450.0	n/a	stop_stim
264968.44940500002	2756.5505949999997	n/a	-1	-1	2750	2756.550595	stim	stop-signal	127	359056	0.0-9.12-1.12	beast_fmri_test	336	356411,/,357090,/,357770,/,358450,/,359128,/,359809,/,360489,/,361170,/	t,t,t,t,t,t,t,t	<img class = center src='/static/experiments/beast_fmri_test/images/D.png'></img>	71,89	2750.0	test	<img class = center src='/static/experiments/beast_fmri_test/images/redD.png'></img>	stop	2300.0	2.0	12.0	stop	non-target	D	71,Index Finger	89,Middle Finger	500.0	450.0	2250.0	2300.0	0.0	1.0	450.0	n/a	ITI
270998	500	n/a	-1	-1	500	0.0	fixation	poldrack-single-stim	128	362329	0.0-9.13-0.13	beast_fmri_test	336	361847,/	t	<div class = centerbox2><div class = fixation>+</div></div>	none	500.0	test	n/a	n/a	n/a	n/a	n/a	n/a	n/a	n/a	n/a	n/a	n/a	n/a	n/a	n/a	n/a	n/a	n/a	n/a	fixation
270723.93042589998	500.0	n/a	-1	-1	2750	275.0695741	stim	stop-signal	129	365080	0.0-9.13-1.13	beast_fmri_test	336	362528,/,363208,/,363886,/,364566,/,365247,/	t,t,t,t,t	<img class = center src='/static/experiments/beast_fmri_test/images/B.png'></img>	71,89	2750.0	test	<img class = center src='/static/experiments/beast_fmri_test/images/redB.png'></img>	stop	2250.0	2.0	13.0	stop	non-target	B	71,Index Finger	89,Middle Finger	500.0	500.0	2250.0	2250.0	0.0	1.0	500.0	n/a	go_stim
272973.93042589998	2250.0	n/a	-1	-1	2750	275.0695741	stim	stop-signal	129	365080	0.0-9.13-1.13	beast_fmri_test	336	362528,/,363208,/,363886,/,364566,/,365247,/	t,t,t,t,t	<img class = center src='/static/experiments/beast_fmri_test/images/B.png'></img>	71,89	2750.0	test	<img class = center src='/static/experiments/beast_fmri_test/images/redB.png'></img>	stop	2250.0	2.0	13.0	stop	non-target	B	71,Index Finger	89,Middle Finger	500.0	500.0	2250.0	2250.0	0.0	1.0	500.0	n/a	stop_stim
273473.93042589998	275.06957410000001	n/a	-1	-1	2750	275.0695741	stim	stop-signal	129	365080	0.0-9.13-1.13	beast_fmri_test	336	362528,/,363208,/,363886,/,364566,/,365247,/	t,t,t,t,t	<img class = center src='/static/experiments/beast_fmri_test/images/B.png'></img>	71,89	2750.0	test	<img class = center src='/static/experiments/beast_fmri_test/images/redB.png'></img>	stop	2250.0	2.0	13.0	stop	non-target	B	71,Index Finger	89,Middle Finger	500.0	500.0	2250.0	2250.0	0.0	1.0	500.0	n/a	ITI
274543	500	n/a	-1	-1	500	0.0	fixation	poldrack-single-stim	130	365874	0.0-9.14-0.14	beast_fmri_test	336	n/a	n/a	<div class = centerbox2><div class = fixation>+</div></div>	none	500.0	test	n/a	n/a	n/a	n/a	n/a	n/a	n/a	n/a	n/a	n/a	n/a	n/a	n/a	n/a	n/a	n/a	n/a	n/a	fixation
274451.27984045999	2750	n/a	589	71	2750	93.72015954	stim	stop-signal	131	368626	0.0-9.14-1.14	beast_fmri_test	336	365924,/,366606,/,367286,/,367965,/,368643,/	t,t,t,t,t	<img class = center src='/static/experiments/beast_fmri_test/images/D.png'></img>	71,89	2750.0	test	<img class = center src='/static/experiments/beast_fmri_test/images/redD.png'></img>	go	2250.0	2.0	14.0	go	target	D	71,Index Finger	89,Middle Finger	500.0	550.0	2250.0	2250.0	1.0	n/a	500.0	1.0	go_stim
277201.27984045999	93.720159539999997	n/a	589	71	2750	93.72015954	stim	stop-signal	131	368626	0.0-9.14-1.14	beast_fmri_test	336	365924,/,366606,/,367286,/,367965,/,368643,/	t,t,t,t,t	<img class = center src='/static/experiments/beast_fmri_test/images/D.png'></img>	71,89	2750.0	test	<img class = center src='/static/experiments/beast_fmri_test/images/redD.png'></img>	go	2250.0	2.0	14.0	go	target	D	71,Index Finger	89,Middle Finger	500.0	550.0	2250.0	2250.0	1.0	n/a	500.0	1.0	ITI
277908	500	n/a	-1	-1	500	0.0	fixation	poldrack-single-stim	132	369239	0.0-9.15-0.15	beast_fmri_test	336	n/a	n/a	<div class = centerbox2><div class = fixation>+</div></div>	none	500.0	test	n/a	n/a	n/a	n/a	n/a	n/a	n/a	n/a	n/a	n/a	n/a	n/a	n/a	n/a	n/a	n/a	n/a	n/a	fixation
277185.80658859998	2750	n/a	699	89	2750	723.1934114	stim	stop-signal	133	371990	0.0-9.15-1.15	beast_fmri_test	336	369324,/,370003,/,370684,/,371363,/,372044,/	t,t,t,t,t	<img class = center src='/static/experiments/beast_fmri_test/images/V.png'></img>	71,89	2750.0	test	<img class = center src='/static/experiments/beast_fmri_test/images/redV.png'></img>	go	2200.0	2.0	15.0	go	non-target	V	71,Index Finger	89,Middle Finger	500.0	550.0	2250.0	2200.0	1.0	n/a	550.0	1.0	go_stim
279935.80658859998	723.19341140000006	n/a	699	89	2750	723.1934114	stim	stop-signal	133	371990	0.0-9.15-1.15	beast_fmri_test	336	369324,/,370003,/,370684,/,371363,/,372044,/	t,t,t,t,t	<img class = center src='/static/experiments/beast_fmri_test/images/V.png'></img>	71,89	2750.0	test	<img class = center src='/static/experiments/beast_fmri_test/images/redV.png'></img>	go	2200.0	2.0	15.0	go	non-target	V	71,Index Finger	89,Middle Finger	500.0	550.0	2250.0	2200.0	1.0	n/a	550.0	1.0	ITI
281901	500	n/a	-1	-1	500	0.0	fixation	poldrack-single-stim	134	373232	0.0-9.16-0.16	beast_fmri_test	336	372732,/	t	<div class = centerbox2><div class = fixation>+</div></div>	none	500.0	test	n/a	n/a	n/a	n/a	n/a	n/a	n/a	n/a	n/a	n/a	n/a	n/a	n/a	n/a	n/a	n/a	n/a	n/a	fixation
280969.2307139	500.0	n/a	588	71	2750	933.7692861	stim	stop-signal	135	375984	0.0-9.16-1.16	beast_fmri_test	336	373402,/,374083,/,374763,/,375441,/,376121,/,376801,/	t,t,t,t,t,t	<img class = center src='/static/experiments/beast_fmri_test/images/D.png'></img>	71,89	2750.0	test	<img class = center src='/static/experiments/beast_fmri_test/images/redD.png'></img>	stop	2250.0	2.0	16.0	stop	target	D	71,Index Finger	89,Middle Finger	500.0	550.0	2250.0	2200.0	0.0	0.0	500.0	n/a	go_stim
283219.2307139	2250.0	n/a	588	71	2750	933.7692861	stim	stop-signal	135	375984	0.0-9.16-1.16	beast_fmri_test	336	373402,/,374083,/,374763,/,375441,/,376121,/,376801,/	t,t,t,t,t,t	<img class = center src='/static/experiments/beast_fmri_test/images/D.png'></img>	71,89	2750.0	test	<img class = center src='/static/experiments/beast_fmri_test/images/redD.png'></img>	stop	2250.0	2.0	16.0	stop	target	D	71,Index Finger	89,Middle Finger	500.0	550.0	2250.0	2200.0	0.0	0.0	500.0	n/a	stop_stim
283719.2307139	933.76928609999993	n/a	588	71	2750	933.7692861	stim	stop-signal	135	375984	0.0-9.16-1.16	beast_fmri_test	336	373402,/,374083,/,374763,/,375441,/,376121,/,376801,/	t,t,t,t,t,t	<img class = center src='/static/experiments/beast_fmri_test/images/D.png'></img>	71,89	2750.0	test	<img class = center src='/static/experiments/beast_fmri_test/images/redD.png'></img>	stop	2250.0	2.0	16.0	stop	target	D	71,Index Finger	89,Middle Finger	500.0	550.0	2250.0	2200.0	0.0	0.0	500.0	n/a	ITI
286104	500	n/a	-1	-1	500	0.0	fixation	poldrack-single-stim	136	377435	0.0-9.17-0.17	beast_fmri_test	336	n/a	n/a	<div class = centerbox2><div class = fixation>+</div></div>	none	500.0	test	n/a	n/a	n/a	n/a	n/a	n/a	n/a	n/a	n/a	n/a	n/a	n/a	n/a	n/a	n/a	n/a	n/a	n/a	fixation
286030.27539629	2750	n/a	1174	89	2750	76.72460371	stim	stop-signal	137	380188	0.0-9.17-1.17	beast_fmri_test	336	377481,/,378160,/,378840,/,379520,/,380199,/	t,t,t,t,t	<img class = center src='/static/experiments/beast_fmri_test/images/D.png'></img>	71,89	2750.0	test	<img class = center src='/static/experiments/beast_fmri_test/images/redD.png'></img>	go	2200.0	2.0	17.0	go	non-target	D	71,Index Finger	89,Middle Finger	450.0	550.0	2250.0	2200.0	1.0	n/a	550.0	1.0	go_stim
288780.27539629	76.724603709999997	n/a	1174	89	2750	76.72460371	stim	stop-signal	137	380188	0.0-9.17-1.17	beast_fmri_test	336	377481,/,378160,/,378840,/,379520,/,380199,/	t,t,t,t,t	<img class = center src='/static/experiments/beast_fmri_test/images/D.png'></img>	71,89	2750.0	test	<img class = center src='/static/experiments/beast_fmri_test/images/redD.png'></img>	go	2200.0	2.0	17.0	go	non-target	D	71,Index Finger	89,Middle Finger	450.0	550.0	2250.0	2200.0	1.0	n/a	550.0	1.0	ITI
289453	500	n/a	-1	-1	500	0.0	fixation	poldrack-single-stim	138	380784	0.0-9.18-0.18	beast_fmri_test	336	n/a	n/a	<div class = centerbox2><div class = fixation>+</div></div>	none	500.0	test	n/a	n/a	n/a	n/a	n/a	n/a	n/a	n/a	n/a	n/a	n/a	n/a	n/a	n/a	n/a	n/a	n/a	n/a	fixation
287830.558311	450.0	n/a	-1	-1	2750	1625.441689	stim	stop-signal	139	383537	0.0-9.18-1.18	beast_fmri_test	336	380880,/,381559,/,382239,/,382918,/,383597,/,384278,/,384958,/	t,t,t,t,t,t,t	<img class = center src='/static/experiments/beast_fmri_test/images/D.png'></img>	71,89	2750.0	test	<img class = center src='/static/experiments/beast_fmri_test/images/redD.png'></img>	stop	2300.0	2.0	18.0	stop	target	D	71,Index Finger	89,Middle Finger	450.0	550.0	2300.0	2200.0	0.0	1.0	450.0	n/a	go_stim
290130.558311	2300.0	n/a	-1	-1	2750	1625.441689	stim	stop-signal	139	383537	0.0-9.18-1.18	beast_fmri_test	336	380880,/,381559,/,382239,/,382918,/,383597,/,384278,/,384958,/	t,t,t,t,t,t,t	<img class = center src='/static/experiments/beast_fmri_test/images/D.png'></img>	71,89	2750.0	test	<img class = center src='/static/experiments/beast_fmri_test/images/redD.png'></img>	stop	2300.0	2.0	18.0	stop	target	D	71,Index Finger	89,Middle Finger	450.0	550.0	2300.0	2200.0	0.0	1.0	450.0	n/a	stop_stim
290580.558311	1625.441689	n/a	-1	-1	2750	1625.441689	stim	stop-signal	139	383537	0.0-9.18-1.18	beast_fmri_test	336	380880,/,381559,/,382239,/,382918,/,383597,/,384278,/,384958,/	t,t,t,t,t,t,t	<img class = center src='/static/experiments/beast_fmri_test/images/D.png'></img>	71,89	2750.0	test	<img class = center src='/static/experiments/beast_fmri_test/images/redD.png'></img>	stop	2300.0	2.0	18.0	stop	target	D	71,Index Finger	89,Middle Finger	450.0	550.0	2300.0	2200.0	0.0	1.0	450.0	n/a	ITI
294347	500	n/a	-1	-1	500	0.0	fixation	poldrack-single-stim	140	385678	0.0-9.19-0.19	beast_fmri_test	336	385637,/	t	<div class = centerbox2><div class = fixation>+</div></div>	none	500.0	test	n/a	n/a	n/a	n/a	n/a	n/a	n/a	n/a	n/a	n/a	n/a	n/a	n/a	n/a	n/a	n/a	n/a	n/a	fixation
294317.57362073998	2750	n/a	581	89	2750	31.42637926	stim	stop-signal	141	388430	0.0-9.19-1.19	beast_fmri_test	336	386317,/,386996,/,387676,/,388356,/	t,t,t,t	<img class = center src='/static/experiments/beast_fmri_test/images/V.png'></img>	71,89	2750.0	test	<img class = center src='/static/experiments/beast_fmri_test/images/redV.png'></img>	go	2200.0	2.0	19.0	go	non-target	V	71,Index Finger	89,Middle Finger	500.0	550.0	2300.0	2200.0	1.0	n/a	550.0	1.0	go_stim
297067.57362073998	31.426379260000001	n/a	581	89	2750	31.42637926	stim	stop-signal	141	388430	0.0-9.19-1.19	beast_fmri_test	336	386317,/,386996,/,387676,/,388356,/	t,t,t,t	<img class = center src='/static/experiments/beast_fmri_test/images/V.png'></img>	71,89	2750.0	test	<img class = center src='/static/experiments/beast_fmri_test/images/redV.png'></img>	go	2200.0	2.0	19.0	go	non-target	V	71,Index Finger	89,Middle Finger	500.0	550.0	2300.0	2200.0	1.0	n/a	550.0	1.0	ITI
297647	500	n/a	-1	-1	500	0.0	fixation	poldrack-single-stim	142	388978	0.0-9.20-0.20	beast_fmri_test	336	n/a	n/a	<div class = centerbox2><div class = fixation>+</div></div>	none	500.0	test	n/a	n/a	n/a	n/a	n/a	n/a	n/a	n/a	n/a	n/a	n/a	n/a	n/a	n/a	n/a	n/a	n/a	n/a	fixation
296258.08886399999	2750	n/a	985	89	2750	1389.911136	stim	stop-signal	143	391729	0.0-9.20-1.20	beast_fmri_test	336	389034,/,389715,/,390395,/,391074,/,391754,/,392432,/,393113,/	t,t,t,t,t,t,t	<img class = center src='/static/experiments/beast_fmri_test/images/P.png'></img>	71,89	2750.0	test	<img class = center src='/static/experiments/beast_fmri_test/images/redP.png'></img>	go	2200.0	2.0	20.0	go	non-target	P	71,Index Finger	89,Middle Finger	500.0	550.0	2300.0	2200.0	1.0	n/a	550.0	1.0	go_stim
299008.08886399999	1389.9111359999999	n/a	985	89	2750	1389.911136	stim	stop-signal	143	391729	0.0-9.20-1.20	beast_fmri_test	336	389034,/,389715,/,390395,/,391074,/,391754,/,392432,/,393113,/	t,t,t,t,t,t,t	<img class = center src='/static/experiments/beast_fmri_test/images/P.png'></img>	71,89	2750.0	test	<img class = center src='/static/experiments/beast_fmri_test/images/redP.png'></img>	go	2200.0	2.0	20.0	go	non-target	P	71,Index Finger	89,Middle Finger	500.0	550.0	2300.0	2200.0	1.0	n/a	550.0	1.0	ITI
302306	500	n/a	-1	-1	500	0.0	fixation	poldrack-single-stim	144	393637	0.0-9.21-0.21	beast_fmri_test	336	n/a	n/a	<div class = centerbox2><div class = fixation>+</div></div>	none	500.0	test	n/a	n/a	n/a	n/a	n/a	n/a	n/a	n/a	n/a	n/a	n/a	n/a	n/a	n/a	n/a	n/a	n/a	n/a	fixation
301638.30633689999	2750	n/a	763	89	2750	668.6936631	stim	stop-signal	145	396388	0.0-9.21-1.21	beast_fmri_test	336	393794,/,394473,/,395151,/,395832,/,396510,/	t,t,t,t,t	<img class = center src='/static/experiments/beast_fmri_test/images/D.png'></img>	71,89	2750.0	test	<img class = center src='/static/experiments/beast_fmri_test/images/redD.png'></img>	go	2200.0	2.0	21.0	go	non-target	D	71,Index Finger	89,Middle Finger	500.0	550.0	2300.0	2200.0	1.0	n/a	550.0	1.0	go_stim
304388.30633689999	668.69366309999998	n/a	763	89	2750	668.6936631	stim	stop-signal	145	396388	0.0-9.21-1.21	beast_fmri_test	336	393794,/,394473,/,395151,/,395832,/,396510,/	t,t,t,t,t	<img class = center src='/static/experiments/beast_fmri_test/images/D.png'></img>	71,89	2750.0	test	<img class = center src='/static/experiments/beast_fmri_test/images/redD.png'></img>	go	2200.0	2.0	21.0	go	non-target	D	71,Index Finger	89,Middle Finger	500.0	550.0	2300.0	2200.0	1.0	n/a	550.0	1.0	ITI
306247	500	n/a	-1	-1	500	0.0	fixation	poldrack-single-stim	146	397578	0.0-9.22-0.22	beast_fmri_test	336	397192,/	t	<div class = centerbox2><div class = fixation>+</div></div>	none	500.0	test	n/a	n/a	n/a	n/a	n/a	n/a	n/a	n/a	n/a	n/a	n/a	n/a	n/a	n/a	n/a	n/a	n/a	n/a	fixation
305889.2189942	550.0	n/a	-1	-1	2750	359.7810058	stim	stop-signal	147	400330	0.0-9.22-1.22	beast_fmri_test	336	397870,/,398551,/,399232,/,399910,/,400591,/	t,t,t,t,t	<img class = center src='/static/experiments/beast_fmri_test/images/D.png'></img>	71,89	2750.0	test	<img class = center src='/static/experiments/beast_fmri_test/images/redD.png'></img>	stop	2200.0	2.0	22.0	stop	non-target	D	71,Index Finger	89,Middle Finger	500.0	550.0	2300.0	2200.0	0.0	1.0	550.0	n/a	go_stim
308089.2189942	2200.0	n/a	-1	-1	2750	359.7810058	stim	stop-signal	147	400330	0.0-9.22-1.22	beast_fmri_test	336	397870,/,398551,/,399232,/,399910,/,400591,/	t,t,t,t,t	<img class = center src='/static/experiments/beast_fmri_test/images/D.png'></img>	71,89	2750.0	test	<img class = center src='/static/experiments/beast_fmri_test/images/redD.png'></img>	stop	2200.0	2.0	22.0	stop	non-target	D	71,Index Finger	89,Middle Finger	500.0	550.0	2300.0	2200.0	0.0	1.0	550.0	n/a	stop_stim
