onset	duration	text	rt	key_press	block_duration	timing_post_trial	trial_id	trial_type	trial_index	time_elapsed	internal_node_id	exp_id	subject_id	trigger_times	triggers	stimulus	possible_responses	stim_duration	exp_stage	SS_stimulus	SS_trial_type	SS_duration	load	trial_num	stop_trial_type	adaptive_trial_type	stim	yes_response_key	no_response_key	SSD_target	SSD_non_target	SSTarget	SSNonTarget	go_acc	stop_acc	SS_delay	adaptive_acc	new_trial_type
test	10880	n/a	-1	-1	10880	0.0	practice-no-stop-feedback	poldrack-single-stim	6	28175	0.0-6.0	beast_fmri_test	336	17297,/,17975,/,18655,/,19335,/,20014,/,20694,/,21374,/,22053,/,22732,/,23413,/,24093,/,24771,/,25452,/,26132,/,26811,/,27490,/,28170,/	t,t,t,t,t,t,t,t,t,t,t,t,t,t,t,t,t	"<div class = ""centerbox""><p class = ""block-text"">Your delay is 3 trials.</p><p class = block-text>Please wait for the scanner to start the block</p></div>"	77	10880.0	n/a	n/a	n/a	n/a	n/a	n/a	n/a	n/a	n/a	n/a	n/a	n/a	n/a	n/a	n/a	n/a	n/a	n/a	n/a	start_functional_block
11381	500	n/a	-1	-1	500	0.0	fixation	poldrack-single-stim	7	28678	0.0-7.0-0.0	beast_fmri_test	336	n/a	n/a	<div class = centerbox2><div class = fixation>+</div></div>	none	500.0	test	n/a	n/a	n/a	n/a	n/a	n/a	n/a	n/a	n/a	n/a	n/a	n/a	n/a	n/a	n/a	n/a	n/a	n/a	fixation
8151.6129650000003	2750	n/a	1036	89	2750	3235.387035	stim	stop-signal	8	31434	0.0-7.0-1.0	beast_fmri_test	336	28850,/,29530,/,30210,/,30889,/,31569,/,32247,/,32928,/,33607,/,34288,/	t,t,t,t,t,t,t,t,t	<img class = center src='/static/experiments/beast_fmri_test/images/B.png'></img>	71,89	2750.0	test	<img class = center src='/static/experiments/beast_fmri_test/images/redB.png'></img>	go	-1.0	3.0	0.0	go	temp-non-target	B	71,Index Finger	89,Middle Finger	700.0	600.0	0.0	0.0	0.0	n/a	n/a	n/a	go_stim
10901.612965	3235.3870350000002	n/a	1036	89	2750	3235.387035	stim	stop-signal	8	31434	0.0-7.0-1.0	beast_fmri_test	336	28850,/,29530,/,30210,/,30889,/,31569,/,32247,/,32928,/,33607,/,34288,/	t,t,t,t,t,t,t,t,t	<img class = center src='/static/experiments/beast_fmri_test/images/B.png'></img>	71,89	2750.0	test	<img class = center src='/static/experiments/beast_fmri_test/images/redB.png'></img>	go	-1.0	3.0	0.0	go	temp-non-target	B	71,Index Finger	89,Middle Finger	700.0	600.0	0.0	0.0	0.0	n/a	n/a	n/a	ITI
17882	500	n/a	-1	-1	500	0.0	fixation	poldrack-single-stim	9	35179	0.0-7.1-0.1	beast_fmri_test	336	34966,/	t	<div class = centerbox2><div class = fixation>+</div></div>	none	500.0	test	n/a	n/a	n/a	n/a	n/a	n/a	n/a	n/a	n/a	n/a	n/a	n/a	n/a	n/a	n/a	n/a	n/a	n/a	fixation
16222.177333	2750	n/a	499	89	2750	1663.822667	stim	stop-signal	10	37933	0.0-7.1-1.1	beast_fmri_test	336	35647,/,36326,/,37005,/,37685,/,38365,/,39045,/	t,t,t,t,t,t	<img class = center src='/static/experiments/beast_fmri_test/images/V.png'></img>	71,89	2750.0	test	<img class = center src='/static/experiments/beast_fmri_test/images/redV.png'></img>	go	-1.0	3.0	1.0	go	temp-non-target	V	71,Index Finger	89,Middle Finger	700.0	600.0	0.0	0.0	0.0	n/a	n/a	n/a	go_stim
18972.177333	1663.8226669999999	n/a	499	89	2750	1663.822667	stim	stop-signal	10	37933	0.0-7.1-1.1	beast_fmri_test	336	35647,/,36326,/,37005,/,37685,/,38365,/,39045,/	t,t,t,t,t,t	<img class = center src='/static/experiments/beast_fmri_test/images/V.png'></img>	71,89	2750.0	test	<img class = center src='/static/experiments/beast_fmri_test/images/redV.png'></img>	go	-1.0	3.0	1.0	go	temp-non-target	V	71,Index Finger	89,Middle Finger	700.0	600.0	0.0	0.0	0.0	n/a	n/a	n/a	ITI
22805	500	n/a	-1	-1	500	0.0	fixation	poldrack-single-stim	11	40102	0.0-7.2-0.2	beast_fmri_test	336	39725,/	t	<div class = centerbox2><div class = fixation>+</div></div>	none	500.0	test	n/a	n/a	n/a	n/a	n/a	n/a	n/a	n/a	n/a	n/a	n/a	n/a	n/a	n/a	n/a	n/a	n/a	n/a	fixation
18109.610747999999	temp_go_duration	n/a	917	89	2750	4697.389252	stim	stop-signal	12	42854	0.0-7.2-1.2	beast_fmri_test	336	40404,/,41083,/,41763,/,42444,/,43123,/,43804,/,44482,/,45163,/,45841,/,46521,/,47202,/	t,t,t,t,t,t,t,t,t,t,t	<img class = center src='/static/experiments/beast_fmri_test/images/B.png'></img>	71,89	2750.0	test	<img class = center src='/static/experiments/beast_fmri_test/images/redB.png'></img>	stop	-1.0	3.0	2.0	stop	temp-non-target	B	71,Index Finger	89,Middle Finger	700.0	600.0	0.0	0.0	0.0	0.0	n/a	n/a	go_stim
temp-non-target	temp_stop_duration	n/a	917	89	2750	4697.389252	stim	stop-signal	12	42854	0.0-7.2-1.2	beast_fmri_test	336	40404,/,41083,/,41763,/,42444,/,43123,/,43804,/,44482,/,45163,/,45841,/,46521,/,47202,/	t,t,t,t,t,t,t,t,t,t,t	<img class = center src='/static/experiments/beast_fmri_test/images/B.png'></img>	71,89	2750.0	test	<img class = center src='/static/experiments/beast_fmri_test/images/redB.png'></img>	stop	-1.0	3.0	2.0	stop	temp-non-target	B	71,Index Finger	89,Middle Finger	700.0	600.0	0.0	0.0	0.0	0.0	n/a	n/a	stop_stim
20859.610747999999	4697.3892519999999	n/a	917	89	2750	4697.389252	stim	stop-signal	12	42854	0.0-7.2-1.2	beast_fmri_test	336	40404,/,41083,/,41763,/,42444,/,43123,/,43804,/,44482,/,45163,/,45841,/,46521,/,47202,/	t,t,t,t,t,t,t,t,t,t,t	<img class = center src='/static/experiments/beast_fmri_test/images/B.png'></img>	71,89	2750.0	test	<img class = center src='/static/experiments/beast_fmri_test/images/redB.png'></img>	stop	-1.0	3.0	2.0	stop	temp-non-target	B	71,Index Finger	89,Middle Finger	700.0	600.0	0.0	0.0	0.0	0.0	n/a	n/a	ITI
30759	500	n/a	-1	-1	500	0.0	fixation	poldrack-single-stim	13	48056	0.0-7.3-0.3	beast_fmri_test	336	47882,/	t	<div class = centerbox2><div class = fixation>+</div></div>	none	500.0	test	n/a	n/a	n/a	n/a	n/a	n/a	n/a	n/a	n/a	n/a	n/a	n/a	n/a	n/a	n/a	n/a	n/a	n/a	fixation
30324.520726700001	2750	n/a	865	89	2750	436.4792733	stim	stop-signal	14	50808	0.0-7.3-1.3	beast_fmri_test	336	48562,/,49240,/,49921,/,50600,/	t,t,t,t	<img class = center src='/static/experiments/beast_fmri_test/images/P.png'></img>	71,89	2750.0	test	<img class = center src='/static/experiments/beast_fmri_test/images/redP.png'></img>	go	2150.0	3.0	3.0	go	non-target	P	71,Index Finger	89,Middle Finger	700.0	600.0	0.0	2150.0	1.0	n/a	600.0	1.0	go_stim
33074.520726700001	436.47927329999999	n/a	865	89	2750	436.4792733	stim	stop-signal	14	50808	0.0-7.3-1.3	beast_fmri_test	336	48562,/,49240,/,49921,/,50600,/	t,t,t,t	<img class = center src='/static/experiments/beast_fmri_test/images/P.png'></img>	71,89	2750.0	test	<img class = center src='/static/experiments/beast_fmri_test/images/redP.png'></img>	go	2150.0	3.0	3.0	go	non-target	P	71,Index Finger	89,Middle Finger	700.0	600.0	0.0	2150.0	1.0	n/a	600.0	1.0	ITI
34455	500	n/a	-1	-1	500	0.0	fixation	poldrack-single-stim	15	51752	0.0-7.4-0.4	beast_fmri_test	336	51278,/	t	<div class = centerbox2><div class = fixation>+</div></div>	none	500.0	test	n/a	n/a	n/a	n/a	n/a	n/a	n/a	n/a	n/a	n/a	n/a	n/a	n/a	n/a	n/a	n/a	n/a	n/a	fixation
33286.023017	600.0	n/a	601	89	2750	1169.976983	stim	stop-signal	16	54503	0.0-7.4-1.4	beast_fmri_test	336	51959,/,52638,/,53319,/,53999,/,54677,/,55358,/	t,t,t,t,t,t	<img class = center src='/static/experiments/beast_fmri_test/images/D.png'></img>	71,89	2750.0	test	<img class = center src='/static/experiments/beast_fmri_test/images/redD.png'></img>	stop	2150.0	3.0	4.0	stop	non-target	D	71,Index Finger	89,Middle Finger	700.0	600.0	0.0	2150.0	0.0	0.0	600.0	n/a	go_stim
35436.023017	2150.0	n/a	601	89	2750	1169.976983	stim	stop-signal	16	54503	0.0-7.4-1.4	beast_fmri_test	336	51959,/,52638,/,53319,/,53999,/,54677,/,55358,/	t,t,t,t,t,t	<img class = center src='/static/experiments/beast_fmri_test/images/D.png'></img>	71,89	2750.0	test	<img class = center src='/static/experiments/beast_fmri_test/images/redD.png'></img>	stop	2150.0	3.0	4.0	stop	non-target	D	71,Index Finger	89,Middle Finger	700.0	600.0	0.0	2150.0	0.0	0.0	600.0	n/a	stop_stim
36036.023017	1169.976983	n/a	601	89	2750	1169.976983	stim	stop-signal	16	54503	0.0-7.4-1.4	beast_fmri_test	336	51959,/,52638,/,53319,/,53999,/,54677,/,55358,/	t,t,t,t,t,t	<img class = center src='/static/experiments/beast_fmri_test/images/D.png'></img>	71,89	2750.0	test	<img class = center src='/static/experiments/beast_fmri_test/images/redD.png'></img>	stop	2150.0	3.0	4.0	stop	non-target	D	71,Index Finger	89,Middle Finger	700.0	600.0	0.0	2150.0	0.0	0.0	600.0	n/a	ITI
38887	500	n/a	-1	-1	500	0.0	fixation	poldrack-single-stim	17	56184	0.0-7.5-0.5	beast_fmri_test	336	56038,/	t	<div class = centerbox2><div class = fixation>+</div></div>	none	500.0	test	n/a	n/a	n/a	n/a	n/a	n/a	n/a	n/a	n/a	n/a	n/a	n/a	n/a	n/a	n/a	n/a	n/a	n/a	fixation
38620.1195057	2750	n/a	1364	89	2750	268.8804943	stim	stop-signal	18	58936	0.0-7.5-1.5	beast_fmri_test	336	56717,/,57396,/,58076,/,58756,/	t,t,t,t	<img class = center src='/static/experiments/beast_fmri_test/images/V.png'></img>	71,89	2750.0	test	<img class = center src='/static/experiments/beast_fmri_test/images/redV.png'></img>	go	2200.0	3.0	5.0	go	non-target	V	71,Index Finger	89,Middle Finger	700.0	550.0	0.0	2200.0	1.0	n/a	550.0	1.0	go_stim
41370.1195057	268.88049430000001	n/a	1364	89	2750	268.8804943	stim	stop-signal	18	58936	0.0-7.5-1.5	beast_fmri_test	336	56717,/,57396,/,58076,/,58756,/	t,t,t,t	<img class = center src='/static/experiments/beast_fmri_test/images/V.png'></img>	71,89	2750.0	test	<img class = center src='/static/experiments/beast_fmri_test/images/redV.png'></img>	go	2200.0	3.0	5.0	go	non-target	V	71,Index Finger	89,Middle Finger	700.0	550.0	0.0	2200.0	1.0	n/a	550.0	1.0	ITI
42413	500	n/a	-1	-1	500	0.0	fixation	poldrack-single-stim	19	59710	0.0-7.6-0.6	beast_fmri_test	336	59436,/	t	<div class = centerbox2><div class = fixation>+</div></div>	none	500.0	test	n/a	n/a	n/a	n/a	n/a	n/a	n/a	n/a	n/a	n/a	n/a	n/a	n/a	n/a	n/a	n/a	n/a	n/a	fixation
39437.255320999997	2750	n/a	1571	71	2750	2978.744679	stim	stop-signal	20	62463	0.0-7.6-1.6	beast_fmri_test	336	60116,/,60795,/,61473,/,62155,/,62834,/,63514,/,64194,/,64873,/	t,t,t,t,t,t,t,t	<img class = center src='/static/experiments/beast_fmri_test/images/D.png'></img>	71,89	2750.0	test	<img class = center src='/static/experiments/beast_fmri_test/images/redD.png'></img>	go	2200.0	3.0	6.0	go	non-target	D	71,Index Finger	89,Middle Finger	700.0	550.0	0.0	2200.0	0.0	n/a	550.0	0.0	go_stim
42187.255320999997	2978.7446789999999	n/a	1571	71	2750	2978.744679	stim	stop-signal	20	62463	0.0-7.6-1.6	beast_fmri_test	336	60116,/,60795,/,61473,/,62155,/,62834,/,63514,/,64194,/,64873,/	t,t,t,t,t,t,t,t	<img class = center src='/static/experiments/beast_fmri_test/images/D.png'></img>	71,89	2750.0	test	<img class = center src='/static/experiments/beast_fmri_test/images/redD.png'></img>	go	2200.0	3.0	6.0	go	non-target	D	71,Index Finger	89,Middle Finger	700.0	550.0	0.0	2200.0	0.0	n/a	550.0	0.0	ITI
48651	500	n/a	-1	-1	500	0.0	fixation	poldrack-single-stim	21	65948	0.0-7.7-0.7	beast_fmri_test	336	65552,/	t	<div class = centerbox2><div class = fixation>+</div></div>	none	500.0	test	n/a	n/a	n/a	n/a	n/a	n/a	n/a	n/a	n/a	n/a	n/a	n/a	n/a	n/a	n/a	n/a	n/a	n/a	fixation
45892.680619999999	550.0	n/a	769	89	2750	2760.31938	stim	stop-signal	22	68700	0.0-7.7-1.7	beast_fmri_test	336	66231,/,66912,/,67590,/,68271,/,68951,/,69630,/,70311,/,70991,/	t,t,t,t,t,t,t,t	<img class = center src='/static/experiments/beast_fmri_test/images/T.png'></img>	71,89	2750.0	test	<img class = center src='/static/experiments/beast_fmri_test/images/redT.png'></img>	stop	2200.0	3.0	7.0	stop	non-target	T	71,Index Finger	89,Middle Finger	700.0	550.0	0.0	2200.0	0.0	0.0	550.0	n/a	go_stim
48092.680619999999	2200.0	n/a	769	89	2750	2760.31938	stim	stop-signal	22	68700	0.0-7.7-1.7	beast_fmri_test	336	66231,/,66912,/,67590,/,68271,/,68951,/,69630,/,70311,/,70991,/	t,t,t,t,t,t,t,t	<img class = center src='/static/experiments/beast_fmri_test/images/T.png'></img>	71,89	2750.0	test	<img class = center src='/static/experiments/beast_fmri_test/images/redT.png'></img>	stop	2200.0	3.0	7.0	stop	non-target	T	71,Index Finger	89,Middle Finger	700.0	550.0	0.0	2200.0	0.0	0.0	550.0	n/a	stop_stim
48642.680619999999	2760.3193799999999	n/a	769	89	2750	2760.31938	stim	stop-signal	22	68700	0.0-7.7-1.7	beast_fmri_test	336	66231,/,66912,/,67590,/,68271,/,68951,/,69630,/,70311,/,70991,/	t,t,t,t,t,t,t,t	<img class = center src='/static/experiments/beast_fmri_test/images/T.png'></img>	71,89	2750.0	test	<img class = center src='/static/experiments/beast_fmri_test/images/redT.png'></img>	stop	2200.0	3.0	7.0	stop	non-target	T	71,Index Finger	89,Middle Finger	700.0	550.0	0.0	2200.0	0.0	0.0	550.0	n/a	ITI
54669	500	n/a	-1	-1	500	0.0	fixation	poldrack-single-stim	23	71966	0.0-7.8-0.8	beast_fmri_test	336	71670,/	t	<div class = centerbox2><div class = fixation>+</div></div>	none	500.0	test	n/a	n/a	n/a	n/a	n/a	n/a	n/a	n/a	n/a	n/a	n/a	n/a	n/a	n/a	n/a	n/a	n/a	n/a	fixation
54554.032000000007	2750	n/a	477	71	2750	115.968	stim	stop-signal	24	74717	0.0-7.8-1.8	beast_fmri_test	336	72351,/,73030,/,73710,/,74389,/	t,t,t,t	<img class = center src='/static/experiments/beast_fmri_test/images/V.png'></img>	71,89	2750.0	test	<img class = center src='/static/experiments/beast_fmri_test/images/redV.png'></img>	go	2050.0	3.0	8.0	go	target	V	71,Index Finger	89,Middle Finger	700.0	500.0	2050.0	2200.0	1.0	n/a	700.0	1.0	go_stim
57304.032000000007	115.96799999999999	n/a	477	71	2750	115.968	stim	stop-signal	24	74717	0.0-7.8-1.8	beast_fmri_test	336	72351,/,73030,/,73710,/,74389,/	t,t,t,t	<img class = center src='/static/experiments/beast_fmri_test/images/V.png'></img>	71,89	2750.0	test	<img class = center src='/static/experiments/beast_fmri_test/images/redV.png'></img>	go	2050.0	3.0	8.0	go	target	V	71,Index Finger	89,Middle Finger	700.0	500.0	2050.0	2200.0	1.0	n/a	700.0	1.0	ITI
58045	500	n/a	-1	-1	500	0.0	fixation	poldrack-single-stim	25	75342	0.0-7.9-0.9	beast_fmri_test	336	75069,/	t	<div class = centerbox2><div class = fixation>+</div></div>	none	500.0	test	n/a	n/a	n/a	n/a	n/a	n/a	n/a	n/a	n/a	n/a	n/a	n/a	n/a	n/a	n/a	n/a	n/a	n/a	fixation
57805.217341600001	700.0	n/a	984	71	2750	241.7826584	stim	stop-signal	26	78094	0.0-7.9-1.9	beast_fmri_test	336	75749,/,76428,/,77108,/,77788,/	t,t,t,t	<img class = center src='/static/experiments/beast_fmri_test/images/D.png'></img>	71,89	2750.0	test	<img class = center src='/static/experiments/beast_fmri_test/images/redD.png'></img>	stop	2050.0	3.0	9.0	stop	target	D	71,Index Finger	89,Middle Finger	700.0	500.0	2050.0	2200.0	0.0	0.0	700.0	n/a	go_stim
59855.217341600001	2050.0	n/a	984	71	2750	241.7826584	stim	stop-signal	26	78094	0.0-7.9-1.9	beast_fmri_test	336	75749,/,76428,/,77108,/,77788,/	t,t,t,t	<img class = center src='/static/experiments/beast_fmri_test/images/D.png'></img>	71,89	2750.0	test	<img class = center src='/static/experiments/beast_fmri_test/images/redD.png'></img>	stop	2050.0	3.0	9.0	stop	target	D	71,Index Finger	89,Middle Finger	700.0	500.0	2050.0	2200.0	0.0	0.0	700.0	n/a	stop_stim
60555.217341600001	241.78265840000003	n/a	984	71	2750	241.7826584	stim	stop-signal	26	78094	0.0-7.9-1.9	beast_fmri_test	336	75749,/,76428,/,77108,/,77788,/	t,t,t,t	<img class = center src='/static/experiments/beast_fmri_test/images/D.png'></img>	71,89	2750.0	test	<img class = center src='/static/experiments/beast_fmri_test/images/redD.png'></img>	stop	2050.0	3.0	9.0	stop	target	D	71,Index Finger	89,Middle Finger	700.0	500.0	2050.0	2200.0	0.0	0.0	700.0	n/a	ITI
61551	500	n/a	-1	-1	500	0.0	fixation	poldrack-single-stim	27	78848	0.0-7.10-0.10	beast_fmri_test	336	78467,/	t	<div class = centerbox2><div class = fixation>+</div></div>	none	500.0	test	n/a	n/a	n/a	n/a	n/a	n/a	n/a	n/a	n/a	n/a	n/a	n/a	n/a	n/a	n/a	n/a	n/a	n/a	fixation
61507.080039620007	500.0	n/a	-1	-1	2750	43.91996038	stim	stop-signal	28	81598	0.0-7.10-1.10	beast_fmri_test	336	79147,/,79826,/,80506,/,81186,/	t,t,t,t	<img class = center src='/static/experiments/beast_fmri_test/images/P.png'></img>	71,89	2750.0	test	<img class = center src='/static/experiments/beast_fmri_test/images/redP.png'></img>	stop	2250.0	3.0	10.0	stop	non-target	P	71,Index Finger	89,Middle Finger	650.0	500.0	2050.0	2250.0	0.0	1.0	500.0	n/a	go_stim
63757.080039620007	2250.0	n/a	-1	-1	2750	43.91996038	stim	stop-signal	28	81598	0.0-7.10-1.10	beast_fmri_test	336	79147,/,79826,/,80506,/,81186,/	t,t,t,t	<img class = center src='/static/experiments/beast_fmri_test/images/P.png'></img>	71,89	2750.0	test	<img class = center src='/static/experiments/beast_fmri_test/images/redP.png'></img>	stop	2250.0	3.0	10.0	stop	non-target	P	71,Index Finger	89,Middle Finger	650.0	500.0	2050.0	2250.0	0.0	1.0	500.0	n/a	stop_stim
64257.080039620007	43.919960379999999	n/a	-1	-1	2750	43.91996038	stim	stop-signal	28	81598	0.0-7.10-1.10	beast_fmri_test	336	79147,/,79826,/,80506,/,81186,/	t,t,t,t	<img class = center src='/static/experiments/beast_fmri_test/images/P.png'></img>	71,89	2750.0	test	<img class = center src='/static/experiments/beast_fmri_test/images/redP.png'></img>	stop	2250.0	3.0	10.0	stop	non-target	P	71,Index Finger	89,Middle Finger	650.0	500.0	2050.0	2250.0	0.0	1.0	500.0	n/a	ITI
64852	500	n/a	-1	-1	500	0.0	fixation	poldrack-single-stim	29	82149	0.0-7.11-0.11	beast_fmri_test	336	81866,/	t	<div class = centerbox2><div class = fixation>+</div></div>	none	500.0	test	n/a	n/a	n/a	n/a	n/a	n/a	n/a	n/a	n/a	n/a	n/a	n/a	n/a	n/a	n/a	n/a	n/a	n/a	fixation
63216.059720999998	650.0	n/a	916	71	2750	1637.940279	stim	stop-signal	30	84901	0.0-7.11-1.11	beast_fmri_test	336	82545,/,83225,/,83904,/,84584,/,85265,/,85944,/	t,t,t,t,t,t	<img class = center src='/static/experiments/beast_fmri_test/images/V.png'></img>	71,89	2750.0	test	<img class = center src='/static/experiments/beast_fmri_test/images/redV.png'></img>	stop	2100.0	3.0	11.0	stop	target	V	71,Index Finger	89,Middle Finger	650.0	550.0	2100.0	2250.0	0.0	0.0	650.0	n/a	go_stim
65316.059720999998	2100.0	n/a	916	71	2750	1637.940279	stim	stop-signal	30	84901	0.0-7.11-1.11	beast_fmri_test	336	82545,/,83225,/,83904,/,84584,/,85265,/,85944,/	t,t,t,t,t,t	<img class = center src='/static/experiments/beast_fmri_test/images/V.png'></img>	71,89	2750.0	test	<img class = center src='/static/experiments/beast_fmri_test/images/redV.png'></img>	stop	2100.0	3.0	11.0	stop	target	V	71,Index Finger	89,Middle Finger	650.0	550.0	2100.0	2250.0	0.0	0.0	650.0	n/a	stop_stim
65966.059720999998	1637.9402789999999	n/a	916	71	2750	1637.940279	stim	stop-signal	30	84901	0.0-7.11-1.11	beast_fmri_test	336	82545,/,83225,/,83904,/,84584,/,85265,/,85944,/	t,t,t,t,t,t	<img class = center src='/static/experiments/beast_fmri_test/images/V.png'></img>	71,89	2750.0	test	<img class = center src='/static/experiments/beast_fmri_test/images/redV.png'></img>	stop	2100.0	3.0	11.0	stop	target	V	71,Index Finger	89,Middle Finger	650.0	550.0	2100.0	2250.0	0.0	0.0	650.0	n/a	ITI
69750	500	n/a	-1	-1	500	0.0	fixation	poldrack-single-stim	31	87047	0.0-7.12-0.12	beast_fmri_test	336	86623,/	t	<div class = centerbox2><div class = fixation>+</div></div>	none	500.0	test	n/a	n/a	n/a	n/a	n/a	n/a	n/a	n/a	n/a	n/a	n/a	n/a	n/a	n/a	n/a	n/a	n/a	n/a	fixation
69381.633154399999	600.0	n/a	-1	-1	2750	370.3668456	stim	stop-signal	32	89799	0.0-7.12-1.12	beast_fmri_test	336	87303,/,87983,/,88662,/,89342,/,90021,/	t,t,t,t,t	<img class = center src='/static/experiments/beast_fmri_test/images/D.png'></img>	71,89	2750.0	test	<img class = center src='/static/experiments/beast_fmri_test/images/redD.png'></img>	stop	2150.0	3.0	12.0	stop	target	D	71,Index Finger	89,Middle Finger	600.0	550.0	2150.0	2250.0	0.0	1.0	600.0	n/a	go_stim
71531.633154399999	2150.0	n/a	-1	-1	2750	370.3668456	stim	stop-signal	32	89799	0.0-7.12-1.12	beast_fmri_test	336	87303,/,87983,/,88662,/,89342,/,90021,/	t,t,t,t,t	<img class = center src='/static/experiments/beast_fmri_test/images/D.png'></img>	71,89	2750.0	test	<img class = center src='/static/experiments/beast_fmri_test/images/redD.png'></img>	stop	2150.0	3.0	12.0	stop	target	D	71,Index Finger	89,Middle Finger	600.0	550.0	2150.0	2250.0	0.0	1.0	600.0	n/a	stop_stim
72131.633154399999	370.36684560000003	n/a	-1	-1	2750	370.3668456	stim	stop-signal	32	89799	0.0-7.12-1.12	beast_fmri_test	336	87303,/,87983,/,88662,/,89342,/,90021,/	t,t,t,t,t	<img class = center src='/static/experiments/beast_fmri_test/images/D.png'></img>	71,89	2750.0	test	<img class = center src='/static/experiments/beast_fmri_test/images/redD.png'></img>	stop	2150.0	3.0	12.0	stop	target	D	71,Index Finger	89,Middle Finger	600.0	550.0	2150.0	2250.0	0.0	1.0	600.0	n/a	ITI
73381	500	n/a	-1	-1	500	0.0	fixation	poldrack-single-stim	33	90678	0.0-7.13-0.13	beast_fmri_test	336	n/a	n/a	<div class = centerbox2><div class = fixation>+</div></div>	none	500.0	test	n/a	n/a	n/a	n/a	n/a	n/a	n/a	n/a	n/a	n/a	n/a	n/a	n/a	n/a	n/a	n/a	n/a	n/a	fixation
72510.129233200001	2750	n/a	1008	71	2750	871.8707668	stim	stop-signal	34	93429	0.0-7.13-1.13	beast_fmri_test	336	90699,/,91380,/,92060,/,92740,/,93419,/,94099,/	t,t,t,t,t,t	<img class = center src='/static/experiments/beast_fmri_test/images/V.png'></img>	71,89	2750.0	test	<img class = center src='/static/experiments/beast_fmri_test/images/redV.png'></img>	go	2200.0	3.0	13.0	go	non-target	V	71,Index Finger	89,Middle Finger	650.0	550.0	2150.0	2200.0	0.0	n/a	550.0	0.0	go_stim
75260.129233200001	871.87076679999996	n/a	1008	71	2750	871.8707668	stim	stop-signal	34	93429	0.0-7.13-1.13	beast_fmri_test	336	90699,/,91380,/,92060,/,92740,/,93419,/,94099,/	t,t,t,t,t,t	<img class = center src='/static/experiments/beast_fmri_test/images/V.png'></img>	71,89	2750.0	test	<img class = center src='/static/experiments/beast_fmri_test/images/redV.png'></img>	go	2200.0	3.0	13.0	go	non-target	V	71,Index Finger	89,Middle Finger	650.0	550.0	2150.0	2200.0	0.0	n/a	550.0	0.0	ITI
77511	500	n/a	-1	-1	500	0.0	fixation	poldrack-single-stim	35	94808	0.0-7.14-0.14	beast_fmri_test	336	94780,/	t	<div class = centerbox2><div class = fixation>+</div></div>	none	500.0	test	n/a	n/a	n/a	n/a	n/a	n/a	n/a	n/a	n/a	n/a	n/a	n/a	n/a	n/a	n/a	n/a	n/a	n/a	fixation
76532.569174300006	550.0	n/a	-1	-1	2750	980.4308257	stim	stop-signal	36	97560	0.0-7.14-1.14	beast_fmri_test	336	95459,/,96139,/,96818,/,97498,/,98177,/	t,t,t,t,t	<img class = center src='/static/experiments/beast_fmri_test/images/T.png'></img>	71,89	2750.0	test	<img class = center src='/static/experiments/beast_fmri_test/images/redT.png'></img>	stop	2200.0	3.0	14.0	stop	non-target	T	71,Index Finger	89,Middle Finger	650.0	550.0	2150.0	2200.0	0.0	1.0	550.0	n/a	go_stim
78732.569174300006	2200.0	n/a	-1	-1	2750	980.4308257	stim	stop-signal	36	97560	0.0-7.14-1.14	beast_fmri_test	336	95459,/,96139,/,96818,/,97498,/,98177,/	t,t,t,t,t	<img class = center src='/static/experiments/beast_fmri_test/images/T.png'></img>	71,89	2750.0	test	<img class = center src='/static/experiments/beast_fmri_test/images/redT.png'></img>	stop	2200.0	3.0	14.0	stop	non-target	T	71,Index Finger	89,Middle Finger	650.0	550.0	2150.0	2200.0	0.0	1.0	550.0	n/a	stop_stim
79282.569174300006	980.43082570000013	n/a	-1	-1	2750	980.4308257	stim	stop-signal	36	97560	0.0-7.14-1.14	beast_fmri_test	336	95459,/,96139,/,96818,/,97498,/,98177,/	t,t,t,t,t	<img class = center src='/static/experiments/beast_fmri_test/images/T.png'></img>	71,89	2750.0	test	<img class = center src='/static/experiments/beast_fmri_test/images/redT.png'></img>	stop	2200.0	3.0	14.0	stop	non-target	T	71,Index Finger	89,Middle Finger	650.0	550.0	2150.0	2200.0	0.0	1.0	550.0	n/a	ITI
81753	500	n/a	-1	-1	500	0.0	fixation	poldrack-single-stim	37	99050	0.0-7.15-0.15	beast_fmri_test	336	98857,/	t	<div class = centerbox2><div class = fixation>+</div></div>	none	500.0	test	n/a	n/a	n/a	n/a	n/a	n/a	n/a	n/a	n/a	n/a	n/a	n/a	n/a	n/a	n/a	n/a	n/a	n/a	fixation
81745.025983109997	600.0	n/a	-1	-1	2750	9.97401689	stim	stop-signal	38	101802	0.0-7.15-1.15	beast_fmri_test	336	99536,/,100217,/,100897,/,101577,/	t,t,t,t	<img class = center src='/static/experiments/beast_fmri_test/images/T.png'></img>	71,89	2750.0	test	<img class = center src='/static/experiments/beast_fmri_test/images/redT.png'></img>	stop	2150.0	3.0	15.0	stop	non-target	T	71,Index Finger	89,Middle Finger	650.0	600.0	2150.0	2150.0	0.0	1.0	600.0	n/a	go_stim
83895.025983109997	2150.0	n/a	-1	-1	2750	9.97401689	stim	stop-signal	38	101802	0.0-7.15-1.15	beast_fmri_test	336	99536,/,100217,/,100897,/,101577,/	t,t,t,t	<img class = center src='/static/experiments/beast_fmri_test/images/T.png'></img>	71,89	2750.0	test	<img class = center src='/static/experiments/beast_fmri_test/images/redT.png'></img>	stop	2150.0	3.0	15.0	stop	non-target	T	71,Index Finger	89,Middle Finger	650.0	600.0	2150.0	2150.0	0.0	1.0	600.0	n/a	stop_stim
84495.025983109997	9.9740168899999997	n/a	-1	-1	2750	9.97401689	stim	stop-signal	38	101802	0.0-7.15-1.15	beast_fmri_test	336	99536,/,100217,/,100897,/,101577,/	t,t,t,t	<img class = center src='/static/experiments/beast_fmri_test/images/T.png'></img>	71,89	2750.0	test	<img class = center src='/static/experiments/beast_fmri_test/images/redT.png'></img>	stop	2150.0	3.0	15.0	stop	non-target	T	71,Index Finger	89,Middle Finger	650.0	600.0	2150.0	2150.0	0.0	1.0	600.0	n/a	ITI
85023	500	n/a	-1	-1	500	0.0	fixation	poldrack-single-stim	39	102320	0.0-7.16-0.16	beast_fmri_test	336	102256,/	t	<div class = centerbox2><div class = fixation>+</div></div>	none	500.0	test	n/a	n/a	n/a	n/a	n/a	n/a	n/a	n/a	n/a	n/a	n/a	n/a	n/a	n/a	n/a	n/a	n/a	n/a	fixation
84664.096764200003	650.0	n/a	1610	89	2750	361.9032358	stim	stop-signal	40	105073	0.0-7.16-1.16	beast_fmri_test	336	102936,/,103616,/,104296,/,104974,/	t,t,t,t	<img class = center src='/static/experiments/beast_fmri_test/images/B.png'></img>	71,89	2750.0	test	<img class = center src='/static/experiments/beast_fmri_test/images/redB.png'></img>	stop	2100.0	3.0	16.0	stop	non-target	B	71,Index Finger	89,Middle Finger	650.0	650.0	2150.0	2100.0	0.0	0.0	650.0	n/a	go_stim
86764.096764200003	2100.0	n/a	1610	89	2750	361.9032358	stim	stop-signal	40	105073	0.0-7.16-1.16	beast_fmri_test	336	102936,/,103616,/,104296,/,104974,/	t,t,t,t	<img class = center src='/static/experiments/beast_fmri_test/images/B.png'></img>	71,89	2750.0	test	<img class = center src='/static/experiments/beast_fmri_test/images/redB.png'></img>	stop	2100.0	3.0	16.0	stop	non-target	B	71,Index Finger	89,Middle Finger	650.0	650.0	2150.0	2100.0	0.0	0.0	650.0	n/a	stop_stim
87414.096764200003	361.9032358	n/a	1610	89	2750	361.9032358	stim	stop-signal	40	105073	0.0-7.16-1.16	beast_fmri_test	336	102936,/,103616,/,104296,/,104974,/	t,t,t,t	<img class = center src='/static/experiments/beast_fmri_test/images/B.png'></img>	71,89	2750.0	test	<img class = center src='/static/experiments/beast_fmri_test/images/redB.png'></img>	stop	2100.0	3.0	16.0	stop	non-target	B	71,Index Finger	89,Middle Finger	650.0	650.0	2150.0	2100.0	0.0	0.0	650.0	n/a	ITI
88648	500	n/a	-1	-1	500	0.0	fixation	poldrack-single-stim	41	105945	0.0-7.17-0.17	beast_fmri_test	336	105655,/	t	<div class = centerbox2><div class = fixation>+</div></div>	none	500.0	test	n/a	n/a	n/a	n/a	n/a	n/a	n/a	n/a	n/a	n/a	n/a	n/a	n/a	n/a	n/a	n/a	n/a	n/a	fixation
88387.9707586	2750	n/a	1585	89	2750	260.0292414	stim	stop-signal	42	108695	0.0-7.17-1.17	beast_fmri_test	336	106335,/,107014,/,107692,/,108373,/	t,t,t,t	<img class = center src='/static/experiments/beast_fmri_test/images/D.png'></img>	71,89	2750.0	test	<img class = center src='/static/experiments/beast_fmri_test/images/redD.png'></img>	go	2150.0	3.0	17.0	go	non-target	D	71,Index Finger	89,Middle Finger	650.0	600.0	2150.0	2150.0	1.0	n/a	600.0	1.0	go_stim
91137.9707586	260.02924139999999	n/a	1585	89	2750	260.0292414	stim	stop-signal	42	108695	0.0-7.17-1.17	beast_fmri_test	336	106335,/,107014,/,107692,/,108373,/	t,t,t,t	<img class = center src='/static/experiments/beast_fmri_test/images/D.png'></img>	71,89	2750.0	test	<img class = center src='/static/experiments/beast_fmri_test/images/redD.png'></img>	go	2150.0	3.0	17.0	go	non-target	D	71,Index Finger	89,Middle Finger	650.0	600.0	2150.0	2150.0	1.0	n/a	600.0	1.0	ITI
92168	500	n/a	-1	-1	500	0.0	fixation	poldrack-single-stim	43	109465	0.0-7.18-0.18	beast_fmri_test	336	109053,/	t	<div class = centerbox2><div class = fixation>+</div></div>	none	500.0	test	n/a	n/a	n/a	n/a	n/a	n/a	n/a	n/a	n/a	n/a	n/a	n/a	n/a	n/a	n/a	n/a	n/a	n/a	fixation
92090.226914679995	2750	n/a	1295	89	2750	78.77308532	stim	stop-signal	44	112216	0.0-7.18-1.18	beast_fmri_test	336	109732,/,110413,/,111092,/,111771,/	t,t,t,t	<img class = center src='/static/experiments/beast_fmri_test/images/D.png'></img>	71,89	2750.0	test	<img class = center src='/static/experiments/beast_fmri_test/images/redD.png'></img>	go	2150.0	3.0	18.0	go	non-target	D	71,Index Finger	89,Middle Finger	650.0	600.0	2150.0	2150.0	1.0	n/a	600.0	1.0	go_stim
94840.226914679995	78.773085320000007	n/a	1295	89	2750	78.77308532	stim	stop-signal	44	112216	0.0-7.18-1.18	beast_fmri_test	336	109732,/,110413,/,111092,/,111771,/	t,t,t,t	<img class = center src='/static/experiments/beast_fmri_test/images/D.png'></img>	71,89	2750.0	test	<img class = center src='/static/experiments/beast_fmri_test/images/redD.png'></img>	go	2150.0	3.0	18.0	go	non-target	D	71,Index Finger	89,Middle Finger	650.0	600.0	2150.0	2150.0	1.0	n/a	600.0	1.0	ITI
95508	500	n/a	-1	-1	500	0.0	fixation	poldrack-single-stim	45	112805	0.0-7.19-0.19	beast_fmri_test	336	112450,/	t	<div class = centerbox2><div class = fixation>+</div></div>	none	500.0	test	n/a	n/a	n/a	n/a	n/a	n/a	n/a	n/a	n/a	n/a	n/a	n/a	n/a	n/a	n/a	n/a	n/a	n/a	fixation
94269.312449999998	2750	n/a	1413	89	2750	1239.68755	stim	stop-signal	46	115556	0.0-7.19-1.19	beast_fmri_test	336	113131,/,113811,/,114490,/,115170,/,115850,/,116529,/	t,t,t,t,t,t	<img class = center src='/static/experiments/beast_fmri_test/images/B.png'></img>	71,89	2750.0	test	<img class = center src='/static/experiments/beast_fmri_test/images/redB.png'></img>	go	2100.0	3.0	19.0	go	target	B	71,Index Finger	89,Middle Finger	650.0	600.0	2100.0	2150.0	0.0	n/a	650.0	0.0	go_stim
97019.312449999998	1239.6875500000001	n/a	1413	89	2750	1239.68755	stim	stop-signal	46	115556	0.0-7.19-1.19	beast_fmri_test	336	113131,/,113811,/,114490,/,115170,/,115850,/,116529,/	t,t,t,t,t,t	<img class = center src='/static/experiments/beast_fmri_test/images/B.png'></img>	71,89	2750.0	test	<img class = center src='/static/experiments/beast_fmri_test/images/redB.png'></img>	go	2100.0	3.0	19.0	go	target	B	71,Index Finger	89,Middle Finger	650.0	600.0	2100.0	2150.0	0.0	n/a	650.0	0.0	ITI
100011	500	n/a	-1	-1	500	0.0	fixation	poldrack-single-stim	47	117308	0.0-7.20-0.20	beast_fmri_test	336	117209,/	t	<div class = centerbox2><div class = fixation>+</div></div>	none	500.0	test	n/a	n/a	n/a	n/a	n/a	n/a	n/a	n/a	n/a	n/a	n/a	n/a	n/a	n/a	n/a	n/a	n/a	n/a	fixation
99262.559631800003	2750	n/a	851	89	2750	750.4403682	stim	stop-signal	48	120060	0.0-7.20-1.20	beast_fmri_test	336	117888,/,118568,/,119248,/,119928,/,120607,/	t,t,t,t,t	<img class = center src='/static/experiments/beast_fmri_test/images/V.png'></img>	71,89	2750.0	test	<img class = center src='/static/experiments/beast_fmri_test/images/redV.png'></img>	go	2150.0	3.0	20.0	go	non-target	V	71,Index Finger	89,Middle Finger	650.0	600.0	2100.0	2150.0	1.0	n/a	600.0	1.0	go_stim
102012.5596318	750.44036819999997	n/a	851	89	2750	750.4403682	stim	stop-signal	48	120060	0.0-7.20-1.20	beast_fmri_test	336	117888,/,118568,/,119248,/,119928,/,120607,/	t,t,t,t,t	<img class = center src='/static/experiments/beast_fmri_test/images/V.png'></img>	71,89	2750.0	test	<img class = center src='/static/experiments/beast_fmri_test/images/redV.png'></img>	go	2150.0	3.0	20.0	go	non-target	V	71,Index Finger	89,Middle Finger	650.0	600.0	2100.0	2150.0	1.0	n/a	600.0	1.0	ITI
104023	500	n/a	-1	-1	500	0.0	fixation	poldrack-single-stim	49	121320	0.0-7.21-0.21	beast_fmri_test	336	121288,/	t	<div class = centerbox2><div class = fixation>+</div></div>	none	500.0	test	n/a	n/a	n/a	n/a	n/a	n/a	n/a	n/a	n/a	n/a	n/a	n/a	n/a	n/a	n/a	n/a	n/a	n/a	fixation
102816.07751	2750	n/a	910	89	2750	1208.92249	stim	stop-signal	50	124072	0.0-7.21-1.21	beast_fmri_test	336	121967,/,122646,/,123326,/,124005,/,124685,/	t,t,t,t,t	<img class = center src='/static/experiments/beast_fmri_test/images/B.png'></img>	71,89	2750.0	test	<img class = center src='/static/experiments/beast_fmri_test/images/redB.png'></img>	go	2150.0	3.0	21.0	go	non-target	B	71,Index Finger	89,Middle Finger	650.0	600.0	2100.0	2150.0	1.0	n/a	600.0	1.0	go_stim
105566.07751	1208.9224899999999	n/a	910	89	2750	1208.92249	stim	stop-signal	50	124072	0.0-7.21-1.21	beast_fmri_test	336	121967,/,122646,/,123326,/,124005,/,124685,/	t,t,t,t,t	<img class = center src='/static/experiments/beast_fmri_test/images/B.png'></img>	71,89	2750.0	test	<img class = center src='/static/experiments/beast_fmri_test/images/redB.png'></img>	go	2150.0	3.0	21.0	go	non-target	B	71,Index Finger	89,Middle Finger	650.0	600.0	2100.0	2150.0	1.0	n/a	600.0	1.0	ITI
108493	500	n/a	-1	-1	500	0.0	fixation	poldrack-single-stim	51	125790	0.0-7.22-0.22	beast_fmri_test	336	125365,/	t	<div class = centerbox2><div class = fixation>+</div></div>	none	500.0	test	n/a	n/a	n/a	n/a	n/a	n/a	n/a	n/a	n/a	n/a	n/a	n/a	n/a	n/a	n/a	n/a	n/a	n/a	fixation
108458.77065527	2750	n/a	1626	71	2750	37.22934473	stim	stop-signal	52	128543	0.0-7.22-1.22	beast_fmri_test	336	126044,/,126724,/,127404,/,128084,/	t,t,t,t	<img class = center src='/static/experiments/beast_fmri_test/images/V.png'></img>	71,89	2750.0	test	<img class = center src='/static/experiments/beast_fmri_test/images/redV.png'></img>	go	2150.0	3.0	22.0	go	non-target	V	71,Index Finger	89,Middle Finger	650.0	600.0	2100.0	2150.0	0.0	n/a	600.0	0.0	go_stim
111208.77065527	37.229344730000001	n/a	1626	71	2750	37.22934473	stim	stop-signal	52	128543	0.0-7.22-1.22	beast_fmri_test	336	126044,/,126724,/,127404,/,128084,/	t,t,t,t	<img class = center src='/static/experiments/beast_fmri_test/images/V.png'></img>	71,89	2750.0	test	<img class = center src='/static/experiments/beast_fmri_test/images/redV.png'></img>	go	2150.0	3.0	22.0	go	non-target	V	71,Index Finger	89,Middle Finger	650.0	600.0	2100.0	2150.0	0.0	n/a	600.0	0.0	ITI
111795	500	n/a	-1	-1	500	0.0	fixation	poldrack-single-stim	53	129092	0.0-7.23-0.23	beast_fmri_test	336	128763,/	t	<div class = centerbox2><div class = fixation>+</div></div>	none	500.0	test	n/a	n/a	n/a	n/a	n/a	n/a	n/a	n/a	n/a	n/a	n/a	n/a	n/a	n/a	n/a	n/a	n/a	n/a	fixation
111170.659159	2750	n/a	1705	89	2750	625.340841	stim	stop-signal	54	131843	0.0-7.23-1.23	beast_fmri_test	336	129443,/,130124,/,130801,/,131482,/,132163,/	t,t,t,t,t	<img class = center src='/static/experiments/beast_fmri_test/images/D.png'></img>	71,89	2750.0	test	<img class = center src='/static/experiments/beast_fmri_test/images/redD.png'></img>	go	2150.0	3.0	23.0	go	non-target	D	71,Index Finger	89,Middle Finger	650.0	600.0	2100.0	2150.0	1.0	n/a	600.0	1.0	go_stim
113920.659159	625.34084100000007	n/a	1705	89	2750	625.340841	stim	stop-signal	54	131843	0.0-7.23-1.23	beast_fmri_test	336	129443,/,130124,/,130801,/,131482,/,132163,/	t,t,t,t,t	<img class = center src='/static/experiments/beast_fmri_test/images/D.png'></img>	71,89	2750.0	test	<img class = center src='/static/experiments/beast_fmri_test/images/redD.png'></img>	go	2150.0	3.0	23.0	go	non-target	D	71,Index Finger	89,Middle Finger	650.0	600.0	2100.0	2150.0	1.0	n/a	600.0	1.0	ITI
115682	500	n/a	-1	-1	500	0.0	fixation	poldrack-single-stim	55	132979	0.0-7.24-0.24	beast_fmri_test	336	132842,/	t	<div class = centerbox2><div class = fixation>+</div></div>	none	500.0	test	n/a	n/a	n/a	n/a	n/a	n/a	n/a	n/a	n/a	n/a	n/a	n/a	n/a	n/a	n/a	n/a	n/a	n/a	fixation
114288.72137300001	600.0	n/a	-1	-1	2750	1396.278627	stim	stop-signal	56	135732	0.0-7.24-1.24	beast_fmri_test	336	133522,/,134202,/,134882,/,135560,/,136240,/,136920,/	t,t,t,t,t,t	<img class = center src='/static/experiments/beast_fmri_test/images/P.png'></img>	71,89	2750.0	test	<img class = center src='/static/experiments/beast_fmri_test/images/redP.png'></img>	stop	2150.0	3.0	24.0	stop	non-target	P	71,Index Finger	89,Middle Finger	650.0	600.0	2100.0	2150.0	0.0	1.0	600.0	n/a	go_stim
116438.72137300001	2150.0	n/a	-1	-1	2750	1396.278627	stim	stop-signal	56	135732	0.0-7.24-1.24	beast_fmri_test	336	133522,/,134202,/,134882,/,135560,/,136240,/,136920,/	t,t,t,t,t,t	<img class = center src='/static/experiments/beast_fmri_test/images/P.png'></img>	71,89	2750.0	test	<img class = center src='/static/experiments/beast_fmri_test/images/redP.png'></img>	stop	2150.0	3.0	24.0	stop	non-target	P	71,Index Finger	89,Middle Finger	650.0	600.0	2100.0	2150.0	0.0	1.0	600.0	n/a	stop_stim
117038.72137300001	1396.2786269999999	n/a	-1	-1	2750	1396.278627	stim	stop-signal	56	135732	0.0-7.24-1.24	beast_fmri_test	336	133522,/,134202,/,134882,/,135560,/,136240,/,136920,/	t,t,t,t,t,t	<img class = center src='/static/experiments/beast_fmri_test/images/P.png'></img>	71,89	2750.0	test	<img class = center src='/static/experiments/beast_fmri_test/images/redP.png'></img>	stop	2150.0	3.0	24.0	stop	non-target	P	71,Index Finger	89,Middle Finger	650.0	600.0	2100.0	2150.0	0.0	1.0	600.0	n/a	ITI
120345	500	n/a	-1	-1	500	0.0	fixation	poldrack-single-stim	57	137642	0.0-7.25-0.25	beast_fmri_test	336	137601,/	t	<div class = centerbox2><div class = fixation>+</div></div>	none	500.0	test	n/a	n/a	n/a	n/a	n/a	n/a	n/a	n/a	n/a	n/a	n/a	n/a	n/a	n/a	n/a	n/a	n/a	n/a	fixation
118011.65464200001	2750	n/a	881	71	2750	2335.345358	stim	stop-signal	58	140394	0.0-7.25-1.25	beast_fmri_test	336	138280,/,138959,/,139638,/,140317,/,140997,/,141676,/,142358,/	t,t,t,t,t,t,t	<img class = center src='/static/experiments/beast_fmri_test/images/D.png'></img>	71,89	2750.0	test	<img class = center src='/static/experiments/beast_fmri_test/images/redD.png'></img>	go	2100.0	3.0	25.0	go	non-target	D	71,Index Finger	89,Middle Finger	650.0	650.0	2100.0	2100.0	0.0	n/a	650.0	0.0	go_stim
120761.65464200001	2335.345358	n/a	881	71	2750	2335.345358	stim	stop-signal	58	140394	0.0-7.25-1.25	beast_fmri_test	336	138280,/,138959,/,139638,/,140317,/,140997,/,141676,/,142358,/	t,t,t,t,t,t,t	<img class = center src='/static/experiments/beast_fmri_test/images/D.png'></img>	71,89	2750.0	test	<img class = center src='/static/experiments/beast_fmri_test/images/redD.png'></img>	go	2100.0	3.0	25.0	go	non-target	D	71,Index Finger	89,Middle Finger	650.0	650.0	2100.0	2100.0	0.0	n/a	650.0	0.0	ITI
125946	500	n/a	-1	-1	500	0.0	fixation	poldrack-single-stim	59	143243	0.0-7.26-0.26	beast_fmri_test	336	143039,/	t	<div class = centerbox2><div class = fixation>+</div></div>	none	500.0	test	n/a	n/a	n/a	n/a	n/a	n/a	n/a	n/a	n/a	n/a	n/a	n/a	n/a	n/a	n/a	n/a	n/a	n/a	fixation
125038.22340799999	2750	n/a	927	89	2750	910.776592	stim	stop-signal	60	145996	0.0-7.26-1.26	beast_fmri_test	336	143718,/,144396,/,145076,/,145755,/,146435,/	t,t,t,t,t	<img class = center src='/static/experiments/beast_fmri_test/images/B.png'></img>	71,89	2750.0	test	<img class = center src='/static/experiments/beast_fmri_test/images/redB.png'></img>	go	2100.0	3.0	26.0	go	non-target	B	71,Index Finger	89,Middle Finger	650.0	650.0	2100.0	2100.0	1.0	n/a	650.0	1.0	go_stim
127788.22340799999	910.77659199999994	n/a	927	89	2750	910.776592	stim	stop-signal	60	145996	0.0-7.26-1.26	beast_fmri_test	336	143718,/,144396,/,145076,/,145755,/,146435,/	t,t,t,t,t	<img class = center src='/static/experiments/beast_fmri_test/images/B.png'></img>	71,89	2750.0	test	<img class = center src='/static/experiments/beast_fmri_test/images/redB.png'></img>	go	2100.0	3.0	26.0	go	non-target	B	71,Index Finger	89,Middle Finger	650.0	650.0	2100.0	2100.0	1.0	n/a	650.0	1.0	ITI
130121	500	n/a	-1	-1	500	0.0	fixation	poldrack-single-stim	61	147418	0.0-7.27-0.27	beast_fmri_test	336	147116,/	t	<div class = centerbox2><div class = fixation>+</div></div>	none	500.0	test	n/a	n/a	n/a	n/a	n/a	n/a	n/a	n/a	n/a	n/a	n/a	n/a	n/a	n/a	n/a	n/a	n/a	n/a	fixation
129875.8360405	2750	n/a	1220	71	2750	246.1639595	stim	stop-signal	62	150169	0.0-7.27-1.27	beast_fmri_test	336	147795,/,148475,/,149155,/,149833,/	t,t,t,t	<img class = center src='/static/experiments/beast_fmri_test/images/P.png'></img>	71,89	2750.0	test	<img class = center src='/static/experiments/beast_fmri_test/images/redP.png'></img>	go	2100.0	3.0	27.0	go	target	P	71,Index Finger	89,Middle Finger	650.0	650.0	2100.0	2100.0	1.0	n/a	650.0	1.0	go_stim
132625.8360405	246.16395950000003	n/a	1220	71	2750	246.1639595	stim	stop-signal	62	150169	0.0-7.27-1.27	beast_fmri_test	336	147795,/,148475,/,149155,/,149833,/	t,t,t,t	<img class = center src='/static/experiments/beast_fmri_test/images/P.png'></img>	71,89	2750.0	test	<img class = center src='/static/experiments/beast_fmri_test/images/redP.png'></img>	go	2100.0	3.0	27.0	go	target	P	71,Index Finger	89,Middle Finger	650.0	650.0	2100.0	2100.0	1.0	n/a	650.0	1.0	ITI
133628	500	n/a	-1	-1	500	0.0	fixation	poldrack-single-stim	63	150925	0.0-7.28-0.28	beast_fmri_test	336	150513,/	t	<div class = centerbox2><div class = fixation>+</div></div>	none	500.0	test	n/a	n/a	n/a	n/a	n/a	n/a	n/a	n/a	n/a	n/a	n/a	n/a	n/a	n/a	n/a	n/a	n/a	n/a	fixation
131639.82176299999	2750	n/a	1035	89	2750	1989.178237	stim	stop-signal	64	153676	0.0-7.28-1.28	beast_fmri_test	336	151194,/,151872,/,152552,/,153232,/,153912,/,154590,/,155271,/	t,t,t,t,t,t,t	<img class = center src='/static/experiments/beast_fmri_test/images/P.png'></img>	71,89	2750.0	test	<img class = center src='/static/experiments/beast_fmri_test/images/redP.png'></img>	go	2100.0	3.0	28.0	go	non-target	P	71,Index Finger	89,Middle Finger	650.0	650.0	2100.0	2100.0	1.0	n/a	650.0	1.0	go_stim
134389.82176299999	1989.1782370000001	n/a	1035	89	2750	1989.178237	stim	stop-signal	64	153676	0.0-7.28-1.28	beast_fmri_test	336	151194,/,151872,/,152552,/,153232,/,153912,/,154590,/,155271,/	t,t,t,t,t,t,t	<img class = center src='/static/experiments/beast_fmri_test/images/P.png'></img>	71,89	2750.0	test	<img class = center src='/static/experiments/beast_fmri_test/images/redP.png'></img>	go	2100.0	3.0	28.0	go	non-target	P	71,Index Finger	89,Middle Finger	650.0	650.0	2100.0	2100.0	1.0	n/a	650.0	1.0	ITI
138881	500	n/a	-1	-1	500	0.0	fixation	poldrack-single-stim	65	156178	0.0-7.29-0.29	beast_fmri_test	336	155949,/	t	<div class = centerbox2><div class = fixation>+</div></div>	none	500.0	test	n/a	n/a	n/a	n/a	n/a	n/a	n/a	n/a	n/a	n/a	n/a	n/a	n/a	n/a	n/a	n/a	n/a	n/a	fixation
138373.7770261	2750	n/a	736	71	2750	509.2229739	stim	stop-signal	66	158930	0.0-7.29-1.29	beast_fmri_test	336	156630,/,157309,/,157989,/,158668,/,159349,/	t,t,t,t,t	<img class = center src='/static/experiments/beast_fmri_test/images/B.png'></img>	71,89	2750.0	test	<img class = center src='/static/experiments/beast_fmri_test/images/redB.png'></img>	go	2100.0	3.0	29.0	go	target	B	71,Index Finger	89,Middle Finger	650.0	650.0	2100.0	2100.0	1.0	n/a	650.0	1.0	go_stim
141123.7770261	509.2229739	n/a	736	71	2750	509.2229739	stim	stop-signal	66	158930	0.0-7.29-1.29	beast_fmri_test	336	156630,/,157309,/,157989,/,158668,/,159349,/	t,t,t,t,t	<img class = center src='/static/experiments/beast_fmri_test/images/B.png'></img>	71,89	2750.0	test	<img class = center src='/static/experiments/beast_fmri_test/images/redB.png'></img>	go	2100.0	3.0	29.0	go	target	B	71,Index Finger	89,Middle Finger	650.0	650.0	2100.0	2100.0	1.0	n/a	650.0	1.0	ITI
142656	500	n/a	-1	-1	500	0.0	fixation	poldrack-single-stim	67	159953	0.0-7.30-0.30	beast_fmri_test	336	n/a	n/a	<div class = centerbox2><div class = fixation>+</div></div>	none	500.0	test	n/a	n/a	n/a	n/a	n/a	n/a	n/a	n/a	n/a	n/a	n/a	n/a	n/a	n/a	n/a	n/a	n/a	n/a	fixation
142520.38554290001	2750	n/a	861	89	2750	136.6144571	stim	stop-signal	68	162704	0.0-7.30-1.30	beast_fmri_test	336	160029,/,160710,/,161390,/,162069,/,162748,/	t,t,t,t,t	<img class = center src='/static/experiments/beast_fmri_test/images/B.png'></img>	71,89	2750.0	test	<img class = center src='/static/experiments/beast_fmri_test/images/redB.png'></img>	go	2100.0	3.0	30.0	go	non-target	B	71,Index Finger	89,Middle Finger	650.0	650.0	2100.0	2100.0	1.0	n/a	650.0	1.0	go_stim
145270.38554290001	136.61445710000001	n/a	861	89	2750	136.6144571	stim	stop-signal	68	162704	0.0-7.30-1.30	beast_fmri_test	336	160029,/,160710,/,161390,/,162069,/,162748,/	t,t,t,t,t	<img class = center src='/static/experiments/beast_fmri_test/images/B.png'></img>	71,89	2750.0	test	<img class = center src='/static/experiments/beast_fmri_test/images/redB.png'></img>	go	2100.0	3.0	30.0	go	non-target	B	71,Index Finger	89,Middle Finger	650.0	650.0	2100.0	2100.0	1.0	n/a	650.0	1.0	ITI
146053	500	n/a	-1	-1	500	0.0	fixation	poldrack-single-stim	69	163350	0.0-7.31-0.31	beast_fmri_test	336	n/a	n/a	<div class = centerbox2><div class = fixation>+</div></div>	none	500.0	test	n/a	n/a	n/a	n/a	n/a	n/a	n/a	n/a	n/a	n/a	n/a	n/a	n/a	n/a	n/a	n/a	n/a	n/a	fixation
145155.65383339999	2750	n/a	1133	89	2750	898.3461666	stim	stop-signal	70	166101	0.0-7.31-1.31	beast_fmri_test	336	163427,/,164107,/,164787,/,165467,/,166146,/,166826,/	t,t,t,t,t,t	<img class = center src='/static/experiments/beast_fmri_test/images/T.png'></img>	71,89	2750.0	test	<img class = center src='/static/experiments/beast_fmri_test/images/redT.png'></img>	go	2100.0	3.0	31.0	go	non-target	T	71,Index Finger	89,Middle Finger	650.0	650.0	2100.0	2100.0	1.0	n/a	650.0	1.0	go_stim
147905.65383339999	898.34616660000006	n/a	1133	89	2750	898.3461666	stim	stop-signal	70	166101	0.0-7.31-1.31	beast_fmri_test	336	163427,/,164107,/,164787,/,165467,/,166146,/,166826,/	t,t,t,t,t,t	<img class = center src='/static/experiments/beast_fmri_test/images/T.png'></img>	71,89	2750.0	test	<img class = center src='/static/experiments/beast_fmri_test/images/redT.png'></img>	go	2100.0	3.0	31.0	go	non-target	T	71,Index Finger	89,Middle Finger	650.0	650.0	2100.0	2100.0	1.0	n/a	650.0	1.0	ITI
150213	500	n/a	-1	-1	500	0.0	fixation	poldrack-single-stim	71	167510	0.0-7.32-0.32	beast_fmri_test	336	167506,/	t	<div class = centerbox2><div class = fixation>+</div></div>	none	500.0	test	n/a	n/a	n/a	n/a	n/a	n/a	n/a	n/a	n/a	n/a	n/a	n/a	n/a	n/a	n/a	n/a	n/a	n/a	fixation
149910.30414170001	2750	n/a	616	71	2750	303.6958583	stim	stop-signal	72	170261	0.0-7.32-1.32	beast_fmri_test	336	168186,/,168865,/,169545,/,170225,/	t,t,t,t	<img class = center src='/static/experiments/beast_fmri_test/images/B.png'></img>	71,89	2750.0	test	<img class = center src='/static/experiments/beast_fmri_test/images/redB.png'></img>	go	2100.0	3.0	32.0	go	target	B	71,Index Finger	89,Middle Finger	650.0	650.0	2100.0	2100.0	1.0	n/a	650.0	1.0	go_stim
152660.30414170001	303.6958583	n/a	616	71	2750	303.6958583	stim	stop-signal	72	170261	0.0-7.32-1.32	beast_fmri_test	336	168186,/,168865,/,169545,/,170225,/	t,t,t,t	<img class = center src='/static/experiments/beast_fmri_test/images/B.png'></img>	71,89	2750.0	test	<img class = center src='/static/experiments/beast_fmri_test/images/redB.png'></img>	go	2100.0	3.0	32.0	go	target	B	71,Index Finger	89,Middle Finger	650.0	650.0	2100.0	2100.0	1.0	n/a	650.0	1.0	ITI
153781	500	n/a	-1	-1	500	0.0	fixation	poldrack-single-stim	73	171078	0.0-7.33-0.33	beast_fmri_test	336	170905,/	t	<div class = centerbox2><div class = fixation>+</div></div>	none	500.0	test	n/a	n/a	n/a	n/a	n/a	n/a	n/a	n/a	n/a	n/a	n/a	n/a	n/a	n/a	n/a	n/a	n/a	n/a	fixation
153649.7851137	2750	n/a	690	71	2750	132.2148863	stim	stop-signal	74	173829	0.0-7.33-1.33	beast_fmri_test	336	171584,/,172264,/,172943,/,173623,/	t,t,t,t	<img class = center src='/static/experiments/beast_fmri_test/images/T.png'></img>	71,89	2750.0	test	<img class = center src='/static/experiments/beast_fmri_test/images/redT.png'></img>	go	2100.0	3.0	33.0	go	non-target	T	71,Index Finger	89,Middle Finger	650.0	650.0	2100.0	2100.0	0.0	n/a	650.0	0.0	go_stim
156399.7851137	132.21488629999999	n/a	690	71	2750	132.2148863	stim	stop-signal	74	173829	0.0-7.33-1.33	beast_fmri_test	336	171584,/,172264,/,172943,/,173623,/	t,t,t,t	<img class = center src='/static/experiments/beast_fmri_test/images/T.png'></img>	71,89	2750.0	test	<img class = center src='/static/experiments/beast_fmri_test/images/redT.png'></img>	go	2100.0	3.0	33.0	go	non-target	T	71,Index Finger	89,Middle Finger	650.0	650.0	2100.0	2100.0	0.0	n/a	650.0	0.0	ITI
157179	500	n/a	-1	-1	500	0.0	fixation	poldrack-single-stim	75	174476	0.0-7.34-0.34	beast_fmri_test	336	174302,/	t	<div class = centerbox2><div class = fixation>+</div></div>	none	500.0	test	n/a	n/a	n/a	n/a	n/a	n/a	n/a	n/a	n/a	n/a	n/a	n/a	n/a	n/a	n/a	n/a	n/a	n/a	fixation
154762.486515	650.0	n/a	-1	-1	2750	2418.513485	stim	stop-signal	76	177228	0.0-7.34-1.34	beast_fmri_test	336	174983,/,175662,/,176341,/,177021,/,177700,/,178380,/,179060,/	t,t,t,t,t,t,t	<img class = center src='/static/experiments/beast_fmri_test/images/T.png'></img>	71,89	2750.0	test	<img class = center src='/static/experiments/beast_fmri_test/images/redT.png'></img>	stop	2100.0	3.0	34.0	stop	target	T	71,Index Finger	89,Middle Finger	650.0	650.0	2100.0	2100.0	0.0	1.0	650.0	n/a	go_stim
156862.486515	2100.0	n/a	-1	-1	2750	2418.513485	stim	stop-signal	76	177228	0.0-7.34-1.34	beast_fmri_test	336	174983,/,175662,/,176341,/,177021,/,177700,/,178380,/,179060,/	t,t,t,t,t,t,t	<img class = center src='/static/experiments/beast_fmri_test/images/T.png'></img>	71,89	2750.0	test	<img class = center src='/static/experiments/beast_fmri_test/images/redT.png'></img>	stop	2100.0	3.0	34.0	stop	target	T	71,Index Finger	89,Middle Finger	650.0	650.0	2100.0	2100.0	0.0	1.0	650.0	n/a	stop_stim
157512.486515	2418.5134849999999	n/a	-1	-1	2750	2418.513485	stim	stop-signal	76	177228	0.0-7.34-1.34	beast_fmri_test	336	174983,/,175662,/,176341,/,177021,/,177700,/,178380,/,179060,/	t,t,t,t,t,t,t	<img class = center src='/static/experiments/beast_fmri_test/images/T.png'></img>	71,89	2750.0	test	<img class = center src='/static/experiments/beast_fmri_test/images/redT.png'></img>	stop	2100.0	3.0	34.0	stop	target	T	71,Index Finger	89,Middle Finger	650.0	650.0	2100.0	2100.0	0.0	1.0	650.0	n/a	ITI
162862	500	n/a	-1	-1	500	0.0	fixation	poldrack-single-stim	77	180159	0.0-7.35-0.35	beast_fmri_test	336	179739,/	t	<div class = centerbox2><div class = fixation>+</div></div>	none	500.0	test	n/a	n/a	n/a	n/a	n/a	n/a	n/a	n/a	n/a	n/a	n/a	n/a	n/a	n/a	n/a	n/a	n/a	n/a	fixation
161984.43453960001	650.0	n/a	816	89	2750	879.5654604	stim	stop-signal	78	182911	0.0-7.35-1.35	beast_fmri_test	336	180420,/,181099,/,181777,/,182459,/,183138,/	t,t,t,t,t	<img class = center src='/static/experiments/beast_fmri_test/images/D.png'></img>	71,89	2750.0	test	<img class = center src='/static/experiments/beast_fmri_test/images/redD.png'></img>	stop	2100.0	3.0	35.0	stop	non-target	D	71,Index Finger	89,Middle Finger	700.0	650.0	2100.0	2100.0	0.0	0.0	650.0	n/a	go_stim
164084.43453960001	2100.0	n/a	816	89	2750	879.5654604	stim	stop-signal	78	182911	0.0-7.35-1.35	beast_fmri_test	336	180420,/,181099,/,181777,/,182459,/,183138,/	t,t,t,t,t	<img class = center src='/static/experiments/beast_fmri_test/images/D.png'></img>	71,89	2750.0	test	<img class = center src='/static/experiments/beast_fmri_test/images/redD.png'></img>	stop	2100.0	3.0	35.0	stop	non-target	D	71,Index Finger	89,Middle Finger	700.0	650.0	2100.0	2100.0	0.0	0.0	650.0	n/a	stop_stim
164734.43453960001	879.56546040000001	n/a	816	89	2750	879.5654604	stim	stop-signal	78	182911	0.0-7.35-1.35	beast_fmri_test	336	180420,/,181099,/,181777,/,182459,/,183138,/	t,t,t,t,t	<img class = center src='/static/experiments/beast_fmri_test/images/D.png'></img>	71,89	2750.0	test	<img class = center src='/static/experiments/beast_fmri_test/images/redD.png'></img>	stop	2100.0	3.0	35.0	stop	non-target	D	71,Index Finger	89,Middle Finger	700.0	650.0	2100.0	2100.0	0.0	0.0	650.0	n/a	ITI
167009	500	n/a	-1	-1	500	0.0	fixation	poldrack-single-stim	79	184306	0.0-7.36-0.36	beast_fmri_test	336	183817,/	t	<div class = centerbox2><div class = fixation>+</div></div>	none	500.0	test	n/a	n/a	n/a	n/a	n/a	n/a	n/a	n/a	n/a	n/a	n/a	n/a	n/a	n/a	n/a	n/a	n/a	n/a	fixation
162010.0	2750	n/a	778	71	2750	5000.0	stim	stop-signal	80	187057	0.0-7.36-1.36	beast_fmri_test	336	184498,/,185177,/,185856,/,186536,/,187217,/,187896,/,188574,/,189256,/,189936,/,190615,/,191294,/,191974,/	t,t,t,t,t,t,t,t,t,t,t,t	<img class = center src='/static/experiments/beast_fmri_test/images/T.png'></img>	71,89	2750.0	test	<img class = center src='/static/experiments/beast_fmri_test/images/redT.png'></img>	go	2050.0	3.0	36.0	go	target	T	71,Index Finger	89,Middle Finger	700.0	600.0	2050.0	2100.0	1.0	n/a	700.0	1.0	go_stim
164760.0	5000.0	n/a	778	71	2750	5000.0	stim	stop-signal	80	187057	0.0-7.36-1.36	beast_fmri_test	336	184498,/,185177,/,185856,/,186536,/,187217,/,187896,/,188574,/,189256,/,189936,/,190615,/,191294,/,191974,/	t,t,t,t,t,t,t,t,t,t,t,t	<img class = center src='/static/experiments/beast_fmri_test/images/T.png'></img>	71,89	2750.0	test	<img class = center src='/static/experiments/beast_fmri_test/images/redT.png'></img>	go	2050.0	3.0	36.0	go	target	T	71,Index Finger	89,Middle Finger	700.0	600.0	2050.0	2100.0	1.0	n/a	700.0	1.0	ITI
175273	500	n/a	-1	-1	500	0.0	fixation	poldrack-single-stim	81	192570	0.0-7.37-0.37	beast_fmri_test	336	n/a	n/a	<div class = centerbox2><div class = fixation>+</div></div>	none	500.0	test	n/a	n/a	n/a	n/a	n/a	n/a	n/a	n/a	n/a	n/a	n/a	n/a	n/a	n/a	n/a	n/a	n/a	n/a	fixation
175240.80333672001	700.0	n/a	1226	89	2750	33.19666328	stim	stop-signal	82	195321	0.0-7.37-1.37	beast_fmri_test	336	192654,/,193333,/,194014,/,194693,/	t,t,t,t	<img class = center src='/static/experiments/beast_fmri_test/images/T.png'></img>	71,89	2750.0	test	<img class = center src='/static/experiments/beast_fmri_test/images/redT.png'></img>	stop	2050.0	3.0	37.0	stop	target	T	71,Index Finger	89,Middle Finger	700.0	600.0	2050.0	2100.0	0.0	0.0	700.0	n/a	go_stim
177290.80333672001	2050.0	n/a	1226	89	2750	33.19666328	stim	stop-signal	82	195321	0.0-7.37-1.37	beast_fmri_test	336	192654,/,193333,/,194014,/,194693,/	t,t,t,t	<img class = center src='/static/experiments/beast_fmri_test/images/T.png'></img>	71,89	2750.0	test	<img class = center src='/static/experiments/beast_fmri_test/images/redT.png'></img>	stop	2050.0	3.0	37.0	stop	target	T	71,Index Finger	89,Middle Finger	700.0	600.0	2050.0	2100.0	0.0	0.0	700.0	n/a	stop_stim
177990.80333672001	33.196663280000003	n/a	1226	89	2750	33.19666328	stim	stop-signal	82	195321	0.0-7.37-1.37	beast_fmri_test	336	192654,/,193333,/,194014,/,194693,/	t,t,t,t	<img class = center src='/static/experiments/beast_fmri_test/images/T.png'></img>	71,89	2750.0	test	<img class = center src='/static/experiments/beast_fmri_test/images/redT.png'></img>	stop	2050.0	3.0	37.0	stop	target	T	71,Index Finger	89,Middle Finger	700.0	600.0	2050.0	2100.0	0.0	0.0	700.0	n/a	ITI
178571	500	n/a	-1	-1	500	0.0	fixation	poldrack-single-stim	83	195868	0.0-7.38-0.38	beast_fmri_test	336	195375,/	t	<div class = centerbox2><div class = fixation>+</div></div>	none	500.0	test	n/a	n/a	n/a	n/a	n/a	n/a	n/a	n/a	n/a	n/a	n/a	n/a	n/a	n/a	n/a	n/a	n/a	n/a	fixation
178509.68208286	2750	n/a	1280	89	2750	64.31791714	stim	stop-signal	84	198621	0.0-7.38-1.38	beast_fmri_test	336	196053,/,196732,/,197411,/,198091,/	t,t,t,t	<img class = center src='/static/experiments/beast_fmri_test/images/V.png'></img>	71,89	2750.0	test	<img class = center src='/static/experiments/beast_fmri_test/images/redV.png'></img>	go	2150.0	3.0	38.0	go	non-target	V	71,Index Finger	89,Middle Finger	650.0	600.0	2050.0	2150.0	1.0	n/a	600.0	1.0	go_stim
181259.68208286	64.317917140000006	n/a	1280	89	2750	64.31791714	stim	stop-signal	84	198621	0.0-7.38-1.38	beast_fmri_test	336	196053,/,196732,/,197411,/,198091,/	t,t,t,t	<img class = center src='/static/experiments/beast_fmri_test/images/V.png'></img>	71,89	2750.0	test	<img class = center src='/static/experiments/beast_fmri_test/images/redV.png'></img>	go	2150.0	3.0	38.0	go	non-target	V	71,Index Finger	89,Middle Finger	650.0	600.0	2050.0	2150.0	1.0	n/a	600.0	1.0	ITI
181901	500	n/a	-1	-1	500	0.0	fixation	poldrack-single-stim	85	199198	0.0-7.39-0.39	beast_fmri_test	336	198772,/	t	<div class = centerbox2><div class = fixation>+</div></div>	none	500.0	test	n/a	n/a	n/a	n/a	n/a	n/a	n/a	n/a	n/a	n/a	n/a	n/a	n/a	n/a	n/a	n/a	n/a	n/a	fixation
181030.7321237	2750	n/a	1051	71	2750	872.2678763	stim	stop-signal	86	201950	0.0-7.39-1.39	beast_fmri_test	336	199451,/,200131,/,200811,/,201490,/,202170,/	t,t,t,t,t	<img class = center src='/static/experiments/beast_fmri_test/images/D.png'></img>	71,89	2750.0	test	<img class = center src='/static/experiments/beast_fmri_test/images/redD.png'></img>	go	2150.0	3.0	39.0	go	non-target	D	71,Index Finger	89,Middle Finger	650.0	600.0	2050.0	2150.0	0.0	n/a	600.0	0.0	go_stim
183780.7321237	872.26787630000001	n/a	1051	71	2750	872.2678763	stim	stop-signal	86	201950	0.0-7.39-1.39	beast_fmri_test	336	199451,/,200131,/,200811,/,201490,/,202170,/	t,t,t,t,t	<img class = center src='/static/experiments/beast_fmri_test/images/D.png'></img>	71,89	2750.0	test	<img class = center src='/static/experiments/beast_fmri_test/images/redD.png'></img>	go	2150.0	3.0	39.0	go	non-target	D	71,Index Finger	89,Middle Finger	650.0	600.0	2050.0	2150.0	0.0	n/a	600.0	0.0	ITI
186038	500	n/a	-1	-1	500	0.0	fixation	poldrack-single-stim	87	203335	0.0-7.40-0.40	beast_fmri_test	336	202849,/	t	<div class = centerbox2><div class = fixation>+</div></div>	none	500.0	test	n/a	n/a	n/a	n/a	n/a	n/a	n/a	n/a	n/a	n/a	n/a	n/a	n/a	n/a	n/a	n/a	n/a	n/a	fixation
185913.0749299	2750	n/a	748	89	2750	126.9250701	stim	stop-signal	88	206087	0.0-7.40-1.40	beast_fmri_test	336	203528,/,204209,/,204889,/,205568,/	t,t,t,t	<img class = center src='/static/experiments/beast_fmri_test/images/P.png'></img>	71,89	2750.0	test	<img class = center src='/static/experiments/beast_fmri_test/images/redP.png'></img>	go	2150.0	3.0	40.0	go	non-target	P	71,Index Finger	89,Middle Finger	650.0	600.0	2050.0	2150.0	1.0	n/a	600.0	1.0	go_stim
188663.0749299	126.92507009999999	n/a	748	89	2750	126.9250701	stim	stop-signal	88	206087	0.0-7.40-1.40	beast_fmri_test	336	203528,/,204209,/,204889,/,205568,/	t,t,t,t	<img class = center src='/static/experiments/beast_fmri_test/images/P.png'></img>	71,89	2750.0	test	<img class = center src='/static/experiments/beast_fmri_test/images/redP.png'></img>	go	2150.0	3.0	40.0	go	non-target	P	71,Index Finger	89,Middle Finger	650.0	600.0	2050.0	2150.0	1.0	n/a	600.0	1.0	ITI
189429	500	n/a	-1	-1	500	0.0	fixation	poldrack-single-stim	89	206726	0.0-7.41-0.41	beast_fmri_test	336	206247,/	t	<div class = centerbox2><div class = fixation>+</div></div>	none	500.0	test	n/a	n/a	n/a	n/a	n/a	n/a	n/a	n/a	n/a	n/a	n/a	n/a	n/a	n/a	n/a	n/a	n/a	n/a	fixation
189429.355406405	2750	n/a	803	71	2750	2.644593595	stim	stop-signal	90	209479	0.0-7.41-1.41	beast_fmri_test	336	206926,/,207605,/,208286,/,208965,/	t,t,t,t	<img class = center src='/static/experiments/beast_fmri_test/images/V.png'></img>	71,89	2750.0	test	<img class = center src='/static/experiments/beast_fmri_test/images/redV.png'></img>	go	2100.0	3.0	41.0	go	target	V	71,Index Finger	89,Middle Finger	650.0	600.0	2100.0	2150.0	1.0	n/a	650.0	1.0	go_stim
192179.355406405	2.6445935949999999	n/a	803	71	2750	2.644593595	stim	stop-signal	90	209479	0.0-7.41-1.41	beast_fmri_test	336	206926,/,207605,/,208286,/,208965,/	t,t,t,t	<img class = center src='/static/experiments/beast_fmri_test/images/V.png'></img>	71,89	2750.0	test	<img class = center src='/static/experiments/beast_fmri_test/images/redV.png'></img>	go	2100.0	3.0	41.0	go	target	V	71,Index Finger	89,Middle Finger	650.0	600.0	2100.0	2150.0	1.0	n/a	650.0	1.0	ITI
192702	500	n/a	-1	-1	500	0.0	fixation	poldrack-single-stim	91	209999	0.0-7.42-0.42	beast_fmri_test	336	209645,/	t	<div class = centerbox2><div class = fixation>+</div></div>	none	500.0	test	n/a	n/a	n/a	n/a	n/a	n/a	n/a	n/a	n/a	n/a	n/a	n/a	n/a	n/a	n/a	n/a	n/a	n/a	fixation
191715.5157817	2750	n/a	1682	89	2750	988.4842183	stim	stop-signal	92	212751	0.0-7.42-1.42	beast_fmri_test	336	210327,/,211005,/,211686,/,212363,/,213043,/,213724,/	t,t,t,t,t,t	<img class = center src='/static/experiments/beast_fmri_test/images/D.png'></img>	71,89	2750.0	test	<img class = center src='/static/experiments/beast_fmri_test/images/redD.png'></img>	go	2100.0	3.0	42.0	go	target	D	71,Index Finger	89,Middle Finger	650.0	600.0	2100.0	2150.0	0.0	n/a	650.0	0.0	go_stim
194465.5157817	988.48421830000007	n/a	1682	89	2750	988.4842183	stim	stop-signal	92	212751	0.0-7.42-1.42	beast_fmri_test	336	210327,/,211005,/,211686,/,212363,/,213043,/,213724,/	t,t,t,t,t,t	<img class = center src='/static/experiments/beast_fmri_test/images/D.png'></img>	71,89	2750.0	test	<img class = center src='/static/experiments/beast_fmri_test/images/redD.png'></img>	go	2100.0	3.0	42.0	go	target	D	71,Index Finger	89,Middle Finger	650.0	600.0	2100.0	2150.0	0.0	n/a	650.0	0.0	ITI
196957	500	n/a	-1	-1	500	0.0	fixation	poldrack-single-stim	93	214254	0.0-7.43-0.43	beast_fmri_test	336	n/a	n/a	<div class = centerbox2><div class = fixation>+</div></div>	none	500.0	test	n/a	n/a	n/a	n/a	n/a	n/a	n/a	n/a	n/a	n/a	n/a	n/a	n/a	n/a	n/a	n/a	n/a	n/a	fixation
196531.2969706	600.0	n/a	-1	-1	2750	427.7030294	stim	stop-signal	94	217006	0.0-7.43-1.43	beast_fmri_test	336	214403,/,215084,/,215763,/,216442,/,217122,/	t,t,t,t,t	<img class = center src='/static/experiments/beast_fmri_test/images/D.png'></img>	71,89	2750.0	test	<img class = center src='/static/experiments/beast_fmri_test/images/redD.png'></img>	stop	2150.0	3.0	43.0	stop	non-target	D	71,Index Finger	89,Middle Finger	650.0	600.0	2100.0	2150.0	0.0	1.0	600.0	n/a	go_stim
198681.2969706	2150.0	n/a	-1	-1	2750	427.7030294	stim	stop-signal	94	217006	0.0-7.43-1.43	beast_fmri_test	336	214403,/,215084,/,215763,/,216442,/,217122,/	t,t,t,t,t	<img class = center src='/static/experiments/beast_fmri_test/images/D.png'></img>	71,89	2750.0	test	<img class = center src='/static/experiments/beast_fmri_test/images/redD.png'></img>	stop	2150.0	3.0	43.0	stop	non-target	D	71,Index Finger	89,Middle Finger	650.0	600.0	2100.0	2150.0	0.0	1.0	600.0	n/a	stop_stim
199281.2969706	427.70302939999999	n/a	-1	-1	2750	427.7030294	stim	stop-signal	94	217006	0.0-7.43-1.43	beast_fmri_test	336	214403,/,215084,/,215763,/,216442,/,217122,/	t,t,t,t,t	<img class = center src='/static/experiments/beast_fmri_test/images/D.png'></img>	71,89	2750.0	test	<img class = center src='/static/experiments/beast_fmri_test/images/redD.png'></img>	stop	2150.0	3.0	43.0	stop	non-target	D	71,Index Finger	89,Middle Finger	650.0	600.0	2100.0	2150.0	0.0	1.0	600.0	n/a	ITI
200651	500	n/a	-1	-1	500	0.0	fixation	poldrack-single-stim	95	217948	0.0-7.44-0.44	beast_fmri_test	336	217801,/	t	<div class = centerbox2><div class = fixation>+</div></div>	none	500.0	test	n/a	n/a	n/a	n/a	n/a	n/a	n/a	n/a	n/a	n/a	n/a	n/a	n/a	n/a	n/a	n/a	n/a	n/a	fixation
200222.68063739999	2750	n/a	1010	89	2750	429.3193626	stim	stop-signal	96	220699	0.0-7.44-1.44	beast_fmri_test	336	218483,/,219163,/,219842,/,220521,/	t,t,t,t	<img class = center src='/static/experiments/beast_fmri_test/images/V.png'></img>	71,89	2750.0	test	<img class = center src='/static/experiments/beast_fmri_test/images/redV.png'></img>	go	2100.0	3.0	44.0	go	target	V	71,Index Finger	89,Middle Finger	650.0	650.0	2100.0	2150.0	0.0	n/a	650.0	0.0	go_stim
202972.68063739999	429.31936260000003	n/a	1010	89	2750	429.3193626	stim	stop-signal	96	220699	0.0-7.44-1.44	beast_fmri_test	336	218483,/,219163,/,219842,/,220521,/	t,t,t,t	<img class = center src='/static/experiments/beast_fmri_test/images/V.png'></img>	71,89	2750.0	test	<img class = center src='/static/experiments/beast_fmri_test/images/redV.png'></img>	go	2100.0	3.0	44.0	go	target	V	71,Index Finger	89,Middle Finger	650.0	650.0	2100.0	2150.0	0.0	n/a	650.0	0.0	ITI
204347	500	n/a	-1	-1	500	0.0	fixation	poldrack-single-stim	97	221644	0.0-7.45-0.45	beast_fmri_test	336	221200,/	t	<div class = centerbox2><div class = fixation>+</div></div>	none	500.0	test	n/a	n/a	n/a	n/a	n/a	n/a	n/a	n/a	n/a	n/a	n/a	n/a	n/a	n/a	n/a	n/a	n/a	n/a	fixation
202550.60398300001	650.0	n/a	-1	-1	2750	1798.396017	stim	stop-signal	98	224396	0.0-7.45-1.45	beast_fmri_test	336	221881,/,222561,/,223241,/,223919,/,224599,/,225279,/,225959,/	t,t,t,t,t,t,t	<img class = center src='/static/experiments/beast_fmri_test/images/P.png'></img>	71,89	2750.0	test	<img class = center src='/static/experiments/beast_fmri_test/images/redP.png'></img>	stop	2100.0	3.0	45.0	stop	non-target	P	71,Index Finger	89,Middle Finger	650.0	650.0	2100.0	2100.0	0.0	1.0	650.0	n/a	go_stim
204650.60398300001	2100.0	n/a	-1	-1	2750	1798.396017	stim	stop-signal	98	224396	0.0-7.45-1.45	beast_fmri_test	336	221881,/,222561,/,223241,/,223919,/,224599,/,225279,/,225959,/	t,t,t,t,t,t,t	<img class = center src='/static/experiments/beast_fmri_test/images/P.png'></img>	71,89	2750.0	test	<img class = center src='/static/experiments/beast_fmri_test/images/redP.png'></img>	stop	2100.0	3.0	45.0	stop	non-target	P	71,Index Finger	89,Middle Finger	650.0	650.0	2100.0	2100.0	0.0	1.0	650.0	n/a	stop_stim
205300.60398300001	1798.3960170000003	n/a	-1	-1	2750	1798.396017	stim	stop-signal	98	224396	0.0-7.45-1.45	beast_fmri_test	336	221881,/,222561,/,223241,/,223919,/,224599,/,225279,/,225959,/	t,t,t,t,t,t,t	<img class = center src='/static/experiments/beast_fmri_test/images/P.png'></img>	71,89	2750.0	test	<img class = center src='/static/experiments/beast_fmri_test/images/redP.png'></img>	stop	2100.0	3.0	45.0	stop	non-target	P	71,Index Finger	89,Middle Finger	650.0	650.0	2100.0	2100.0	0.0	1.0	650.0	n/a	ITI
209412	500	n/a	-1	-1	500	0.0	fixation	poldrack-single-stim	99	226709	0.0-7.46-0.46	beast_fmri_test	336	226639,/	t	<div class = centerbox2><div class = fixation>+</div></div>	none	500.0	test	n/a	n/a	n/a	n/a	n/a	n/a	n/a	n/a	n/a	n/a	n/a	n/a	n/a	n/a	n/a	n/a	n/a	n/a	fixation
207701.59321299999	2750	n/a	1135	89	2750	1711.406787	stim	stop-signal	100	229460	0.0-7.46-1.46	beast_fmri_test	336	227319,/,227998,/,228677,/,229356,/,230037,/,230715,/	t,t,t,t,t,t	<img class = center src='/static/experiments/beast_fmri_test/images/D.png'></img>	71,89	2750.0	test	<img class = center src='/static/experiments/beast_fmri_test/images/redD.png'></img>	go	2100.0	3.0	46.0	go	target	D	71,Index Finger	89,Middle Finger	650.0	700.0	2100.0	2100.0	0.0	n/a	650.0	0.0	go_stim
210451.59321299999	1711.4067870000001	n/a	1135	89	2750	1711.406787	stim	stop-signal	100	229460	0.0-7.46-1.46	beast_fmri_test	336	227319,/,227998,/,228677,/,229356,/,230037,/,230715,/	t,t,t,t,t,t	<img class = center src='/static/experiments/beast_fmri_test/images/D.png'></img>	71,89	2750.0	test	<img class = center src='/static/experiments/beast_fmri_test/images/redD.png'></img>	go	2100.0	3.0	46.0	go	target	D	71,Index Finger	89,Middle Finger	650.0	700.0	2100.0	2100.0	0.0	n/a	650.0	0.0	ITI
214390	500	n/a	-1	-1	500	0.0	fixation	poldrack-single-stim	101	231687	0.0-7.47-0.47	beast_fmri_test	336	231396,/	t	<div class = centerbox2><div class = fixation>+</div></div>	none	500.0	test	n/a	n/a	n/a	n/a	n/a	n/a	n/a	n/a	n/a	n/a	n/a	n/a	n/a	n/a	n/a	n/a	n/a	n/a	fixation
214331.75845029001	2750	n/a	838	71	2750	59.24154971	stim	stop-signal	102	234438	0.0-7.47-1.47	beast_fmri_test	336	232076,/,232756,/,233435,/,234115,/	t,t,t,t	<img class = center src='/static/experiments/beast_fmri_test/images/P.png'></img>	71,89	2750.0	test	<img class = center src='/static/experiments/beast_fmri_test/images/redP.png'></img>	go	2050.0	3.0	47.0	go	non-target	P	71,Index Finger	89,Middle Finger	650.0	700.0	2100.0	2050.0	0.0	n/a	700.0	0.0	go_stim
217081.75845029001	59.241549710000001	n/a	838	71	2750	59.24154971	stim	stop-signal	102	234438	0.0-7.47-1.47	beast_fmri_test	336	232076,/,232756,/,233435,/,234115,/	t,t,t,t	<img class = center src='/static/experiments/beast_fmri_test/images/P.png'></img>	71,89	2750.0	test	<img class = center src='/static/experiments/beast_fmri_test/images/redP.png'></img>	go	2050.0	3.0	47.0	go	non-target	P	71,Index Finger	89,Middle Finger	650.0	700.0	2100.0	2050.0	0.0	n/a	700.0	0.0	ITI
232214	15000	n/a	-1	-1	15000	0.0	practice-no-stop-feedback	poldrack-single-stim	103	249511	0.0-8.0	beast_fmri_test	336	234794,/,235473,/,236154,/,236834,/,237513,/,238192,/,238872,/,239552,/,240232,/,240910,/,241590,/,242270,/,242951,/,243630,/,244310,/,244989,/,245669,/,246349,/,247028,/,247709,/,248388,/,249067,/	t,t,t,t,t,t,t,t,t,t,t,t,t,t,t,t,t,t,t,t,t,t	"<div class = ""centerbox""><p class = ""block-text"">Your delay is 2 trials.</p><p class = block-text>Please wait for the scanner to start the block</p></div>"	77	15000.0	n/a	n/a	n/a	n/a	n/a	n/a	n/a	n/a	n/a	n/a	n/a	n/a	n/a	n/a	n/a	n/a	n/a	n/a	n/a	practice-no-stop-feedback
232717	500	n/a	-1	-1	500	0.0	fixation	poldrack-single-stim	104	250014	0.0-9.0-0.0	beast_fmri_test	336	249748,/	t	<div class = centerbox2><div class = fixation>+</div></div>	none	500.0	test	n/a	n/a	n/a	n/a	n/a	n/a	n/a	n/a	n/a	n/a	n/a	n/a	n/a	n/a	n/a	n/a	n/a	n/a	fixation
231883.0109694	2750	n/a	933	89	2750	835.9890306	stim	stop-signal	105	252766	0.0-9.0-1.0	beast_fmri_test	336	250427,/,251108,/,251787,/,252467,/,253146,/	t,t,t,t,t	<img class = center src='/static/experiments/beast_fmri_test/images/D.png'></img>	71,89	2750.0	test	<img class = center src='/static/experiments/beast_fmri_test/images/redD.png'></img>	go	-1.0	2.0	0.0	go	temp-non-target	D	71,Index Finger	89,Middle Finger	650.0	700.0	2100.0	2050.0	0.0	n/a	n/a	n/a	go_stim
234633.0109694	835.98903059999998	n/a	933	89	2750	835.9890306	stim	stop-signal	105	252766	0.0-9.0-1.0	beast_fmri_test	336	250427,/,251108,/,251787,/,252467,/,253146,/	t,t,t,t,t	<img class = center src='/static/experiments/beast_fmri_test/images/D.png'></img>	71,89	2750.0	test	<img class = center src='/static/experiments/beast_fmri_test/images/redD.png'></img>	go	-1.0	2.0	0.0	go	temp-non-target	D	71,Index Finger	89,Middle Finger	650.0	700.0	2100.0	2050.0	0.0	n/a	n/a	n/a	ITI
236822	500	n/a	-1	-1	500	0.0	fixation	poldrack-single-stim	106	254119	0.0-9.1-0.1	beast_fmri_test	336	253825,/	t	<div class = centerbox2><div class = fixation>+</div></div>	none	500.0	test	n/a	n/a	n/a	n/a	n/a	n/a	n/a	n/a	n/a	n/a	n/a	n/a	n/a	n/a	n/a	n/a	n/a	n/a	fixation
234518.91898700001	temp_go_duration	n/a	1252	89	2750	2305.081013	stim	stop-signal	107	256871	0.0-9.1-1.1	beast_fmri_test	336	254506,/,255186,/,255865,/,256545,/,257223,/,257903,/,258583,/	t,t,t,t,t,t,t	<img class = center src='/static/experiments/beast_fmri_test/images/B.png'></img>	71,89	2750.0	test	<img class = center src='/static/experiments/beast_fmri_test/images/redB.png'></img>	stop	-1.0	2.0	1.0	stop	temp-non-target	B	71,Index Finger	89,Middle Finger	650.0	700.0	2100.0	2050.0	0.0	0.0	n/a	n/a	go_stim
temp-non-target	temp_stop_duration	n/a	1252	89	2750	2305.081013	stim	stop-signal	107	256871	0.0-9.1-1.1	beast_fmri_test	336	254506,/,255186,/,255865,/,256545,/,257223,/,257903,/,258583,/	t,t,t,t,t,t,t	<img class = center src='/static/experiments/beast_fmri_test/images/B.png'></img>	71,89	2750.0	test	<img class = center src='/static/experiments/beast_fmri_test/images/redB.png'></img>	stop	-1.0	2.0	1.0	stop	temp-non-target	B	71,Index Finger	89,Middle Finger	650.0	700.0	2100.0	2050.0	0.0	0.0	n/a	n/a	stop_stim
237268.91898700001	2305.081013	n/a	1252	89	2750	2305.081013	stim	stop-signal	107	256871	0.0-9.1-1.1	beast_fmri_test	336	254506,/,255186,/,255865,/,256545,/,257223,/,257903,/,258583,/	t,t,t,t,t,t,t	<img class = center src='/static/experiments/beast_fmri_test/images/B.png'></img>	71,89	2750.0	test	<img class = center src='/static/experiments/beast_fmri_test/images/redB.png'></img>	stop	-1.0	2.0	1.0	stop	temp-non-target	B	71,Index Finger	89,Middle Finger	650.0	700.0	2100.0	2050.0	0.0	0.0	n/a	n/a	ITI
242395	500	n/a	-1	-1	500	0.0	fixation	poldrack-single-stim	108	259692	0.0-9.2-0.2	beast_fmri_test	336	259262,/	t	<div class = centerbox2><div class = fixation>+</div></div>	none	500.0	test	n/a	n/a	n/a	n/a	n/a	n/a	n/a	n/a	n/a	n/a	n/a	n/a	n/a	n/a	n/a	n/a	n/a	n/a	fixation
241330.62176400001	2750	n/a	791	89	2750	1066.378236	stim	stop-signal	109	262444	0.0-9.2-1.2	beast_fmri_test	336	259941,/,260623,/,261302,/,261982,/,262661,/,263341,/	t,t,t,t,t,t	<img class = center src='/static/experiments/beast_fmri_test/images/V.png'></img>	71,89	2750.0	test	<img class = center src='/static/experiments/beast_fmri_test/images/redV.png'></img>	go	2050.0	2.0	2.0	go	non-target	V	71,Index Finger	89,Middle Finger	650.0	700.0	2100.0	2050.0	1.0	n/a	700.0	1.0	go_stim
244080.62176400001	1066.378236	n/a	791	89	2750	1066.378236	stim	stop-signal	109	262444	0.0-9.2-1.2	beast_fmri_test	336	259941,/,260623,/,261302,/,261982,/,262661,/,263341,/	t,t,t,t,t,t	<img class = center src='/static/experiments/beast_fmri_test/images/V.png'></img>	71,89	2750.0	test	<img class = center src='/static/experiments/beast_fmri_test/images/redV.png'></img>	go	2050.0	2.0	2.0	go	non-target	V	71,Index Finger	89,Middle Finger	650.0	700.0	2100.0	2050.0	1.0	n/a	700.0	1.0	ITI
246728	500	n/a	-1	-1	500	0.0	fixation	poldrack-single-stim	110	264025	0.0-9.3-0.3	beast_fmri_test	336	264022,/	t	<div class = centerbox2><div class = fixation>+</div></div>	none	500.0	test	n/a	n/a	n/a	n/a	n/a	n/a	n/a	n/a	n/a	n/a	n/a	n/a	n/a	n/a	n/a	n/a	n/a	n/a	fixation
246443.13327049999	2750	n/a	640	71	2750	287.8667295	stim	stop-signal	111	266778	0.0-9.3-1.3	beast_fmri_test	336	264700,/,265380,/,266060,/,266740,/	t,t,t,t	<img class = center src='/static/experiments/beast_fmri_test/images/B.png'></img>	71,89	2750.0	test	<img class = center src='/static/experiments/beast_fmri_test/images/redB.png'></img>	go	2100.0	2.0	3.0	go	target	B	71,Index Finger	89,Middle Finger	650.0	700.0	2100.0	2050.0	1.0	n/a	650.0	1.0	go_stim
249193.13327049999	287.86672950000002	n/a	640	71	2750	287.8667295	stim	stop-signal	111	266778	0.0-9.3-1.3	beast_fmri_test	336	264700,/,265380,/,266060,/,266740,/	t,t,t,t	<img class = center src='/static/experiments/beast_fmri_test/images/B.png'></img>	71,89	2750.0	test	<img class = center src='/static/experiments/beast_fmri_test/images/redB.png'></img>	go	2100.0	2.0	3.0	go	target	B	71,Index Finger	89,Middle Finger	650.0	700.0	2100.0	2050.0	1.0	n/a	650.0	1.0	ITI
250288	500	n/a	-1	-1	500	0.0	fixation	poldrack-single-stim	112	267585	0.0-9.4-0.4	beast_fmri_test	336	267419,/	t	<div class = centerbox2><div class = fixation>+</div></div>	none	500.0	test	n/a	n/a	n/a	n/a	n/a	n/a	n/a	n/a	n/a	n/a	n/a	n/a	n/a	n/a	n/a	n/a	n/a	n/a	fixation
248501.25757000002	2750	n/a	689	89	2750	1788.74243	stim	stop-signal	113	270337	0.0-9.4-1.4	beast_fmri_test	336	268099,/,268779,/,269458,/,270138,/,270818,/,271497,/	t,t,t,t,t,t	<img class = center src='/static/experiments/beast_fmri_test/images/D.png'></img>	71,89	2750.0	test	<img class = center src='/static/experiments/beast_fmri_test/images/redD.png'></img>	go	2050.0	2.0	4.0	go	non-target	D	71,Index Finger	89,Middle Finger	650.0	700.0	2100.0	2050.0	1.0	n/a	700.0	1.0	go_stim
251251.25757000002	1788.74243	n/a	689	89	2750	1788.74243	stim	stop-signal	113	270337	0.0-9.4-1.4	beast_fmri_test	336	268099,/,268779,/,269458,/,270138,/,270818,/,271497,/	t,t,t,t,t,t	<img class = center src='/static/experiments/beast_fmri_test/images/D.png'></img>	71,89	2750.0	test	<img class = center src='/static/experiments/beast_fmri_test/images/redD.png'></img>	go	2050.0	2.0	4.0	go	non-target	D	71,Index Finger	89,Middle Finger	650.0	700.0	2100.0	2050.0	1.0	n/a	700.0	1.0	ITI
255347	500	n/a	-1	-1	500	0.0	fixation	poldrack-single-stim	114	272644	0.0-9.5-0.5	beast_fmri_test	336	272176,/	t	<div class = centerbox2><div class = fixation>+</div></div>	none	500.0	test	n/a	n/a	n/a	n/a	n/a	n/a	n/a	n/a	n/a	n/a	n/a	n/a	n/a	n/a	n/a	n/a	n/a	n/a	fixation
253289.32959699997	650.0	n/a	597	71	2750	2059.670403	stim	stop-signal	115	275396	0.0-9.5-1.5	beast_fmri_test	336	272855,/,273535,/,274216,/,274895,/,275575,/,276254,/,276935,/	t,t,t,t,t,t,t	<img class = center src='/static/experiments/beast_fmri_test/images/B.png'></img>	71,89	2750.0	test	<img class = center src='/static/experiments/beast_fmri_test/images/redB.png'></img>	stop	2100.0	2.0	5.0	stop	target	B	71,Index Finger	89,Middle Finger	650.0	700.0	2100.0	2050.0	0.0	0.0	650.0	n/a	go_stim
255389.32959699997	2100.0	n/a	597	71	2750	2059.670403	stim	stop-signal	115	275396	0.0-9.5-1.5	beast_fmri_test	336	272855,/,273535,/,274216,/,274895,/,275575,/,276254,/,276935,/	t,t,t,t,t,t,t	<img class = center src='/static/experiments/beast_fmri_test/images/B.png'></img>	71,89	2750.0	test	<img class = center src='/static/experiments/beast_fmri_test/images/redB.png'></img>	stop	2100.0	2.0	5.0	stop	target	B	71,Index Finger	89,Middle Finger	650.0	700.0	2100.0	2050.0	0.0	0.0	650.0	n/a	stop_stim
256039.32959699997	2059.6704030000001	n/a	597	71	2750	2059.670403	stim	stop-signal	115	275396	0.0-9.5-1.5	beast_fmri_test	336	272855,/,273535,/,274216,/,274895,/,275575,/,276254,/,276935,/	t,t,t,t,t,t,t	<img class = center src='/static/experiments/beast_fmri_test/images/B.png'></img>	71,89	2750.0	test	<img class = center src='/static/experiments/beast_fmri_test/images/redB.png'></img>	stop	2100.0	2.0	5.0	stop	target	B	71,Index Finger	89,Middle Finger	650.0	700.0	2100.0	2050.0	0.0	0.0	650.0	n/a	ITI
260674	500	n/a	-1	-1	500	0.0	fixation	poldrack-single-stim	116	277971	0.0-9.6-0.6	beast_fmri_test	336	277614,/	t	<div class = centerbox2><div class = fixation>+</div></div>	none	500.0	test	n/a	n/a	n/a	n/a	n/a	n/a	n/a	n/a	n/a	n/a	n/a	n/a	n/a	n/a	n/a	n/a	n/a	n/a	fixation
259466.218673	700.0	n/a	1050	89	2750	1209.781327	stim	stop-signal	117	280723	0.0-9.6-1.6	beast_fmri_test	336	278295,/,278975,/,279654,/,280334,/,281013,/,281693,/	t,t,t,t,t,t	<img class = center src='/static/experiments/beast_fmri_test/images/P.png'></img>	71,89	2750.0	test	<img class = center src='/static/experiments/beast_fmri_test/images/redP.png'></img>	stop	2050.0	2.0	6.0	stop	non-target	P	71,Index Finger	89,Middle Finger	600.0	700.0	2100.0	2050.0	0.0	0.0	700.0	n/a	go_stim
261516.218673	2050.0	n/a	1050	89	2750	1209.781327	stim	stop-signal	117	280723	0.0-9.6-1.6	beast_fmri_test	336	278295,/,278975,/,279654,/,280334,/,281013,/,281693,/	t,t,t,t,t,t	<img class = center src='/static/experiments/beast_fmri_test/images/P.png'></img>	71,89	2750.0	test	<img class = center src='/static/experiments/beast_fmri_test/images/redP.png'></img>	stop	2050.0	2.0	6.0	stop	non-target	P	71,Index Finger	89,Middle Finger	600.0	700.0	2100.0	2050.0	0.0	0.0	700.0	n/a	stop_stim
262216.218673	1209.7813269999999	n/a	1050	89	2750	1209.781327	stim	stop-signal	117	280723	0.0-9.6-1.6	beast_fmri_test	336	278295,/,278975,/,279654,/,280334,/,281013,/,281693,/	t,t,t,t,t,t	<img class = center src='/static/experiments/beast_fmri_test/images/P.png'></img>	71,89	2750.0	test	<img class = center src='/static/experiments/beast_fmri_test/images/redP.png'></img>	stop	2050.0	2.0	6.0	stop	non-target	P	71,Index Finger	89,Middle Finger	600.0	700.0	2100.0	2050.0	0.0	0.0	700.0	n/a	ITI
265152	500	n/a	-1	-1	500	0.0	fixation	poldrack-single-stim	118	282449	0.0-9.7-0.7	beast_fmri_test	336	282372,/	t	<div class = centerbox2><div class = fixation>+</div></div>	none	500.0	test	n/a	n/a	n/a	n/a	n/a	n/a	n/a	n/a	n/a	n/a	n/a	n/a	n/a	n/a	n/a	n/a	n/a	n/a	fixation
265114.03288994002	2750	n/a	949	89	2750	38.96711006	stim	stop-signal	119	285200	0.0-9.7-1.7	beast_fmri_test	336	283052,/,283732,/,284412,/,285092,/	t,t,t,t	<img class = center src='/static/experiments/beast_fmri_test/images/T.png'></img>	71,89	2750.0	test	<img class = center src='/static/experiments/beast_fmri_test/images/redT.png'></img>	go	2100.0	2.0	7.0	go	non-target	T	71,Index Finger	89,Middle Finger	600.0	650.0	2100.0	2100.0	1.0	n/a	650.0	1.0	go_stim
267864.03288994002	38.967110060000003	n/a	949	89	2750	38.96711006	stim	stop-signal	119	285200	0.0-9.7-1.7	beast_fmri_test	336	283052,/,283732,/,284412,/,285092,/	t,t,t,t	<img class = center src='/static/experiments/beast_fmri_test/images/T.png'></img>	71,89	2750.0	test	<img class = center src='/static/experiments/beast_fmri_test/images/redT.png'></img>	go	2100.0	2.0	7.0	go	non-target	T	71,Index Finger	89,Middle Finger	600.0	650.0	2100.0	2100.0	1.0	n/a	650.0	1.0	ITI
268458	500	n/a	-1	-1	500	0.0	fixation	poldrack-single-stim	120	285755	0.0-9.8-0.8	beast_fmri_test	336	n/a	n/a	<div class = centerbox2><div class = fixation>+</div></div>	none	500.0	test	n/a	n/a	n/a	n/a	n/a	n/a	n/a	n/a	n/a	n/a	n/a	n/a	n/a	n/a	n/a	n/a	n/a	n/a	fixation
267058.72430300002	2750	n/a	1152	71	2750	1402.275697	stim	stop-signal	121	288508	0.0-9.8-1.8	beast_fmri_test	336	285772,/,286451,/,287130,/,287810,/,288489,/,289170,/,289848,/	t,t,t,t,t,t,t	<img class = center src='/static/experiments/beast_fmri_test/images/D.png'></img>	71,89	2750.0	test	<img class = center src='/static/experiments/beast_fmri_test/images/redD.png'></img>	go	2100.0	2.0	8.0	go	non-target	D	71,Index Finger	89,Middle Finger	600.0	650.0	2100.0	2100.0	0.0	n/a	650.0	0.0	go_stim
269808.72430300002	1402.275697	n/a	1152	71	2750	1402.275697	stim	stop-signal	121	288508	0.0-9.8-1.8	beast_fmri_test	336	285772,/,286451,/,287130,/,287810,/,288489,/,289170,/,289848,/	t,t,t,t,t,t,t	<img class = center src='/static/experiments/beast_fmri_test/images/D.png'></img>	71,89	2750.0	test	<img class = center src='/static/experiments/beast_fmri_test/images/redD.png'></img>	go	2100.0	2.0	8.0	go	non-target	D	71,Index Finger	89,Middle Finger	600.0	650.0	2100.0	2100.0	0.0	n/a	650.0	0.0	ITI
273131	500	n/a	-1	-1	500	0.0	fixation	poldrack-single-stim	122	290428	0.0-9.9-0.9	beast_fmri_test	336	n/a	n/a	<div class = centerbox2><div class = fixation>+</div></div>	none	500.0	test	n/a	n/a	n/a	n/a	n/a	n/a	n/a	n/a	n/a	n/a	n/a	n/a	n/a	n/a	n/a	n/a	n/a	n/a	fixation
272738.95714399999	2750	n/a	885	89	2750	394.042856	stim	stop-signal	123	293180	0.0-9.9-1.9	beast_fmri_test	336	290529,/,291208,/,291887,/,292568,/,293249,/	t,t,t,t,t	<img class = center src='/static/experiments/beast_fmri_test/images/B.png'></img>	71,89	2750.0	test	<img class = center src='/static/experiments/beast_fmri_test/images/redB.png'></img>	go	2100.0	2.0	9.0	go	non-target	B	71,Index Finger	89,Middle Finger	600.0	650.0	2100.0	2100.0	1.0	n/a	650.0	1.0	go_stim
275488.95714399999	394.04285600000003	n/a	885	89	2750	394.042856	stim	stop-signal	123	293180	0.0-9.9-1.9	beast_fmri_test	336	290529,/,291208,/,291887,/,292568,/,293249,/	t,t,t,t,t	<img class = center src='/static/experiments/beast_fmri_test/images/B.png'></img>	71,89	2750.0	test	<img class = center src='/static/experiments/beast_fmri_test/images/redB.png'></img>	go	2100.0	2.0	9.0	go	non-target	B	71,Index Finger	89,Middle Finger	600.0	650.0	2100.0	2100.0	1.0	n/a	650.0	1.0	ITI
276797	500	n/a	-1	-1	500	0.0	fixation	poldrack-single-stim	124	294094	0.0-9.10-0.10	beast_fmri_test	336	293928,/	t	<div class = centerbox2><div class = fixation>+</div></div>	none	500.0	test	n/a	n/a	n/a	n/a	n/a	n/a	n/a	n/a	n/a	n/a	n/a	n/a	n/a	n/a	n/a	n/a	n/a	n/a	fixation
276789.97540075501	2750	n/a	1139	89	2750	8.024599245	stim	stop-signal	125	296845	0.0-9.10-1.10	beast_fmri_test	336	294607,/,295285,/,295966,/,296645,/	t,t,t,t	<img class = center src='/static/experiments/beast_fmri_test/images/D.png'></img>	71,89	2750.0	test	<img class = center src='/static/experiments/beast_fmri_test/images/redD.png'></img>	go	2150.0	2.0	10.0	go	target	D	71,Index Finger	89,Middle Finger	600.0	650.0	2150.0	2100.0	0.0	n/a	600.0	0.0	go_stim
279539.97540075501	8.0245992449999992	n/a	1139	89	2750	8.024599245	stim	stop-signal	125	296845	0.0-9.10-1.10	beast_fmri_test	336	294607,/,295285,/,295966,/,296645,/	t,t,t,t	<img class = center src='/static/experiments/beast_fmri_test/images/D.png'></img>	71,89	2750.0	test	<img class = center src='/static/experiments/beast_fmri_test/images/redD.png'></img>	go	2150.0	2.0	10.0	go	target	D	71,Index Finger	89,Middle Finger	600.0	650.0	2150.0	2100.0	0.0	n/a	600.0	0.0	ITI
280075	500	n/a	-1	-1	500	0.0	fixation	poldrack-single-stim	126	297372	0.0-9.11-0.11	beast_fmri_test	336	297326,/	t	<div class = centerbox2><div class = fixation>+</div></div>	none	500.0	test	n/a	n/a	n/a	n/a	n/a	n/a	n/a	n/a	n/a	n/a	n/a	n/a	n/a	n/a	n/a	n/a	n/a	n/a	fixation
278631.70023000002	650.0	n/a	-1	-1	2750	1444.29977	stim	stop-signal	127	300123	0.0-9.11-1.11	beast_fmri_test	336	298005,/,298684,/,299364,/,300045,/,300723,/,301403,/	t,t,t,t,t,t	<img class = center src='/static/experiments/beast_fmri_test/images/V.png'></img>	71,89	2750.0	test	<img class = center src='/static/experiments/beast_fmri_test/images/redV.png'></img>	stop	2100.0	2.0	11.0	stop	non-target	V	71,Index Finger	89,Middle Finger	600.0	650.0	2150.0	2100.0	0.0	1.0	650.0	n/a	go_stim
280731.70023000002	2100.0	n/a	-1	-1	2750	1444.29977	stim	stop-signal	127	300123	0.0-9.11-1.11	beast_fmri_test	336	298005,/,298684,/,299364,/,300045,/,300723,/,301403,/	t,t,t,t,t,t	<img class = center src='/static/experiments/beast_fmri_test/images/V.png'></img>	71,89	2750.0	test	<img class = center src='/static/experiments/beast_fmri_test/images/redV.png'></img>	stop	2100.0	2.0	11.0	stop	non-target	V	71,Index Finger	89,Middle Finger	600.0	650.0	2150.0	2100.0	0.0	1.0	650.0	n/a	stop_stim
281381.70023000002	1444.2997699999999	n/a	-1	-1	2750	1444.29977	stim	stop-signal	127	300123	0.0-9.11-1.11	beast_fmri_test	336	298005,/,298684,/,299364,/,300045,/,300723,/,301403,/	t,t,t,t,t,t	<img class = center src='/static/experiments/beast_fmri_test/images/V.png'></img>	71,89	2750.0	test	<img class = center src='/static/experiments/beast_fmri_test/images/redV.png'></img>	stop	2100.0	2.0	11.0	stop	non-target	V	71,Index Finger	89,Middle Finger	600.0	650.0	2150.0	2100.0	0.0	1.0	650.0	n/a	ITI
284787	500	n/a	-1	-1	500	0.0	fixation	poldrack-single-stim	128	302084	0.0-9.12-0.12	beast_fmri_test	336	n/a	n/a	<div class = centerbox2><div class = fixation>+</div></div>	none	500.0	test	n/a	n/a	n/a	n/a	n/a	n/a	n/a	n/a	n/a	n/a	n/a	n/a	n/a	n/a	n/a	n/a	n/a	n/a	fixation
283581.87109500001	2750	n/a	577	71	2750	1205.128905	stim	stop-signal	129	304834	0.0-9.12-1.12	beast_fmri_test	336	302085,/,302763,/,303442,/,304122,/,304802,/,305482,/	t,t,t,t,t,t	<img class = center src='/static/experiments/beast_fmri_test/images/D.png'></img>	71,89	2750.0	test	<img class = center src='/static/experiments/beast_fmri_test/images/redD.png'></img>	go	2150.0	2.0	12.0	go	target	D	71,Index Finger	89,Middle Finger	600.0	700.0	2150.0	2100.0	1.0	n/a	600.0	1.0	go_stim
286331.87109500001	1205.128905	n/a	577	71	2750	1205.128905	stim	stop-signal	129	304834	0.0-9.12-1.12	beast_fmri_test	336	302085,/,302763,/,303442,/,304122,/,304802,/,305482,/	t,t,t,t,t,t	<img class = center src='/static/experiments/beast_fmri_test/images/D.png'></img>	71,89	2750.0	test	<img class = center src='/static/experiments/beast_fmri_test/images/redD.png'></img>	go	2150.0	2.0	12.0	go	target	D	71,Index Finger	89,Middle Finger	600.0	700.0	2150.0	2100.0	1.0	n/a	600.0	1.0	ITI
289260	500	n/a	-1	-1	500	0.0	fixation	poldrack-single-stim	130	306557	0.0-9.13-0.13	beast_fmri_test	336	306161,/	t	<div class = centerbox2><div class = fixation>+</div></div>	none	500.0	test	n/a	n/a	n/a	n/a	n/a	n/a	n/a	n/a	n/a	n/a	n/a	n/a	n/a	n/a	n/a	n/a	n/a	n/a	fixation
288290.59876129997	2750	n/a	865	89	2750	971.4012387	stim	stop-signal	131	309309	0.0-9.13-1.13	beast_fmri_test	336	306842,/,307520,/,308201,/,308881,/,309560,/,310240,/	t,t,t,t,t,t	<img class = center src='/static/experiments/beast_fmri_test/images/D.png'></img>	71,89	2750.0	test	<img class = center src='/static/experiments/beast_fmri_test/images/redD.png'></img>	go	2050.0	2.0	13.0	go	non-target	D	71,Index Finger	89,Middle Finger	600.0	700.0	2150.0	2050.0	1.0	n/a	700.0	1.0	go_stim
291040.59876129997	971.40123870000002	n/a	865	89	2750	971.4012387	stim	stop-signal	131	309309	0.0-9.13-1.13	beast_fmri_test	336	306842,/,307520,/,308201,/,308881,/,309560,/,310240,/	t,t,t,t,t,t	<img class = center src='/static/experiments/beast_fmri_test/images/D.png'></img>	71,89	2750.0	test	<img class = center src='/static/experiments/beast_fmri_test/images/redD.png'></img>	go	2050.0	2.0	13.0	go	non-target	D	71,Index Finger	89,Middle Finger	600.0	700.0	2150.0	2050.0	1.0	n/a	700.0	1.0	ITI
293502	500	n/a	-1	-1	500	0.0	fixation	poldrack-single-stim	132	310799	0.0-9.14-0.14	beast_fmri_test	336	n/a	n/a	<div class = centerbox2><div class = fixation>+</div></div>	none	500.0	test	n/a	n/a	n/a	n/a	n/a	n/a	n/a	n/a	n/a	n/a	n/a	n/a	n/a	n/a	n/a	n/a	n/a	n/a	fixation
292282.78316799999	600.0	n/a	690	71	2750	1221.216832	stim	stop-signal	133	313551	0.0-9.14-1.14	beast_fmri_test	336	310920,/,311599,/,312280,/,312959,/,313639,/,314317,/	t,t,t,t,t,t	<img class = center src='/static/experiments/beast_fmri_test/images/D.png'></img>	71,89	2750.0	test	<img class = center src='/static/experiments/beast_fmri_test/images/redD.png'></img>	stop	2150.0	2.0	14.0	stop	target	D	71,Index Finger	89,Middle Finger	600.0	700.0	2150.0	2050.0	0.0	0.0	600.0	n/a	go_stim
294432.78316799999	2150.0	n/a	690	71	2750	1221.216832	stim	stop-signal	133	313551	0.0-9.14-1.14	beast_fmri_test	336	310920,/,311599,/,312280,/,312959,/,313639,/,314317,/	t,t,t,t,t,t	<img class = center src='/static/experiments/beast_fmri_test/images/D.png'></img>	71,89	2750.0	test	<img class = center src='/static/experiments/beast_fmri_test/images/redD.png'></img>	stop	2150.0	2.0	14.0	stop	target	D	71,Index Finger	89,Middle Finger	600.0	700.0	2150.0	2050.0	0.0	0.0	600.0	n/a	stop_stim
295032.78316799999	1221.2168320000001	n/a	690	71	2750	1221.216832	stim	stop-signal	133	313551	0.0-9.14-1.14	beast_fmri_test	336	310920,/,311599,/,312280,/,312959,/,313639,/,314317,/	t,t,t,t,t,t	<img class = center src='/static/experiments/beast_fmri_test/images/D.png'></img>	71,89	2750.0	test	<img class = center src='/static/experiments/beast_fmri_test/images/redD.png'></img>	stop	2150.0	2.0	14.0	stop	target	D	71,Index Finger	89,Middle Finger	600.0	700.0	2150.0	2050.0	0.0	0.0	600.0	n/a	ITI
297998	500	n/a	-1	-1	500	0.0	fixation	poldrack-single-stim	134	315295	0.0-9.15-0.15	beast_fmri_test	336	314998,/	t	<div class = centerbox2><div class = fixation>+</div></div>	none	500.0	test	n/a	n/a	n/a	n/a	n/a	n/a	n/a	n/a	n/a	n/a	n/a	n/a	n/a	n/a	n/a	n/a	n/a	n/a	fixation
297189.5331689	2750	n/a	750	89	2750	809.4668311	stim	stop-signal	135	318046	0.0-9.15-1.15	beast_fmri_test	336	315678,/,316357,/,317037,/,317717,/,318396,/	t,t,t,t,t	<img class = center src='/static/experiments/beast_fmri_test/images/D.png'></img>	71,89	2750.0	test	<img class = center src='/static/experiments/beast_fmri_test/images/redD.png'></img>	go	2200.0	2.0	15.0	go	target	D	71,Index Finger	89,Middle Finger	550.0	700.0	2200.0	2050.0	0.0	n/a	550.0	0.0	go_stim
299939.5331689	809.46683110000004	n/a	750	89	2750	809.4668311	stim	stop-signal	135	318046	0.0-9.15-1.15	beast_fmri_test	336	315678,/,316357,/,317037,/,317717,/,318396,/	t,t,t,t,t	<img class = center src='/static/experiments/beast_fmri_test/images/D.png'></img>	71,89	2750.0	test	<img class = center src='/static/experiments/beast_fmri_test/images/redD.png'></img>	go	2200.0	2.0	15.0	go	target	D	71,Index Finger	89,Middle Finger	550.0	700.0	2200.0	2050.0	0.0	n/a	550.0	0.0	ITI
302078	500	n/a	-1	-1	500	0.0	fixation	poldrack-single-stim	136	319375	0.0-9.16-0.16	beast_fmri_test	336	319076,/	t	<div class = centerbox2><div class = fixation>+</div></div>	none	500.0	test	n/a	n/a	n/a	n/a	n/a	n/a	n/a	n/a	n/a	n/a	n/a	n/a	n/a	n/a	n/a	n/a	n/a	n/a	fixation
301865.50749839999	2750	n/a	997	89	2750	214.4925016	stim	stop-signal	137	322127	0.0-9.16-1.16	beast_fmri_test	336	319755,/,320433,/,321115,/,321794,/	t,t,t,t	<img class = center src='/static/experiments/beast_fmri_test/images/T.png'></img>	71,89	2750.0	test	<img class = center src='/static/experiments/beast_fmri_test/images/redT.png'></img>	go	2050.0	2.0	16.0	go	non-target	T	71,Index Finger	89,Middle Finger	550.0	700.0	2200.0	2050.0	1.0	n/a	700.0	1.0	go_stim
304615.50749839999	214.49250159999997	n/a	997	89	2750	214.4925016	stim	stop-signal	137	322127	0.0-9.16-1.16	beast_fmri_test	336	319755,/,320433,/,321115,/,321794,/	t,t,t,t	<img class = center src='/static/experiments/beast_fmri_test/images/T.png'></img>	71,89	2750.0	test	<img class = center src='/static/experiments/beast_fmri_test/images/redT.png'></img>	go	2050.0	2.0	16.0	go	non-target	T	71,Index Finger	89,Middle Finger	550.0	700.0	2200.0	2050.0	1.0	n/a	700.0	1.0	ITI
305562	500	n/a	-1	-1	500	0.0	fixation	poldrack-single-stim	138	322859	0.0-9.17-0.17	beast_fmri_test	336	322474,/	t	<div class = centerbox2><div class = fixation>+</div></div>	none	500.0	test	n/a	n/a	n/a	n/a	n/a	n/a	n/a	n/a	n/a	n/a	n/a	n/a	n/a	n/a	n/a	n/a	n/a	n/a	fixation
304853.77981209999	2750	n/a	821	71	2750	711.2201879	stim	stop-signal	139	325612	0.0-9.17-1.17	beast_fmri_test	336	323154,/,323833,/,324512,/,325193,/,325873,/	t,t,t,t,t	<img class = center src='/static/experiments/beast_fmri_test/images/D.png'></img>	71,89	2750.0	test	<img class = center src='/static/experiments/beast_fmri_test/images/redD.png'></img>	go	2200.0	2.0	17.0	go	target	D	71,Index Finger	89,Middle Finger	550.0	700.0	2200.0	2050.0	1.0	n/a	550.0	1.0	go_stim
307603.77981209999	711.22018789999993	n/a	821	71	2750	711.2201879	stim	stop-signal	139	325612	0.0-9.17-1.17	beast_fmri_test	336	323154,/,323833,/,324512,/,325193,/,325873,/	t,t,t,t,t	<img class = center src='/static/experiments/beast_fmri_test/images/D.png'></img>	71,89	2750.0	test	<img class = center src='/static/experiments/beast_fmri_test/images/redD.png'></img>	go	2200.0	2.0	17.0	go	target	D	71,Index Finger	89,Middle Finger	550.0	700.0	2200.0	2050.0	1.0	n/a	550.0	1.0	ITI
309545	500	n/a	-1	-1	500	0.0	fixation	poldrack-single-stim	140	326842	0.0-9.18-0.18	beast_fmri_test	336	326552,/	t	<div class = centerbox2><div class = fixation>+</div></div>	none	500.0	test	n/a	n/a	n/a	n/a	n/a	n/a	n/a	n/a	n/a	n/a	n/a	n/a	n/a	n/a	n/a	n/a	n/a	n/a	fixation
309230.82086580002	2750	n/a	835	71	2750	316.1791342	stim	stop-signal	141	329594	0.0-9.18-1.18	beast_fmri_test	336	327232,/,327912,/,328590,/,329270,/	t,t,t,t	<img class = center src='/static/experiments/beast_fmri_test/images/T.png'></img>	71,89	2750.0	test	<img class = center src='/static/experiments/beast_fmri_test/images/redT.png'></img>	go	2200.0	2.0	18.0	go	target	T	71,Index Finger	89,Middle Finger	550.0	700.0	2200.0	2050.0	1.0	n/a	550.0	1.0	go_stim
311980.82086580002	316.17913419999996	n/a	835	71	2750	316.1791342	stim	stop-signal	141	329594	0.0-9.18-1.18	beast_fmri_test	336	327232,/,327912,/,328590,/,329270,/	t,t,t,t	<img class = center src='/static/experiments/beast_fmri_test/images/T.png'></img>	71,89	2750.0	test	<img class = center src='/static/experiments/beast_fmri_test/images/redT.png'></img>	go	2200.0	2.0	18.0	go	target	T	71,Index Finger	89,Middle Finger	550.0	700.0	2200.0	2050.0	1.0	n/a	550.0	1.0	ITI
313133	500	n/a	-1	-1	500	0.0	fixation	poldrack-single-stim	142	330430	0.0-9.19-0.19	beast_fmri_test	336	329949,/	t	<div class = centerbox2><div class = fixation>+</div></div>	none	500.0	test	n/a	n/a	n/a	n/a	n/a	n/a	n/a	n/a	n/a	n/a	n/a	n/a	n/a	n/a	n/a	n/a	n/a	n/a	fixation
312778.24925539998	2750	n/a	837	71	2750	356.7507446	stim	stop-signal	143	333182	0.0-9.19-1.19	beast_fmri_test	336	330630,/,331309,/,331989,/,332668,/,333348,/	t,t,t,t,t	<img class = center src='/static/experiments/beast_fmri_test/images/D.png'></img>	71,89	2750.0	test	<img class = center src='/static/experiments/beast_fmri_test/images/redD.png'></img>	go	2200.0	2.0	19.0	go	target	D	71,Index Finger	89,Middle Finger	550.0	700.0	2200.0	2050.0	1.0	n/a	550.0	1.0	go_stim
315528.24925539998	356.75074460000002	n/a	837	71	2750	356.7507446	stim	stop-signal	143	333182	0.0-9.19-1.19	beast_fmri_test	336	330630,/,331309,/,331989,/,332668,/,333348,/	t,t,t,t,t	<img class = center src='/static/experiments/beast_fmri_test/images/D.png'></img>	71,89	2750.0	test	<img class = center src='/static/experiments/beast_fmri_test/images/redD.png'></img>	go	2200.0	2.0	19.0	go	target	D	71,Index Finger	89,Middle Finger	550.0	700.0	2200.0	2050.0	1.0	n/a	550.0	1.0	ITI
316763	500	n/a	-1	-1	500	0.0	fixation	poldrack-single-stim	144	334060	0.0-9.20-0.20	beast_fmri_test	336	334030,/	t	<div class = centerbox2><div class = fixation>+</div></div>	none	500.0	test	n/a	n/a	n/a	n/a	n/a	n/a	n/a	n/a	n/a	n/a	n/a	n/a	n/a	n/a	n/a	n/a	n/a	n/a	fixation
315669.11499199999	700.0	n/a	742	89	2750	1093.885008	stim	stop-signal	145	336810	0.0-9.20-1.20	beast_fmri_test	336	334708,/,335388,/,336068,/,336747,/,337426,/	t,t,t,t,t	<img class = center src='/static/experiments/beast_fmri_test/images/B.png'></img>	71,89	2750.0	test	<img class = center src='/static/experiments/beast_fmri_test/images/redB.png'></img>	stop	2050.0	2.0	20.0	stop	non-target	B	71,Index Finger	89,Middle Finger	550.0	700.0	2200.0	2050.0	0.0	0.0	700.0	n/a	go_stim
317719.11499199999	2050.0	n/a	742	89	2750	1093.885008	stim	stop-signal	145	336810	0.0-9.20-1.20	beast_fmri_test	336	334708,/,335388,/,336068,/,336747,/,337426,/	t,t,t,t,t	<img class = center src='/static/experiments/beast_fmri_test/images/B.png'></img>	71,89	2750.0	test	<img class = center src='/static/experiments/beast_fmri_test/images/redB.png'></img>	stop	2050.0	2.0	20.0	stop	non-target	B	71,Index Finger	89,Middle Finger	550.0	700.0	2200.0	2050.0	0.0	0.0	700.0	n/a	stop_stim
318419.11499199999	1093.885008	n/a	742	89	2750	1093.885008	stim	stop-signal	145	336810	0.0-9.20-1.20	beast_fmri_test	336	334708,/,335388,/,336068,/,336747,/,337426,/	t,t,t,t,t	<img class = center src='/static/experiments/beast_fmri_test/images/B.png'></img>	71,89	2750.0	test	<img class = center src='/static/experiments/beast_fmri_test/images/redB.png'></img>	stop	2050.0	2.0	20.0	stop	non-target	B	71,Index Finger	89,Middle Finger	550.0	700.0	2200.0	2050.0	0.0	0.0	700.0	n/a	ITI
321126	500	n/a	-1	-1	500	0.0	fixation	poldrack-single-stim	146	338423	0.0-9.21-0.21	beast_fmri_test	336	338107,/	t	<div class = centerbox2><div class = fixation>+</div></div>	none	500.0	test	n/a	n/a	n/a	n/a	n/a	n/a	n/a	n/a	n/a	n/a	n/a	n/a	n/a	n/a	n/a	n/a	n/a	n/a	fixation
319232.73517300002	650.0	n/a	895	89	2750	1896.264827	stim	stop-signal	147	341176	0.0-9.21-1.21	beast_fmri_test	336	338786,/,339465,/,340147,/,340826,/,341506,/,342185,/,342864,/	t,t,t,t,t,t,t	<img class = center src='/static/experiments/beast_fmri_test/images/V.png'></img>	71,89	2750.0	test	<img class = center src='/static/experiments/beast_fmri_test/images/redV.png'></img>	stop	2100.0	2.0	21.0	stop	non-target	V	71,Index Finger	89,Middle Finger	550.0	650.0	2200.0	2100.0	0.0	0.0	650.0	n/a	go_stim
321332.73517300002	2100.0	n/a	895	89	2750	1896.264827	stim	stop-signal	147	341176	0.0-9.21-1.21	beast_fmri_test	336	338786,/,339465,/,340147,/,340826,/,341506,/,342185,/,342864,/	t,t,t,t,t,t,t	<img class = center src='/static/experiments/beast_fmri_test/images/V.png'></img>	71,89	2750.0	test	<img class = center src='/static/experiments/beast_fmri_test/images/redV.png'></img>	stop	2100.0	2.0	21.0	stop	non-target	V	71,Index Finger	89,Middle Finger	550.0	650.0	2200.0	2100.0	0.0	0.0	650.0	n/a	stop_stim
321982.73517300002	1896.264827	n/a	895	89	2750	1896.264827	stim	stop-signal	147	341176	0.0-9.21-1.21	beast_fmri_test	336	338786,/,339465,/,340147,/,340826,/,341506,/,342185,/,342864,/	t,t,t,t,t,t,t	<img class = center src='/static/experiments/beast_fmri_test/images/V.png'></img>	71,89	2750.0	test	<img class = center src='/static/experiments/beast_fmri_test/images/redV.png'></img>	stop	2100.0	2.0	21.0	stop	non-target	V	71,Index Finger	89,Middle Finger	550.0	650.0	2200.0	2100.0	0.0	0.0	650.0	n/a	ITI
326296	500	n/a	-1	-1	500	0.0	fixation	poldrack-single-stim	148	343593	0.0-9.22-0.22	beast_fmri_test	336	343545,/	t	<div class = centerbox2><div class = fixation>+</div></div>	none	500.0	test	n/a	n/a	n/a	n/a	n/a	n/a	n/a	n/a	n/a	n/a	n/a	n/a	n/a	n/a	n/a	n/a	n/a	n/a	fixation
325884.16596319998	2750	n/a	870	71	2750	412.8340368	stim	stop-signal	149	346344	0.0-9.22-1.22	beast_fmri_test	336	344225,/,344903,/,345582,/,346263,/	t,t,t,t	<img class = center src='/static/experiments/beast_fmri_test/images/B.png'></img>	71,89	2750.0	test	<img class = center src='/static/experiments/beast_fmri_test/images/redB.png'></img>	go	2200.0	2.0	22.0	go	target	B	71,Index Finger	89,Middle Finger	550.0	600.0	2200.0	2100.0	1.0	n/a	550.0	1.0	go_stim
328634.16596319998	412.83403680000004	n/a	870	71	2750	412.8340368	stim	stop-signal	149	346344	0.0-9.22-1.22	beast_fmri_test	336	344225,/,344903,/,345582,/,346263,/	t,t,t,t	<img class = center src='/static/experiments/beast_fmri_test/images/B.png'></img>	71,89	2750.0	test	<img class = center src='/static/experiments/beast_fmri_test/images/redB.png'></img>	go	2200.0	2.0	22.0	go	target	B	71,Index Finger	89,Middle Finger	550.0	600.0	2200.0	2100.0	1.0	n/a	550.0	1.0	ITI
