onset	duration	text	rt	key_press	block_duration	timing_post_trial	trial_id	trial_type	trial_index	time_elapsed	internal_node_id	exp_id	subject_id	trigger_times	triggers	stimulus	possible_responses	stim_duration	exp_stage	SS_stimulus	SS_trial_type	SS_duration	load	trial_num	stop_trial_type	adaptive_trial_type	stim	yes_response_key	no_response_key	SSD_target	SSD_non_target	SSTarget	SSNonTarget	go_acc	stop_acc	SS_delay	adaptive_acc	new_trial_type
test	10880	n/a	-1	-1	10880	0.0	practice-no-stop-feedback	poldrack-single-stim	394	1045875	0.0-18.0	beast_fmri_test	336	1034998,/,1035675,/,1036354,/,1037033,/,1037713,/,1038393,/,1039072,/,1039752,/,1040433,/,1041112,/,1041793,/,1042472,/,1043151,/,1043831,/,1044511,/,1045190,/,1045870,/	t,t,t,t,t,t,t,t,t,t,t,t,t,t,t,t,t	"<div class = ""centerbox""><p class = ""block-text"">Your delay is 2 trials.</p><p class = block-text>Please wait for the scanner to start the block</p></div>"	77	10880.0	n/a	n/a	n/a	n/a	n/a	n/a	n/a	n/a	n/a	n/a	n/a	n/a	n/a	n/a	n/a	n/a	n/a	n/a	n/a	start_functional_block
11380	500	n/a	-1	-1	500	0.0	fixation	poldrack-single-stim	395	1046378	0.0-19.0-0.0	beast_fmri_test	336	n/a	n/a	<div class = centerbox2><div class = fixation>+</div></div>	none	500.0	test	n/a	n/a	n/a	n/a	n/a	n/a	n/a	n/a	n/a	n/a	n/a	n/a	n/a	n/a	n/a	n/a	n/a	n/a	fixation
10233.624701000052	temp_go_duration	n/a	597	89	2750	1148.375299	stim	stop-signal	396	1049130	0.0-19.0-1.0	beast_fmri_test	336	1046550,/,1047230,/,1047909,/,1048590,/,1049269,/,1049948,/	t,t,t,t,t,t	<img class = center src='/static/experiments/beast_fmri_test/images/P.png'></img>	71,89	2750.0	test	<img class = center src='/static/experiments/beast_fmri_test/images/redP.png'></img>	stop	-1.0	2.0	0.0	stop	temp-non-target	P	71,Index Finger	89,Middle Finger	700.0	500.0	2000.0	2300.0	0.0	0.0	n/a	n/a	go_stim
temp-non-target	temp_stop_duration	n/a	597	89	2750	1148.375299	stim	stop-signal	396	1049130	0.0-19.0-1.0	beast_fmri_test	336	1046550,/,1047230,/,1047909,/,1048590,/,1049269,/,1049948,/	t,t,t,t,t,t	<img class = center src='/static/experiments/beast_fmri_test/images/P.png'></img>	71,89	2750.0	test	<img class = center src='/static/experiments/beast_fmri_test/images/redP.png'></img>	stop	-1.0	2.0	0.0	stop	temp-non-target	P	71,Index Finger	89,Middle Finger	700.0	500.0	2000.0	2300.0	0.0	0.0	n/a	n/a	stop_stim
12983.624701000052	1148.375299	n/a	597	89	2750	1148.375299	stim	stop-signal	396	1049130	0.0-19.0-1.0	beast_fmri_test	336	1046550,/,1047230,/,1047909,/,1048590,/,1049269,/,1049948,/	t,t,t,t,t,t	<img class = center src='/static/experiments/beast_fmri_test/images/P.png'></img>	71,89	2750.0	test	<img class = center src='/static/experiments/beast_fmri_test/images/redP.png'></img>	stop	-1.0	2.0	0.0	stop	temp-non-target	P	71,Index Finger	89,Middle Finger	700.0	500.0	2000.0	2300.0	0.0	0.0	n/a	n/a	ITI
15824	500	n/a	-1	-1	500	0.0	fixation	poldrack-single-stim	397	1050822	0.0-19.1-0.1	beast_fmri_test	336	1050629,/	t	<div class = centerbox2><div class = fixation>+</div></div>	none	500.0	test	n/a	n/a	n/a	n/a	n/a	n/a	n/a	n/a	n/a	n/a	n/a	n/a	n/a	n/a	n/a	n/a	n/a	n/a	fixation
15140.929829099914	2750	n/a	757	89	2750	686.0701709	stim	stop-signal	398	1053575	0.0-19.1-1.1	beast_fmri_test	336	1051308,/,1051987,/,1052667,/,1053347,/,1054026,/	t,t,t,t,t	<img class = center src='/static/experiments/beast_fmri_test/images/B.png'></img>	71,89	2750.0	test	<img class = center src='/static/experiments/beast_fmri_test/images/redB.png'></img>	go	-1.0	2.0	1.0	go	temp-non-target	B	71,Index Finger	89,Middle Finger	700.0	500.0	2000.0	2300.0	0.0	n/a	n/a	n/a	go_stim
17890.929829099914	686.07017089999999	n/a	757	89	2750	686.0701709	stim	stop-signal	398	1053575	0.0-19.1-1.1	beast_fmri_test	336	1051308,/,1051987,/,1052667,/,1053347,/,1054026,/	t,t,t,t,t	<img class = center src='/static/experiments/beast_fmri_test/images/B.png'></img>	71,89	2750.0	test	<img class = center src='/static/experiments/beast_fmri_test/images/redB.png'></img>	go	-1.0	2.0	1.0	go	temp-non-target	B	71,Index Finger	89,Middle Finger	700.0	500.0	2000.0	2300.0	0.0	n/a	n/a	n/a	ITI
19807	500	n/a	-1	-1	500	0.0	fixation	poldrack-single-stim	399	1054805	0.0-19.2-0.2	beast_fmri_test	336	1054707,/	t	<div class = centerbox2><div class = fixation>+</div></div>	none	500.0	test	n/a	n/a	n/a	n/a	n/a	n/a	n/a	n/a	n/a	n/a	n/a	n/a	n/a	n/a	n/a	n/a	n/a	n/a	fixation
19672.929146599956	2750	n/a	809	71	2750	135.0708534	stim	stop-signal	400	1057556	0.0-19.2-1.2	beast_fmri_test	336	1055386,/,1056065,/,1056745,/,1057425,/	t,t,t,t	<img class = center src='/static/experiments/beast_fmri_test/images/P.png'></img>	71,89	2750.0	test	<img class = center src='/static/experiments/beast_fmri_test/images/redP.png'></img>	go	2050.0	2.0	2.0	go	target	P	71,Index Finger	89,Middle Finger	700.0	500.0	2050.0	2300.0	1.0	n/a	700.0	1.0	go_stim
22422.929146599956	135.0708534	n/a	809	71	2750	135.0708534	stim	stop-signal	400	1057556	0.0-19.2-1.2	beast_fmri_test	336	1055386,/,1056065,/,1056745,/,1057425,/	t,t,t,t	<img class = center src='/static/experiments/beast_fmri_test/images/P.png'></img>	71,89	2750.0	test	<img class = center src='/static/experiments/beast_fmri_test/images/redP.png'></img>	go	2050.0	2.0	2.0	go	target	P	71,Index Finger	89,Middle Finger	700.0	500.0	2050.0	2300.0	1.0	n/a	700.0	1.0	ITI
23232	500	n/a	-1	-1	500	0.0	fixation	poldrack-single-stim	401	1058230	0.0-19.3-0.3	beast_fmri_test	336	1058105,/	t	<div class = centerbox2><div class = fixation>+</div></div>	none	500.0	test	n/a	n/a	n/a	n/a	n/a	n/a	n/a	n/a	n/a	n/a	n/a	n/a	n/a	n/a	n/a	n/a	n/a	n/a	fixation
23132.791112199891	2750	n/a	1083	89	2750	100.2088878	stim	stop-signal	402	1060981	0.0-19.3-1.3	beast_fmri_test	336	1058785,/,1059464,/,1060144,/,1060824,/	t,t,t,t	<img class = center src='/static/experiments/beast_fmri_test/images/D.png'></img>	71,89	2750.0	test	<img class = center src='/static/experiments/beast_fmri_test/images/redD.png'></img>	go	2250.0	2.0	3.0	go	non-target	D	71,Index Finger	89,Middle Finger	700.0	500.0	2050.0	2250.0	1.0	n/a	500.0	1.0	go_stim
25882.791112199891	100.2088878	n/a	1083	89	2750	100.2088878	stim	stop-signal	402	1060981	0.0-19.3-1.3	beast_fmri_test	336	1058785,/,1059464,/,1060144,/,1060824,/	t,t,t,t	<img class = center src='/static/experiments/beast_fmri_test/images/D.png'></img>	71,89	2750.0	test	<img class = center src='/static/experiments/beast_fmri_test/images/redD.png'></img>	go	2250.0	2.0	3.0	go	non-target	D	71,Index Finger	89,Middle Finger	700.0	500.0	2050.0	2250.0	1.0	n/a	500.0	1.0	ITI
26627	500	n/a	-1	-1	500	0.0	fixation	poldrack-single-stim	403	1061625	0.0-19.4-0.4	beast_fmri_test	336	1061503,/	t	<div class = centerbox2><div class = fixation>+</div></div>	none	500.0	test	n/a	n/a	n/a	n/a	n/a	n/a	n/a	n/a	n/a	n/a	n/a	n/a	n/a	n/a	n/a	n/a	n/a	n/a	fixation
23967.311262999894	2750	n/a	954	89	2750	2662.688737	stim	stop-signal	404	1064378	0.0-19.4-1.4	beast_fmri_test	336	1062183,/,1062863,/,1063543,/,1064222,/,1064902,/,1065580,/,1066260,/,1066940,/	t,t,t,t,t,t,t,t	<img class = center src='/static/experiments/beast_fmri_test/images/B.png'></img>	71,89	2750.0	test	<img class = center src='/static/experiments/beast_fmri_test/images/redB.png'></img>	go	2250.0	2.0	4.0	go	non-target	B	71,Index Finger	89,Middle Finger	700.0	500.0	2050.0	2250.0	1.0	n/a	500.0	1.0	go_stim
26717.311262999894	2662.6887369999999	n/a	954	89	2750	2662.688737	stim	stop-signal	404	1064378	0.0-19.4-1.4	beast_fmri_test	336	1062183,/,1062863,/,1063543,/,1064222,/,1064902,/,1065580,/,1066260,/,1066940,/	t,t,t,t,t,t,t,t	<img class = center src='/static/experiments/beast_fmri_test/images/B.png'></img>	71,89	2750.0	test	<img class = center src='/static/experiments/beast_fmri_test/images/redB.png'></img>	go	2250.0	2.0	4.0	go	non-target	B	71,Index Finger	89,Middle Finger	700.0	500.0	2050.0	2250.0	1.0	n/a	500.0	1.0	ITI
32586	500	n/a	-1	-1	500	0.0	fixation	poldrack-single-stim	405	1067584	0.0-19.5-0.5	beast_fmri_test	336	n/a	n/a	<div class = centerbox2><div class = fixation>+</div></div>	none	500.0	test	n/a	n/a	n/a	n/a	n/a	n/a	n/a	n/a	n/a	n/a	n/a	n/a	n/a	n/a	n/a	n/a	n/a	n/a	fixation
31350.691946000094	500.0	n/a	-1	-1	2750	1238.308054	stim	stop-signal	406	1070337	0.0-19.5-1.5	beast_fmri_test	336	1067619,/,1068300,/,1068980,/,1069659,/,1070339,/,1071018,/	t,t,t,t,t,t	<img class = center src='/static/experiments/beast_fmri_test/images/P.png'></img>	71,89	2750.0	test	<img class = center src='/static/experiments/beast_fmri_test/images/redP.png'></img>	stop	2250.0	2.0	5.0	stop	non-target	P	71,Index Finger	89,Middle Finger	700.0	500.0	2050.0	2250.0	0.0	1.0	500.0	n/a	go_stim
33600.691946000094	2250.0	n/a	-1	-1	2750	1238.308054	stim	stop-signal	406	1070337	0.0-19.5-1.5	beast_fmri_test	336	1067619,/,1068300,/,1068980,/,1069659,/,1070339,/,1071018,/	t,t,t,t,t,t	<img class = center src='/static/experiments/beast_fmri_test/images/P.png'></img>	71,89	2750.0	test	<img class = center src='/static/experiments/beast_fmri_test/images/redP.png'></img>	stop	2250.0	2.0	5.0	stop	non-target	P	71,Index Finger	89,Middle Finger	700.0	500.0	2050.0	2250.0	0.0	1.0	500.0	n/a	stop_stim
34100.691946000094	1238.3080539999999	n/a	-1	-1	2750	1238.308054	stim	stop-signal	406	1070337	0.0-19.5-1.5	beast_fmri_test	336	1067619,/,1068300,/,1068980,/,1069659,/,1070339,/,1071018,/	t,t,t,t,t,t	<img class = center src='/static/experiments/beast_fmri_test/images/P.png'></img>	71,89	2750.0	test	<img class = center src='/static/experiments/beast_fmri_test/images/redP.png'></img>	stop	2250.0	2.0	5.0	stop	non-target	P	71,Index Finger	89,Middle Finger	700.0	500.0	2050.0	2250.0	0.0	1.0	500.0	n/a	ITI
37120	500	n/a	-1	-1	500	0.0	fixation	poldrack-single-stim	407	1072118	0.0-19.6-0.6	beast_fmri_test	336	1071698,/	t	<div class = centerbox2><div class = fixation>+</div></div>	none	500.0	test	n/a	n/a	n/a	n/a	n/a	n/a	n/a	n/a	n/a	n/a	n/a	n/a	n/a	n/a	n/a	n/a	n/a	n/a	fixation
36495.443947999971	700.0	n/a	828	71	2750	626.556052	stim	stop-signal	408	1074870	0.0-19.6-1.6	beast_fmri_test	336	1072378,/,1073057,/,1073737,/,1074417,/,1075096,/	t,t,t,t,t	<img class = center src='/static/experiments/beast_fmri_test/images/B.png'></img>	71,89	2750.0	test	<img class = center src='/static/experiments/beast_fmri_test/images/redB.png'></img>	stop	2050.0	2.0	6.0	stop	target	B	71,Index Finger	89,Middle Finger	700.0	550.0	2050.0	2250.0	0.0	0.0	700.0	n/a	go_stim
38545.443947999971	2050.0	n/a	828	71	2750	626.556052	stim	stop-signal	408	1074870	0.0-19.6-1.6	beast_fmri_test	336	1072378,/,1073057,/,1073737,/,1074417,/,1075096,/	t,t,t,t,t	<img class = center src='/static/experiments/beast_fmri_test/images/B.png'></img>	71,89	2750.0	test	<img class = center src='/static/experiments/beast_fmri_test/images/redB.png'></img>	stop	2050.0	2.0	6.0	stop	target	B	71,Index Finger	89,Middle Finger	700.0	550.0	2050.0	2250.0	0.0	0.0	700.0	n/a	stop_stim
39245.443947999971	626.55605199999991	n/a	828	71	2750	626.556052	stim	stop-signal	408	1074870	0.0-19.6-1.6	beast_fmri_test	336	1072378,/,1073057,/,1073737,/,1074417,/,1075096,/	t,t,t,t,t	<img class = center src='/static/experiments/beast_fmri_test/images/B.png'></img>	71,89	2750.0	test	<img class = center src='/static/experiments/beast_fmri_test/images/redB.png'></img>	stop	2050.0	2.0	6.0	stop	target	B	71,Index Finger	89,Middle Finger	700.0	550.0	2050.0	2250.0	0.0	0.0	700.0	n/a	ITI
41048	500	n/a	-1	-1	500	0.0	fixation	poldrack-single-stim	409	1076046	0.0-19.7-0.7	beast_fmri_test	336	1075777,/	t	<div class = centerbox2><div class = fixation>+</div></div>	none	500.0	test	n/a	n/a	n/a	n/a	n/a	n/a	n/a	n/a	n/a	n/a	n/a	n/a	n/a	n/a	n/a	n/a	n/a	n/a	fixation
40978.927762659965	2750	n/a	1045	89	2750	71.07223734	stim	stop-signal	410	1078798	0.0-19.7-1.7	beast_fmri_test	336	1076457,/,1077135,/,1077816,/,1078496,/	t,t,t,t	<img class = center src='/static/experiments/beast_fmri_test/images/T.png'></img>	71,89	2750.0	test	<img class = center src='/static/experiments/beast_fmri_test/images/redT.png'></img>	go	2200.0	2.0	7.0	go	non-target	T	71,Index Finger	89,Middle Finger	650.0	550.0	2050.0	2200.0	1.0	n/a	550.0	1.0	go_stim
43728.927762659965	71.072237340000001	n/a	1045	89	2750	71.07223734	stim	stop-signal	410	1078798	0.0-19.7-1.7	beast_fmri_test	336	1076457,/,1077135,/,1077816,/,1078496,/	t,t,t,t	<img class = center src='/static/experiments/beast_fmri_test/images/T.png'></img>	71,89	2750.0	test	<img class = center src='/static/experiments/beast_fmri_test/images/redT.png'></img>	go	2200.0	2.0	7.0	go	non-target	T	71,Index Finger	89,Middle Finger	650.0	550.0	2050.0	2200.0	1.0	n/a	550.0	1.0	ITI
44419	500	n/a	-1	-1	500	0.0	fixation	poldrack-single-stim	411	1079417	0.0-19.8-0.8	beast_fmri_test	336	1079176,/	t	<div class = centerbox2><div class = fixation>+</div></div>	none	500.0	test	n/a	n/a	n/a	n/a	n/a	n/a	n/a	n/a	n/a	n/a	n/a	n/a	n/a	n/a	n/a	n/a	n/a	n/a	fixation
39520.505244999891	2750	n/a	861	71	2750	4898.494755	stim	stop-signal	412	1082167	0.0-19.8-1.8	beast_fmri_test	336	1079855,/,1080534,/,1081215,/,1081894,/,1082574,/,1083252,/,1083932,/,1084612,/,1085291,/,1085971,/,1086650,/	t,t,t,t,t,t,t,t,t,t,t	<img class = center src='/static/experiments/beast_fmri_test/images/B.png'></img>	71,89	2750.0	test	<img class = center src='/static/experiments/beast_fmri_test/images/redB.png'></img>	go	2100.0	2.0	8.0	go	target	B	71,Index Finger	89,Middle Finger	650.0	550.0	2100.0	2200.0	1.0	n/a	650.0	1.0	go_stim
42270.505244999891	4898.4947549999997	n/a	861	71	2750	4898.494755	stim	stop-signal	412	1082167	0.0-19.8-1.8	beast_fmri_test	336	1079855,/,1080534,/,1081215,/,1081894,/,1082574,/,1083252,/,1083932,/,1084612,/,1085291,/,1085971,/,1086650,/	t,t,t,t,t,t,t,t,t,t,t	<img class = center src='/static/experiments/beast_fmri_test/images/B.png'></img>	71,89	2750.0	test	<img class = center src='/static/experiments/beast_fmri_test/images/redB.png'></img>	go	2100.0	2.0	8.0	go	target	B	71,Index Finger	89,Middle Finger	650.0	550.0	2100.0	2200.0	1.0	n/a	650.0	1.0	ITI
52612	500	n/a	-1	-1	500	0.0	fixation	poldrack-single-stim	413	1087610	0.0-19.9-0.9	beast_fmri_test	336	1087330,/	t	<div class = centerbox2><div class = fixation>+</div></div>	none	500.0	test	n/a	n/a	n/a	n/a	n/a	n/a	n/a	n/a	n/a	n/a	n/a	n/a	n/a	n/a	n/a	n/a	n/a	n/a	fixation
51631.063495799899	2750	n/a	862	89	2750	981.9365042	stim	stop-signal	414	1090361	0.0-19.9-1.9	beast_fmri_test	336	1088011,/,1088691,/,1089369,/,1090049,/,1090730,/	t,t,t,t,t	<img class = center src='/static/experiments/beast_fmri_test/images/P.png'></img>	71,89	2750.0	test	<img class = center src='/static/experiments/beast_fmri_test/images/redP.png'></img>	go	2200.0	2.0	9.0	go	non-target	P	71,Index Finger	89,Middle Finger	650.0	550.0	2100.0	2200.0	1.0	n/a	550.0	1.0	go_stim
54381.063495799899	981.93650420000017	n/a	862	89	2750	981.9365042	stim	stop-signal	414	1090361	0.0-19.9-1.9	beast_fmri_test	336	1088011,/,1088691,/,1089369,/,1090049,/,1090730,/	t,t,t,t,t	<img class = center src='/static/experiments/beast_fmri_test/images/P.png'></img>	71,89	2750.0	test	<img class = center src='/static/experiments/beast_fmri_test/images/redP.png'></img>	go	2200.0	2.0	9.0	go	non-target	P	71,Index Finger	89,Middle Finger	650.0	550.0	2100.0	2200.0	1.0	n/a	550.0	1.0	ITI
56888	500	n/a	-1	-1	500	0.0	fixation	poldrack-single-stim	415	1091886	0.0-19.10-0.10	beast_fmri_test	336	1091409,/	t	<div class = centerbox2><div class = fixation>+</div></div>	none	500.0	test	n/a	n/a	n/a	n/a	n/a	n/a	n/a	n/a	n/a	n/a	n/a	n/a	n/a	n/a	n/a	n/a	n/a	n/a	fixation
56642.30977599998	2750	n/a	696	89	2750	247.690224	stim	stop-signal	416	1094638	0.0-19.10-1.10	beast_fmri_test	336	1092089,/,1092768,/,1093448,/,1094126,/,1094808,/	t,t,t,t,t	<img class = center src='/static/experiments/beast_fmri_test/images/T.png'></img>	71,89	2750.0	test	<img class = center src='/static/experiments/beast_fmri_test/images/redT.png'></img>	go	2200.0	2.0	10.0	go	non-target	T	71,Index Finger	89,Middle Finger	650.0	550.0	2100.0	2200.0	1.0	n/a	550.0	1.0	go_stim
59392.30977599998	247.69022400000003	n/a	696	89	2750	247.690224	stim	stop-signal	416	1094638	0.0-19.10-1.10	beast_fmri_test	336	1092089,/,1092768,/,1093448,/,1094126,/,1094808,/	t,t,t,t,t	<img class = center src='/static/experiments/beast_fmri_test/images/T.png'></img>	71,89	2750.0	test	<img class = center src='/static/experiments/beast_fmri_test/images/redT.png'></img>	go	2200.0	2.0	10.0	go	non-target	T	71,Index Finger	89,Middle Finger	650.0	550.0	2100.0	2200.0	1.0	n/a	550.0	1.0	ITI
60431	500	n/a	-1	-1	500	0.0	fixation	poldrack-single-stim	417	1095429	0.0-19.11-0.11	beast_fmri_test	336	n/a	n/a	<div class = centerbox2><div class = fixation>+</div></div>	none	500.0	test	n/a	n/a	n/a	n/a	n/a	n/a	n/a	n/a	n/a	n/a	n/a	n/a	n/a	n/a	n/a	n/a	n/a	n/a	fixation
59219.11048500007	2750	n/a	1293	71	2750	1214.889515	stim	stop-signal	418	1098182	0.0-19.11-1.11	beast_fmri_test	336	1095486,/,1096167,/,1096847,/,1097526,/,1098205,/,1098885,/	t,t,t,t,t,t	<img class = center src='/static/experiments/beast_fmri_test/images/P.png'></img>	71,89	2750.0	test	<img class = center src='/static/experiments/beast_fmri_test/images/redP.png'></img>	go	2100.0	2.0	11.0	go	target	P	71,Index Finger	89,Middle Finger	650.0	550.0	2100.0	2200.0	1.0	n/a	650.0	1.0	go_stim
61969.11048500007	1214.8895150000001	n/a	1293	71	2750	1214.889515	stim	stop-signal	418	1098182	0.0-19.11-1.11	beast_fmri_test	336	1095486,/,1096167,/,1096847,/,1097526,/,1098205,/,1098885,/	t,t,t,t,t,t	<img class = center src='/static/experiments/beast_fmri_test/images/P.png'></img>	71,89	2750.0	test	<img class = center src='/static/experiments/beast_fmri_test/images/redP.png'></img>	go	2100.0	2.0	11.0	go	target	P	71,Index Finger	89,Middle Finger	650.0	550.0	2100.0	2200.0	1.0	n/a	650.0	1.0	ITI
64941	500	n/a	-1	-1	500	0.0	fixation	poldrack-single-stim	419	1099939	0.0-19.12-0.12	beast_fmri_test	336	1099564,/	t	<div class = centerbox2><div class = fixation>+</div></div>	none	500.0	test	n/a	n/a	n/a	n/a	n/a	n/a	n/a	n/a	n/a	n/a	n/a	n/a	n/a	n/a	n/a	n/a	n/a	n/a	fixation
63245.541337999981	550.0	n/a	540	89	2750	1696.458662	stim	stop-signal	420	1102690	0.0-19.12-1.12	beast_fmri_test	336	1100245,/,1100925,/,1101604,/,1102284,/,1102964,/,1103643,/,1104324,/	t,t,t,t,t,t,t	<img class = center src='/static/experiments/beast_fmri_test/images/V.png'></img>	71,89	2750.0	test	<img class = center src='/static/experiments/beast_fmri_test/images/redV.png'></img>	stop	2200.0	2.0	12.0	stop	non-target	V	71,Index Finger	89,Middle Finger	650.0	550.0	2100.0	2200.0	0.0	0.0	550.0	n/a	go_stim
65445.541337999981	2200.0	n/a	540	89	2750	1696.458662	stim	stop-signal	420	1102690	0.0-19.12-1.12	beast_fmri_test	336	1100245,/,1100925,/,1101604,/,1102284,/,1102964,/,1103643,/,1104324,/	t,t,t,t,t,t,t	<img class = center src='/static/experiments/beast_fmri_test/images/V.png'></img>	71,89	2750.0	test	<img class = center src='/static/experiments/beast_fmri_test/images/redV.png'></img>	stop	2200.0	2.0	12.0	stop	non-target	V	71,Index Finger	89,Middle Finger	650.0	550.0	2100.0	2200.0	0.0	0.0	550.0	n/a	stop_stim
65995.541337999981	1696.458662	n/a	540	89	2750	1696.458662	stim	stop-signal	420	1102690	0.0-19.12-1.12	beast_fmri_test	336	1100245,/,1100925,/,1101604,/,1102284,/,1102964,/,1103643,/,1104324,/	t,t,t,t,t,t,t	<img class = center src='/static/experiments/beast_fmri_test/images/V.png'></img>	71,89	2750.0	test	<img class = center src='/static/experiments/beast_fmri_test/images/redV.png'></img>	stop	2200.0	2.0	12.0	stop	non-target	V	71,Index Finger	89,Middle Finger	650.0	550.0	2100.0	2200.0	0.0	0.0	550.0	n/a	ITI
69935	500	n/a	-1	-1	500	0.0	fixation	poldrack-single-stim	421	1104933	0.0-19.13-0.13	beast_fmri_test	336	n/a	n/a	<div class = centerbox2><div class = fixation>+</div></div>	none	500.0	test	n/a	n/a	n/a	n/a	n/a	n/a	n/a	n/a	n/a	n/a	n/a	n/a	n/a	n/a	n/a	n/a	n/a	n/a	fixation
69243.356962400023	2750	n/a	769	89	2750	693.6430376	stim	stop-signal	422	1107685	0.0-19.13-1.13	beast_fmri_test	336	1105003,/,1105684,/,1106363,/,1107041,/,1107721,/	t,t,t,t,t	<img class = center src='/static/experiments/beast_fmri_test/images/V.png'></img>	71,89	2750.0	test	<img class = center src='/static/experiments/beast_fmri_test/images/redV.png'></img>	go	2250.0	2.0	13.0	go	non-target	V	71,Index Finger	89,Middle Finger	650.0	500.0	2100.0	2250.0	1.0	n/a	500.0	1.0	go_stim
71993.356962400023	693.64303760000007	n/a	769	89	2750	693.6430376	stim	stop-signal	422	1107685	0.0-19.13-1.13	beast_fmri_test	336	1105003,/,1105684,/,1106363,/,1107041,/,1107721,/	t,t,t,t,t	<img class = center src='/static/experiments/beast_fmri_test/images/V.png'></img>	71,89	2750.0	test	<img class = center src='/static/experiments/beast_fmri_test/images/redV.png'></img>	go	2250.0	2.0	13.0	go	non-target	V	71,Index Finger	89,Middle Finger	650.0	500.0	2100.0	2250.0	1.0	n/a	500.0	1.0	ITI
73925	500	n/a	-1	-1	500	0.0	fixation	poldrack-single-stim	423	1108923	0.0-19.14-0.14	beast_fmri_test	336	1108421,/	t	<div class = centerbox2><div class = fixation>+</div></div>	none	500.0	test	n/a	n/a	n/a	n/a	n/a	n/a	n/a	n/a	n/a	n/a	n/a	n/a	n/a	n/a	n/a	n/a	n/a	n/a	fixation
73537.679256099975	2750	n/a	954	89	2750	388.3207439	stim	stop-signal	424	1111674	0.0-19.14-1.14	beast_fmri_test	336	1109082,/,1109762,/,1110441,/,1111120,/,1111799,/	t,t,t,t,t	<img class = center src='/static/experiments/beast_fmri_test/images/P.png'></img>	71,89	2750.0	test	<img class = center src='/static/experiments/beast_fmri_test/images/redP.png'></img>	go	2250.0	2.0	14.0	go	non-target	P	71,Index Finger	89,Middle Finger	650.0	500.0	2100.0	2250.0	1.0	n/a	500.0	1.0	go_stim
76287.679256099975	388.32074389999997	n/a	954	89	2750	388.3207439	stim	stop-signal	424	1111674	0.0-19.14-1.14	beast_fmri_test	336	1109082,/,1109762,/,1110441,/,1111120,/,1111799,/	t,t,t,t,t	<img class = center src='/static/experiments/beast_fmri_test/images/P.png'></img>	71,89	2750.0	test	<img class = center src='/static/experiments/beast_fmri_test/images/redP.png'></img>	go	2250.0	2.0	14.0	go	non-target	P	71,Index Finger	89,Middle Finger	650.0	500.0	2100.0	2250.0	1.0	n/a	500.0	1.0	ITI
77617	500	n/a	-1	-1	500	0.0	fixation	poldrack-single-stim	425	1112615	0.0-19.15-0.15	beast_fmri_test	336	1112480,/	t	<div class = centerbox2><div class = fixation>+</div></div>	none	500.0	test	n/a	n/a	n/a	n/a	n/a	n/a	n/a	n/a	n/a	n/a	n/a	n/a	n/a	n/a	n/a	n/a	n/a	n/a	fixation
76573.044128000038	500.0	n/a	-1	-1	2750	1044.955872	stim	stop-signal	426	1115366	0.0-19.15-1.15	beast_fmri_test	336	1113158,/,1113839,/,1114519,/,1115199,/,1115878,/	t,t,t,t,t	<img class = center src='/static/experiments/beast_fmri_test/images/D.png'></img>	71,89	2750.0	test	<img class = center src='/static/experiments/beast_fmri_test/images/redD.png'></img>	stop	2250.0	2.0	15.0	stop	non-target	D	71,Index Finger	89,Middle Finger	650.0	500.0	2100.0	2250.0	0.0	1.0	500.0	n/a	go_stim
78823.044128000038	2250.0	n/a	-1	-1	2750	1044.955872	stim	stop-signal	426	1115366	0.0-19.15-1.15	beast_fmri_test	336	1113158,/,1113839,/,1114519,/,1115199,/,1115878,/	t,t,t,t,t	<img class = center src='/static/experiments/beast_fmri_test/images/D.png'></img>	71,89	2750.0	test	<img class = center src='/static/experiments/beast_fmri_test/images/redD.png'></img>	stop	2250.0	2.0	15.0	stop	non-target	D	71,Index Finger	89,Middle Finger	650.0	500.0	2100.0	2250.0	0.0	1.0	500.0	n/a	stop_stim
79323.044128000038	1044.955872	n/a	-1	-1	2750	1044.955872	stim	stop-signal	426	1115366	0.0-19.15-1.15	beast_fmri_test	336	1113158,/,1113839,/,1114519,/,1115199,/,1115878,/	t,t,t,t,t	<img class = center src='/static/experiments/beast_fmri_test/images/D.png'></img>	71,89	2750.0	test	<img class = center src='/static/experiments/beast_fmri_test/images/redD.png'></img>	stop	2250.0	2.0	15.0	stop	non-target	D	71,Index Finger	89,Middle Finger	650.0	500.0	2100.0	2250.0	0.0	1.0	500.0	n/a	ITI
81957	500	n/a	-1	-1	500	0.0	fixation	poldrack-single-stim	427	1116955	0.0-19.16-0.16	beast_fmri_test	336	1116558,/	t	<div class = centerbox2><div class = fixation>+</div></div>	none	500.0	test	n/a	n/a	n/a	n/a	n/a	n/a	n/a	n/a	n/a	n/a	n/a	n/a	n/a	n/a	n/a	n/a	n/a	n/a	fixation
80816.499586000107	550.0	n/a	777	89	2750	1142.500414	stim	stop-signal	428	1119707	0.0-19.16-1.16	beast_fmri_test	336	1117237,/,1117917,/,1118597,/,1119277,/,1119956,/,1120636,/	t,t,t,t,t,t	<img class = center src='/static/experiments/beast_fmri_test/images/V.png'></img>	71,89	2750.0	test	<img class = center src='/static/experiments/beast_fmri_test/images/redV.png'></img>	stop	2200.0	2.0	16.0	stop	non-target	V	71,Index Finger	89,Middle Finger	650.0	550.0	2100.0	2200.0	0.0	0.0	550.0	n/a	go_stim
83016.499586000107	2200.0	n/a	777	89	2750	1142.500414	stim	stop-signal	428	1119707	0.0-19.16-1.16	beast_fmri_test	336	1117237,/,1117917,/,1118597,/,1119277,/,1119956,/,1120636,/	t,t,t,t,t,t	<img class = center src='/static/experiments/beast_fmri_test/images/V.png'></img>	71,89	2750.0	test	<img class = center src='/static/experiments/beast_fmri_test/images/redV.png'></img>	stop	2200.0	2.0	16.0	stop	non-target	V	71,Index Finger	89,Middle Finger	650.0	550.0	2100.0	2200.0	0.0	0.0	550.0	n/a	stop_stim
83566.499586000107	1142.5004140000001	n/a	777	89	2750	1142.500414	stim	stop-signal	428	1119707	0.0-19.16-1.16	beast_fmri_test	336	1117237,/,1117917,/,1118597,/,1119277,/,1119956,/,1120636,/	t,t,t,t,t,t	<img class = center src='/static/experiments/beast_fmri_test/images/V.png'></img>	71,89	2750.0	test	<img class = center src='/static/experiments/beast_fmri_test/images/redV.png'></img>	stop	2200.0	2.0	16.0	stop	non-target	V	71,Index Finger	89,Middle Finger	650.0	550.0	2100.0	2200.0	0.0	0.0	550.0	n/a	ITI
86396	500	n/a	-1	-1	500	0.0	fixation	poldrack-single-stim	429	1121394	0.0-19.17-0.17	beast_fmri_test	336	1121316,/	t	<div class = centerbox2><div class = fixation>+</div></div>	none	500.0	test	n/a	n/a	n/a	n/a	n/a	n/a	n/a	n/a	n/a	n/a	n/a	n/a	n/a	n/a	n/a	n/a	n/a	n/a	fixation
86051.876012600027	2750	n/a	832	71	2750	346.1239874	stim	stop-signal	430	1124146	0.0-19.17-1.17	beast_fmri_test	336	1121995,/,1122674,/,1123354,/,1124034,/	t,t,t,t	<img class = center src='/static/experiments/beast_fmri_test/images/T.png'></img>	71,89	2750.0	test	<img class = center src='/static/experiments/beast_fmri_test/images/redT.png'></img>	go	2250.0	2.0	17.0	go	non-target	T	71,Index Finger	89,Middle Finger	650.0	500.0	2100.0	2250.0	0.0	n/a	500.0	0.0	go_stim
88801.876012600027	346.12398739999998	n/a	832	71	2750	346.1239874	stim	stop-signal	430	1124146	0.0-19.17-1.17	beast_fmri_test	336	1121995,/,1122674,/,1123354,/,1124034,/	t,t,t,t	<img class = center src='/static/experiments/beast_fmri_test/images/T.png'></img>	71,89	2750.0	test	<img class = center src='/static/experiments/beast_fmri_test/images/redT.png'></img>	go	2250.0	2.0	17.0	go	non-target	T	71,Index Finger	89,Middle Finger	650.0	500.0	2100.0	2250.0	0.0	n/a	500.0	0.0	ITI
90039	500	n/a	-1	-1	500	0.0	fixation	poldrack-single-stim	431	1125037	0.0-19.18-0.18	beast_fmri_test	336	1124714,/	t	<div class = centerbox2><div class = fixation>+</div></div>	none	500.0	test	n/a	n/a	n/a	n/a	n/a	n/a	n/a	n/a	n/a	n/a	n/a	n/a	n/a	n/a	n/a	n/a	n/a	n/a	fixation
89650.3021474001	2750	n/a	737	89	2750	390.6978526	stim	stop-signal	432	1127789	0.0-19.18-1.18	beast_fmri_test	336	1125394,/,1126072,/,1126752,/,1127432,/,1128111,/	t,t,t,t,t	<img class = center src='/static/experiments/beast_fmri_test/images/D.png'></img>	71,89	2750.0	test	<img class = center src='/static/experiments/beast_fmri_test/images/redD.png'></img>	go	2250.0	2.0	18.0	go	non-target	D	71,Index Finger	89,Middle Finger	650.0	500.0	2100.0	2250.0	1.0	n/a	500.0	1.0	go_stim
92400.3021474001	390.69785260000003	n/a	737	89	2750	390.6978526	stim	stop-signal	432	1127789	0.0-19.18-1.18	beast_fmri_test	336	1125394,/,1126072,/,1126752,/,1127432,/,1128111,/	t,t,t,t,t	<img class = center src='/static/experiments/beast_fmri_test/images/D.png'></img>	71,89	2750.0	test	<img class = center src='/static/experiments/beast_fmri_test/images/redD.png'></img>	go	2250.0	2.0	18.0	go	non-target	D	71,Index Finger	89,Middle Finger	650.0	500.0	2100.0	2250.0	1.0	n/a	500.0	1.0	ITI
93725	500	n/a	-1	-1	500	0.0	fixation	poldrack-single-stim	433	1128723	0.0-19.19-0.19	beast_fmri_test	336	n/a	n/a	<div class = centerbox2><div class = fixation>+</div></div>	none	500.0	test	n/a	n/a	n/a	n/a	n/a	n/a	n/a	n/a	n/a	n/a	n/a	n/a	n/a	n/a	n/a	n/a	n/a	n/a	fixation
92755.780494699953	2750	n/a	832	89	2750	970.2195053	stim	stop-signal	434	1131474	0.0-19.19-1.19	beast_fmri_test	336	1128792,/,1129472,/,1130150,/,1130831,/,1131509,/,1132191,/	t,t,t,t,t,t	<img class = center src='/static/experiments/beast_fmri_test/images/D.png'></img>	71,89	2750.0	test	<img class = center src='/static/experiments/beast_fmri_test/images/redD.png'></img>	go	2250.0	2.0	19.0	go	non-target	D	71,Index Finger	89,Middle Finger	650.0	500.0	2100.0	2250.0	1.0	n/a	500.0	1.0	go_stim
95505.780494699953	970.21950529999992	n/a	832	89	2750	970.2195053	stim	stop-signal	434	1131474	0.0-19.19-1.19	beast_fmri_test	336	1128792,/,1129472,/,1130150,/,1130831,/,1131509,/,1132191,/	t,t,t,t,t,t	<img class = center src='/static/experiments/beast_fmri_test/images/D.png'></img>	71,89	2750.0	test	<img class = center src='/static/experiments/beast_fmri_test/images/redD.png'></img>	go	2250.0	2.0	19.0	go	non-target	D	71,Index Finger	89,Middle Finger	650.0	500.0	2100.0	2250.0	1.0	n/a	500.0	1.0	ITI
97987	500	n/a	-1	-1	500	0.0	fixation	poldrack-single-stim	435	1132985	0.0-19.20-0.20	beast_fmri_test	336	1132872,/	t	<div class = centerbox2><div class = fixation>+</div></div>	none	500.0	test	n/a	n/a	n/a	n/a	n/a	n/a	n/a	n/a	n/a	n/a	n/a	n/a	n/a	n/a	n/a	n/a	n/a	n/a	fixation
97437.862449999899	650.0	n/a	705	71	2750	551.13755	stim	stop-signal	436	1135737	0.0-19.20-1.20	beast_fmri_test	336	1133552,/,1134230,/,1134910,/,1135590,/,1136268,/	t,t,t,t,t	<img class = center src='/static/experiments/beast_fmri_test/images/D.png'></img>	71,89	2750.0	test	<img class = center src='/static/experiments/beast_fmri_test/images/redD.png'></img>	stop	2100.0	2.0	20.0	stop	target	D	71,Index Finger	89,Middle Finger	650.0	500.0	2100.0	2250.0	0.0	0.0	650.0	n/a	go_stim
99537.862449999899	2100.0	n/a	705	71	2750	551.13755	stim	stop-signal	436	1135737	0.0-19.20-1.20	beast_fmri_test	336	1133552,/,1134230,/,1134910,/,1135590,/,1136268,/	t,t,t,t,t	<img class = center src='/static/experiments/beast_fmri_test/images/D.png'></img>	71,89	2750.0	test	<img class = center src='/static/experiments/beast_fmri_test/images/redD.png'></img>	stop	2100.0	2.0	20.0	stop	target	D	71,Index Finger	89,Middle Finger	650.0	500.0	2100.0	2250.0	0.0	0.0	650.0	n/a	stop_stim
100187.8624499999	551.13755000000003	n/a	705	71	2750	551.13755	stim	stop-signal	436	1135737	0.0-19.20-1.20	beast_fmri_test	336	1133552,/,1134230,/,1134910,/,1135590,/,1136268,/	t,t,t,t,t	<img class = center src='/static/experiments/beast_fmri_test/images/D.png'></img>	71,89	2750.0	test	<img class = center src='/static/experiments/beast_fmri_test/images/redD.png'></img>	stop	2100.0	2.0	20.0	stop	target	D	71,Index Finger	89,Middle Finger	650.0	500.0	2100.0	2250.0	0.0	0.0	650.0	n/a	ITI
101829	500	n/a	-1	-1	500	0.0	fixation	poldrack-single-stim	437	1136827	0.0-19.21-0.21	beast_fmri_test	336	n/a	n/a	<div class = centerbox2><div class = fixation>+</div></div>	none	500.0	test	n/a	n/a	n/a	n/a	n/a	n/a	n/a	n/a	n/a	n/a	n/a	n/a	n/a	n/a	n/a	n/a	n/a	n/a	fixation
99443.899153999984	2750	n/a	892	89	2750	2388.100846	stim	stop-signal	438	1139580	0.0-19.21-1.21	beast_fmri_test	336	1136948,/,1137629,/,1138308,/,1138988,/,1139668,/,1140348,/,1141026,/,1141707,/	t,t,t,t,t,t,t,t	<img class = center src='/static/experiments/beast_fmri_test/images/V.png'></img>	71,89	2750.0	test	<img class = center src='/static/experiments/beast_fmri_test/images/redV.png'></img>	go	2250.0	2.0	21.0	go	non-target	V	71,Index Finger	89,Middle Finger	600.0	500.0	2100.0	2250.0	1.0	n/a	500.0	1.0	go_stim
102193.89915399998	2388.1008460000003	n/a	892	89	2750	2388.100846	stim	stop-signal	438	1139580	0.0-19.21-1.21	beast_fmri_test	336	1136948,/,1137629,/,1138308,/,1138988,/,1139668,/,1140348,/,1141026,/,1141707,/	t,t,t,t,t,t,t,t	<img class = center src='/static/experiments/beast_fmri_test/images/V.png'></img>	71,89	2750.0	test	<img class = center src='/static/experiments/beast_fmri_test/images/redV.png'></img>	go	2250.0	2.0	21.0	go	non-target	V	71,Index Finger	89,Middle Finger	600.0	500.0	2100.0	2250.0	1.0	n/a	500.0	1.0	ITI
107512	500	n/a	-1	-1	500	0.0	fixation	poldrack-single-stim	439	1142510	0.0-19.22-0.22	beast_fmri_test	336	1142387,/	t	<div class = centerbox2><div class = fixation>+</div></div>	none	500.0	test	n/a	n/a	n/a	n/a	n/a	n/a	n/a	n/a	n/a	n/a	n/a	n/a	n/a	n/a	n/a	n/a	n/a	n/a	fixation
106764.46099480009	2750	n/a	729	89	2750	749.5390052	stim	stop-signal	440	1145262	0.0-19.22-1.22	beast_fmri_test	336	1143066,/,1143746,/,1144426,/,1145105,/,1145785,/	t,t,t,t,t	<img class = center src='/static/experiments/beast_fmri_test/images/B.png'></img>	71,89	2750.0	test	<img class = center src='/static/experiments/beast_fmri_test/images/redB.png'></img>	go	2250.0	2.0	22.0	go	non-target	B	71,Index Finger	89,Middle Finger	600.0	500.0	2100.0	2250.0	1.0	n/a	500.0	1.0	go_stim
109514.46099480009	749.53900520000002	n/a	729	89	2750	749.5390052	stim	stop-signal	440	1145262	0.0-19.22-1.22	beast_fmri_test	336	1143066,/,1143746,/,1144426,/,1145105,/,1145785,/	t,t,t,t,t	<img class = center src='/static/experiments/beast_fmri_test/images/B.png'></img>	71,89	2750.0	test	<img class = center src='/static/experiments/beast_fmri_test/images/redB.png'></img>	go	2250.0	2.0	22.0	go	non-target	B	71,Index Finger	89,Middle Finger	600.0	500.0	2100.0	2250.0	1.0	n/a	500.0	1.0	ITI
111559	500	n/a	-1	-1	500	0.0	fixation	poldrack-single-stim	441	1146557	0.0-19.23-0.23	beast_fmri_test	336	1146464,/	t	<div class = centerbox2><div class = fixation>+</div></div>	none	500.0	test	n/a	n/a	n/a	n/a	n/a	n/a	n/a	n/a	n/a	n/a	n/a	n/a	n/a	n/a	n/a	n/a	n/a	n/a	fixation
111542.43171263998	2750	n/a	867	89	2750	19.56828736	stim	stop-signal	442	1149310	0.0-19.23-1.23	beast_fmri_test	336	1147144,/,1147823,/,1148504,/,1149182,/	t,t,t,t	<img class = center src='/static/experiments/beast_fmri_test/images/T.png'></img>	71,89	2750.0	test	<img class = center src='/static/experiments/beast_fmri_test/images/redT.png'></img>	go	2250.0	2.0	23.0	go	non-target	T	71,Index Finger	89,Middle Finger	600.0	500.0	2100.0	2250.0	1.0	n/a	500.0	1.0	go_stim
114292.43171263998	19.568287359999999	n/a	867	89	2750	19.56828736	stim	stop-signal	442	1149310	0.0-19.23-1.23	beast_fmri_test	336	1147144,/,1147823,/,1148504,/,1149182,/	t,t,t,t	<img class = center src='/static/experiments/beast_fmri_test/images/T.png'></img>	71,89	2750.0	test	<img class = center src='/static/experiments/beast_fmri_test/images/redT.png'></img>	go	2250.0	2.0	23.0	go	non-target	T	71,Index Finger	89,Middle Finger	600.0	500.0	2100.0	2250.0	1.0	n/a	500.0	1.0	ITI
114870	500	n/a	-1	-1	500	0.0	fixation	poldrack-single-stim	443	1149868	0.0-19.24-0.24	beast_fmri_test	336	1149863,/	t	<div class = centerbox2><div class = fixation>+</div></div>	none	500.0	test	n/a	n/a	n/a	n/a	n/a	n/a	n/a	n/a	n/a	n/a	n/a	n/a	n/a	n/a	n/a	n/a	n/a	n/a	fixation
114148.44600429991	2750	n/a	609	89	2750	722.5539957	stim	stop-signal	444	1152619	0.0-19.24-1.24	beast_fmri_test	336	1150542,/,1151221,/,1151902,/,1152582,/,1153261,/	t,t,t,t,t	<img class = center src='/static/experiments/beast_fmri_test/images/D.png'></img>	71,89	2750.0	test	<img class = center src='/static/experiments/beast_fmri_test/images/redD.png'></img>	go	2250.0	2.0	24.0	go	non-target	D	71,Index Finger	89,Middle Finger	600.0	500.0	2100.0	2250.0	1.0	n/a	500.0	1.0	go_stim
116898.44600429991	722.55399570000009	n/a	609	89	2750	722.5539957	stim	stop-signal	444	1152619	0.0-19.24-1.24	beast_fmri_test	336	1150542,/,1151221,/,1151902,/,1152582,/,1153261,/	t,t,t,t,t	<img class = center src='/static/experiments/beast_fmri_test/images/D.png'></img>	71,89	2750.0	test	<img class = center src='/static/experiments/beast_fmri_test/images/redD.png'></img>	go	2250.0	2.0	24.0	go	non-target	D	71,Index Finger	89,Middle Finger	600.0	500.0	2100.0	2250.0	1.0	n/a	500.0	1.0	ITI
118886	500	n/a	-1	-1	500	0.0	fixation	poldrack-single-stim	445	1153884	0.0-19.25-0.25	beast_fmri_test	336	n/a	n/a	<div class = centerbox2><div class = fixation>+</div></div>	none	500.0	test	n/a	n/a	n/a	n/a	n/a	n/a	n/a	n/a	n/a	n/a	n/a	n/a	n/a	n/a	n/a	n/a	n/a	n/a	fixation
117480.0620850001	500.0	n/a	931	89	2750	1408.937915	stim	stop-signal	446	1156637	0.0-19.25-1.25	beast_fmri_test	336	1153940,/,1154621,/,1155300,/,1155979,/,1156662,/,1157339,/,1158019,/	t,t,t,t,t,t,t	<img class = center src='/static/experiments/beast_fmri_test/images/D.png'></img>	71,89	2750.0	test	<img class = center src='/static/experiments/beast_fmri_test/images/redD.png'></img>	stop	2250.0	2.0	25.0	stop	non-target	D	71,Index Finger	89,Middle Finger	600.0	500.0	2100.0	2250.0	0.0	0.0	500.0	n/a	go_stim
119730.0620850001	2250.0	n/a	931	89	2750	1408.937915	stim	stop-signal	446	1156637	0.0-19.25-1.25	beast_fmri_test	336	1153940,/,1154621,/,1155300,/,1155979,/,1156662,/,1157339,/,1158019,/	t,t,t,t,t,t,t	<img class = center src='/static/experiments/beast_fmri_test/images/D.png'></img>	71,89	2750.0	test	<img class = center src='/static/experiments/beast_fmri_test/images/redD.png'></img>	stop	2250.0	2.0	25.0	stop	non-target	D	71,Index Finger	89,Middle Finger	600.0	500.0	2100.0	2250.0	0.0	0.0	500.0	n/a	stop_stim
120230.0620850001	1408.937915	n/a	931	89	2750	1408.937915	stim	stop-signal	446	1156637	0.0-19.25-1.25	beast_fmri_test	336	1153940,/,1154621,/,1155300,/,1155979,/,1156662,/,1157339,/,1158019,/	t,t,t,t,t,t,t	<img class = center src='/static/experiments/beast_fmri_test/images/D.png'></img>	71,89	2750.0	test	<img class = center src='/static/experiments/beast_fmri_test/images/redD.png'></img>	stop	2250.0	2.0	25.0	stop	non-target	D	71,Index Finger	89,Middle Finger	600.0	500.0	2100.0	2250.0	0.0	0.0	500.0	n/a	ITI
123592	500	n/a	-1	-1	500	0.0	fixation	poldrack-single-stim	447	1158590	0.0-19.26-0.26	beast_fmri_test	336	n/a	n/a	<div class = centerbox2><div class = fixation>+</div></div>	none	500.0	test	n/a	n/a	n/a	n/a	n/a	n/a	n/a	n/a	n/a	n/a	n/a	n/a	n/a	n/a	n/a	n/a	n/a	n/a	fixation
123329.20864590001	2750	n/a	847	71	2750	263.7913541	stim	stop-signal	448	1161341	0.0-19.26-1.26	beast_fmri_test	336	1158699,/,1159378,/,1160057,/,1160736,/,1161417,/	t,t,t,t,t	<img class = center src='/static/experiments/beast_fmri_test/images/D.png'></img>	71,89	2750.0	test	<img class = center src='/static/experiments/beast_fmri_test/images/redD.png'></img>	go	2150.0	2.0	26.0	go	target	D	71,Index Finger	89,Middle Finger	600.0	450.0	2150.0	2250.0	1.0	n/a	600.0	1.0	go_stim
126079.20864590001	263.79135409999998	n/a	847	71	2750	263.7913541	stim	stop-signal	448	1161341	0.0-19.26-1.26	beast_fmri_test	336	1158699,/,1159378,/,1160057,/,1160736,/,1161417,/	t,t,t,t,t	<img class = center src='/static/experiments/beast_fmri_test/images/D.png'></img>	71,89	2750.0	test	<img class = center src='/static/experiments/beast_fmri_test/images/redD.png'></img>	go	2150.0	2.0	26.0	go	target	D	71,Index Finger	89,Middle Finger	600.0	450.0	2150.0	2250.0	1.0	n/a	600.0	1.0	ITI
127155	500	n/a	-1	-1	500	0.0	fixation	poldrack-single-stim	449	1162153	0.0-19.27-0.27	beast_fmri_test	336	1162098,/	t	<div class = centerbox2><div class = fixation>+</div></div>	none	500.0	test	n/a	n/a	n/a	n/a	n/a	n/a	n/a	n/a	n/a	n/a	n/a	n/a	n/a	n/a	n/a	n/a	n/a	n/a	fixation
126254.15628	600.0	n/a	730	71	2750	903.84372	stim	stop-signal	450	1164906	0.0-19.27-1.27	beast_fmri_test	336	1162776,/,1163457,/,1164136,/,1164815,/,1165495,/	t,t,t,t,t	<img class = center src='/static/experiments/beast_fmri_test/images/D.png'></img>	71,89	2750.0	test	<img class = center src='/static/experiments/beast_fmri_test/images/redD.png'></img>	stop	2150.0	2.0	27.0	stop	target	D	71,Index Finger	89,Middle Finger	600.0	450.0	2150.0	2250.0	0.0	0.0	600.0	n/a	go_stim
128404.15628	2150.0	n/a	730	71	2750	903.84372	stim	stop-signal	450	1164906	0.0-19.27-1.27	beast_fmri_test	336	1162776,/,1163457,/,1164136,/,1164815,/,1165495,/	t,t,t,t,t	<img class = center src='/static/experiments/beast_fmri_test/images/D.png'></img>	71,89	2750.0	test	<img class = center src='/static/experiments/beast_fmri_test/images/redD.png'></img>	stop	2150.0	2.0	27.0	stop	target	D	71,Index Finger	89,Middle Finger	600.0	450.0	2150.0	2250.0	0.0	0.0	600.0	n/a	stop_stim
129004.15628	903.84371999999996	n/a	730	71	2750	903.84372	stim	stop-signal	450	1164906	0.0-19.27-1.27	beast_fmri_test	336	1162776,/,1163457,/,1164136,/,1164815,/,1165495,/	t,t,t,t,t	<img class = center src='/static/experiments/beast_fmri_test/images/D.png'></img>	71,89	2750.0	test	<img class = center src='/static/experiments/beast_fmri_test/images/redD.png'></img>	stop	2150.0	2.0	27.0	stop	target	D	71,Index Finger	89,Middle Finger	600.0	450.0	2150.0	2250.0	0.0	0.0	600.0	n/a	ITI
131357	500	n/a	-1	-1	500	0.0	fixation	poldrack-single-stim	451	1166355	0.0-19.28-0.28	beast_fmri_test	336	1166175,/	t	<div class = centerbox2><div class = fixation>+</div></div>	none	500.0	test	n/a	n/a	n/a	n/a	n/a	n/a	n/a	n/a	n/a	n/a	n/a	n/a	n/a	n/a	n/a	n/a	n/a	n/a	fixation
131214.18852650002	450.0	n/a	-1	-1	2750	144.8114735	stim	stop-signal	452	1169107	0.0-19.28-1.28	beast_fmri_test	336	1166855,/,1167535,/,1168215,/,1168894,/	t,t,t,t	<img class = center src='/static/experiments/beast_fmri_test/images/V.png'></img>	71,89	2750.0	test	<img class = center src='/static/experiments/beast_fmri_test/images/redV.png'></img>	stop	2300.0	2.0	28.0	stop	non-target	V	71,Index Finger	89,Middle Finger	550.0	450.0	2150.0	2300.0	0.0	1.0	450.0	n/a	go_stim
133514.18852650002	2300.0	n/a	-1	-1	2750	144.8114735	stim	stop-signal	452	1169107	0.0-19.28-1.28	beast_fmri_test	336	1166855,/,1167535,/,1168215,/,1168894,/	t,t,t,t	<img class = center src='/static/experiments/beast_fmri_test/images/V.png'></img>	71,89	2750.0	test	<img class = center src='/static/experiments/beast_fmri_test/images/redV.png'></img>	stop	2300.0	2.0	28.0	stop	non-target	V	71,Index Finger	89,Middle Finger	550.0	450.0	2150.0	2300.0	0.0	1.0	450.0	n/a	stop_stim
133964.18852650002	144.81147350000001	n/a	-1	-1	2750	144.8114735	stim	stop-signal	452	1169107	0.0-19.28-1.28	beast_fmri_test	336	1166855,/,1167535,/,1168215,/,1168894,/	t,t,t,t	<img class = center src='/static/experiments/beast_fmri_test/images/V.png'></img>	71,89	2750.0	test	<img class = center src='/static/experiments/beast_fmri_test/images/redV.png'></img>	stop	2300.0	2.0	28.0	stop	non-target	V	71,Index Finger	89,Middle Finger	550.0	450.0	2150.0	2300.0	0.0	1.0	450.0	n/a	ITI
134799	500	n/a	-1	-1	500	0.0	fixation	poldrack-single-stim	453	1169797	0.0-19.29-0.29	beast_fmri_test	336	1169574,/	t	<div class = centerbox2><div class = fixation>+</div></div>	none	500.0	test	n/a	n/a	n/a	n/a	n/a	n/a	n/a	n/a	n/a	n/a	n/a	n/a	n/a	n/a	n/a	n/a	n/a	n/a	fixation
132444.04683999997	500.0	n/a	-1	-1	2750	2355.95316	stim	stop-signal	454	1172548	0.0-19.29-1.29	beast_fmri_test	336	1170252,/,1170933,/,1171613,/,1172293,/,1172972,/,1173651,/,1174331,/	t,t,t,t,t,t,t	<img class = center src='/static/experiments/beast_fmri_test/images/B.png'></img>	71,89	2750.0	test	<img class = center src='/static/experiments/beast_fmri_test/images/redB.png'></img>	stop	2250.0	2.0	29.0	stop	non-target	B	71,Index Finger	89,Middle Finger	550.0	500.0	2150.0	2250.0	0.0	1.0	500.0	n/a	go_stim
134694.04683999997	2250.0	n/a	-1	-1	2750	2355.95316	stim	stop-signal	454	1172548	0.0-19.29-1.29	beast_fmri_test	336	1170252,/,1170933,/,1171613,/,1172293,/,1172972,/,1173651,/,1174331,/	t,t,t,t,t,t,t	<img class = center src='/static/experiments/beast_fmri_test/images/B.png'></img>	71,89	2750.0	test	<img class = center src='/static/experiments/beast_fmri_test/images/redB.png'></img>	stop	2250.0	2.0	29.0	stop	non-target	B	71,Index Finger	89,Middle Finger	550.0	500.0	2150.0	2250.0	0.0	1.0	500.0	n/a	stop_stim
135194.04683999997	2355.95316	n/a	-1	-1	2750	2355.95316	stim	stop-signal	454	1172548	0.0-19.29-1.29	beast_fmri_test	336	1170252,/,1170933,/,1171613,/,1172293,/,1172972,/,1173651,/,1174331,/	t,t,t,t,t,t,t	<img class = center src='/static/experiments/beast_fmri_test/images/B.png'></img>	71,89	2750.0	test	<img class = center src='/static/experiments/beast_fmri_test/images/redB.png'></img>	stop	2250.0	2.0	29.0	stop	non-target	B	71,Index Finger	89,Middle Finger	550.0	500.0	2150.0	2250.0	0.0	1.0	500.0	n/a	ITI
140452	500	n/a	-1	-1	500	0.0	fixation	poldrack-single-stim	455	1175450	0.0-19.30-0.30	beast_fmri_test	336	1175011,/	t	<div class = centerbox2><div class = fixation>+</div></div>	none	500.0	test	n/a	n/a	n/a	n/a	n/a	n/a	n/a	n/a	n/a	n/a	n/a	n/a	n/a	n/a	n/a	n/a	n/a	n/a	fixation
139856.35201569996	550.0	n/a	-1	-1	2750	598.6479843	stim	stop-signal	456	1178203	0.0-19.30-1.30	beast_fmri_test	336	1175691,/,1176370,/,1177049,/,1177729,/,1178409,/	t,t,t,t,t	<img class = center src='/static/experiments/beast_fmri_test/images/P.png'></img>	71,89	2750.0	test	<img class = center src='/static/experiments/beast_fmri_test/images/redP.png'></img>	stop	2200.0	2.0	30.0	stop	non-target	P	71,Index Finger	89,Middle Finger	550.0	550.0	2150.0	2200.0	0.0	1.0	550.0	n/a	go_stim
142056.35201569996	2200.0	n/a	-1	-1	2750	598.6479843	stim	stop-signal	456	1178203	0.0-19.30-1.30	beast_fmri_test	336	1175691,/,1176370,/,1177049,/,1177729,/,1178409,/	t,t,t,t,t	<img class = center src='/static/experiments/beast_fmri_test/images/P.png'></img>	71,89	2750.0	test	<img class = center src='/static/experiments/beast_fmri_test/images/redP.png'></img>	stop	2200.0	2.0	30.0	stop	non-target	P	71,Index Finger	89,Middle Finger	550.0	550.0	2150.0	2200.0	0.0	1.0	550.0	n/a	stop_stim
142606.35201569996	598.64798429999996	n/a	-1	-1	2750	598.6479843	stim	stop-signal	456	1178203	0.0-19.30-1.30	beast_fmri_test	336	1175691,/,1176370,/,1177049,/,1177729,/,1178409,/	t,t,t,t,t	<img class = center src='/static/experiments/beast_fmri_test/images/P.png'></img>	71,89	2750.0	test	<img class = center src='/static/experiments/beast_fmri_test/images/redP.png'></img>	stop	2200.0	2.0	30.0	stop	non-target	P	71,Index Finger	89,Middle Finger	550.0	550.0	2150.0	2200.0	0.0	1.0	550.0	n/a	ITI
144352	500	n/a	-1	-1	500	0.0	fixation	poldrack-single-stim	457	1179350	0.0-19.31-0.31	beast_fmri_test	336	1179089,/	t	<div class = centerbox2><div class = fixation>+</div></div>	none	500.0	test	n/a	n/a	n/a	n/a	n/a	n/a	n/a	n/a	n/a	n/a	n/a	n/a	n/a	n/a	n/a	n/a	n/a	n/a	fixation
144140.48563260003	2750	n/a	977	89	2750	213.5143674	stim	stop-signal	458	1182102	0.0-19.31-1.31	beast_fmri_test	336	1179770,/,1180447,/,1181128,/,1181807,/	t,t,t,t	<img class = center src='/static/experiments/beast_fmri_test/images/P.png'></img>	71,89	2750.0	test	<img class = center src='/static/experiments/beast_fmri_test/images/redP.png'></img>	go	2150.0	2.0	31.0	go	non-target	P	71,Index Finger	89,Middle Finger	550.0	600.0	2150.0	2150.0	1.0	n/a	600.0	1.0	go_stim
146890.48563260003	213.5143674	n/a	977	89	2750	213.5143674	stim	stop-signal	458	1182102	0.0-19.31-1.31	beast_fmri_test	336	1179770,/,1180447,/,1181128,/,1181807,/	t,t,t,t	<img class = center src='/static/experiments/beast_fmri_test/images/P.png'></img>	71,89	2750.0	test	<img class = center src='/static/experiments/beast_fmri_test/images/redP.png'></img>	go	2150.0	2.0	31.0	go	non-target	P	71,Index Finger	89,Middle Finger	550.0	600.0	2150.0	2150.0	1.0	n/a	600.0	1.0	ITI
147864	500	n/a	-1	-1	500	0.0	fixation	poldrack-single-stim	459	1182862	0.0-19.32-0.32	beast_fmri_test	336	1182488,/	t	<div class = centerbox2><div class = fixation>+</div></div>	none	500.0	test	n/a	n/a	n/a	n/a	n/a	n/a	n/a	n/a	n/a	n/a	n/a	n/a	n/a	n/a	n/a	n/a	n/a	n/a	fixation
147431.60633950005	2750	n/a	626	71	2750	434.3936605	stim	stop-signal	460	1185614	0.0-19.32-1.32	beast_fmri_test	336	1183167,/,1183847,/,1184526,/,1185206,/,1185886,/	t,t,t,t,t	<img class = center src='/static/experiments/beast_fmri_test/images/P.png'></img>	71,89	2750.0	test	<img class = center src='/static/experiments/beast_fmri_test/images/redP.png'></img>	go	2200.0	2.0	32.0	go	target	P	71,Index Finger	89,Middle Finger	550.0	600.0	2200.0	2150.0	1.0	n/a	550.0	1.0	go_stim
150181.60633950005	434.39366050000007	n/a	626	71	2750	434.3936605	stim	stop-signal	460	1185614	0.0-19.32-1.32	beast_fmri_test	336	1183167,/,1183847,/,1184526,/,1185206,/,1185886,/	t,t,t,t,t	<img class = center src='/static/experiments/beast_fmri_test/images/P.png'></img>	71,89	2750.0	test	<img class = center src='/static/experiments/beast_fmri_test/images/redP.png'></img>	go	2200.0	2.0	32.0	go	target	P	71,Index Finger	89,Middle Finger	550.0	600.0	2200.0	2150.0	1.0	n/a	550.0	1.0	ITI
151599	500	n/a	-1	-1	500	0.0	fixation	poldrack-single-stim	461	1186597	0.0-19.33-0.33	beast_fmri_test	336	1186566,/	t	<div class = centerbox2><div class = fixation>+</div></div>	none	500.0	test	n/a	n/a	n/a	n/a	n/a	n/a	n/a	n/a	n/a	n/a	n/a	n/a	n/a	n/a	n/a	n/a	n/a	n/a	fixation
150191.71802000003	2750	n/a	909	71	2750	1409.28198	stim	stop-signal	462	1189349	0.0-19.33-1.33	beast_fmri_test	336	1187245,/,1187925,/,1188604,/,1189284,/,1189964,/,1190644,/	t,t,t,t,t,t	<img class = center src='/static/experiments/beast_fmri_test/images/P.png'></img>	71,89	2750.0	test	<img class = center src='/static/experiments/beast_fmri_test/images/redP.png'></img>	go	2200.0	2.0	33.0	go	target	P	71,Index Finger	89,Middle Finger	550.0	600.0	2200.0	2150.0	1.0	n/a	550.0	1.0	go_stim
152941.71802000003	1409.28198	n/a	909	71	2750	1409.28198	stim	stop-signal	462	1189349	0.0-19.33-1.33	beast_fmri_test	336	1187245,/,1187925,/,1188604,/,1189284,/,1189964,/,1190644,/	t,t,t,t,t,t	<img class = center src='/static/experiments/beast_fmri_test/images/P.png'></img>	71,89	2750.0	test	<img class = center src='/static/experiments/beast_fmri_test/images/redP.png'></img>	go	2200.0	2.0	33.0	go	target	P	71,Index Finger	89,Middle Finger	550.0	600.0	2200.0	2150.0	1.0	n/a	550.0	1.0	ITI
156307	500	n/a	-1	-1	500	0.0	fixation	poldrack-single-stim	463	1191305	0.0-19.34-0.34	beast_fmri_test	336	n/a	n/a	<div class = centerbox2><div class = fixation>+</div></div>	none	500.0	test	n/a	n/a	n/a	n/a	n/a	n/a	n/a	n/a	n/a	n/a	n/a	n/a	n/a	n/a	n/a	n/a	n/a	n/a	fixation
155503.18788950006	600.0	n/a	727	89	2750	803.8121105	stim	stop-signal	464	1194055	0.0-19.34-1.34	beast_fmri_test	336	1191324,/,1192004,/,1192683,/,1193363,/,1194042,/,1194722,/	t,t,t,t,t,t	<img class = center src='/static/experiments/beast_fmri_test/images/B.png'></img>	71,89	2750.0	test	<img class = center src='/static/experiments/beast_fmri_test/images/redB.png'></img>	stop	2150.0	2.0	34.0	stop	non-target	B	71,Index Finger	89,Middle Finger	550.0	600.0	2200.0	2150.0	0.0	0.0	600.0	n/a	go_stim
157653.18788950006	2150.0	n/a	727	89	2750	803.8121105	stim	stop-signal	464	1194055	0.0-19.34-1.34	beast_fmri_test	336	1191324,/,1192004,/,1192683,/,1193363,/,1194042,/,1194722,/	t,t,t,t,t,t	<img class = center src='/static/experiments/beast_fmri_test/images/B.png'></img>	71,89	2750.0	test	<img class = center src='/static/experiments/beast_fmri_test/images/redB.png'></img>	stop	2150.0	2.0	34.0	stop	non-target	B	71,Index Finger	89,Middle Finger	550.0	600.0	2200.0	2150.0	0.0	0.0	600.0	n/a	stop_stim
158253.18788950006	803.81211050000002	n/a	727	89	2750	803.8121105	stim	stop-signal	464	1194055	0.0-19.34-1.34	beast_fmri_test	336	1191324,/,1192004,/,1192683,/,1193363,/,1194042,/,1194722,/	t,t,t,t,t,t	<img class = center src='/static/experiments/beast_fmri_test/images/B.png'></img>	71,89	2750.0	test	<img class = center src='/static/experiments/beast_fmri_test/images/redB.png'></img>	stop	2150.0	2.0	34.0	stop	non-target	B	71,Index Finger	89,Middle Finger	550.0	600.0	2200.0	2150.0	0.0	0.0	600.0	n/a	ITI
160407	500	n/a	-1	-1	500	0.0	fixation	poldrack-single-stim	465	1195405	0.0-19.35-0.35	beast_fmri_test	336	1195403,/	t	<div class = centerbox2><div class = fixation>+</div></div>	none	500.0	test	n/a	n/a	n/a	n/a	n/a	n/a	n/a	n/a	n/a	n/a	n/a	n/a	n/a	n/a	n/a	n/a	n/a	n/a	fixation
155410.0	2750	n/a	916	89	2750	5000.0	stim	stop-signal	466	1198158	0.0-19.35-1.35	beast_fmri_test	336	1196082,/,1196762,/,1197441,/,1198119,/,1198801,/,1199480,/,1200160,/,1200840,/,1201520,/,1202198,/,1202879,/	t,t,t,t,t,t,t,t,t,t,t	<img class = center src='/static/experiments/beast_fmri_test/images/T.png'></img>	71,89	2750.0	test	<img class = center src='/static/experiments/beast_fmri_test/images/redT.png'></img>	go	2200.0	2.0	35.0	go	non-target	T	71,Index Finger	89,Middle Finger	550.0	550.0	2200.0	2200.0	1.0	n/a	550.0	1.0	go_stim
158160.0	5000.0	n/a	916	89	2750	5000.0	stim	stop-signal	466	1198158	0.0-19.35-1.35	beast_fmri_test	336	1196082,/,1196762,/,1197441,/,1198119,/,1198801,/,1199480,/,1200160,/,1200840,/,1201520,/,1202198,/,1202879,/	t,t,t,t,t,t,t,t,t,t,t	<img class = center src='/static/experiments/beast_fmri_test/images/T.png'></img>	71,89	2750.0	test	<img class = center src='/static/experiments/beast_fmri_test/images/redT.png'></img>	go	2200.0	2.0	35.0	go	non-target	T	71,Index Finger	89,Middle Finger	550.0	550.0	2200.0	2200.0	1.0	n/a	550.0	1.0	ITI
168709	500	n/a	-1	-1	500	0.0	fixation	poldrack-single-stim	467	1203707	0.0-19.36-0.36	beast_fmri_test	336	1203559,/	t	<div class = centerbox2><div class = fixation>+</div></div>	none	500.0	test	n/a	n/a	n/a	n/a	n/a	n/a	n/a	n/a	n/a	n/a	n/a	n/a	n/a	n/a	n/a	n/a	n/a	n/a	fixation
166591.90263299993	2750	n/a	869	71	2750	2119.097367	stim	stop-signal	468	1206459	0.0-19.36-1.36	beast_fmri_test	336	1204238,/,1204918,/,1205598,/,1206277,/,1206955,/,1207636,/,1208315,/	t,t,t,t,t,t,t	<img class = center src='/static/experiments/beast_fmri_test/images/B.png'></img>	71,89	2750.0	test	<img class = center src='/static/experiments/beast_fmri_test/images/redB.png'></img>	go	2200.0	2.0	36.0	go	target	B	71,Index Finger	89,Middle Finger	550.0	550.0	2200.0	2200.0	1.0	n/a	550.0	1.0	go_stim
169341.90263299993	2119.0973670000003	n/a	869	71	2750	2119.097367	stim	stop-signal	468	1206459	0.0-19.36-1.36	beast_fmri_test	336	1204238,/,1204918,/,1205598,/,1206277,/,1206955,/,1207636,/,1208315,/	t,t,t,t,t,t,t	<img class = center src='/static/experiments/beast_fmri_test/images/B.png'></img>	71,89	2750.0	test	<img class = center src='/static/experiments/beast_fmri_test/images/redB.png'></img>	go	2200.0	2.0	36.0	go	target	B	71,Index Finger	89,Middle Finger	550.0	550.0	2200.0	2200.0	1.0	n/a	550.0	1.0	ITI
174130	500	n/a	-1	-1	500	0.0	fixation	poldrack-single-stim	469	1209128	0.0-19.37-0.37	beast_fmri_test	336	1208996,/	t	<div class = centerbox2><div class = fixation>+</div></div>	none	500.0	test	n/a	n/a	n/a	n/a	n/a	n/a	n/a	n/a	n/a	n/a	n/a	n/a	n/a	n/a	n/a	n/a	n/a	n/a	fixation
174120.6978480299	2750	n/a	709	71	2750	11.30215197	stim	stop-signal	470	1211880	0.0-19.37-1.37	beast_fmri_test	336	1209676,/,1210355,/,1211034,/,1211713,/	t,t,t,t	<img class = center src='/static/experiments/beast_fmri_test/images/T.png'></img>	71,89	2750.0	test	<img class = center src='/static/experiments/beast_fmri_test/images/redT.png'></img>	go	2200.0	2.0	37.0	go	target	T	71,Index Finger	89,Middle Finger	550.0	550.0	2200.0	2200.0	1.0	n/a	550.0	1.0	go_stim
176870.6978480299	11.302151970000001	n/a	709	71	2750	11.30215197	stim	stop-signal	470	1211880	0.0-19.37-1.37	beast_fmri_test	336	1209676,/,1210355,/,1211034,/,1211713,/	t,t,t,t	<img class = center src='/static/experiments/beast_fmri_test/images/T.png'></img>	71,89	2750.0	test	<img class = center src='/static/experiments/beast_fmri_test/images/redT.png'></img>	go	2200.0	2.0	37.0	go	target	T	71,Index Finger	89,Middle Finger	550.0	550.0	2200.0	2200.0	1.0	n/a	550.0	1.0	ITI
177442	500	n/a	-1	-1	500	0.0	fixation	poldrack-single-stim	471	1212440	0.0-19.38-0.38	beast_fmri_test	336	1212393,/	t	<div class = centerbox2><div class = fixation>+</div></div>	none	500.0	test	n/a	n/a	n/a	n/a	n/a	n/a	n/a	n/a	n/a	n/a	n/a	n/a	n/a	n/a	n/a	n/a	n/a	n/a	fixation
176145.15553699993	2750	n/a	1323	71	2750	1299.844463	stim	stop-signal	472	1215193	0.0-19.38-1.38	beast_fmri_test	336	1213072,/,1213754,/,1214433,/,1215113,/,1215793,/,1216472,/	t,t,t,t,t,t	<img class = center src='/static/experiments/beast_fmri_test/images/B.png'></img>	71,89	2750.0	test	<img class = center src='/static/experiments/beast_fmri_test/images/redB.png'></img>	go	2200.0	2.0	38.0	go	target	B	71,Index Finger	89,Middle Finger	550.0	550.0	2200.0	2200.0	1.0	n/a	550.0	1.0	go_stim
178895.15553699993	1299.8444630000001	n/a	1323	71	2750	1299.844463	stim	stop-signal	472	1215193	0.0-19.38-1.38	beast_fmri_test	336	1213072,/,1213754,/,1214433,/,1215113,/,1215793,/,1216472,/	t,t,t,t,t,t	<img class = center src='/static/experiments/beast_fmri_test/images/B.png'></img>	71,89	2750.0	test	<img class = center src='/static/experiments/beast_fmri_test/images/redB.png'></img>	go	2200.0	2.0	38.0	go	target	B	71,Index Finger	89,Middle Finger	550.0	550.0	2200.0	2200.0	1.0	n/a	550.0	1.0	ITI
182040	500	n/a	-1	-1	500	0.0	fixation	poldrack-single-stim	473	1217038	0.0-19.39-0.39	beast_fmri_test	336	n/a	n/a	<div class = centerbox2><div class = fixation>+</div></div>	none	500.0	test	n/a	n/a	n/a	n/a	n/a	n/a	n/a	n/a	n/a	n/a	n/a	n/a	n/a	n/a	n/a	n/a	n/a	n/a	fixation
181640.34791900008	2750	n/a	609	71	2750	402.652081	stim	stop-signal	474	1219791	0.0-19.39-1.39	beast_fmri_test	336	1217152,/,1217832,/,1218511,/,1219191,/,1219870,/	t,t,t,t,t	<img class = center src='/static/experiments/beast_fmri_test/images/T.png'></img>	71,89	2750.0	test	<img class = center src='/static/experiments/beast_fmri_test/images/redT.png'></img>	go	2200.0	2.0	39.0	go	target	T	71,Index Finger	89,Middle Finger	550.0	550.0	2200.0	2200.0	1.0	n/a	550.0	1.0	go_stim
184390.34791900008	402.65208100000001	n/a	609	71	2750	402.652081	stim	stop-signal	474	1219791	0.0-19.39-1.39	beast_fmri_test	336	1217152,/,1217832,/,1218511,/,1219191,/,1219870,/	t,t,t,t,t	<img class = center src='/static/experiments/beast_fmri_test/images/T.png'></img>	71,89	2750.0	test	<img class = center src='/static/experiments/beast_fmri_test/images/redT.png'></img>	go	2200.0	2.0	39.0	go	target	T	71,Index Finger	89,Middle Finger	550.0	550.0	2200.0	2200.0	1.0	n/a	550.0	1.0	ITI
185742	500	n/a	-1	-1	500	0.0	fixation	poldrack-single-stim	475	1220740	0.0-19.40-0.40	beast_fmri_test	336	1220551,/	t	<div class = centerbox2><div class = fixation>+</div></div>	none	500.0	test	n/a	n/a	n/a	n/a	n/a	n/a	n/a	n/a	n/a	n/a	n/a	n/a	n/a	n/a	n/a	n/a	n/a	n/a	fixation
183765.41787800007	550.0	n/a	-1	-1	2750	1978.582122	stim	stop-signal	476	1223492	0.0-19.40-1.40	beast_fmri_test	336	1221231,/,1221909,/,1222591,/,1223270,/,1223948,/,1224628,/,1225307,/	t,t,t,t,t,t,t	<img class = center src='/static/experiments/beast_fmri_test/images/T.png'></img>	71,89	2750.0	test	<img class = center src='/static/experiments/beast_fmri_test/images/redT.png'></img>	stop	2200.0	2.0	40.0	stop	non-target	T	71,Index Finger	89,Middle Finger	550.0	550.0	2200.0	2200.0	0.0	1.0	550.0	n/a	go_stim
185965.41787800007	2200.0	n/a	-1	-1	2750	1978.582122	stim	stop-signal	476	1223492	0.0-19.40-1.40	beast_fmri_test	336	1221231,/,1221909,/,1222591,/,1223270,/,1223948,/,1224628,/,1225307,/	t,t,t,t,t,t,t	<img class = center src='/static/experiments/beast_fmri_test/images/T.png'></img>	71,89	2750.0	test	<img class = center src='/static/experiments/beast_fmri_test/images/redT.png'></img>	stop	2200.0	2.0	40.0	stop	non-target	T	71,Index Finger	89,Middle Finger	550.0	550.0	2200.0	2200.0	0.0	1.0	550.0	n/a	stop_stim
186515.41787800007	1978.5821219999998	n/a	-1	-1	2750	1978.582122	stim	stop-signal	476	1223492	0.0-19.40-1.40	beast_fmri_test	336	1221231,/,1221909,/,1222591,/,1223270,/,1223948,/,1224628,/,1225307,/	t,t,t,t,t,t,t	<img class = center src='/static/experiments/beast_fmri_test/images/T.png'></img>	71,89	2750.0	test	<img class = center src='/static/experiments/beast_fmri_test/images/redT.png'></img>	stop	2200.0	2.0	40.0	stop	non-target	T	71,Index Finger	89,Middle Finger	550.0	550.0	2200.0	2200.0	0.0	1.0	550.0	n/a	ITI
191022	500	n/a	-1	-1	500	0.0	fixation	poldrack-single-stim	477	1226020	0.0-19.41-0.41	beast_fmri_test	336	1225988,/	t	<div class = centerbox2><div class = fixation>+</div></div>	none	500.0	test	n/a	n/a	n/a	n/a	n/a	n/a	n/a	n/a	n/a	n/a	n/a	n/a	n/a	n/a	n/a	n/a	n/a	n/a	fixation
190989.47353184992	2750	n/a	662	89	2750	33.52646815	stim	stop-signal	478	1228771	0.0-19.41-1.41	beast_fmri_test	336	1226667,/,1227348,/,1228027,/,1228707,/	t,t,t,t	<img class = center src='/static/experiments/beast_fmri_test/images/B.png'></img>	71,89	2750.0	test	<img class = center src='/static/experiments/beast_fmri_test/images/redB.png'></img>	go	2150.0	2.0	41.0	go	non-target	B	71,Index Finger	89,Middle Finger	550.0	600.0	2200.0	2150.0	1.0	n/a	600.0	1.0	go_stim
193739.47353184992	33.526468149999999	n/a	662	89	2750	33.52646815	stim	stop-signal	478	1228771	0.0-19.41-1.41	beast_fmri_test	336	1226667,/,1227348,/,1228027,/,1228707,/	t,t,t,t	<img class = center src='/static/experiments/beast_fmri_test/images/B.png'></img>	71,89	2750.0	test	<img class = center src='/static/experiments/beast_fmri_test/images/redB.png'></img>	go	2150.0	2.0	41.0	go	non-target	B	71,Index Finger	89,Middle Finger	550.0	600.0	2200.0	2150.0	1.0	n/a	600.0	1.0	ITI
194354	500	n/a	-1	-1	500	0.0	fixation	poldrack-single-stim	479	1229352	0.0-19.42-0.42	beast_fmri_test	336	n/a	n/a	<div class = centerbox2><div class = fixation>+</div></div>	none	500.0	test	n/a	n/a	n/a	n/a	n/a	n/a	n/a	n/a	n/a	n/a	n/a	n/a	n/a	n/a	n/a	n/a	n/a	n/a	fixation
193667.7612222	2750	n/a	898	89	2750	688.2387778	stim	stop-signal	480	1232104	0.0-19.42-1.42	beast_fmri_test	336	1229385,/,1230066,/,1230746,/,1231425,/,1232106,/,1232785,/	t,t,t,t,t,t	<img class = center src='/static/experiments/beast_fmri_test/images/V.png'></img>	71,89	2750.0	test	<img class = center src='/static/experiments/beast_fmri_test/images/redV.png'></img>	go	2150.0	2.0	42.0	go	non-target	V	71,Index Finger	89,Middle Finger	550.0	600.0	2200.0	2150.0	1.0	n/a	600.0	1.0	go_stim
196417.7612222	688.23877779999998	n/a	898	89	2750	688.2387778	stim	stop-signal	480	1232104	0.0-19.42-1.42	beast_fmri_test	336	1229385,/,1230066,/,1230746,/,1231425,/,1232106,/,1232785,/	t,t,t,t,t,t	<img class = center src='/static/experiments/beast_fmri_test/images/V.png'></img>	71,89	2750.0	test	<img class = center src='/static/experiments/beast_fmri_test/images/redV.png'></img>	go	2150.0	2.0	42.0	go	non-target	V	71,Index Finger	89,Middle Finger	550.0	600.0	2200.0	2150.0	1.0	n/a	600.0	1.0	ITI
198343	500	n/a	-1	-1	500	0.0	fixation	poldrack-single-stim	481	1233341	0.0-19.43-0.43	beast_fmri_test	336	n/a	n/a	<div class = centerbox2><div class = fixation>+</div></div>	none	500.0	test	n/a	n/a	n/a	n/a	n/a	n/a	n/a	n/a	n/a	n/a	n/a	n/a	n/a	n/a	n/a	n/a	n/a	n/a	fixation
197491.19810930011	550.0	n/a	-1	-1	2750	852.8018907	stim	stop-signal	482	1236092	0.0-19.43-1.43	beast_fmri_test	336	1233465,/,1234145,/,1234824,/,1235504,/,1236183,/,1236863,/	t,t,t,t,t,t	<img class = center src='/static/experiments/beast_fmri_test/images/B.png'></img>	71,89	2750.0	test	<img class = center src='/static/experiments/beast_fmri_test/images/redB.png'></img>	stop	2200.0	2.0	43.0	stop	target	B	71,Index Finger	89,Middle Finger	550.0	600.0	2200.0	2150.0	0.0	1.0	550.0	n/a	go_stim
199691.19810930011	2200.0	n/a	-1	-1	2750	852.8018907	stim	stop-signal	482	1236092	0.0-19.43-1.43	beast_fmri_test	336	1233465,/,1234145,/,1234824,/,1235504,/,1236183,/,1236863,/	t,t,t,t,t,t	<img class = center src='/static/experiments/beast_fmri_test/images/B.png'></img>	71,89	2750.0	test	<img class = center src='/static/experiments/beast_fmri_test/images/redB.png'></img>	stop	2200.0	2.0	43.0	stop	target	B	71,Index Finger	89,Middle Finger	550.0	600.0	2200.0	2150.0	0.0	1.0	550.0	n/a	stop_stim
200241.19810930011	852.80189069999994	n/a	-1	-1	2750	852.8018907	stim	stop-signal	482	1236092	0.0-19.43-1.43	beast_fmri_test	336	1233465,/,1234145,/,1234824,/,1235504,/,1236183,/,1236863,/	t,t,t,t,t,t	<img class = center src='/static/experiments/beast_fmri_test/images/B.png'></img>	71,89	2750.0	test	<img class = center src='/static/experiments/beast_fmri_test/images/redB.png'></img>	stop	2200.0	2.0	43.0	stop	target	B	71,Index Finger	89,Middle Finger	550.0	600.0	2200.0	2150.0	0.0	1.0	550.0	n/a	ITI
202501	500	n/a	-1	-1	500	0.0	fixation	poldrack-single-stim	483	1237499	0.0-19.44-0.44	beast_fmri_test	336	n/a	n/a	<div class = centerbox2><div class = fixation>+</div></div>	none	500.0	test	n/a	n/a	n/a	n/a	n/a	n/a	n/a	n/a	n/a	n/a	n/a	n/a	n/a	n/a	n/a	n/a	n/a	n/a	fixation
202387.1504581999	2750	n/a	658	89	2750	115.8495418	stim	stop-signal	484	1240251	0.0-19.44-1.44	beast_fmri_test	336	1237542,/,1238221,/,1238902,/,1239581,/,1240260,/	t,t,t,t,t	<img class = center src='/static/experiments/beast_fmri_test/images/T.png'></img>	71,89	2750.0	test	<img class = center src='/static/experiments/beast_fmri_test/images/redT.png'></img>	go	2150.0	2.0	44.0	go	non-target	T	71,Index Finger	89,Middle Finger	600.0	600.0	2200.0	2150.0	1.0	n/a	600.0	1.0	go_stim
205137.1504581999	115.84954180000001	n/a	658	89	2750	115.8495418	stim	stop-signal	484	1240251	0.0-19.44-1.44	beast_fmri_test	336	1237542,/,1238221,/,1238902,/,1239581,/,1240260,/	t,t,t,t,t	<img class = center src='/static/experiments/beast_fmri_test/images/T.png'></img>	71,89	2750.0	test	<img class = center src='/static/experiments/beast_fmri_test/images/redT.png'></img>	go	2150.0	2.0	44.0	go	non-target	T	71,Index Finger	89,Middle Finger	600.0	600.0	2200.0	2150.0	1.0	n/a	600.0	1.0	ITI
205919	500	n/a	-1	-1	500	0.0	fixation	poldrack-single-stim	485	1240917	0.0-19.45-0.45	beast_fmri_test	336	n/a	n/a	<div class = centerbox2><div class = fixation>+</div></div>	none	500.0	test	n/a	n/a	n/a	n/a	n/a	n/a	n/a	n/a	n/a	n/a	n/a	n/a	n/a	n/a	n/a	n/a	n/a	n/a	fixation
205420.28446640004	600.0	n/a	-1	-1	2750	502.7155336	stim	stop-signal	486	1243671	0.0-19.45-1.45	beast_fmri_test	336	1240941,/,1241621,/,1242300,/,1242980,/,1243660,/	t,t,t,t,t	<img class = center src='/static/experiments/beast_fmri_test/images/B.png'></img>	71,89	2750.0	test	<img class = center src='/static/experiments/beast_fmri_test/images/redB.png'></img>	stop	2150.0	2.0	45.0	stop	target	B	71,Index Finger	89,Middle Finger	600.0	600.0	2150.0	2150.0	0.0	1.0	600.0	n/a	go_stim
207570.28446640004	2150.0	n/a	-1	-1	2750	502.7155336	stim	stop-signal	486	1243671	0.0-19.45-1.45	beast_fmri_test	336	1240941,/,1241621,/,1242300,/,1242980,/,1243660,/	t,t,t,t,t	<img class = center src='/static/experiments/beast_fmri_test/images/B.png'></img>	71,89	2750.0	test	<img class = center src='/static/experiments/beast_fmri_test/images/redB.png'></img>	stop	2150.0	2.0	45.0	stop	target	B	71,Index Finger	89,Middle Finger	600.0	600.0	2150.0	2150.0	0.0	1.0	600.0	n/a	stop_stim
208170.28446640004	502.71553360000001	n/a	-1	-1	2750	502.7155336	stim	stop-signal	486	1243671	0.0-19.45-1.45	beast_fmri_test	336	1240941,/,1241621,/,1242300,/,1242980,/,1243660,/	t,t,t,t,t	<img class = center src='/static/experiments/beast_fmri_test/images/B.png'></img>	71,89	2750.0	test	<img class = center src='/static/experiments/beast_fmri_test/images/redB.png'></img>	stop	2150.0	2.0	45.0	stop	target	B	71,Index Finger	89,Middle Finger	600.0	600.0	2150.0	2150.0	0.0	1.0	600.0	n/a	ITI
209730	500	n/a	-1	-1	500	0.0	fixation	poldrack-single-stim	487	1244728	0.0-19.46-0.46	beast_fmri_test	336	1244340,/	t	<div class = centerbox2><div class = fixation>+</div></div>	none	500.0	test	n/a	n/a	n/a	n/a	n/a	n/a	n/a	n/a	n/a	n/a	n/a	n/a	n/a	n/a	n/a	n/a	n/a	n/a	fixation
209188.0030727	2750	n/a	824	89	2750	542.9969273	stim	stop-signal	488	1247479	0.0-19.46-1.46	beast_fmri_test	336	1245019,/,1245698,/,1246379,/,1247058,/,1247738,/	t,t,t,t,t	<img class = center src='/static/experiments/beast_fmri_test/images/B.png'></img>	71,89	2750.0	test	<img class = center src='/static/experiments/beast_fmri_test/images/redB.png'></img>	go	2150.0	2.0	46.0	go	non-target	B	71,Index Finger	89,Middle Finger	650.0	600.0	2150.0	2150.0	1.0	n/a	600.0	1.0	go_stim
211938.0030727	542.99692729999992	n/a	824	89	2750	542.9969273	stim	stop-signal	488	1247479	0.0-19.46-1.46	beast_fmri_test	336	1245019,/,1245698,/,1246379,/,1247058,/,1247738,/	t,t,t,t,t	<img class = center src='/static/experiments/beast_fmri_test/images/B.png'></img>	71,89	2750.0	test	<img class = center src='/static/experiments/beast_fmri_test/images/redB.png'></img>	go	2150.0	2.0	46.0	go	non-target	B	71,Index Finger	89,Middle Finger	650.0	600.0	2150.0	2150.0	1.0	n/a	600.0	1.0	ITI
228071	15000	n/a	-1	-1	15000	0.0	practice-no-stop-feedback	poldrack-single-stim	489	1263069	0.0-20.0	beast_fmri_test	336	1248419,/,1249097,/,1249778,/,1250458,/,1251137,/,1251817,/,1252496,/,1253175,/,1253855,/,1254534,/,1255215,/,1255895,/,1256574,/,1257254,/,1257934,/,1258613,/,1259292,/,1259973,/,1260653,/,1261332,/,1262012,/,1262692,/	t,t,t,t,t,t,t,t,t,t,t,t,t,t,t,t,t,t,t,t,t,t	"<div class = ""centerbox""><p class = ""block-text"">Your delay is 3 trials.</p><p class = block-text>Please wait for the scanner to start the block</p></div>"	77	15000.0	n/a	n/a	n/a	n/a	n/a	n/a	n/a	n/a	n/a	n/a	n/a	n/a	n/a	n/a	n/a	n/a	n/a	n/a	n/a	practice-no-stop-feedback
228574	500	n/a	-1	-1	500	0.0	fixation	poldrack-single-stim	490	1263572	0.0-21.0-0.0	beast_fmri_test	336	1263370,/	t	<div class = centerbox2><div class = fixation>+</div></div>	none	500.0	test	n/a	n/a	n/a	n/a	n/a	n/a	n/a	n/a	n/a	n/a	n/a	n/a	n/a	n/a	n/a	n/a	n/a	n/a	fixation
228258.52347779996	2750	n/a	851	89	2750	317.4765222	stim	stop-signal	491	1266324	0.0-21.0-1.0	beast_fmri_test	336	1264050,/,1264731,/,1265410,/,1266089,/	t,t,t,t	<img class = center src='/static/experiments/beast_fmri_test/images/T.png'></img>	71,89	2750.0	test	<img class = center src='/static/experiments/beast_fmri_test/images/redT.png'></img>	go	-1.0	3.0	0.0	go	temp-non-target	T	71,Index Finger	89,Middle Finger	650.0	600.0	2150.0	2150.0	0.0	n/a	n/a	n/a	go_stim
231008.52347779996	317.47652220000003	n/a	851	89	2750	317.4765222	stim	stop-signal	491	1266324	0.0-21.0-1.0	beast_fmri_test	336	1264050,/,1264731,/,1265410,/,1266089,/	t,t,t,t	<img class = center src='/static/experiments/beast_fmri_test/images/T.png'></img>	71,89	2750.0	test	<img class = center src='/static/experiments/beast_fmri_test/images/redT.png'></img>	go	-1.0	3.0	0.0	go	temp-non-target	T	71,Index Finger	89,Middle Finger	650.0	600.0	2150.0	2150.0	0.0	n/a	n/a	n/a	ITI
232194	500	n/a	-1	-1	500	0.0	fixation	poldrack-single-stim	492	1267192	0.0-21.1-0.1	beast_fmri_test	336	1266770,/	t	<div class = centerbox2><div class = fixation>+</div></div>	none	500.0	test	n/a	n/a	n/a	n/a	n/a	n/a	n/a	n/a	n/a	n/a	n/a	n/a	n/a	n/a	n/a	n/a	n/a	n/a	fixation
229880.430345	2750	n/a	400	89	2750	2314.569655	stim	stop-signal	493	1269943	0.0-21.1-1.1	beast_fmri_test	336	1267449,/,1268128,/,1268808,/,1269488,/,1270168,/,1270847,/,1271527,/,1272206,/	t,t,t,t,t,t,t,t	<img class = center src='/static/experiments/beast_fmri_test/images/T.png'></img>	71,89	2750.0	test	<img class = center src='/static/experiments/beast_fmri_test/images/redT.png'></img>	go	-1.0	3.0	1.0	go	temp-non-target	T	71,Index Finger	89,Middle Finger	650.0	600.0	2150.0	2150.0	0.0	n/a	n/a	n/a	go_stim
232630.430345	2314.5696550000002	n/a	400	89	2750	2314.569655	stim	stop-signal	493	1269943	0.0-21.1-1.1	beast_fmri_test	336	1267449,/,1268128,/,1268808,/,1269488,/,1270168,/,1270847,/,1271527,/,1272206,/	t,t,t,t,t,t,t,t	<img class = center src='/static/experiments/beast_fmri_test/images/T.png'></img>	71,89	2750.0	test	<img class = center src='/static/experiments/beast_fmri_test/images/redT.png'></img>	go	-1.0	3.0	1.0	go	temp-non-target	T	71,Index Finger	89,Middle Finger	650.0	600.0	2150.0	2150.0	0.0	n/a	n/a	n/a	ITI
237810	500	n/a	-1	-1	500	0.0	fixation	poldrack-single-stim	494	1272808	0.0-21.2-0.2	beast_fmri_test	336	n/a	n/a	<div class = centerbox2><div class = fixation>+</div></div>	none	500.0	test	n/a	n/a	n/a	n/a	n/a	n/a	n/a	n/a	n/a	n/a	n/a	n/a	n/a	n/a	n/a	n/a	n/a	n/a	fixation
236497.01932700002	2750	n/a	513	89	2750	1314.980673	stim	stop-signal	495	1275560	0.0-21.2-1.2	beast_fmri_test	336	1272885,/,1273564,/,1274246,/,1274924,/,1275605,/,1276284,/	t,t,t,t,t,t	<img class = center src='/static/experiments/beast_fmri_test/images/P.png'></img>	71,89	2750.0	test	<img class = center src='/static/experiments/beast_fmri_test/images/redP.png'></img>	go	-1.0	3.0	2.0	go	temp-non-target	P	71,Index Finger	89,Middle Finger	650.0	600.0	2150.0	2150.0	0.0	n/a	n/a	n/a	go_stim
239247.01932700002	1314.980673	n/a	513	89	2750	1314.980673	stim	stop-signal	495	1275560	0.0-21.2-1.2	beast_fmri_test	336	1272885,/,1273564,/,1274246,/,1274924,/,1275605,/,1276284,/	t,t,t,t,t,t	<img class = center src='/static/experiments/beast_fmri_test/images/P.png'></img>	71,89	2750.0	test	<img class = center src='/static/experiments/beast_fmri_test/images/redP.png'></img>	go	-1.0	3.0	2.0	go	temp-non-target	P	71,Index Finger	89,Middle Finger	650.0	600.0	2150.0	2150.0	0.0	n/a	n/a	n/a	ITI
242428	500	n/a	-1	-1	500	0.0	fixation	poldrack-single-stim	496	1277426	0.0-21.3-0.3	beast_fmri_test	336	1276964,/	t	<div class = centerbox2><div class = fixation>+</div></div>	none	500.0	test	n/a	n/a	n/a	n/a	n/a	n/a	n/a	n/a	n/a	n/a	n/a	n/a	n/a	n/a	n/a	n/a	n/a	n/a	fixation
241320.94004000002	2750	n/a	644	89	2750	1109.05996	stim	stop-signal	497	1280178	0.0-21.3-1.3	beast_fmri_test	336	1277644,/,1278325,/,1279004,/,1279684,/,1280364,/,1281043,/	t,t,t,t,t,t	<img class = center src='/static/experiments/beast_fmri_test/images/D.png'></img>	71,89	2750.0	test	<img class = center src='/static/experiments/beast_fmri_test/images/redD.png'></img>	go	2150.0	3.0	3.0	go	non-target	D	71,Index Finger	89,Middle Finger	650.0	600.0	2150.0	2150.0	1.0	n/a	600.0	1.0	go_stim
244070.94004000002	1109.05996	n/a	644	89	2750	1109.05996	stim	stop-signal	497	1280178	0.0-21.3-1.3	beast_fmri_test	336	1277644,/,1278325,/,1279004,/,1279684,/,1280364,/,1281043,/	t,t,t,t,t,t	<img class = center src='/static/experiments/beast_fmri_test/images/D.png'></img>	71,89	2750.0	test	<img class = center src='/static/experiments/beast_fmri_test/images/redD.png'></img>	go	2150.0	3.0	3.0	go	non-target	D	71,Index Finger	89,Middle Finger	650.0	600.0	2150.0	2150.0	1.0	n/a	600.0	1.0	ITI
246841	500	n/a	-1	-1	500	0.0	fixation	poldrack-single-stim	498	1281839	0.0-21.4-0.4	beast_fmri_test	336	1281723,/	t	<div class = centerbox2><div class = fixation>+</div></div>	none	500.0	test	n/a	n/a	n/a	n/a	n/a	n/a	n/a	n/a	n/a	n/a	n/a	n/a	n/a	n/a	n/a	n/a	n/a	n/a	fixation
246462.05603950005	2750	n/a	720	71	2750	381.9439605	stim	stop-signal	499	1284592	0.0-21.4-1.4	beast_fmri_test	336	1282402,/,1283081,/,1283762,/,1284441,/	t,t,t,t	<img class = center src='/static/experiments/beast_fmri_test/images/T.png'></img>	71,89	2750.0	test	<img class = center src='/static/experiments/beast_fmri_test/images/redT.png'></img>	go	2100.0	3.0	4.0	go	target	T	71,Index Finger	89,Middle Finger	650.0	600.0	2100.0	2150.0	1.0	n/a	650.0	1.0	go_stim
249212.05603950005	381.9439605	n/a	720	71	2750	381.9439605	stim	stop-signal	499	1284592	0.0-21.4-1.4	beast_fmri_test	336	1282402,/,1283081,/,1283762,/,1284441,/	t,t,t,t	<img class = center src='/static/experiments/beast_fmri_test/images/T.png'></img>	71,89	2750.0	test	<img class = center src='/static/experiments/beast_fmri_test/images/redT.png'></img>	go	2100.0	3.0	4.0	go	target	T	71,Index Finger	89,Middle Finger	650.0	600.0	2100.0	2150.0	1.0	n/a	650.0	1.0	ITI
250530	500	n/a	-1	-1	500	0.0	fixation	poldrack-single-stim	500	1285528	0.0-21.5-0.5	beast_fmri_test	336	1285121,/	t	<div class = centerbox2><div class = fixation>+</div></div>	none	500.0	test	n/a	n/a	n/a	n/a	n/a	n/a	n/a	n/a	n/a	n/a	n/a	n/a	n/a	n/a	n/a	n/a	n/a	n/a	fixation
246954.69452499994	2750	n/a	1426	71	2750	3577.305475	stim	stop-signal	501	1288280	0.0-21.5-1.5	beast_fmri_test	336	1285801,/,1286480,/,1287159,/,1287839,/,1288520,/,1289199,/,1289879,/,1290558,/,1291237,/	t,t,t,t,t,t,t,t,t	<img class = center src='/static/experiments/beast_fmri_test/images/P.png'></img>	71,89	2750.0	test	<img class = center src='/static/experiments/beast_fmri_test/images/redP.png'></img>	go	2100.0	3.0	5.0	go	target	P	71,Index Finger	89,Middle Finger	650.0	600.0	2100.0	2150.0	1.0	n/a	650.0	1.0	go_stim
249704.69452499994	3577.3054750000001	n/a	1426	71	2750	3577.305475	stim	stop-signal	501	1288280	0.0-21.5-1.5	beast_fmri_test	336	1285801,/,1286480,/,1287159,/,1287839,/,1288520,/,1289199,/,1289879,/,1290558,/,1291237,/	t,t,t,t,t,t,t,t,t	<img class = center src='/static/experiments/beast_fmri_test/images/P.png'></img>	71,89	2750.0	test	<img class = center src='/static/experiments/beast_fmri_test/images/redP.png'></img>	go	2100.0	3.0	5.0	go	target	P	71,Index Finger	89,Middle Finger	650.0	600.0	2100.0	2150.0	1.0	n/a	650.0	1.0	ITI
257413	500	n/a	-1	-1	500	0.0	fixation	poldrack-single-stim	502	1292411	0.0-21.6-0.6	beast_fmri_test	336	1291916,/	t	<div class = centerbox2><div class = fixation>+</div></div>	none	500.0	test	n/a	n/a	n/a	n/a	n/a	n/a	n/a	n/a	n/a	n/a	n/a	n/a	n/a	n/a	n/a	n/a	n/a	n/a	fixation
257337.17298133997	2750	n/a	527	71	2750	77.82701866	stim	stop-signal	503	1295163	0.0-21.6-1.6	beast_fmri_test	336	1292598,/,1293277,/,1293957,/,1294637,/	t,t,t,t	<img class = center src='/static/experiments/beast_fmri_test/images/D.png'></img>	71,89	2750.0	test	<img class = center src='/static/experiments/beast_fmri_test/images/redD.png'></img>	go	2100.0	3.0	6.0	go	target	D	71,Index Finger	89,Middle Finger	650.0	600.0	2100.0	2150.0	1.0	n/a	650.0	1.0	go_stim
260087.17298133997	77.827018659999993	n/a	527	71	2750	77.82701866	stim	stop-signal	503	1295163	0.0-21.6-1.6	beast_fmri_test	336	1292598,/,1293277,/,1293957,/,1294637,/	t,t,t,t	<img class = center src='/static/experiments/beast_fmri_test/images/D.png'></img>	71,89	2750.0	test	<img class = center src='/static/experiments/beast_fmri_test/images/redD.png'></img>	go	2100.0	3.0	6.0	go	target	D	71,Index Finger	89,Middle Finger	650.0	600.0	2100.0	2150.0	1.0	n/a	650.0	1.0	ITI
260793	500	n/a	-1	-1	500	0.0	fixation	poldrack-single-stim	504	1295791	0.0-21.7-0.7	beast_fmri_test	336	1295316,/	t	<div class = centerbox2><div class = fixation>+</div></div>	none	500.0	test	n/a	n/a	n/a	n/a	n/a	n/a	n/a	n/a	n/a	n/a	n/a	n/a	n/a	n/a	n/a	n/a	n/a	n/a	fixation
260271.07325839996	600.0	n/a	-1	-1	2750	523.9267416	stim	stop-signal	505	1298543	0.0-21.7-1.7	beast_fmri_test	336	1295995,/,1296675,/,1297355,/,1298035,/,1298714,/	t,t,t,t,t	<img class = center src='/static/experiments/beast_fmri_test/images/P.png'></img>	71,89	2750.0	test	<img class = center src='/static/experiments/beast_fmri_test/images/redP.png'></img>	stop	2150.0	3.0	7.0	stop	non-target	P	71,Index Finger	89,Middle Finger	650.0	600.0	2100.0	2150.0	0.0	1.0	600.0	n/a	go_stim
262421.07325839996	2150.0	n/a	-1	-1	2750	523.9267416	stim	stop-signal	505	1298543	0.0-21.7-1.7	beast_fmri_test	336	1295995,/,1296675,/,1297355,/,1298035,/,1298714,/	t,t,t,t,t	<img class = center src='/static/experiments/beast_fmri_test/images/P.png'></img>	71,89	2750.0	test	<img class = center src='/static/experiments/beast_fmri_test/images/redP.png'></img>	stop	2150.0	3.0	7.0	stop	non-target	P	71,Index Finger	89,Middle Finger	650.0	600.0	2100.0	2150.0	0.0	1.0	600.0	n/a	stop_stim
263021.07325839996	523.92674160000001	n/a	-1	-1	2750	523.9267416	stim	stop-signal	505	1298543	0.0-21.7-1.7	beast_fmri_test	336	1295995,/,1296675,/,1297355,/,1298035,/,1298714,/	t,t,t,t,t	<img class = center src='/static/experiments/beast_fmri_test/images/P.png'></img>	71,89	2750.0	test	<img class = center src='/static/experiments/beast_fmri_test/images/redP.png'></img>	stop	2150.0	3.0	7.0	stop	non-target	P	71,Index Finger	89,Middle Finger	650.0	600.0	2100.0	2150.0	0.0	1.0	600.0	n/a	ITI
264621	500	n/a	-1	-1	500	0.0	fixation	poldrack-single-stim	506	1299619	0.0-21.8-0.8	beast_fmri_test	336	1299393,/	t	<div class = centerbox2><div class = fixation>+</div></div>	none	500.0	test	n/a	n/a	n/a	n/a	n/a	n/a	n/a	n/a	n/a	n/a	n/a	n/a	n/a	n/a	n/a	n/a	n/a	n/a	fixation
264104.88623220008	2750	n/a	1020	89	2750	517.1137678	stim	stop-signal	507	1302370	0.0-21.8-1.8	beast_fmri_test	336	1300074,/,1300752,/,1301432,/,1302112,/,1302791,/	t,t,t,t,t	<img class = center src='/static/experiments/beast_fmri_test/images/B.png'></img>	71,89	2750.0	test	<img class = center src='/static/experiments/beast_fmri_test/images/redB.png'></img>	go	2100.0	3.0	8.0	go	non-target	B	71,Index Finger	89,Middle Finger	650.0	650.0	2100.0	2100.0	1.0	n/a	650.0	1.0	go_stim
266854.88623220008	517.11376780000001	n/a	1020	89	2750	517.1137678	stim	stop-signal	507	1302370	0.0-21.8-1.8	beast_fmri_test	336	1300074,/,1300752,/,1301432,/,1302112,/,1302791,/	t,t,t,t,t	<img class = center src='/static/experiments/beast_fmri_test/images/B.png'></img>	71,89	2750.0	test	<img class = center src='/static/experiments/beast_fmri_test/images/redB.png'></img>	go	2100.0	3.0	8.0	go	non-target	B	71,Index Finger	89,Middle Finger	650.0	650.0	2100.0	2100.0	1.0	n/a	650.0	1.0	ITI
268438	500	n/a	-1	-1	500	0.0	fixation	poldrack-single-stim	508	1303436	0.0-21.9-0.9	beast_fmri_test	336	n/a	n/a	<div class = centerbox2><div class = fixation>+</div></div>	none	500.0	test	n/a	n/a	n/a	n/a	n/a	n/a	n/a	n/a	n/a	n/a	n/a	n/a	n/a	n/a	n/a	n/a	n/a	n/a	fixation
267798.20593880001	2750	n/a	1077	89	2750	641.7940612	stim	stop-signal	509	1306188	0.0-21.9-1.9	beast_fmri_test	336	1303471,/,1304152,/,1304830,/,1305511,/,1306190,/	t,t,t,t,t	<img class = center src='/static/experiments/beast_fmri_test/images/B.png'></img>	71,89	2750.0	test	<img class = center src='/static/experiments/beast_fmri_test/images/redB.png'></img>	go	2100.0	3.0	9.0	go	non-target	B	71,Index Finger	89,Middle Finger	650.0	650.0	2100.0	2100.0	1.0	n/a	650.0	1.0	go_stim
270548.20593880001	641.7940612000001	n/a	1077	89	2750	641.7940612	stim	stop-signal	509	1306188	0.0-21.9-1.9	beast_fmri_test	336	1303471,/,1304152,/,1304830,/,1305511,/,1306190,/	t,t,t,t,t	<img class = center src='/static/experiments/beast_fmri_test/images/B.png'></img>	71,89	2750.0	test	<img class = center src='/static/experiments/beast_fmri_test/images/redB.png'></img>	go	2100.0	3.0	9.0	go	non-target	B	71,Index Finger	89,Middle Finger	650.0	650.0	2100.0	2100.0	1.0	n/a	650.0	1.0	ITI
272382	500	n/a	-1	-1	500	0.0	fixation	poldrack-single-stim	510	1307380	0.0-21.10-0.10	beast_fmri_test	336	1306878,/	t	<div class = centerbox2><div class = fixation>+</div></div>	none	500.0	test	n/a	n/a	n/a	n/a	n/a	n/a	n/a	n/a	n/a	n/a	n/a	n/a	n/a	n/a	n/a	n/a	n/a	n/a	fixation
269927.91763500008	2750	n/a	819	71	2750	2456.082365	stim	stop-signal	511	1310132	0.0-21.10-1.10	beast_fmri_test	336	1307549,/,1308231,/,1308910,/,1309590,/,1310269,/,1310949,/,1311629,/,1312309,/	t,t,t,t,t,t,t,t	<img class = center src='/static/experiments/beast_fmri_test/images/D.png'></img>	71,89	2750.0	test	<img class = center src='/static/experiments/beast_fmri_test/images/redD.png'></img>	go	2100.0	3.0	10.0	go	non-target	D	71,Index Finger	89,Middle Finger	650.0	650.0	2100.0	2100.0	0.0	n/a	650.0	0.0	go_stim
272677.91763500008	2456.0823649999998	n/a	819	71	2750	2456.082365	stim	stop-signal	511	1310132	0.0-21.10-1.10	beast_fmri_test	336	1307549,/,1308231,/,1308910,/,1309590,/,1310269,/,1310949,/,1311629,/,1312309,/	t,t,t,t,t,t,t,t	<img class = center src='/static/experiments/beast_fmri_test/images/D.png'></img>	71,89	2750.0	test	<img class = center src='/static/experiments/beast_fmri_test/images/redD.png'></img>	go	2100.0	3.0	10.0	go	non-target	D	71,Index Finger	89,Middle Finger	650.0	650.0	2100.0	2100.0	0.0	n/a	650.0	0.0	ITI
278144	500	n/a	-1	-1	500	0.0	fixation	poldrack-single-stim	512	1313142	0.0-21.11-0.11	beast_fmri_test	336	1312989,/	t	<div class = centerbox2><div class = fixation>+</div></div>	none	500.0	test	n/a	n/a	n/a	n/a	n/a	n/a	n/a	n/a	n/a	n/a	n/a	n/a	n/a	n/a	n/a	n/a	n/a	n/a	fixation
277809.40588190011	2750	n/a	833	89	2750	337.5941181	stim	stop-signal	513	1315895	0.0-21.11-1.11	beast_fmri_test	336	1313669,/,1314348,/,1315027,/,1315707,/	t,t,t,t	<img class = center src='/static/experiments/beast_fmri_test/images/T.png'></img>	71,89	2750.0	test	<img class = center src='/static/experiments/beast_fmri_test/images/redT.png'></img>	go	2100.0	3.0	11.0	go	non-target	T	71,Index Finger	89,Middle Finger	650.0	650.0	2100.0	2100.0	1.0	n/a	650.0	1.0	go_stim
280559.40588190011	337.59411810000006	n/a	833	89	2750	337.5941181	stim	stop-signal	513	1315895	0.0-21.11-1.11	beast_fmri_test	336	1313669,/,1314348,/,1315027,/,1315707,/	t,t,t,t	<img class = center src='/static/experiments/beast_fmri_test/images/T.png'></img>	71,89	2750.0	test	<img class = center src='/static/experiments/beast_fmri_test/images/redT.png'></img>	go	2100.0	3.0	11.0	go	non-target	T	71,Index Finger	89,Middle Finger	650.0	650.0	2100.0	2100.0	1.0	n/a	650.0	1.0	ITI
281787	500	n/a	-1	-1	500	0.0	fixation	poldrack-single-stim	514	1316785	0.0-21.12-0.12	beast_fmri_test	336	1316387,/	t	<div class = centerbox2><div class = fixation>+</div></div>	none	500.0	test	n/a	n/a	n/a	n/a	n/a	n/a	n/a	n/a	n/a	n/a	n/a	n/a	n/a	n/a	n/a	n/a	n/a	n/a	fixation
281304.4103621	2750	n/a	755	89	2750	485.5896379	stim	stop-signal	515	1319538	0.0-21.12-1.12	beast_fmri_test	336	1317067,/,1317747,/,1318425,/,1319105,/,1319785,/	t,t,t,t,t	<img class = center src='/static/experiments/beast_fmri_test/images/V.png'></img>	71,89	2750.0	test	<img class = center src='/static/experiments/beast_fmri_test/images/redV.png'></img>	go	2100.0	3.0	12.0	go	non-target	V	71,Index Finger	89,Middle Finger	650.0	650.0	2100.0	2100.0	1.0	n/a	650.0	1.0	go_stim
284054.4103621	485.58963789999996	n/a	755	89	2750	485.5896379	stim	stop-signal	515	1319538	0.0-21.12-1.12	beast_fmri_test	336	1317067,/,1317747,/,1318425,/,1319105,/,1319785,/	t,t,t,t,t	<img class = center src='/static/experiments/beast_fmri_test/images/V.png'></img>	71,89	2750.0	test	<img class = center src='/static/experiments/beast_fmri_test/images/redV.png'></img>	go	2100.0	3.0	12.0	go	non-target	V	71,Index Finger	89,Middle Finger	650.0	650.0	2100.0	2100.0	1.0	n/a	650.0	1.0	ITI
285582	500	n/a	-1	-1	500	0.0	fixation	poldrack-single-stim	516	1320580	0.0-21.13-0.13	beast_fmri_test	336	1320465,/	t	<div class = centerbox2><div class = fixation>+</div></div>	none	500.0	test	n/a	n/a	n/a	n/a	n/a	n/a	n/a	n/a	n/a	n/a	n/a	n/a	n/a	n/a	n/a	n/a	n/a	n/a	fixation
284188.192729	650.0	n/a	827	89	2750	1395.807271	stim	stop-signal	517	1323332	0.0-21.13-1.13	beast_fmri_test	336	1321145,/,1321823,/,1322503,/,1323183,/,1323863,/,1324543,/	t,t,t,t,t,t	<img class = center src='/static/experiments/beast_fmri_test/images/V.png'></img>	71,89	2750.0	test	<img class = center src='/static/experiments/beast_fmri_test/images/redV.png'></img>	stop	2100.0	3.0	13.0	stop	non-target	V	71,Index Finger	89,Middle Finger	650.0	650.0	2100.0	2100.0	0.0	0.0	650.0	n/a	go_stim
286288.192729	2100.0	n/a	827	89	2750	1395.807271	stim	stop-signal	517	1323332	0.0-21.13-1.13	beast_fmri_test	336	1321145,/,1321823,/,1322503,/,1323183,/,1323863,/,1324543,/	t,t,t,t,t,t	<img class = center src='/static/experiments/beast_fmri_test/images/V.png'></img>	71,89	2750.0	test	<img class = center src='/static/experiments/beast_fmri_test/images/redV.png'></img>	stop	2100.0	3.0	13.0	stop	non-target	V	71,Index Finger	89,Middle Finger	650.0	650.0	2100.0	2100.0	0.0	0.0	650.0	n/a	stop_stim
286938.192729	1395.8072710000001	n/a	827	89	2750	1395.807271	stim	stop-signal	517	1323332	0.0-21.13-1.13	beast_fmri_test	336	1321145,/,1321823,/,1322503,/,1323183,/,1323863,/,1324543,/	t,t,t,t,t,t	<img class = center src='/static/experiments/beast_fmri_test/images/V.png'></img>	71,89	2750.0	test	<img class = center src='/static/experiments/beast_fmri_test/images/redV.png'></img>	stop	2100.0	3.0	13.0	stop	non-target	V	71,Index Finger	89,Middle Finger	650.0	650.0	2100.0	2100.0	0.0	0.0	650.0	n/a	ITI
290290	500	n/a	-1	-1	500	0.0	fixation	poldrack-single-stim	518	1325288	0.0-21.14-0.14	beast_fmri_test	336	1325223,/	t	<div class = centerbox2><div class = fixation>+</div></div>	none	500.0	test	n/a	n/a	n/a	n/a	n/a	n/a	n/a	n/a	n/a	n/a	n/a	n/a	n/a	n/a	n/a	n/a	n/a	n/a	fixation
285307.74154100008	2750	n/a	698	89	2750	4984.258459	stim	stop-signal	519	1328040	0.0-21.14-1.14	beast_fmri_test	336	1325903,/,1326582,/,1327262,/,1327941,/,1328621,/,1329300,/,1329980,/,1330660,/,1331340,/,1332019,/,1332699,/	t,t,t,t,t,t,t,t,t,t,t	<img class = center src='/static/experiments/beast_fmri_test/images/P.png'></img>	71,89	2750.0	test	<img class = center src='/static/experiments/beast_fmri_test/images/redP.png'></img>	go	2150.0	3.0	14.0	go	non-target	P	71,Index Finger	89,Middle Finger	650.0	600.0	2100.0	2150.0	1.0	n/a	600.0	1.0	go_stim
288057.74154100008	4984.2584590000006	n/a	698	89	2750	4984.258459	stim	stop-signal	519	1328040	0.0-21.14-1.14	beast_fmri_test	336	1325903,/,1326582,/,1327262,/,1327941,/,1328621,/,1329300,/,1329980,/,1330660,/,1331340,/,1332019,/,1332699,/	t,t,t,t,t,t,t,t,t,t,t	<img class = center src='/static/experiments/beast_fmri_test/images/P.png'></img>	71,89	2750.0	test	<img class = center src='/static/experiments/beast_fmri_test/images/redP.png'></img>	go	2150.0	3.0	14.0	go	non-target	P	71,Index Finger	89,Middle Finger	650.0	600.0	2100.0	2150.0	1.0	n/a	600.0	1.0	ITI
298583	500	n/a	-1	-1	500	0.0	fixation	poldrack-single-stim	520	1333581	0.0-21.15-0.15	beast_fmri_test	336	1333379,/	t	<div class = centerbox2><div class = fixation>+</div></div>	none	500.0	test	n/a	n/a	n/a	n/a	n/a	n/a	n/a	n/a	n/a	n/a	n/a	n/a	n/a	n/a	n/a	n/a	n/a	n/a	fixation
298162.61299069994	2750	n/a	570	89	2750	422.3870093	stim	stop-signal	521	1336333	0.0-21.15-1.15	beast_fmri_test	336	1334057,/,1334739,/,1335418,/,1336097,/	t,t,t,t	<img class = center src='/static/experiments/beast_fmri_test/images/P.png'></img>	71,89	2750.0	test	<img class = center src='/static/experiments/beast_fmri_test/images/redP.png'></img>	go	2150.0	3.0	15.0	go	non-target	P	71,Index Finger	89,Middle Finger	650.0	600.0	2100.0	2150.0	1.0	n/a	600.0	1.0	go_stim
300912.61299069994	422.38700930000005	n/a	570	89	2750	422.3870093	stim	stop-signal	521	1336333	0.0-21.15-1.15	beast_fmri_test	336	1334057,/,1334739,/,1335418,/,1336097,/	t,t,t,t	<img class = center src='/static/experiments/beast_fmri_test/images/P.png'></img>	71,89	2750.0	test	<img class = center src='/static/experiments/beast_fmri_test/images/redP.png'></img>	go	2150.0	3.0	15.0	go	non-target	P	71,Index Finger	89,Middle Finger	650.0	600.0	2100.0	2150.0	1.0	n/a	600.0	1.0	ITI
302315	500	n/a	-1	-1	500	0.0	fixation	poldrack-single-stim	522	1337313	0.0-21.16-0.16	beast_fmri_test	336	1336812,/	t	<div class = centerbox2><div class = fixation>+</div></div>	none	500.0	test	n/a	n/a	n/a	n/a	n/a	n/a	n/a	n/a	n/a	n/a	n/a	n/a	n/a	n/a	n/a	n/a	n/a	n/a	fixation
302011.55988480011	600.0	n/a	-1	-1	2750	306.4401152	stim	stop-signal	523	1340066	0.0-21.16-1.16	beast_fmri_test	336	1337457,/,1338137,/,1338816,/,1339497,/,1340175,/	t,t,t,t,t	<img class = center src='/static/experiments/beast_fmri_test/images/P.png'></img>	71,89	2750.0	test	<img class = center src='/static/experiments/beast_fmri_test/images/redP.png'></img>	stop	2150.0	3.0	16.0	stop	non-target	P	71,Index Finger	89,Middle Finger	650.0	600.0	2100.0	2150.0	0.0	1.0	600.0	n/a	go_stim
304161.55988480011	2150.0	n/a	-1	-1	2750	306.4401152	stim	stop-signal	523	1340066	0.0-21.16-1.16	beast_fmri_test	336	1337457,/,1338137,/,1338816,/,1339497,/,1340175,/	t,t,t,t,t	<img class = center src='/static/experiments/beast_fmri_test/images/P.png'></img>	71,89	2750.0	test	<img class = center src='/static/experiments/beast_fmri_test/images/redP.png'></img>	stop	2150.0	3.0	16.0	stop	non-target	P	71,Index Finger	89,Middle Finger	650.0	600.0	2100.0	2150.0	0.0	1.0	600.0	n/a	stop_stim
304761.55988480011	306.44011519999998	n/a	-1	-1	2750	306.4401152	stim	stop-signal	523	1340066	0.0-21.16-1.16	beast_fmri_test	336	1337457,/,1338137,/,1338816,/,1339497,/,1340175,/	t,t,t,t,t	<img class = center src='/static/experiments/beast_fmri_test/images/P.png'></img>	71,89	2750.0	test	<img class = center src='/static/experiments/beast_fmri_test/images/redP.png'></img>	stop	2150.0	3.0	16.0	stop	non-target	P	71,Index Finger	89,Middle Finger	650.0	600.0	2100.0	2150.0	0.0	1.0	600.0	n/a	ITI
305927	500	n/a	-1	-1	500	0.0	fixation	poldrack-single-stim	524	1340925	0.0-21.17-0.17	beast_fmri_test	336	1340856,/	t	<div class = centerbox2><div class = fixation>+</div></div>	none	500.0	test	n/a	n/a	n/a	n/a	n/a	n/a	n/a	n/a	n/a	n/a	n/a	n/a	n/a	n/a	n/a	n/a	n/a	n/a	fixation
305757.0826791001	650.0	n/a	604	89	2750	172.9173209	stim	stop-signal	525	1343678	0.0-21.17-1.17	beast_fmri_test	336	1341534,/,1342215,/,1342894,/,1343573,/	t,t,t,t	<img class = center src='/static/experiments/beast_fmri_test/images/B.png'></img>	71,89	2750.0	test	<img class = center src='/static/experiments/beast_fmri_test/images/redB.png'></img>	stop	2100.0	3.0	17.0	stop	non-target	B	71,Index Finger	89,Middle Finger	650.0	650.0	2100.0	2100.0	0.0	0.0	650.0	n/a	go_stim
307857.0826791001	2100.0	n/a	604	89	2750	172.9173209	stim	stop-signal	525	1343678	0.0-21.17-1.17	beast_fmri_test	336	1341534,/,1342215,/,1342894,/,1343573,/	t,t,t,t	<img class = center src='/static/experiments/beast_fmri_test/images/B.png'></img>	71,89	2750.0	test	<img class = center src='/static/experiments/beast_fmri_test/images/redB.png'></img>	stop	2100.0	3.0	17.0	stop	non-target	B	71,Index Finger	89,Middle Finger	650.0	650.0	2100.0	2100.0	0.0	0.0	650.0	n/a	stop_stim
308507.0826791001	172.91732089999999	n/a	604	89	2750	172.9173209	stim	stop-signal	525	1343678	0.0-21.17-1.17	beast_fmri_test	336	1341534,/,1342215,/,1342894,/,1343573,/	t,t,t,t	<img class = center src='/static/experiments/beast_fmri_test/images/B.png'></img>	71,89	2750.0	test	<img class = center src='/static/experiments/beast_fmri_test/images/redB.png'></img>	stop	2100.0	3.0	17.0	stop	non-target	B	71,Index Finger	89,Middle Finger	650.0	650.0	2100.0	2100.0	0.0	0.0	650.0	n/a	ITI
309408	500	n/a	-1	-1	500	0.0	fixation	poldrack-single-stim	526	1344406	0.0-21.18-0.18	beast_fmri_test	336	1344254,/	t	<div class = centerbox2><div class = fixation>+</div></div>	none	500.0	test	n/a	n/a	n/a	n/a	n/a	n/a	n/a	n/a	n/a	n/a	n/a	n/a	n/a	n/a	n/a	n/a	n/a	n/a	fixation
309304.98713080003	2750	n/a	562	71	2750	104.0128692	stim	stop-signal	527	1347157	0.0-21.18-1.18	beast_fmri_test	336	1344934,/,1345613,/,1346293,/,1346973,/	t,t,t,t	<img class = center src='/static/experiments/beast_fmri_test/images/P.png'></img>	71,89	2750.0	test	<img class = center src='/static/experiments/beast_fmri_test/images/redP.png'></img>	go	2100.0	3.0	18.0	go	target	P	71,Index Finger	89,Middle Finger	650.0	600.0	2100.0	2100.0	1.0	n/a	650.0	1.0	go_stim
312054.98713080003	104.0128692	n/a	562	71	2750	104.0128692	stim	stop-signal	527	1347157	0.0-21.18-1.18	beast_fmri_test	336	1344934,/,1345613,/,1346293,/,1346973,/	t,t,t,t	<img class = center src='/static/experiments/beast_fmri_test/images/P.png'></img>	71,89	2750.0	test	<img class = center src='/static/experiments/beast_fmri_test/images/redP.png'></img>	go	2100.0	3.0	18.0	go	target	P	71,Index Finger	89,Middle Finger	650.0	600.0	2100.0	2100.0	1.0	n/a	650.0	1.0	ITI
312820	500	n/a	-1	-1	500	0.0	fixation	poldrack-single-stim	528	1347818	0.0-21.19-0.19	beast_fmri_test	336	1347653,/	t	<div class = centerbox2><div class = fixation>+</div></div>	none	500.0	test	n/a	n/a	n/a	n/a	n/a	n/a	n/a	n/a	n/a	n/a	n/a	n/a	n/a	n/a	n/a	n/a	n/a	n/a	fixation
312023.39798370004	2750	n/a	665	89	2750	798.6020163	stim	stop-signal	529	1350570	0.0-21.19-1.19	beast_fmri_test	336	1348331,/,1349012,/,1349692,/,1350371,/,1351051,/	t,t,t,t,t	<img class = center src='/static/experiments/beast_fmri_test/images/D.png'></img>	71,89	2750.0	test	<img class = center src='/static/experiments/beast_fmri_test/images/redD.png'></img>	go	2150.0	3.0	19.0	go	non-target	D	71,Index Finger	89,Middle Finger	650.0	600.0	2100.0	2150.0	1.0	n/a	600.0	1.0	go_stim
314773.39798370004	798.60201629999995	n/a	665	89	2750	798.6020163	stim	stop-signal	529	1350570	0.0-21.19-1.19	beast_fmri_test	336	1348331,/,1349012,/,1349692,/,1350371,/,1351051,/	t,t,t,t,t	<img class = center src='/static/experiments/beast_fmri_test/images/D.png'></img>	71,89	2750.0	test	<img class = center src='/static/experiments/beast_fmri_test/images/redD.png'></img>	go	2150.0	3.0	19.0	go	non-target	D	71,Index Finger	89,Middle Finger	650.0	600.0	2100.0	2150.0	1.0	n/a	600.0	1.0	ITI
316924	500	n/a	-1	-1	500	0.0	fixation	poldrack-single-stim	530	1351922	0.0-21.20-0.20	beast_fmri_test	336	1351730,/	t	<div class = centerbox2><div class = fixation>+</div></div>	none	500.0	test	n/a	n/a	n/a	n/a	n/a	n/a	n/a	n/a	n/a	n/a	n/a	n/a	n/a	n/a	n/a	n/a	n/a	n/a	fixation
316564.67008830002	2750	n/a	703	89	2750	361.3299117	stim	stop-signal	531	1354674	0.0-21.20-1.20	beast_fmri_test	336	1352409,/,1353089,/,1353768,/,1354448,/	t,t,t,t	<img class = center src='/static/experiments/beast_fmri_test/images/D.png'></img>	71,89	2750.0	test	<img class = center src='/static/experiments/beast_fmri_test/images/redD.png'></img>	go	2150.0	3.0	20.0	go	non-target	D	71,Index Finger	89,Middle Finger	650.0	600.0	2100.0	2150.0	1.0	n/a	600.0	1.0	go_stim
319314.67008830002	361.32991170000003	n/a	703	89	2750	361.3299117	stim	stop-signal	531	1354674	0.0-21.20-1.20	beast_fmri_test	336	1352409,/,1353089,/,1353768,/,1354448,/	t,t,t,t	<img class = center src='/static/experiments/beast_fmri_test/images/D.png'></img>	71,89	2750.0	test	<img class = center src='/static/experiments/beast_fmri_test/images/redD.png'></img>	go	2150.0	3.0	20.0	go	non-target	D	71,Index Finger	89,Middle Finger	650.0	600.0	2100.0	2150.0	1.0	n/a	600.0	1.0	ITI
320592	500	n/a	-1	-1	500	0.0	fixation	poldrack-single-stim	532	1355590	0.0-21.21-0.21	beast_fmri_test	336	1355127,/	t	<div class = centerbox2><div class = fixation>+</div></div>	none	500.0	test	n/a	n/a	n/a	n/a	n/a	n/a	n/a	n/a	n/a	n/a	n/a	n/a	n/a	n/a	n/a	n/a	n/a	n/a	fixation
320051.13962460007	650.0	n/a	969	71	2750	543.8603754	stim	stop-signal	533	1358343	0.0-21.21-1.21	beast_fmri_test	336	1355809,/,1356488,/,1357167,/,1357847,/,1358527,/	t,t,t,t,t	<img class = center src='/static/experiments/beast_fmri_test/images/P.png'></img>	71,89	2750.0	test	<img class = center src='/static/experiments/beast_fmri_test/images/redP.png'></img>	stop	2100.0	3.0	21.0	stop	target	P	71,Index Finger	89,Middle Finger	650.0	600.0	2100.0	2150.0	0.0	0.0	650.0	n/a	go_stim
322151.13962460007	2100.0	n/a	969	71	2750	543.8603754	stim	stop-signal	533	1358343	0.0-21.21-1.21	beast_fmri_test	336	1355809,/,1356488,/,1357167,/,1357847,/,1358527,/	t,t,t,t,t	<img class = center src='/static/experiments/beast_fmri_test/images/P.png'></img>	71,89	2750.0	test	<img class = center src='/static/experiments/beast_fmri_test/images/redP.png'></img>	stop	2100.0	3.0	21.0	stop	target	P	71,Index Finger	89,Middle Finger	650.0	600.0	2100.0	2150.0	0.0	0.0	650.0	n/a	stop_stim
322801.13962460007	543.86037539999995	n/a	969	71	2750	543.8603754	stim	stop-signal	533	1358343	0.0-21.21-1.21	beast_fmri_test	336	1355809,/,1356488,/,1357167,/,1357847,/,1358527,/	t,t,t,t,t	<img class = center src='/static/experiments/beast_fmri_test/images/P.png'></img>	71,89	2750.0	test	<img class = center src='/static/experiments/beast_fmri_test/images/redP.png'></img>	stop	2100.0	3.0	21.0	stop	target	P	71,Index Finger	89,Middle Finger	650.0	600.0	2100.0	2150.0	0.0	0.0	650.0	n/a	ITI
324447	500	n/a	-1	-1	500	0.0	fixation	poldrack-single-stim	534	1359445	0.0-21.22-0.22	beast_fmri_test	336	1359207,/	t	<div class = centerbox2><div class = fixation>+</div></div>	none	500.0	test	n/a	n/a	n/a	n/a	n/a	n/a	n/a	n/a	n/a	n/a	n/a	n/a	n/a	n/a	n/a	n/a	n/a	n/a	fixation
323294.70035700011	2750	n/a	1268	71	2750	1153.299643	stim	stop-signal	535	1362196	0.0-21.22-1.22	beast_fmri_test	336	1359886,/,1360567,/,1361246,/,1361924,/,1362605,/,1363284,/	t,t,t,t,t,t	<img class = center src='/static/experiments/beast_fmri_test/images/V.png'></img>	71,89	2750.0	test	<img class = center src='/static/experiments/beast_fmri_test/images/redV.png'></img>	go	2150.0	3.0	22.0	go	non-target	V	71,Index Finger	89,Middle Finger	600.0	600.0	2100.0	2150.0	0.0	n/a	600.0	0.0	go_stim
326044.70035700011	1153.2996430000001	n/a	1268	71	2750	1153.299643	stim	stop-signal	535	1362196	0.0-21.22-1.22	beast_fmri_test	336	1359886,/,1360567,/,1361246,/,1361924,/,1362605,/,1363284,/	t,t,t,t,t,t	<img class = center src='/static/experiments/beast_fmri_test/images/V.png'></img>	71,89	2750.0	test	<img class = center src='/static/experiments/beast_fmri_test/images/redV.png'></img>	go	2150.0	3.0	22.0	go	non-target	V	71,Index Finger	89,Middle Finger	600.0	600.0	2100.0	2150.0	0.0	n/a	600.0	0.0	ITI
