onset	duration	text	rt	key_press	block_duration	timing_post_trial	trial_id	trial_type	trial_index	time_elapsed	internal_node_id	exp_id	subject_id	trigger_times	triggers	stimulus	possible_responses	stim_duration	exp_stage	SS_stimulus	SS_trial_type	SS_duration	load	trial_num	stop_trial_type	adaptive_trial_type	stim	yes_response_key	no_response_key	SSD_target	SSD_non_target	SSTarget	SSNonTarget	go_acc	SS_delay	adaptive_acc	stop_acc	new_trial_type
test	10880	n/a	-1	-1	10880	0.0	practice-no-stop-feedback	poldrack-single-stim	392	1126664	0.0-18.0	beast_fmri_test	391	1115778,/,1116457,/,1117138,/,1117818,/,1118498,/,1119178,/,1119859,/,1120539,/,1121219,/,1121900,/,1122580,/,1123260,/,1123940,/,1124620,/,1125301,/,1125981,/,1126662,/	t,t,t,t,t,t,t,t,t,t,t,t,t,t,t,t,t	"<div class = ""centerbox2_2""><p class = ""block-text2"">Your delay is 2 trials.</p><p class = block-text2>Please wait for the scanner to start the block</p></div>"	77	10880.0	n/a	n/a	n/a	n/a	n/a	n/a	n/a	n/a	n/a	n/a	n/a	n/a	n/a	n/a	n/a	n/a	n/a	n/a	n/a	start_functional_block
11391	500	n/a	-1	-1	500	0.0	fixation	poldrack-single-stim	393	1127169	0.0-19.0-0.0	beast_fmri_test	391	n/a	n/a	<div class = centerbox2><div class = fixation>+</div></div>	none	500.0	test	n/a	n/a	n/a	n/a	n/a	n/a	n/a	n/a	n/a	n/a	n/a	n/a	n/a	n/a	n/a	n/a	n/a	n/a	fixation
11233.061226641759	2750	n/a	646	71	2750	161.938773358	stim	stop-signal	394	1129923	0.0-19.0-1.0	beast_fmri_test	391	1127341,/,1128022,/,1128702,/,1129382,/,1130063,/	t,t,t,t,t	<img class = center src='/static/experiments/beast_fmri_test/images/P.png'></img>	89,71	2750.0	test	<img class = center src='/static/experiments/beast_fmri_test/images/redP.png'></img>	go	-1.0	2.0	0.0	go	temp-non-target	P	89,Middle Finger	71,Index Finger	1100.0	1300.0	1650.0	1450.0	0.0	n/a	n/a	n/a	go_stim
13983.061226641759	161.93877335822799	n/a	646	71	2750	161.938773358	stim	stop-signal	394	1129923	0.0-19.0-1.0	beast_fmri_test	391	1127341,/,1128022,/,1128702,/,1129382,/,1130063,/	t,t,t,t,t	<img class = center src='/static/experiments/beast_fmri_test/images/P.png'></img>	89,71	2750.0	test	<img class = center src='/static/experiments/beast_fmri_test/images/redP.png'></img>	go	-1.0	2.0	0.0	go	temp-non-target	P	89,Middle Finger	71,Index Finger	1100.0	1300.0	1650.0	1450.0	0.0	n/a	n/a	n/a	ITI
14854	500	n/a	-1	-1	500	0.0	fixation	poldrack-single-stim	395	1130632	0.0-19.1-0.1	beast_fmri_test	391	n/a	n/a	<div class = centerbox2><div class = fixation>+</div></div>	none	500.0	test	n/a	n/a	n/a	n/a	n/a	n/a	n/a	n/a	n/a	n/a	n/a	n/a	n/a	n/a	n/a	n/a	n/a	n/a	fixation
14844.680190379499	temp_go_duration	n/a	782	71	2750	14.3198096205	stim	stop-signal	396	1133387	0.0-19.1-1.1	beast_fmri_test	391	1130743,/,1131422,/,1132103,/,1132784,/	t,t,t,t	<img class = center src='/static/experiments/beast_fmri_test/images/P.png'></img>	89,71	2750.0	test	<img class = center src='/static/experiments/beast_fmri_test/images/redP.png'></img>	stop	-1.0	2.0	1.0	stop	temp-non-target	P	89,Middle Finger	71,Index Finger	1100.0	1300.0	1650.0	1450.0	0.0	n/a	n/a	0.0	go_stim
temp-non-target	temp_stop_duration	n/a	782	71	2750	14.3198096205	stim	stop-signal	396	1133387	0.0-19.1-1.1	beast_fmri_test	391	1130743,/,1131422,/,1132103,/,1132784,/	t,t,t,t	<img class = center src='/static/experiments/beast_fmri_test/images/P.png'></img>	89,71	2750.0	test	<img class = center src='/static/experiments/beast_fmri_test/images/redP.png'></img>	stop	-1.0	2.0	1.0	stop	temp-non-target	P	89,Middle Finger	71,Index Finger	1100.0	1300.0	1650.0	1450.0	0.0	n/a	n/a	0.0	stop_stim
17594.680190379499	14.31980962050587	n/a	782	71	2750	14.3198096205	stim	stop-signal	396	1133387	0.0-19.1-1.1	beast_fmri_test	391	1130743,/,1131422,/,1132103,/,1132784,/	t,t,t,t	<img class = center src='/static/experiments/beast_fmri_test/images/P.png'></img>	89,71	2750.0	test	<img class = center src='/static/experiments/beast_fmri_test/images/redP.png'></img>	stop	-1.0	2.0	1.0	stop	temp-non-target	P	89,Middle Finger	71,Index Finger	1100.0	1300.0	1650.0	1450.0	0.0	n/a	n/a	0.0	ITI
18166	500	n/a	-1	-1	500	0.0	fixation	poldrack-single-stim	397	1133944	0.0-19.2-0.2	beast_fmri_test	391	1133463,/	t	<div class = centerbox2><div class = fixation>+</div></div>	none	500.0	test	n/a	n/a	n/a	n/a	n/a	n/a	n/a	n/a	n/a	n/a	n/a	n/a	n/a	n/a	n/a	n/a	n/a	n/a	fixation
17484.842109496705	2750	n/a	882	71	2750	686.157890503	stim	stop-signal	398	1136699	0.0-19.2-1.2	beast_fmri_test	391	1134144,/,1134826,/,1135506,/,1136185,/,1136866,/	t,t,t,t,t	<img class = center src='/static/experiments/beast_fmri_test/images/V.png'></img>	89,71	2750.0	test	<img class = center src='/static/experiments/beast_fmri_test/images/redV.png'></img>	go	1450.0	2.0	2.0	go	non-target	V	89,Middle Finger	71,Index Finger	1100.0	1300.0	1650.0	1450.0	1.0	1300.0	1.0	n/a	go_stim
20234.842109496705	686.15789050329852	n/a	882	71	2750	686.157890503	stim	stop-signal	398	1136699	0.0-19.2-1.2	beast_fmri_test	391	1134144,/,1134826,/,1135506,/,1136185,/,1136866,/	t,t,t,t,t	<img class = center src='/static/experiments/beast_fmri_test/images/V.png'></img>	89,71	2750.0	test	<img class = center src='/static/experiments/beast_fmri_test/images/redV.png'></img>	go	1450.0	2.0	2.0	go	non-target	V	89,Middle Finger	71,Index Finger	1100.0	1300.0	1650.0	1450.0	1.0	1300.0	1.0	n/a	ITI
22155	500	n/a	-1	-1	500	0.0	fixation	poldrack-single-stim	399	1137933	0.0-19.3-0.3	beast_fmri_test	391	1137547,/	t	<div class = centerbox2><div class = fixation>+</div></div>	none	500.0	test	n/a	n/a	n/a	n/a	n/a	n/a	n/a	n/a	n/a	n/a	n/a	n/a	n/a	n/a	n/a	n/a	n/a	n/a	fixation
20444.780021992046	2750	n/a	1231	89	2750	1714.21997801	stim	stop-signal	400	1140687	0.0-19.3-1.3	beast_fmri_test	391	1138225,/,1138907,/,1139588,/,1140267,/,1140948,/,1141628,/,1142308,/	t,t,t,t,t,t,t	<img class = center src='/static/experiments/beast_fmri_test/images/P.png'></img>	89,71	2750.0	test	<img class = center src='/static/experiments/beast_fmri_test/images/redP.png'></img>	go	1650.0	2.0	3.0	go	target	P	89,Middle Finger	71,Index Finger	1100.0	1300.0	1650.0	1450.0	1.0	1100.0	1.0	n/a	go_stim
23194.780021992046	1714.2199780080482	n/a	1231	89	2750	1714.21997801	stim	stop-signal	400	1140687	0.0-19.3-1.3	beast_fmri_test	391	1138225,/,1138907,/,1139588,/,1140267,/,1140948,/,1141628,/,1142308,/	t,t,t,t,t,t,t	<img class = center src='/static/experiments/beast_fmri_test/images/P.png'></img>	89,71	2750.0	test	<img class = center src='/static/experiments/beast_fmri_test/images/redP.png'></img>	go	1650.0	2.0	3.0	go	target	P	89,Middle Finger	71,Index Finger	1100.0	1300.0	1650.0	1450.0	1.0	1100.0	1.0	n/a	ITI
27171	500	n/a	-1	-1	500	0.0	fixation	poldrack-single-stim	401	1142949	0.0-19.4-0.4	beast_fmri_test	391	n/a	n/a	<div class = centerbox2><div class = fixation>+</div></div>	none	500.0	test	n/a	n/a	n/a	n/a	n/a	n/a	n/a	n/a	n/a	n/a	n/a	n/a	n/a	n/a	n/a	n/a	n/a	n/a	fixation
26074.254632972879	2750	n/a	755	71	2750	1101.74536703	stim	stop-signal	402	1145704	0.0-19.4-1.4	beast_fmri_test	391	1142988,/,1143669,/,1144349,/,1145030,/,1145711,/,1146390,/	t,t,t,t,t,t	<img class = center src='/static/experiments/beast_fmri_test/images/V.png'></img>	89,71	2750.0	test	<img class = center src='/static/experiments/beast_fmri_test/images/redV.png'></img>	go	1650.0	2.0	4.0	go	target	V	89,Middle Finger	71,Index Finger	1100.0	1300.0	1650.0	1450.0	0.0	1100.0	0.0	n/a	go_stim
28824.254632972879	1101.7453670271982	n/a	755	71	2750	1101.74536703	stim	stop-signal	402	1145704	0.0-19.4-1.4	beast_fmri_test	391	1142988,/,1143669,/,1144349,/,1145030,/,1145711,/,1146390,/	t,t,t,t,t,t	<img class = center src='/static/experiments/beast_fmri_test/images/V.png'></img>	89,71	2750.0	test	<img class = center src='/static/experiments/beast_fmri_test/images/redV.png'></img>	go	1650.0	2.0	4.0	go	target	V	89,Middle Finger	71,Index Finger	1100.0	1300.0	1650.0	1450.0	0.0	1100.0	0.0	n/a	ITI
31578	500	n/a	-1	-1	500	0.0	fixation	poldrack-single-stim	403	1147356	0.0-19.5-0.5	beast_fmri_test	391	1147071,/	t	<div class = centerbox2><div class = fixation>+</div></div>	none	500.0	test	n/a	n/a	n/a	n/a	n/a	n/a	n/a	n/a	n/a	n/a	n/a	n/a	n/a	n/a	n/a	n/a	n/a	n/a	fixation
30726.752131859306	2750	n/a	1093	71	2750	855.247868141	stim	stop-signal	404	1150110	0.0-19.5-1.5	beast_fmri_test	391	1147751,/,1148432,/,1149112,/,1149792,/,1150472,/	t,t,t,t,t	<img class = center src='/static/experiments/beast_fmri_test/images/B.png'></img>	89,71	2750.0	test	<img class = center src='/static/experiments/beast_fmri_test/images/redB.png'></img>	go	1450.0	2.0	5.0	go	non-target	B	89,Middle Finger	71,Index Finger	1100.0	1300.0	1650.0	1450.0	1.0	1300.0	1.0	n/a	go_stim
33476.752131859306	855.2478681407797	n/a	1093	71	2750	855.247868141	stim	stop-signal	404	1150110	0.0-19.5-1.5	beast_fmri_test	391	1147751,/,1148432,/,1149112,/,1149792,/,1150472,/	t,t,t,t,t	<img class = center src='/static/experiments/beast_fmri_test/images/B.png'></img>	89,71	2750.0	test	<img class = center src='/static/experiments/beast_fmri_test/images/redB.png'></img>	go	1450.0	2.0	5.0	go	non-target	B	89,Middle Finger	71,Index Finger	1100.0	1300.0	1650.0	1450.0	1.0	1300.0	1.0	n/a	ITI
35736	500	n/a	-1	-1	500	0.0	fixation	poldrack-single-stim	405	1151514	0.0-19.6-0.6	beast_fmri_test	391	1151152,/	t	<div class = centerbox2><div class = fixation>+</div></div>	none	500.0	test	n/a	n/a	n/a	n/a	n/a	n/a	n/a	n/a	n/a	n/a	n/a	n/a	n/a	n/a	n/a	n/a	n/a	n/a	fixation
35603.283663945273	2750	n/a	985	71	2750	135.716336055	stim	stop-signal	406	1154267	0.0-19.6-1.6	beast_fmri_test	391	1151832,/,1152513,/,1153193,/,1153874,/	t,t,t,t	<img class = center src='/static/experiments/beast_fmri_test/images/D.png'></img>	89,71	2750.0	test	<img class = center src='/static/experiments/beast_fmri_test/images/redD.png'></img>	go	1450.0	2.0	6.0	go	non-target	D	89,Middle Finger	71,Index Finger	1100.0	1300.0	1650.0	1450.0	1.0	1300.0	1.0	n/a	go_stim
38353.283663945273	135.71633605479167	n/a	985	71	2750	135.716336055	stim	stop-signal	406	1154267	0.0-19.6-1.6	beast_fmri_test	391	1151832,/,1152513,/,1153193,/,1153874,/	t,t,t,t	<img class = center src='/static/experiments/beast_fmri_test/images/D.png'></img>	89,71	2750.0	test	<img class = center src='/static/experiments/beast_fmri_test/images/redD.png'></img>	go	1450.0	2.0	6.0	go	non-target	D	89,Middle Finger	71,Index Finger	1100.0	1300.0	1650.0	1450.0	1.0	1300.0	1.0	n/a	ITI
39175	500	n/a	-1	-1	500	0.0	fixation	poldrack-single-stim	407	1154953	0.0-19.7-0.7	beast_fmri_test	391	1154554,/	t	<div class = centerbox2><div class = fixation>+</div></div>	none	500.0	test	n/a	n/a	n/a	n/a	n/a	n/a	n/a	n/a	n/a	n/a	n/a	n/a	n/a	n/a	n/a	n/a	n/a	n/a	fixation
36549.890585628571	2750	n/a	882	71	2750	2630.10941437	stim	stop-signal	408	1157708	0.0-19.7-1.7	beast_fmri_test	391	1155234,/,1155914,/,1156594,/,1157275,/,1157955,/,1158635,/,1159315,/,1159996,/	t,t,t,t,t,t,t,t	<img class = center src='/static/experiments/beast_fmri_test/images/T.png'></img>	89,71	2750.0	test	<img class = center src='/static/experiments/beast_fmri_test/images/redT.png'></img>	go	1450.0	2.0	7.0	go	non-target	T	89,Middle Finger	71,Index Finger	1100.0	1300.0	1650.0	1450.0	1.0	1300.0	1.0	n/a	go_stim
39299.890585628571	2630.1094143714513	n/a	882	71	2750	2630.10941437	stim	stop-signal	408	1157708	0.0-19.7-1.7	beast_fmri_test	391	1155234,/,1155914,/,1156594,/,1157275,/,1157955,/,1158635,/,1159315,/,1159996,/	t,t,t,t,t,t,t,t	<img class = center src='/static/experiments/beast_fmri_test/images/T.png'></img>	89,71	2750.0	test	<img class = center src='/static/experiments/beast_fmri_test/images/redT.png'></img>	go	1450.0	2.0	7.0	go	non-target	T	89,Middle Finger	71,Index Finger	1100.0	1300.0	1650.0	1450.0	1.0	1300.0	1.0	n/a	ITI
45107	500	n/a	-1	-1	500	0.0	fixation	poldrack-single-stim	409	1160885	0.0-19.8-0.8	beast_fmri_test	391	1160676,/	t	<div class = centerbox2><div class = fixation>+</div></div>	none	500.0	test	n/a	n/a	n/a	n/a	n/a	n/a	n/a	n/a	n/a	n/a	n/a	n/a	n/a	n/a	n/a	n/a	n/a	n/a	fixation
44498.224673089338	2750	n/a	925	89	2750	613.775326911	stim	stop-signal	410	1163640	0.0-19.8-1.8	beast_fmri_test	391	1161356,/,1162037,/,1162717,/,1163397,/,1164077,/	t,t,t,t,t	<img class = center src='/static/experiments/beast_fmri_test/images/D.png'></img>	89,71	2750.0	test	<img class = center src='/static/experiments/beast_fmri_test/images/redD.png'></img>	go	1650.0	2.0	8.0	go	target	D	89,Middle Finger	71,Index Finger	1100.0	1300.0	1650.0	1450.0	1.0	1100.0	1.0	n/a	go_stim
47248.224673089338	613.77532691067461	n/a	925	89	2750	613.775326911	stim	stop-signal	410	1163640	0.0-19.8-1.8	beast_fmri_test	391	1161356,/,1162037,/,1162717,/,1163397,/,1164077,/	t,t,t,t,t	<img class = center src='/static/experiments/beast_fmri_test/images/D.png'></img>	89,71	2750.0	test	<img class = center src='/static/experiments/beast_fmri_test/images/redD.png'></img>	go	1650.0	2.0	8.0	go	target	D	89,Middle Finger	71,Index Finger	1100.0	1300.0	1650.0	1450.0	1.0	1100.0	1.0	n/a	ITI
49024	500	n/a	-1	-1	500	0.0	fixation	poldrack-single-stim	411	1164802	0.0-19.9-0.9	beast_fmri_test	391	1164758,/	t	<div class = centerbox2><div class = fixation>+</div></div>	none	500.0	test	n/a	n/a	n/a	n/a	n/a	n/a	n/a	n/a	n/a	n/a	n/a	n/a	n/a	n/a	n/a	n/a	n/a	n/a	fixation
48977.163410189562	2750	n/a	1305	71	2750	51.8365898105	stim	stop-signal	412	1167557	0.0-19.9-1.9	beast_fmri_test	391	1165439,/,1166117,/,1166800,/,1167480,/	t,t,t,t	<img class = center src='/static/experiments/beast_fmri_test/images/P.png'></img>	89,71	2750.0	test	<img class = center src='/static/experiments/beast_fmri_test/images/redP.png'></img>	go	1450.0	2.0	9.0	go	non-target	P	89,Middle Finger	71,Index Finger	1100.0	1300.0	1650.0	1450.0	1.0	1300.0	1.0	n/a	go_stim
51727.163410189562	51.836589810487538	n/a	1305	71	2750	51.8365898105	stim	stop-signal	412	1167557	0.0-19.9-1.9	beast_fmri_test	391	1165439,/,1166117,/,1166800,/,1167480,/	t,t,t,t	<img class = center src='/static/experiments/beast_fmri_test/images/P.png'></img>	89,71	2750.0	test	<img class = center src='/static/experiments/beast_fmri_test/images/redP.png'></img>	go	1450.0	2.0	9.0	go	non-target	P	89,Middle Finger	71,Index Finger	1100.0	1300.0	1650.0	1450.0	1.0	1300.0	1.0	n/a	ITI
52377	500	n/a	-1	-1	500	0.0	fixation	poldrack-single-stim	413	1168155	0.0-19.10-0.10	beast_fmri_test	391	n/a	n/a	<div class = centerbox2><div class = fixation>+</div></div>	none	500.0	test	n/a	n/a	n/a	n/a	n/a	n/a	n/a	n/a	n/a	n/a	n/a	n/a	n/a	n/a	n/a	n/a	n/a	n/a	fixation
51299.814313273644	2750	n/a	1387	71	2750	1081.18568673	stim	stop-signal	414	1170909	0.0-19.10-1.10	beast_fmri_test	391	1168159,/,1168841,/,1169521,/,1170201,/,1170881,/,1171562,/	t,t,t,t,t,t	<img class = center src='/static/experiments/beast_fmri_test/images/P.png'></img>	89,71	2750.0	test	<img class = center src='/static/experiments/beast_fmri_test/images/redP.png'></img>	go	1450.0	2.0	10.0	go	non-target	P	89,Middle Finger	71,Index Finger	1100.0	1300.0	1650.0	1450.0	1.0	1300.0	1.0	n/a	go_stim
54049.814313273644	1081.1856867263161	n/a	1387	71	2750	1081.18568673	stim	stop-signal	414	1170909	0.0-19.10-1.10	beast_fmri_test	391	1168159,/,1168841,/,1169521,/,1170201,/,1170881,/,1171562,/	t,t,t,t,t,t	<img class = center src='/static/experiments/beast_fmri_test/images/P.png'></img>	89,71	2750.0	test	<img class = center src='/static/experiments/beast_fmri_test/images/redP.png'></img>	go	1450.0	2.0	10.0	go	non-target	P	89,Middle Finger	71,Index Finger	1100.0	1300.0	1650.0	1450.0	1.0	1300.0	1.0	n/a	ITI
56766	500	n/a	-1	-1	500	0.0	fixation	poldrack-single-stim	415	1172544	0.0-19.11-0.11	beast_fmri_test	391	1172242,/	t	<div class = centerbox2><div class = fixation>+</div></div>	none	500.0	test	n/a	n/a	n/a	n/a	n/a	n/a	n/a	n/a	n/a	n/a	n/a	n/a	n/a	n/a	n/a	n/a	n/a	n/a	fixation
52449.600816139253	1300.0	n/a	-1	-1	2750	4320.39918386	stim	stop-signal	416	1175298	0.0-19.11-1.11	beast_fmri_test	391	1172922,/,1173602,/,1174281,/,1174963,/,1175643,/,1176323,/,1177002,/,1177684,/,1178364,/,1179044,/	t,t,t,t,t,t,t,t,t,t	<img class = center src='/static/experiments/beast_fmri_test/images/V.png'></img>	89,71	2750.0	test	<img class = center src='/static/experiments/beast_fmri_test/images/redV.png'></img>	stop	1450.0	2.0	11.0	stop	non-target	V	89,Middle Finger	71,Index Finger	1100.0	1300.0	1650.0	1450.0	0.0	1300.0	n/a	1.0	go_stim
53899.600816139253	1450.0	n/a	-1	-1	2750	4320.39918386	stim	stop-signal	416	1175298	0.0-19.11-1.11	beast_fmri_test	391	1172922,/,1173602,/,1174281,/,1174963,/,1175643,/,1176323,/,1177002,/,1177684,/,1178364,/,1179044,/	t,t,t,t,t,t,t,t,t,t	<img class = center src='/static/experiments/beast_fmri_test/images/V.png'></img>	89,71	2750.0	test	<img class = center src='/static/experiments/beast_fmri_test/images/redV.png'></img>	stop	1450.0	2.0	11.0	stop	non-target	V	89,Middle Finger	71,Index Finger	1100.0	1300.0	1650.0	1450.0	0.0	1300.0	n/a	1.0	stop_stim
55199.600816139253	4320.3991838607571	n/a	-1	-1	2750	4320.39918386	stim	stop-signal	416	1175298	0.0-19.11-1.11	beast_fmri_test	391	1172922,/,1173602,/,1174281,/,1174963,/,1175643,/,1176323,/,1177002,/,1177684,/,1178364,/,1179044,/	t,t,t,t,t,t,t,t,t,t	<img class = center src='/static/experiments/beast_fmri_test/images/V.png'></img>	89,71	2750.0	test	<img class = center src='/static/experiments/beast_fmri_test/images/redV.png'></img>	stop	1450.0	2.0	11.0	stop	non-target	V	89,Middle Finger	71,Index Finger	1100.0	1300.0	1650.0	1450.0	0.0	1300.0	n/a	1.0	ITI
64391	500	n/a	-1	-1	500	0.0	fixation	poldrack-single-stim	417	1180169	0.0-19.12-0.12	beast_fmri_test	391	1179725,/	t	<div class = centerbox2><div class = fixation>+</div></div>	none	500.0	test	n/a	n/a	n/a	n/a	n/a	n/a	n/a	n/a	n/a	n/a	n/a	n/a	n/a	n/a	n/a	n/a	n/a	n/a	fixation
64312.812505132053	1350.0	n/a	1293	71	2750	82.1874948679	stim	stop-signal	418	1182923	0.0-19.12-1.12	beast_fmri_test	391	1180406,/,1181085,/,1181766,/,1182446,/	t,t,t,t	<img class = center src='/static/experiments/beast_fmri_test/images/B.png'></img>	89,71	2750.0	test	<img class = center src='/static/experiments/beast_fmri_test/images/redB.png'></img>	stop	1400.0	2.0	12.0	stop	non-target	B	89,Middle Finger	71,Index Finger	1100.0	1350.0	1650.0	1400.0	0.0	1350.0	n/a	0.0	go_stim
65712.812505132053	1400.0	n/a	1293	71	2750	82.1874948679	stim	stop-signal	418	1182923	0.0-19.12-1.12	beast_fmri_test	391	1180406,/,1181085,/,1181766,/,1182446,/	t,t,t,t	<img class = center src='/static/experiments/beast_fmri_test/images/B.png'></img>	89,71	2750.0	test	<img class = center src='/static/experiments/beast_fmri_test/images/redB.png'></img>	stop	1400.0	2.0	12.0	stop	non-target	B	89,Middle Finger	71,Index Finger	1100.0	1350.0	1650.0	1400.0	0.0	1350.0	n/a	0.0	stop_stim
67062.812505132053	82.187494867923874	n/a	1293	71	2750	82.1874948679	stim	stop-signal	418	1182923	0.0-19.12-1.12	beast_fmri_test	391	1180406,/,1181085,/,1181766,/,1182446,/	t,t,t,t	<img class = center src='/static/experiments/beast_fmri_test/images/B.png'></img>	89,71	2750.0	test	<img class = center src='/static/experiments/beast_fmri_test/images/redB.png'></img>	stop	1400.0	2.0	12.0	stop	non-target	B	89,Middle Finger	71,Index Finger	1100.0	1350.0	1650.0	1400.0	0.0	1350.0	n/a	0.0	ITI
67788	500	n/a	-1	-1	500	0.0	fixation	poldrack-single-stim	419	1183566	0.0-19.13-0.13	beast_fmri_test	391	1183127,/	t	<div class = centerbox2><div class = fixation>+</div></div>	none	500.0	test	n/a	n/a	n/a	n/a	n/a	n/a	n/a	n/a	n/a	n/a	n/a	n/a	n/a	n/a	n/a	n/a	n/a	n/a	fixation
65108.0353120605	2750	n/a	2019	71	2750	2684.96468794	stim	stop-signal	420	1186321	0.0-19.13-1.13	beast_fmri_test	391	1183807,/,1184487,/,1185167,/,1185847,/,1186527,/,1187208,/,1187889,/,1188568,/	t,t,t,t,t,t,t,t	<img class = center src='/static/experiments/beast_fmri_test/images/T.png'></img>	89,71	2750.0	test	<img class = center src='/static/experiments/beast_fmri_test/images/redT.png'></img>	go	1450.0	2.0	13.0	go	non-target	T	89,Middle Finger	71,Index Finger	1100.0	1300.0	1650.0	1450.0	1.0	1300.0	1.0	n/a	go_stim
67858.0353120605	2684.9646879395009	n/a	2019	71	2750	2684.96468794	stim	stop-signal	420	1186321	0.0-19.13-1.13	beast_fmri_test	391	1183807,/,1184487,/,1185167,/,1185847,/,1186527,/,1187208,/,1187889,/,1188568,/	t,t,t,t,t,t,t,t	<img class = center src='/static/experiments/beast_fmri_test/images/T.png'></img>	89,71	2750.0	test	<img class = center src='/static/experiments/beast_fmri_test/images/redT.png'></img>	go	1450.0	2.0	13.0	go	non-target	T	89,Middle Finger	71,Index Finger	1100.0	1300.0	1650.0	1450.0	1.0	1300.0	1.0	n/a	ITI
73773	500	n/a	-1	-1	500	0.0	fixation	poldrack-single-stim	421	1189551	0.0-19.14-0.14	beast_fmri_test	391	1189251,/	t	<div class = centerbox2><div class = fixation>+</div></div>	none	500.0	test	n/a	n/a	n/a	n/a	n/a	n/a	n/a	n/a	n/a	n/a	n/a	n/a	n/a	n/a	n/a	n/a	n/a	n/a	fixation
73634.589611014817	1300.0	n/a	1238	71	2750	143.410388985	stim	stop-signal	422	1192306	0.0-19.14-1.14	beast_fmri_test	391	1189930,/,1190610,/,1191289,/,1191970,/	t,t,t,t	<img class = center src='/static/experiments/beast_fmri_test/images/D.png'></img>	89,71	2750.0	test	<img class = center src='/static/experiments/beast_fmri_test/images/redD.png'></img>	stop	1450.0	2.0	14.0	stop	non-target	D	89,Middle Finger	71,Index Finger	1100.0	1300.0	1650.0	1450.0	0.0	1300.0	n/a	0.0	go_stim
75084.589611014817	1450.0	n/a	1238	71	2750	143.410388985	stim	stop-signal	422	1192306	0.0-19.14-1.14	beast_fmri_test	391	1189930,/,1190610,/,1191289,/,1191970,/	t,t,t,t	<img class = center src='/static/experiments/beast_fmri_test/images/D.png'></img>	89,71	2750.0	test	<img class = center src='/static/experiments/beast_fmri_test/images/redD.png'></img>	stop	1450.0	2.0	14.0	stop	non-target	D	89,Middle Finger	71,Index Finger	1100.0	1300.0	1650.0	1450.0	0.0	1300.0	n/a	0.0	stop_stim
76384.589611014817	143.41038898526762	n/a	1238	71	2750	143.410388985	stim	stop-signal	422	1192306	0.0-19.14-1.14	beast_fmri_test	391	1189930,/,1190610,/,1191289,/,1191970,/	t,t,t,t	<img class = center src='/static/experiments/beast_fmri_test/images/D.png'></img>	89,71	2750.0	test	<img class = center src='/static/experiments/beast_fmri_test/images/redD.png'></img>	stop	1450.0	2.0	14.0	stop	non-target	D	89,Middle Finger	71,Index Finger	1100.0	1300.0	1650.0	1450.0	0.0	1300.0	n/a	0.0	ITI
77222	500	n/a	-1	-1	500	0.0	fixation	poldrack-single-stim	423	1193000	0.0-19.15-0.15	beast_fmri_test	391	1192651,/	t	<div class = centerbox2><div class = fixation>+</div></div>	none	500.0	test	n/a	n/a	n/a	n/a	n/a	n/a	n/a	n/a	n/a	n/a	n/a	n/a	n/a	n/a	n/a	n/a	n/a	n/a	fixation
76815.298643230926	1250.0	n/a	-1	-1	2750	409.701356769	stim	stop-signal	424	1195753	0.0-19.15-1.15	beast_fmri_test	391	1193330,/,1194010,/,1194691,/,1195373,/,1196052,/	t,t,t,t,t	<img class = center src='/static/experiments/beast_fmri_test/images/D.png'></img>	89,71	2750.0	test	<img class = center src='/static/experiments/beast_fmri_test/images/redD.png'></img>	stop	1500.0	2.0	15.0	stop	non-target	D	89,Middle Finger	71,Index Finger	1100.0	1250.0	1650.0	1500.0	0.0	1250.0	n/a	1.0	go_stim
78315.298643230926	1500.0	n/a	-1	-1	2750	409.701356769	stim	stop-signal	424	1195753	0.0-19.15-1.15	beast_fmri_test	391	1193330,/,1194010,/,1194691,/,1195373,/,1196052,/	t,t,t,t,t	<img class = center src='/static/experiments/beast_fmri_test/images/D.png'></img>	89,71	2750.0	test	<img class = center src='/static/experiments/beast_fmri_test/images/redD.png'></img>	stop	1500.0	2.0	15.0	stop	non-target	D	89,Middle Finger	71,Index Finger	1100.0	1250.0	1650.0	1500.0	0.0	1250.0	n/a	1.0	stop_stim
79565.298643230926	409.70135676903664	n/a	-1	-1	2750	409.701356769	stim	stop-signal	424	1195753	0.0-19.15-1.15	beast_fmri_test	391	1193330,/,1194010,/,1194691,/,1195373,/,1196052,/	t,t,t,t,t	<img class = center src='/static/experiments/beast_fmri_test/images/D.png'></img>	89,71	2750.0	test	<img class = center src='/static/experiments/beast_fmri_test/images/redD.png'></img>	stop	1500.0	2.0	15.0	stop	non-target	D	89,Middle Finger	71,Index Finger	1100.0	1250.0	1650.0	1500.0	0.0	1250.0	n/a	1.0	ITI
80934	500	n/a	-1	-1	500	0.0	fixation	poldrack-single-stim	425	1196712	0.0-19.16-0.16	beast_fmri_test	391	n/a	n/a	<div class = centerbox2><div class = fixation>+</div></div>	none	500.0	test	n/a	n/a	n/a	n/a	n/a	n/a	n/a	n/a	n/a	n/a	n/a	n/a	n/a	n/a	n/a	n/a	n/a	n/a	fixation
80896.21292181313	2750	n/a	1966	89	2750	41.7870781868	stim	stop-signal	426	1199466	0.0-19.16-1.16	beast_fmri_test	391	1196732,/,1197413,/,1198093,/,1198774,/,1199454,/	t,t,t,t,t	<img class = center src='/static/experiments/beast_fmri_test/images/D.png'></img>	89,71	2750.0	test	<img class = center src='/static/experiments/beast_fmri_test/images/redD.png'></img>	go	1650.0	2.0	16.0	go	target	D	89,Middle Finger	71,Index Finger	1100.0	1300.0	1650.0	1500.0	1.0	1100.0	1.0	n/a	go_stim
83646.21292181313	41.787078186780832	n/a	1966	89	2750	41.7870781868	stim	stop-signal	426	1199466	0.0-19.16-1.16	beast_fmri_test	391	1196732,/,1197413,/,1198093,/,1198774,/,1199454,/	t,t,t,t,t	<img class = center src='/static/experiments/beast_fmri_test/images/D.png'></img>	89,71	2750.0	test	<img class = center src='/static/experiments/beast_fmri_test/images/redD.png'></img>	go	1650.0	2.0	16.0	go	target	D	89,Middle Finger	71,Index Finger	1100.0	1300.0	1650.0	1500.0	1.0	1100.0	1.0	n/a	ITI
84279	500	n/a	-1	-1	500	0.0	fixation	poldrack-single-stim	427	1200057	0.0-19.17-0.17	beast_fmri_test	391	n/a	n/a	<div class = centerbox2><div class = fixation>+</div></div>	none	500.0	test	n/a	n/a	n/a	n/a	n/a	n/a	n/a	n/a	n/a	n/a	n/a	n/a	n/a	n/a	n/a	n/a	n/a	n/a	fixation
81214.267925990978	1100.0	n/a	-1	-1	2750	3068.73207401	stim	stop-signal	428	1202811	0.0-19.17-1.17	beast_fmri_test	391	1200134,/,1200815,/,1201495,/,1202175,/,1202855,/,1203536,/,1204216,/,1204896,/,1205576,/	t,t,t,t,t,t,t,t,t	<img class = center src='/static/experiments/beast_fmri_test/images/D.png'></img>	89,71	2750.0	test	<img class = center src='/static/experiments/beast_fmri_test/images/redD.png'></img>	stop	1650.0	2.0	17.0	stop	target	D	89,Middle Finger	71,Index Finger	1100.0	1300.0	1650.0	1500.0	0.0	1100.0	n/a	1.0	go_stim
82864.267925990978	1650.0	n/a	-1	-1	2750	3068.73207401	stim	stop-signal	428	1202811	0.0-19.17-1.17	beast_fmri_test	391	1200134,/,1200815,/,1201495,/,1202175,/,1202855,/,1203536,/,1204216,/,1204896,/,1205576,/	t,t,t,t,t,t,t,t,t	<img class = center src='/static/experiments/beast_fmri_test/images/D.png'></img>	89,71	2750.0	test	<img class = center src='/static/experiments/beast_fmri_test/images/redD.png'></img>	stop	1650.0	2.0	17.0	stop	target	D	89,Middle Finger	71,Index Finger	1100.0	1300.0	1650.0	1500.0	0.0	1100.0	n/a	1.0	stop_stim
83964.267925990978	3068.732074008919	n/a	-1	-1	2750	3068.73207401	stim	stop-signal	428	1202811	0.0-19.17-1.17	beast_fmri_test	391	1200134,/,1200815,/,1201495,/,1202175,/,1202855,/,1203536,/,1204216,/,1204896,/,1205576,/	t,t,t,t,t,t,t,t,t	<img class = center src='/static/experiments/beast_fmri_test/images/D.png'></img>	89,71	2750.0	test	<img class = center src='/static/experiments/beast_fmri_test/images/redD.png'></img>	stop	1650.0	2.0	17.0	stop	target	D	89,Middle Finger	71,Index Finger	1100.0	1300.0	1650.0	1500.0	0.0	1100.0	n/a	1.0	ITI
90652	500	n/a	-1	-1	500	0.0	fixation	poldrack-single-stim	429	1206430	0.0-19.18-0.18	beast_fmri_test	391	1206257,/	t	<div class = centerbox2><div class = fixation>+</div></div>	none	500.0	test	n/a	n/a	n/a	n/a	n/a	n/a	n/a	n/a	n/a	n/a	n/a	n/a	n/a	n/a	n/a	n/a	n/a	n/a	fixation
90213.879370336421	2750	n/a	1349	71	2750	442.120629664	stim	stop-signal	430	1209184	0.0-19.18-1.18	beast_fmri_test	391	1206937,/,1207617,/,1208297,/,1208978,/	t,t,t,t	<img class = center src='/static/experiments/beast_fmri_test/images/T.png'></img>	89,71	2750.0	test	<img class = center src='/static/experiments/beast_fmri_test/images/redT.png'></img>	go	1450.0	2.0	18.0	go	non-target	T	89,Middle Finger	71,Index Finger	1150.0	1300.0	1650.0	1450.0	1.0	1300.0	1.0	n/a	go_stim
92963.879370336421	442.1206296636521	n/a	1349	71	2750	442.120629664	stim	stop-signal	430	1209184	0.0-19.18-1.18	beast_fmri_test	391	1206937,/,1207617,/,1208297,/,1208978,/	t,t,t,t	<img class = center src='/static/experiments/beast_fmri_test/images/T.png'></img>	89,71	2750.0	test	<img class = center src='/static/experiments/beast_fmri_test/images/redT.png'></img>	go	1450.0	2.0	18.0	go	non-target	T	89,Middle Finger	71,Index Finger	1150.0	1300.0	1650.0	1450.0	1.0	1300.0	1.0	n/a	ITI
94402	500	n/a	-1	-1	500	0.0	fixation	poldrack-single-stim	431	1210180	0.0-19.19-0.19	beast_fmri_test	391	1209678,/	t	<div class = centerbox2><div class = fixation>+</div></div>	none	500.0	test	n/a	n/a	n/a	n/a	n/a	n/a	n/a	n/a	n/a	n/a	n/a	n/a	n/a	n/a	n/a	n/a	n/a	n/a	fixation
93508.928625106113	2750	n/a	1241	89	2750	897.071374894	stim	stop-signal	432	1212934	0.0-19.19-1.19	beast_fmri_test	391	1210338,/,1211019,/,1211699,/,1212379,/,1213059,/,1213740,/	t,t,t,t,t,t	<img class = center src='/static/experiments/beast_fmri_test/images/D.png'></img>	89,71	2750.0	test	<img class = center src='/static/experiments/beast_fmri_test/images/redD.png'></img>	go	1600.0	2.0	19.0	go	target	D	89,Middle Finger	71,Index Finger	1150.0	1300.0	1600.0	1450.0	1.0	1150.0	1.0	n/a	go_stim
96258.928625106113	897.0713748938158	n/a	1241	89	2750	897.071374894	stim	stop-signal	432	1212934	0.0-19.19-1.19	beast_fmri_test	391	1210338,/,1211019,/,1211699,/,1212379,/,1213059,/,1213740,/	t,t,t,t,t,t	<img class = center src='/static/experiments/beast_fmri_test/images/D.png'></img>	89,71	2750.0	test	<img class = center src='/static/experiments/beast_fmri_test/images/redD.png'></img>	go	1600.0	2.0	19.0	go	target	D	89,Middle Finger	71,Index Finger	1150.0	1300.0	1600.0	1450.0	1.0	1150.0	1.0	n/a	ITI
98605	500	n/a	-1	-1	500	0.0	fixation	poldrack-single-stim	433	1214383	0.0-19.20-0.20	beast_fmri_test	391	n/a	n/a	<div class = centerbox2><div class = fixation>+</div></div>	none	500.0	test	n/a	n/a	n/a	n/a	n/a	n/a	n/a	n/a	n/a	n/a	n/a	n/a	n/a	n/a	n/a	n/a	n/a	n/a	fixation
97236.242918093689	2750	n/a	1777	71	2750	1373.75708191	stim	stop-signal	434	1217138	0.0-19.20-1.20	beast_fmri_test	391	1214420,/,1215100,/,1215781,/,1216461,/,1217140,/,1217821,/,1218502,/	t,t,t,t,t,t,t	<img class = center src='/static/experiments/beast_fmri_test/images/D.png'></img>	89,71	2750.0	test	<img class = center src='/static/experiments/beast_fmri_test/images/redD.png'></img>	go	1450.0	2.0	20.0	go	non-target	D	89,Middle Finger	71,Index Finger	1150.0	1300.0	1600.0	1450.0	1.0	1300.0	1.0	n/a	go_stim
99986.242918093689	1373.7570819063485	n/a	1777	71	2750	1373.75708191	stim	stop-signal	434	1217138	0.0-19.20-1.20	beast_fmri_test	391	1214420,/,1215100,/,1215781,/,1216461,/,1217140,/,1217821,/,1218502,/	t,t,t,t,t,t,t	<img class = center src='/static/experiments/beast_fmri_test/images/D.png'></img>	89,71	2750.0	test	<img class = center src='/static/experiments/beast_fmri_test/images/redD.png'></img>	go	1450.0	2.0	20.0	go	non-target	D	89,Middle Finger	71,Index Finger	1150.0	1300.0	1600.0	1450.0	1.0	1300.0	1.0	n/a	ITI
103286	500	n/a	-1	-1	500	0.0	fixation	poldrack-single-stim	435	1219064	0.0-19.21-0.21	beast_fmri_test	391	n/a	n/a	<div class = centerbox2><div class = fixation>+</div></div>	none	500.0	test	n/a	n/a	n/a	n/a	n/a	n/a	n/a	n/a	n/a	n/a	n/a	n/a	n/a	n/a	n/a	n/a	n/a	n/a	fixation
101558.90431392146	1300.0	n/a	-1	-1	2750	1732.09568608	stim	stop-signal	436	1221819	0.0-19.21-1.21	beast_fmri_test	391	1219182,/,1219862,/,1220543,/,1221223,/,1221904,/,1222583,/,1223264,/	t,t,t,t,t,t,t	<img class = center src='/static/experiments/beast_fmri_test/images/P.png'></img>	89,71	2750.0	test	<img class = center src='/static/experiments/beast_fmri_test/images/redP.png'></img>	stop	1450.0	2.0	21.0	stop	non-target	P	89,Middle Finger	71,Index Finger	1150.0	1300.0	1600.0	1450.0	0.0	1300.0	n/a	1.0	go_stim
103008.90431392146	1450.0	n/a	-1	-1	2750	1732.09568608	stim	stop-signal	436	1221819	0.0-19.21-1.21	beast_fmri_test	391	1219182,/,1219862,/,1220543,/,1221223,/,1221904,/,1222583,/,1223264,/	t,t,t,t,t,t,t	<img class = center src='/static/experiments/beast_fmri_test/images/P.png'></img>	89,71	2750.0	test	<img class = center src='/static/experiments/beast_fmri_test/images/redP.png'></img>	stop	1450.0	2.0	21.0	stop	non-target	P	89,Middle Finger	71,Index Finger	1150.0	1300.0	1600.0	1450.0	0.0	1300.0	n/a	1.0	stop_stim
104308.90431392146	1732.0956860786114	n/a	-1	-1	2750	1732.09568608	stim	stop-signal	436	1221819	0.0-19.21-1.21	beast_fmri_test	391	1219182,/,1219862,/,1220543,/,1221223,/,1221904,/,1222583,/,1223264,/	t,t,t,t,t,t,t	<img class = center src='/static/experiments/beast_fmri_test/images/P.png'></img>	89,71	2750.0	test	<img class = center src='/static/experiments/beast_fmri_test/images/redP.png'></img>	stop	1450.0	2.0	21.0	stop	non-target	P	89,Middle Finger	71,Index Finger	1150.0	1300.0	1600.0	1450.0	0.0	1300.0	n/a	1.0	ITI
108326	500	n/a	-1	-1	500	0.0	fixation	poldrack-single-stim	437	1224104	0.0-19.22-0.22	beast_fmri_test	391	1223944,/	t	<div class = centerbox2><div class = fixation>+</div></div>	none	500.0	test	n/a	n/a	n/a	n/a	n/a	n/a	n/a	n/a	n/a	n/a	n/a	n/a	n/a	n/a	n/a	n/a	n/a	n/a	fixation
108041.30139271053	2750	n/a	1152	89	2750	287.698607289	stim	stop-signal	438	1226857	0.0-19.22-1.22	beast_fmri_test	391	1224626,/,1225304,/,1225986,/,1226666,/	t,t,t,t	<img class = center src='/static/experiments/beast_fmri_test/images/D.png'></img>	89,71	2750.0	test	<img class = center src='/static/experiments/beast_fmri_test/images/redD.png'></img>	go	1600.0	2.0	22.0	go	target	D	89,Middle Finger	71,Index Finger	1150.0	1350.0	1600.0	1450.0	1.0	1150.0	1.0	n/a	go_stim
110791.30139271053	287.69860728947032	n/a	1152	89	2750	287.698607289	stim	stop-signal	438	1226857	0.0-19.22-1.22	beast_fmri_test	391	1224626,/,1225304,/,1225986,/,1226666,/	t,t,t,t	<img class = center src='/static/experiments/beast_fmri_test/images/D.png'></img>	89,71	2750.0	test	<img class = center src='/static/experiments/beast_fmri_test/images/redD.png'></img>	go	1600.0	2.0	22.0	go	target	D	89,Middle Finger	71,Index Finger	1150.0	1350.0	1600.0	1450.0	1.0	1150.0	1.0	n/a	ITI
111924	500	n/a	-1	-1	500	0.0	fixation	poldrack-single-stim	439	1227702	0.0-19.23-0.23	beast_fmri_test	391	1227346,/	t	<div class = centerbox2><div class = fixation>+</div></div>	none	500.0	test	n/a	n/a	n/a	n/a	n/a	n/a	n/a	n/a	n/a	n/a	n/a	n/a	n/a	n/a	n/a	n/a	n/a	n/a	fixation
110368.64140068996	2750	n/a	1564	71	2750	1559.35859931	stim	stop-signal	440	1230456	0.0-19.23-1.23	beast_fmri_test	391	1228026,/,1228707,/,1229387,/,1230067,/,1230748,/,1231428,/	t,t,t,t,t,t	<img class = center src='/static/experiments/beast_fmri_test/images/T.png'></img>	89,71	2750.0	test	<img class = center src='/static/experiments/beast_fmri_test/images/redT.png'></img>	go	1400.0	2.0	23.0	go	non-target	T	89,Middle Finger	71,Index Finger	1150.0	1350.0	1600.0	1400.0	1.0	1350.0	1.0	n/a	go_stim
113118.64140068996	1559.3585993100789	n/a	1564	71	2750	1559.35859931	stim	stop-signal	440	1230456	0.0-19.23-1.23	beast_fmri_test	391	1228026,/,1228707,/,1229387,/,1230067,/,1230748,/,1231428,/	t,t,t,t,t,t	<img class = center src='/static/experiments/beast_fmri_test/images/T.png'></img>	89,71	2750.0	test	<img class = center src='/static/experiments/beast_fmri_test/images/redT.png'></img>	go	1400.0	2.0	23.0	go	non-target	T	89,Middle Finger	71,Index Finger	1150.0	1350.0	1600.0	1400.0	1.0	1350.0	1.0	n/a	ITI
116790	500	n/a	-1	-1	500	0.0	fixation	poldrack-single-stim	441	1232568	0.0-19.24-0.24	beast_fmri_test	391	1232109,/	t	<div class = centerbox2><div class = fixation>+</div></div>	none	500.0	test	n/a	n/a	n/a	n/a	n/a	n/a	n/a	n/a	n/a	n/a	n/a	n/a	n/a	n/a	n/a	n/a	n/a	n/a	fixation
115501.17543860944	2750	n/a	1237	71	2750	1291.82456139	stim	stop-signal	442	1235321	0.0-19.24-1.24	beast_fmri_test	391	1232789,/,1233469,/,1234149,/,1234829,/,1235510,/,1236190,/	t,t,t,t,t,t	<img class = center src='/static/experiments/beast_fmri_test/images/P.png'></img>	89,71	2750.0	test	<img class = center src='/static/experiments/beast_fmri_test/images/redP.png'></img>	go	1400.0	2.0	24.0	go	non-target	P	89,Middle Finger	71,Index Finger	1150.0	1350.0	1600.0	1400.0	1.0	1350.0	1.0	n/a	go_stim
118251.17543860944	1291.8245613906058	n/a	1237	71	2750	1291.82456139	stim	stop-signal	442	1235321	0.0-19.24-1.24	beast_fmri_test	391	1232789,/,1233469,/,1234149,/,1234829,/,1235510,/,1236190,/	t,t,t,t,t,t	<img class = center src='/static/experiments/beast_fmri_test/images/P.png'></img>	89,71	2750.0	test	<img class = center src='/static/experiments/beast_fmri_test/images/redP.png'></img>	go	1400.0	2.0	24.0	go	non-target	P	89,Middle Finger	71,Index Finger	1150.0	1350.0	1600.0	1400.0	1.0	1350.0	1.0	n/a	ITI
121388	500	n/a	-1	-1	500	0.0	fixation	poldrack-single-stim	443	1237166	0.0-19.25-0.25	beast_fmri_test	391	1236870,/	t	<div class = centerbox2><div class = fixation>+</div></div>	none	500.0	test	n/a	n/a	n/a	n/a	n/a	n/a	n/a	n/a	n/a	n/a	n/a	n/a	n/a	n/a	n/a	n/a	n/a	n/a	fixation
118593.21577847027	2750	n/a	689	89	2750	2798.78422153	stim	stop-signal	444	1239920	0.0-19.25-1.25	beast_fmri_test	391	1237551,/,1238231,/,1238911,/,1239591,/,1240271,/,1240951,/,1241632,/,1242312,/	t,t,t,t,t,t,t,t	<img class = center src='/static/experiments/beast_fmri_test/images/T.png'></img>	89,71	2750.0	test	<img class = center src='/static/experiments/beast_fmri_test/images/redT.png'></img>	go	1600.0	2.0	25.0	go	target	T	89,Middle Finger	71,Index Finger	1150.0	1350.0	1600.0	1400.0	1.0	1150.0	1.0	n/a	go_stim
121343.21577847027	2798.7842215297919	n/a	689	89	2750	2798.78422153	stim	stop-signal	444	1239920	0.0-19.25-1.25	beast_fmri_test	391	1237551,/,1238231,/,1238911,/,1239591,/,1240271,/,1240951,/,1241632,/,1242312,/	t,t,t,t,t,t,t,t	<img class = center src='/static/experiments/beast_fmri_test/images/T.png'></img>	89,71	2750.0	test	<img class = center src='/static/experiments/beast_fmri_test/images/redT.png'></img>	go	1600.0	2.0	25.0	go	target	T	89,Middle Finger	71,Index Finger	1150.0	1350.0	1600.0	1400.0	1.0	1150.0	1.0	n/a	ITI
127499	500	n/a	-1	-1	500	0.0	fixation	poldrack-single-stim	445	1243277	0.0-19.26-0.26	beast_fmri_test	391	1242993,/	t	<div class = centerbox2><div class = fixation>+</div></div>	none	500.0	test	n/a	n/a	n/a	n/a	n/a	n/a	n/a	n/a	n/a	n/a	n/a	n/a	n/a	n/a	n/a	n/a	n/a	n/a	fixation
127265.13412785833	2750	n/a	1061	71	2750	237.865872142	stim	stop-signal	446	1246031	0.0-19.26-1.26	beast_fmri_test	391	1243673,/,1244353,/,1245033,/,1245713,/	t,t,t,t	<img class = center src='/static/experiments/beast_fmri_test/images/P.png'></img>	89,71	2750.0	test	<img class = center src='/static/experiments/beast_fmri_test/images/redP.png'></img>	go	1600.0	2.0	26.0	go	target	P	89,Middle Finger	71,Index Finger	1150.0	1350.0	1600.0	1400.0	0.0	1150.0	0.0	n/a	go_stim
130015.13412785833	237.86587214156441	n/a	1061	71	2750	237.865872142	stim	stop-signal	446	1246031	0.0-19.26-1.26	beast_fmri_test	391	1243673,/,1244353,/,1245033,/,1245713,/	t,t,t,t	<img class = center src='/static/experiments/beast_fmri_test/images/P.png'></img>	89,71	2750.0	test	<img class = center src='/static/experiments/beast_fmri_test/images/redP.png'></img>	go	1600.0	2.0	26.0	go	target	P	89,Middle Finger	71,Index Finger	1150.0	1350.0	1600.0	1400.0	0.0	1150.0	0.0	n/a	ITI
131051	500	n/a	-1	-1	500	0.0	fixation	poldrack-single-stim	447	1246829	0.0-19.27-0.27	beast_fmri_test	391	1246394,/	t	<div class = centerbox2><div class = fixation>+</div></div>	none	500.0	test	n/a	n/a	n/a	n/a	n/a	n/a	n/a	n/a	n/a	n/a	n/a	n/a	n/a	n/a	n/a	n/a	n/a	n/a	fixation
128205.55354447314	1150.0	n/a	1148	89	2750	2850.44645553	stim	stop-signal	448	1249584	0.0-19.27-1.27	beast_fmri_test	391	1247074,/,1247755,/,1248435,/,1249115,/,1249796,/,1250475,/,1251155,/,1251836,/	t,t,t,t,t,t,t,t	<img class = center src='/static/experiments/beast_fmri_test/images/T.png'></img>	89,71	2750.0	test	<img class = center src='/static/experiments/beast_fmri_test/images/redT.png'></img>	stop	1600.0	2.0	27.0	stop	target	T	89,Middle Finger	71,Index Finger	1150.0	1350.0	1600.0	1400.0	0.0	1150.0	n/a	0.0	go_stim
129805.55354447314	1600.0	n/a	1148	89	2750	2850.44645553	stim	stop-signal	448	1249584	0.0-19.27-1.27	beast_fmri_test	391	1247074,/,1247755,/,1248435,/,1249115,/,1249796,/,1250475,/,1251155,/,1251836,/	t,t,t,t,t,t,t,t	<img class = center src='/static/experiments/beast_fmri_test/images/T.png'></img>	89,71	2750.0	test	<img class = center src='/static/experiments/beast_fmri_test/images/redT.png'></img>	stop	1600.0	2.0	27.0	stop	target	T	89,Middle Finger	71,Index Finger	1150.0	1350.0	1600.0	1400.0	0.0	1150.0	n/a	0.0	stop_stim
130955.55354447314	2850.4464555268491	n/a	1148	89	2750	2850.44645553	stim	stop-signal	448	1249584	0.0-19.27-1.27	beast_fmri_test	391	1247074,/,1247755,/,1248435,/,1249115,/,1249796,/,1250475,/,1251155,/,1251836,/	t,t,t,t,t,t,t,t	<img class = center src='/static/experiments/beast_fmri_test/images/T.png'></img>	89,71	2750.0	test	<img class = center src='/static/experiments/beast_fmri_test/images/redT.png'></img>	stop	1600.0	2.0	27.0	stop	target	T	89,Middle Finger	71,Index Finger	1150.0	1350.0	1600.0	1400.0	0.0	1150.0	n/a	0.0	ITI
137210	500	n/a	-1	-1	500	0.0	fixation	poldrack-single-stim	449	1252988	0.0-19.28-0.28	beast_fmri_test	391	1252516,/	t	<div class = centerbox2><div class = fixation>+</div></div>	none	500.0	test	n/a	n/a	n/a	n/a	n/a	n/a	n/a	n/a	n/a	n/a	n/a	n/a	n/a	n/a	n/a	n/a	n/a	n/a	fixation
137040.9504020561	1350.0	n/a	-1	-1	2750	176.049597944	stim	stop-signal	450	1255745	0.0-19.28-1.28	beast_fmri_test	391	1253198,/,1253878,/,1254558,/,1255238,/,1255919,/	t,t,t,t,t	<img class = center src='/static/experiments/beast_fmri_test/images/V.png'></img>	89,71	2750.0	test	<img class = center src='/static/experiments/beast_fmri_test/images/redV.png'></img>	stop	1400.0	2.0	28.0	stop	non-target	V	89,Middle Finger	71,Index Finger	1100.0	1350.0	1600.0	1400.0	0.0	1350.0	n/a	1.0	go_stim
138440.9504020561	1400.0	n/a	-1	-1	2750	176.049597944	stim	stop-signal	450	1255745	0.0-19.28-1.28	beast_fmri_test	391	1253198,/,1253878,/,1254558,/,1255238,/,1255919,/	t,t,t,t,t	<img class = center src='/static/experiments/beast_fmri_test/images/V.png'></img>	89,71	2750.0	test	<img class = center src='/static/experiments/beast_fmri_test/images/redV.png'></img>	stop	1400.0	2.0	28.0	stop	non-target	V	89,Middle Finger	71,Index Finger	1100.0	1350.0	1600.0	1400.0	0.0	1350.0	n/a	1.0	stop_stim
139790.9504020561	176.04959794394463	n/a	-1	-1	2750	176.049597944	stim	stop-signal	450	1255745	0.0-19.28-1.28	beast_fmri_test	391	1253198,/,1253878,/,1254558,/,1255238,/,1255919,/	t,t,t,t,t	<img class = center src='/static/experiments/beast_fmri_test/images/V.png'></img>	89,71	2750.0	test	<img class = center src='/static/experiments/beast_fmri_test/images/redV.png'></img>	stop	1400.0	2.0	28.0	stop	non-target	V	89,Middle Finger	71,Index Finger	1100.0	1350.0	1600.0	1400.0	0.0	1350.0	n/a	1.0	ITI
140697	500	n/a	-1	-1	500	0.0	fixation	poldrack-single-stim	451	1256475	0.0-19.29-0.29	beast_fmri_test	391	n/a	n/a	<div class = centerbox2><div class = fixation>+</div></div>	none	500.0	test	n/a	n/a	n/a	n/a	n/a	n/a	n/a	n/a	n/a	n/a	n/a	n/a	n/a	n/a	n/a	n/a	n/a	n/a	fixation
140478.93669111328	1400.0	n/a	-1	-1	2750	222.063308887	stim	stop-signal	452	1259229	0.0-19.29-1.29	beast_fmri_test	391	1256598,/,1257279,/,1257960,/,1258640,/,1259320,/	t,t,t,t,t	<img class = center src='/static/experiments/beast_fmri_test/images/P.png'></img>	89,71	2750.0	test	<img class = center src='/static/experiments/beast_fmri_test/images/redP.png'></img>	stop	1350.0	2.0	29.0	stop	non-target	P	89,Middle Finger	71,Index Finger	1100.0	1400.0	1600.0	1350.0	0.0	1400.0	n/a	1.0	go_stim
141828.93669111328	1350.0	n/a	-1	-1	2750	222.063308887	stim	stop-signal	452	1259229	0.0-19.29-1.29	beast_fmri_test	391	1256598,/,1257279,/,1257960,/,1258640,/,1259320,/	t,t,t,t,t	<img class = center src='/static/experiments/beast_fmri_test/images/P.png'></img>	89,71	2750.0	test	<img class = center src='/static/experiments/beast_fmri_test/images/redP.png'></img>	stop	1350.0	2.0	29.0	stop	non-target	P	89,Middle Finger	71,Index Finger	1100.0	1400.0	1600.0	1350.0	0.0	1400.0	n/a	1.0	stop_stim
143228.93669111328	222.06330888671462	n/a	-1	-1	2750	222.063308887	stim	stop-signal	452	1259229	0.0-19.29-1.29	beast_fmri_test	391	1256598,/,1257279,/,1257960,/,1258640,/,1259320,/	t,t,t,t,t	<img class = center src='/static/experiments/beast_fmri_test/images/P.png'></img>	89,71	2750.0	test	<img class = center src='/static/experiments/beast_fmri_test/images/redP.png'></img>	stop	1350.0	2.0	29.0	stop	non-target	P	89,Middle Finger	71,Index Finger	1100.0	1400.0	1600.0	1350.0	0.0	1400.0	n/a	1.0	ITI
144230	500	n/a	-1	-1	500	0.0	fixation	poldrack-single-stim	453	1260008	0.0-19.30-0.30	beast_fmri_test	391	1260000,/	t	<div class = centerbox2><div class = fixation>+</div></div>	none	500.0	test	n/a	n/a	n/a	n/a	n/a	n/a	n/a	n/a	n/a	n/a	n/a	n/a	n/a	n/a	n/a	n/a	n/a	n/a	fixation
142413.96542243194	2750	n/a	2088	71	2750	1821.03457757	stim	stop-signal	454	1262763	0.0-19.30-1.30	beast_fmri_test	391	1260681,/,1261361,/,1262041,/,1262722,/,1263402,/,1264081,/	t,t,t,t,t,t	<img class = center src='/static/experiments/beast_fmri_test/images/T.png'></img>	89,71	2750.0	test	<img class = center src='/static/experiments/beast_fmri_test/images/redT.png'></img>	go	1300.0	2.0	30.0	go	non-target	T	89,Middle Finger	71,Index Finger	1100.0	1450.0	1600.0	1300.0	1.0	1450.0	1.0	n/a	go_stim
145163.96542243194	1821.0345775680146	n/a	2088	71	2750	1821.03457757	stim	stop-signal	454	1262763	0.0-19.30-1.30	beast_fmri_test	391	1260681,/,1261361,/,1262041,/,1262722,/,1263402,/,1264081,/	t,t,t,t,t,t	<img class = center src='/static/experiments/beast_fmri_test/images/T.png'></img>	89,71	2750.0	test	<img class = center src='/static/experiments/beast_fmri_test/images/redT.png'></img>	go	1300.0	2.0	30.0	go	non-target	T	89,Middle Finger	71,Index Finger	1100.0	1450.0	1600.0	1300.0	1.0	1450.0	1.0	n/a	ITI
149361	500	n/a	-1	-1	500	0.0	fixation	poldrack-single-stim	455	1265139	0.0-19.31-0.31	beast_fmri_test	391	1264763,/	t	<div class = centerbox2><div class = fixation>+</div></div>	none	500.0	test	n/a	n/a	n/a	n/a	n/a	n/a	n/a	n/a	n/a	n/a	n/a	n/a	n/a	n/a	n/a	n/a	n/a	n/a	fixation
148965.4092329659	1450.0	n/a	1496	71	2750	400.590767034	stim	stop-signal	456	1267894	0.0-19.31-1.31	beast_fmri_test	391	1265443,/,1266123,/,1266803,/,1267484,/,1268163,/	t,t,t,t,t	<img class = center src='/static/experiments/beast_fmri_test/images/T.png'></img>	89,71	2750.0	test	<img class = center src='/static/experiments/beast_fmri_test/images/redT.png'></img>	stop	1300.0	2.0	31.0	stop	non-target	T	89,Middle Finger	71,Index Finger	1100.0	1450.0	1600.0	1300.0	0.0	1450.0	n/a	0.0	go_stim
150265.4092329659	1300.0	n/a	1496	71	2750	400.590767034	stim	stop-signal	456	1267894	0.0-19.31-1.31	beast_fmri_test	391	1265443,/,1266123,/,1266803,/,1267484,/,1268163,/	t,t,t,t,t	<img class = center src='/static/experiments/beast_fmri_test/images/T.png'></img>	89,71	2750.0	test	<img class = center src='/static/experiments/beast_fmri_test/images/redT.png'></img>	stop	1300.0	2.0	31.0	stop	non-target	T	89,Middle Finger	71,Index Finger	1100.0	1450.0	1600.0	1300.0	0.0	1450.0	n/a	0.0	stop_stim
151715.4092329659	400.59076703399802	n/a	1496	71	2750	400.590767034	stim	stop-signal	456	1267894	0.0-19.31-1.31	beast_fmri_test	391	1265443,/,1266123,/,1266803,/,1267484,/,1268163,/	t,t,t,t,t	<img class = center src='/static/experiments/beast_fmri_test/images/T.png'></img>	89,71	2750.0	test	<img class = center src='/static/experiments/beast_fmri_test/images/redT.png'></img>	stop	1300.0	2.0	31.0	stop	non-target	T	89,Middle Finger	71,Index Finger	1100.0	1450.0	1600.0	1300.0	0.0	1450.0	n/a	0.0	ITI
153071	500	n/a	-1	-1	500	0.0	fixation	poldrack-single-stim	457	1268849	0.0-19.32-0.32	beast_fmri_test	391	1268844,/	t	<div class = centerbox2><div class = fixation>+</div></div>	none	500.0	test	n/a	n/a	n/a	n/a	n/a	n/a	n/a	n/a	n/a	n/a	n/a	n/a	n/a	n/a	n/a	n/a	n/a	n/a	fixation
152787.40050739283	1400.0	n/a	-1	-1	2750	288.599492607	stim	stop-signal	458	1271604	0.0-19.32-1.32	beast_fmri_test	391	1269525,/,1270205,/,1270885,/,1271565,/	t,t,t,t	<img class = center src='/static/experiments/beast_fmri_test/images/B.png'></img>	89,71	2750.0	test	<img class = center src='/static/experiments/beast_fmri_test/images/redB.png'></img>	stop	1350.0	2.0	32.0	stop	non-target	B	89,Middle Finger	71,Index Finger	1100.0	1400.0	1600.0	1350.0	0.0	1400.0	n/a	1.0	go_stim
154137.40050739283	1350.0	n/a	-1	-1	2750	288.599492607	stim	stop-signal	458	1271604	0.0-19.32-1.32	beast_fmri_test	391	1269525,/,1270205,/,1270885,/,1271565,/	t,t,t,t	<img class = center src='/static/experiments/beast_fmri_test/images/B.png'></img>	89,71	2750.0	test	<img class = center src='/static/experiments/beast_fmri_test/images/redB.png'></img>	stop	1350.0	2.0	32.0	stop	non-target	B	89,Middle Finger	71,Index Finger	1100.0	1400.0	1600.0	1350.0	0.0	1400.0	n/a	1.0	stop_stim
155537.40050739283	288.59949260728831	n/a	-1	-1	2750	288.599492607	stim	stop-signal	458	1271604	0.0-19.32-1.32	beast_fmri_test	391	1269525,/,1270205,/,1270885,/,1271565,/	t,t,t,t	<img class = center src='/static/experiments/beast_fmri_test/images/B.png'></img>	89,71	2750.0	test	<img class = center src='/static/experiments/beast_fmri_test/images/redB.png'></img>	stop	1350.0	2.0	32.0	stop	non-target	B	89,Middle Finger	71,Index Finger	1100.0	1400.0	1600.0	1350.0	0.0	1400.0	n/a	1.0	ITI
156673	500	n/a	-1	-1	500	0.0	fixation	poldrack-single-stim	459	1272451	0.0-19.33-0.33	beast_fmri_test	391	1272246,/	t	<div class = centerbox2><div class = fixation>+</div></div>	none	500.0	test	n/a	n/a	n/a	n/a	n/a	n/a	n/a	n/a	n/a	n/a	n/a	n/a	n/a	n/a	n/a	n/a	n/a	n/a	fixation
153843.01705926098	2750	n/a	1876	89	2750	2833.98294074	stim	stop-signal	460	1275205	0.0-19.33-1.33	beast_fmri_test	391	1272925,/,1273606,/,1274286,/,1274966,/,1275646,/,1276327,/,1277007,/,1277687,/	t,t,t,t,t,t,t,t	<img class = center src='/static/experiments/beast_fmri_test/images/T.png'></img>	89,71	2750.0	test	<img class = center src='/static/experiments/beast_fmri_test/images/redT.png'></img>	go	1650.0	2.0	33.0	go	target	T	89,Middle Finger	71,Index Finger	1100.0	1450.0	1650.0	1350.0	1.0	1100.0	1.0	n/a	go_stim
156593.01705926098	2833.9829407389288	n/a	1876	89	2750	2833.98294074	stim	stop-signal	460	1275205	0.0-19.33-1.33	beast_fmri_test	391	1272925,/,1273606,/,1274286,/,1274966,/,1275646,/,1276327,/,1277007,/,1277687,/	t,t,t,t,t,t,t,t	<img class = center src='/static/experiments/beast_fmri_test/images/T.png'></img>	89,71	2750.0	test	<img class = center src='/static/experiments/beast_fmri_test/images/redT.png'></img>	go	1650.0	2.0	33.0	go	target	T	89,Middle Finger	71,Index Finger	1100.0	1450.0	1650.0	1350.0	1.0	1100.0	1.0	n/a	ITI
162818	500	n/a	-1	-1	500	0.0	fixation	poldrack-single-stim	461	1278596	0.0-19.34-0.34	beast_fmri_test	391	1278367,/	t	<div class = centerbox2><div class = fixation>+</div></div>	none	500.0	test	n/a	n/a	n/a	n/a	n/a	n/a	n/a	n/a	n/a	n/a	n/a	n/a	n/a	n/a	n/a	n/a	n/a	n/a	fixation
162773.70639813272	1100.0	n/a	-1	-1	2750	48.2936018672	stim	stop-signal	462	1281350	0.0-19.34-1.34	beast_fmri_test	391	1279048,/,1279727,/,1280409,/,1281090,/	t,t,t,t	<img class = center src='/static/experiments/beast_fmri_test/images/B.png'></img>	89,71	2750.0	test	<img class = center src='/static/experiments/beast_fmri_test/images/redB.png'></img>	stop	1650.0	2.0	34.0	stop	target	B	89,Middle Finger	71,Index Finger	1100.0	1450.0	1650.0	1350.0	0.0	1100.0	n/a	1.0	go_stim
164423.70639813272	1650.0	n/a	-1	-1	2750	48.2936018672	stim	stop-signal	462	1281350	0.0-19.34-1.34	beast_fmri_test	391	1279048,/,1279727,/,1280409,/,1281090,/	t,t,t,t	<img class = center src='/static/experiments/beast_fmri_test/images/B.png'></img>	89,71	2750.0	test	<img class = center src='/static/experiments/beast_fmri_test/images/redB.png'></img>	stop	1650.0	2.0	34.0	stop	target	B	89,Middle Finger	71,Index Finger	1100.0	1450.0	1650.0	1350.0	0.0	1100.0	n/a	1.0	stop_stim
165523.70639813272	48.293601867213972	n/a	-1	-1	2750	48.2936018672	stim	stop-signal	462	1281350	0.0-19.34-1.34	beast_fmri_test	391	1279048,/,1279727,/,1280409,/,1281090,/	t,t,t,t	<img class = center src='/static/experiments/beast_fmri_test/images/B.png'></img>	89,71	2750.0	test	<img class = center src='/static/experiments/beast_fmri_test/images/redB.png'></img>	stop	1650.0	2.0	34.0	stop	target	B	89,Middle Finger	71,Index Finger	1100.0	1450.0	1650.0	1350.0	0.0	1100.0	n/a	1.0	ITI
166181	500	n/a	-1	-1	500	0.0	fixation	poldrack-single-stim	463	1281959	0.0-19.35-0.35	beast_fmri_test	391	1281770,/	t	<div class = centerbox2><div class = fixation>+</div></div>	none	500.0	test	n/a	n/a	n/a	n/a	n/a	n/a	n/a	n/a	n/a	n/a	n/a	n/a	n/a	n/a	n/a	n/a	n/a	n/a	fixation
166087.30852962332	2750	n/a	1170	89	2750	96.6914703768	stim	stop-signal	464	1284712	0.0-19.35-1.35	beast_fmri_test	391	1282450,/,1283134,/,1283811,/,1284492,/	t,t,t,t	<img class = center src='/static/experiments/beast_fmri_test/images/T.png'></img>	89,71	2750.0	test	<img class = center src='/static/experiments/beast_fmri_test/images/redT.png'></img>	go	1600.0	2.0	35.0	go	target	T	89,Middle Finger	71,Index Finger	1150.0	1450.0	1600.0	1350.0	1.0	1150.0	1.0	n/a	go_stim
168837.30852962332	96.691470376752719	n/a	1170	89	2750	96.6914703768	stim	stop-signal	464	1284712	0.0-19.35-1.35	beast_fmri_test	391	1282450,/,1283134,/,1283811,/,1284492,/	t,t,t,t	<img class = center src='/static/experiments/beast_fmri_test/images/T.png'></img>	89,71	2750.0	test	<img class = center src='/static/experiments/beast_fmri_test/images/redT.png'></img>	go	1600.0	2.0	35.0	go	target	T	89,Middle Finger	71,Index Finger	1150.0	1450.0	1600.0	1350.0	1.0	1150.0	1.0	n/a	ITI
169589	500	n/a	-1	-1	500	0.0	fixation	poldrack-single-stim	465	1285367	0.0-19.36-0.36	beast_fmri_test	391	1285172,/	t	<div class = centerbox2><div class = fixation>+</div></div>	none	500.0	test	n/a	n/a	n/a	n/a	n/a	n/a	n/a	n/a	n/a	n/a	n/a	n/a	n/a	n/a	n/a	n/a	n/a	n/a	fixation
168343.25882135914	1150.0	n/a	-1	-1	2750	1249.74117864	stim	stop-signal	466	1288121	0.0-19.36-1.36	beast_fmri_test	391	1285852,/,1286532,/,1287212,/,1287893,/,1288573,/,1289253,/	t,t,t,t,t,t	<img class = center src='/static/experiments/beast_fmri_test/images/B.png'></img>	89,71	2750.0	test	<img class = center src='/static/experiments/beast_fmri_test/images/redB.png'></img>	stop	1600.0	2.0	36.0	stop	target	B	89,Middle Finger	71,Index Finger	1150.0	1450.0	1600.0	1350.0	0.0	1150.0	n/a	1.0	go_stim
169943.25882135914	1600.0	n/a	-1	-1	2750	1249.74117864	stim	stop-signal	466	1288121	0.0-19.36-1.36	beast_fmri_test	391	1285852,/,1286532,/,1287212,/,1287893,/,1288573,/,1289253,/	t,t,t,t,t,t	<img class = center src='/static/experiments/beast_fmri_test/images/B.png'></img>	89,71	2750.0	test	<img class = center src='/static/experiments/beast_fmri_test/images/redB.png'></img>	stop	1600.0	2.0	36.0	stop	target	B	89,Middle Finger	71,Index Finger	1150.0	1450.0	1600.0	1350.0	0.0	1150.0	n/a	1.0	stop_stim
171093.25882135914	1249.7411786407615	n/a	-1	-1	2750	1249.74117864	stim	stop-signal	466	1288121	0.0-19.36-1.36	beast_fmri_test	391	1285852,/,1286532,/,1287212,/,1287893,/,1288573,/,1289253,/	t,t,t,t,t,t	<img class = center src='/static/experiments/beast_fmri_test/images/B.png'></img>	89,71	2750.0	test	<img class = center src='/static/experiments/beast_fmri_test/images/redB.png'></img>	stop	1600.0	2.0	36.0	stop	target	B	89,Middle Finger	71,Index Finger	1150.0	1450.0	1600.0	1350.0	0.0	1150.0	n/a	1.0	ITI
174149	500	n/a	-1	-1	500	0.0	fixation	poldrack-single-stim	467	1289927	0.0-19.37-0.37	beast_fmri_test	391	n/a	n/a	<div class = centerbox2><div class = fixation>+</div></div>	none	500.0	test	n/a	n/a	n/a	n/a	n/a	n/a	n/a	n/a	n/a	n/a	n/a	n/a	n/a	n/a	n/a	n/a	n/a	n/a	fixation
172842.15017322171	2750	n/a	1687	71	2750	1310.84982678	stim	stop-signal	468	1292681	0.0-19.37-1.37	beast_fmri_test	391	1289933,/,1290614,/,1291294,/,1291974,/,1292655,/,1293334,/	t,t,t,t,t,t	<img class = center src='/static/experiments/beast_fmri_test/images/D.png'></img>	89,71	2750.0	test	<img class = center src='/static/experiments/beast_fmri_test/images/redD.png'></img>	go	1300.0	2.0	37.0	go	non-target	D	89,Middle Finger	71,Index Finger	1200.0	1450.0	1600.0	1300.0	1.0	1450.0	1.0	n/a	go_stim
175592.15017322171	1310.8498267783134	n/a	1687	71	2750	1310.84982678	stim	stop-signal	468	1292681	0.0-19.37-1.37	beast_fmri_test	391	1289933,/,1290614,/,1291294,/,1291974,/,1292655,/,1293334,/	t,t,t,t,t,t	<img class = center src='/static/experiments/beast_fmri_test/images/D.png'></img>	89,71	2750.0	test	<img class = center src='/static/experiments/beast_fmri_test/images/redD.png'></img>	go	1300.0	2.0	37.0	go	non-target	D	89,Middle Finger	71,Index Finger	1200.0	1450.0	1600.0	1300.0	1.0	1450.0	1.0	n/a	ITI
178783	500	n/a	-1	-1	500	0.0	fixation	poldrack-single-stim	469	1294561	0.0-19.38-0.38	beast_fmri_test	391	1294057,/	t	<div class = centerbox2><div class = fixation>+</div></div>	none	500.0	test	n/a	n/a	n/a	n/a	n/a	n/a	n/a	n/a	n/a	n/a	n/a	n/a	n/a	n/a	n/a	n/a	n/a	n/a	fixation
178759.44494778826	2750	n/a	1767	89	2750	26.5550522117	stim	stop-signal	470	1297314	0.0-19.38-1.38	beast_fmri_test	391	1294696,/,1295374,/,1296056,/,1296736,/	t,t,t,t	<img class = center src='/static/experiments/beast_fmri_test/images/T.png'></img>	89,71	2750.0	test	<img class = center src='/static/experiments/beast_fmri_test/images/redT.png'></img>	go	1300.0	2.0	38.0	go	non-target	T	89,Middle Finger	71,Index Finger	1200.0	1450.0	1600.0	1300.0	0.0	1450.0	0.0	n/a	go_stim
181509.44494778826	26.55505221166224	n/a	1767	89	2750	26.5550522117	stim	stop-signal	470	1297314	0.0-19.38-1.38	beast_fmri_test	391	1294696,/,1295374,/,1296056,/,1296736,/	t,t,t,t	<img class = center src='/static/experiments/beast_fmri_test/images/T.png'></img>	89,71	2750.0	test	<img class = center src='/static/experiments/beast_fmri_test/images/redT.png'></img>	go	1300.0	2.0	38.0	go	non-target	T	89,Middle Finger	71,Index Finger	1200.0	1450.0	1600.0	1300.0	0.0	1450.0	0.0	n/a	ITI
182113	500	n/a	-1	-1	500	0.0	fixation	poldrack-single-stim	471	1297891	0.0-19.39-0.39	beast_fmri_test	391	1297415,/	t	<div class = centerbox2><div class = fixation>+</div></div>	none	500.0	test	n/a	n/a	n/a	n/a	n/a	n/a	n/a	n/a	n/a	n/a	n/a	n/a	n/a	n/a	n/a	n/a	n/a	n/a	fixation
180320.51267864788	2750	n/a	1381	71	2750	1796.48732135	stim	stop-signal	472	1300645	0.0-19.39-1.39	beast_fmri_test	391	1298097,/,1298777,/,1299458,/,1300138,/,1300818,/,1301498,/,1302178,/	t,t,t,t,t,t,t	<img class = center src='/static/experiments/beast_fmri_test/images/T.png'></img>	89,71	2750.0	test	<img class = center src='/static/experiments/beast_fmri_test/images/redT.png'></img>	go	1300.0	2.0	39.0	go	non-target	T	89,Middle Finger	71,Index Finger	1200.0	1450.0	1600.0	1300.0	1.0	1450.0	1.0	n/a	go_stim
183070.51267864788	1796.4873213521091	n/a	1381	71	2750	1796.48732135	stim	stop-signal	472	1300645	0.0-19.39-1.39	beast_fmri_test	391	1298097,/,1298777,/,1299458,/,1300138,/,1300818,/,1301498,/,1302178,/	t,t,t,t,t,t,t	<img class = center src='/static/experiments/beast_fmri_test/images/T.png'></img>	89,71	2750.0	test	<img class = center src='/static/experiments/beast_fmri_test/images/redT.png'></img>	go	1300.0	2.0	39.0	go	non-target	T	89,Middle Finger	71,Index Finger	1200.0	1450.0	1600.0	1300.0	1.0	1450.0	1.0	n/a	ITI
187219	500	n/a	-1	-1	500	0.0	fixation	poldrack-single-stim	473	1302997	0.0-19.40-0.40	beast_fmri_test	391	1302860,/	t	<div class = centerbox2><div class = fixation>+</div></div>	none	500.0	test	n/a	n/a	n/a	n/a	n/a	n/a	n/a	n/a	n/a	n/a	n/a	n/a	n/a	n/a	n/a	n/a	n/a	n/a	fixation
186115.66952639399	2750	n/a	1268	71	2750	1109.33047361	stim	stop-signal	474	1305753	0.0-19.40-1.40	beast_fmri_test	391	1303539,/,1304219,/,1304900,/,1305580,/,1306260,/	t,t,t,t,t	<img class = center src='/static/experiments/beast_fmri_test/images/B.png'></img>	89,71	2750.0	test	<img class = center src='/static/experiments/beast_fmri_test/images/redB.png'></img>	go	1300.0	2.0	40.0	go	non-target	B	89,Middle Finger	71,Index Finger	1200.0	1450.0	1600.0	1300.0	1.0	1450.0	1.0	n/a	go_stim
188865.66952639399	1109.3304736060325	n/a	1268	71	2750	1109.33047361	stim	stop-signal	474	1305753	0.0-19.40-1.40	beast_fmri_test	391	1303539,/,1304219,/,1304900,/,1305580,/,1306260,/	t,t,t,t,t	<img class = center src='/static/experiments/beast_fmri_test/images/B.png'></img>	89,71	2750.0	test	<img class = center src='/static/experiments/beast_fmri_test/images/redB.png'></img>	go	1300.0	2.0	40.0	go	non-target	B	89,Middle Finger	71,Index Finger	1200.0	1450.0	1600.0	1300.0	1.0	1450.0	1.0	n/a	ITI
191641	500	n/a	-1	-1	500	0.0	fixation	poldrack-single-stim	475	1307419	0.0-19.41-0.41	beast_fmri_test	391	1306940,/	t	<div class = centerbox2><div class = fixation>+</div></div>	none	500.0	test	n/a	n/a	n/a	n/a	n/a	n/a	n/a	n/a	n/a	n/a	n/a	n/a	n/a	n/a	n/a	n/a	n/a	n/a	fixation
188832.68834482296	1200.0	n/a	-1	-1	2750	2813.31165518	stim	stop-signal	476	1310174	0.0-19.41-1.41	beast_fmri_test	391	1307621,/,1308301,/,1308981,/,1309662,/,1310341,/,1311023,/,1311703,/,1312384,/	t,t,t,t,t,t,t,t	<img class = center src='/static/experiments/beast_fmri_test/images/T.png'></img>	89,71	2750.0	test	<img class = center src='/static/experiments/beast_fmri_test/images/redT.png'></img>	stop	1550.0	2.0	41.0	stop	target	T	89,Middle Finger	71,Index Finger	1200.0	1450.0	1550.0	1300.0	0.0	1200.0	n/a	1.0	go_stim
190382.68834482296	1550.0	n/a	-1	-1	2750	2813.31165518	stim	stop-signal	476	1310174	0.0-19.41-1.41	beast_fmri_test	391	1307621,/,1308301,/,1308981,/,1309662,/,1310341,/,1311023,/,1311703,/,1312384,/	t,t,t,t,t,t,t,t	<img class = center src='/static/experiments/beast_fmri_test/images/T.png'></img>	89,71	2750.0	test	<img class = center src='/static/experiments/beast_fmri_test/images/redT.png'></img>	stop	1550.0	2.0	41.0	stop	target	T	89,Middle Finger	71,Index Finger	1200.0	1450.0	1550.0	1300.0	0.0	1200.0	n/a	1.0	stop_stim
191582.68834482296	2813.3116551771104	n/a	-1	-1	2750	2813.31165518	stim	stop-signal	476	1310174	0.0-19.41-1.41	beast_fmri_test	391	1307621,/,1308301,/,1308981,/,1309662,/,1310341,/,1311023,/,1311703,/,1312384,/	t,t,t,t,t,t,t,t	<img class = center src='/static/experiments/beast_fmri_test/images/T.png'></img>	89,71	2750.0	test	<img class = center src='/static/experiments/beast_fmri_test/images/redT.png'></img>	stop	1550.0	2.0	41.0	stop	target	T	89,Middle Finger	71,Index Finger	1200.0	1450.0	1550.0	1300.0	0.0	1200.0	n/a	1.0	ITI
197765	500	n/a	-1	-1	500	0.0	fixation	poldrack-single-stim	477	1313543	0.0-19.42-0.42	beast_fmri_test	391	1313063,/	t	<div class = centerbox2><div class = fixation>+</div></div>	none	500.0	test	n/a	n/a	n/a	n/a	n/a	n/a	n/a	n/a	n/a	n/a	n/a	n/a	n/a	n/a	n/a	n/a	n/a	n/a	fixation
196167.01477306383	2750	n/a	1941	71	2750	1601.98522694	stim	stop-signal	478	1316297	0.0-19.42-1.42	beast_fmri_test	391	1313744,/,1314425,/,1315105,/,1315785,/,1316464,/,1317145,/,1317826,/	t,t,t,t,t,t,t	<img class = center src='/static/experiments/beast_fmri_test/images/V.png'></img>	89,71	2750.0	test	<img class = center src='/static/experiments/beast_fmri_test/images/redV.png'></img>	go	1300.0	2.0	42.0	go	non-target	V	89,Middle Finger	71,Index Finger	1250.0	1450.0	1550.0	1300.0	1.0	1450.0	1.0	n/a	go_stim
198917.01477306383	1601.9852269362279	n/a	1941	71	2750	1601.98522694	stim	stop-signal	478	1316297	0.0-19.42-1.42	beast_fmri_test	391	1313744,/,1314425,/,1315105,/,1315785,/,1316464,/,1317145,/,1317826,/	t,t,t,t,t,t,t	<img class = center src='/static/experiments/beast_fmri_test/images/V.png'></img>	89,71	2750.0	test	<img class = center src='/static/experiments/beast_fmri_test/images/redV.png'></img>	go	1300.0	2.0	42.0	go	non-target	V	89,Middle Finger	71,Index Finger	1250.0	1450.0	1550.0	1300.0	1.0	1450.0	1.0	n/a	ITI
202677	500	n/a	-1	-1	500	0.0	fixation	poldrack-single-stim	479	1318455	0.0-19.43-0.43	beast_fmri_test	391	n/a	n/a	<div class = centerbox2><div class = fixation>+</div></div>	none	500.0	test	n/a	n/a	n/a	n/a	n/a	n/a	n/a	n/a	n/a	n/a	n/a	n/a	n/a	n/a	n/a	n/a	n/a	n/a	fixation
201522.59833631036	2750	n/a	1098	71	2750	1158.40166369	stim	stop-signal	480	1321209	0.0-19.43-1.43	beast_fmri_test	391	1318506,/,1319187,/,1319867,/,1320547,/,1321226,/,1321908,/	t,t,t,t,t,t	<img class = center src='/static/experiments/beast_fmri_test/images/D.png'></img>	89,71	2750.0	test	<img class = center src='/static/experiments/beast_fmri_test/images/redD.png'></img>	go	1300.0	2.0	43.0	go	non-target	D	89,Middle Finger	71,Index Finger	1250.0	1450.0	1550.0	1300.0	1.0	1450.0	1.0	n/a	go_stim
204272.59833631036	1158.4016636896167	n/a	1098	71	2750	1158.40166369	stim	stop-signal	480	1321209	0.0-19.43-1.43	beast_fmri_test	391	1318506,/,1319187,/,1319867,/,1320547,/,1321226,/,1321908,/	t,t,t,t,t,t	<img class = center src='/static/experiments/beast_fmri_test/images/D.png'></img>	89,71	2750.0	test	<img class = center src='/static/experiments/beast_fmri_test/images/redD.png'></img>	go	1300.0	2.0	43.0	go	non-target	D	89,Middle Finger	71,Index Finger	1250.0	1450.0	1550.0	1300.0	1.0	1450.0	1.0	n/a	ITI
207145	500	n/a	-1	-1	500	0.0	fixation	poldrack-single-stim	481	1322923	0.0-19.44-0.44	beast_fmri_test	391	1322588,/	t	<div class = centerbox2><div class = fixation>+</div></div>	none	500.0	test	n/a	n/a	n/a	n/a	n/a	n/a	n/a	n/a	n/a	n/a	n/a	n/a	n/a	n/a	n/a	n/a	n/a	n/a	fixation
205626.08623075881	1450.0	n/a	-1	-1	2750	1522.91376924	stim	stop-signal	482	1325677	0.0-19.44-1.44	beast_fmri_test	391	1323268,/,1323949,/,1324629,/,1325309,/,1325989,/,1326670,/	t,t,t,t,t,t	<img class = center src='/static/experiments/beast_fmri_test/images/D.png'></img>	89,71	2750.0	test	<img class = center src='/static/experiments/beast_fmri_test/images/redD.png'></img>	stop	1300.0	2.0	44.0	stop	non-target	D	89,Middle Finger	71,Index Finger	1250.0	1450.0	1550.0	1300.0	0.0	1450.0	n/a	1.0	go_stim
206926.08623075881	1300.0	n/a	-1	-1	2750	1522.91376924	stim	stop-signal	482	1325677	0.0-19.44-1.44	beast_fmri_test	391	1323268,/,1323949,/,1324629,/,1325309,/,1325989,/,1326670,/	t,t,t,t,t,t	<img class = center src='/static/experiments/beast_fmri_test/images/D.png'></img>	89,71	2750.0	test	<img class = center src='/static/experiments/beast_fmri_test/images/redD.png'></img>	stop	1300.0	2.0	44.0	stop	non-target	D	89,Middle Finger	71,Index Finger	1250.0	1450.0	1550.0	1300.0	0.0	1450.0	n/a	1.0	stop_stim
208376.08623075881	1522.9137692413026	n/a	-1	-1	2750	1522.91376924	stim	stop-signal	482	1325677	0.0-19.44-1.44	beast_fmri_test	391	1323268,/,1323949,/,1324629,/,1325309,/,1325989,/,1326670,/	t,t,t,t,t,t	<img class = center src='/static/experiments/beast_fmri_test/images/D.png'></img>	89,71	2750.0	test	<img class = center src='/static/experiments/beast_fmri_test/images/redD.png'></img>	stop	1300.0	2.0	44.0	stop	non-target	D	89,Middle Finger	71,Index Finger	1250.0	1450.0	1550.0	1300.0	0.0	1450.0	n/a	1.0	ITI
211976	500	n/a	-1	-1	500	0.0	fixation	poldrack-single-stim	483	1327754	0.0-19.45-0.45	beast_fmri_test	391	1327349,/	t	<div class = centerbox2><div class = fixation>+</div></div>	none	500.0	test	n/a	n/a	n/a	n/a	n/a	n/a	n/a	n/a	n/a	n/a	n/a	n/a	n/a	n/a	n/a	n/a	n/a	n/a	fixation
211133.50973578217	2750	n/a	2454	71	2750	847.490264218	stim	stop-signal	484	1330509	0.0-19.45-1.45	beast_fmri_test	391	1328031,/,1328711,/,1329391,/,1330071,/,1330751,/	t,t,t,t,t	<img class = center src='/static/experiments/beast_fmri_test/images/V.png'></img>	89,71	2750.0	test	<img class = center src='/static/experiments/beast_fmri_test/images/redV.png'></img>	go	1250.0	2.0	45.0	go	non-target	V	89,Middle Finger	71,Index Finger	1250.0	1500.0	1550.0	1250.0	1.0	1500.0	1.0	n/a	go_stim
213883.50973578217	847.49026421773738	n/a	2454	71	2750	847.490264218	stim	stop-signal	484	1330509	0.0-19.45-1.45	beast_fmri_test	391	1328031,/,1328711,/,1329391,/,1330071,/,1330751,/	t,t,t,t,t	<img class = center src='/static/experiments/beast_fmri_test/images/V.png'></img>	89,71	2750.0	test	<img class = center src='/static/experiments/beast_fmri_test/images/redV.png'></img>	go	1250.0	2.0	45.0	go	non-target	V	89,Middle Finger	71,Index Finger	1250.0	1500.0	1550.0	1250.0	1.0	1500.0	1.0	n/a	ITI
216138	500	n/a	-1	-1	500	0.0	fixation	poldrack-single-stim	485	1331916	0.0-19.46-0.46	beast_fmri_test	391	1331432,/	t	<div class = centerbox2><div class = fixation>+</div></div>	none	500.0	test	n/a	n/a	n/a	n/a	n/a	n/a	n/a	n/a	n/a	n/a	n/a	n/a	n/a	n/a	n/a	n/a	n/a	n/a	fixation
215479.96946265665	2750	n/a	1498	71	2750	662.030537343	stim	stop-signal	486	1334670	0.0-19.46-1.46	beast_fmri_test	391	1332112,/,1332792,/,1333473,/,1334152,/,1334833,/	t,t,t,t,t	<img class = center src='/static/experiments/beast_fmri_test/images/V.png'></img>	89,71	2750.0	test	<img class = center src='/static/experiments/beast_fmri_test/images/redV.png'></img>	go	1250.0	2.0	46.0	go	non-target	V	89,Middle Finger	71,Index Finger	1250.0	1500.0	1550.0	1250.0	1.0	1500.0	1.0	n/a	go_stim
218229.96946265665	662.03053734340563	n/a	1498	71	2750	662.030537343	stim	stop-signal	486	1334670	0.0-19.46-1.46	beast_fmri_test	391	1332112,/,1332792,/,1333473,/,1334152,/,1334833,/	t,t,t,t,t	<img class = center src='/static/experiments/beast_fmri_test/images/V.png'></img>	89,71	2750.0	test	<img class = center src='/static/experiments/beast_fmri_test/images/redV.png'></img>	go	1250.0	2.0	46.0	go	non-target	V	89,Middle Finger	71,Index Finger	1250.0	1500.0	1550.0	1250.0	1.0	1500.0	1.0	n/a	ITI
234617	15000	n/a	-1	-1	15000	0.0	practice-no-stop-feedback	poldrack-single-stim	487	1350395	0.0-20.0	beast_fmri_test	391	1335513,/,1336194,/,1336874,/,1337555,/,1338234,/,1338915,/,1339596,/,1340276,/,1340957,/,1341637,/,1342317,/,1342997,/,1343678,/,1344357,/,1345038,/,1345719,/,1346399,/,1347079,/,1347759,/,1348439,/,1349120,/,1349800,/	t,t,t,t,t,t,t,t,t,t,t,t,t,t,t,t,t,t,t,t,t,t	"<div class = ""centerbox2_2""><p class = ""block-text2"">Your delay is 2 trials.</p><p class = block-text2>Please wait for the scanner to start the block</p></div>"	77	15000.0	n/a	n/a	n/a	n/a	n/a	n/a	n/a	n/a	n/a	n/a	n/a	n/a	n/a	n/a	n/a	n/a	n/a	n/a	n/a	practice-no-stop-feedback
235121	500	n/a	-1	-1	500	0.0	fixation	poldrack-single-stim	488	1350899	0.0-21.0-0.0	beast_fmri_test	391	1350480,/	t	<div class = centerbox2><div class = fixation>+</div></div>	none	500.0	test	n/a	n/a	n/a	n/a	n/a	n/a	n/a	n/a	n/a	n/a	n/a	n/a	n/a	n/a	n/a	n/a	n/a	n/a	fixation
234836.1839881239	2750	n/a	722	71	2750	289.816011876	stim	stop-signal	489	1353654	0.0-21.0-1.0	beast_fmri_test	391	1351161,/,1351841,/,1352520,/,1353201,/,1353881,/	t,t,t,t,t	<img class = center src='/static/experiments/beast_fmri_test/images/P.png'></img>	89,71	2750.0	test	<img class = center src='/static/experiments/beast_fmri_test/images/redP.png'></img>	go	-1.0	2.0	0.0	go	temp-non-target	P	89,Middle Finger	71,Index Finger	1250.0	1500.0	1550.0	1250.0	0.0	n/a	n/a	n/a	go_stim
237586.1839881239	289.81601187599188	n/a	722	71	2750	289.816011876	stim	stop-signal	489	1353654	0.0-21.0-1.0	beast_fmri_test	391	1351161,/,1351841,/,1352520,/,1353201,/,1353881,/	t,t,t,t,t	<img class = center src='/static/experiments/beast_fmri_test/images/P.png'></img>	89,71	2750.0	test	<img class = center src='/static/experiments/beast_fmri_test/images/redP.png'></img>	go	-1.0	2.0	0.0	go	temp-non-target	P	89,Middle Finger	71,Index Finger	1250.0	1500.0	1550.0	1250.0	0.0	n/a	n/a	n/a	ITI
238721	500	n/a	-1	-1	500	0.0	fixation	poldrack-single-stim	490	1354499	0.0-21.1-0.1	beast_fmri_test	391	n/a	n/a	<div class = centerbox2><div class = fixation>+</div></div>	none	500.0	test	n/a	n/a	n/a	n/a	n/a	n/a	n/a	n/a	n/a	n/a	n/a	n/a	n/a	n/a	n/a	n/a	n/a	n/a	fixation
238701.86878322368	temp_go_duration	n/a	571	71	2750	24.1312167764	stim	stop-signal	491	1357254	0.0-21.1-1.1	beast_fmri_test	391	1354562,/,1355241,/,1355922,/,1356603,/	t,t,t,t	<img class = center src='/static/experiments/beast_fmri_test/images/V.png'></img>	89,71	2750.0	test	<img class = center src='/static/experiments/beast_fmri_test/images/redV.png'></img>	stop	-1.0	2.0	1.0	stop	temp-non-target	V	89,Middle Finger	71,Index Finger	1250.0	1500.0	1550.0	1250.0	0.0	n/a	n/a	0.0	go_stim
temp-non-target	temp_stop_duration	n/a	571	71	2750	24.1312167764	stim	stop-signal	491	1357254	0.0-21.1-1.1	beast_fmri_test	391	1354562,/,1355241,/,1355922,/,1356603,/	t,t,t,t	<img class = center src='/static/experiments/beast_fmri_test/images/V.png'></img>	89,71	2750.0	test	<img class = center src='/static/experiments/beast_fmri_test/images/redV.png'></img>	stop	-1.0	2.0	1.0	stop	temp-non-target	V	89,Middle Finger	71,Index Finger	1250.0	1500.0	1550.0	1250.0	0.0	n/a	n/a	0.0	stop_stim
241451.86878322368	24.131216776407445	n/a	571	71	2750	24.1312167764	stim	stop-signal	491	1357254	0.0-21.1-1.1	beast_fmri_test	391	1354562,/,1355241,/,1355922,/,1356603,/	t,t,t,t	<img class = center src='/static/experiments/beast_fmri_test/images/V.png'></img>	89,71	2750.0	test	<img class = center src='/static/experiments/beast_fmri_test/images/redV.png'></img>	stop	-1.0	2.0	1.0	stop	temp-non-target	V	89,Middle Finger	71,Index Finger	1250.0	1500.0	1550.0	1250.0	0.0	n/a	n/a	0.0	ITI
242057	500	n/a	-1	-1	500	0.0	fixation	poldrack-single-stim	492	1357835	0.0-21.2-0.2	beast_fmri_test	391	1357333,/	t	<div class = centerbox2><div class = fixation>+</div></div>	none	500.0	test	n/a	n/a	n/a	n/a	n/a	n/a	n/a	n/a	n/a	n/a	n/a	n/a	n/a	n/a	n/a	n/a	n/a	n/a	fixation
241797.48961804505	2750	n/a	754	71	2750	263.510381955	stim	stop-signal	493	1360589	0.0-21.2-1.2	beast_fmri_test	391	1357963,/,1358643,/,1359324,/,1360004,/,1360684,/	t,t,t,t,t	<img class = center src='/static/experiments/beast_fmri_test/images/D.png'></img>	89,71	2750.0	test	<img class = center src='/static/experiments/beast_fmri_test/images/redD.png'></img>	go	1250.0	2.0	2.0	go	non-target	D	89,Middle Finger	71,Index Finger	1250.0	1500.0	1550.0	1250.0	1.0	1500.0	1.0	n/a	go_stim
244547.48961804505	263.51038195484387	n/a	754	71	2750	263.510381955	stim	stop-signal	493	1360589	0.0-21.2-1.2	beast_fmri_test	391	1357963,/,1358643,/,1359324,/,1360004,/,1360684,/	t,t,t,t,t	<img class = center src='/static/experiments/beast_fmri_test/images/D.png'></img>	89,71	2750.0	test	<img class = center src='/static/experiments/beast_fmri_test/images/redD.png'></img>	go	1250.0	2.0	2.0	go	non-target	D	89,Middle Finger	71,Index Finger	1250.0	1500.0	1550.0	1250.0	1.0	1500.0	1.0	n/a	ITI
245638	500	n/a	-1	-1	500	0.0	fixation	poldrack-single-stim	494	1361416	0.0-21.3-0.3	beast_fmri_test	391	1361365,/	t	<div class = centerbox2><div class = fixation>+</div></div>	none	500.0	test	n/a	n/a	n/a	n/a	n/a	n/a	n/a	n/a	n/a	n/a	n/a	n/a	n/a	n/a	n/a	n/a	n/a	n/a	fixation
243379.0229675239	2750	n/a	800	71	2750	2263.97703248	stim	stop-signal	495	1364171	0.0-21.3-1.3	beast_fmri_test	391	1362045,/,1362725,/,1363405,/,1364086,/,1364766,/,1365447,/,1366127,/	t,t,t,t,t,t,t	<img class = center src='/static/experiments/beast_fmri_test/images/D.png'></img>	89,71	2750.0	test	<img class = center src='/static/experiments/beast_fmri_test/images/redD.png'></img>	go	1250.0	2.0	3.0	go	non-target	D	89,Middle Finger	71,Index Finger	1250.0	1500.0	1550.0	1250.0	1.0	1500.0	1.0	n/a	go_stim
246129.0229675239	2263.977032476143	n/a	800	71	2750	2263.97703248	stim	stop-signal	495	1364171	0.0-21.3-1.3	beast_fmri_test	391	1362045,/,1362725,/,1363405,/,1364086,/,1364766,/,1365447,/,1366127,/	t,t,t,t,t,t,t	<img class = center src='/static/experiments/beast_fmri_test/images/D.png'></img>	89,71	2750.0	test	<img class = center src='/static/experiments/beast_fmri_test/images/redD.png'></img>	go	1250.0	2.0	3.0	go	non-target	D	89,Middle Finger	71,Index Finger	1250.0	1500.0	1550.0	1250.0	1.0	1500.0	1.0	n/a	ITI
251213	500	n/a	-1	-1	500	0.0	fixation	poldrack-single-stim	496	1366991	0.0-21.4-0.4	beast_fmri_test	391	1366811,/	t	<div class = centerbox2><div class = fixation>+</div></div>	none	500.0	test	n/a	n/a	n/a	n/a	n/a	n/a	n/a	n/a	n/a	n/a	n/a	n/a	n/a	n/a	n/a	n/a	n/a	n/a	fixation
251091.9081213933	2750	n/a	794	89	2750	127.091878607	stim	stop-signal	497	1369747	0.0-21.4-1.4	beast_fmri_test	391	1367489,/,1368168,/,1368849,/,1369530,/	t,t,t,t	<img class = center src='/static/experiments/beast_fmri_test/images/D.png'></img>	89,71	2750.0	test	<img class = center src='/static/experiments/beast_fmri_test/images/redD.png'></img>	go	1500.0	2.0	4.0	go	target	D	89,Middle Finger	71,Index Finger	1250.0	1500.0	1500.0	1250.0	1.0	1250.0	1.0	n/a	go_stim
253841.9081213933	127.09187860675623	n/a	794	89	2750	127.091878607	stim	stop-signal	497	1369747	0.0-21.4-1.4	beast_fmri_test	391	1367489,/,1368168,/,1368849,/,1369530,/	t,t,t,t	<img class = center src='/static/experiments/beast_fmri_test/images/D.png'></img>	89,71	2750.0	test	<img class = center src='/static/experiments/beast_fmri_test/images/redD.png'></img>	go	1500.0	2.0	4.0	go	target	D	89,Middle Finger	71,Index Finger	1250.0	1500.0	1500.0	1250.0	1.0	1250.0	1.0	n/a	ITI
254650	500	n/a	-1	-1	500	0.0	fixation	poldrack-single-stim	498	1370428	0.0-21.5-0.5	beast_fmri_test	391	1370209,/	t	<div class = centerbox2><div class = fixation>+</div></div>	none	500.0	test	n/a	n/a	n/a	n/a	n/a	n/a	n/a	n/a	n/a	n/a	n/a	n/a	n/a	n/a	n/a	n/a	n/a	n/a	fixation
252014.78311792412	2750	n/a	1253	89	2750	2638.21688208	stim	stop-signal	499	1373181	0.0-21.5-1.5	beast_fmri_test	391	1370889,/,1371570,/,1372250,/,1372929,/,1373611,/,1374291,/,1374971,/,1375652,/	t,t,t,t,t,t,t,t	<img class = center src='/static/experiments/beast_fmri_test/images/D.png'></img>	89,71	2750.0	test	<img class = center src='/static/experiments/beast_fmri_test/images/redD.png'></img>	go	1500.0	2.0	5.0	go	target	D	89,Middle Finger	71,Index Finger	1250.0	1500.0	1500.0	1250.0	1.0	1250.0	1.0	n/a	go_stim
254764.78311792412	2638.2168820759243	n/a	1253	89	2750	2638.21688208	stim	stop-signal	499	1373181	0.0-21.5-1.5	beast_fmri_test	391	1370889,/,1371570,/,1372250,/,1372929,/,1373611,/,1374291,/,1374971,/,1375652,/	t,t,t,t,t,t,t,t	<img class = center src='/static/experiments/beast_fmri_test/images/D.png'></img>	89,71	2750.0	test	<img class = center src='/static/experiments/beast_fmri_test/images/redD.png'></img>	go	1500.0	2.0	5.0	go	target	D	89,Middle Finger	71,Index Finger	1250.0	1500.0	1500.0	1250.0	1.0	1250.0	1.0	n/a	ITI
260594	500	n/a	-1	-1	500	0.0	fixation	poldrack-single-stim	500	1376372	0.0-21.6-0.6	beast_fmri_test	391	1376332,/	t	<div class = centerbox2><div class = fixation>+</div></div>	none	500.0	test	n/a	n/a	n/a	n/a	n/a	n/a	n/a	n/a	n/a	n/a	n/a	n/a	n/a	n/a	n/a	n/a	n/a	n/a	fixation
258770.07341887197	2750	n/a	699	89	2750	1828.92658113	stim	stop-signal	501	1379127	0.0-21.6-1.6	beast_fmri_test	391	1377012,/,1377692,/,1378372,/,1379053,/,1379733,/,1380414,/	t,t,t,t,t,t	<img class = center src='/static/experiments/beast_fmri_test/images/D.png'></img>	89,71	2750.0	test	<img class = center src='/static/experiments/beast_fmri_test/images/redD.png'></img>	go	1500.0	2.0	6.0	go	target	D	89,Middle Finger	71,Index Finger	1250.0	1500.0	1500.0	1250.0	1.0	1250.0	1.0	n/a	go_stim
261520.07341887197	1828.9265811281321	n/a	699	89	2750	1828.92658113	stim	stop-signal	501	1379127	0.0-21.6-1.6	beast_fmri_test	391	1377012,/,1377692,/,1378372,/,1379053,/,1379733,/,1380414,/	t,t,t,t,t,t	<img class = center src='/static/experiments/beast_fmri_test/images/D.png'></img>	89,71	2750.0	test	<img class = center src='/static/experiments/beast_fmri_test/images/redD.png'></img>	go	1500.0	2.0	6.0	go	target	D	89,Middle Finger	71,Index Finger	1250.0	1500.0	1500.0	1250.0	1.0	1250.0	1.0	n/a	ITI
265734	500	n/a	-1	-1	500	0.0	fixation	poldrack-single-stim	502	1381512	0.0-21.7-0.7	beast_fmri_test	391	1381094,/	t	<div class = centerbox2><div class = fixation>+</div></div>	none	500.0	test	n/a	n/a	n/a	n/a	n/a	n/a	n/a	n/a	n/a	n/a	n/a	n/a	n/a	n/a	n/a	n/a	n/a	n/a	fixation
264659.53575195209	2750	n/a	1427	89	2750	1078.46424805	stim	stop-signal	503	1384266	0.0-21.7-1.7	beast_fmri_test	391	1381774,/,1382453,/,1383134,/,1383815,/,1384495,/,1385175,/	t,t,t,t,t,t	<img class = center src='/static/experiments/beast_fmri_test/images/D.png'></img>	89,71	2750.0	test	<img class = center src='/static/experiments/beast_fmri_test/images/redD.png'></img>	go	1500.0	2.0	7.0	go	target	D	89,Middle Finger	71,Index Finger	1250.0	1500.0	1500.0	1250.0	1.0	1250.0	1.0	n/a	go_stim
267409.53575195209	1078.4642480479934	n/a	1427	89	2750	1078.46424805	stim	stop-signal	503	1384266	0.0-21.7-1.7	beast_fmri_test	391	1381774,/,1382453,/,1383134,/,1383815,/,1384495,/,1385175,/	t,t,t,t,t,t	<img class = center src='/static/experiments/beast_fmri_test/images/D.png'></img>	89,71	2750.0	test	<img class = center src='/static/experiments/beast_fmri_test/images/redD.png'></img>	go	1500.0	2.0	7.0	go	target	D	89,Middle Finger	71,Index Finger	1250.0	1500.0	1500.0	1250.0	1.0	1250.0	1.0	n/a	ITI
270121	500	n/a	-1	-1	500	0.0	fixation	poldrack-single-stim	504	1385899	0.0-21.8-0.8	beast_fmri_test	391	1385856,/	t	<div class = centerbox2><div class = fixation>+</div></div>	none	500.0	test	n/a	n/a	n/a	n/a	n/a	n/a	n/a	n/a	n/a	n/a	n/a	n/a	n/a	n/a	n/a	n/a	n/a	n/a	fixation
267860.34379873425	2750	n/a	1633	89	2750	2263.65620127	stim	stop-signal	505	1388652	0.0-21.8-1.8	beast_fmri_test	391	1386536,/,1387216,/,1387897,/,1388576,/,1389257,/,1389938,/,1390618,/	t,t,t,t,t,t,t	<img class = center src='/static/experiments/beast_fmri_test/images/D.png'></img>	89,71	2750.0	test	<img class = center src='/static/experiments/beast_fmri_test/images/redD.png'></img>	go	1500.0	2.0	8.0	go	target	D	89,Middle Finger	71,Index Finger	1250.0	1500.0	1500.0	1250.0	1.0	1250.0	1.0	n/a	go_stim
270610.34379873425	2263.6562012657896	n/a	1633	89	2750	2263.65620127	stim	stop-signal	505	1388652	0.0-21.8-1.8	beast_fmri_test	391	1386536,/,1387216,/,1387897,/,1388576,/,1389257,/,1389938,/,1390618,/	t,t,t,t,t,t,t	<img class = center src='/static/experiments/beast_fmri_test/images/D.png'></img>	89,71	2750.0	test	<img class = center src='/static/experiments/beast_fmri_test/images/redD.png'></img>	go	1500.0	2.0	8.0	go	target	D	89,Middle Finger	71,Index Finger	1250.0	1500.0	1500.0	1250.0	1.0	1250.0	1.0	n/a	ITI
275696	500	n/a	-1	-1	500	0.0	fixation	poldrack-single-stim	506	1391474	0.0-21.9-0.9	beast_fmri_test	391	1391297,/	t	<div class = centerbox2><div class = fixation>+</div></div>	none	500.0	test	n/a	n/a	n/a	n/a	n/a	n/a	n/a	n/a	n/a	n/a	n/a	n/a	n/a	n/a	n/a	n/a	n/a	n/a	fixation
274932.84033338027	2750	n/a	908	71	2750	767.15966662	stim	stop-signal	507	1394228	0.0-21.9-1.9	beast_fmri_test	391	1391978,/,1392659,/,1393338,/,1394018,/,1394700,/	t,t,t,t,t	<img class = center src='/static/experiments/beast_fmri_test/images/T.png'></img>	89,71	2750.0	test	<img class = center src='/static/experiments/beast_fmri_test/images/redT.png'></img>	go	1250.0	2.0	9.0	go	non-target	T	89,Middle Finger	71,Index Finger	1250.0	1500.0	1500.0	1250.0	1.0	1500.0	1.0	n/a	go_stim
277682.84033338027	767.15966661982804	n/a	908	71	2750	767.15966662	stim	stop-signal	507	1394228	0.0-21.9-1.9	beast_fmri_test	391	1391978,/,1392659,/,1393338,/,1394018,/,1394700,/	t,t,t,t,t	<img class = center src='/static/experiments/beast_fmri_test/images/T.png'></img>	89,71	2750.0	test	<img class = center src='/static/experiments/beast_fmri_test/images/redT.png'></img>	go	1250.0	2.0	9.0	go	non-target	T	89,Middle Finger	71,Index Finger	1250.0	1500.0	1500.0	1250.0	1.0	1500.0	1.0	n/a	ITI
279771	500	n/a	-1	-1	500	0.0	fixation	poldrack-single-stim	508	1395549	0.0-21.10-0.10	beast_fmri_test	391	1395380,/	t	<div class = centerbox2><div class = fixation>+</div></div>	none	500.0	test	n/a	n/a	n/a	n/a	n/a	n/a	n/a	n/a	n/a	n/a	n/a	n/a	n/a	n/a	n/a	n/a	n/a	n/a	fixation
277263.63153942302	1500.0	n/a	1614	71	2750	2512.36846058	stim	stop-signal	509	1398304	0.0-21.10-1.10	beast_fmri_test	391	1396061,/,1396741,/,1397422,/,1398102,/,1398782,/,1399462,/,1400142,/	t,t,t,t,t,t,t	<img class = center src='/static/experiments/beast_fmri_test/images/B.png'></img>	89,71	2750.0	test	<img class = center src='/static/experiments/beast_fmri_test/images/redB.png'></img>	stop	1250.0	2.0	10.0	stop	non-target	B	89,Middle Finger	71,Index Finger	1250.0	1500.0	1500.0	1250.0	0.0	1500.0	n/a	0.0	go_stim
278513.63153942302	1250.0	n/a	1614	71	2750	2512.36846058	stim	stop-signal	509	1398304	0.0-21.10-1.10	beast_fmri_test	391	1396061,/,1396741,/,1397422,/,1398102,/,1398782,/,1399462,/,1400142,/	t,t,t,t,t,t,t	<img class = center src='/static/experiments/beast_fmri_test/images/B.png'></img>	89,71	2750.0	test	<img class = center src='/static/experiments/beast_fmri_test/images/redB.png'></img>	stop	1250.0	2.0	10.0	stop	non-target	B	89,Middle Finger	71,Index Finger	1250.0	1500.0	1500.0	1250.0	0.0	1500.0	n/a	0.0	stop_stim
280013.63153942302	2512.3684605769768	n/a	1614	71	2750	2512.36846058	stim	stop-signal	509	1398304	0.0-21.10-1.10	beast_fmri_test	391	1396061,/,1396741,/,1397422,/,1398102,/,1398782,/,1399462,/,1400142,/	t,t,t,t,t,t,t	<img class = center src='/static/experiments/beast_fmri_test/images/B.png'></img>	89,71	2750.0	test	<img class = center src='/static/experiments/beast_fmri_test/images/redB.png'></img>	stop	1250.0	2.0	10.0	stop	non-target	B	89,Middle Finger	71,Index Finger	1250.0	1500.0	1500.0	1250.0	0.0	1500.0	n/a	0.0	ITI
285594	500	n/a	-1	-1	500	0.0	fixation	poldrack-single-stim	510	1401372	0.0-21.11-0.11	beast_fmri_test	391	1400870,/	t	<div class = centerbox2><div class = fixation>+</div></div>	none	500.0	test	n/a	n/a	n/a	n/a	n/a	n/a	n/a	n/a	n/a	n/a	n/a	n/a	n/a	n/a	n/a	n/a	n/a	n/a	fixation
284838.09000153001	1450.0	n/a	1579	71	2750	760.90999847	stim	stop-signal	511	1404127	0.0-21.11-1.11	beast_fmri_test	391	1401504,/,1402182,/,1402863,/,1403544,/,1404224,/	t,t,t,t,t	<img class = center src='/static/experiments/beast_fmri_test/images/B.png'></img>	89,71	2750.0	test	<img class = center src='/static/experiments/beast_fmri_test/images/redB.png'></img>	stop	1300.0	2.0	11.0	stop	non-target	B	89,Middle Finger	71,Index Finger	1250.0	1450.0	1500.0	1300.0	0.0	1450.0	n/a	0.0	go_stim
286138.09000153001	1300.0	n/a	1579	71	2750	760.90999847	stim	stop-signal	511	1404127	0.0-21.11-1.11	beast_fmri_test	391	1401504,/,1402182,/,1402863,/,1403544,/,1404224,/	t,t,t,t,t	<img class = center src='/static/experiments/beast_fmri_test/images/B.png'></img>	89,71	2750.0	test	<img class = center src='/static/experiments/beast_fmri_test/images/redB.png'></img>	stop	1300.0	2.0	11.0	stop	non-target	B	89,Middle Finger	71,Index Finger	1250.0	1450.0	1500.0	1300.0	0.0	1450.0	n/a	0.0	stop_stim
287588.09000153001	760.90999847005253	n/a	1579	71	2750	760.90999847	stim	stop-signal	511	1404127	0.0-21.11-1.11	beast_fmri_test	391	1401504,/,1402182,/,1402863,/,1403544,/,1404224,/	t,t,t,t,t	<img class = center src='/static/experiments/beast_fmri_test/images/B.png'></img>	89,71	2750.0	test	<img class = center src='/static/experiments/beast_fmri_test/images/redB.png'></img>	stop	1300.0	2.0	11.0	stop	non-target	B	89,Middle Finger	71,Index Finger	1250.0	1450.0	1500.0	1300.0	0.0	1450.0	n/a	0.0	ITI
289667	500	n/a	-1	-1	500	0.0	fixation	poldrack-single-stim	512	1405445	0.0-21.12-0.12	beast_fmri_test	391	1404942,/	t	<div class = centerbox2><div class = fixation>+</div></div>	none	500.0	test	n/a	n/a	n/a	n/a	n/a	n/a	n/a	n/a	n/a	n/a	n/a	n/a	n/a	n/a	n/a	n/a	n/a	n/a	fixation
288920.08324623527	2750	n/a	1722	71	2750	750.916753765	stim	stop-signal	513	1408199	0.0-21.12-1.12	beast_fmri_test	391	1405584,/,1406264,/,1406945,/,1407626,/,1408306,/	t,t,t,t,t	<img class = center src='/static/experiments/beast_fmri_test/images/T.png'></img>	89,71	2750.0	test	<img class = center src='/static/experiments/beast_fmri_test/images/redT.png'></img>	go	1350.0	2.0	12.0	go	non-target	T	89,Middle Finger	71,Index Finger	1250.0	1400.0	1500.0	1350.0	1.0	1400.0	1.0	n/a	go_stim
291670.08324623527	750.91675376482817	n/a	1722	71	2750	750.916753765	stim	stop-signal	513	1408199	0.0-21.12-1.12	beast_fmri_test	391	1405584,/,1406264,/,1406945,/,1407626,/,1408306,/	t,t,t,t,t	<img class = center src='/static/experiments/beast_fmri_test/images/T.png'></img>	89,71	2750.0	test	<img class = center src='/static/experiments/beast_fmri_test/images/redT.png'></img>	go	1350.0	2.0	12.0	go	non-target	T	89,Middle Finger	71,Index Finger	1250.0	1400.0	1500.0	1350.0	1.0	1400.0	1.0	n/a	ITI
293728	500	n/a	-1	-1	500	0.0	fixation	poldrack-single-stim	514	1409506	0.0-21.13-0.13	beast_fmri_test	391	1409003,/	t	<div class = centerbox2><div class = fixation>+</div></div>	none	500.0	test	n/a	n/a	n/a	n/a	n/a	n/a	n/a	n/a	n/a	n/a	n/a	n/a	n/a	n/a	n/a	n/a	n/a	n/a	fixation
293631.79839323275	1400.0	n/a	2181	71	2750	99.2016067673	stim	stop-signal	515	1412259	0.0-21.13-1.13	beast_fmri_test	391	1409667,/,1410347,/,1411027,/,1411705,/	t,t,t,t	<img class = center src='/static/experiments/beast_fmri_test/images/V.png'></img>	89,71	2750.0	test	<img class = center src='/static/experiments/beast_fmri_test/images/redV.png'></img>	stop	1350.0	2.0	13.0	stop	non-target	V	89,Middle Finger	71,Index Finger	1250.0	1400.0	1500.0	1350.0	0.0	1400.0	n/a	0.0	go_stim
294981.79839323275	1350.0	n/a	2181	71	2750	99.2016067673	stim	stop-signal	515	1412259	0.0-21.13-1.13	beast_fmri_test	391	1409667,/,1410347,/,1411027,/,1411705,/	t,t,t,t	<img class = center src='/static/experiments/beast_fmri_test/images/V.png'></img>	89,71	2750.0	test	<img class = center src='/static/experiments/beast_fmri_test/images/redV.png'></img>	stop	1350.0	2.0	13.0	stop	non-target	V	89,Middle Finger	71,Index Finger	1250.0	1400.0	1500.0	1350.0	0.0	1400.0	n/a	0.0	stop_stim
296381.79839323275	99.201606767305904	n/a	2181	71	2750	99.2016067673	stim	stop-signal	515	1412259	0.0-21.13-1.13	beast_fmri_test	391	1409667,/,1410347,/,1411027,/,1411705,/	t,t,t,t	<img class = center src='/static/experiments/beast_fmri_test/images/V.png'></img>	89,71	2750.0	test	<img class = center src='/static/experiments/beast_fmri_test/images/redV.png'></img>	stop	1350.0	2.0	13.0	stop	non-target	V	89,Middle Finger	71,Index Finger	1250.0	1400.0	1500.0	1350.0	0.0	1400.0	n/a	0.0	ITI
297141	500	n/a	-1	-1	500	0.0	fixation	poldrack-single-stim	516	1412919	0.0-21.14-0.14	beast_fmri_test	391	1412417,/	t	<div class = centerbox2><div class = fixation>+</div></div>	none	500.0	test	n/a	n/a	n/a	n/a	n/a	n/a	n/a	n/a	n/a	n/a	n/a	n/a	n/a	n/a	n/a	n/a	n/a	n/a	fixation
296824.77341546561	1350.0	n/a	-1	-1	2750	322.226584534	stim	stop-signal	517	1415675	0.0-21.14-1.14	beast_fmri_test	391	1413069,/,1413748,/,1414428,/,1415109,/,1415789,/	t,t,t,t,t	<img class = center src='/static/experiments/beast_fmri_test/images/P.png'></img>	89,71	2750.0	test	<img class = center src='/static/experiments/beast_fmri_test/images/redP.png'></img>	stop	1400.0	2.0	14.0	stop	non-target	P	89,Middle Finger	71,Index Finger	1250.0	1350.0	1500.0	1400.0	0.0	1350.0	n/a	1.0	go_stim
298224.77341546561	1400.0	n/a	-1	-1	2750	322.226584534	stim	stop-signal	517	1415675	0.0-21.14-1.14	beast_fmri_test	391	1413069,/,1413748,/,1414428,/,1415109,/,1415789,/	t,t,t,t,t	<img class = center src='/static/experiments/beast_fmri_test/images/P.png'></img>	89,71	2750.0	test	<img class = center src='/static/experiments/beast_fmri_test/images/redP.png'></img>	stop	1400.0	2.0	14.0	stop	non-target	P	89,Middle Finger	71,Index Finger	1250.0	1350.0	1500.0	1400.0	0.0	1350.0	n/a	1.0	stop_stim
299574.77341546561	322.22658453435321	n/a	-1	-1	2750	322.226584534	stim	stop-signal	517	1415675	0.0-21.14-1.14	beast_fmri_test	391	1413069,/,1413748,/,1414428,/,1415109,/,1415789,/	t,t,t,t,t	<img class = center src='/static/experiments/beast_fmri_test/images/P.png'></img>	89,71	2750.0	test	<img class = center src='/static/experiments/beast_fmri_test/images/redP.png'></img>	stop	1400.0	2.0	14.0	stop	non-target	P	89,Middle Finger	71,Index Finger	1250.0	1350.0	1500.0	1400.0	0.0	1350.0	n/a	1.0	ITI
300775	500	n/a	-1	-1	500	0.0	fixation	poldrack-single-stim	518	1416553	0.0-21.15-0.15	beast_fmri_test	391	1416470,/	t	<div class = centerbox2><div class = fixation>+</div></div>	none	500.0	test	n/a	n/a	n/a	n/a	n/a	n/a	n/a	n/a	n/a	n/a	n/a	n/a	n/a	n/a	n/a	n/a	n/a	n/a	fixation
300277.3761298873	2750	n/a	2359	71	2750	501.623870113	stim	stop-signal	519	1419307	0.0-21.15-1.15	beast_fmri_test	391	1417149,/,1417830,/,1418514,/,1419190,/	t,t,t,t	<img class = center src='/static/experiments/beast_fmri_test/images/P.png'></img>	89,71	2750.0	test	<img class = center src='/static/experiments/beast_fmri_test/images/redP.png'></img>	go	1350.0	2.0	15.0	go	non-target	P	89,Middle Finger	71,Index Finger	1250.0	1400.0	1500.0	1350.0	1.0	1400.0	1.0	n/a	go_stim
303027.3761298873	501.62387011271568	n/a	2359	71	2750	501.623870113	stim	stop-signal	519	1419307	0.0-21.15-1.15	beast_fmri_test	391	1417149,/,1417830,/,1418514,/,1419190,/	t,t,t,t	<img class = center src='/static/experiments/beast_fmri_test/images/P.png'></img>	89,71	2750.0	test	<img class = center src='/static/experiments/beast_fmri_test/images/redP.png'></img>	go	1350.0	2.0	15.0	go	non-target	P	89,Middle Finger	71,Index Finger	1250.0	1400.0	1500.0	1350.0	1.0	1400.0	1.0	n/a	ITI
304587	500	n/a	-1	-1	500	0.0	fixation	poldrack-single-stim	520	1420365	0.0-21.16-0.16	beast_fmri_test	391	1419869,/	t	<div class = centerbox2><div class = fixation>+</div></div>	none	500.0	test	n/a	n/a	n/a	n/a	n/a	n/a	n/a	n/a	n/a	n/a	n/a	n/a	n/a	n/a	n/a	n/a	n/a	n/a	fixation
304088.30440262845	2750	n/a	1990	71	2750	503.695597372	stim	stop-signal	521	1423120	0.0-21.16-1.16	beast_fmri_test	391	1420551,/,1421231,/,1421911,/,1422591,/,1423272,/	t,t,t,t,t	<img class = center src='/static/experiments/beast_fmri_test/images/D.png'></img>	89,71	2750.0	test	<img class = center src='/static/experiments/beast_fmri_test/images/redD.png'></img>	go	1350.0	2.0	16.0	go	non-target	D	89,Middle Finger	71,Index Finger	1250.0	1400.0	1500.0	1350.0	1.0	1400.0	1.0	n/a	go_stim
306838.30440262845	503.69559737160796	n/a	1990	71	2750	503.695597372	stim	stop-signal	521	1423120	0.0-21.16-1.16	beast_fmri_test	391	1420551,/,1421231,/,1421911,/,1422591,/,1423272,/	t,t,t,t,t	<img class = center src='/static/experiments/beast_fmri_test/images/D.png'></img>	89,71	2750.0	test	<img class = center src='/static/experiments/beast_fmri_test/images/redD.png'></img>	go	1350.0	2.0	16.0	go	non-target	D	89,Middle Finger	71,Index Finger	1250.0	1400.0	1500.0	1350.0	1.0	1400.0	1.0	n/a	ITI
308406	500	n/a	-1	-1	500	0.0	fixation	poldrack-single-stim	522	1424184	0.0-21.17-0.17	beast_fmri_test	391	1423953,/	t	<div class = centerbox2><div class = fixation>+</div></div>	none	500.0	test	n/a	n/a	n/a	n/a	n/a	n/a	n/a	n/a	n/a	n/a	n/a	n/a	n/a	n/a	n/a	n/a	n/a	n/a	fixation
306622.71299461019	1250.0	n/a	-1	-1	2750	1787.28700539	stim	stop-signal	523	1426938	0.0-21.17-1.17	beast_fmri_test	391	1424634,/,1425313,/,1425994,/,1426674,/,1427354,/,1428034,/,1428715,/	t,t,t,t,t,t,t	<img class = center src='/static/experiments/beast_fmri_test/images/P.png'></img>	89,71	2750.0	test	<img class = center src='/static/experiments/beast_fmri_test/images/redP.png'></img>	stop	1500.0	2.0	17.0	stop	target	P	89,Middle Finger	71,Index Finger	1250.0	1400.0	1500.0	1350.0	0.0	1250.0	n/a	1.0	go_stim
308122.71299461019	1500.0	n/a	-1	-1	2750	1787.28700539	stim	stop-signal	523	1426938	0.0-21.17-1.17	beast_fmri_test	391	1424634,/,1425313,/,1425994,/,1426674,/,1427354,/,1428034,/,1428715,/	t,t,t,t,t,t,t	<img class = center src='/static/experiments/beast_fmri_test/images/P.png'></img>	89,71	2750.0	test	<img class = center src='/static/experiments/beast_fmri_test/images/redP.png'></img>	stop	1500.0	2.0	17.0	stop	target	P	89,Middle Finger	71,Index Finger	1250.0	1400.0	1500.0	1350.0	0.0	1250.0	n/a	1.0	stop_stim
309372.71299461019	1787.2870053898603	n/a	-1	-1	2750	1787.28700539	stim	stop-signal	523	1426938	0.0-21.17-1.17	beast_fmri_test	391	1424634,/,1425313,/,1425994,/,1426674,/,1427354,/,1428034,/,1428715,/	t,t,t,t,t,t,t	<img class = center src='/static/experiments/beast_fmri_test/images/P.png'></img>	89,71	2750.0	test	<img class = center src='/static/experiments/beast_fmri_test/images/redP.png'></img>	stop	1500.0	2.0	17.0	stop	target	P	89,Middle Finger	71,Index Finger	1250.0	1400.0	1500.0	1350.0	0.0	1250.0	n/a	1.0	ITI
313500	500	n/a	-1	-1	500	0.0	fixation	poldrack-single-stim	524	1429278	0.0-21.18-0.18	beast_fmri_test	391	n/a	n/a	<div class = centerbox2><div class = fixation>+</div></div>	none	500.0	test	n/a	n/a	n/a	n/a	n/a	n/a	n/a	n/a	n/a	n/a	n/a	n/a	n/a	n/a	n/a	n/a	n/a	n/a	fixation
312092.5368587214	1400.0	n/a	-1	-1	2750	1411.46314128	stim	stop-signal	525	1432032	0.0-21.18-1.18	beast_fmri_test	391	1429395,/,1430075,/,1430756,/,1431436,/,1432116,/,1432796,/	t,t,t,t,t,t	<img class = center src='/static/experiments/beast_fmri_test/images/T.png'></img>	89,71	2750.0	test	<img class = center src='/static/experiments/beast_fmri_test/images/redT.png'></img>	stop	1350.0	2.0	18.0	stop	non-target	T	89,Middle Finger	71,Index Finger	1300.0	1400.0	1500.0	1350.0	0.0	1400.0	n/a	1.0	go_stim
313442.5368587214	1350.0	n/a	-1	-1	2750	1411.46314128	stim	stop-signal	525	1432032	0.0-21.18-1.18	beast_fmri_test	391	1429395,/,1430075,/,1430756,/,1431436,/,1432116,/,1432796,/	t,t,t,t,t,t	<img class = center src='/static/experiments/beast_fmri_test/images/T.png'></img>	89,71	2750.0	test	<img class = center src='/static/experiments/beast_fmri_test/images/redT.png'></img>	stop	1350.0	2.0	18.0	stop	non-target	T	89,Middle Finger	71,Index Finger	1300.0	1400.0	1500.0	1350.0	0.0	1400.0	n/a	1.0	stop_stim
314842.5368587214	1411.4631412786443	n/a	-1	-1	2750	1411.46314128	stim	stop-signal	525	1432032	0.0-21.18-1.18	beast_fmri_test	391	1429395,/,1430075,/,1430756,/,1431436,/,1432116,/,1432796,/	t,t,t,t,t,t	<img class = center src='/static/experiments/beast_fmri_test/images/T.png'></img>	89,71	2750.0	test	<img class = center src='/static/experiments/beast_fmri_test/images/redT.png'></img>	stop	1350.0	2.0	18.0	stop	non-target	T	89,Middle Finger	71,Index Finger	1300.0	1400.0	1500.0	1350.0	0.0	1400.0	n/a	1.0	ITI
318223	500	n/a	-1	-1	500	0.0	fixation	poldrack-single-stim	526	1434001	0.0-21.19-0.19	beast_fmri_test	391	1433498,/	t	<div class = centerbox2><div class = fixation>+</div></div>	none	500.0	test	n/a	n/a	n/a	n/a	n/a	n/a	n/a	n/a	n/a	n/a	n/a	n/a	n/a	n/a	n/a	n/a	n/a	n/a	fixation
317259.98557963409	1300.0	n/a	1341	89	2750	967.014420366	stim	stop-signal	527	1436755	0.0-21.19-1.19	beast_fmri_test	391	1434157,/,1434837,/,1435518,/,1436197,/,1436878,/,1437558,/	t,t,t,t,t,t	<img class = center src='/static/experiments/beast_fmri_test/images/P.png'></img>	89,71	2750.0	test	<img class = center src='/static/experiments/beast_fmri_test/images/redP.png'></img>	stop	1450.0	2.0	19.0	stop	target	P	89,Middle Finger	71,Index Finger	1300.0	1450.0	1450.0	1350.0	0.0	1300.0	n/a	0.0	go_stim
318709.98557963409	1450.0	n/a	1341	89	2750	967.014420366	stim	stop-signal	527	1436755	0.0-21.19-1.19	beast_fmri_test	391	1434157,/,1434837,/,1435518,/,1436197,/,1436878,/,1437558,/	t,t,t,t,t,t	<img class = center src='/static/experiments/beast_fmri_test/images/P.png'></img>	89,71	2750.0	test	<img class = center src='/static/experiments/beast_fmri_test/images/redP.png'></img>	stop	1450.0	2.0	19.0	stop	target	P	89,Middle Finger	71,Index Finger	1300.0	1450.0	1450.0	1350.0	0.0	1300.0	n/a	0.0	stop_stim
320009.98557963409	967.01442036599519	n/a	1341	89	2750	967.014420366	stim	stop-signal	527	1436755	0.0-21.19-1.19	beast_fmri_test	391	1434157,/,1434837,/,1435518,/,1436197,/,1436878,/,1437558,/	t,t,t,t,t,t	<img class = center src='/static/experiments/beast_fmri_test/images/P.png'></img>	89,71	2750.0	test	<img class = center src='/static/experiments/beast_fmri_test/images/redP.png'></img>	stop	1450.0	2.0	19.0	stop	target	P	89,Middle Finger	71,Index Finger	1300.0	1450.0	1450.0	1350.0	0.0	1300.0	n/a	0.0	ITI
322501	500	n/a	-1	-1	500	0.0	fixation	poldrack-single-stim	528	1438279	0.0-21.20-0.20	beast_fmri_test	391	1438238,/	t	<div class = centerbox2><div class = fixation>+</div></div>	none	500.0	test	n/a	n/a	n/a	n/a	n/a	n/a	n/a	n/a	n/a	n/a	n/a	n/a	n/a	n/a	n/a	n/a	n/a	n/a	fixation
322485.60753217805	2750	n/a	1727	71	2750	20.392467822	stim	stop-signal	529	1441034	0.0-21.20-1.20	beast_fmri_test	391	1438919,/,1439599,/,1440278,/,1440960,/	t,t,t,t	<img class = center src='/static/experiments/beast_fmri_test/images/D.png'></img>	89,71	2750.0	test	<img class = center src='/static/experiments/beast_fmri_test/images/redD.png'></img>	go	1300.0	2.0	20.0	go	non-target	D	89,Middle Finger	71,Index Finger	1250.0	1450.0	1450.0	1300.0	1.0	1450.0	1.0	n/a	go_stim
