onset	duration	text	rt	key_press	block_duration	timing_post_trial	trial_id	trial_type	trial_index	time_elapsed	internal_node_id	exp_id	subject_id	trigger_times	triggers	stimulus	possible_responses	stim_duration	exp_stage	SS_stimulus	SS_trial_type	SS_duration	load	trial_num	stop_trial_type	adaptive_trial_type	stim	yes_response_key	no_response_key	SSD_target	SSD_non_target	SSTarget	SSNonTarget	go_acc	SS_delay	adaptive_acc	stop_acc	new_trial_type
test	10880	n/a	-1	-1	10880	0.0	practice-no-stop-feedback	poldrack-single-stim	6	74765	0.0-6.0	beast_fmri_test	391	63878,/,64557,/,65237,/,65918,/,66598,/,67278,/,67958,/,68638,/,69319,/,70000,/,70680,/,71361,/,72040,/,72720,/,73400,/,74081,/,74760,/	t,t,t,t,t,t,t,t,t,t,t,t,t,t,t,t,t	"<div class = ""centerbox2_2""><p class = ""block-text2"">Your delay is 2 trials.</p><p class = block-text2>Please wait for the scanner to start the block</p></div>"	77	10880.0	n/a	n/a	n/a	n/a	n/a	n/a	n/a	n/a	n/a	n/a	n/a	n/a	n/a	n/a	n/a	n/a	n/a	n/a	n/a	start_functional_block
11392	500	n/a	-1	-1	500	0.0	fixation	poldrack-single-stim	7	75270	0.0-7.0-0.0	beast_fmri_test	391	n/a	n/a	<div class = centerbox2><div class = fixation>+</div></div>	none	500.0	test	n/a	n/a	n/a	n/a	n/a	n/a	n/a	n/a	n/a	n/a	n/a	n/a	n/a	n/a	n/a	n/a	n/a	n/a	fixation
11323.08648831278	2750	n/a	656	71	2750	76.9135116872	stim	stop-signal	8	78028	0.0-7.0-1.0	beast_fmri_test	391	75441,/,76122,/,76801,/,77482,/	t,t,t,t	<img class = center src='/static/experiments/beast_fmri_test/images/D.png'></img>	89,71	2750.0	test	<img class = center src='/static/experiments/beast_fmri_test/images/redD.png'></img>	go	-1.0	2.0	0.0	go	temp-non-target	D	89,Middle Finger	71,Index Finger	500.0	500.0	0.0	0.0	0.0	n/a	n/a	n/a	go_stim
14073.08648831278	76.913511687221103	n/a	656	71	2750	76.9135116872	stim	stop-signal	8	78028	0.0-7.0-1.0	beast_fmri_test	391	75441,/,76122,/,76801,/,77482,/	t,t,t,t	<img class = center src='/static/experiments/beast_fmri_test/images/D.png'></img>	89,71	2750.0	test	<img class = center src='/static/experiments/beast_fmri_test/images/redD.png'></img>	go	-1.0	2.0	0.0	go	temp-non-target	D	89,Middle Finger	71,Index Finger	500.0	500.0	0.0	0.0	0.0	n/a	n/a	n/a	ITI
14738	500	n/a	-1	-1	500	0.0	fixation	poldrack-single-stim	9	78616	0.0-7.1-0.1	beast_fmri_test	391	78163,/	t	<div class = centerbox2><div class = fixation>+</div></div>	none	500.0	test	n/a	n/a	n/a	n/a	n/a	n/a	n/a	n/a	n/a	n/a	n/a	n/a	n/a	n/a	n/a	n/a	n/a	n/a	fixation
12578.129777223658	2750	n/a	2517	71	2750	2165.87022278	stim	stop-signal	10	81372	0.0-7.1-1.1	beast_fmri_test	391	78843,/,79523,/,80204,/,80884,/,81564,/,82244,/,82925,/	t,t,t,t,t,t,t	<img class = center src='/static/experiments/beast_fmri_test/images/D.png'></img>	89,71	2750.0	test	<img class = center src='/static/experiments/beast_fmri_test/images/redD.png'></img>	go	-1.0	2.0	1.0	go	temp-non-target	D	89,Middle Finger	71,Index Finger	500.0	500.0	0.0	0.0	0.0	n/a	n/a	n/a	go_stim
15328.129777223658	2165.8702227763438	n/a	2517	71	2750	2165.87022278	stim	stop-signal	10	81372	0.0-7.1-1.1	beast_fmri_test	391	78843,/,79523,/,80204,/,80884,/,81564,/,82244,/,82925,/	t,t,t,t,t,t,t	<img class = center src='/static/experiments/beast_fmri_test/images/D.png'></img>	89,71	2750.0	test	<img class = center src='/static/experiments/beast_fmri_test/images/redD.png'></img>	go	-1.0	2.0	1.0	go	temp-non-target	D	89,Middle Finger	71,Index Finger	500.0	500.0	0.0	0.0	0.0	n/a	n/a	n/a	ITI
20167	500	n/a	-1	-1	500	0.0	fixation	poldrack-single-stim	11	84045	0.0-7.2-0.2	beast_fmri_test	391	83605,/	t	<div class = centerbox2><div class = fixation>+</div></div>	none	500.0	test	n/a	n/a	n/a	n/a	n/a	n/a	n/a	n/a	n/a	n/a	n/a	n/a	n/a	n/a	n/a	n/a	n/a	n/a	fixation
20165.568753783067	2750	n/a	1169	89	2750	5.43124621693	stim	stop-signal	12	86799	0.0-7.2-1.2	beast_fmri_test	391	84285,/,84966,/,85646,/,86326,/	t,t,t,t	<img class = center src='/static/experiments/beast_fmri_test/images/D.png'></img>	89,71	2750.0	test	<img class = center src='/static/experiments/beast_fmri_test/images/redD.png'></img>	go	2250.0	2.0	2.0	go	target	D	89,Middle Finger	71,Index Finger	500.0	500.0	2250.0	0.0	1.0	500.0	1.0	n/a	go_stim
22915.568753783067	5.4312462169304183	n/a	1169	89	2750	5.43124621693	stim	stop-signal	12	86799	0.0-7.2-1.2	beast_fmri_test	391	84285,/,84966,/,85646,/,86326,/	t,t,t,t	<img class = center src='/static/experiments/beast_fmri_test/images/D.png'></img>	89,71	2750.0	test	<img class = center src='/static/experiments/beast_fmri_test/images/redD.png'></img>	go	2250.0	2.0	2.0	go	target	D	89,Middle Finger	71,Index Finger	500.0	500.0	2250.0	0.0	1.0	500.0	1.0	n/a	ITI
23436	500	n/a	-1	-1	500	0.0	fixation	poldrack-single-stim	13	87314	0.0-7.3-0.3	beast_fmri_test	391	87005,/	t	<div class = centerbox2><div class = fixation>+</div></div>	none	500.0	test	n/a	n/a	n/a	n/a	n/a	n/a	n/a	n/a	n/a	n/a	n/a	n/a	n/a	n/a	n/a	n/a	n/a	n/a	fixation
23010.736478914943	2750	n/a	2479	71	2750	430.263521085	stim	stop-signal	14	90069	0.0-7.3-1.3	beast_fmri_test	391	87687,/,88367,/,89047,/,89727,/,90409,/	t,t,t,t,t	<img class = center src='/static/experiments/beast_fmri_test/images/T.png'></img>	89,71	2750.0	test	<img class = center src='/static/experiments/beast_fmri_test/images/redT.png'></img>	go	2250.0	2.0	3.0	go	non-target	T	89,Middle Finger	71,Index Finger	500.0	500.0	2250.0	2250.0	1.0	500.0	1.0	n/a	go_stim
25760.736478914943	430.26352108505114	n/a	2479	71	2750	430.263521085	stim	stop-signal	14	90069	0.0-7.3-1.3	beast_fmri_test	391	87687,/,88367,/,89047,/,89727,/,90409,/	t,t,t,t,t	<img class = center src='/static/experiments/beast_fmri_test/images/T.png'></img>	89,71	2750.0	test	<img class = center src='/static/experiments/beast_fmri_test/images/redT.png'></img>	go	2250.0	2.0	3.0	go	non-target	T	89,Middle Finger	71,Index Finger	500.0	500.0	2250.0	2250.0	1.0	500.0	1.0	n/a	ITI
27133	500	n/a	-1	-1	500	0.0	fixation	poldrack-single-stim	15	91011	0.0-7.4-0.4	beast_fmri_test	391	n/a	n/a	<div class = centerbox2><div class = fixation>+</div></div>	none	500.0	test	n/a	n/a	n/a	n/a	n/a	n/a	n/a	n/a	n/a	n/a	n/a	n/a	n/a	n/a	n/a	n/a	n/a	n/a	fixation
26529.388525136252	500.0	n/a	-1	-1	2750	610.611474864	stim	stop-signal	16	93768	0.0-7.4-1.4	beast_fmri_test	391	91097,/,91769,/,92449,/,93130,/,93810,/	t,t,t,t,t	<img class = center src='/static/experiments/beast_fmri_test/images/D.png'></img>	89,71	2750.0	test	<img class = center src='/static/experiments/beast_fmri_test/images/redD.png'></img>	stop	2250.0	2.0	4.0	stop	target	D	89,Middle Finger	71,Index Finger	500.0	500.0	2250.0	2250.0	0.0	500.0	n/a	1.0	go_stim
28779.388525136252	2250.0	n/a	-1	-1	2750	610.611474864	stim	stop-signal	16	93768	0.0-7.4-1.4	beast_fmri_test	391	91097,/,91769,/,92449,/,93130,/,93810,/	t,t,t,t,t	<img class = center src='/static/experiments/beast_fmri_test/images/D.png'></img>	89,71	2750.0	test	<img class = center src='/static/experiments/beast_fmri_test/images/redD.png'></img>	stop	2250.0	2.0	4.0	stop	target	D	89,Middle Finger	71,Index Finger	500.0	500.0	2250.0	2250.0	0.0	500.0	n/a	1.0	stop_stim
29279.388525136252	610.61147486375467	n/a	-1	-1	2750	610.611474864	stim	stop-signal	16	93768	0.0-7.4-1.4	beast_fmri_test	391	91097,/,91769,/,92449,/,93130,/,93810,/	t,t,t,t,t	<img class = center src='/static/experiments/beast_fmri_test/images/D.png'></img>	89,71	2750.0	test	<img class = center src='/static/experiments/beast_fmri_test/images/redD.png'></img>	stop	2250.0	2.0	4.0	stop	target	D	89,Middle Finger	71,Index Finger	500.0	500.0	2250.0	2250.0	0.0	500.0	n/a	1.0	ITI
31010	500	n/a	-1	-1	500	0.0	fixation	poldrack-single-stim	17	94888	0.0-7.5-0.5	beast_fmri_test	391	94490,/	t	<div class = centerbox2><div class = fixation>+</div></div>	none	500.0	test	n/a	n/a	n/a	n/a	n/a	n/a	n/a	n/a	n/a	n/a	n/a	n/a	n/a	n/a	n/a	n/a	n/a	n/a	fixation
30701.418148677258	2750	n/a	2414	89	2750	313.581851323	stim	stop-signal	18	97643	0.0-7.5-1.5	beast_fmri_test	391	95171,/,95851,/,96531,/,97211,/,97892,/	t,t,t,t,t	<img class = center src='/static/experiments/beast_fmri_test/images/T.png'></img>	89,71	2750.0	test	<img class = center src='/static/experiments/beast_fmri_test/images/redT.png'></img>	go	2200.0	2.0	5.0	go	target	T	89,Middle Finger	71,Index Finger	550.0	500.0	2200.0	2250.0	1.0	550.0	1.0	n/a	go_stim
33451.418148677258	313.58185132273513	n/a	2414	89	2750	313.581851323	stim	stop-signal	18	97643	0.0-7.5-1.5	beast_fmri_test	391	95171,/,95851,/,96531,/,97211,/,97892,/	t,t,t,t,t	<img class = center src='/static/experiments/beast_fmri_test/images/T.png'></img>	89,71	2750.0	test	<img class = center src='/static/experiments/beast_fmri_test/images/redT.png'></img>	go	2200.0	2.0	5.0	go	target	T	89,Middle Finger	71,Index Finger	550.0	500.0	2200.0	2250.0	1.0	550.0	1.0	n/a	ITI
34588	500	n/a	-1	-1	500	0.0	fixation	poldrack-single-stim	19	98466	0.0-7.6-0.6	beast_fmri_test	391	n/a	n/a	<div class = centerbox2><div class = fixation>+</div></div>	none	500.0	test	n/a	n/a	n/a	n/a	n/a	n/a	n/a	n/a	n/a	n/a	n/a	n/a	n/a	n/a	n/a	n/a	n/a	n/a	fixation
32274.529694509023	500.0	n/a	-1	-1	2750	2317.47030549	stim	stop-signal	20	101220	0.0-7.6-1.6	beast_fmri_test	391	98572,/,99252,/,99933,/,100613,/,101292,/,101973,/,102653,/,103334,/	t,t,t,t,t,t,t,t	<img class = center src='/static/experiments/beast_fmri_test/images/B.png'></img>	89,71	2750.0	test	<img class = center src='/static/experiments/beast_fmri_test/images/redB.png'></img>	stop	2250.0	2.0	6.0	stop	non-target	B	89,Middle Finger	71,Index Finger	550.0	500.0	2200.0	2250.0	0.0	500.0	n/a	1.0	go_stim
34524.529694509023	2250.0	n/a	-1	-1	2750	2317.47030549	stim	stop-signal	20	101220	0.0-7.6-1.6	beast_fmri_test	391	98572,/,99252,/,99933,/,100613,/,101292,/,101973,/,102653,/,103334,/	t,t,t,t,t,t,t,t	<img class = center src='/static/experiments/beast_fmri_test/images/B.png'></img>	89,71	2750.0	test	<img class = center src='/static/experiments/beast_fmri_test/images/redB.png'></img>	stop	2250.0	2.0	6.0	stop	non-target	B	89,Middle Finger	71,Index Finger	550.0	500.0	2200.0	2250.0	0.0	500.0	n/a	1.0	stop_stim
35024.529694509023	2317.4703054909696	n/a	-1	-1	2750	2317.47030549	stim	stop-signal	20	101220	0.0-7.6-1.6	beast_fmri_test	391	98572,/,99252,/,99933,/,100613,/,101292,/,101973,/,102653,/,103334,/	t,t,t,t,t,t,t,t	<img class = center src='/static/experiments/beast_fmri_test/images/B.png'></img>	89,71	2750.0	test	<img class = center src='/static/experiments/beast_fmri_test/images/redB.png'></img>	stop	2250.0	2.0	6.0	stop	non-target	B	89,Middle Finger	71,Index Finger	550.0	500.0	2200.0	2250.0	0.0	500.0	n/a	1.0	ITI
40170	500	n/a	-1	-1	500	0.0	fixation	poldrack-single-stim	21	104048	0.0-7.7-0.7	beast_fmri_test	391	104014,/	t	<div class = centerbox2><div class = fixation>+</div></div>	none	500.0	test	n/a	n/a	n/a	n/a	n/a	n/a	n/a	n/a	n/a	n/a	n/a	n/a	n/a	n/a	n/a	n/a	n/a	n/a	fixation
40164.578366743939	2750	n/a	2634	71	2750	10.4216332561	stim	stop-signal	22	106803	0.0-7.7-1.7	beast_fmri_test	391	104694,/,105374,/,106055,/,106735,/	t,t,t,t	<img class = center src='/static/experiments/beast_fmri_test/images/P.png'></img>	89,71	2750.0	test	<img class = center src='/static/experiments/beast_fmri_test/images/redP.png'></img>	go	2200.0	2.0	7.0	go	non-target	P	89,Middle Finger	71,Index Finger	550.0	550.0	2200.0	2200.0	1.0	550.0	1.0	n/a	go_stim
42914.578366743939	10.421633256055104	n/a	2634	71	2750	10.4216332561	stim	stop-signal	22	106803	0.0-7.7-1.7	beast_fmri_test	391	104694,/,105374,/,106055,/,106735,/	t,t,t,t	<img class = center src='/static/experiments/beast_fmri_test/images/P.png'></img>	89,71	2750.0	test	<img class = center src='/static/experiments/beast_fmri_test/images/redP.png'></img>	go	2200.0	2.0	7.0	go	non-target	P	89,Middle Finger	71,Index Finger	550.0	550.0	2200.0	2200.0	1.0	550.0	1.0	n/a	ITI
43443	500	n/a	-1	-1	500	0.0	fixation	poldrack-single-stim	23	107321	0.0-7.8-0.8	beast_fmri_test	391	n/a	n/a	<div class = centerbox2><div class = fixation>+</div></div>	none	500.0	test	n/a	n/a	n/a	n/a	n/a	n/a	n/a	n/a	n/a	n/a	n/a	n/a	n/a	n/a	n/a	n/a	n/a	n/a	fixation
42773.387193940536	2750	n/a	2748	71	2750	672.612806059	stim	stop-signal	24	110074	0.0-7.8-1.8	beast_fmri_test	391	107416,/,108096,/,108776,/,109456,/,110137,/	t,t,t,t,t	<img class = center src='/static/experiments/beast_fmri_test/images/D.png'></img>	89,71	2750.0	test	<img class = center src='/static/experiments/beast_fmri_test/images/redD.png'></img>	go	2200.0	2.0	8.0	go	non-target	D	89,Middle Finger	71,Index Finger	550.0	550.0	2200.0	2200.0	1.0	550.0	1.0	n/a	go_stim
45523.387193940536	672.61280605946376	n/a	2748	71	2750	672.612806059	stim	stop-signal	24	110074	0.0-7.8-1.8	beast_fmri_test	391	107416,/,108096,/,108776,/,109456,/,110137,/	t,t,t,t,t	<img class = center src='/static/experiments/beast_fmri_test/images/D.png'></img>	89,71	2750.0	test	<img class = center src='/static/experiments/beast_fmri_test/images/redD.png'></img>	go	2200.0	2.0	8.0	go	non-target	D	89,Middle Finger	71,Index Finger	550.0	550.0	2200.0	2200.0	1.0	550.0	1.0	n/a	ITI
47377	500	n/a	-1	-1	500	0.0	fixation	poldrack-single-stim	25	111255	0.0-7.9-0.9	beast_fmri_test	391	110815,/	t	<div class = centerbox2><div class = fixation>+</div></div>	none	500.0	test	n/a	n/a	n/a	n/a	n/a	n/a	n/a	n/a	n/a	n/a	n/a	n/a	n/a	n/a	n/a	n/a	n/a	n/a	fixation
47170.968119774407	2750	n/a	1494	89	2750	210.031880226	stim	stop-signal	26	114009	0.0-7.9-1.9	beast_fmri_test	391	111497,/,112178,/,112857,/,113538,/,114218,/	t,t,t,t,t	<img class = center src='/static/experiments/beast_fmri_test/images/P.png'></img>	89,71	2750.0	test	<img class = center src='/static/experiments/beast_fmri_test/images/redP.png'></img>	go	2200.0	2.0	9.0	go	target	P	89,Middle Finger	71,Index Finger	550.0	550.0	2200.0	2200.0	1.0	550.0	1.0	n/a	go_stim
49920.968119774407	210.03188022559729	n/a	1494	89	2750	210.031880226	stim	stop-signal	26	114009	0.0-7.9-1.9	beast_fmri_test	391	111497,/,112178,/,112857,/,113538,/,114218,/	t,t,t,t,t	<img class = center src='/static/experiments/beast_fmri_test/images/P.png'></img>	89,71	2750.0	test	<img class = center src='/static/experiments/beast_fmri_test/images/redP.png'></img>	go	2200.0	2.0	9.0	go	target	P	89,Middle Finger	71,Index Finger	550.0	550.0	2200.0	2200.0	1.0	550.0	1.0	n/a	ITI
50849	500	n/a	-1	-1	500	0.0	fixation	poldrack-single-stim	27	114727	0.0-7.10-0.10	beast_fmri_test	391	n/a	n/a	<div class = centerbox2><div class = fixation>+</div></div>	none	500.0	test	n/a	n/a	n/a	n/a	n/a	n/a	n/a	n/a	n/a	n/a	n/a	n/a	n/a	n/a	n/a	n/a	n/a	n/a	fixation
49150.375707486048	2750	n/a	1516	71	2750	1702.62429251	stim	stop-signal	28	117481	0.0-7.10-1.10	beast_fmri_test	391	114899,/,115580,/,116259,/,116939,/,117619,/,118301,/,118981,/	t,t,t,t,t,t,t	<img class = center src='/static/experiments/beast_fmri_test/images/T.png'></img>	89,71	2750.0	test	<img class = center src='/static/experiments/beast_fmri_test/images/redT.png'></img>	go	2200.0	2.0	10.0	go	non-target	T	89,Middle Finger	71,Index Finger	550.0	550.0	2200.0	2200.0	1.0	550.0	1.0	n/a	go_stim
51900.375707486048	1702.6242925139538	n/a	1516	71	2750	1702.62429251	stim	stop-signal	28	117481	0.0-7.10-1.10	beast_fmri_test	391	114899,/,115580,/,116259,/,116939,/,117619,/,118301,/,118981,/	t,t,t,t,t,t,t	<img class = center src='/static/experiments/beast_fmri_test/images/T.png'></img>	89,71	2750.0	test	<img class = center src='/static/experiments/beast_fmri_test/images/redT.png'></img>	go	2200.0	2.0	10.0	go	non-target	T	89,Middle Finger	71,Index Finger	550.0	550.0	2200.0	2200.0	1.0	550.0	1.0	n/a	ITI
55816	500	n/a	-1	-1	500	0.0	fixation	poldrack-single-stim	29	119694	0.0-7.11-0.11	beast_fmri_test	391	119661,/	t	<div class = centerbox2><div class = fixation>+</div></div>	none	500.0	test	n/a	n/a	n/a	n/a	n/a	n/a	n/a	n/a	n/a	n/a	n/a	n/a	n/a	n/a	n/a	n/a	n/a	n/a	fixation
52201.792290772835	550.0	n/a	-1	-1	2750	3618.20770923	stim	stop-signal	30	122448	0.0-7.11-1.11	beast_fmri_test	391	120342,/,121023,/,121702,/,122383,/,123063,/,123743,/,124423,/,125104,/,125784,/	t,t,t,t,t,t,t,t,t	<img class = center src='/static/experiments/beast_fmri_test/images/B.png'></img>	89,71	2750.0	test	<img class = center src='/static/experiments/beast_fmri_test/images/redB.png'></img>	stop	2200.0	2.0	11.0	stop	non-target	B	89,Middle Finger	71,Index Finger	550.0	550.0	2200.0	2200.0	0.0	550.0	n/a	1.0	go_stim
54401.792290772835	2200.0	n/a	-1	-1	2750	3618.20770923	stim	stop-signal	30	122448	0.0-7.11-1.11	beast_fmri_test	391	120342,/,121023,/,121702,/,122383,/,123063,/,123743,/,124423,/,125104,/,125784,/	t,t,t,t,t,t,t,t,t	<img class = center src='/static/experiments/beast_fmri_test/images/B.png'></img>	89,71	2750.0	test	<img class = center src='/static/experiments/beast_fmri_test/images/redB.png'></img>	stop	2200.0	2.0	11.0	stop	non-target	B	89,Middle Finger	71,Index Finger	550.0	550.0	2200.0	2200.0	0.0	550.0	n/a	1.0	stop_stim
54951.792290772835	3618.2077092271679	n/a	-1	-1	2750	3618.20770923	stim	stop-signal	30	122448	0.0-7.11-1.11	beast_fmri_test	391	120342,/,121023,/,121702,/,122383,/,123063,/,123743,/,124423,/,125104,/,125784,/	t,t,t,t,t,t,t,t,t	<img class = center src='/static/experiments/beast_fmri_test/images/B.png'></img>	89,71	2750.0	test	<img class = center src='/static/experiments/beast_fmri_test/images/redB.png'></img>	stop	2200.0	2.0	11.0	stop	non-target	B	89,Middle Finger	71,Index Finger	550.0	550.0	2200.0	2200.0	0.0	550.0	n/a	1.0	ITI
62701	500	n/a	-1	-1	500	0.0	fixation	poldrack-single-stim	31	126579	0.0-7.12-0.12	beast_fmri_test	391	126464,/	t	<div class = centerbox2><div class = fixation>+</div></div>	none	500.0	test	n/a	n/a	n/a	n/a	n/a	n/a	n/a	n/a	n/a	n/a	n/a	n/a	n/a	n/a	n/a	n/a	n/a	n/a	fixation
62151.512472311733	2750	n/a	1776	71	2750	554.487527688	stim	stop-signal	32	129334	0.0-7.12-1.12	beast_fmri_test	391	127145,/,127825,/,128505,/,129185,/,129865,/	t,t,t,t,t	<img class = center src='/static/experiments/beast_fmri_test/images/B.png'></img>	89,71	2750.0	test	<img class = center src='/static/experiments/beast_fmri_test/images/redB.png'></img>	go	2150.0	2.0	12.0	go	non-target	B	89,Middle Finger	71,Index Finger	550.0	600.0	2200.0	2150.0	1.0	600.0	1.0	n/a	go_stim
64901.512472311733	554.48752768826444	n/a	1776	71	2750	554.487527688	stim	stop-signal	32	129334	0.0-7.12-1.12	beast_fmri_test	391	127145,/,127825,/,128505,/,129185,/,129865,/	t,t,t,t,t	<img class = center src='/static/experiments/beast_fmri_test/images/B.png'></img>	89,71	2750.0	test	<img class = center src='/static/experiments/beast_fmri_test/images/redB.png'></img>	go	2150.0	2.0	12.0	go	non-target	B	89,Middle Finger	71,Index Finger	550.0	600.0	2200.0	2150.0	1.0	600.0	1.0	n/a	ITI
66519	500	n/a	-1	-1	500	0.0	fixation	poldrack-single-stim	33	130397	0.0-7.13-0.13	beast_fmri_test	391	n/a	n/a	<div class = centerbox2><div class = fixation>+</div></div>	none	500.0	test	n/a	n/a	n/a	n/a	n/a	n/a	n/a	n/a	n/a	n/a	n/a	n/a	n/a	n/a	n/a	n/a	n/a	n/a	fixation
66411.066233442252	2750	n/a	-1	-1	2750	112.933766558	stim	stop-signal	34	133152	0.0-7.13-1.13	beast_fmri_test	391	130546,/,131226,/,131907,/,132587,/,133265,/	t,t,t,t,t	<img class = center src='/static/experiments/beast_fmri_test/images/B.png'></img>	89,71	2750.0	test	<img class = center src='/static/experiments/beast_fmri_test/images/redB.png'></img>	go	2200.0	2.0	13.0	go	target	B	89,Middle Finger	71,Index Finger	550.0	600.0	2200.0	2150.0	0.0	550.0	0.0	n/a	go_stim
69161.066233442252	112.93376655775481	n/a	-1	-1	2750	112.933766558	stim	stop-signal	34	133152	0.0-7.13-1.13	beast_fmri_test	391	130546,/,131226,/,131907,/,132587,/,133265,/	t,t,t,t,t	<img class = center src='/static/experiments/beast_fmri_test/images/B.png'></img>	89,71	2750.0	test	<img class = center src='/static/experiments/beast_fmri_test/images/redB.png'></img>	go	2200.0	2.0	13.0	go	target	B	89,Middle Finger	71,Index Finger	550.0	600.0	2200.0	2150.0	0.0	550.0	0.0	n/a	ITI
69895	500	n/a	-1	-1	500	0.0	fixation	poldrack-single-stim	35	133773	0.0-7.14-0.14	beast_fmri_test	391	n/a	n/a	<div class = centerbox2><div class = fixation>+</div></div>	none	500.0	test	n/a	n/a	n/a	n/a	n/a	n/a	n/a	n/a	n/a	n/a	n/a	n/a	n/a	n/a	n/a	n/a	n/a	n/a	fixation
68485.379283032235	600.0	n/a	-1	-1	2750	1414.62071697	stim	stop-signal	36	136528	0.0-7.14-1.14	beast_fmri_test	391	133947,/,134627,/,135308,/,135989,/,136669,/,137349,/	t,t,t,t,t,t	<img class = center src='/static/experiments/beast_fmri_test/images/T.png'></img>	89,71	2750.0	test	<img class = center src='/static/experiments/beast_fmri_test/images/redT.png'></img>	stop	2150.0	2.0	14.0	stop	non-target	T	89,Middle Finger	71,Index Finger	550.0	600.0	2200.0	2150.0	0.0	600.0	n/a	1.0	go_stim
70635.379283032235	2150.0	n/a	-1	-1	2750	1414.62071697	stim	stop-signal	36	136528	0.0-7.14-1.14	beast_fmri_test	391	133947,/,134627,/,135308,/,135989,/,136669,/,137349,/	t,t,t,t,t,t	<img class = center src='/static/experiments/beast_fmri_test/images/T.png'></img>	89,71	2750.0	test	<img class = center src='/static/experiments/beast_fmri_test/images/redT.png'></img>	stop	2150.0	2.0	14.0	stop	non-target	T	89,Middle Finger	71,Index Finger	550.0	600.0	2200.0	2150.0	0.0	600.0	n/a	1.0	stop_stim
71235.379283032235	1414.6207169677691	n/a	-1	-1	2750	1414.62071697	stim	stop-signal	36	136528	0.0-7.14-1.14	beast_fmri_test	391	133947,/,134627,/,135308,/,135989,/,136669,/,137349,/	t,t,t,t,t,t	<img class = center src='/static/experiments/beast_fmri_test/images/T.png'></img>	89,71	2750.0	test	<img class = center src='/static/experiments/beast_fmri_test/images/redT.png'></img>	stop	2150.0	2.0	14.0	stop	non-target	T	89,Middle Finger	71,Index Finger	550.0	600.0	2200.0	2150.0	0.0	600.0	n/a	1.0	ITI
74576	500	n/a	-1	-1	500	0.0	fixation	poldrack-single-stim	37	138454	0.0-7.15-0.15	beast_fmri_test	391	138030,/	t	<div class = centerbox2><div class = fixation>+</div></div>	none	500.0	test	n/a	n/a	n/a	n/a	n/a	n/a	n/a	n/a	n/a	n/a	n/a	n/a	n/a	n/a	n/a	n/a	n/a	n/a	fixation
74177.284971084417	2750	n/a	1285	89	2750	403.715028916	stim	stop-signal	38	141209	0.0-7.15-1.15	beast_fmri_test	391	138709,/,139389,/,140070,/,140750,/,141430,/	t,t,t,t,t	<img class = center src='/static/experiments/beast_fmri_test/images/B.png'></img>	89,71	2750.0	test	<img class = center src='/static/experiments/beast_fmri_test/images/redB.png'></img>	go	2200.0	2.0	15.0	go	target	B	89,Middle Finger	71,Index Finger	550.0	650.0	2200.0	2150.0	1.0	550.0	1.0	n/a	go_stim
76927.284971084417	403.71502891559447	n/a	1285	89	2750	403.715028916	stim	stop-signal	38	141209	0.0-7.15-1.15	beast_fmri_test	391	138709,/,139389,/,140070,/,140750,/,141430,/	t,t,t,t,t	<img class = center src='/static/experiments/beast_fmri_test/images/B.png'></img>	89,71	2750.0	test	<img class = center src='/static/experiments/beast_fmri_test/images/redB.png'></img>	go	2200.0	2.0	15.0	go	target	B	89,Middle Finger	71,Index Finger	550.0	650.0	2200.0	2150.0	1.0	550.0	1.0	n/a	ITI
78244	500	n/a	-1	-1	500	0.0	fixation	poldrack-single-stim	39	142122	0.0-7.16-0.16	beast_fmri_test	391	142111,/	t	<div class = centerbox2><div class = fixation>+</div></div>	none	500.0	test	n/a	n/a	n/a	n/a	n/a	n/a	n/a	n/a	n/a	n/a	n/a	n/a	n/a	n/a	n/a	n/a	n/a	n/a	fixation
78048.444000796153	2750	n/a	2295	71	2750	197.555999204	stim	stop-signal	40	144874	0.0-7.16-1.16	beast_fmri_test	391	142791,/,143473,/,144152,/,144831,/	t,t,t,t	<img class = center src='/static/experiments/beast_fmri_test/images/D.png'></img>	89,71	2750.0	test	<img class = center src='/static/experiments/beast_fmri_test/images/redD.png'></img>	go	2100.0	2.0	16.0	go	non-target	D	89,Middle Finger	71,Index Finger	550.0	650.0	2200.0	2100.0	1.0	650.0	1.0	n/a	go_stim
80798.444000796153	197.55599920385825	n/a	2295	71	2750	197.555999204	stim	stop-signal	40	144874	0.0-7.16-1.16	beast_fmri_test	391	142791,/,143473,/,144152,/,144831,/	t,t,t,t	<img class = center src='/static/experiments/beast_fmri_test/images/D.png'></img>	89,71	2750.0	test	<img class = center src='/static/experiments/beast_fmri_test/images/redD.png'></img>	go	2100.0	2.0	16.0	go	non-target	D	89,Middle Finger	71,Index Finger	550.0	650.0	2200.0	2100.0	1.0	650.0	1.0	n/a	ITI
81705	500	n/a	-1	-1	500	0.0	fixation	poldrack-single-stim	41	145583	0.0-7.17-0.17	beast_fmri_test	391	145512,/	t	<div class = centerbox2><div class = fixation>+</div></div>	none	500.0	test	n/a	n/a	n/a	n/a	n/a	n/a	n/a	n/a	n/a	n/a	n/a	n/a	n/a	n/a	n/a	n/a	n/a	n/a	fixation
80107.611128092161	2750	n/a	1891	89	2750	1601.38887191	stim	stop-signal	42	148337	0.0-7.17-1.17	beast_fmri_test	391	146194,/,146874,/,147554,/,148235,/,148914,/,149595,/	t,t,t,t,t,t	<img class = center src='/static/experiments/beast_fmri_test/images/T.png'></img>	89,71	2750.0	test	<img class = center src='/static/experiments/beast_fmri_test/images/redT.png'></img>	go	2100.0	2.0	17.0	go	non-target	T	89,Middle Finger	71,Index Finger	550.0	650.0	2200.0	2100.0	0.0	650.0	0.0	n/a	go_stim
82857.611128092161	1601.3888719078273	n/a	1891	89	2750	1601.38887191	stim	stop-signal	42	148337	0.0-7.17-1.17	beast_fmri_test	391	146194,/,146874,/,147554,/,148235,/,148914,/,149595,/	t,t,t,t,t,t	<img class = center src='/static/experiments/beast_fmri_test/images/T.png'></img>	89,71	2750.0	test	<img class = center src='/static/experiments/beast_fmri_test/images/redT.png'></img>	go	2100.0	2.0	17.0	go	non-target	T	89,Middle Finger	71,Index Finger	550.0	650.0	2200.0	2100.0	0.0	650.0	0.0	n/a	ITI
86571	500	n/a	-1	-1	500	0.0	fixation	poldrack-single-stim	43	150449	0.0-7.18-0.18	beast_fmri_test	391	150275,/	t	<div class = centerbox2><div class = fixation>+</div></div>	none	500.0	test	n/a	n/a	n/a	n/a	n/a	n/a	n/a	n/a	n/a	n/a	n/a	n/a	n/a	n/a	n/a	n/a	n/a	n/a	fixation
85264.455037281674	650.0	n/a	-1	-1	2750	1310.54496272	stim	stop-signal	44	153203	0.0-7.18-1.18	beast_fmri_test	391	150955,/,151636,/,152316,/,152996,/,153676,/,154357,/	t,t,t,t,t,t	<img class = center src='/static/experiments/beast_fmri_test/images/T.png'></img>	89,71	2750.0	test	<img class = center src='/static/experiments/beast_fmri_test/images/redT.png'></img>	stop	2100.0	2.0	18.0	stop	non-target	T	89,Middle Finger	71,Index Finger	550.0	650.0	2200.0	2100.0	0.0	650.0	n/a	1.0	go_stim
87364.455037281674	2100.0	n/a	-1	-1	2750	1310.54496272	stim	stop-signal	44	153203	0.0-7.18-1.18	beast_fmri_test	391	150955,/,151636,/,152316,/,152996,/,153676,/,154357,/	t,t,t,t,t,t	<img class = center src='/static/experiments/beast_fmri_test/images/T.png'></img>	89,71	2750.0	test	<img class = center src='/static/experiments/beast_fmri_test/images/redT.png'></img>	stop	2100.0	2.0	18.0	stop	non-target	T	89,Middle Finger	71,Index Finger	550.0	650.0	2200.0	2100.0	0.0	650.0	n/a	1.0	stop_stim
88014.455037281674	1310.5449627183168	n/a	-1	-1	2750	1310.54496272	stim	stop-signal	44	153203	0.0-7.18-1.18	beast_fmri_test	391	150955,/,151636,/,152316,/,152996,/,153676,/,154357,/	t,t,t,t,t,t	<img class = center src='/static/experiments/beast_fmri_test/images/T.png'></img>	89,71	2750.0	test	<img class = center src='/static/experiments/beast_fmri_test/images/redT.png'></img>	stop	2100.0	2.0	18.0	stop	non-target	T	89,Middle Finger	71,Index Finger	550.0	650.0	2200.0	2100.0	0.0	650.0	n/a	1.0	ITI
91147	500	n/a	-1	-1	500	0.0	fixation	poldrack-single-stim	45	155025	0.0-7.19-0.19	beast_fmri_test	391	n/a	n/a	<div class = centerbox2><div class = fixation>+</div></div>	none	500.0	test	n/a	n/a	n/a	n/a	n/a	n/a	n/a	n/a	n/a	n/a	n/a	n/a	n/a	n/a	n/a	n/a	n/a	n/a	fixation
91028.256677020516	2750	n/a	1157	71	2750	120.743322979	stim	stop-signal	46	157777	0.0-7.19-1.19	beast_fmri_test	391	155039,/,155717,/,156398,/,157078,/,157757,/	t,t,t,t,t	<img class = center src='/static/experiments/beast_fmri_test/images/D.png'></img>	89,71	2750.0	test	<img class = center src='/static/experiments/beast_fmri_test/images/redD.png'></img>	go	2050.0	2.0	19.0	go	non-target	D	89,Middle Finger	71,Index Finger	550.0	700.0	2200.0	2050.0	1.0	700.0	1.0	n/a	go_stim
93778.256677020516	120.74332297948472	n/a	1157	71	2750	120.743322979	stim	stop-signal	46	157777	0.0-7.19-1.19	beast_fmri_test	391	155039,/,155717,/,156398,/,157078,/,157757,/	t,t,t,t,t	<img class = center src='/static/experiments/beast_fmri_test/images/D.png'></img>	89,71	2750.0	test	<img class = center src='/static/experiments/beast_fmri_test/images/redD.png'></img>	go	2050.0	2.0	19.0	go	non-target	D	89,Middle Finger	71,Index Finger	550.0	700.0	2200.0	2050.0	1.0	700.0	1.0	n/a	ITI
94530	500	n/a	-1	-1	500	0.0	fixation	poldrack-single-stim	47	158408	0.0-7.20-0.20	beast_fmri_test	391	n/a	n/a	<div class = centerbox2><div class = fixation>+</div></div>	none	500.0	test	n/a	n/a	n/a	n/a	n/a	n/a	n/a	n/a	n/a	n/a	n/a	n/a	n/a	n/a	n/a	n/a	n/a	n/a	fixation
94053.213629443053	2750	n/a	-1	-1	2750	479.786370557	stim	stop-signal	48	161161	0.0-7.20-1.20	beast_fmri_test	391	158437,/,159118,/,159799,/,160480,/,161160,/	t,t,t,t,t	<img class = center src='/static/experiments/beast_fmri_test/images/P.png'></img>	89,71	2750.0	test	<img class = center src='/static/experiments/beast_fmri_test/images/redP.png'></img>	go	2050.0	2.0	20.0	go	non-target	P	89,Middle Finger	71,Index Finger	550.0	700.0	2200.0	2050.0	0.0	700.0	0.0	n/a	go_stim
96803.213629443053	479.78637055694639	n/a	-1	-1	2750	479.786370557	stim	stop-signal	48	161161	0.0-7.20-1.20	beast_fmri_test	391	158437,/,159118,/,159799,/,160480,/,161160,/	t,t,t,t,t	<img class = center src='/static/experiments/beast_fmri_test/images/P.png'></img>	89,71	2750.0	test	<img class = center src='/static/experiments/beast_fmri_test/images/redP.png'></img>	go	2050.0	2.0	20.0	go	non-target	P	89,Middle Finger	71,Index Finger	550.0	700.0	2200.0	2050.0	0.0	700.0	0.0	n/a	ITI
98273	500	n/a	-1	-1	500	0.0	fixation	poldrack-single-stim	49	162151	0.0-7.21-0.21	beast_fmri_test	391	161839,/	t	<div class = centerbox2><div class = fixation>+</div></div>	none	500.0	test	n/a	n/a	n/a	n/a	n/a	n/a	n/a	n/a	n/a	n/a	n/a	n/a	n/a	n/a	n/a	n/a	n/a	n/a	fixation
97722.715900088981	2750	n/a	1411	71	2750	555.284099911	stim	stop-signal	50	164906	0.0-7.21-1.21	beast_fmri_test	391	162520,/,163200,/,163879,/,164560,/,165241,/	t,t,t,t,t	<img class = center src='/static/experiments/beast_fmri_test/images/P.png'></img>	89,71	2750.0	test	<img class = center src='/static/experiments/beast_fmri_test/images/redP.png'></img>	go	2050.0	2.0	21.0	go	non-target	P	89,Middle Finger	71,Index Finger	550.0	700.0	2200.0	2050.0	1.0	700.0	1.0	n/a	go_stim
100472.71590008898	555.28409991102728	n/a	1411	71	2750	555.284099911	stim	stop-signal	50	164906	0.0-7.21-1.21	beast_fmri_test	391	162520,/,163200,/,163879,/,164560,/,165241,/	t,t,t,t,t	<img class = center src='/static/experiments/beast_fmri_test/images/P.png'></img>	89,71	2750.0	test	<img class = center src='/static/experiments/beast_fmri_test/images/redP.png'></img>	go	2050.0	2.0	21.0	go	non-target	P	89,Middle Finger	71,Index Finger	550.0	700.0	2200.0	2050.0	1.0	700.0	1.0	n/a	ITI
102097	500	n/a	-1	-1	500	0.0	fixation	poldrack-single-stim	51	165975	0.0-7.22-0.22	beast_fmri_test	391	165921,/	t	<div class = centerbox2><div class = fixation>+</div></div>	none	500.0	test	n/a	n/a	n/a	n/a	n/a	n/a	n/a	n/a	n/a	n/a	n/a	n/a	n/a	n/a	n/a	n/a	n/a	n/a	fixation
101201.24630343684	2750	n/a	1445	89	2750	899.753696563	stim	stop-signal	52	168729	0.0-7.22-1.22	beast_fmri_test	391	166602,/,167282,/,167962,/,168643,/,169323,/	t,t,t,t,t	<img class = center src='/static/experiments/beast_fmri_test/images/P.png'></img>	89,71	2750.0	test	<img class = center src='/static/experiments/beast_fmri_test/images/redP.png'></img>	go	2200.0	2.0	22.0	go	target	P	89,Middle Finger	71,Index Finger	550.0	700.0	2200.0	2050.0	1.0	550.0	1.0	n/a	go_stim
103951.24630343684	899.75369656317287	n/a	1445	89	2750	899.753696563	stim	stop-signal	52	168729	0.0-7.22-1.22	beast_fmri_test	391	166602,/,167282,/,167962,/,168643,/,169323,/	t,t,t,t,t	<img class = center src='/static/experiments/beast_fmri_test/images/P.png'></img>	89,71	2750.0	test	<img class = center src='/static/experiments/beast_fmri_test/images/redP.png'></img>	go	2200.0	2.0	22.0	go	target	P	89,Middle Finger	71,Index Finger	550.0	700.0	2200.0	2050.0	1.0	550.0	1.0	n/a	ITI
106264	500	n/a	-1	-1	500	0.0	fixation	poldrack-single-stim	53	170142	0.0-7.23-0.23	beast_fmri_test	391	170003,/	t	<div class = centerbox2><div class = fixation>+</div></div>	none	500.0	test	n/a	n/a	n/a	n/a	n/a	n/a	n/a	n/a	n/a	n/a	n/a	n/a	n/a	n/a	n/a	n/a	n/a	n/a	fixation
105698.10549582672	700.0	n/a	-1	-1	2750	569.894504173	stim	stop-signal	54	172896	0.0-7.23-1.23	beast_fmri_test	391	170683,/,171364,/,172044,/,172723,/,173405,/	t,t,t,t,t	<img class = center src='/static/experiments/beast_fmri_test/images/T.png'></img>	89,71	2750.0	test	<img class = center src='/static/experiments/beast_fmri_test/images/redT.png'></img>	stop	2050.0	2.0	23.0	stop	non-target	T	89,Middle Finger	71,Index Finger	550.0	700.0	2200.0	2050.0	0.0	700.0	n/a	1.0	go_stim
107748.10549582672	2050.0	n/a	-1	-1	2750	569.894504173	stim	stop-signal	54	172896	0.0-7.23-1.23	beast_fmri_test	391	170683,/,171364,/,172044,/,172723,/,173405,/	t,t,t,t,t	<img class = center src='/static/experiments/beast_fmri_test/images/T.png'></img>	89,71	2750.0	test	<img class = center src='/static/experiments/beast_fmri_test/images/redT.png'></img>	stop	2050.0	2.0	23.0	stop	non-target	T	89,Middle Finger	71,Index Finger	550.0	700.0	2200.0	2050.0	0.0	700.0	n/a	1.0	stop_stim
108448.10549582672	569.89450417328908	n/a	-1	-1	2750	569.894504173	stim	stop-signal	54	172896	0.0-7.23-1.23	beast_fmri_test	391	170683,/,171364,/,172044,/,172723,/,173405,/	t,t,t,t,t	<img class = center src='/static/experiments/beast_fmri_test/images/T.png'></img>	89,71	2750.0	test	<img class = center src='/static/experiments/beast_fmri_test/images/redT.png'></img>	stop	2050.0	2.0	23.0	stop	non-target	T	89,Middle Finger	71,Index Finger	550.0	700.0	2200.0	2050.0	0.0	700.0	n/a	1.0	ITI
110100	500	n/a	-1	-1	500	0.0	fixation	poldrack-single-stim	55	173978	0.0-7.24-0.24	beast_fmri_test	391	n/a	n/a	<div class = centerbox2><div class = fixation>+</div></div>	none	500.0	test	n/a	n/a	n/a	n/a	n/a	n/a	n/a	n/a	n/a	n/a	n/a	n/a	n/a	n/a	n/a	n/a	n/a	n/a	fixation
109954.71256033037	2750	n/a	1639	71	2750	150.28743967	stim	stop-signal	56	176733	0.0-7.24-1.24	beast_fmri_test	391	174085,/,174766,/,175446,/,176126,/,176806,/	t,t,t,t,t	<img class = center src='/static/experiments/beast_fmri_test/images/V.png'></img>	89,71	2750.0	test	<img class = center src='/static/experiments/beast_fmri_test/images/redV.png'></img>	go	2000.0	2.0	24.0	go	non-target	V	89,Middle Finger	71,Index Finger	550.0	750.0	2200.0	2000.0	1.0	750.0	1.0	n/a	go_stim
112704.71256033037	150.28743966964089	n/a	1639	71	2750	150.28743967	stim	stop-signal	56	176733	0.0-7.24-1.24	beast_fmri_test	391	174085,/,174766,/,175446,/,176126,/,176806,/	t,t,t,t,t	<img class = center src='/static/experiments/beast_fmri_test/images/V.png'></img>	89,71	2750.0	test	<img class = center src='/static/experiments/beast_fmri_test/images/redV.png'></img>	go	2000.0	2.0	24.0	go	non-target	V	89,Middle Finger	71,Index Finger	550.0	750.0	2200.0	2000.0	1.0	750.0	1.0	n/a	ITI
113516	500	n/a	-1	-1	500	0.0	fixation	poldrack-single-stim	57	177394	0.0-7.25-0.25	beast_fmri_test	391	n/a	n/a	<div class = centerbox2><div class = fixation>+</div></div>	none	500.0	test	n/a	n/a	n/a	n/a	n/a	n/a	n/a	n/a	n/a	n/a	n/a	n/a	n/a	n/a	n/a	n/a	n/a	n/a	fixation
112120.2167907409	2750	n/a	1826	71	2750	1399.78320926	stim	stop-signal	58	180148	0.0-7.25-1.25	beast_fmri_test	391	177487,/,178168,/,178848,/,179527,/,180207,/,180888,/	t,t,t,t,t,t	<img class = center src='/static/experiments/beast_fmri_test/images/D.png'></img>	89,71	2750.0	test	<img class = center src='/static/experiments/beast_fmri_test/images/redD.png'></img>	go	2000.0	2.0	25.0	go	non-target	D	89,Middle Finger	71,Index Finger	550.0	750.0	2200.0	2000.0	1.0	750.0	1.0	n/a	go_stim
114870.2167907409	1399.7832092590845	n/a	1826	71	2750	1399.78320926	stim	stop-signal	58	180148	0.0-7.25-1.25	beast_fmri_test	391	177487,/,178168,/,178848,/,179527,/,180207,/,180888,/	t,t,t,t,t,t	<img class = center src='/static/experiments/beast_fmri_test/images/D.png'></img>	89,71	2750.0	test	<img class = center src='/static/experiments/beast_fmri_test/images/redD.png'></img>	go	2000.0	2.0	25.0	go	non-target	D	89,Middle Finger	71,Index Finger	550.0	750.0	2200.0	2000.0	1.0	750.0	1.0	n/a	ITI
118184	500	n/a	-1	-1	500	0.0	fixation	poldrack-single-stim	59	182062	0.0-7.26-0.26	beast_fmri_test	391	181569,/	t	<div class = centerbox2><div class = fixation>+</div></div>	none	500.0	test	n/a	n/a	n/a	n/a	n/a	n/a	n/a	n/a	n/a	n/a	n/a	n/a	n/a	n/a	n/a	n/a	n/a	n/a	fixation
117514.67279705225	2750	n/a	2174	71	2750	673.327202948	stim	stop-signal	60	184816	0.0-7.26-1.26	beast_fmri_test	391	182249,/,182929,/,183610,/,184289,/,184971,/	t,t,t,t,t	<img class = center src='/static/experiments/beast_fmri_test/images/D.png'></img>	89,71	2750.0	test	<img class = center src='/static/experiments/beast_fmri_test/images/redD.png'></img>	go	2000.0	2.0	26.0	go	non-target	D	89,Middle Finger	71,Index Finger	550.0	750.0	2200.0	2000.0	1.0	750.0	1.0	n/a	go_stim
120264.67279705225	673.327202947763	n/a	2174	71	2750	673.327202948	stim	stop-signal	60	184816	0.0-7.26-1.26	beast_fmri_test	391	182249,/,182929,/,183610,/,184289,/,184971,/	t,t,t,t,t	<img class = center src='/static/experiments/beast_fmri_test/images/D.png'></img>	89,71	2750.0	test	<img class = center src='/static/experiments/beast_fmri_test/images/redD.png'></img>	go	2000.0	2.0	26.0	go	non-target	D	89,Middle Finger	71,Index Finger	550.0	750.0	2200.0	2000.0	1.0	750.0	1.0	n/a	ITI
122124	500	n/a	-1	-1	500	0.0	fixation	poldrack-single-stim	61	186002	0.0-7.27-0.27	beast_fmri_test	391	185650,/	t	<div class = centerbox2><div class = fixation>+</div></div>	none	500.0	test	n/a	n/a	n/a	n/a	n/a	n/a	n/a	n/a	n/a	n/a	n/a	n/a	n/a	n/a	n/a	n/a	n/a	n/a	fixation
121031.8724751501	750.0	n/a	-1	-1	2750	1096.12752485	stim	stop-signal	62	188756	0.0-7.27-1.27	beast_fmri_test	391	186331,/,187012,/,187691,/,188372,/,189052,/,189731,/	t,t,t,t,t,t	<img class = center src='/static/experiments/beast_fmri_test/images/P.png'></img>	89,71	2750.0	test	<img class = center src='/static/experiments/beast_fmri_test/images/redP.png'></img>	stop	2000.0	2.0	27.0	stop	non-target	P	89,Middle Finger	71,Index Finger	550.0	750.0	2200.0	2000.0	0.0	750.0	n/a	1.0	go_stim
123031.8724751501	2000.0	n/a	-1	-1	2750	1096.12752485	stim	stop-signal	62	188756	0.0-7.27-1.27	beast_fmri_test	391	186331,/,187012,/,187691,/,188372,/,189052,/,189731,/	t,t,t,t,t,t	<img class = center src='/static/experiments/beast_fmri_test/images/P.png'></img>	89,71	2750.0	test	<img class = center src='/static/experiments/beast_fmri_test/images/redP.png'></img>	stop	2000.0	2.0	27.0	stop	non-target	P	89,Middle Finger	71,Index Finger	550.0	750.0	2200.0	2000.0	0.0	750.0	n/a	1.0	stop_stim
123781.8724751501	1096.1275248498864	n/a	-1	-1	2750	1096.12752485	stim	stop-signal	62	188756	0.0-7.27-1.27	beast_fmri_test	391	186331,/,187012,/,187691,/,188372,/,189052,/,189731,/	t,t,t,t,t,t	<img class = center src='/static/experiments/beast_fmri_test/images/P.png'></img>	89,71	2750.0	test	<img class = center src='/static/experiments/beast_fmri_test/images/redP.png'></img>	stop	2000.0	2.0	27.0	stop	non-target	P	89,Middle Finger	71,Index Finger	550.0	750.0	2200.0	2000.0	0.0	750.0	n/a	1.0	ITI
126485	500	n/a	-1	-1	500	0.0	fixation	poldrack-single-stim	63	190363	0.0-7.28-0.28	beast_fmri_test	391	n/a	n/a	<div class = centerbox2><div class = fixation>+</div></div>	none	500.0	test	n/a	n/a	n/a	n/a	n/a	n/a	n/a	n/a	n/a	n/a	n/a	n/a	n/a	n/a	n/a	n/a	n/a	n/a	fixation
125165.84507103087	800.0	n/a	-1	-1	2750	1324.15492897	stim	stop-signal	64	193118	0.0-7.28-1.28	beast_fmri_test	391	190411,/,191093,/,191773,/,192453,/,193132,/,193814,/	t,t,t,t,t,t	<img class = center src='/static/experiments/beast_fmri_test/images/B.png'></img>	89,71	2750.0	test	<img class = center src='/static/experiments/beast_fmri_test/images/redB.png'></img>	stop	1950.0	2.0	28.0	stop	non-target	B	89,Middle Finger	71,Index Finger	550.0	800.0	2200.0	1950.0	0.0	800.0	n/a	1.0	go_stim
127115.84507103087	1950.0	n/a	-1	-1	2750	1324.15492897	stim	stop-signal	64	193118	0.0-7.28-1.28	beast_fmri_test	391	190411,/,191093,/,191773,/,192453,/,193132,/,193814,/	t,t,t,t,t,t	<img class = center src='/static/experiments/beast_fmri_test/images/B.png'></img>	89,71	2750.0	test	<img class = center src='/static/experiments/beast_fmri_test/images/redB.png'></img>	stop	1950.0	2.0	28.0	stop	non-target	B	89,Middle Finger	71,Index Finger	550.0	800.0	2200.0	1950.0	0.0	800.0	n/a	1.0	stop_stim
127915.84507103087	1324.1549289691259	n/a	-1	-1	2750	1324.15492897	stim	stop-signal	64	193118	0.0-7.28-1.28	beast_fmri_test	391	190411,/,191093,/,191773,/,192453,/,193132,/,193814,/	t,t,t,t,t,t	<img class = center src='/static/experiments/beast_fmri_test/images/B.png'></img>	89,71	2750.0	test	<img class = center src='/static/experiments/beast_fmri_test/images/redB.png'></img>	stop	1950.0	2.0	28.0	stop	non-target	B	89,Middle Finger	71,Index Finger	550.0	800.0	2200.0	1950.0	0.0	800.0	n/a	1.0	ITI
131077	500	n/a	-1	-1	500	0.0	fixation	poldrack-single-stim	65	194955	0.0-7.29-0.29	beast_fmri_test	391	194494,/	t	<div class = centerbox2><div class = fixation>+</div></div>	none	500.0	test	n/a	n/a	n/a	n/a	n/a	n/a	n/a	n/a	n/a	n/a	n/a	n/a	n/a	n/a	n/a	n/a	n/a	n/a	fixation
130566.82194344208	550.0	n/a	-1	-1	2750	514.178056558	stim	stop-signal	66	197709	0.0-7.29-1.29	beast_fmri_test	391	195174,/,195854,/,196534,/,197215,/,197896,/	t,t,t,t,t	<img class = center src='/static/experiments/beast_fmri_test/images/P.png'></img>	89,71	2750.0	test	<img class = center src='/static/experiments/beast_fmri_test/images/redP.png'></img>	stop	2200.0	2.0	29.0	stop	target	P	89,Middle Finger	71,Index Finger	550.0	850.0	2200.0	1950.0	0.0	550.0	n/a	1.0	go_stim
132766.82194344208	2200.0	n/a	-1	-1	2750	514.178056558	stim	stop-signal	66	197709	0.0-7.29-1.29	beast_fmri_test	391	195174,/,195854,/,196534,/,197215,/,197896,/	t,t,t,t,t	<img class = center src='/static/experiments/beast_fmri_test/images/P.png'></img>	89,71	2750.0	test	<img class = center src='/static/experiments/beast_fmri_test/images/redP.png'></img>	stop	2200.0	2.0	29.0	stop	target	P	89,Middle Finger	71,Index Finger	550.0	850.0	2200.0	1950.0	0.0	550.0	n/a	1.0	stop_stim
133316.82194344208	514.17805655792597	n/a	-1	-1	2750	514.178056558	stim	stop-signal	66	197709	0.0-7.29-1.29	beast_fmri_test	391	195174,/,195854,/,196534,/,197215,/,197896,/	t,t,t,t,t	<img class = center src='/static/experiments/beast_fmri_test/images/P.png'></img>	89,71	2750.0	test	<img class = center src='/static/experiments/beast_fmri_test/images/redP.png'></img>	stop	2200.0	2.0	29.0	stop	target	P	89,Middle Finger	71,Index Finger	550.0	850.0	2200.0	1950.0	0.0	550.0	n/a	1.0	ITI
134860	500	n/a	-1	-1	500	0.0	fixation	poldrack-single-stim	67	198738	0.0-7.30-0.30	beast_fmri_test	391	198576,/	t	<div class = centerbox2><div class = fixation>+</div></div>	none	500.0	test	n/a	n/a	n/a	n/a	n/a	n/a	n/a	n/a	n/a	n/a	n/a	n/a	n/a	n/a	n/a	n/a	n/a	n/a	fixation
133997.09527121065	850.0	n/a	-1	-1	2750	867.904728789	stim	stop-signal	68	201493	0.0-7.30-1.30	beast_fmri_test	391	199256,/,199936,/,200617,/,201297,/,201977,/	t,t,t,t,t	<img class = center src='/static/experiments/beast_fmri_test/images/T.png'></img>	89,71	2750.0	test	<img class = center src='/static/experiments/beast_fmri_test/images/redT.png'></img>	stop	1900.0	2.0	30.0	stop	non-target	T	89,Middle Finger	71,Index Finger	600.0	850.0	2200.0	1900.0	0.0	850.0	n/a	1.0	go_stim
135897.09527121065	1900.0	n/a	-1	-1	2750	867.904728789	stim	stop-signal	68	201493	0.0-7.30-1.30	beast_fmri_test	391	199256,/,199936,/,200617,/,201297,/,201977,/	t,t,t,t,t	<img class = center src='/static/experiments/beast_fmri_test/images/T.png'></img>	89,71	2750.0	test	<img class = center src='/static/experiments/beast_fmri_test/images/redT.png'></img>	stop	1900.0	2.0	30.0	stop	non-target	T	89,Middle Finger	71,Index Finger	600.0	850.0	2200.0	1900.0	0.0	850.0	n/a	1.0	stop_stim
136747.09527121065	867.90472878934429	n/a	-1	-1	2750	867.904728789	stim	stop-signal	68	201493	0.0-7.30-1.30	beast_fmri_test	391	199256,/,199936,/,200617,/,201297,/,201977,/	t,t,t,t,t	<img class = center src='/static/experiments/beast_fmri_test/images/T.png'></img>	89,71	2750.0	test	<img class = center src='/static/experiments/beast_fmri_test/images/redT.png'></img>	stop	1900.0	2.0	30.0	stop	non-target	T	89,Middle Finger	71,Index Finger	600.0	850.0	2200.0	1900.0	0.0	850.0	n/a	1.0	ITI
138995	500	n/a	-1	-1	500	0.0	fixation	poldrack-single-stim	69	202873	0.0-7.31-0.31	beast_fmri_test	391	202659,/	t	<div class = centerbox2><div class = fixation>+</div></div>	none	500.0	test	n/a	n/a	n/a	n/a	n/a	n/a	n/a	n/a	n/a	n/a	n/a	n/a	n/a	n/a	n/a	n/a	n/a	n/a	fixation
137500.50152914031	2750	n/a	1621	71	2750	1498.49847086	stim	stop-signal	70	205627	0.0-7.31-1.31	beast_fmri_test	391	203339,/,204019,/,204700,/,205379,/,206060,/,206740,/	t,t,t,t,t,t	<img class = center src='/static/experiments/beast_fmri_test/images/T.png'></img>	89,71	2750.0	test	<img class = center src='/static/experiments/beast_fmri_test/images/redT.png'></img>	go	1850.0	2.0	31.0	go	non-target	T	89,Middle Finger	71,Index Finger	600.0	900.0	2200.0	1850.0	1.0	900.0	1.0	n/a	go_stim
140250.50152914031	1498.4984708596805	n/a	1621	71	2750	1498.49847086	stim	stop-signal	70	205627	0.0-7.31-1.31	beast_fmri_test	391	203339,/,204019,/,204700,/,205379,/,206060,/,206740,/	t,t,t,t,t,t	<img class = center src='/static/experiments/beast_fmri_test/images/T.png'></img>	89,71	2750.0	test	<img class = center src='/static/experiments/beast_fmri_test/images/redT.png'></img>	go	1850.0	2.0	31.0	go	non-target	T	89,Middle Finger	71,Index Finger	600.0	900.0	2200.0	1850.0	1.0	900.0	1.0	n/a	ITI
143762	500	n/a	-1	-1	500	0.0	fixation	poldrack-single-stim	71	207640	0.0-7.32-0.32	beast_fmri_test	391	207420,/	t	<div class = centerbox2><div class = fixation>+</div></div>	none	500.0	test	n/a	n/a	n/a	n/a	n/a	n/a	n/a	n/a	n/a	n/a	n/a	n/a	n/a	n/a	n/a	n/a	n/a	n/a	fixation
143320.91333994016	2750	n/a	2493	71	2750	446.08666006	stim	stop-signal	72	210395	0.0-7.32-1.32	beast_fmri_test	391	208101,/,208781,/,209461,/,210140,/,210820,/	t,t,t,t,t	<img class = center src='/static/experiments/beast_fmri_test/images/D.png'></img>	89,71	2750.0	test	<img class = center src='/static/experiments/beast_fmri_test/images/redD.png'></img>	go	1850.0	2.0	32.0	go	non-target	D	89,Middle Finger	71,Index Finger	600.0	900.0	2200.0	1850.0	1.0	900.0	1.0	n/a	go_stim
146070.91333994016	446.08666005983315	n/a	2493	71	2750	446.08666006	stim	stop-signal	72	210395	0.0-7.32-1.32	beast_fmri_test	391	208101,/,208781,/,209461,/,210140,/,210820,/	t,t,t,t,t	<img class = center src='/static/experiments/beast_fmri_test/images/D.png'></img>	89,71	2750.0	test	<img class = center src='/static/experiments/beast_fmri_test/images/redD.png'></img>	go	1850.0	2.0	32.0	go	non-target	D	89,Middle Finger	71,Index Finger	600.0	900.0	2200.0	1850.0	1.0	900.0	1.0	n/a	ITI
147475	500	n/a	-1	-1	500	0.0	fixation	poldrack-single-stim	73	211353	0.0-7.33-0.33	beast_fmri_test	391	n/a	n/a	<div class = centerbox2><div class = fixation>+</div></div>	none	500.0	test	n/a	n/a	n/a	n/a	n/a	n/a	n/a	n/a	n/a	n/a	n/a	n/a	n/a	n/a	n/a	n/a	n/a	n/a	fixation
146663.79034547077	2750	n/a	1770	89	2750	815.209654529	stim	stop-signal	74	214107	0.0-7.33-1.33	beast_fmri_test	391	211502,/,212182,/,212862,/,213543,/,214223,/,214903,/	t,t,t,t,t,t	<img class = center src='/static/experiments/beast_fmri_test/images/T.png'></img>	89,71	2750.0	test	<img class = center src='/static/experiments/beast_fmri_test/images/redT.png'></img>	go	2150.0	2.0	33.0	go	target	T	89,Middle Finger	71,Index Finger	600.0	900.0	2150.0	1850.0	1.0	600.0	1.0	n/a	go_stim
149413.79034547077	815.20965452922303	n/a	1770	89	2750	815.209654529	stim	stop-signal	74	214107	0.0-7.33-1.33	beast_fmri_test	391	211502,/,212182,/,212862,/,213543,/,214223,/,214903,/	t,t,t,t,t,t	<img class = center src='/static/experiments/beast_fmri_test/images/T.png'></img>	89,71	2750.0	test	<img class = center src='/static/experiments/beast_fmri_test/images/redT.png'></img>	go	2150.0	2.0	33.0	go	target	T	89,Middle Finger	71,Index Finger	600.0	900.0	2150.0	1850.0	1.0	600.0	1.0	n/a	ITI
151558	500	n/a	-1	-1	500	0.0	fixation	poldrack-single-stim	75	215436	0.0-7.34-0.34	beast_fmri_test	391	n/a	n/a	<div class = centerbox2><div class = fixation>+</div></div>	none	500.0	test	n/a	n/a	n/a	n/a	n/a	n/a	n/a	n/a	n/a	n/a	n/a	n/a	n/a	n/a	n/a	n/a	n/a	n/a	fixation
150819.59414324994	2750	n/a	2353	71	2750	742.40585675	stim	stop-signal	76	218190	0.0-7.34-1.34	beast_fmri_test	391	215584,/,216264,/,216944,/,217624,/,218305,/	t,t,t,t,t	<img class = center src='/static/experiments/beast_fmri_test/images/P.png'></img>	89,71	2750.0	test	<img class = center src='/static/experiments/beast_fmri_test/images/redP.png'></img>	go	1850.0	2.0	34.0	go	non-target	P	89,Middle Finger	71,Index Finger	600.0	900.0	2150.0	1850.0	1.0	900.0	1.0	n/a	go_stim
153569.59414324994	742.40585675005627	n/a	2353	71	2750	742.40585675	stim	stop-signal	76	218190	0.0-7.34-1.34	beast_fmri_test	391	215584,/,216264,/,216944,/,217624,/,218305,/	t,t,t,t,t	<img class = center src='/static/experiments/beast_fmri_test/images/P.png'></img>	89,71	2750.0	test	<img class = center src='/static/experiments/beast_fmri_test/images/redP.png'></img>	go	1850.0	2.0	34.0	go	non-target	P	89,Middle Finger	71,Index Finger	600.0	900.0	2150.0	1850.0	1.0	900.0	1.0	n/a	ITI
155569	500	n/a	-1	-1	500	0.0	fixation	poldrack-single-stim	77	219447	0.0-7.35-0.35	beast_fmri_test	391	218988,/	t	<div class = centerbox2><div class = fixation>+</div></div>	none	500.0	test	n/a	n/a	n/a	n/a	n/a	n/a	n/a	n/a	n/a	n/a	n/a	n/a	n/a	n/a	n/a	n/a	n/a	n/a	fixation
154785.74782619963	2750	n/a	2186	71	2750	788.2521738	stim	stop-signal	78	222202	0.0-7.35-1.35	beast_fmri_test	391	219665,/,220346,/,221026,/,221706,/,222386,/	t,t,t,t,t	<img class = center src='/static/experiments/beast_fmri_test/images/V.png'></img>	89,71	2750.0	test	<img class = center src='/static/experiments/beast_fmri_test/images/redV.png'></img>	go	1850.0	2.0	35.0	go	non-target	V	89,Middle Finger	71,Index Finger	600.0	900.0	2150.0	1850.0	1.0	900.0	1.0	n/a	go_stim
157535.74782619963	788.25217380038225	n/a	2186	71	2750	788.2521738	stim	stop-signal	78	222202	0.0-7.35-1.35	beast_fmri_test	391	219665,/,220346,/,221026,/,221706,/,222386,/	t,t,t,t,t	<img class = center src='/static/experiments/beast_fmri_test/images/V.png'></img>	89,71	2750.0	test	<img class = center src='/static/experiments/beast_fmri_test/images/redV.png'></img>	go	1850.0	2.0	35.0	go	non-target	V	89,Middle Finger	71,Index Finger	600.0	900.0	2150.0	1850.0	1.0	900.0	1.0	n/a	ITI
159627	500	n/a	-1	-1	500	0.0	fixation	poldrack-single-stim	79	223505	0.0-7.36-0.36	beast_fmri_test	391	223067,/	t	<div class = centerbox2><div class = fixation>+</div></div>	none	500.0	test	n/a	n/a	n/a	n/a	n/a	n/a	n/a	n/a	n/a	n/a	n/a	n/a	n/a	n/a	n/a	n/a	n/a	n/a	fixation
158349.96719208243	600.0	n/a	-1	-1	2750	1282.03280792	stim	stop-signal	80	226260	0.0-7.36-1.36	beast_fmri_test	391	223747,/,224427,/,225107,/,225788,/,226468,/,227148,/	t,t,t,t,t,t	<img class = center src='/static/experiments/beast_fmri_test/images/P.png'></img>	89,71	2750.0	test	<img class = center src='/static/experiments/beast_fmri_test/images/redP.png'></img>	stop	2150.0	2.0	36.0	stop	target	P	89,Middle Finger	71,Index Finger	600.0	900.0	2150.0	1850.0	0.0	600.0	n/a	1.0	go_stim
160499.96719208243	2150.0	n/a	-1	-1	2750	1282.03280792	stim	stop-signal	80	226260	0.0-7.36-1.36	beast_fmri_test	391	223747,/,224427,/,225107,/,225788,/,226468,/,227148,/	t,t,t,t,t,t	<img class = center src='/static/experiments/beast_fmri_test/images/P.png'></img>	89,71	2750.0	test	<img class = center src='/static/experiments/beast_fmri_test/images/redP.png'></img>	stop	2150.0	2.0	36.0	stop	target	P	89,Middle Finger	71,Index Finger	600.0	900.0	2150.0	1850.0	0.0	600.0	n/a	1.0	stop_stim
161099.96719208243	1282.0328079175567	n/a	-1	-1	2750	1282.03280792	stim	stop-signal	80	226260	0.0-7.36-1.36	beast_fmri_test	391	223747,/,224427,/,225107,/,225788,/,226468,/,227148,/	t,t,t,t,t,t	<img class = center src='/static/experiments/beast_fmri_test/images/P.png'></img>	89,71	2750.0	test	<img class = center src='/static/experiments/beast_fmri_test/images/redP.png'></img>	stop	2150.0	2.0	36.0	stop	target	P	89,Middle Finger	71,Index Finger	600.0	900.0	2150.0	1850.0	0.0	600.0	n/a	1.0	ITI
164181	500	n/a	-1	-1	500	0.0	fixation	poldrack-single-stim	81	228059	0.0-7.37-0.37	beast_fmri_test	391	227829,/	t	<div class = centerbox2><div class = fixation>+</div></div>	none	500.0	test	n/a	n/a	n/a	n/a	n/a	n/a	n/a	n/a	n/a	n/a	n/a	n/a	n/a	n/a	n/a	n/a	n/a	n/a	fixation
164002.26141026075	2750	n/a	1271	89	2750	181.738589739	stim	stop-signal	82	230812	0.0-7.37-1.37	beast_fmri_test	391	228510,/,229189,/,229869,/,230550,/	t,t,t,t	<img class = center src='/static/experiments/beast_fmri_test/images/V.png'></img>	89,71	2750.0	test	<img class = center src='/static/experiments/beast_fmri_test/images/redV.png'></img>	go	2100.0	2.0	37.0	go	target	V	89,Middle Finger	71,Index Finger	650.0	900.0	2100.0	1850.0	1.0	650.0	1.0	n/a	go_stim
166752.26141026075	181.73858973925502	n/a	1271	89	2750	181.738589739	stim	stop-signal	82	230812	0.0-7.37-1.37	beast_fmri_test	391	228510,/,229189,/,229869,/,230550,/	t,t,t,t	<img class = center src='/static/experiments/beast_fmri_test/images/V.png'></img>	89,71	2750.0	test	<img class = center src='/static/experiments/beast_fmri_test/images/redV.png'></img>	go	2100.0	2.0	37.0	go	target	V	89,Middle Finger	71,Index Finger	650.0	900.0	2100.0	1850.0	1.0	650.0	1.0	n/a	ITI
167631	500	n/a	-1	-1	500	0.0	fixation	poldrack-single-stim	83	231509	0.0-7.38-0.38	beast_fmri_test	391	231231,/	t	<div class = centerbox2><div class = fixation>+</div></div>	none	500.0	test	n/a	n/a	n/a	n/a	n/a	n/a	n/a	n/a	n/a	n/a	n/a	n/a	n/a	n/a	n/a	n/a	n/a	n/a	fixation
167437.39877372989	2750	n/a	2296	71	2750	197.60122627	stim	stop-signal	84	234263	0.0-7.38-1.38	beast_fmri_test	391	231911,/,232591,/,233272,/,233951,/	t,t,t,t	<img class = center src='/static/experiments/beast_fmri_test/images/B.png'></img>	89,71	2750.0	test	<img class = center src='/static/experiments/beast_fmri_test/images/redB.png'></img>	go	1850.0	2.0	38.0	go	non-target	B	89,Middle Finger	71,Index Finger	650.0	900.0	2100.0	1850.0	1.0	900.0	1.0	n/a	go_stim
170187.39877372989	197.60122627011981	n/a	2296	71	2750	197.60122627	stim	stop-signal	84	234263	0.0-7.38-1.38	beast_fmri_test	391	231911,/,232591,/,233272,/,233951,/	t,t,t,t	<img class = center src='/static/experiments/beast_fmri_test/images/B.png'></img>	89,71	2750.0	test	<img class = center src='/static/experiments/beast_fmri_test/images/redB.png'></img>	go	1850.0	2.0	38.0	go	non-target	B	89,Middle Finger	71,Index Finger	650.0	900.0	2100.0	1850.0	1.0	900.0	1.0	n/a	ITI
171098	500	n/a	-1	-1	500	0.0	fixation	poldrack-single-stim	85	234976	0.0-7.39-0.39	beast_fmri_test	391	234633,/	t	<div class = centerbox2><div class = fixation>+</div></div>	none	500.0	test	n/a	n/a	n/a	n/a	n/a	n/a	n/a	n/a	n/a	n/a	n/a	n/a	n/a	n/a	n/a	n/a	n/a	n/a	fixation
169990.79338728177	2750	n/a	1643	89	2750	1111.20661272	stim	stop-signal	86	237730	0.0-7.39-1.39	beast_fmri_test	391	235313,/,235993,/,236673,/,237353,/,238034,/,238714,/	t,t,t,t,t,t	<img class = center src='/static/experiments/beast_fmri_test/images/V.png'></img>	89,71	2750.0	test	<img class = center src='/static/experiments/beast_fmri_test/images/redV.png'></img>	go	2100.0	2.0	39.0	go	target	V	89,Middle Finger	71,Index Finger	650.0	900.0	2100.0	1850.0	1.0	650.0	1.0	n/a	go_stim
172740.79338728177	1111.2066127182466	n/a	1643	89	2750	1111.20661272	stim	stop-signal	86	237730	0.0-7.39-1.39	beast_fmri_test	391	235313,/,235993,/,236673,/,237353,/,238034,/,238714,/	t,t,t,t,t,t	<img class = center src='/static/experiments/beast_fmri_test/images/V.png'></img>	89,71	2750.0	test	<img class = center src='/static/experiments/beast_fmri_test/images/redV.png'></img>	go	2100.0	2.0	39.0	go	target	V	89,Middle Finger	71,Index Finger	650.0	900.0	2100.0	1850.0	1.0	650.0	1.0	n/a	ITI
175477	500	n/a	-1	-1	500	0.0	fixation	poldrack-single-stim	87	239355	0.0-7.40-0.40	beast_fmri_test	391	n/a	n/a	<div class = centerbox2><div class = fixation>+</div></div>	none	500.0	test	n/a	n/a	n/a	n/a	n/a	n/a	n/a	n/a	n/a	n/a	n/a	n/a	n/a	n/a	n/a	n/a	n/a	n/a	fixation
173464.08896028795	2750	n/a	1768	71	2750	2016.91103971	stim	stop-signal	88	242109	0.0-7.40-1.40	beast_fmri_test	391	239393,/,240075,/,240755,/,241434,/,242116,/,242795,/,243476,/	t,t,t,t,t,t,t	<img class = center src='/static/experiments/beast_fmri_test/images/V.png'></img>	89,71	2750.0	test	<img class = center src='/static/experiments/beast_fmri_test/images/redV.png'></img>	go	1850.0	2.0	40.0	go	non-target	V	89,Middle Finger	71,Index Finger	650.0	900.0	2100.0	1850.0	1.0	900.0	1.0	n/a	go_stim
176214.08896028795	2016.911039712048	n/a	1768	71	2750	2016.91103971	stim	stop-signal	88	242109	0.0-7.40-1.40	beast_fmri_test	391	239393,/,240075,/,240755,/,241434,/,242116,/,242795,/,243476,/	t,t,t,t,t,t,t	<img class = center src='/static/experiments/beast_fmri_test/images/V.png'></img>	89,71	2750.0	test	<img class = center src='/static/experiments/beast_fmri_test/images/redV.png'></img>	go	1850.0	2.0	40.0	go	non-target	V	89,Middle Finger	71,Index Finger	650.0	900.0	2100.0	1850.0	1.0	900.0	1.0	n/a	ITI
180761	500	n/a	-1	-1	500	0.0	fixation	poldrack-single-stim	89	244639	0.0-7.41-0.41	beast_fmri_test	391	244157,/	t	<div class = centerbox2><div class = fixation>+</div></div>	none	500.0	test	n/a	n/a	n/a	n/a	n/a	n/a	n/a	n/a	n/a	n/a	n/a	n/a	n/a	n/a	n/a	n/a	n/a	n/a	fixation
179130.92939674918	900.0	n/a	-1	-1	2750	1635.07060325	stim	stop-signal	90	247394	0.0-7.41-1.41	beast_fmri_test	391	244837,/,245517,/,246198,/,246878,/,247558,/,248238,/,248918,/	t,t,t,t,t,t,t	<img class = center src='/static/experiments/beast_fmri_test/images/D.png'></img>	89,71	2750.0	test	<img class = center src='/static/experiments/beast_fmri_test/images/redD.png'></img>	stop	1850.0	2.0	41.0	stop	non-target	D	89,Middle Finger	71,Index Finger	650.0	900.0	2100.0	1850.0	0.0	900.0	n/a	1.0	go_stim
180980.92939674918	1850.0	n/a	-1	-1	2750	1635.07060325	stim	stop-signal	90	247394	0.0-7.41-1.41	beast_fmri_test	391	244837,/,245517,/,246198,/,246878,/,247558,/,248238,/,248918,/	t,t,t,t,t,t,t	<img class = center src='/static/experiments/beast_fmri_test/images/D.png'></img>	89,71	2750.0	test	<img class = center src='/static/experiments/beast_fmri_test/images/redD.png'></img>	stop	1850.0	2.0	41.0	stop	non-target	D	89,Middle Finger	71,Index Finger	650.0	900.0	2100.0	1850.0	0.0	900.0	n/a	1.0	stop_stim
181880.92939674918	1635.070603250814	n/a	-1	-1	2750	1635.07060325	stim	stop-signal	90	247394	0.0-7.41-1.41	beast_fmri_test	391	244837,/,245517,/,246198,/,246878,/,247558,/,248238,/,248918,/	t,t,t,t,t,t,t	<img class = center src='/static/experiments/beast_fmri_test/images/D.png'></img>	89,71	2750.0	test	<img class = center src='/static/experiments/beast_fmri_test/images/redD.png'></img>	stop	1850.0	2.0	41.0	stop	non-target	D	89,Middle Finger	71,Index Finger	650.0	900.0	2100.0	1850.0	0.0	900.0	n/a	1.0	ITI
185668	500	n/a	-1	-1	500	0.0	fixation	poldrack-single-stim	91	249546	0.0-7.42-0.42	beast_fmri_test	391	n/a	n/a	<div class = centerbox2><div class = fixation>+</div></div>	none	500.0	test	n/a	n/a	n/a	n/a	n/a	n/a	n/a	n/a	n/a	n/a	n/a	n/a	n/a	n/a	n/a	n/a	n/a	n/a	fixation
183544.84378533356	950.0	n/a	-1	-1	2750	2128.15621467	stim	stop-signal	92	252301	0.0-7.42-1.42	beast_fmri_test	391	249598,/,250279,/,250959,/,251639,/,252319,/,253000,/,253680,/,254361,/	t,t,t,t,t,t,t,t	<img class = center src='/static/experiments/beast_fmri_test/images/T.png'></img>	89,71	2750.0	test	<img class = center src='/static/experiments/beast_fmri_test/images/redT.png'></img>	stop	1800.0	2.0	42.0	stop	non-target	T	89,Middle Finger	71,Index Finger	650.0	950.0	2100.0	1800.0	0.0	950.0	n/a	1.0	go_stim
185344.84378533356	1800.0	n/a	-1	-1	2750	2128.15621467	stim	stop-signal	92	252301	0.0-7.42-1.42	beast_fmri_test	391	249598,/,250279,/,250959,/,251639,/,252319,/,253000,/,253680,/,254361,/	t,t,t,t,t,t,t,t	<img class = center src='/static/experiments/beast_fmri_test/images/T.png'></img>	89,71	2750.0	test	<img class = center src='/static/experiments/beast_fmri_test/images/redT.png'></img>	stop	1800.0	2.0	42.0	stop	non-target	T	89,Middle Finger	71,Index Finger	650.0	950.0	2100.0	1800.0	0.0	950.0	n/a	1.0	stop_stim
186294.84378533356	2128.1562146664455	n/a	-1	-1	2750	2128.15621467	stim	stop-signal	92	252301	0.0-7.42-1.42	beast_fmri_test	391	249598,/,250279,/,250959,/,251639,/,252319,/,253000,/,253680,/,254361,/	t,t,t,t,t,t,t,t	<img class = center src='/static/experiments/beast_fmri_test/images/T.png'></img>	89,71	2750.0	test	<img class = center src='/static/experiments/beast_fmri_test/images/redT.png'></img>	stop	1800.0	2.0	42.0	stop	non-target	T	89,Middle Finger	71,Index Finger	650.0	950.0	2100.0	1800.0	0.0	950.0	n/a	1.0	ITI
191067	500	n/a	-1	-1	500	0.0	fixation	poldrack-single-stim	93	254945	0.0-7.43-0.43	beast_fmri_test	391	n/a	n/a	<div class = centerbox2><div class = fixation>+</div></div>	none	500.0	test	n/a	n/a	n/a	n/a	n/a	n/a	n/a	n/a	n/a	n/a	n/a	n/a	n/a	n/a	n/a	n/a	n/a	n/a	fixation
190652.84467842241	2750	n/a	2036	71	2750	419.155321578	stim	stop-signal	94	257700	0.0-7.43-1.43	beast_fmri_test	391	255041,/,255721,/,256401,/,257083,/,257762,/	t,t,t,t,t	<img class = center src='/static/experiments/beast_fmri_test/images/V.png'></img>	89,71	2750.0	test	<img class = center src='/static/experiments/beast_fmri_test/images/redV.png'></img>	go	1750.0	2.0	43.0	go	non-target	V	89,Middle Finger	71,Index Finger	650.0	1000.0	2100.0	1750.0	1.0	1000.0	1.0	n/a	go_stim
193402.84467842241	419.15532157759031	n/a	2036	71	2750	419.155321578	stim	stop-signal	94	257700	0.0-7.43-1.43	beast_fmri_test	391	255041,/,255721,/,256401,/,257083,/,257762,/	t,t,t,t,t	<img class = center src='/static/experiments/beast_fmri_test/images/V.png'></img>	89,71	2750.0	test	<img class = center src='/static/experiments/beast_fmri_test/images/redV.png'></img>	go	1750.0	2.0	43.0	go	non-target	V	89,Middle Finger	71,Index Finger	650.0	1000.0	2100.0	1750.0	1.0	1000.0	1.0	n/a	ITI
194757	500	n/a	-1	-1	500	0.0	fixation	poldrack-single-stim	95	258635	0.0-7.44-0.44	beast_fmri_test	391	258443,/	t	<div class = centerbox2><div class = fixation>+</div></div>	none	500.0	test	n/a	n/a	n/a	n/a	n/a	n/a	n/a	n/a	n/a	n/a	n/a	n/a	n/a	n/a	n/a	n/a	n/a	n/a	fixation
194205.59047854925	650.0	n/a	-1	-1	2750	556.409521451	stim	stop-signal	96	261390	0.0-7.44-1.44	beast_fmri_test	391	259124,/,259803,/,260484,/,261164,/,261844,/	t,t,t,t,t	<img class = center src='/static/experiments/beast_fmri_test/images/T.png'></img>	89,71	2750.0	test	<img class = center src='/static/experiments/beast_fmri_test/images/redT.png'></img>	stop	2100.0	2.0	44.0	stop	target	T	89,Middle Finger	71,Index Finger	650.0	1000.0	2100.0	1750.0	0.0	650.0	n/a	1.0	go_stim
196305.59047854925	2100.0	n/a	-1	-1	2750	556.409521451	stim	stop-signal	96	261390	0.0-7.44-1.44	beast_fmri_test	391	259124,/,259803,/,260484,/,261164,/,261844,/	t,t,t,t,t	<img class = center src='/static/experiments/beast_fmri_test/images/T.png'></img>	89,71	2750.0	test	<img class = center src='/static/experiments/beast_fmri_test/images/redT.png'></img>	stop	2100.0	2.0	44.0	stop	target	T	89,Middle Finger	71,Index Finger	650.0	1000.0	2100.0	1750.0	0.0	650.0	n/a	1.0	stop_stim
196955.59047854925	556.40952145074277	n/a	-1	-1	2750	556.409521451	stim	stop-signal	96	261390	0.0-7.44-1.44	beast_fmri_test	391	259124,/,259803,/,260484,/,261164,/,261844,/	t,t,t,t,t	<img class = center src='/static/experiments/beast_fmri_test/images/T.png'></img>	89,71	2750.0	test	<img class = center src='/static/experiments/beast_fmri_test/images/redT.png'></img>	stop	2100.0	2.0	44.0	stop	target	T	89,Middle Finger	71,Index Finger	650.0	1000.0	2100.0	1750.0	0.0	650.0	n/a	1.0	ITI
198584	500	n/a	-1	-1	500	0.0	fixation	poldrack-single-stim	97	262462	0.0-7.45-0.45	beast_fmri_test	391	n/a	n/a	<div class = centerbox2><div class = fixation>+</div></div>	none	500.0	test	n/a	n/a	n/a	n/a	n/a	n/a	n/a	n/a	n/a	n/a	n/a	n/a	n/a	n/a	n/a	n/a	n/a	n/a	fixation
194220.90344790401	2750	n/a	1354	89	2750	4368.0965521	stim	stop-signal	98	265217	0.0-7.45-1.45	beast_fmri_test	391	262523,/,263205,/,263885,/,264566,/,265245,/,265926,/,266606,/,267287,/,267967,/,268647,/,269328,/	t,t,t,t,t,t,t,t,t,t,t	<img class = center src='/static/experiments/beast_fmri_test/images/V.png'></img>	89,71	2750.0	test	<img class = center src='/static/experiments/beast_fmri_test/images/redV.png'></img>	go	2050.0	2.0	45.0	go	target	V	89,Middle Finger	71,Index Finger	700.0	1000.0	2050.0	1750.0	1.0	700.0	1.0	n/a	go_stim
196970.90344790401	4368.096552095978	n/a	1354	89	2750	4368.0965521	stim	stop-signal	98	265217	0.0-7.45-1.45	beast_fmri_test	391	262523,/,263205,/,263885,/,264566,/,265245,/,265926,/,266606,/,267287,/,267967,/,268647,/,269328,/	t,t,t,t,t,t,t,t,t,t,t	<img class = center src='/static/experiments/beast_fmri_test/images/V.png'></img>	89,71	2750.0	test	<img class = center src='/static/experiments/beast_fmri_test/images/redV.png'></img>	go	2050.0	2.0	45.0	go	target	V	89,Middle Finger	71,Index Finger	700.0	1000.0	2050.0	1750.0	1.0	700.0	1.0	n/a	ITI
206227	500	n/a	-1	-1	500	0.0	fixation	poldrack-single-stim	99	270105	0.0-7.46-0.46	beast_fmri_test	391	270008,/	t	<div class = centerbox2><div class = fixation>+</div></div>	none	500.0	test	n/a	n/a	n/a	n/a	n/a	n/a	n/a	n/a	n/a	n/a	n/a	n/a	n/a	n/a	n/a	n/a	n/a	n/a	fixation
205545.77724961017	700.0	n/a	-1	-1	2750	685.22275039	stim	stop-signal	100	272859	0.0-7.46-1.46	beast_fmri_test	391	270688,/,271368,/,272049,/,272729,/,273409,/	t,t,t,t,t	<img class = center src='/static/experiments/beast_fmri_test/images/T.png'></img>	89,71	2750.0	test	<img class = center src='/static/experiments/beast_fmri_test/images/redT.png'></img>	stop	2050.0	2.0	46.0	stop	target	T	89,Middle Finger	71,Index Finger	700.0	1000.0	2050.0	1750.0	0.0	700.0	n/a	1.0	go_stim
207595.77724961017	2050.0	n/a	-1	-1	2750	685.22275039	stim	stop-signal	100	272859	0.0-7.46-1.46	beast_fmri_test	391	270688,/,271368,/,272049,/,272729,/,273409,/	t,t,t,t,t	<img class = center src='/static/experiments/beast_fmri_test/images/T.png'></img>	89,71	2750.0	test	<img class = center src='/static/experiments/beast_fmri_test/images/redT.png'></img>	stop	2050.0	2.0	46.0	stop	target	T	89,Middle Finger	71,Index Finger	700.0	1000.0	2050.0	1750.0	0.0	700.0	n/a	1.0	stop_stim
208295.77724961017	685.22275038984799	n/a	-1	-1	2750	685.22275039	stim	stop-signal	100	272859	0.0-7.46-1.46	beast_fmri_test	391	270688,/,271368,/,272049,/,272729,/,273409,/	t,t,t,t,t	<img class = center src='/static/experiments/beast_fmri_test/images/T.png'></img>	89,71	2750.0	test	<img class = center src='/static/experiments/beast_fmri_test/images/redT.png'></img>	stop	2050.0	2.0	46.0	stop	target	T	89,Middle Finger	71,Index Finger	700.0	1000.0	2050.0	1750.0	0.0	700.0	n/a	1.0	ITI
224691	15000	n/a	-1	-1	15000	0.0	practice-no-stop-feedback	poldrack-single-stim	101	288569	0.0-8.0	beast_fmri_test	391	274090,/,274770,/,275450,/,276130,/,276811,/,277491,/,278172,/,278851,/,279532,/,280212,/,280891,/,281573,/,282253,/,282933,/,283614,/,284293,/,284975,/,285654,/,286335,/,287015,/,287696,/,288376,/	t,t,t,t,t,t,t,t,t,t,t,t,t,t,t,t,t,t,t,t,t,t	"<div class = ""centerbox2_2""><p class = ""block-text2"">Your delay is 2 trials.</p><p class = block-text2>Please wait for the scanner to start the block</p></div>"	77	15000.0	n/a	n/a	n/a	n/a	n/a	n/a	n/a	n/a	n/a	n/a	n/a	n/a	n/a	n/a	n/a	n/a	n/a	n/a	n/a	practice-no-stop-feedback
225194	500	n/a	-1	-1	500	0.0	fixation	poldrack-single-stim	102	289072	0.0-9.0-0.0	beast_fmri_test	391	289057,/	t	<div class = centerbox2><div class = fixation>+</div></div>	none	500.0	test	n/a	n/a	n/a	n/a	n/a	n/a	n/a	n/a	n/a	n/a	n/a	n/a	n/a	n/a	n/a	n/a	n/a	n/a	fixation
224761.79520065617	temp_go_duration	n/a	2198	71	2750	436.204799344	stim	stop-signal	103	291826	0.0-9.0-1.0	beast_fmri_test	391	289737,/,290417,/,291098,/,291778,/	t,t,t,t	<img class = center src='/static/experiments/beast_fmri_test/images/T.png'></img>	89,71	2750.0	test	<img class = center src='/static/experiments/beast_fmri_test/images/redT.png'></img>	stop	-1.0	2.0	0.0	stop	temp-non-target	T	89,Middle Finger	71,Index Finger	750.0	1000.0	2050.0	1750.0	0.0	n/a	n/a	0.0	go_stim
temp-non-target	temp_stop_duration	n/a	2198	71	2750	436.204799344	stim	stop-signal	103	291826	0.0-9.0-1.0	beast_fmri_test	391	289737,/,290417,/,291098,/,291778,/	t,t,t,t	<img class = center src='/static/experiments/beast_fmri_test/images/T.png'></img>	89,71	2750.0	test	<img class = center src='/static/experiments/beast_fmri_test/images/redT.png'></img>	stop	-1.0	2.0	0.0	stop	temp-non-target	T	89,Middle Finger	71,Index Finger	750.0	1000.0	2050.0	1750.0	0.0	n/a	n/a	0.0	stop_stim
227511.79520065617	436.20479934383184	n/a	2198	71	2750	436.204799344	stim	stop-signal	103	291826	0.0-9.0-1.0	beast_fmri_test	391	289737,/,290417,/,291098,/,291778,/	t,t,t,t	<img class = center src='/static/experiments/beast_fmri_test/images/T.png'></img>	89,71	2750.0	test	<img class = center src='/static/experiments/beast_fmri_test/images/redT.png'></img>	stop	-1.0	2.0	0.0	stop	temp-non-target	T	89,Middle Finger	71,Index Finger	750.0	1000.0	2050.0	1750.0	0.0	n/a	n/a	0.0	ITI
228901	500	n/a	-1	-1	500	0.0	fixation	poldrack-single-stim	104	292779	0.0-9.1-0.1	beast_fmri_test	391	292458,/	t	<div class = centerbox2><div class = fixation>+</div></div>	none	500.0	test	n/a	n/a	n/a	n/a	n/a	n/a	n/a	n/a	n/a	n/a	n/a	n/a	n/a	n/a	n/a	n/a	n/a	n/a	fixation
228180.80134752567	2750	n/a	2085	71	2750	724.198652474	stim	stop-signal	105	295533	0.0-9.1-1.1	beast_fmri_test	391	293139,/,293818,/,294499,/,295179,/,295860,/	t,t,t,t,t	<img class = center src='/static/experiments/beast_fmri_test/images/P.png'></img>	89,71	2750.0	test	<img class = center src='/static/experiments/beast_fmri_test/images/redP.png'></img>	go	-1.0	2.0	1.0	go	temp-non-target	P	89,Middle Finger	71,Index Finger	750.0	1000.0	2050.0	1750.0	0.0	n/a	n/a	n/a	go_stim
230930.80134752567	724.19865247432119	n/a	2085	71	2750	724.198652474	stim	stop-signal	105	295533	0.0-9.1-1.1	beast_fmri_test	391	293139,/,293818,/,294499,/,295179,/,295860,/	t,t,t,t,t	<img class = center src='/static/experiments/beast_fmri_test/images/P.png'></img>	89,71	2750.0	test	<img class = center src='/static/experiments/beast_fmri_test/images/redP.png'></img>	go	-1.0	2.0	1.0	go	temp-non-target	P	89,Middle Finger	71,Index Finger	750.0	1000.0	2050.0	1750.0	0.0	n/a	n/a	n/a	ITI
232898	500	n/a	-1	-1	500	0.0	fixation	poldrack-single-stim	106	296776	0.0-9.2-0.2	beast_fmri_test	391	296539,/	t	<div class = centerbox2><div class = fixation>+</div></div>	none	500.0	test	n/a	n/a	n/a	n/a	n/a	n/a	n/a	n/a	n/a	n/a	n/a	n/a	n/a	n/a	n/a	n/a	n/a	n/a	fixation
232439.71048008464	2750	n/a	2028	71	2750	463.289519915	stim	stop-signal	107	299531	0.0-9.2-1.2	beast_fmri_test	391	297220,/,297900,/,298580,/,299260,/,299941,/	t,t,t,t,t	<img class = center src='/static/experiments/beast_fmri_test/images/P.png'></img>	89,71	2750.0	test	<img class = center src='/static/experiments/beast_fmri_test/images/redP.png'></img>	go	1750.0	2.0	2.0	go	non-target	P	89,Middle Finger	71,Index Finger	750.0	1000.0	2050.0	1750.0	1.0	1000.0	1.0	n/a	go_stim
235189.71048008464	463.2895199153507	n/a	2028	71	2750	463.289519915	stim	stop-signal	107	299531	0.0-9.2-1.2	beast_fmri_test	391	297220,/,297900,/,298580,/,299260,/,299941,/	t,t,t,t,t	<img class = center src='/static/experiments/beast_fmri_test/images/P.png'></img>	89,71	2750.0	test	<img class = center src='/static/experiments/beast_fmri_test/images/redP.png'></img>	go	1750.0	2.0	2.0	go	non-target	P	89,Middle Finger	71,Index Finger	750.0	1000.0	2050.0	1750.0	1.0	1000.0	1.0	n/a	ITI
236634	500	n/a	-1	-1	500	0.0	fixation	poldrack-single-stim	108	300512	0.0-9.3-0.3	beast_fmri_test	391	n/a	n/a	<div class = centerbox2><div class = fixation>+</div></div>	none	500.0	test	n/a	n/a	n/a	n/a	n/a	n/a	n/a	n/a	n/a	n/a	n/a	n/a	n/a	n/a	n/a	n/a	n/a	n/a	fixation
235982.05999513273	2750	n/a	1143	89	2750	655.940004867	stim	stop-signal	109	303266	0.0-9.3-1.3	beast_fmri_test	391	300621,/,301302,/,301982,/,302662,/,303342,/	t,t,t,t,t	<img class = center src='/static/experiments/beast_fmri_test/images/P.png'></img>	89,71	2750.0	test	<img class = center src='/static/experiments/beast_fmri_test/images/redP.png'></img>	go	2000.0	2.0	3.0	go	target	P	89,Middle Finger	71,Index Finger	750.0	1000.0	2000.0	1750.0	1.0	750.0	1.0	n/a	go_stim
238732.05999513273	655.94000486725758	n/a	1143	89	2750	655.940004867	stim	stop-signal	109	303266	0.0-9.3-1.3	beast_fmri_test	391	300621,/,301302,/,301982,/,302662,/,303342,/	t,t,t,t,t	<img class = center src='/static/experiments/beast_fmri_test/images/P.png'></img>	89,71	2750.0	test	<img class = center src='/static/experiments/beast_fmri_test/images/redP.png'></img>	go	2000.0	2.0	3.0	go	target	P	89,Middle Finger	71,Index Finger	750.0	1000.0	2000.0	1750.0	1.0	750.0	1.0	n/a	ITI
240562	500	n/a	-1	-1	500	0.0	fixation	poldrack-single-stim	110	304440	0.0-9.4-0.4	beast_fmri_test	391	304022,/	t	<div class = centerbox2><div class = fixation>+</div></div>	none	500.0	test	n/a	n/a	n/a	n/a	n/a	n/a	n/a	n/a	n/a	n/a	n/a	n/a	n/a	n/a	n/a	n/a	n/a	n/a	fixation
239729.81033248222	2750	n/a	1806	71	2750	837.189667518	stim	stop-signal	111	307195	0.0-9.4-1.4	beast_fmri_test	391	304702,/,305384,/,306064,/,306744,/,307424,/	t,t,t,t,t	<img class = center src='/static/experiments/beast_fmri_test/images/B.png'></img>	89,71	2750.0	test	<img class = center src='/static/experiments/beast_fmri_test/images/redB.png'></img>	go	1750.0	2.0	4.0	go	non-target	B	89,Middle Finger	71,Index Finger	750.0	1000.0	2000.0	1750.0	1.0	1000.0	1.0	n/a	go_stim
242479.81033248222	837.1896675177635	n/a	1806	71	2750	837.189667518	stim	stop-signal	111	307195	0.0-9.4-1.4	beast_fmri_test	391	304702,/,305384,/,306064,/,306744,/,307424,/	t,t,t,t,t	<img class = center src='/static/experiments/beast_fmri_test/images/B.png'></img>	89,71	2750.0	test	<img class = center src='/static/experiments/beast_fmri_test/images/redB.png'></img>	go	1750.0	2.0	4.0	go	non-target	B	89,Middle Finger	71,Index Finger	750.0	1000.0	2000.0	1750.0	1.0	1000.0	1.0	n/a	ITI
244670	500	n/a	-1	-1	500	0.0	fixation	poldrack-single-stim	112	308548	0.0-9.5-0.5	beast_fmri_test	391	308104,/	t	<div class = centerbox2><div class = fixation>+</div></div>	none	500.0	test	n/a	n/a	n/a	n/a	n/a	n/a	n/a	n/a	n/a	n/a	n/a	n/a	n/a	n/a	n/a	n/a	n/a	n/a	fixation
244409.66897020052	2750	n/a	1871	71	2750	264.331029799	stim	stop-signal	113	311302	0.0-9.5-1.5	beast_fmri_test	391	308785,/,309465,/,310146,/,310826,/,311505,/	t,t,t,t,t	<img class = center src='/static/experiments/beast_fmri_test/images/B.png'></img>	89,71	2750.0	test	<img class = center src='/static/experiments/beast_fmri_test/images/redB.png'></img>	go	1750.0	2.0	5.0	go	non-target	B	89,Middle Finger	71,Index Finger	750.0	1000.0	2000.0	1750.0	1.0	1000.0	1.0	n/a	go_stim
247159.66897020052	264.33102979947449	n/a	1871	71	2750	264.331029799	stim	stop-signal	113	311302	0.0-9.5-1.5	beast_fmri_test	391	308785,/,309465,/,310146,/,310826,/,311505,/	t,t,t,t,t	<img class = center src='/static/experiments/beast_fmri_test/images/B.png'></img>	89,71	2750.0	test	<img class = center src='/static/experiments/beast_fmri_test/images/redB.png'></img>	go	1750.0	2.0	5.0	go	non-target	B	89,Middle Finger	71,Index Finger	750.0	1000.0	2000.0	1750.0	1.0	1000.0	1.0	n/a	ITI
248204	500	n/a	-1	-1	500	0.0	fixation	poldrack-single-stim	114	312082	0.0-9.6-0.6	beast_fmri_test	391	n/a	n/a	<div class = centerbox2><div class = fixation>+</div></div>	none	500.0	test	n/a	n/a	n/a	n/a	n/a	n/a	n/a	n/a	n/a	n/a	n/a	n/a	n/a	n/a	n/a	n/a	n/a	n/a	fixation
247930.93134482217	2750	n/a	1546	71	2750	278.068655178	stim	stop-signal	115	314837	0.0-9.6-1.6	beast_fmri_test	391	312187,/,312865,/,313548,/,314227,/,314908,/	t,t,t,t,t	<img class = center src='/static/experiments/beast_fmri_test/images/D.png'></img>	89,71	2750.0	test	<img class = center src='/static/experiments/beast_fmri_test/images/redD.png'></img>	go	1750.0	2.0	6.0	go	non-target	D	89,Middle Finger	71,Index Finger	750.0	1000.0	2000.0	1750.0	1.0	1000.0	1.0	n/a	go_stim
250680.93134482217	278.06865517785758	n/a	1546	71	2750	278.068655178	stim	stop-signal	115	314837	0.0-9.6-1.6	beast_fmri_test	391	312187,/,312865,/,313548,/,314227,/,314908,/	t,t,t,t,t	<img class = center src='/static/experiments/beast_fmri_test/images/D.png'></img>	89,71	2750.0	test	<img class = center src='/static/experiments/beast_fmri_test/images/redD.png'></img>	go	1750.0	2.0	6.0	go	non-target	D	89,Middle Finger	71,Index Finger	750.0	1000.0	2000.0	1750.0	1.0	1000.0	1.0	n/a	ITI
251755	500	n/a	-1	-1	500	0.0	fixation	poldrack-single-stim	116	315633	0.0-9.7-0.7	beast_fmri_test	391	315587,/	t	<div class = centerbox2><div class = fixation>+</div></div>	none	500.0	test	n/a	n/a	n/a	n/a	n/a	n/a	n/a	n/a	n/a	n/a	n/a	n/a	n/a	n/a	n/a	n/a	n/a	n/a	fixation
250705.73635745508	2750	n/a	1842	71	2750	1053.26364254	stim	stop-signal	117	318387	0.0-9.7-1.7	beast_fmri_test	391	316269,/,316949,/,317629,/,318309,/,318990,/	t,t,t,t,t	<img class = center src='/static/experiments/beast_fmri_test/images/V.png'></img>	89,71	2750.0	test	<img class = center src='/static/experiments/beast_fmri_test/images/redV.png'></img>	go	1750.0	2.0	7.0	go	non-target	V	89,Middle Finger	71,Index Finger	750.0	1000.0	2000.0	1750.0	1.0	1000.0	1.0	n/a	go_stim
253455.73635745508	1053.263642544933	n/a	1842	71	2750	1053.26364254	stim	stop-signal	117	318387	0.0-9.7-1.7	beast_fmri_test	391	316269,/,316949,/,317629,/,318309,/,318990,/	t,t,t,t,t	<img class = center src='/static/experiments/beast_fmri_test/images/V.png'></img>	89,71	2750.0	test	<img class = center src='/static/experiments/beast_fmri_test/images/redV.png'></img>	go	1750.0	2.0	7.0	go	non-target	V	89,Middle Finger	71,Index Finger	750.0	1000.0	2000.0	1750.0	1.0	1000.0	1.0	n/a	ITI
256081	500	n/a	-1	-1	500	0.0	fixation	poldrack-single-stim	118	319959	0.0-9.8-0.8	beast_fmri_test	391	319670,/	t	<div class = centerbox2><div class = fixation>+</div></div>	none	500.0	test	n/a	n/a	n/a	n/a	n/a	n/a	n/a	n/a	n/a	n/a	n/a	n/a	n/a	n/a	n/a	n/a	n/a	n/a	fixation
255666.64163966023	2750	n/a	1425	71	2750	418.35836034	stim	stop-signal	119	322713	0.0-9.8-1.8	beast_fmri_test	391	320351,/,321031,/,321711,/,322391,/,323071,/	t,t,t,t,t	<img class = center src='/static/experiments/beast_fmri_test/images/B.png'></img>	89,71	2750.0	test	<img class = center src='/static/experiments/beast_fmri_test/images/redB.png'></img>	go	1750.0	2.0	8.0	go	non-target	B	89,Middle Finger	71,Index Finger	750.0	1000.0	2000.0	1750.0	1.0	1000.0	1.0	n/a	go_stim
258416.64163966023	418.35836033979922	n/a	1425	71	2750	418.35836034	stim	stop-signal	119	322713	0.0-9.8-1.8	beast_fmri_test	391	320351,/,321031,/,321711,/,322391,/,323071,/	t,t,t,t,t	<img class = center src='/static/experiments/beast_fmri_test/images/B.png'></img>	89,71	2750.0	test	<img class = center src='/static/experiments/beast_fmri_test/images/redB.png'></img>	go	1750.0	2.0	8.0	go	non-target	B	89,Middle Finger	71,Index Finger	750.0	1000.0	2000.0	1750.0	1.0	1000.0	1.0	n/a	ITI
259772	500	n/a	-1	-1	500	0.0	fixation	poldrack-single-stim	120	323650	0.0-9.9-0.9	beast_fmri_test	391	n/a	n/a	<div class = centerbox2><div class = fixation>+</div></div>	none	500.0	test	n/a	n/a	n/a	n/a	n/a	n/a	n/a	n/a	n/a	n/a	n/a	n/a	n/a	n/a	n/a	n/a	n/a	n/a	fixation
259662.70197257493	1000.0	n/a	-1	-1	2750	114.298027425	stim	stop-signal	121	326405	0.0-9.9-1.9	beast_fmri_test	391	323752,/,324432,/,325113,/,325793,/,326473,/	t,t,t,t,t	<img class = center src='/static/experiments/beast_fmri_test/images/B.png'></img>	89,71	2750.0	test	<img class = center src='/static/experiments/beast_fmri_test/images/redB.png'></img>	stop	1750.0	2.0	9.0	stop	non-target	B	89,Middle Finger	71,Index Finger	750.0	1000.0	2000.0	1750.0	0.0	1000.0	n/a	1.0	go_stim
261412.70197257493	1750.0	n/a	-1	-1	2750	114.298027425	stim	stop-signal	121	326405	0.0-9.9-1.9	beast_fmri_test	391	323752,/,324432,/,325113,/,325793,/,326473,/	t,t,t,t,t	<img class = center src='/static/experiments/beast_fmri_test/images/B.png'></img>	89,71	2750.0	test	<img class = center src='/static/experiments/beast_fmri_test/images/redB.png'></img>	stop	1750.0	2.0	9.0	stop	non-target	B	89,Middle Finger	71,Index Finger	750.0	1000.0	2000.0	1750.0	0.0	1000.0	n/a	1.0	stop_stim
262412.70197257493	114.29802742505068	n/a	-1	-1	2750	114.298027425	stim	stop-signal	121	326405	0.0-9.9-1.9	beast_fmri_test	391	323752,/,324432,/,325113,/,325793,/,326473,/	t,t,t,t,t	<img class = center src='/static/experiments/beast_fmri_test/images/B.png'></img>	89,71	2750.0	test	<img class = center src='/static/experiments/beast_fmri_test/images/redB.png'></img>	stop	1750.0	2.0	9.0	stop	non-target	B	89,Middle Finger	71,Index Finger	750.0	1000.0	2000.0	1750.0	0.0	1000.0	n/a	1.0	ITI
263160	500	n/a	-1	-1	500	0.0	fixation	poldrack-single-stim	122	327038	0.0-9.10-0.10	beast_fmri_test	391	n/a	n/a	<div class = centerbox2><div class = fixation>+</div></div>	none	500.0	test	n/a	n/a	n/a	n/a	n/a	n/a	n/a	n/a	n/a	n/a	n/a	n/a	n/a	n/a	n/a	n/a	n/a	n/a	fixation
261347.77961133356	1050.0	n/a	-1	-1	2750	1816.22038867	stim	stop-signal	123	329792	0.0-9.10-1.10	beast_fmri_test	391	327153,/,327833,/,328514,/,329194,/,329874,/,330555,/,331235,/	t,t,t,t,t,t,t	<img class = center src='/static/experiments/beast_fmri_test/images/T.png'></img>	89,71	2750.0	test	<img class = center src='/static/experiments/beast_fmri_test/images/redT.png'></img>	stop	1700.0	2.0	10.0	stop	non-target	T	89,Middle Finger	71,Index Finger	750.0	1050.0	2000.0	1700.0	0.0	1050.0	n/a	1.0	go_stim
263047.77961133356	1700.0	n/a	-1	-1	2750	1816.22038867	stim	stop-signal	123	329792	0.0-9.10-1.10	beast_fmri_test	391	327153,/,327833,/,328514,/,329194,/,329874,/,330555,/,331235,/	t,t,t,t,t,t,t	<img class = center src='/static/experiments/beast_fmri_test/images/T.png'></img>	89,71	2750.0	test	<img class = center src='/static/experiments/beast_fmri_test/images/redT.png'></img>	stop	1700.0	2.0	10.0	stop	non-target	T	89,Middle Finger	71,Index Finger	750.0	1050.0	2000.0	1700.0	0.0	1050.0	n/a	1.0	stop_stim
264097.77961133356	1816.2203886664404	n/a	-1	-1	2750	1816.22038867	stim	stop-signal	123	329792	0.0-9.10-1.10	beast_fmri_test	391	327153,/,327833,/,328514,/,329194,/,329874,/,330555,/,331235,/	t,t,t,t,t,t,t	<img class = center src='/static/experiments/beast_fmri_test/images/T.png'></img>	89,71	2750.0	test	<img class = center src='/static/experiments/beast_fmri_test/images/redT.png'></img>	stop	1700.0	2.0	10.0	stop	non-target	T	89,Middle Finger	71,Index Finger	750.0	1050.0	2000.0	1700.0	0.0	1050.0	n/a	1.0	ITI
268253	500	n/a	-1	-1	500	0.0	fixation	poldrack-single-stim	124	332131	0.0-9.11-0.11	beast_fmri_test	391	331915,/	t	<div class = centerbox2><div class = fixation>+</div></div>	none	500.0	test	n/a	n/a	n/a	n/a	n/a	n/a	n/a	n/a	n/a	n/a	n/a	n/a	n/a	n/a	n/a	n/a	n/a	n/a	fixation
266366.74184123863	1100.0	n/a	-1	-1	2750	1890.25815876	stim	stop-signal	125	334885	0.0-9.11-1.11	beast_fmri_test	391	332595,/,333276,/,333956,/,334636,/,335317,/,335997,/,336677,/	t,t,t,t,t,t,t	<img class = center src='/static/experiments/beast_fmri_test/images/P.png'></img>	89,71	2750.0	test	<img class = center src='/static/experiments/beast_fmri_test/images/redP.png'></img>	stop	1650.0	2.0	11.0	stop	non-target	P	89,Middle Finger	71,Index Finger	750.0	1100.0	2000.0	1650.0	0.0	1100.0	n/a	1.0	go_stim
268016.74184123863	1650.0	n/a	-1	-1	2750	1890.25815876	stim	stop-signal	125	334885	0.0-9.11-1.11	beast_fmri_test	391	332595,/,333276,/,333956,/,334636,/,335317,/,335997,/,336677,/	t,t,t,t,t,t,t	<img class = center src='/static/experiments/beast_fmri_test/images/P.png'></img>	89,71	2750.0	test	<img class = center src='/static/experiments/beast_fmri_test/images/redP.png'></img>	stop	1650.0	2.0	11.0	stop	non-target	P	89,Middle Finger	71,Index Finger	750.0	1100.0	2000.0	1650.0	0.0	1100.0	n/a	1.0	stop_stim
269116.74184123863	1890.2581587613727	n/a	-1	-1	2750	1890.25815876	stim	stop-signal	125	334885	0.0-9.11-1.11	beast_fmri_test	391	332595,/,333276,/,333956,/,334636,/,335317,/,335997,/,336677,/	t,t,t,t,t,t,t	<img class = center src='/static/experiments/beast_fmri_test/images/P.png'></img>	89,71	2750.0	test	<img class = center src='/static/experiments/beast_fmri_test/images/redP.png'></img>	stop	1650.0	2.0	11.0	stop	non-target	P	89,Middle Finger	71,Index Finger	750.0	1100.0	2000.0	1650.0	0.0	1100.0	n/a	1.0	ITI
273417	500	n/a	-1	-1	500	0.0	fixation	poldrack-single-stim	126	337295	0.0-9.12-0.12	beast_fmri_test	391	n/a	n/a	<div class = centerbox2><div class = fixation>+</div></div>	none	500.0	test	n/a	n/a	n/a	n/a	n/a	n/a	n/a	n/a	n/a	n/a	n/a	n/a	n/a	n/a	n/a	n/a	n/a	n/a	fixation
272001.38552504289	1150.0	n/a	-1	-1	2750	1420.61447496	stim	stop-signal	127	340050	0.0-9.12-1.12	beast_fmri_test	391	337357,/,338038,/,338718,/,339398,/,340078,/,340758,/,341440,/	t,t,t,t,t,t,t	<img class = center src='/static/experiments/beast_fmri_test/images/D.png'></img>	89,71	2750.0	test	<img class = center src='/static/experiments/beast_fmri_test/images/redD.png'></img>	stop	1600.0	2.0	12.0	stop	non-target	D	89,Middle Finger	71,Index Finger	750.0	1150.0	2000.0	1600.0	0.0	1150.0	n/a	1.0	go_stim
273601.38552504289	1600.0	n/a	-1	-1	2750	1420.61447496	stim	stop-signal	127	340050	0.0-9.12-1.12	beast_fmri_test	391	337357,/,338038,/,338718,/,339398,/,340078,/,340758,/,341440,/	t,t,t,t,t,t,t	<img class = center src='/static/experiments/beast_fmri_test/images/D.png'></img>	89,71	2750.0	test	<img class = center src='/static/experiments/beast_fmri_test/images/redD.png'></img>	stop	1600.0	2.0	12.0	stop	non-target	D	89,Middle Finger	71,Index Finger	750.0	1150.0	2000.0	1600.0	0.0	1150.0	n/a	1.0	stop_stim
274751.38552504289	1420.6144749570894	n/a	-1	-1	2750	1420.61447496	stim	stop-signal	127	340050	0.0-9.12-1.12	beast_fmri_test	391	337357,/,338038,/,338718,/,339398,/,340078,/,340758,/,341440,/	t,t,t,t,t,t,t	<img class = center src='/static/experiments/beast_fmri_test/images/D.png'></img>	89,71	2750.0	test	<img class = center src='/static/experiments/beast_fmri_test/images/redD.png'></img>	stop	1600.0	2.0	12.0	stop	non-target	D	89,Middle Finger	71,Index Finger	750.0	1150.0	2000.0	1600.0	0.0	1150.0	n/a	1.0	ITI
278111	500	n/a	-1	-1	500	0.0	fixation	poldrack-single-stim	128	341989	0.0-9.13-0.13	beast_fmri_test	391	n/a	n/a	<div class = centerbox2><div class = fixation>+</div></div>	none	500.0	test	n/a	n/a	n/a	n/a	n/a	n/a	n/a	n/a	n/a	n/a	n/a	n/a	n/a	n/a	n/a	n/a	n/a	n/a	fixation
277240.27712318936	750.0	n/a	-1	-1	2750	874.722876811	stim	stop-signal	129	344743	0.0-9.13-1.13	beast_fmri_test	391	342119,/,342798,/,343480,/,344162,/,344840,/,345522,/	t,t,t,t,t,t	<img class = center src='/static/experiments/beast_fmri_test/images/P.png'></img>	89,71	2750.0	test	<img class = center src='/static/experiments/beast_fmri_test/images/redP.png'></img>	stop	2000.0	2.0	13.0	stop	target	P	89,Middle Finger	71,Index Finger	750.0	1200.0	2000.0	1600.0	0.0	750.0	n/a	1.0	go_stim
279240.27712318936	2000.0	n/a	-1	-1	2750	874.722876811	stim	stop-signal	129	344743	0.0-9.13-1.13	beast_fmri_test	391	342119,/,342798,/,343480,/,344162,/,344840,/,345522,/	t,t,t,t,t,t	<img class = center src='/static/experiments/beast_fmri_test/images/P.png'></img>	89,71	2750.0	test	<img class = center src='/static/experiments/beast_fmri_test/images/redP.png'></img>	stop	2000.0	2.0	13.0	stop	target	P	89,Middle Finger	71,Index Finger	750.0	1200.0	2000.0	1600.0	0.0	750.0	n/a	1.0	stop_stim
279990.27712318936	874.72287681063449	n/a	-1	-1	2750	874.722876811	stim	stop-signal	129	344743	0.0-9.13-1.13	beast_fmri_test	391	342119,/,342798,/,343480,/,344162,/,344840,/,345522,/	t,t,t,t,t,t	<img class = center src='/static/experiments/beast_fmri_test/images/P.png'></img>	89,71	2750.0	test	<img class = center src='/static/experiments/beast_fmri_test/images/redP.png'></img>	stop	2000.0	2.0	13.0	stop	target	P	89,Middle Finger	71,Index Finger	750.0	1200.0	2000.0	1600.0	0.0	750.0	n/a	1.0	ITI
282257	500	n/a	-1	-1	500	0.0	fixation	poldrack-single-stim	130	346135	0.0-9.14-0.14	beast_fmri_test	391	n/a	n/a	<div class = centerbox2><div class = fixation>+</div></div>	none	500.0	test	n/a	n/a	n/a	n/a	n/a	n/a	n/a	n/a	n/a	n/a	n/a	n/a	n/a	n/a	n/a	n/a	n/a	n/a	fixation
281586.3585127769	2750	n/a	1772	71	2750	674.641487223	stim	stop-signal	131	348889	0.0-9.14-1.14	beast_fmri_test	391	346203,/,346882,/,347562,/,348243,/,348922,/	t,t,t,t,t	<img class = center src='/static/experiments/beast_fmri_test/images/P.png'></img>	89,71	2750.0	test	<img class = center src='/static/experiments/beast_fmri_test/images/redP.png'></img>	go	1550.0	2.0	14.0	go	non-target	P	89,Middle Finger	71,Index Finger	800.0	1200.0	2000.0	1550.0	1.0	1200.0	1.0	n/a	go_stim
284336.3585127769	674.64148722307823	n/a	1772	71	2750	674.641487223	stim	stop-signal	131	348889	0.0-9.14-1.14	beast_fmri_test	391	346203,/,346882,/,347562,/,348243,/,348922,/	t,t,t,t,t	<img class = center src='/static/experiments/beast_fmri_test/images/P.png'></img>	89,71	2750.0	test	<img class = center src='/static/experiments/beast_fmri_test/images/redP.png'></img>	go	1550.0	2.0	14.0	go	non-target	P	89,Middle Finger	71,Index Finger	800.0	1200.0	2000.0	1550.0	1.0	1200.0	1.0	n/a	ITI
286207	500	n/a	-1	-1	500	0.0	fixation	poldrack-single-stim	132	350085	0.0-9.15-0.15	beast_fmri_test	391	349604,/	t	<div class = centerbox2><div class = fixation>+</div></div>	none	500.0	test	n/a	n/a	n/a	n/a	n/a	n/a	n/a	n/a	n/a	n/a	n/a	n/a	n/a	n/a	n/a	n/a	n/a	n/a	fixation
285331.82323817228	800.0	n/a	-1	-1	2750	879.176761828	stim	stop-signal	133	352839	0.0-9.15-1.15	beast_fmri_test	391	350284,/,350964,/,351644,/,352324,/,353003,/,353685,/	t,t,t,t,t,t	<img class = center src='/static/experiments/beast_fmri_test/images/P.png'></img>	89,71	2750.0	test	<img class = center src='/static/experiments/beast_fmri_test/images/redP.png'></img>	stop	1950.0	2.0	15.0	stop	target	P	89,Middle Finger	71,Index Finger	800.0	1200.0	1950.0	1550.0	0.0	800.0	n/a	1.0	go_stim
287281.82323817228	1950.0	n/a	-1	-1	2750	879.176761828	stim	stop-signal	133	352839	0.0-9.15-1.15	beast_fmri_test	391	350284,/,350964,/,351644,/,352324,/,353003,/,353685,/	t,t,t,t,t,t	<img class = center src='/static/experiments/beast_fmri_test/images/P.png'></img>	89,71	2750.0	test	<img class = center src='/static/experiments/beast_fmri_test/images/redP.png'></img>	stop	1950.0	2.0	15.0	stop	target	P	89,Middle Finger	71,Index Finger	800.0	1200.0	1950.0	1550.0	0.0	800.0	n/a	1.0	stop_stim
288081.82323817228	879.17676182774449	n/a	-1	-1	2750	879.176761828	stim	stop-signal	133	352839	0.0-9.15-1.15	beast_fmri_test	391	350284,/,350964,/,351644,/,352324,/,353003,/,353685,/	t,t,t,t,t,t	<img class = center src='/static/experiments/beast_fmri_test/images/P.png'></img>	89,71	2750.0	test	<img class = center src='/static/experiments/beast_fmri_test/images/redP.png'></img>	stop	1950.0	2.0	15.0	stop	target	P	89,Middle Finger	71,Index Finger	800.0	1200.0	1950.0	1550.0	0.0	800.0	n/a	1.0	ITI
290363	500	n/a	-1	-1	500	0.0	fixation	poldrack-single-stim	134	354241	0.0-9.16-0.16	beast_fmri_test	391	n/a	n/a	<div class = centerbox2><div class = fixation>+</div></div>	none	500.0	test	n/a	n/a	n/a	n/a	n/a	n/a	n/a	n/a	n/a	n/a	n/a	n/a	n/a	n/a	n/a	n/a	n/a	n/a	fixation
289965.5239539874	2750	n/a	1292	89	2750	400.476046013	stim	stop-signal	135	356994	0.0-9.16-1.16	beast_fmri_test	391	354365,/,355046,/,355726,/,356406,/,357087,/	t,t,t,t,t	<img class = center src='/static/experiments/beast_fmri_test/images/P.png'></img>	89,71	2750.0	test	<img class = center src='/static/experiments/beast_fmri_test/images/redP.png'></img>	go	1900.0	2.0	16.0	go	target	P	89,Middle Finger	71,Index Finger	850.0	1200.0	1900.0	1550.0	1.0	850.0	1.0	n/a	go_stim
292715.5239539874	400.47604601262339	n/a	1292	89	2750	400.476046013	stim	stop-signal	135	356994	0.0-9.16-1.16	beast_fmri_test	391	354365,/,355046,/,355726,/,356406,/,357087,/	t,t,t,t,t	<img class = center src='/static/experiments/beast_fmri_test/images/P.png'></img>	89,71	2750.0	test	<img class = center src='/static/experiments/beast_fmri_test/images/redP.png'></img>	go	1900.0	2.0	16.0	go	target	P	89,Middle Finger	71,Index Finger	850.0	1200.0	1900.0	1550.0	1.0	850.0	1.0	n/a	ITI
294036	500	n/a	-1	-1	500	0.0	fixation	poldrack-single-stim	136	357914	0.0-9.17-0.17	beast_fmri_test	391	357767,/	t	<div class = centerbox2><div class = fixation>+</div></div>	none	500.0	test	n/a	n/a	n/a	n/a	n/a	n/a	n/a	n/a	n/a	n/a	n/a	n/a	n/a	n/a	n/a	n/a	n/a	n/a	fixation
292332.83146747365	2750	n/a	1318	89	2750	1708.16853253	stim	stop-signal	137	360669	0.0-9.17-1.17	beast_fmri_test	391	358447,/,359128,/,359807,/,360488,/,361168,/,361848,/	t,t,t,t,t,t	<img class = center src='/static/experiments/beast_fmri_test/images/P.png'></img>	89,71	2750.0	test	<img class = center src='/static/experiments/beast_fmri_test/images/redP.png'></img>	go	1900.0	2.0	17.0	go	target	P	89,Middle Finger	71,Index Finger	850.0	1200.0	1900.0	1550.0	1.0	850.0	1.0	n/a	go_stim
295082.83146747365	1708.1685325263475	n/a	1318	89	2750	1708.16853253	stim	stop-signal	137	360669	0.0-9.17-1.17	beast_fmri_test	391	358447,/,359128,/,359807,/,360488,/,361168,/,361848,/	t,t,t,t,t,t	<img class = center src='/static/experiments/beast_fmri_test/images/P.png'></img>	89,71	2750.0	test	<img class = center src='/static/experiments/beast_fmri_test/images/redP.png'></img>	go	1900.0	2.0	17.0	go	target	P	89,Middle Finger	71,Index Finger	850.0	1200.0	1900.0	1550.0	1.0	850.0	1.0	n/a	ITI
299021	500	n/a	-1	-1	500	0.0	fixation	poldrack-single-stim	138	362899	0.0-9.18-0.18	beast_fmri_test	391	362530,/	t	<div class = centerbox2><div class = fixation>+</div></div>	none	500.0	test	n/a	n/a	n/a	n/a	n/a	n/a	n/a	n/a	n/a	n/a	n/a	n/a	n/a	n/a	n/a	n/a	n/a	n/a	fixation
296445.84302287985	2750	n/a	1691	71	2750	2579.15697712	stim	stop-signal	139	365653	0.0-9.18-1.18	beast_fmri_test	391	363209,/,363889,/,364569,/,365250,/,365930,/,366610,/,367291,/,367971,/	t,t,t,t,t,t,t,t	<img class = center src='/static/experiments/beast_fmri_test/images/B.png'></img>	89,71	2750.0	test	<img class = center src='/static/experiments/beast_fmri_test/images/redB.png'></img>	go	1550.0	2.0	18.0	go	non-target	B	89,Middle Finger	71,Index Finger	850.0	1200.0	1900.0	1550.0	1.0	1200.0	1.0	n/a	go_stim
299195.84302287985	2579.1569771201589	n/a	1691	71	2750	2579.15697712	stim	stop-signal	139	365653	0.0-9.18-1.18	beast_fmri_test	391	363209,/,363889,/,364569,/,365250,/,365930,/,366610,/,367291,/,367971,/	t,t,t,t,t,t,t,t	<img class = center src='/static/experiments/beast_fmri_test/images/B.png'></img>	89,71	2750.0	test	<img class = center src='/static/experiments/beast_fmri_test/images/redB.png'></img>	go	1550.0	2.0	18.0	go	non-target	B	89,Middle Finger	71,Index Finger	850.0	1200.0	1900.0	1550.0	1.0	1200.0	1.0	n/a	ITI
304876	500	n/a	-1	-1	500	0.0	fixation	poldrack-single-stim	140	368754	0.0-9.19-0.19	beast_fmri_test	391	368651,/	t	<div class = centerbox2><div class = fixation>+</div></div>	none	500.0	test	n/a	n/a	n/a	n/a	n/a	n/a	n/a	n/a	n/a	n/a	n/a	n/a	n/a	n/a	n/a	n/a	n/a	n/a	fixation
304421.52291262848	1200.0	n/a	1565	71	2750	459.477087372	stim	stop-signal	141	371509	0.0-9.19-1.19	beast_fmri_test	391	369331,/,370011,/,370692,/,371372,/	t,t,t,t	<img class = center src='/static/experiments/beast_fmri_test/images/V.png'></img>	89,71	2750.0	test	<img class = center src='/static/experiments/beast_fmri_test/images/redV.png'></img>	stop	1550.0	2.0	19.0	stop	non-target	V	89,Middle Finger	71,Index Finger	850.0	1200.0	1900.0	1550.0	0.0	1200.0	n/a	0.0	go_stim
305971.52291262848	1550.0	n/a	1565	71	2750	459.477087372	stim	stop-signal	141	371509	0.0-9.19-1.19	beast_fmri_test	391	369331,/,370011,/,370692,/,371372,/	t,t,t,t	<img class = center src='/static/experiments/beast_fmri_test/images/V.png'></img>	89,71	2750.0	test	<img class = center src='/static/experiments/beast_fmri_test/images/redV.png'></img>	stop	1550.0	2.0	19.0	stop	non-target	V	89,Middle Finger	71,Index Finger	850.0	1200.0	1900.0	1550.0	0.0	1200.0	n/a	0.0	stop_stim
307171.52291262848	459.47708737151368	n/a	1565	71	2750	459.477087372	stim	stop-signal	141	371509	0.0-9.19-1.19	beast_fmri_test	391	369331,/,370011,/,370692,/,371372,/	t,t,t,t	<img class = center src='/static/experiments/beast_fmri_test/images/V.png'></img>	89,71	2750.0	test	<img class = center src='/static/experiments/beast_fmri_test/images/redV.png'></img>	stop	1550.0	2.0	19.0	stop	non-target	V	89,Middle Finger	71,Index Finger	850.0	1200.0	1900.0	1550.0	0.0	1200.0	n/a	0.0	ITI
308610	500	n/a	-1	-1	500	0.0	fixation	poldrack-single-stim	142	372488	0.0-9.20-0.20	beast_fmri_test	391	372052,/	t	<div class = centerbox2><div class = fixation>+</div></div>	none	500.0	test	n/a	n/a	n/a	n/a	n/a	n/a	n/a	n/a	n/a	n/a	n/a	n/a	n/a	n/a	n/a	n/a	n/a	n/a	fixation
308072.58492181759	2750	n/a	1871	71	2750	541.415078182	stim	stop-signal	143	375242	0.0-9.20-1.20	beast_fmri_test	391	372734,/,373414,/,374095,/,374775,/,375455,/	t,t,t,t,t	<img class = center src='/static/experiments/beast_fmri_test/images/D.png'></img>	89,71	2750.0	test	<img class = center src='/static/experiments/beast_fmri_test/images/redD.png'></img>	go	1600.0	2.0	20.0	go	non-target	D	89,Middle Finger	71,Index Finger	850.0	1150.0	1900.0	1600.0	1.0	1150.0	1.0	n/a	go_stim
310822.58492181759	541.41507818239961	n/a	1871	71	2750	541.415078182	stim	stop-signal	143	375242	0.0-9.20-1.20	beast_fmri_test	391	372734,/,373414,/,374095,/,374775,/,375455,/	t,t,t,t,t	<img class = center src='/static/experiments/beast_fmri_test/images/D.png'></img>	89,71	2750.0	test	<img class = center src='/static/experiments/beast_fmri_test/images/redD.png'></img>	go	1600.0	2.0	20.0	go	non-target	D	89,Middle Finger	71,Index Finger	850.0	1150.0	1900.0	1600.0	1.0	1150.0	1.0	n/a	ITI
312428	500	n/a	-1	-1	500	0.0	fixation	poldrack-single-stim	144	376306	0.0-9.21-0.21	beast_fmri_test	391	376136,/	t	<div class = centerbox2><div class = fixation>+</div></div>	none	500.0	test	n/a	n/a	n/a	n/a	n/a	n/a	n/a	n/a	n/a	n/a	n/a	n/a	n/a	n/a	n/a	n/a	n/a	n/a	fixation
311470.01445790974	2750	n/a	2130	71	2750	961.98554209	stim	stop-signal	145	379060	0.0-9.21-1.21	beast_fmri_test	391	376815,/,377497,/,378175,/,378856,/,379536,/	t,t,t,t,t	<img class = center src='/static/experiments/beast_fmri_test/images/B.png'></img>	89,71	2750.0	test	<img class = center src='/static/experiments/beast_fmri_test/images/redB.png'></img>	go	1600.0	2.0	21.0	go	non-target	B	89,Middle Finger	71,Index Finger	850.0	1150.0	1900.0	1600.0	1.0	1150.0	1.0	n/a	go_stim
314220.01445790974	961.9855420902386	n/a	2130	71	2750	961.98554209	stim	stop-signal	145	379060	0.0-9.21-1.21	beast_fmri_test	391	376815,/,377497,/,378175,/,378856,/,379536,/	t,t,t,t,t	<img class = center src='/static/experiments/beast_fmri_test/images/B.png'></img>	89,71	2750.0	test	<img class = center src='/static/experiments/beast_fmri_test/images/redB.png'></img>	go	1600.0	2.0	21.0	go	non-target	B	89,Middle Finger	71,Index Finger	850.0	1150.0	1900.0	1600.0	1.0	1150.0	1.0	n/a	ITI
316664	500	n/a	-1	-1	500	0.0	fixation	poldrack-single-stim	146	380542	0.0-9.22-0.22	beast_fmri_test	391	380217,/	t	<div class = centerbox2><div class = fixation>+</div></div>	none	500.0	test	n/a	n/a	n/a	n/a	n/a	n/a	n/a	n/a	n/a	n/a	n/a	n/a	n/a	n/a	n/a	n/a	n/a	n/a	fixation
316653.89018946391	2750	n/a	2021	71	2750	14.1098105361	stim	stop-signal	147	383296	0.0-9.22-1.22	beast_fmri_test	391	380898,/,381578,/,382258,/,382938,/	t,t,t,t	<img class = center src='/static/experiments/beast_fmri_test/images/B.png'></img>	89,71	2750.0	test	<img class = center src='/static/experiments/beast_fmri_test/images/redB.png'></img>	go	1600.0	2.0	22.0	go	non-target	B	89,Middle Finger	71,Index Finger	850.0	1150.0	1900.0	1600.0	1.0	1150.0	1.0	n/a	go_stim
319403.89018946391	14.109810536093836	n/a	2021	71	2750	14.1098105361	stim	stop-signal	147	383296	0.0-9.22-1.22	beast_fmri_test	391	380898,/,381578,/,382258,/,382938,/	t,t,t,t	<img class = center src='/static/experiments/beast_fmri_test/images/B.png'></img>	89,71	2750.0	test	<img class = center src='/static/experiments/beast_fmri_test/images/redB.png'></img>	go	1600.0	2.0	22.0	go	non-target	B	89,Middle Finger	71,Index Finger	850.0	1150.0	1900.0	1600.0	1.0	1150.0	1.0	n/a	ITI
